SpectraSuite Data File
++++++++++++++++++++++++++++++++++++
Date: Fri Feb 01 15:15:46 EST 2013
User: group
Dark Spectrum Present: No
Reference Spectrum Present: No
Number of Sampled Component Spectra: 1
Spectrometers: USB2E7196
Integration Time (usec): 35000 (USB2E7196)
Spectra Averaged: 100 (USB2E7196)
Boxcar Smoothing: 10 (USB2E7196)
Correct for Electrical Dark: No (USB2E7196)
Strobe/Lamp Enabled: No (USB2E7196)
Correct for Detector Non-linearity: No (USB2E7196)
Correct for Stray Light: No (USB2E7196)
Number of Pixels in Processed Spectrum: 2048
>>>>>Begin Processed Spectral Data<<<<<
339.09	0.00
339.48	214.82
339.86	216.69
340.24	217.97
340.63	219.38
341.01	222.62
341.39	222.21
341.78	223.23
342.16	224.50
342.54	224.57
342.93	213.47
343.31	224.26
343.69	224.83
344.07	225.28
344.46	225.70
344.84	226.06
345.22	226.29
345.60	226.51
345.99	226.71
346.37	226.80
346.75	226.93
347.13	227.00
347.52	227.04
347.90	227.09
348.28	227.13
348.66	227.19
349.05	227.17
349.43	227.23
349.81	227.23
350.19	227.24
350.57	227.27
350.96	227.35
351.34	227.43
351.72	227.50
352.10	227.59
352.48	227.67
352.87	227.75
353.25	227.78
353.63	227.88
354.01	227.95
354.39	228.07
354.77	228.14
355.15	228.25
355.54	228.32
355.92	228.37
356.30	228.45
356.68	228.55
357.06	228.64
357.44	228.68
357.82	228.74
358.20	228.83
358.58	228.91
358.97	228.96
359.35	229.03
359.73	229.10
360.11	229.14
360.49	229.18
360.87	229.21
361.25	229.29
361.63	229.36
362.01	229.40
362.39	229.40
362.77	229.43
363.15	229.43
363.53	229.45
363.91	229.48
364.29	229.47
364.67	229.43
365.05	229.45
365.43	229.47
365.81	229.48
366.19	229.50
366.57	229.52
366.95	229.53
367.33	229.46
367.71	229.45
368.09	229.46
368.47	229.43
368.85	229.42
369.23	229.39
369.61	229.28
369.99	229.28
370.37	229.27
370.75	229.27
371.13	229.25
371.51	229.22
371.89	229.16
372.27	229.12
372.65	229.06
373.03	229.00
373.41	228.92
373.78	228.85
374.16	228.76
374.54	228.65
374.92	228.58
375.30	228.56
375.68	228.45
376.06	228.41
376.44	228.34
376.82	228.22
377.19	228.15
377.57	228.11
377.95	227.99
378.33	227.90
378.71	227.79
379.09	227.71
379.47	227.62
379.84	227.55
380.22	227.44
380.60	227.33
380.98	227.25
381.36	227.17
381.73	227.10
382.11	227.04
382.49	226.96
382.87	226.84
383.25	226.78
383.62	226.84
384.00	226.73
384.38	226.69
384.76	226.67
385.13	226.64
385.51	226.57
385.89	226.47
386.27	226.42
386.64	226.39
387.02	226.32
387.40	226.25
387.78	226.21
388.15	226.19
388.53	226.17
388.91	226.13
389.29	226.10
389.66	226.08
390.04	226.06
390.42	226.07
390.79	226.07
391.17	226.04
391.55	225.91
391.92	225.91
392.30	225.90
392.68	225.90
393.05	225.89
393.43	225.91
393.81	225.95
394.18	225.95
394.56	225.95
394.94	226.00
395.31	226.01
395.69	226.05
396.06	226.10
396.44	226.13
396.82	226.15
397.19	226.24
397.57	226.31
397.95	226.34
398.32	226.37
398.70	226.43
399.07	226.53
399.45	226.59
399.82	226.64
400.20	226.70
400.58	226.75
400.95	226.79
401.33	226.88
401.70	227.02
402.08	227.14
402.45	227.23
402.83	227.38
403.20	227.49
403.58	227.62
403.95	227.75
404.33	227.92
404.71	228.06
405.08	228.27
405.46	228.41
405.83	228.58
406.21	228.74
406.58	228.93
406.96	229.09
407.33	229.28
407.70	229.50
408.08	229.79
408.45	230.07
408.83	230.32
409.20	230.53
409.58	230.74
409.95	231.03
410.33	231.31
410.70	231.54
411.08	231.87
411.45	232.18
411.82	232.50
412.20	232.87
412.57	233.29
412.95	233.58
413.32	233.98
413.69	234.41
414.07	234.84
414.44	235.32
414.82	235.82
415.19	236.40
415.56	236.96
415.94	237.51
416.31	238.11
416.68	238.76
417.06	239.49
417.43	240.16
417.81	240.95
418.18	241.74
418.55	242.55
418.93	243.43
419.30	244.34
419.67	245.28
420.04	246.21
420.42	247.21
420.79	248.40
421.16	249.55
421.54	250.77
421.91	252.01
422.28	253.33
422.66	254.67
423.03	255.95
423.40	257.31
423.77	258.73
424.15	260.18
424.52	261.65
424.89	263.31
425.26	264.86
425.64	266.28
426.01	267.89
426.38	269.60
426.75	271.26
427.13	273.00
427.50	274.81
427.87	276.69
428.24	278.52
428.61	280.27
428.99	282.22
429.36	284.30
429.73	286.33
430.10	288.33
430.47	290.39
430.85	292.53
431.22	294.76
431.59	297.12
431.96	299.33
432.33	301.85
432.70	304.19
433.08	306.99
433.45	309.67
433.82	312.24
434.19	315.17
434.56	318.02
434.93	320.65
435.30	323.27
435.68	326.19
436.05	329.03
436.42	331.83
436.79	334.32
437.16	336.99
437.53	339.90
437.90	342.69
438.27	345.45
438.64	348.29
439.01	350.85
439.38	353.13
439.75	355.30
440.13	357.81
440.50	360.20
440.87	362.10
441.24	364.04
441.61	366.22
441.98	367.67
442.35	369.45
442.72	371.28
443.09	373.09
443.46	374.02
443.83	374.60
444.20	375.11
444.57	375.99
444.94	376.33
445.31	376.63
445.68	377.00
446.05	377.03
446.42	376.65
446.79	376.26
447.16	375.74
447.53	375.45
447.90	374.26
448.27	373.03
448.64	371.41
449.01	370.24
449.37	368.28
449.74	366.39
450.11	364.16
450.48	361.72
450.85	359.19
451.22	357.08
451.59	355.02
451.96	353.07
452.33	350.47
452.70	348.08
453.07	345.24
453.43	342.32
453.80	339.55
454.17	336.85
454.54	334.28
454.91	331.63
455.28	328.92
455.65	326.43
456.02	323.97
456.38	321.83
456.75	319.19
457.12	316.90
457.49	314.65
457.86	312.46
458.23	310.58
458.59	308.56
458.96	306.51
459.33	304.70
459.70	302.86
460.07	301.33
460.43	299.64
460.80	298.01
461.17	296.54
461.54	295.06
461.91	293.67
462.27	292.24
462.64	290.97
463.01	289.63
463.38	288.34
463.74	287.02
464.11	285.84
464.48	284.81
464.85	283.71
465.21	282.83
465.58	281.89
465.95	280.80
466.32	279.87
466.68	278.95
467.05	278.03
467.42	277.12
467.78	276.18
468.15	275.26
468.52	274.62
468.88	273.78
469.25	273.02
469.62	272.35
469.98	271.64
470.35	271.00
470.72	270.40
471.08	269.71
471.45	269.17
471.82	268.62
472.18	268.03
472.55	267.58
472.92	267.06
473.28	266.57
473.65	266.09
474.02	265.64
474.38	265.28
474.75	264.94
475.11	264.59
475.48	264.31
475.85	264.08
476.21	263.84
476.58	263.62
476.94	263.44
477.31	263.29
477.67	263.15
478.04	263.01
478.41	262.95
478.77	262.99
479.14	262.88
479.50	262.89
479.87	262.95
480.23	263.02
480.60	263.09
480.96	263.21
481.33	263.41
481.69	263.63
482.06	263.80
482.42	264.02
482.79	264.23
483.15	264.52
483.52	264.87
483.88	265.20
484.25	265.62
484.61	266.03
484.98	266.43
485.34	266.99
485.71	267.62
486.07	268.21
486.44	268.77
486.80	269.46
487.17	270.15
487.53	270.93
487.90	271.78
488.26	272.69
488.62	273.59
488.99	274.57
489.35	275.61
489.72	276.70
490.08	277.88
490.44	279.16
490.81	280.49
491.17	281.82
491.54	283.28
491.90	284.80
492.26	286.42
492.63	288.16
492.99	289.95
493.36	291.81
493.72	293.85
494.08	295.93
494.45	298.17
494.81	300.58
495.17	303.01
495.54	305.61
495.90	308.31
496.26	311.15
496.63	314.10
496.99	317.18
497.35	320.45
497.72	323.83
498.08	327.28
498.44	330.95
498.80	334.88
499.17	338.90
499.53	343.05
499.89	347.42
500.26	351.93
500.62	356.59
500.98	361.54
501.34	366.62
501.71	371.98
502.07	377.46
502.43	383.03
502.79	388.85
503.16	394.88
503.52	401.13
503.88	407.58
504.24	414.24
504.60	421.17
504.97	428.37
505.33	435.71
505.69	443.45
506.05	451.26
506.41	459.17
506.78	467.34
507.14	475.82
507.50	484.53
507.86	493.58
508.22	502.73
508.59	511.95
508.95	521.56
509.31	531.39
509.67	541.45
510.03	551.68
510.39	562.24
510.75	573.05
511.12	583.97
511.48	595.27
511.84	606.73
512.20	618.25
512.56	630.18
512.92	642.39
513.28	654.79
513.64	667.25
514.00	679.94
514.37	692.86
514.73	705.91
515.09	718.98
515.45	732.28
515.81	745.94
516.17	759.92
516.53	774.03
516.89	788.16
517.25	802.41
517.61	816.93
517.97	831.43
518.33	845.88
518.69	860.78
519.05	875.83
519.41	890.96
519.77	906.57
520.13	922.00
520.49	937.30
520.85	952.68
521.21	968.38
521.57	984.66
521.93	1000.53
522.29	1017.01
522.65	1033.32
523.01	1049.64
523.37	1065.72
523.73	1081.94
524.09	1098.13
524.45	1114.52
524.81	1131.12
525.17	1148.06
525.53	1164.93
525.89	1181.81
526.25	1198.60
526.61	1214.95
526.97	1231.79
527.33	1248.26
527.68	1265.06
528.04	1281.69
528.40	1298.55
528.76	1315.76
529.12	1332.48
529.48	1349.41
529.84	1365.59
530.20	1382.28
530.56	1399.33
530.91	1416.80
531.27	1433.69
531.63	1450.15
531.99	1466.84
532.35	1482.96
532.71	1498.91
533.07	1515.24
533.42	1531.22
533.78	1547.44
534.14	1563.77
534.50	1579.14
534.86	1595.10
535.21	1610.15
535.57	1626.11
535.93	1641.56
536.29	1656.41
536.65	1671.50
537.00	1686.29
537.36	1701.57
537.72	1716.29
538.08	1730.76
538.44	1744.57
538.79	1758.55
539.15	1772.43
539.51	1786.16
539.87	1800.56
540.22	1814.36
540.58	1828.27
540.94	1841.80
541.29	1854.78
541.65	1867.74
542.01	1881.11
542.37	1893.62
542.72	1906.28
543.08	1918.15
543.44	1930.58
543.79	1941.76
544.15	1952.80
544.51	1964.53
544.87	1975.58
545.22	1986.34
545.58	1996.57
545.94	2006.42
546.29	2016.36
546.65	2025.99
547.01	2035.40
547.36	2044.27
547.72	2052.72
548.07	2060.55
548.43	2068.82
548.79	2076.78
549.14	2084.20
549.50	2091.64
549.86	2099.32
550.21	2106.57
550.57	2113.79
550.92	2120.48
551.28	2127.70
551.64	2134.76
551.99	2141.18
552.35	2147.34
552.70	2153.43
553.06	2159.37
553.41	2165.68
553.77	2171.54
554.13	2177.82
554.48	2183.95
554.84	2189.19
555.19	2194.70
555.55	2199.81
555.90	2204.17
556.26	2209.12
556.61	2213.79
556.97	2217.85
557.32	2221.93
557.68	2226.07
558.03	2230.33
558.39	2233.94
558.74	2238.56
559.10	2242.47
559.45	2246.05
559.81	2250.31
560.16	2254.07
560.52	2257.48
560.87	2260.91
561.23	2263.52
561.58	2266.42
561.94	2268.93
562.29	2271.30
562.64	2273.77
563.00	2276.47
563.35	2280.01
563.71	2283.01
564.06	2286.20
564.42	2289.09
564.77	2291.46
565.12	2293.68
565.48	2295.53
565.83	2297.35
566.19	2298.47
566.54	2299.38
566.89	2300.64
567.25	2301.30
567.60	2302.76
567.96	2304.11
568.31	2304.95
568.66	2306.08
569.02	2306.53
569.37	2306.68
569.72	2307.64
570.08	2307.49
570.43	2307.32
570.78	2306.42
571.14	2304.78
571.49	2303.39
571.84	2303.04
572.20	2301.79
572.55	2300.64
572.90	2299.02
573.26	2297.55
573.61	2296.00
573.96	2294.03
574.31	2290.84
574.67	2287.53
575.02	2283.76
575.37	2280.39
575.72	2276.33
576.08	2272.95
576.43	2269.58
576.78	2265.81
577.13	2262.32
577.49	2259.39
577.84	2255.89
578.19	2252.16
578.54	2248.38
578.90	2244.10
579.25	2238.46
579.60	2233.45
579.95	2228.37
580.30	2223.28
580.66	2217.98
581.01	2212.84
581.36	2207.80
581.71	2203.61
582.06	2199.03
582.42	2194.36
582.77	2189.12
583.12	2184.42
583.47	2179.46
583.82	2174.25
584.17	2168.97
584.53	2163.43
584.88	2157.59
585.23	2151.60
585.58	2146.07
585.93	2140.61
586.28	2135.73
586.63	2130.63
586.98	2125.41
587.34	2120.61
587.69	2115.54
588.04	2110.28
588.39	2104.38
588.74	2097.84
589.09	2091.65
589.44	2084.81
589.79	2078.90
590.14	2073.11
590.49	2066.54
590.84	2060.13
591.19	2054.15
591.54	2047.54
591.89	2040.11
592.25	2033.27
592.60	2026.01
592.95	2018.48
593.30	2011.04
593.65	2003.36
594.00	1996.13
594.35	1988.81
594.70	1980.85
595.05	1973.59
595.40	1966.20
595.75	1958.82
596.10	1952.52
596.45	1945.58
596.80	1939.30
597.15	1932.35
597.50	1925.18
597.85	1918.71
598.19	1912.03
598.54	1904.86
598.89	1898.26
599.24	1892.32
599.59	1885.45
599.94	1879.28
600.29	1872.85
600.64	1866.34
600.99	1858.75
601.34	1851.85
601.69	1844.94
602.04	1837.77
602.39	1830.41
602.74	1823.55
603.08	1816.67
603.43	1809.90
603.78	1802.63
604.13	1795.51
604.48	1788.27
604.83	1781.39
605.18	1774.38
605.53	1766.32
605.87	1758.23
606.22	1750.95
606.57	1743.00
606.92	1735.89
607.27	1728.57
607.62	1721.55
607.96	1714.17
608.31	1707.57
608.66	1699.92
609.01	1692.33
609.36	1684.86
609.70	1676.87
610.05	1668.79
610.40	1661.02
610.75	1652.67
611.10	1644.87
611.44	1636.51
611.79	1628.56
612.14	1619.78
612.49	1610.68
612.83	1602.36
613.18	1594.30
613.53	1586.17
613.88	1577.60
614.22	1569.30
614.57	1560.85
614.92	1552.70
615.27	1545.17
615.61	1536.79
615.96	1528.84
616.31	1521.15
616.65	1513.79
617.00	1506.22
617.35	1498.47
617.70	1490.07
618.04	1481.52
618.39	1473.34
618.74	1465.60
619.08	1457.26
619.43	1449.85
619.78	1442.97
620.12	1435.74
620.47	1428.07
620.82	1419.97
621.16	1412.54
621.51	1404.91
621.85	1397.22
622.20	1388.75
622.55	1380.44
622.89	1372.73
623.24	1365.19
623.59	1357.88
623.93	1350.28
624.28	1342.98
624.62	1335.51
624.97	1328.36
625.32	1321.71
625.66	1314.76
626.01	1307.68
626.35	1300.15
626.70	1292.31
627.04	1284.44
627.39	1276.68
627.73	1269.37
628.08	1262.34
628.43	1255.05
628.77	1247.58
629.12	1240.12
629.46	1232.92
629.81	1225.50
630.15	1218.25
630.50	1210.70
630.84	1202.64
631.19	1194.79
631.53	1187.38
631.88	1179.92
632.22	1172.42
632.57	1165.12
632.91	1157.55
633.26	1150.06
633.60	1142.81
633.95	1135.85
634.29	1128.84
634.64	1122.19
634.98	1114.96
635.32	1107.93
635.67	1101.51
636.01	1094.94
636.36	1088.02
636.70	1081.63
637.05	1075.00
637.39	1068.52
637.73	1062.15
638.08	1056.13
638.42	1050.09
638.77	1043.61
639.11	1036.89
639.45	1030.57
639.80	1024.00
640.14	1017.58
640.49	1011.08
640.83	1004.78
641.17	998.46
641.52	992.22
641.86	985.83
642.20	979.90
642.55	973.69
642.89	966.99
643.23	960.52
643.58	954.81
643.92	948.64
644.26	942.62
644.61	936.62
644.95	930.52
645.29	923.95
645.64	917.30
645.98	910.99
646.32	905.24
646.66	899.16
647.01	893.36
647.35	887.71
647.69	881.95
648.04	876.49
648.38	870.77
648.72	864.79
649.06	858.70
649.41	852.82
649.75	846.81
650.09	841.01
650.43	835.11
650.78	828.96
651.12	822.93
651.46	817.15
651.80	811.42
652.14	806.01
652.49	800.65
652.83	795.46
653.17	789.75
653.51	784.02
653.85	778.67
654.20	773.01
654.54	766.99
654.88	761.29
655.22	755.42
655.56	749.70
655.90	744.29
656.25	739.10
656.59	733.84
656.93	728.75
657.27	723.54
657.61	718.17
657.95	713.12
658.29	708.11
658.64	702.92
658.98	697.69
659.32	692.27
659.66	687.04
660.00	681.74
660.34	676.83
660.68	671.90
661.02	666.88
661.36	662.15
661.70	657.67
662.05	653.29
662.39	648.88
662.73	644.47
663.07	640.07
663.41	635.64
663.75	631.08
664.09	626.52
664.43	622.22
664.77	618.09
665.11	613.83
665.45	609.75
665.79	605.71
666.13	601.55
666.47	597.51
666.81	593.43
667.15	589.30
667.49	585.44
667.83	581.70
668.17	577.73
668.51	573.64
668.85	569.65
669.19	565.85
669.53	562.02
669.87	558.13
670.21	554.46
670.55	550.85
670.89	547.39
671.23	543.95
671.57	540.38
671.91	536.90
672.25	533.41
672.58	529.84
672.92	526.35
673.26	523.15
673.60	520.03
673.94	516.87
674.28	514.02
674.62	511.07
674.96	507.94
675.30	505.01
675.64	502.09
675.97	499.33
676.31	496.44
676.65	493.57
676.99	490.89
677.33	487.94
677.67	485.07
678.01	482.04
678.34	479.05
678.68	476.21
679.02	473.35
679.36	470.63
679.70	467.93
680.04	465.23
680.37	462.34
680.71	459.55
681.05	457.04
681.39	454.29
681.73	451.61
682.06	449.09
682.40	446.59
682.74	444.14
683.08	441.62
683.42	439.04
683.75	436.53
684.09	433.99
684.43	431.58
684.77	429.16
685.10	426.86
685.44	424.64
685.78	422.34
686.12	420.16
686.45	417.88
686.79	415.61
687.13	413.47
687.46	411.40
687.80	409.26
688.14	406.99
688.48	404.95
688.81	402.80
689.15	400.70
689.49	398.60
689.82	396.47
690.16	394.39
690.50	392.46
690.83	390.51
691.17	388.56
691.51	386.71
691.84	384.86
692.18	382.96
692.52	380.95
692.85	379.09
693.19	377.20
693.52	375.42
693.86	373.62
694.20	371.83
694.53	370.04
694.87	368.17
695.21	366.42
695.54	364.64
695.88	362.87
696.21	361.13
696.55	359.46
696.88	357.81
697.22	356.20
697.56	354.57
697.89	352.95
698.23	351.33
698.56	349.72
698.90	348.11
699.23	346.46
699.57	344.93
699.90	343.34
700.24	341.81
700.58	340.25
700.91	338.77
701.25	337.31
701.58	335.95
701.92	334.62
702.25	333.27
702.59	331.87
702.92	330.57
703.26	329.32
703.59	328.06
703.93	326.91
704.26	325.59
704.60	324.34
704.93	323.08
705.26	321.85
705.60	320.66
705.93	319.51
706.27	318.49
706.60	317.42
706.94	316.35
707.27	315.23
707.61	314.16
707.94	313.11
708.27	312.00
708.61	310.91
708.94	309.90
709.28	308.91
709.61	307.99
709.94	307.01
710.28	305.95
710.61	304.96
710.95	303.86
711.28	302.99
711.61	302.01
711.95	301.05
712.28	300.07
712.61	299.08
712.95	298.12
713.28	297.19
713.61	296.28
713.95	295.44
714.28	294.55
714.61	293.68
714.95	292.81
715.28	291.99
715.61	291.07
715.95	290.21
716.28	289.31
716.61	288.44
716.95	287.59
717.28	286.86
717.61	286.06
717.94	285.31
718.28	284.49
718.61	283.79
718.94	283.10
719.27	282.46
719.61	281.82
719.94	281.17
720.27	280.47
720.60	279.79
720.94	279.10
721.27	278.52
721.60	277.94
721.93	277.35
722.27	276.78
722.60	276.28
722.93	275.70
723.26	275.16
723.59	274.63
723.93	274.09
724.26	273.51
724.59	272.94
724.92	272.40
725.25	271.91
725.59	271.38
725.92	270.86
726.25	270.36
726.58	269.87
726.91	269.43
727.24	268.99
727.57	268.56
727.91	268.06
728.24	267.59
728.57	267.12
728.90	266.68
729.23	266.16
729.56	265.71
729.89	265.27
730.22	264.77
730.55	264.33
730.89	263.87
731.22	263.46
731.55	263.05
731.88	262.63
732.21	262.19
732.54	261.79
732.87	261.41
733.20	261.03
733.53	260.65
733.86	260.27
734.19	259.82
734.52	259.44
734.85	259.20
735.18	258.79
735.51	258.47
735.84	258.14
736.17	257.83
736.50	257.47
736.83	257.22
737.16	256.93
737.49	256.58
737.82	256.26
738.15	255.94
738.48	255.67
738.81	255.38
739.14	255.05
739.47	254.72
739.80	254.40
740.13	254.07
740.46	253.72
740.79	253.36
741.12	253.09
741.45	252.80
741.78	252.41
742.11	252.15
742.44	251.82
742.77	251.54
743.10	251.25
743.43	250.96
743.75	250.59
744.08	250.43
744.41	250.18
744.74	249.88
745.07	249.56
745.40	249.28
745.73	249.02
746.06	248.77
746.39	248.48
746.71	248.22
747.04	247.93
747.37	247.66
747.70	247.42
748.03	247.18
748.36	246.94
748.68	246.70
749.01	246.44
749.34	246.21
749.67	245.92
750.00	245.71
750.33	245.56
750.65	245.36
750.98	245.04
751.31	244.80
751.64	244.63
751.97	244.51
752.29	244.28
752.62	244.04
752.95	243.83
753.28	243.65
753.60	243.42
753.93	243.26
754.26	243.09
754.59	242.87
754.91	242.62
755.24	242.41
755.57	242.21
755.90	241.99
756.22	241.78
756.55	241.62
756.88	241.40
757.20	241.19
757.53	240.99
757.86	240.79
758.19	240.62
758.51	240.45
758.84	240.16
759.17	240.00
759.49	239.83
759.82	239.71
760.15	239.52
760.47	239.36
760.80	239.17
761.13	239.02
761.45	238.86
761.78	238.76
762.11	238.61
762.43	238.45
762.76	238.32
763.08	238.19
763.41	238.03
763.74	237.88
764.06	237.69
764.39	237.52
764.71	237.37
765.04	237.22
765.37	237.06
765.69	236.95
766.02	236.83
766.34	236.72
766.67	236.53
767.00	236.46
767.32	236.41
767.65	236.36
767.97	236.27
768.30	236.19
768.62	236.09
768.95	235.96
769.27	235.85
769.60	235.79
769.92	235.66
770.25	235.55
770.57	235.49
770.90	235.35
771.22	235.26
771.55	235.18
771.87	235.11
772.20	235.03
772.52	235.05
772.85	235.03
773.17	234.94
773.50	234.85
773.82	234.74
774.15	234.61
774.47	234.48
774.80	234.37
775.12	234.29
775.45	234.20
775.77	234.16
776.09	234.10
776.42	234.02
776.74	234.00
777.07	233.91
777.39	233.81
777.72	233.76
778.04	233.72
778.36	233.65
778.69	233.59
779.01	233.54
779.33	233.43
779.66	233.29
779.98	233.24
780.31	233.19
780.63	233.18
780.95	233.14
781.28	233.06
781.60	233.01
781.92	232.94
782.25	232.89
782.57	232.82
782.89	232.74
783.22	232.67
783.54	232.57
783.86	232.54
784.19	232.52
784.51	232.53
784.83	232.46
785.16	232.41
785.48	232.35
785.80	232.30
786.12	232.22
786.45	232.13
786.77	232.09
787.09	232.06
787.42	231.98
787.74	231.93
788.06	231.88
788.38	231.83
788.71	231.79
789.03	231.79
789.35	231.74
789.67	231.72
789.99	231.71
790.32	231.67
790.64	231.62
790.96	231.65
791.28	231.56
791.61	231.51
791.93	231.47
792.25	231.42
792.57	231.42
792.89	231.37
793.21	231.33
793.54	231.28
793.86	231.20
794.18	231.17
794.50	231.10
794.82	231.08
795.14	231.04
795.47	231.01
795.79	230.92
796.11	230.86
796.43	230.80
796.75	230.74
797.07	230.70
797.39	230.67
797.71	230.55
798.04	230.49
798.36	230.48
798.68	230.44
799.00	230.45
799.32	230.39
799.64	230.36
799.96	230.36
800.28	230.34
800.60	230.27
800.92	230.23
801.24	230.20
801.56	230.18
801.89	230.13
802.21	230.07
802.53	230.01
802.85	229.98
803.17	230.01
803.49	229.94
803.81	229.91
804.13	229.86
804.45	229.79
804.77	229.78
805.09	229.71
805.41	229.66
805.73	229.58
806.05	229.48
806.37	229.46
806.69	229.40
807.01	229.35
807.33	229.35
807.65	229.33
807.97	229.36
808.28	229.28
808.60	229.26
808.92	229.25
809.24	229.28
809.56	229.25
809.88	229.17
810.20	229.16
810.52	229.16
810.84	229.11
811.16	229.09
811.48	229.04
811.80	229.07
812.12	229.06
812.43	229.06
812.75	229.06
813.07	229.06
813.39	229.04
813.71	229.03
814.03	229.00
814.35	228.96
814.67	228.87
814.98	228.84
815.30	228.84
815.62	228.80
815.94	228.76
816.26	228.81
816.58	228.78
816.89	228.78
817.21	228.72
817.53	228.74
817.85	228.74
818.17	228.73
818.48	228.68
818.80	228.69
819.12	228.70
819.44	228.69
819.76	228.66
820.07	228.65
820.39	228.64
820.71	228.65
821.03	228.65
821.34	228.64
821.66	228.66
821.98	228.65
822.30	228.66
822.61	228.64
822.93	228.57
823.25	228.55
823.57	228.55
823.88	228.58
824.20	228.54
824.52	228.55
824.83	228.53
825.15	228.51
825.47	228.49
825.79	228.48
826.10	228.46
826.42	228.42
826.74	228.43
827.05	228.41
827.37	228.39
827.69	228.38
828.00	228.39
828.32	228.40
828.64	228.40
828.95	228.44
829.27	228.44
829.58	228.44
829.90	228.49
830.22	228.46
830.53	228.44
830.85	228.45
831.17	228.41
831.48	228.40
831.80	228.42
832.11	228.40
832.43	228.39
832.75	228.33
833.06	228.40
833.38	228.36
833.69	228.35
834.01	228.37
834.32	228.36
834.64	228.35
834.96	228.32
835.27	228.30
835.59	228.26
835.90	228.27
836.22	228.23
836.53	228.16
836.85	228.17
837.16	228.26
837.48	228.25
837.79	228.26
838.11	228.27
838.42	228.24
838.74	228.25
839.05	228.20
839.37	228.23
839.68	228.15
840.00	228.15
840.31	228.18
840.63	228.14
840.94	228.13
841.26	228.08
841.57	228.06
841.88	228.04
842.20	228.02
842.51	227.97
842.83	227.96
843.14	228.05
843.46	228.04
843.77	227.97
844.08	227.95
844.40	227.96
844.71	227.93
845.03	227.90
845.34	227.89
845.65	227.88
845.97	227.86
846.28	227.84
846.60	227.79
846.91	227.76
847.22	227.76
847.54	227.73
847.85	227.73
848.16	227.73
848.48	227.70
848.79	227.71
849.10	227.71
849.42	227.70
849.73	227.59
850.04	227.57
850.36	227.52
850.67	227.52
850.98	227.48
851.30	227.50
851.61	227.49
851.92	227.49
852.23	227.53
852.55	227.56
852.86	227.58
853.17	227.60
853.49	227.60
853.80	227.61
854.11	227.63
854.42	227.65
854.74	227.65
855.05	227.67
855.36	227.60
855.67	227.59
855.99	227.61
856.30	227.76
856.61	227.74
856.92	227.74
857.23	227.73
857.55	227.72
857.86	227.73
858.17	227.78
858.48	227.77
858.79	227.76
859.11	227.75
859.42	227.72
859.73	227.72
860.04	227.71
860.35	227.71
860.66	227.69
860.98	227.67
861.29	227.68
861.60	227.67
861.91	227.72
862.22	227.73
862.53	227.72
862.84	227.63
863.16	227.65
863.47	227.65
863.78	227.66
864.09	227.65
864.40	227.62
864.71	227.61
865.02	227.59
865.33	227.58
865.64	227.55
865.95	227.55
866.27	227.62
866.58	227.60
866.89	227.59
867.20	227.62
867.51	227.65
867.82	227.63
868.13	227.66
868.44	227.62
868.75	227.64
869.06	227.60
869.37	227.57
869.68	227.54
869.99	227.55
870.30	227.53
870.61	227.59
870.92	227.57
871.23	227.56
871.54	227.58
871.85	227.59
872.16	227.62
872.47	227.63
872.78	227.57
873.09	227.59
873.40	227.59
873.71	227.59
874.02	227.58
874.33	227.55
874.64	227.52
874.95	227.52
875.26	227.50
875.56	227.52
875.87	227.51
876.18	227.48
876.49	227.58
876.80	227.59
877.11	227.55
877.42	227.55
877.73	227.52
878.04	227.46
878.35	227.47
878.66	227.42
878.96	227.39
879.27	227.37
879.58	227.36
879.89	227.32
880.20	227.33
880.51	227.31
880.82	227.34
881.12	227.34
881.43	227.33
881.74	227.31
882.05	227.30
882.36	227.29
882.67	227.30
882.97	227.16
883.28	227.15
883.59	227.12
883.90	227.13
884.21	227.17
884.51	227.18
884.82	227.13
885.13	227.17
885.44	227.18
885.74	227.18
886.05	227.14
886.36	227.13
886.67	227.09
886.98	227.10
887.28	227.07
887.59	227.03
887.90	227.01
888.20	226.99
888.51	226.98
888.82	226.95
889.13	226.97
889.43	227.04
889.74	227.00
890.05	227.01
890.35	226.99
890.66	226.97
890.97	226.94
891.28	226.93
891.58	226.90
891.89	226.89
892.20	226.86
892.50	226.87
892.81	226.89
893.12	226.87
893.42	226.82
893.73	226.81
894.04	226.83
894.34	226.87
894.65	226.90
894.95	226.87
895.26	226.89
895.57	226.92
895.87	226.82
896.18	226.87
896.48	226.86
896.79	226.85
897.10	226.88
897.40	226.91
897.71	226.92
898.01	226.92
898.32	226.97
898.63	226.98
898.93	226.98
899.24	226.95
899.54	226.94
899.85	226.96
900.15	226.96
900.46	226.95
900.76	226.98
901.07	226.94
901.38	227.00
901.68	227.02
901.99	226.96
902.29	227.01
902.60	226.99
902.90	226.97
903.21	227.01
903.51	226.99
903.82	227.03
904.12	227.09
904.43	227.10
904.73	227.07
905.03	227.10
905.34	227.21
905.64	227.20
905.95	227.23
906.25	227.28
906.56	227.30
906.86	227.31
907.17	227.30
907.47	227.33
907.77	227.28
908.08	227.25
908.38	227.30
908.69	227.31
908.99	227.34
909.30	227.36
909.60	227.34
909.90	227.34
910.21	227.30
910.51	227.26
910.81	227.26
911.12	227.28
911.42	227.25
911.73	227.14
912.03	227.20
912.33	227.22
912.64	227.20
912.94	227.18
913.24	227.18
913.55	227.15
913.85	227.11
914.15	227.14
914.46	227.17
914.76	227.16
915.06	227.15
915.37	227.10
915.67	227.10
915.97	227.10
916.27	227.07
916.58	227.06
916.88	227.06
917.18	227.02
917.49	227.05
917.79	227.05
918.09	227.10
918.39	227.08
918.70	227.05
919.00	227.03
919.30	227.08
919.60	227.07
919.91	227.08
920.21	227.11
920.51	227.05
920.81	227.02
921.12	227.01
921.42	226.99
921.72	227.03
922.02	226.96
922.32	226.96
922.63	226.96
922.93	226.99
923.23	226.99
923.53	226.97
923.83	226.92
924.13	226.92
924.44	226.88
924.74	226.88
925.04	226.88
925.34	226.90
925.64	226.85
925.94	226.81
926.24	226.88
926.55	226.88
926.85	226.90
927.15	226.92
927.45	226.91
927.75	226.90
928.05	226.90
928.35	226.92
928.65	226.99
928.95	227.03
929.26	227.00
929.56	226.97
929.86	226.99
930.16	227.01
930.46	226.95
930.76	226.97
931.06	226.93
931.36	226.92
931.66	226.90
931.96	226.89
932.26	226.92
932.56	226.86
932.86	226.84
933.16	226.86
933.46	226.81
933.76	226.82
934.06	226.85
934.36	226.88
934.66	226.86
934.96	226.84
935.26	226.80
935.56	226.81
935.86	226.84
936.16	226.83
936.46	226.81
936.76	226.88
937.06	226.89
937.36	226.92
937.66	226.96
937.96	227.00
938.26	227.02
938.56	227.02
938.86	227.03
939.16	227.08
939.46	227.11
939.76	227.16
940.06	227.18
940.35	227.17
940.65	227.14
940.95	227.22
941.25	227.19
941.55	227.22
941.85	227.25
942.15	227.27
942.45	227.30
942.75	227.32
943.04	227.32
943.34	227.35
943.64	227.33
943.94	227.30
944.24	227.28
944.54	227.30
944.84	227.32
945.13	227.32
945.43	227.29
945.73	227.28
946.03	227.28
946.33	227.29
946.62	227.30
946.92	227.32
947.22	227.31
947.52	227.32
947.82	227.31
948.11	227.26
948.41	227.27
948.71	227.25
949.01	227.26
949.31	227.26
949.60	227.25
949.90	227.27
950.20	227.29
950.50	227.29
950.79	227.30
951.09	227.31
951.39	227.31
951.69	227.27
951.98	227.29
952.28	227.27
952.58	227.27
952.87	227.24
953.17	227.25
953.47	227.22
953.76	227.23
954.06	227.21
954.36	227.20
954.66	227.19
954.95	227.20
955.25	227.23
955.55	227.20
955.84	227.18
956.14	227.16
956.44	227.13
956.73	227.12
957.03	227.11
957.32	227.09
957.62	227.08
957.92	227.15
958.21	227.14
958.51	227.23
958.81	227.20
959.10	227.19
959.40	227.18
959.69	227.18
959.99	227.18
960.29	227.15
960.58	227.15
960.88	227.16
961.17	227.15
961.47	227.14
961.76	227.12
962.06	227.14
962.36	227.10
962.65	227.09
962.95	227.07
963.24	227.05
963.54	227.04
963.83	227.02
964.13	226.97
964.42	226.92
964.72	226.84
965.01	226.81
965.31	226.81
965.60	226.75
965.90	226.80
966.19	226.75
966.49	226.76
966.78	226.74
967.08	226.74
967.37	226.71
967.67	226.66
967.96	226.67
968.26	226.66
968.55	226.73
968.85	226.73
969.14	226.72
969.43	226.70
969.73	226.68
970.02	226.70
970.32	226.67
970.61	226.68
970.91	226.68
971.20	226.70
971.49	226.65
971.79	226.69
972.08	226.62
972.38	226.65
972.67	226.66
972.96	226.72
973.26	226.69
973.55	226.76
973.85	226.75
974.14	226.75
974.43	226.74
974.73	226.72
975.02	226.71
975.31	226.71
975.61	226.73
975.90	226.76
976.19	226.75
976.49	226.81
976.78	226.82
977.07	226.83
977.37	226.85
977.66	226.91
977.95	226.89
978.24	226.89
978.54	226.93
978.83	226.96
979.12	226.94
979.42	226.97
979.71	226.94
980.00	226.99
980.29	226.99
980.59	227.00
980.88	227.01
981.17	227.03
981.46	227.04
981.76	227.03
982.05	227.06
982.34	227.07
982.63	227.06
982.93	227.08
983.22	227.10
983.51	227.10
983.80	227.11
984.09	227.14
984.39	227.17
984.68	227.16
984.97	227.15
985.26	227.15
985.55	227.12
985.85	227.09
986.14	227.10
986.43	227.13
986.72	227.14
987.01	227.10
987.30	227.09
987.59	227.11
987.89	227.13
988.18	227.09
988.47	227.09
988.76	227.08
989.05	227.05
989.34	227.03
989.63	227.06
989.92	227.03
990.22	227.02
990.51	226.97
990.80	226.90
991.09	226.94
991.38	226.95
991.67	226.96
991.96	226.98
992.25	226.97
992.54	226.92
992.83	226.91
993.12	226.92
993.41	226.93
993.70	227.00
993.99	226.98
994.28	226.97
994.58	226.97
994.87	226.91
995.16	226.87
995.45	226.85
995.74	226.80
996.03	226.78
996.32	226.79
996.61	226.81
996.90	226.88
997.19	226.81
997.48	226.78
997.77	226.78
998.06	226.78
998.34	226.75
998.63	226.78
998.92	226.78
999.21	226.79
999.50	226.80
999.79	226.73
1000.08	226.72
1000.37	226.70
1000.66	226.68
1000.95	226.73
1001.24	226.75
1001.53	226.78
1001.82	226.79
1002.11	226.79
1002.40	226.76
1002.68	226.81
1002.97	226.82
1003.26	226.82
1003.55	226.81
1003.84	226.80
1004.13	226.81
1004.42	226.79
1004.71	226.78
1004.99	226.76
1005.28	226.77
1005.57	226.76
1005.86	226.77
1006.15	226.78
1006.44	226.78
1006.72	226.84
1007.01	226.85
1007.30	226.86
1007.59	226.81
1007.88	226.78
1008.17	226.79
1008.45	226.80
1008.74	226.74
1009.03	226.73
1009.32	226.72
1009.60	226.71
1009.89	226.73
1010.18	226.65
1010.47	226.69
1010.76	226.72
1011.04	226.75
1011.33	226.77
1011.62	226.76
1011.91	226.75
1012.19	226.76
1012.48	226.80
1012.77	226.81
1013.05	226.87
1013.34	226.88
1013.63	226.89
1013.92	226.95
1014.20	226.95
1014.49	226.98
1014.78	226.99
1015.06	226.97
1015.35	227.02
1015.64	227.06
1015.92	227.08
1016.21	227.13
1016.50	227.13
1016.78	227.11
1017.07	227.11
1017.36	227.08
1017.64	227.06
1017.93	227.07
1018.22	227.05
1018.50	227.01
1018.79	226.99
1019.08	226.96
1019.36	227.00
1019.65	227.00
1019.93	227.00
1020.22	227.04
1020.51	227.09
1020.79	227.09
1021.08	226.70
1021.36	226.56
1021.65	227.02
1021.94	227.49
1022.22	227.70
1022.51	226.74
1022.79	227.20
1023.08	227.48
1023.36	228.06
1023.65	227.03
>>>>>End Processed Spectral Data<<<<<
