SpectraSuite Data File
++++++++++++++++++++++++++++++++++++
Date: Fri Feb 01 15:06:33 EST 2013
User: group
Dark Spectrum Present: No
Reference Spectrum Present: No
Number of Sampled Component Spectra: 1
Spectrometers: USB2E7196
Integration Time (usec): 35000 (USB2E7196)
Spectra Averaged: 100 (USB2E7196)
Boxcar Smoothing: 10 (USB2E7196)
Correct for Electrical Dark: No (USB2E7196)
Strobe/Lamp Enabled: No (USB2E7196)
Correct for Detector Non-linearity: No (USB2E7196)
Correct for Stray Light: No (USB2E7196)
Number of Pixels in Processed Spectrum: 2048
>>>>>Begin Processed Spectral Data<<<<<
339.09	0.00
339.48	215.25
339.86	216.70
340.24	218.36
340.63	219.53
341.01	222.20
341.39	222.08
341.78	223.63
342.16	224.61
342.54	225.06
342.93	213.56
343.31	224.35
343.69	224.90
344.07	225.35
344.46	225.78
344.84	226.17
345.22	226.41
345.60	226.65
345.99	226.85
346.37	226.97
346.75	227.06
347.13	227.11
347.52	227.19
347.90	227.26
348.28	227.26
348.66	227.30
349.05	227.27
349.43	227.28
349.81	227.26
350.19	227.30
350.57	227.35
350.96	227.43
351.34	227.47
351.72	227.51
352.10	227.60
352.48	227.65
352.87	227.65
353.25	227.72
353.63	227.78
354.01	227.83
354.39	227.90
354.77	227.95
355.15	228.09
355.54	228.12
355.92	228.17
356.30	228.25
356.68	228.39
357.06	228.45
357.44	228.47
357.82	228.53
358.20	228.61
358.58	228.66
358.97	228.69
359.35	228.78
359.73	228.87
360.11	228.93
360.49	228.97
360.87	229.05
361.25	229.09
361.63	229.15
362.01	229.17
362.39	229.15
362.77	229.25
363.15	229.25
363.53	229.28
363.91	229.30
364.29	229.33
364.67	229.25
365.05	229.28
365.43	229.34
365.81	229.39
366.19	229.40
366.57	229.45
366.95	229.46
367.33	229.45
367.71	229.46
368.09	229.46
368.47	229.45
368.85	229.43
369.23	229.39
369.61	229.33
369.99	229.38
370.37	229.37
370.75	229.36
371.13	229.30
371.51	229.23
371.89	229.22
372.27	229.15
372.65	229.10
373.03	229.09
373.41	228.99
373.78	228.91
374.16	228.81
374.54	228.73
374.92	228.68
375.30	228.59
375.68	228.50
376.06	228.45
376.44	228.37
376.82	228.29
377.19	228.26
377.57	228.21
377.95	228.08
378.33	228.05
378.71	227.91
379.09	227.85
379.47	227.82
379.84	227.71
380.22	227.66
380.60	227.55
380.98	227.45
381.36	227.43
381.73	227.38
382.11	227.31
382.49	227.24
382.87	227.14
383.25	227.10
383.62	227.14
384.00	227.05
384.38	226.99
384.76	226.95
385.13	226.92
385.51	226.88
385.89	226.82
386.27	226.77
386.64	226.75
387.02	226.67
387.40	226.59
387.78	226.56
388.15	226.51
388.53	226.49
388.91	226.46
389.29	226.43
389.66	226.40
390.04	226.40
390.42	226.43
390.79	226.43
391.17	226.41
391.55	226.32
391.92	226.31
392.30	226.32
392.68	226.30
393.05	226.27
393.43	226.26
393.81	226.28
394.18	226.26
394.56	226.28
394.94	226.37
395.31	226.37
395.69	226.44
396.06	226.50
396.44	226.54
396.82	226.54
397.19	226.61
397.57	226.65
397.95	226.72
398.32	226.73
398.70	226.77
399.07	226.88
399.45	226.90
399.82	227.01
400.20	227.05
400.58	227.14
400.95	227.23
401.33	227.37
401.70	227.51
402.08	227.67
402.45	227.75
402.83	227.85
403.20	228.03
403.58	228.13
403.95	228.25
404.33	228.40
404.71	228.56
405.08	228.78
405.46	228.90
405.83	229.05
406.21	229.23
406.58	229.42
406.96	229.57
407.33	229.74
407.70	229.94
408.08	230.27
408.45	230.48
408.83	230.71
409.20	230.93
409.58	231.14
409.95	231.36
410.33	231.64
410.70	231.91
411.08	232.18
411.45	232.51
411.82	232.83
412.20	233.18
412.57	233.62
412.95	233.91
413.32	234.34
413.69	234.72
414.07	235.16
414.44	235.65
414.82	236.10
415.19	236.67
415.56	237.21
415.94	237.73
416.31	238.40
416.68	239.02
417.06	239.73
417.43	240.44
417.81	241.22
418.18	242.02
418.55	242.83
418.93	243.77
419.30	244.67
419.67	245.64
420.04	246.59
420.42	247.55
420.79	248.73
421.16	249.88
421.54	251.08
421.91	252.30
422.28	253.54
422.66	254.93
423.03	256.27
423.40	257.65
423.77	259.06
424.15	260.44
424.52	261.91
424.89	263.54
425.26	265.04
425.64	266.48
426.01	268.04
426.38	269.72
426.75	271.34
427.13	273.05
427.50	274.86
427.87	276.76
428.24	278.64
428.61	280.34
428.99	282.30
429.36	284.41
429.73	286.51
430.10	288.50
430.47	290.52
430.85	292.59
431.22	294.77
431.59	297.18
431.96	299.44
432.33	301.91
432.70	304.26
433.08	307.04
433.45	309.72
433.82	312.37
434.19	315.26
434.56	318.06
434.93	320.70
435.30	323.29
435.68	326.18
436.05	329.00
436.42	331.82
436.79	334.33
437.16	337.03
437.53	339.79
437.90	342.64
438.27	345.42
438.64	348.28
439.01	350.89
439.38	353.08
439.75	355.26
440.13	357.80
440.50	360.15
440.87	362.03
441.24	363.94
441.61	366.05
441.98	367.55
442.35	369.35
442.72	371.25
443.09	373.05
443.46	374.09
443.83	374.65
444.20	375.18
444.57	375.97
444.94	376.23
445.31	376.57
445.68	376.91
446.05	377.00
446.42	376.61
446.79	376.17
447.16	375.71
447.53	375.37
447.90	374.22
448.27	373.05
448.64	371.46
449.01	370.34
449.37	368.41
449.74	366.50
450.11	364.21
450.48	361.70
450.85	359.16
451.22	356.99
451.59	355.04
451.96	353.06
452.33	350.49
452.70	348.12
453.07	345.33
453.43	342.44
453.80	339.66
454.17	336.97
454.54	334.42
454.91	331.73
455.28	329.06
455.65	326.54
456.02	324.09
456.38	321.91
456.75	319.25
457.12	316.99
457.49	314.79
457.86	312.65
458.23	310.79
458.59	308.79
458.96	306.69
459.33	304.83
459.70	302.96
460.07	301.47
460.43	299.74
460.80	298.13
461.17	296.65
461.54	295.13
461.91	293.70
462.27	292.32
462.64	291.06
463.01	289.71
463.38	288.44
463.74	287.07
464.11	285.97
464.48	284.92
464.85	283.82
465.21	282.89
465.58	281.97
465.95	280.89
466.32	279.99
466.68	279.07
467.05	278.14
467.42	277.28
467.78	276.35
468.15	275.51
468.52	274.81
468.88	273.95
469.25	273.17
469.62	272.53
469.98	271.77
470.35	271.15
470.72	270.55
471.08	269.86
471.45	269.31
471.82	268.74
472.18	268.13
472.55	267.69
472.92	267.16
473.28	266.67
473.65	266.22
474.02	265.73
474.38	265.34
474.75	265.00
475.11	264.64
475.48	264.32
475.85	264.06
476.21	263.83
476.58	263.63
476.94	263.48
477.31	263.28
477.67	263.17
478.04	263.05
478.41	262.96
478.77	263.00
479.14	262.92
479.50	262.90
479.87	262.94
480.23	262.99
480.60	263.07
480.96	263.13
481.33	263.29
481.69	263.48
482.06	263.68
482.42	263.83
482.79	264.05
483.15	264.37
483.52	264.73
483.88	265.04
484.25	265.44
484.61	265.85
484.98	266.33
485.34	266.87
485.71	267.42
486.07	268.00
486.44	268.55
486.80	269.25
487.17	269.94
487.53	270.76
487.90	271.60
488.26	272.53
488.62	273.53
488.99	274.48
489.35	275.50
489.72	276.62
490.08	277.84
490.44	279.10
490.81	280.45
491.17	281.79
491.54	283.28
491.90	284.85
492.26	286.51
492.63	288.22
492.99	289.99
493.36	291.87
493.72	293.94
494.08	296.03
494.45	298.30
494.81	300.69
495.17	303.13
495.54	305.68
495.90	308.37
496.26	311.18
496.63	314.19
496.99	317.29
497.35	320.52
497.72	323.95
498.08	327.44
498.44	331.10
498.80	335.01
499.17	339.00
499.53	343.14
499.89	347.45
500.26	351.94
500.62	356.61
500.98	361.57
501.34	366.65
501.71	371.98
502.07	377.40
502.43	383.02
502.79	388.85
503.16	394.95
503.52	401.18
503.88	407.58
504.24	414.17
504.60	421.05
504.97	428.16
505.33	435.49
505.69	443.19
506.05	450.95
506.41	458.89
506.78	467.10
507.14	475.55
507.50	484.33
507.86	493.36
508.22	502.55
508.59	511.74
508.95	521.34
509.31	531.10
509.67	541.19
510.03	551.47
510.39	562.00
510.75	572.77
511.12	583.76
511.48	595.04
511.84	606.51
512.20	618.09
512.56	629.99
512.92	642.19
513.28	654.51
513.64	666.99
514.00	679.64
514.37	692.66
514.73	705.74
515.09	718.84
515.45	732.07
515.81	745.64
516.17	759.61
516.53	773.55
516.89	787.78
517.25	801.98
517.61	816.42
517.97	830.91
518.33	845.39
518.69	860.18
519.05	875.23
519.41	890.42
519.77	905.93
520.13	921.41
520.49	936.72
520.85	952.19
521.21	967.94
521.57	984.25
521.93	999.99
522.29	1016.41
522.65	1032.52
523.01	1048.82
523.37	1064.95
523.73	1081.22
524.09	1097.51
524.45	1113.93
524.81	1130.56
525.17	1147.46
525.53	1164.35
525.89	1181.24
526.25	1197.99
526.61	1214.39
526.97	1231.25
527.33	1247.92
527.68	1264.66
528.04	1281.30
528.40	1298.06
528.76	1315.21
529.12	1331.87
529.48	1348.73
529.84	1364.85
530.20	1381.71
530.56	1398.74
530.91	1416.19
531.27	1433.08
531.63	1449.70
531.99	1466.22
532.35	1482.33
532.71	1498.31
533.07	1514.78
533.42	1530.68
533.78	1546.94
534.14	1563.18
534.50	1578.59
534.86	1594.46
535.21	1609.61
535.57	1625.52
535.93	1641.01
536.29	1655.79
536.65	1671.03
537.00	1686.06
537.36	1701.30
537.72	1715.91
538.08	1730.52
538.44	1744.38
538.79	1758.28
539.15	1772.01
539.51	1785.93
539.87	1800.41
540.22	1814.16
540.58	1827.96
540.94	1841.56
541.29	1854.66
541.65	1867.60
542.01	1880.85
542.37	1893.21
542.72	1905.64
543.08	1917.57
543.44	1930.06
543.79	1941.43
544.15	1952.40
544.51	1963.90
544.87	1975.13
545.22	1985.92
545.58	1996.17
545.94	2005.98
546.29	2015.86
546.65	2025.76
547.01	2034.94
547.36	2043.61
547.72	2052.06
548.07	2059.90
548.43	2068.11
548.79	2076.00
549.14	2083.57
549.50	2091.01
549.86	2098.77
550.21	2106.20
550.57	2113.28
550.92	2119.81
551.28	2126.78
551.64	2133.81
551.99	2140.37
552.35	2146.39
552.70	2152.57
553.06	2158.41
553.41	2164.86
553.77	2170.84
554.13	2176.93
554.48	2183.09
554.84	2188.43
555.19	2193.85
555.55	2198.95
555.90	2203.25
556.26	2208.12
556.61	2212.69
556.97	2216.77
557.32	2220.93
557.68	2225.17
558.03	2229.44
558.39	2233.13
558.74	2237.74
559.10	2241.63
559.45	2245.34
559.81	2249.83
560.16	2253.66
560.52	2257.01
560.87	2260.27
561.23	2262.91
561.58	2265.86
561.94	2268.36
562.29	2270.78
562.64	2273.44
563.00	2276.02
563.35	2279.60
563.71	2282.67
564.06	2285.86
564.42	2288.89
564.77	2291.22
565.12	2293.22
565.48	2295.12
565.83	2296.86
566.19	2298.05
566.54	2298.87
566.89	2299.89
567.25	2300.15
567.60	2301.34
567.96	2302.87
568.31	2303.52
568.66	2304.53
569.02	2304.93
569.37	2305.15
569.72	2305.90
570.08	2305.74
570.43	2305.62
570.78	2304.72
571.14	2303.11
571.49	2301.61
571.84	2301.14
572.20	2299.68
572.55	2298.71
572.90	2296.98
573.26	2295.50
573.61	2293.77
573.96	2291.76
574.31	2288.57
574.67	2285.46
575.02	2281.74
575.37	2278.21
575.72	2274.32
576.08	2270.98
576.43	2267.46
576.78	2263.60
577.13	2260.32
577.49	2257.23
577.84	2253.68
578.19	2249.98
578.54	2246.11
578.90	2241.76
579.25	2236.03
579.60	2231.13
579.95	2225.94
580.30	2220.94
580.66	2215.71
581.01	2210.65
581.36	2205.64
581.71	2201.30
582.06	2196.53
582.42	2191.92
582.77	2186.59
583.12	2181.87
583.47	2176.83
583.82	2171.71
584.17	2166.32
584.53	2160.76
584.88	2154.94
585.23	2149.04
585.58	2143.29
585.93	2137.73
586.28	2133.00
586.63	2127.77
586.98	2122.55
587.34	2117.68
587.69	2112.52
588.04	2106.98
588.39	2101.25
588.74	2094.65
589.09	2088.42
589.44	2081.72
589.79	2075.68
590.14	2069.88
590.49	2063.23
590.84	2056.90
591.19	2050.73
591.54	2044.21
591.89	2036.64
592.25	2029.63
592.60	2022.29
592.95	2014.65
593.30	2007.32
593.65	1999.51
594.00	1992.44
594.35	1985.08
594.70	1976.99
595.05	1969.66
595.40	1962.43
595.75	1954.78
596.10	1948.55
596.45	1941.79
596.80	1935.52
597.15	1928.67
597.50	1921.56
597.85	1915.24
598.19	1908.54
598.54	1901.42
598.89	1894.79
599.24	1888.91
599.59	1882.17
599.94	1875.94
600.29	1869.56
600.64	1862.97
600.99	1855.47
601.34	1848.56
601.69	1841.60
602.04	1834.65
602.39	1827.40
602.74	1820.54
603.08	1813.78
603.43	1807.06
603.78	1799.75
604.13	1792.46
604.48	1785.05
604.83	1778.28
605.18	1771.16
605.53	1763.10
605.87	1755.08
606.22	1747.85
606.57	1739.88
606.92	1732.64
607.27	1725.38
607.62	1718.50
607.96	1711.06
608.31	1704.36
608.66	1696.69
609.01	1689.14
609.36	1681.52
609.70	1673.44
610.05	1665.23
610.40	1657.61
610.75	1649.23
611.10	1641.46
611.44	1633.24
611.79	1625.37
612.14	1616.55
612.49	1607.51
612.83	1599.02
613.18	1590.95
613.53	1582.80
613.88	1574.30
614.22	1566.06
614.57	1557.60
614.92	1549.63
615.27	1542.13
615.61	1533.84
615.96	1525.87
616.31	1518.16
616.65	1510.82
617.00	1503.26
617.35	1495.61
617.70	1487.12
618.04	1478.58
618.39	1470.36
618.74	1462.76
619.08	1454.53
619.43	1446.97
619.78	1439.95
620.12	1432.90
620.47	1425.37
620.82	1417.26
621.16	1410.00
621.51	1402.36
621.85	1394.75
622.20	1386.17
622.55	1377.88
622.89	1370.16
623.24	1362.54
623.59	1355.32
623.93	1347.85
624.28	1340.68
624.62	1333.24
624.97	1326.18
625.32	1319.51
625.66	1312.55
626.01	1305.34
626.35	1297.79
626.70	1290.11
627.04	1282.40
627.39	1274.64
627.73	1267.21
628.08	1260.32
628.43	1252.82
628.77	1245.50
629.12	1237.89
629.46	1230.76
629.81	1223.40
630.15	1216.23
630.50	1208.90
630.84	1200.75
631.19	1192.93
631.53	1185.52
631.88	1178.17
632.22	1170.60
632.57	1163.37
632.91	1155.92
633.26	1148.51
633.60	1141.27
633.95	1134.23
634.29	1127.22
634.64	1120.52
634.98	1113.22
635.32	1106.08
635.67	1099.66
636.01	1093.07
636.36	1086.32
636.70	1079.85
637.05	1073.30
637.39	1066.86
637.73	1060.35
638.08	1054.56
638.42	1048.54
638.77	1042.14
639.11	1035.53
639.45	1029.16
639.80	1022.54
640.14	1016.11
640.49	1009.55
640.83	1003.36
641.17	997.09
641.52	990.86
641.86	984.55
642.20	978.83
642.55	972.64
642.89	966.10
643.23	959.63
643.58	953.92
643.92	947.68
644.26	941.51
644.61	935.47
644.95	929.46
645.29	922.75
645.64	916.07
645.98	909.72
646.32	903.88
646.66	897.92
647.01	892.09
647.35	886.49
647.69	880.78
648.04	875.20
648.38	869.48
648.72	863.44
649.06	857.42
649.41	851.60
649.75	845.59
650.09	839.70
650.43	833.87
650.78	827.67
651.12	821.77
651.46	816.13
651.80	810.38
652.14	804.97
652.49	799.62
652.83	794.40
653.17	788.68
653.51	782.97
653.85	777.58
654.20	771.96
654.54	765.91
654.88	760.14
655.22	754.25
655.56	748.54
655.90	743.13
656.25	737.81
656.59	732.37
656.93	727.25
657.27	722.06
657.61	716.62
657.95	711.60
658.29	706.56
658.64	701.34
658.98	696.07
659.32	690.60
659.66	685.45
660.00	680.18
660.34	675.25
660.68	670.40
661.02	665.42
661.36	660.72
661.70	656.26
662.05	651.92
662.39	647.64
662.73	643.22
663.07	638.85
663.41	634.46
663.75	629.96
664.09	625.41
664.43	621.09
664.77	616.97
665.11	612.73
665.45	608.63
665.79	604.66
666.13	600.53
666.47	596.52
666.81	592.30
667.15	588.22
667.49	584.34
667.83	580.51
668.17	576.50
668.51	572.47
668.85	568.43
669.19	564.54
669.53	560.75
669.87	556.90
670.21	553.23
670.55	549.63
670.89	546.22
671.23	542.87
671.57	539.40
671.91	535.95
672.25	532.47
672.58	528.99
672.92	525.54
673.26	522.41
673.60	519.27
673.94	516.25
674.28	513.40
674.62	510.50
674.96	507.40
675.30	504.54
675.64	501.67
675.97	498.95
676.31	496.17
676.65	493.22
676.99	490.48
677.33	487.66
677.67	484.82
678.01	481.78
678.34	478.80
678.68	475.96
679.02	473.15
679.36	470.47
679.70	467.75
680.04	464.99
680.37	462.11
680.71	459.35
681.05	456.79
681.39	454.09
681.73	451.47
682.06	448.95
682.40	446.38
682.74	443.88
683.08	441.39
683.42	438.83
683.75	436.37
684.09	433.87
684.43	431.45
684.77	429.05
685.10	426.82
685.44	424.54
685.78	422.23
686.12	419.97
686.45	417.69
686.79	415.41
687.13	413.27
687.46	411.20
687.80	409.08
688.14	406.85
688.48	404.77
688.81	402.54
689.15	400.42
689.49	398.33
689.82	396.23
690.16	394.12
690.50	392.16
690.83	390.22
691.17	388.30
691.51	386.37
691.84	384.53
692.18	382.53
692.52	380.55
692.85	378.67
693.19	376.81
693.52	374.96
693.86	373.14
694.20	371.35
694.53	369.51
694.87	367.72
695.21	365.95
695.54	364.11
695.88	362.37
696.21	360.67
696.55	358.96
696.88	357.29
697.22	355.66
697.56	354.08
697.89	352.41
698.23	350.78
698.56	349.16
698.90	347.56
699.23	345.91
699.57	344.37
699.90	342.83
700.24	341.26
700.58	339.74
700.91	338.24
701.25	336.79
701.58	335.41
701.92	334.03
702.25	332.64
702.59	331.32
702.92	330.03
703.26	328.72
703.59	327.47
703.93	326.28
704.26	324.99
704.60	323.65
704.93	322.39
705.26	321.14
705.60	319.97
705.93	318.86
706.27	317.85
706.60	316.77
706.94	315.70
707.27	314.59
707.61	313.55
707.94	312.52
708.27	311.47
708.61	310.41
708.94	309.40
709.28	308.43
709.61	307.47
709.94	306.50
710.28	305.50
710.61	304.49
710.95	303.42
711.28	302.56
711.61	301.63
711.95	300.73
712.28	299.80
712.61	298.84
712.95	297.87
713.28	296.99
713.61	296.12
713.95	295.20
714.28	294.39
714.61	293.57
714.95	292.73
715.28	291.88
715.61	291.00
715.95	290.17
716.28	289.33
716.61	288.51
716.95	287.73
717.28	287.00
717.61	286.26
717.94	285.57
718.28	284.79
718.61	284.11
718.94	283.46
719.27	282.83
719.61	282.21
719.94	281.57
720.27	280.89
720.60	280.24
720.94	279.65
721.27	279.00
721.60	278.42
721.93	277.84
722.27	277.31
722.60	276.78
722.93	276.21
723.26	275.74
723.59	275.18
723.93	274.68
724.26	274.13
724.59	273.63
724.92	273.10
725.25	272.62
725.59	272.06
725.92	271.51
726.25	271.01
726.58	270.51
726.91	270.03
727.24	269.56
727.57	269.09
727.91	268.62
728.24	268.22
728.57	267.73
728.90	267.30
729.23	266.78
729.56	266.35
729.89	265.86
730.22	265.34
730.55	264.89
730.89	264.40
731.22	263.93
731.55	263.46
731.88	263.04
732.21	262.59
732.54	262.17
732.87	261.77
733.20	261.33
733.53	260.93
733.86	260.53
734.19	260.12
734.52	259.73
734.85	259.42
735.18	258.97
735.51	258.57
735.84	258.18
736.17	257.85
736.50	257.45
736.83	257.22
737.16	256.88
737.49	256.52
737.82	256.17
738.15	255.82
738.48	255.44
738.81	255.06
739.14	254.74
739.47	254.43
739.80	254.11
740.13	253.82
740.46	253.47
740.79	253.14
741.12	252.83
741.45	252.50
741.78	252.13
742.11	251.83
742.44	251.47
742.77	251.17
743.10	250.84
743.43	250.54
743.75	250.14
744.08	250.00
744.41	249.73
744.74	249.42
745.07	249.14
745.40	248.92
745.73	248.71
746.06	248.40
746.39	248.14
746.71	247.85
747.04	247.55
747.37	247.28
747.70	247.05
748.03	246.77
748.36	246.56
748.68	246.30
749.01	246.04
749.34	245.87
749.67	245.63
750.00	245.41
750.33	245.23
750.65	245.01
750.98	244.64
751.31	244.39
751.64	244.20
751.97	244.02
752.29	243.79
752.62	243.52
752.95	243.36
753.28	243.11
753.60	242.92
753.93	242.75
754.26	242.59
754.59	242.31
754.91	242.10
755.24	241.87
755.57	241.71
755.90	241.56
756.22	241.34
756.55	241.15
756.88	240.95
757.20	240.71
757.53	240.56
757.86	240.41
758.19	240.29
758.51	240.14
758.84	239.99
759.17	239.83
759.49	239.71
759.82	239.57
760.15	239.47
760.47	239.32
760.80	239.13
761.13	238.99
761.45	238.90
761.78	238.82
762.11	238.73
762.43	238.60
762.76	238.47
763.08	238.37
763.41	238.28
763.74	238.16
764.06	238.01
764.39	237.85
764.71	237.71
765.04	237.55
765.37	237.41
765.69	237.28
766.02	237.18
766.34	237.05
766.67	236.92
767.00	236.82
767.32	236.80
767.65	236.78
767.97	236.67
768.30	236.55
768.62	236.44
768.95	236.30
769.27	236.21
769.60	236.11
769.92	235.99
770.25	235.84
770.57	235.76
770.90	235.68
771.22	235.58
771.55	235.48
771.87	235.39
772.20	235.29
772.52	235.26
772.85	235.27
773.17	235.18
773.50	235.08
773.82	234.98
774.15	234.83
774.47	234.67
774.80	234.60
775.12	234.54
775.45	234.46
775.77	234.38
776.09	234.28
776.42	234.20
776.74	234.13
777.07	234.07
777.39	233.99
777.72	233.94
778.04	233.90
778.36	233.85
778.69	233.78
779.01	233.72
779.33	233.57
779.66	233.36
779.98	233.30
780.31	233.20
780.63	233.17
780.95	233.09
781.28	233.02
781.60	232.91
781.92	232.85
782.25	232.76
782.57	232.67
782.89	232.57
783.22	232.50
783.54	232.42
783.86	232.37
784.19	232.28
784.51	232.26
784.83	232.16
785.16	232.07
785.48	232.02
785.80	231.99
786.12	231.93
786.45	231.89
786.77	231.83
787.09	231.78
787.42	231.67
787.74	231.66
788.06	231.59
788.38	231.56
788.71	231.50
789.03	231.47
789.35	231.43
789.67	231.41
789.99	231.34
790.32	231.31
790.64	231.23
790.96	231.30
791.28	231.21
791.61	231.18
791.93	231.17
792.25	231.11
792.57	231.13
792.89	231.09
793.21	231.06
793.54	231.01
793.86	230.99
794.18	230.95
794.50	230.87
794.82	230.84
795.14	230.80
795.47	230.75
795.79	230.71
796.11	230.66
796.43	230.62
796.75	230.61
797.07	230.56
797.39	230.52
797.71	230.39
798.04	230.35
798.36	230.32
798.68	230.28
799.00	230.28
799.32	230.19
799.64	230.19
799.96	230.15
800.28	230.14
800.60	230.12
800.92	230.12
801.24	230.11
801.56	230.12
801.89	230.07
802.21	230.08
802.53	230.03
802.85	230.06
803.17	230.06
803.49	230.04
803.81	230.02
804.13	230.06
804.45	230.05
804.77	230.02
805.09	229.98
805.41	229.96
805.73	229.93
806.05	229.90
806.37	229.88
806.69	229.89
807.01	229.90
807.33	229.87
807.65	229.85
807.97	229.87
808.28	229.85
808.60	229.86
808.92	229.82
809.24	229.89
809.56	229.87
809.88	229.85
810.20	229.85
810.52	229.87
810.84	229.79
811.16	229.76
811.48	229.73
811.80	229.78
812.12	229.77
812.43	229.79
812.75	229.76
813.07	229.73
813.39	229.68
813.71	229.63
814.03	229.62
814.35	229.60
814.67	229.55
814.98	229.49
815.30	229.45
815.62	229.43
815.94	229.37
816.26	229.38
816.58	229.34
816.89	229.34
817.21	229.31
817.53	229.32
817.85	229.32
818.17	229.33
818.48	229.25
818.80	229.22
819.12	229.17
819.44	229.12
819.76	229.10
820.07	229.09
820.39	229.06
820.71	229.03
821.03	229.01
821.34	228.97
821.66	228.96
821.98	228.96
822.30	228.94
822.61	228.95
822.93	228.87
823.25	228.84
823.57	228.77
823.88	228.75
824.20	228.70
824.52	228.67
824.83	228.65
825.15	228.61
825.47	228.61
825.79	228.59
826.10	228.58
826.42	228.55
826.74	228.54
827.05	228.53
827.37	228.51
827.69	228.48
828.00	228.47
828.32	228.47
828.64	228.45
828.95	228.50
829.27	228.43
829.58	228.41
829.90	228.40
830.22	228.41
830.53	228.40
830.85	228.42
831.17	228.36
831.48	228.34
831.80	228.36
832.11	228.34
832.43	228.29
832.75	228.28
833.06	228.30
833.38	228.29
833.69	228.28
834.01	228.28
834.32	228.26
834.64	228.24
834.96	228.21
835.27	228.17
835.59	228.11
835.90	228.08
836.22	228.07
836.53	228.05
836.85	228.02
837.16	228.09
837.48	228.05
837.79	228.10
838.11	228.07
838.42	228.07
838.74	228.07
839.05	228.09
839.37	228.10
839.68	228.08
840.00	228.07
840.31	228.07
840.63	228.06
840.94	228.04
841.26	228.03
841.57	228.02
841.88	228.05
842.20	228.03
842.51	228.02
842.83	228.06
843.14	228.14
843.46	228.14
843.77	228.10
844.08	228.11
844.40	228.09
844.71	228.09
845.03	228.07
845.34	228.03
845.65	228.03
845.97	228.01
846.28	227.99
846.60	227.97
846.91	227.96
847.22	227.98
847.54	228.02
847.85	228.03
848.16	228.03
848.48	228.01
848.79	228.04
849.10	228.07
849.42	228.06
849.73	227.96
850.04	227.95
850.36	227.91
850.67	227.91
850.98	227.91
851.30	227.98
851.61	228.01
851.92	228.03
852.23	228.03
852.55	228.07
852.86	228.11
853.17	228.12
853.49	228.15
853.80	228.14
854.11	228.14
854.42	228.14
854.74	228.13
855.05	228.14
855.36	228.11
855.67	228.12
855.99	228.10
856.30	228.23
856.61	228.26
856.92	228.27
857.23	228.25
857.55	228.23
857.86	228.20
858.17	228.18
858.48	228.15
858.79	228.12
859.11	228.12
859.42	228.06
859.73	228.05
860.04	228.05
860.35	228.02
860.66	227.98
860.98	227.99
861.29	228.01
861.60	227.96
861.91	227.95
862.22	227.92
862.53	227.89
862.84	227.76
863.16	227.75
863.47	227.72
863.78	227.73
864.09	227.71
864.40	227.69
864.71	227.73
865.02	227.73
865.33	227.72
865.64	227.68
865.95	227.66
866.27	227.73
866.58	227.70
866.89	227.68
867.20	227.66
867.51	227.64
867.82	227.59
868.13	227.63
868.44	227.62
868.75	227.66
869.06	227.67
869.37	227.68
869.68	227.67
869.99	227.66
870.30	227.66
870.61	227.67
870.92	227.63
871.23	227.58
871.54	227.60
871.85	227.61
872.16	227.63
872.47	227.61
872.78	227.56
873.09	227.56
873.40	227.52
873.71	227.53
874.02	227.52
874.33	227.52
874.64	227.49
874.95	227.48
875.26	227.41
875.56	227.40
875.87	227.36
876.18	227.34
876.49	227.46
876.80	227.45
877.11	227.44
877.42	227.41
877.73	227.42
878.04	227.40
878.35	227.40
878.66	227.39
878.96	227.41
879.27	227.38
879.58	227.38
879.89	227.37
880.20	227.39
880.51	227.42
880.82	227.42
881.12	227.42
881.43	227.41
881.74	227.43
882.05	227.42
882.36	227.46
882.67	227.46
882.97	227.33
883.28	227.31
883.59	227.33
883.90	227.37
884.21	227.40
884.51	227.39
884.82	227.38
885.13	227.36
885.44	227.37
885.74	227.38
886.05	227.34
886.36	227.39
886.67	227.37
886.98	227.42
887.28	227.40
887.59	227.42
887.90	227.43
888.20	227.42
888.51	227.44
888.82	227.42
889.13	227.41
889.43	227.47
889.74	227.45
890.05	227.42
890.35	227.42
890.66	227.39
890.97	227.37
891.28	227.36
891.58	227.38
891.89	227.35
892.20	227.36
892.50	227.37
892.81	227.35
893.12	227.32
893.42	227.24
893.73	227.25
894.04	227.21
894.34	227.19
894.65	227.17
894.95	227.17
895.26	227.18
895.57	227.22
895.87	227.14
896.18	227.15
896.48	227.15
896.79	227.12
897.10	227.10
897.40	227.15
897.71	227.14
898.01	227.12
898.32	227.13
898.63	227.12
898.93	227.12
899.24	227.09
899.54	227.10
899.85	227.07
900.15	227.06
900.46	227.09
900.76	227.10
901.07	227.12
901.38	227.10
901.68	227.08
901.99	227.04
902.29	227.05
902.60	227.05
902.90	227.09
903.21	227.08
903.51	227.12
903.82	227.11
904.12	227.13
904.43	227.13
904.73	227.14
905.03	227.13
905.34	227.22
905.64	227.25
905.95	227.24
906.25	227.26
906.56	227.32
906.86	227.33
907.17	227.32
907.47	227.29
907.77	227.30
908.08	227.28
908.38	227.27
908.69	227.27
908.99	227.29
909.30	227.25
909.60	227.28
909.90	227.26
910.21	227.24
910.51	227.22
910.81	227.23
911.12	227.26
911.42	227.26
911.73	227.17
912.03	227.16
912.33	227.19
912.64	227.16
912.94	227.11
913.24	227.11
913.55	227.08
913.85	227.12
914.15	227.12
914.46	227.15
914.76	227.14
915.06	227.15
915.37	227.14
915.67	227.12
915.97	227.13
916.27	227.12
916.58	227.14
916.88	227.17
917.18	227.16
917.49	227.18
917.79	227.19
918.09	227.21
918.39	227.25
918.70	227.25
919.00	227.29
919.30	227.38
919.60	227.35
919.91	227.38
920.21	227.34
920.51	227.34
920.81	227.33
921.12	227.34
921.42	227.34
921.72	227.35
922.02	227.38
922.32	227.40
922.63	227.41
922.93	227.44
923.23	227.42
923.53	227.42
923.83	227.38
924.13	227.39
924.44	227.39
924.74	227.37
925.04	227.39
925.34	227.36
925.64	227.30
925.94	227.32
926.24	227.39
926.55	227.41
926.85	227.45
927.15	227.44
927.45	227.47
927.75	227.44
928.05	227.45
928.35	227.44
928.65	227.46
928.95	227.45
929.26	227.39
929.56	227.41
929.86	227.41
930.16	227.40
930.46	227.38
930.76	227.37
931.06	227.34
931.36	227.31
931.66	227.35
931.96	227.34
932.26	227.31
932.56	227.24
932.86	227.26
933.16	227.22
933.46	227.22
933.76	227.16
934.06	227.19
934.36	227.23
934.66	227.24
934.96	227.19
935.26	227.20
935.56	227.23
935.86	227.21
936.16	227.24
936.46	227.21
936.76	227.23
937.06	227.21
937.36	227.24
937.66	227.22
937.96	227.18
938.26	227.16
938.56	227.17
938.86	227.18
939.16	227.14
939.46	227.13
939.76	227.14
940.06	227.17
940.35	227.13
940.65	227.09
940.95	227.09
941.25	227.09
941.55	227.06
941.85	227.08
942.15	227.12
942.45	227.08
942.75	227.07
943.04	227.08
943.34	227.13
943.64	227.09
943.94	227.09
944.24	227.09
944.54	227.12
944.84	227.11
945.13	227.11
945.43	227.13
945.73	227.14
946.03	227.14
946.33	227.14
946.62	227.14
946.92	227.10
947.22	227.08
947.52	227.08
947.82	227.11
948.11	227.09
948.41	227.03
948.71	227.02
949.01	227.07
949.31	227.05
949.60	227.04
949.90	227.08
950.20	227.08
950.50	227.10
950.79	227.06
951.09	227.07
951.39	227.09
951.69	227.05
951.98	227.08
952.28	227.09
952.58	227.08
952.87	227.12
953.17	227.17
953.47	227.17
953.76	227.20
954.06	227.17
954.36	227.18
954.66	227.19
954.95	227.22
955.25	227.19
955.55	227.21
955.84	227.21
956.14	227.24
956.44	227.24
956.73	227.24
957.03	227.29
957.32	227.31
957.62	227.29
957.92	227.36
958.21	227.37
958.51	227.46
958.81	227.48
959.10	227.46
959.40	227.48
959.69	227.48
959.99	227.50
960.29	227.54
960.58	227.54
960.88	227.57
961.17	227.57
961.47	227.58
961.76	227.59
962.06	227.57
962.36	227.52
962.65	227.53
962.95	227.54
963.24	227.52
963.54	227.54
963.83	227.51
964.13	227.45
964.42	227.42
964.72	227.36
965.01	227.33
965.31	227.31
965.60	227.27
965.90	227.31
966.19	227.25
966.49	227.22
966.78	227.19
967.08	227.19
967.37	227.17
967.67	227.15
967.96	227.11
968.26	227.11
968.55	227.14
968.85	227.10
969.14	227.09
969.43	227.05
969.73	227.02
970.02	227.03
970.32	227.04
970.61	227.03
970.91	226.98
971.20	226.99
971.49	226.98
971.79	226.99
972.08	226.91
972.38	226.92
972.67	226.91
972.96	226.93
973.26	226.88
973.55	226.93
973.85	226.93
974.14	226.94
974.43	226.95
974.73	226.92
975.02	226.92
975.31	226.90
975.61	226.92
975.90	226.89
976.19	226.88
976.49	226.91
976.78	226.90
977.07	226.91
977.37	226.92
977.66	226.95
977.95	226.92
978.24	226.96
978.54	226.98
978.83	226.99
979.12	226.99
979.42	226.98
979.71	226.93
980.00	226.93
980.29	226.94
980.59	226.92
980.88	226.94
981.17	226.98
981.46	226.98
981.76	226.98
982.05	226.99
982.34	227.00
982.63	226.99
982.93	226.99
983.22	227.04
983.51	227.05
983.80	227.06
984.09	227.08
984.39	227.07
984.68	227.05
984.97	227.07
985.26	227.05
985.55	227.08
985.85	227.09
986.14	227.09
986.43	227.10
986.72	227.09
987.01	227.06
987.30	227.04
987.59	227.01
987.89	227.01
988.18	227.01
988.47	226.99
988.76	226.96
989.05	226.94
989.34	226.91
989.63	226.90
989.92	226.92
990.22	226.94
990.51	226.96
990.80	226.92
991.09	226.91
991.38	226.92
991.67	226.90
991.96	226.91
992.25	226.92
992.54	226.93
992.83	226.94
993.12	226.98
993.41	227.04
993.70	227.11
993.99	227.13
994.28	227.15
994.58	227.19
994.87	227.19
995.16	227.21
995.45	227.18
995.74	227.19
996.03	227.20
996.32	227.17
996.61	227.18
996.90	227.17
997.19	227.14
997.48	227.13
997.77	227.14
998.06	227.11
998.34	227.11
998.63	227.08
998.92	227.08
999.21	227.04
999.50	226.99
999.79	226.98
1000.08	226.98
1000.37	226.98
1000.66	226.96
1000.95	227.03
1001.24	227.02
1001.53	227.04
1001.82	227.02
1002.11	226.99
1002.40	227.02
1002.68	227.05
1002.97	227.15
1003.26	227.16
1003.55	227.14
1003.84	227.14
1004.13	227.19
1004.42	227.20
1004.71	227.22
1004.99	227.18
1005.28	227.20
1005.57	227.22
1005.86	227.16
1006.15	227.13
1006.44	227.12
1006.72	227.14
1007.01	227.07
1007.30	227.09
1007.59	227.08
1007.88	227.07
1008.17	227.07
1008.45	227.04
1008.74	226.99
1009.03	226.94
1009.32	226.95
1009.60	226.95
1009.89	226.96
1010.18	226.90
1010.47	226.86
1010.76	226.83
1011.04	226.82
1011.33	226.84
1011.62	226.83
1011.91	226.85
1012.19	226.87
1012.48	226.86
1012.77	226.86
1013.05	226.90
1013.34	226.88
1013.63	226.87
1013.92	226.89
1014.20	226.86
1014.49	226.86
1014.78	226.88
1015.06	226.83
1015.35	226.82
1015.64	226.86
1015.92	226.85
1016.21	226.86
1016.50	226.89
1016.78	226.90
1017.07	226.93
1017.36	226.91
1017.64	226.90
1017.93	226.91
1018.22	226.92
1018.50	226.90
1018.79	226.92
1019.08	226.90
1019.36	226.89
1019.65	226.90
1019.93	226.94
1020.22	227.00
1020.51	227.04
1020.79	227.02
1021.08	227.34
1021.36	226.40
1021.65	227.56
1021.94	227.07
1022.22	226.52
1022.51	227.07
1022.79	227.85
1023.08	227.60
1023.36	227.99
1023.65	226.62
>>>>>End Processed Spectral Data<<<<<
