SpectraSuite Data File
++++++++++++++++++++++++++++++++++++
Date: Fri Feb 01 14:49:59 EST 2013
User: group
Dark Spectrum Present: No
Reference Spectrum Present: No
Number of Sampled Component Spectra: 1
Spectrometers: USB2E7196
Integration Time (usec): 35000 (USB2E7196)
Spectra Averaged: 100 (USB2E7196)
Boxcar Smoothing: 10 (USB2E7196)
Correct for Electrical Dark: No (USB2E7196)
Strobe/Lamp Enabled: No (USB2E7196)
Correct for Detector Non-linearity: No (USB2E7196)
Correct for Stray Light: No (USB2E7196)
Number of Pixels in Processed Spectrum: 2048
>>>>>Begin Processed Spectral Data<<<<<
339.09	0.00
339.48	215.51
339.86	217.15
340.24	218.51
340.63	220.34
341.01	222.83
341.39	222.23
341.78	224.88
342.16	225.45
342.54	225.12
342.93	214.20
343.31	225.01
343.69	225.59
344.07	226.04
344.46	226.48
344.84	226.84
345.22	227.10
345.60	227.37
345.99	227.53
346.37	227.64
346.75	227.79
347.13	227.83
347.52	227.90
347.90	227.94
348.28	227.93
348.66	227.98
349.05	227.98
349.43	228.02
349.81	228.05
350.19	228.07
350.57	228.12
350.96	228.20
351.34	228.30
351.72	228.34
352.10	228.45
352.48	228.53
352.87	228.57
353.25	228.62
353.63	228.66
354.01	228.72
354.39	228.78
354.77	228.85
355.15	228.91
355.54	228.95
355.92	229.00
356.30	229.10
356.68	229.25
357.06	229.33
357.44	229.37
357.82	229.43
358.20	229.52
358.58	229.58
358.97	229.61
359.35	229.67
359.73	229.74
360.11	229.78
360.49	229.77
360.87	229.82
361.25	229.86
361.63	229.94
362.01	229.99
362.39	230.03
362.77	230.03
363.15	230.06
363.53	230.09
363.91	230.11
364.29	230.08
364.67	229.96
365.05	229.98
365.43	230.01
365.81	230.04
366.19	230.08
366.57	230.07
366.95	230.05
367.33	230.02
367.71	229.99
368.09	229.98
368.47	229.99
368.85	229.98
369.23	229.97
369.61	229.91
369.99	229.86
370.37	229.81
370.75	229.80
371.13	229.73
371.51	229.64
371.89	229.60
372.27	229.56
372.65	229.49
373.03	229.39
373.41	229.29
373.78	229.20
374.16	229.06
374.54	228.96
374.92	228.89
375.30	228.80
375.68	228.73
376.06	228.66
376.44	228.57
376.82	228.50
377.19	228.38
377.57	228.27
377.95	228.21
378.33	228.13
378.71	228.04
379.09	227.97
379.47	227.93
379.84	227.81
380.22	227.75
380.60	227.65
380.98	227.60
381.36	227.53
381.73	227.41
382.11	227.37
382.49	227.29
382.87	227.22
383.25	227.16
383.62	227.19
384.00	227.14
384.38	227.10
384.76	227.08
385.13	227.05
385.51	227.03
385.89	226.95
386.27	226.94
386.64	226.91
387.02	226.86
387.40	226.81
387.78	226.80
388.15	226.76
388.53	226.76
388.91	226.73
389.29	226.70
389.66	226.74
390.04	226.69
390.42	226.72
390.79	226.71
391.17	226.71
391.55	226.61
391.92	226.58
392.30	226.59
392.68	226.57
393.05	226.62
393.43	226.64
393.81	226.70
394.18	226.69
394.56	226.73
394.94	226.78
395.31	226.82
395.69	226.87
396.06	226.95
396.44	227.04
396.82	227.09
397.19	227.24
397.57	227.27
397.95	227.34
398.32	227.40
398.70	227.50
399.07	227.61
399.45	227.66
399.82	227.75
400.20	227.83
400.58	227.89
400.95	227.91
401.33	228.03
401.70	228.18
402.08	228.31
402.45	228.41
402.83	228.58
403.20	228.66
403.58	228.79
403.95	228.91
404.33	229.04
404.71	229.18
405.08	229.32
405.46	229.50
405.83	229.69
406.21	229.82
406.58	229.98
406.96	230.12
407.33	230.35
407.70	230.56
408.08	230.83
408.45	231.07
408.83	231.33
409.20	231.55
409.58	231.71
409.95	232.00
410.33	232.28
410.70	232.51
411.08	232.86
411.45	233.15
411.82	233.44
412.20	233.77
412.57	234.17
412.95	234.47
413.32	234.90
413.69	235.31
414.07	235.77
414.44	236.23
414.82	236.71
415.19	237.23
415.56	237.75
415.94	238.30
416.31	238.92
416.68	239.52
417.06	240.23
417.43	240.92
417.81	241.63
418.18	242.36
418.55	243.18
418.93	244.07
419.30	244.94
419.67	245.89
420.04	246.84
420.42	247.80
420.79	248.96
421.16	250.06
421.54	251.24
421.91	252.44
422.28	253.67
422.66	254.99
423.03	256.31
423.40	257.62
423.77	259.00
424.15	260.41
424.52	261.90
424.89	263.49
425.26	265.01
425.64	266.45
426.01	268.04
426.38	269.65
426.75	271.28
427.13	273.02
427.50	274.83
427.87	276.69
428.24	278.57
428.61	280.32
428.99	282.24
429.36	284.34
429.73	286.37
430.10	288.37
430.47	290.40
430.85	292.48
431.22	294.75
431.59	297.14
431.96	299.37
432.33	301.86
432.70	304.27
433.08	307.08
433.45	309.76
433.82	312.38
434.19	315.26
434.56	318.06
434.93	320.72
435.30	323.33
435.68	326.27
436.05	329.12
436.42	331.91
436.79	334.42
437.16	337.08
437.53	339.95
437.90	342.81
438.27	345.58
438.64	348.42
439.01	351.02
439.38	353.24
439.75	355.41
440.13	357.88
440.50	360.19
440.87	362.09
441.24	364.02
441.61	366.19
441.98	367.70
442.35	369.53
442.72	371.36
443.09	373.17
443.46	374.15
443.83	374.68
444.20	375.16
444.57	376.00
444.94	376.36
445.31	376.68
445.68	377.04
446.05	377.10
446.42	376.76
446.79	376.34
447.16	375.94
447.53	375.64
447.90	374.48
448.27	373.33
448.64	371.71
449.01	370.56
449.37	368.58
449.74	366.72
450.11	364.46
450.48	362.02
450.85	359.51
451.22	357.37
451.59	355.37
451.96	353.45
452.33	350.88
452.70	348.50
453.07	345.70
453.43	342.81
453.80	340.07
454.17	337.38
454.54	334.84
454.91	332.11
455.28	329.45
455.65	326.97
456.02	324.54
456.38	322.38
456.75	319.69
457.12	317.43
457.49	315.22
457.86	313.04
458.23	311.17
458.59	309.10
458.96	307.03
459.33	305.21
459.70	303.38
460.07	301.86
460.43	300.14
460.80	298.49
461.17	297.06
461.54	295.56
461.91	294.12
462.27	292.70
462.64	291.44
463.01	290.11
463.38	288.84
463.74	287.46
464.11	286.32
464.48	285.32
464.85	284.24
465.21	283.35
465.58	282.42
465.95	281.32
466.32	280.44
466.68	279.52
467.05	278.59
467.42	277.70
467.78	276.72
468.15	275.82
468.52	275.14
468.88	274.28
469.25	273.50
469.62	272.87
469.98	272.14
470.35	271.45
470.72	270.81
471.08	270.11
471.45	269.51
471.82	268.93
472.18	268.33
472.55	267.86
472.92	267.30
473.28	266.84
473.65	266.38
474.02	265.87
474.38	265.47
474.75	265.15
475.11	264.77
475.48	264.51
475.85	264.25
476.21	263.99
476.58	263.78
476.94	263.61
477.31	263.41
477.67	263.28
478.04	263.18
478.41	263.12
478.77	263.16
479.14	263.14
479.50	263.16
479.87	263.19
480.23	263.30
480.60	263.37
480.96	263.44
481.33	263.66
481.69	263.87
482.06	264.06
482.42	264.25
482.79	264.48
483.15	264.83
483.52	265.22
483.88	265.55
484.25	265.91
484.61	266.34
484.98	266.80
485.34	267.36
485.71	267.93
486.07	268.53
486.44	269.09
486.80	269.77
487.17	270.46
487.53	271.25
487.90	272.07
488.26	272.95
488.62	273.96
488.99	274.91
489.35	275.96
489.72	277.07
490.08	278.26
490.44	279.48
490.81	280.79
491.17	282.09
491.54	283.59
491.90	285.14
492.26	286.74
492.63	288.43
492.99	290.16
493.36	292.04
493.72	294.06
494.08	296.15
494.45	298.40
494.81	300.76
495.17	303.22
495.54	305.76
495.90	308.43
496.26	311.18
496.63	314.11
496.99	317.20
497.35	320.44
497.72	323.84
498.08	327.31
498.44	330.92
498.80	334.82
499.17	338.78
499.53	342.88
499.89	347.22
500.26	351.73
500.62	356.37
500.98	361.29
501.34	366.29
501.71	371.55
502.07	376.92
502.43	382.47
502.79	388.16
503.16	394.20
503.52	400.42
503.88	406.70
504.24	413.28
504.60	420.13
504.97	427.18
505.33	434.38
505.69	442.00
506.05	449.73
506.41	457.61
506.78	465.78
507.14	474.15
507.50	482.74
507.86	491.69
508.22	500.86
508.59	510.02
508.95	519.56
509.31	529.34
509.67	539.44
510.03	549.69
510.39	560.31
510.75	571.05
511.12	581.93
511.48	593.22
511.84	604.66
512.20	616.04
512.56	627.93
512.92	640.10
513.28	652.43
513.64	664.88
514.00	677.51
514.37	690.37
514.73	703.42
515.09	716.54
515.45	729.79
515.81	743.22
516.17	757.14
516.53	771.20
516.89	785.35
517.25	799.45
517.61	813.91
517.97	828.23
518.33	842.61
518.69	857.37
519.05	872.35
519.41	887.52
519.77	903.08
520.13	918.54
520.49	933.97
520.85	949.39
521.21	965.18
521.57	981.50
521.93	997.31
522.29	1013.73
522.65	1030.02
523.01	1046.34
523.37	1062.58
523.73	1078.79
524.09	1094.96
524.45	1111.46
524.81	1128.09
525.17	1144.93
525.53	1161.90
525.89	1178.84
526.25	1195.72
526.61	1212.24
526.97	1228.98
527.33	1245.62
527.68	1262.39
528.04	1278.98
528.40	1295.72
528.76	1312.85
529.12	1329.39
529.48	1346.35
529.84	1362.49
530.20	1379.09
530.56	1396.12
530.91	1413.53
531.27	1430.43
531.63	1446.91
531.99	1463.53
532.35	1479.55
532.71	1495.47
533.07	1511.87
533.42	1527.78
533.78	1543.91
534.14	1560.19
534.50	1575.64
534.86	1591.45
535.21	1606.57
535.57	1622.65
535.93	1638.05
536.29	1652.81
536.65	1668.12
537.00	1682.99
537.36	1698.12
537.72	1712.73
538.08	1727.23
538.44	1741.03
538.79	1754.90
539.15	1768.73
539.51	1782.46
539.87	1796.95
540.22	1810.63
540.58	1824.26
540.94	1837.65
541.29	1850.54
541.65	1863.33
542.01	1876.61
542.37	1888.87
542.72	1901.51
543.08	1913.13
543.44	1925.65
543.79	1936.97
544.15	1947.76
544.51	1959.16
544.87	1970.34
545.22	1981.23
545.58	1991.39
545.94	2001.26
546.29	2011.02
546.65	2020.80
547.01	2029.82
547.36	2038.42
547.72	2047.00
548.07	2054.92
548.43	2063.24
548.79	2071.27
549.14	2078.80
549.50	2085.99
549.86	2093.93
550.21	2100.95
550.57	2108.09
550.92	2114.61
551.28	2121.66
551.64	2128.69
551.99	2135.31
552.35	2141.37
552.70	2147.36
553.06	2153.29
553.41	2159.43
553.77	2165.47
554.13	2171.38
554.48	2177.48
554.84	2182.78
555.19	2188.02
555.55	2193.05
555.90	2197.36
556.26	2202.14
556.61	2206.69
556.97	2210.87
557.32	2214.78
557.68	2218.83
558.03	2223.05
558.39	2226.62
558.74	2231.04
559.10	2234.69
559.45	2238.06
559.81	2242.38
560.16	2246.06
560.52	2249.03
560.87	2252.47
561.23	2255.07
561.58	2257.94
561.94	2260.53
562.29	2262.99
562.64	2265.56
563.00	2268.06
563.35	2271.39
563.71	2274.38
564.06	2277.36
564.42	2280.15
564.77	2282.45
565.12	2284.60
565.48	2286.30
565.83	2287.92
566.19	2288.98
566.54	2290.00
566.89	2291.17
567.25	2291.37
567.60	2292.51
567.96	2294.08
568.31	2294.49
568.66	2295.20
569.02	2295.54
569.37	2295.46
569.72	2295.92
570.08	2295.62
570.43	2295.29
570.78	2294.31
571.14	2292.43
571.49	2290.76
571.84	2290.02
572.20	2288.51
572.55	2287.15
572.90	2285.20
573.26	2283.58
573.61	2281.65
573.96	2279.47
574.31	2276.18
574.67	2272.91
575.02	2269.00
575.37	2265.20
575.72	2261.20
576.08	2257.74
576.43	2254.22
576.78	2250.46
577.13	2247.02
577.49	2243.80
577.84	2240.13
578.19	2236.27
578.54	2232.41
578.90	2227.91
579.25	2222.20
579.60	2217.20
579.95	2211.96
580.30	2206.85
580.66	2201.51
581.01	2196.31
581.36	2191.15
581.71	2186.66
582.06	2182.07
582.42	2177.48
582.77	2172.22
583.12	2167.48
583.47	2162.50
583.82	2157.49
584.17	2152.00
584.53	2146.34
584.88	2140.45
585.23	2134.65
585.58	2129.09
585.93	2123.47
586.28	2118.77
586.63	2113.62
586.98	2108.42
587.34	2103.59
587.69	2098.57
588.04	2093.18
588.39	2087.39
588.74	2080.86
589.09	2074.64
589.44	2067.66
589.79	2061.35
590.14	2055.34
590.49	2048.59
590.84	2041.97
591.19	2035.60
591.54	2028.91
591.89	2021.45
592.25	2014.58
592.60	2007.28
592.95	1999.45
593.30	1992.15
593.65	1984.27
594.00	1977.16
594.35	1969.72
594.70	1961.58
595.05	1954.23
595.40	1946.93
595.75	1939.39
596.10	1933.04
596.45	1926.17
596.80	1919.84
597.15	1913.14
597.50	1906.07
597.85	1899.58
598.19	1893.02
598.54	1885.85
598.89	1879.35
599.24	1873.47
599.59	1866.80
599.94	1860.43
600.29	1854.17
600.64	1847.44
600.99	1840.11
601.34	1833.13
601.69	1826.09
602.04	1819.19
602.39	1811.89
602.74	1804.93
603.08	1798.31
603.43	1791.58
603.78	1784.39
604.13	1777.31
604.48	1770.26
604.83	1763.64
605.18	1756.80
605.53	1748.75
605.87	1740.79
606.22	1733.50
606.57	1725.58
606.92	1718.20
607.27	1711.13
607.62	1704.19
607.96	1696.90
608.31	1690.27
608.66	1682.83
609.01	1675.27
609.36	1667.80
609.70	1659.76
610.05	1651.99
610.40	1644.30
610.75	1636.11
611.10	1628.51
611.44	1620.31
611.79	1612.31
612.14	1603.62
612.49	1594.61
612.83	1586.44
613.18	1578.49
613.53	1570.43
613.88	1561.98
614.22	1553.92
614.57	1545.41
614.92	1537.54
615.27	1530.20
615.61	1522.03
615.96	1513.99
616.31	1506.67
616.65	1499.34
617.00	1491.95
617.35	1484.23
617.70	1475.85
618.04	1467.34
618.39	1459.13
618.74	1451.53
619.08	1443.43
619.43	1436.07
619.78	1429.27
620.12	1422.28
620.47	1414.84
620.82	1406.83
621.16	1399.63
621.51	1392.04
621.85	1384.53
622.20	1376.11
622.55	1367.85
622.89	1360.15
623.24	1352.74
623.59	1345.51
623.93	1338.20
624.28	1330.96
624.62	1323.63
624.97	1316.66
625.32	1310.02
625.66	1303.14
626.01	1296.16
626.35	1288.71
626.70	1281.00
627.04	1273.33
627.39	1265.47
627.73	1258.14
628.08	1251.34
628.43	1244.01
628.77	1236.76
629.12	1229.32
629.46	1222.23
629.81	1215.00
630.15	1207.94
630.50	1200.66
630.84	1192.44
631.19	1184.60
631.53	1177.23
631.88	1169.70
632.22	1162.24
632.57	1155.12
632.91	1147.68
633.26	1140.21
633.60	1132.92
633.95	1126.05
634.29	1119.10
634.64	1112.62
634.98	1105.39
635.32	1098.43
635.67	1091.99
636.01	1085.52
636.36	1078.76
636.70	1072.35
637.05	1065.82
637.39	1059.47
637.73	1053.09
638.08	1047.39
638.42	1041.59
638.77	1035.33
639.11	1028.87
639.45	1022.58
639.80	1016.04
640.14	1009.75
640.49	1003.45
640.83	997.31
641.17	991.04
641.52	984.83
641.86	978.58
642.20	972.88
642.55	966.56
642.89	960.16
643.23	953.66
643.58	948.04
643.92	941.95
644.26	935.99
644.61	929.97
644.95	923.99
645.29	917.48
645.64	910.71
645.98	904.50
646.32	898.83
646.66	892.87
647.01	887.12
647.35	881.50
647.69	875.64
648.04	870.27
648.38	864.64
648.72	858.69
649.06	852.67
649.41	846.81
649.75	841.00
650.09	835.13
650.43	829.37
650.78	823.28
651.12	817.35
651.46	811.74
651.80	806.01
652.14	800.65
652.49	795.26
652.83	790.17
653.17	784.53
653.51	778.70
653.85	773.32
654.20	767.80
654.54	761.79
654.88	756.11
655.22	750.26
655.56	744.55
655.90	739.13
656.25	733.91
656.59	728.59
656.93	723.51
657.27	718.48
657.61	713.13
657.95	708.04
658.29	703.05
658.64	697.83
658.98	692.65
659.32	687.24
659.66	682.15
660.00	677.00
660.34	672.07
660.68	667.36
661.02	662.38
661.36	657.67
661.70	653.32
662.05	649.08
662.39	644.72
662.73	640.34
663.07	636.03
663.41	631.61
663.75	627.17
664.09	622.66
664.43	618.29
664.77	614.23
665.11	610.04
665.45	605.95
665.79	601.94
666.13	597.85
666.47	593.81
666.81	589.71
667.15	585.54
667.49	581.70
667.83	577.84
668.17	573.94
668.51	569.99
668.85	565.97
669.19	562.15
669.53	558.40
669.87	554.59
670.21	550.99
670.55	547.44
670.89	544.09
671.23	540.75
671.57	537.26
671.91	533.79
672.25	530.37
672.58	526.93
672.92	523.59
673.26	520.49
673.60	517.40
673.94	514.30
674.28	511.42
674.62	508.54
674.96	505.56
675.30	502.73
675.64	499.83
675.97	497.16
676.31	494.36
676.65	491.48
676.99	488.77
677.33	485.95
677.67	483.15
678.01	480.13
678.34	477.21
678.68	474.42
679.02	471.71
679.36	468.99
679.70	466.30
680.04	463.52
680.37	460.71
680.71	457.98
681.05	455.46
681.39	452.85
681.73	450.21
682.06	447.71
682.40	445.19
682.74	442.72
683.08	440.18
683.42	437.67
683.75	435.25
684.09	432.81
684.43	430.36
684.77	427.93
685.10	425.69
685.44	423.39
685.78	421.12
686.12	418.91
686.45	416.68
686.79	414.43
687.13	412.28
687.46	410.13
687.80	408.00
688.14	405.83
688.48	403.78
688.81	401.62
689.15	399.48
689.49	397.41
689.82	395.35
690.16	393.35
690.50	391.39
690.83	389.47
691.17	387.48
691.51	385.61
691.84	383.81
692.18	381.88
692.52	379.98
692.85	378.08
693.19	376.16
693.52	374.33
693.86	372.57
694.20	370.86
694.53	369.12
694.87	367.36
695.21	365.61
695.54	363.84
695.88	362.13
696.21	360.47
696.55	358.80
696.88	357.09
697.22	355.41
697.56	353.80
697.89	352.14
698.23	350.54
698.56	348.95
698.90	347.36
699.23	345.73
699.57	344.13
699.90	342.60
700.24	341.13
700.58	339.62
700.91	338.13
701.25	336.67
701.58	335.25
701.92	333.89
702.25	332.50
702.59	331.18
702.92	329.86
703.26	328.57
703.59	327.33
703.93	326.17
704.26	324.95
704.60	323.66
704.93	322.42
705.26	321.20
705.60	320.04
705.93	318.88
706.27	317.89
706.60	316.88
706.94	315.80
707.27	314.67
707.61	313.63
707.94	312.64
708.27	311.61
708.61	310.59
708.94	309.56
709.28	308.60
709.61	307.61
709.94	306.64
710.28	305.61
710.61	304.64
710.95	303.58
711.28	302.68
711.61	301.78
711.95	300.89
712.28	299.98
712.61	298.97
712.95	298.07
713.28	297.19
713.61	296.31
713.95	295.47
714.28	294.67
714.61	293.81
714.95	292.94
715.28	292.05
715.61	291.20
715.95	290.37
716.28	289.49
716.61	288.73
716.95	287.94
717.28	287.24
717.61	286.47
717.94	285.74
718.28	284.96
718.61	284.22
718.94	283.55
719.27	282.91
719.61	282.32
719.94	281.70
720.27	280.97
720.60	280.27
720.94	279.63
721.27	279.01
721.60	278.44
721.93	277.86
722.27	277.37
722.60	276.85
722.93	276.31
723.26	275.83
723.59	275.26
723.93	274.70
724.26	274.11
724.59	273.55
724.92	273.05
725.25	272.57
725.59	272.08
725.92	271.56
726.25	271.02
726.58	270.49
726.91	270.03
727.24	269.57
727.57	269.15
727.91	268.67
728.24	268.19
728.57	267.72
728.90	267.31
729.23	266.81
729.56	266.39
729.89	265.89
730.22	265.39
730.55	264.94
730.89	264.50
731.22	264.05
731.55	263.64
731.88	263.19
732.21	262.76
732.54	262.32
732.87	261.88
733.20	261.52
733.53	261.13
733.86	260.71
734.19	260.31
734.52	259.91
734.85	259.58
735.18	259.20
735.51	258.80
735.84	258.36
736.17	258.00
736.50	257.57
736.83	257.32
737.16	256.96
737.49	256.61
737.82	256.28
738.15	255.99
738.48	255.64
738.81	255.33
739.14	254.96
739.47	254.63
739.80	254.31
740.13	254.03
740.46	253.72
740.79	253.38
741.12	253.09
741.45	252.76
741.78	252.42
742.11	252.13
742.44	251.81
742.77	251.57
743.10	251.27
743.43	250.94
743.75	250.56
744.08	250.36
744.41	250.11
744.74	249.84
745.07	249.50
745.40	249.24
745.73	248.99
746.06	248.72
746.39	248.48
746.71	248.23
747.04	247.92
747.37	247.65
747.70	247.44
748.03	247.14
748.36	246.94
748.68	246.69
749.01	246.43
749.34	246.27
749.67	246.03
750.00	245.80
750.33	245.66
750.65	245.46
750.98	245.20
751.31	245.00
751.64	244.78
751.97	244.65
752.29	244.42
752.62	244.18
752.95	243.99
753.28	243.76
753.60	243.56
753.93	243.41
754.26	243.25
754.59	243.03
754.91	242.86
755.24	242.66
755.57	242.50
755.90	242.33
756.22	242.08
756.55	241.87
756.88	241.69
757.20	241.49
757.53	241.34
757.86	241.18
758.19	241.00
758.51	240.81
758.84	240.63
759.17	240.53
759.49	240.41
759.82	240.31
760.15	240.18
760.47	240.06
760.80	239.90
761.13	239.81
761.45	239.62
761.78	239.48
762.11	239.32
762.43	239.22
762.76	239.11
763.08	239.01
763.41	238.91
763.74	238.79
764.06	238.64
764.39	238.49
764.71	238.36
765.04	238.24
765.37	238.15
765.69	238.03
766.02	237.87
766.34	237.78
766.67	237.61
767.00	237.54
767.32	237.47
767.65	237.42
767.97	237.27
768.30	237.17
768.62	237.06
768.95	236.96
769.27	236.80
769.60	236.68
769.92	236.54
770.25	236.42
770.57	236.29
770.90	236.21
771.22	236.11
771.55	235.98
771.87	235.91
772.20	235.79
772.52	235.77
772.85	235.80
773.17	235.68
773.50	235.56
773.82	235.42
774.15	235.25
774.47	235.09
774.80	234.94
775.12	234.88
775.45	234.80
775.77	234.69
776.09	234.64
776.42	234.55
776.74	234.52
777.07	234.42
777.39	234.35
777.72	234.24
778.04	234.15
778.36	234.05
778.69	233.93
779.01	233.86
779.33	233.72
779.66	233.49
779.98	233.41
780.31	233.37
780.63	233.31
780.95	233.27
781.28	233.21
781.60	233.17
781.92	233.10
782.25	233.04
782.57	233.01
782.89	232.93
783.22	232.87
783.54	232.78
783.86	232.73
784.19	232.62
784.51	232.58
784.83	232.51
785.16	232.45
785.48	232.39
785.80	232.36
786.12	232.28
786.45	232.27
786.77	232.19
787.09	232.16
787.42	232.09
787.74	232.04
788.06	231.98
788.38	231.94
788.71	231.87
789.03	231.83
789.35	231.76
789.67	231.70
789.99	231.64
790.32	231.56
790.64	231.53
790.96	231.61
791.28	231.56
791.61	231.50
791.93	231.51
792.25	231.49
792.57	231.49
792.89	231.46
793.21	231.41
793.54	231.39
793.86	231.30
794.18	231.27
794.50	231.24
794.82	231.24
795.14	231.23
795.47	231.22
795.79	231.20
796.11	231.15
796.43	231.13
796.75	231.13
797.07	231.16
797.39	231.13
797.71	231.03
798.04	230.99
798.36	231.00
798.68	230.98
799.00	230.98
799.32	230.93
799.64	230.94
799.96	230.92
800.28	230.95
800.60	230.98
800.92	230.94
801.24	230.92
801.56	230.92
801.89	230.90
802.21	230.88
802.53	230.86
802.85	230.88
803.17	230.92
803.49	230.86
803.81	230.80
804.13	230.80
804.45	230.76
804.77	230.77
805.09	230.75
805.41	230.73
805.73	230.69
806.05	230.62
806.37	230.58
806.69	230.56
807.01	230.52
807.33	230.50
807.65	230.50
807.97	230.52
808.28	230.48
808.60	230.43
808.92	230.41
809.24	230.47
809.56	230.40
809.88	230.33
810.20	230.32
810.52	230.33
810.84	230.28
811.16	230.24
811.48	230.19
811.80	230.19
812.12	230.15
812.43	230.11
812.75	230.12
813.07	230.11
813.39	230.09
813.71	230.00
814.03	229.95
814.35	229.90
814.67	229.80
814.98	229.75
815.30	229.73
815.62	229.67
815.94	229.56
816.26	229.59
816.58	229.52
816.89	229.50
817.21	229.44
817.53	229.39
817.85	229.39
818.17	229.38
818.48	229.32
818.80	229.26
819.12	229.22
819.44	229.13
819.76	229.09
820.07	229.03
820.39	229.01
820.71	228.99
821.03	228.94
821.34	228.90
821.66	228.90
821.98	228.89
822.30	228.85
822.61	228.87
822.93	228.78
823.25	228.77
823.57	228.74
823.88	228.74
824.20	228.73
824.52	228.73
824.83	228.69
825.15	228.68
825.47	228.65
825.79	228.68
826.10	228.70
826.42	228.64
826.74	228.64
827.05	228.62
827.37	228.61
827.69	228.61
828.00	228.60
828.32	228.57
828.64	228.54
828.95	228.59
829.27	228.54
829.58	228.55
829.90	228.56
830.22	228.57
830.53	228.53
830.85	228.54
831.17	228.50
831.48	228.49
831.80	228.50
832.11	228.52
832.43	228.49
832.75	228.50
833.06	228.57
833.38	228.55
833.69	228.58
834.01	228.60
834.32	228.61
834.64	228.63
834.96	228.66
835.27	228.66
835.59	228.65
835.90	228.65
836.22	228.65
836.53	228.62
836.85	228.65
837.16	228.76
837.48	228.73
837.79	228.75
838.11	228.76
838.42	228.77
838.74	228.82
839.05	228.81
839.37	228.76
839.68	228.73
840.00	228.73
840.31	228.74
840.63	228.73
840.94	228.71
841.26	228.72
841.57	228.68
841.88	228.69
842.20	228.68
842.51	228.65
842.83	228.68
843.14	228.77
843.46	228.76
843.77	228.70
844.08	228.69
844.40	228.69
844.71	228.67
845.03	228.68
845.34	228.66
845.65	228.68
845.97	228.69
846.28	228.67
846.60	228.72
846.91	228.71
847.22	228.71
847.54	228.76
847.85	228.71
848.16	228.75
848.48	228.73
848.79	228.76
849.10	228.79
849.42	228.78
849.73	228.70
850.04	228.68
850.36	228.65
850.67	228.68
850.98	228.67
851.30	228.68
851.61	228.67
851.92	228.65
852.23	228.65
852.55	228.68
852.86	228.66
853.17	228.66
853.49	228.68
853.80	228.65
854.11	228.62
854.42	228.62
854.74	228.60
855.05	228.57
855.36	228.54
855.67	228.51
855.99	228.49
856.30	228.60
856.61	228.59
856.92	228.58
857.23	228.54
857.55	228.50
857.86	228.50
858.17	228.46
858.48	228.46
858.79	228.41
859.11	228.42
859.42	228.40
859.73	228.35
860.04	228.32
860.35	228.31
860.66	228.30
860.98	228.32
861.29	228.29
861.60	228.28
861.91	228.25
862.22	228.24
862.53	228.20
862.84	228.09
863.16	228.09
863.47	228.08
863.78	228.10
864.09	228.10
864.40	228.06
864.71	228.08
865.02	228.05
865.33	228.06
865.64	228.02
865.95	228.03
866.27	228.09
866.58	228.04
866.89	228.03
867.20	228.03
867.51	228.00
867.82	227.98
868.13	228.00
868.44	227.99
868.75	228.01
869.06	228.03
869.37	228.04
869.68	228.01
869.99	228.03
870.30	228.01
870.61	228.06
870.92	228.06
871.23	228.06
871.54	228.08
871.85	228.10
872.16	228.12
872.47	228.12
872.78	228.05
873.09	228.08
873.40	228.11
873.71	228.10
874.02	228.10
874.33	228.15
874.64	228.14
874.95	228.17
875.26	228.14
875.56	228.15
875.87	228.14
876.18	228.14
876.49	228.24
876.80	228.23
877.11	228.19
877.42	228.20
877.73	228.19
878.04	228.21
878.35	228.23
878.66	228.19
878.96	228.20
879.27	228.22
879.58	228.23
879.89	228.24
880.20	228.27
880.51	228.26
880.82	228.26
881.12	228.31
881.43	228.27
881.74	228.29
882.05	228.27
882.36	228.28
882.67	228.30
882.97	228.23
883.28	228.23
883.59	228.24
883.90	228.23
884.21	228.26
884.51	228.23
884.82	228.21
885.13	228.22
885.44	228.22
885.74	228.24
886.05	228.21
886.36	228.18
886.67	228.16
886.98	228.23
887.28	228.24
887.59	228.20
887.90	228.22
888.20	228.21
888.51	228.27
888.82	228.24
889.13	228.26
889.43	228.30
889.74	228.28
890.05	228.27
890.35	228.25
890.66	228.22
890.97	228.20
891.28	228.19
891.58	228.17
891.89	228.14
892.20	228.09
892.50	228.11
892.81	228.07
893.12	228.06
893.42	228.01
893.73	228.00
894.04	227.95
894.34	227.95
894.65	227.92
894.95	227.85
895.26	227.85
895.57	227.86
895.87	227.73
896.18	227.76
896.48	227.76
896.79	227.77
897.10	227.78
897.40	227.78
897.71	227.77
898.01	227.79
898.32	227.80
898.63	227.78
898.93	227.76
899.24	227.78
899.54	227.74
899.85	227.74
900.15	227.71
900.46	227.73
900.76	227.71
901.07	227.73
901.38	227.77
901.68	227.81
901.99	227.76
902.29	227.77
902.60	227.73
902.90	227.68
903.21	227.68
903.51	227.65
903.82	227.67
904.12	227.66
904.43	227.63
904.73	227.63
905.03	227.65
905.34	227.76
905.64	227.76
905.95	227.78
906.25	227.75
906.56	227.77
906.86	227.77
907.17	227.81
907.47	227.82
907.77	227.79
908.08	227.75
908.38	227.77
908.69	227.79
908.99	227.83
909.30	227.89
909.60	227.89
909.90	227.89
910.21	227.86
910.51	227.87
910.81	227.90
911.12	227.92
911.42	227.96
911.73	227.86
912.03	227.85
912.33	227.87
912.64	227.85
912.94	227.85
913.24	227.84
913.55	227.82
913.85	227.83
914.15	227.85
914.46	227.85
914.76	227.83
915.06	227.82
915.37	227.80
915.67	227.78
915.97	227.81
916.27	227.80
916.58	227.81
916.88	227.81
917.18	227.82
917.49	227.88
917.79	227.84
918.09	227.86
918.39	227.89
918.70	227.91
919.00	227.95
919.30	227.99
919.60	227.99
919.91	228.00
920.21	227.98
920.51	227.96
920.81	227.94
921.12	227.96
921.42	227.96
921.72	227.96
922.02	227.96
922.32	227.96
922.63	227.97
922.93	228.04
923.23	228.04
923.53	228.02
923.83	227.95
924.13	227.97
924.44	227.97
924.74	227.99
925.04	228.01
925.34	228.00
925.64	227.96
925.94	227.95
926.24	227.97
926.55	227.99
926.85	228.01
927.15	228.04
927.45	228.04
927.75	228.04
928.05	228.04
928.35	228.05
928.65	228.05
928.95	228.04
929.26	228.00
929.56	228.00
929.86	228.01
930.16	227.98
930.46	227.97
930.76	227.97
931.06	227.88
931.36	227.81
931.66	227.84
931.96	227.84
932.26	227.85
932.56	227.82
932.86	227.78
933.16	227.78
933.46	227.77
933.76	227.76
934.06	227.76
934.36	227.79
934.66	227.79
934.96	227.77
935.26	227.78
935.56	227.80
935.86	227.79
936.16	227.75
936.46	227.76
936.76	227.74
937.06	227.73
937.36	227.74
937.66	227.77
937.96	227.73
938.26	227.71
938.56	227.68
938.86	227.69
939.16	227.73
939.46	227.70
939.76	227.67
940.06	227.65
940.35	227.64
940.65	227.58
940.95	227.58
941.25	227.57
941.55	227.56
941.85	227.53
942.15	227.53
942.45	227.56
942.75	227.56
943.04	227.60
943.34	227.62
943.64	227.65
943.94	227.62
944.24	227.63
944.54	227.64
944.84	227.66
945.13	227.61
945.43	227.60
945.73	227.63
946.03	227.61
946.33	227.63
946.62	227.63
946.92	227.65
947.22	227.64
947.52	227.60
947.82	227.61
948.11	227.62
948.41	227.60
948.71	227.58
949.01	227.59
949.31	227.55
949.60	227.55
949.90	227.55
950.20	227.54
950.50	227.54
950.79	227.53
951.09	227.49
951.39	227.52
951.69	227.53
951.98	227.52
952.28	227.56
952.58	227.53
952.87	227.54
953.17	227.54
953.47	227.52
953.76	227.57
954.06	227.55
954.36	227.53
954.66	227.56
954.95	227.58
955.25	227.58
955.55	227.59
955.84	227.56
956.14	227.58
956.44	227.61
956.73	227.59
957.03	227.61
957.32	227.61
957.62	227.62
957.92	227.62
958.21	227.62
958.51	227.73
958.81	227.75
959.10	227.76
959.40	227.77
959.69	227.82
959.99	227.81
960.29	227.82
960.58	227.83
960.88	227.82
961.17	227.80
961.47	227.79
961.76	227.77
962.06	227.77
962.36	227.74
962.65	227.71
962.95	227.73
963.24	227.71
963.54	227.74
963.83	227.71
964.13	227.70
964.42	227.67
964.72	227.59
965.01	227.58
965.31	227.55
965.60	227.51
965.90	227.56
966.19	227.51
966.49	227.52
966.78	227.50
967.08	227.50
967.37	227.54
967.67	227.56
967.96	227.60
968.26	227.62
968.55	227.66
968.85	227.67
969.14	227.67
969.43	227.68
969.73	227.72
970.02	227.74
970.32	227.74
970.61	227.74
970.91	227.70
971.20	227.72
971.49	227.76
971.79	227.80
972.08	227.75
972.38	227.77
972.67	227.75
972.96	227.77
973.26	227.74
973.55	227.78
973.85	227.76
974.14	227.75
974.43	227.77
974.73	227.72
975.02	227.72
975.31	227.70
975.61	227.69
975.90	227.64
976.19	227.62
976.49	227.62
976.78	227.64
977.07	227.65
977.37	227.62
977.66	227.59
977.95	227.55
978.24	227.54
978.54	227.57
978.83	227.59
979.12	227.58
979.42	227.59
979.71	227.56
980.00	227.59
980.29	227.57
980.59	227.54
980.88	227.56
981.17	227.59
981.46	227.60
981.76	227.59
982.05	227.62
982.34	227.63
982.63	227.62
982.93	227.61
983.22	227.65
983.51	227.65
983.80	227.66
984.09	227.72
984.39	227.72
984.68	227.73
984.97	227.73
985.26	227.74
985.55	227.74
985.85	227.68
986.14	227.65
986.43	227.65
986.72	227.64
987.01	227.63
987.30	227.60
987.59	227.61
987.89	227.63
988.18	227.61
988.47	227.61
988.76	227.63
989.05	227.61
989.34	227.57
989.63	227.57
989.92	227.59
990.22	227.53
990.51	227.53
990.80	227.51
991.09	227.50
991.38	227.50
991.67	227.50
991.96	227.52
992.25	227.51
992.54	227.51
992.83	227.52
993.12	227.49
993.41	227.50
993.70	227.51
993.99	227.51
994.28	227.53
994.58	227.55
994.87	227.51
995.16	227.51
995.45	227.51
995.74	227.49
996.03	227.48
996.32	227.50
996.61	227.51
996.90	227.50
997.19	227.50
997.48	227.49
997.77	227.47
998.06	227.47
998.34	227.48
998.63	227.49
998.92	227.51
999.21	227.55
999.50	227.56
999.79	227.52
1000.08	227.52
1000.37	227.50
1000.66	227.49
1000.95	227.52
1001.24	227.54
1001.53	227.59
1001.82	227.58
1002.11	227.60
1002.40	227.61
1002.68	227.61
1002.97	227.68
1003.26	227.67
1003.55	227.64
1003.84	227.65
1004.13	227.71
1004.42	227.69
1004.71	227.67
1004.99	227.64
1005.28	227.66
1005.57	227.66
1005.86	227.65
1006.15	227.64
1006.44	227.63
1006.72	227.66
1007.01	227.60
1007.30	227.60
1007.59	227.58
1007.88	227.60
1008.17	227.56
1008.45	227.55
1008.74	227.51
1009.03	227.46
1009.32	227.47
1009.60	227.49
1009.89	227.47
1010.18	227.40
1010.47	227.42
1010.76	227.42
1011.04	227.40
1011.33	227.37
1011.62	227.38
1011.91	227.40
1012.19	227.44
1012.48	227.45
1012.77	227.43
1013.05	227.52
1013.34	227.51
1013.63	227.51
1013.92	227.50
1014.20	227.51
1014.49	227.50
1014.78	227.55
1015.06	227.51
1015.35	227.47
1015.64	227.49
1015.92	227.52
1016.21	227.54
1016.50	227.54
1016.78	227.57
1017.07	227.58
1017.36	227.58
1017.64	227.57
1017.93	227.55
1018.22	227.52
1018.50	227.54
1018.79	227.55
1019.08	227.50
1019.36	227.51
1019.65	227.50
1019.93	227.53
1020.22	227.56
1020.51	227.59
1020.79	227.58
1021.08	227.62
1021.36	227.76
1021.65	227.91
1021.94	227.55
1022.22	227.65
1022.51	227.51
1022.79	227.91
1023.08	228.07
1023.36	228.25
1023.65	227.66
>>>>>End Processed Spectral Data<<<<<
