SpectraSuite Data File
++++++++++++++++++++++++++++++++++++
Date: Fri Feb 01 14:51:53 EST 2013
User: group
Dark Spectrum Present: No
Reference Spectrum Present: No
Number of Sampled Component Spectra: 1
Spectrometers: USB2E7196
Integration Time (usec): 35000 (USB2E7196)
Spectra Averaged: 100 (USB2E7196)
Boxcar Smoothing: 10 (USB2E7196)
Correct for Electrical Dark: No (USB2E7196)
Strobe/Lamp Enabled: No (USB2E7196)
Correct for Detector Non-linearity: No (USB2E7196)
Correct for Stray Light: No (USB2E7196)
Number of Pixels in Processed Spectrum: 2048
>>>>>Begin Processed Spectral Data<<<<<
339.09	0.00
339.48	215.40
339.86	216.73
340.24	218.65
340.63	220.26
341.01	223.26
341.39	221.68
341.78	223.52
342.16	225.39
342.54	225.87
342.93	213.86
343.31	224.67
343.69	225.22
344.07	225.70
344.46	226.12
344.84	226.48
345.22	226.66
345.60	226.94
345.99	227.14
346.37	227.24
346.75	227.33
347.13	227.40
347.52	227.45
347.90	227.52
348.28	227.50
348.66	227.56
349.05	227.56
349.43	227.57
349.81	227.58
350.19	227.58
350.57	227.65
350.96	227.69
351.34	227.75
351.72	227.83
352.10	227.91
352.48	227.94
352.87	227.97
353.25	228.04
353.63	228.10
354.01	228.16
354.39	228.22
354.77	228.28
355.15	228.33
355.54	228.40
355.92	228.43
356.30	228.54
356.68	228.67
357.06	228.74
357.44	228.80
357.82	228.89
358.20	228.98
358.58	229.04
358.97	229.15
359.35	229.25
359.73	229.32
360.11	229.34
360.49	229.44
360.87	229.51
361.25	229.57
361.63	229.65
362.01	229.68
362.39	229.71
362.77	229.77
363.15	229.83
363.53	229.87
363.91	229.90
364.29	229.92
364.67	229.81
365.05	229.83
365.43	229.82
365.81	229.84
366.19	229.87
366.57	229.89
366.95	229.87
367.33	229.83
367.71	229.78
368.09	229.82
368.47	229.77
368.85	229.74
369.23	229.72
369.61	229.65
369.99	229.68
370.37	229.67
370.75	229.66
371.13	229.60
371.51	229.53
371.89	229.49
372.27	229.43
372.65	229.44
373.03	229.36
373.41	229.32
373.78	229.23
374.16	229.13
374.54	229.01
374.92	228.93
375.30	228.86
375.68	228.79
376.06	228.70
376.44	228.62
376.82	228.53
377.19	228.45
377.57	228.39
377.95	228.27
378.33	228.17
378.71	228.04
379.09	228.00
379.47	227.94
379.84	227.88
380.22	227.80
380.60	227.70
380.98	227.63
381.36	227.53
381.73	227.47
382.11	227.40
382.49	227.36
382.87	227.30
383.25	227.24
383.62	227.29
384.00	227.24
384.38	227.19
384.76	227.14
385.13	227.12
385.51	227.05
385.89	226.98
386.27	226.93
386.64	226.86
387.02	226.81
387.40	226.73
387.78	226.66
388.15	226.63
388.53	226.60
388.91	226.59
389.29	226.56
389.66	226.56
390.04	226.53
390.42	226.52
390.79	226.51
391.17	226.49
391.55	226.37
391.92	226.36
392.30	226.38
392.68	226.36
393.05	226.38
393.43	226.38
393.81	226.39
394.18	226.43
394.56	226.46
394.94	226.47
395.31	226.50
395.69	226.58
396.06	226.63
396.44	226.68
396.82	226.69
397.19	226.82
397.57	226.85
397.95	226.91
398.32	226.94
398.70	227.03
399.07	227.11
399.45	227.20
399.82	227.25
400.20	227.30
400.58	227.39
400.95	227.41
401.33	227.53
401.70	227.72
402.08	227.81
402.45	227.95
402.83	228.11
403.20	228.26
403.58	228.38
403.95	228.50
404.33	228.64
404.71	228.80
405.08	228.93
405.46	229.12
405.83	229.30
406.21	229.48
406.58	229.65
406.96	229.82
407.33	230.01
407.70	230.25
408.08	230.56
408.45	230.80
408.83	231.08
409.20	231.33
409.58	231.49
409.95	231.77
410.33	232.05
410.70	232.32
411.08	232.60
411.45	232.92
411.82	233.25
412.20	233.59
412.57	234.01
412.95	234.32
413.32	234.72
413.69	235.13
414.07	235.58
414.44	236.04
414.82	236.54
415.19	237.10
415.56	237.62
415.94	238.16
416.31	238.78
416.68	239.39
417.06	240.08
417.43	240.81
417.81	241.56
418.18	242.33
418.55	243.14
418.93	244.01
419.30	244.87
419.67	245.78
420.04	246.73
420.42	247.76
420.79	248.93
421.16	250.08
421.54	251.30
421.91	252.51
422.28	253.80
422.66	255.11
423.03	256.42
423.40	257.77
423.77	259.17
424.15	260.60
424.52	262.09
424.89	263.70
425.26	265.23
425.64	266.65
426.01	268.21
426.38	269.88
426.75	271.57
427.13	273.31
427.50	275.14
427.87	276.98
428.24	278.83
428.61	280.58
428.99	282.49
429.36	284.54
429.73	286.58
430.10	288.59
430.47	290.61
430.85	292.70
431.22	294.95
431.59	297.35
431.96	299.59
432.33	302.11
432.70	304.47
433.08	307.30
433.45	309.96
433.82	312.56
434.19	315.45
434.56	318.28
434.93	320.89
435.30	323.49
435.68	326.40
436.05	329.24
436.42	332.06
436.79	334.56
437.16	337.24
437.53	340.05
437.90	342.81
438.27	345.57
438.64	348.41
439.01	350.99
439.38	353.20
439.75	355.32
440.13	357.77
440.50	360.09
440.87	361.97
441.24	363.95
441.61	366.10
441.98	367.56
442.35	369.34
442.72	371.22
443.09	373.03
443.46	374.01
443.83	374.54
444.20	375.05
444.57	375.90
444.94	376.20
445.31	376.59
445.68	376.98
446.05	377.08
446.42	376.70
446.79	376.24
447.16	375.80
447.53	375.50
447.90	374.32
448.27	373.16
448.64	371.49
449.01	370.35
449.37	368.41
449.74	366.55
450.11	364.28
450.48	361.79
450.85	359.28
451.22	357.19
451.59	355.20
451.96	353.22
452.33	350.59
452.70	348.24
453.07	345.38
453.43	342.49
453.80	339.71
454.17	337.05
454.54	334.61
454.91	331.89
455.28	329.23
455.65	326.79
456.02	324.34
456.38	322.24
456.75	319.50
457.12	317.25
457.49	315.01
457.86	312.88
458.23	311.04
458.59	308.99
458.96	306.91
459.33	305.07
459.70	303.21
460.07	301.74
460.43	300.02
460.80	298.42
461.17	296.96
461.54	295.46
461.91	294.00
462.27	292.45
462.64	291.20
463.01	289.84
463.38	288.52
463.74	287.14
464.11	285.94
464.48	284.97
464.85	283.83
465.21	282.96
465.58	282.04
465.95	280.97
466.32	280.05
466.68	279.11
467.05	278.18
467.42	277.29
467.78	276.34
468.15	275.46
468.52	274.77
468.88	273.89
469.25	273.11
469.62	272.49
469.98	271.81
470.35	271.16
470.72	270.58
471.08	269.92
471.45	269.39
471.82	268.84
472.18	268.19
472.55	267.75
472.92	267.21
473.28	266.70
473.65	266.23
474.02	265.76
474.38	265.37
474.75	265.03
475.11	264.69
475.48	264.44
475.85	264.19
476.21	263.94
476.58	263.76
476.94	263.63
477.31	263.41
477.67	263.28
478.04	263.16
478.41	263.07
478.77	263.13
479.14	263.07
479.50	263.06
479.87	263.15
480.23	263.21
480.60	263.27
480.96	263.35
481.33	263.54
481.69	263.74
482.06	263.94
482.42	264.16
482.79	264.38
483.15	264.68
483.52	265.05
483.88	265.42
484.25	265.78
484.61	266.17
484.98	266.64
485.34	267.20
485.71	267.77
486.07	268.34
486.44	268.88
486.80	269.58
487.17	270.29
487.53	271.11
487.90	271.98
488.26	272.87
488.62	273.85
488.99	274.82
489.35	275.85
489.72	276.95
490.08	278.11
490.44	279.35
490.81	280.66
491.17	282.00
491.54	283.44
491.90	285.00
492.26	286.61
492.63	288.34
492.99	290.06
493.36	291.96
493.72	293.99
494.08	296.08
494.45	298.29
494.81	300.66
495.17	303.06
495.54	305.59
495.90	308.28
496.26	311.05
496.63	313.98
496.99	317.06
497.35	320.28
497.72	323.62
498.08	327.09
498.44	330.76
498.80	334.63
499.17	338.63
499.53	342.76
499.89	347.12
500.26	351.56
500.62	356.21
500.98	361.15
501.34	366.15
501.71	371.40
502.07	376.79
502.43	382.32
502.79	388.10
503.16	394.13
503.52	400.36
503.88	406.70
504.24	413.29
504.60	420.12
504.97	427.23
505.33	434.51
505.69	442.21
506.05	449.93
506.41	457.75
506.78	465.84
507.14	474.23
507.50	482.91
507.86	491.97
508.22	501.11
508.59	510.26
508.95	519.82
509.31	529.61
509.67	539.70
510.03	549.97
510.39	560.48
510.75	571.23
511.12	582.11
511.48	593.40
511.84	604.82
512.20	616.34
512.56	628.28
512.92	640.43
513.28	652.74
513.64	665.13
514.00	677.84
514.37	690.78
514.73	703.78
515.09	716.81
515.45	730.04
515.81	743.62
516.17	757.48
516.53	771.62
516.89	785.76
517.25	799.89
517.61	814.29
517.97	828.71
518.33	843.17
518.69	857.91
519.05	872.87
519.41	888.03
519.77	903.61
520.13	919.05
520.49	934.43
520.85	949.82
521.21	965.64
521.57	981.91
521.93	997.78
522.29	1014.25
522.65	1030.53
523.01	1046.85
523.37	1062.97
523.73	1079.30
524.09	1095.47
524.45	1111.88
524.81	1128.61
525.17	1145.47
525.53	1162.54
525.89	1179.48
526.25	1196.40
526.61	1212.87
526.97	1229.67
527.33	1246.10
527.68	1262.84
528.04	1279.47
528.40	1296.18
528.76	1313.23
529.12	1329.93
529.48	1346.74
529.84	1362.89
530.20	1379.65
530.56	1396.67
530.91	1414.11
531.27	1430.90
531.63	1447.37
531.99	1464.02
532.35	1480.05
532.71	1496.03
533.07	1512.34
533.42	1528.25
533.78	1544.49
534.14	1560.91
534.50	1576.25
534.86	1592.24
535.21	1607.33
535.57	1623.42
535.93	1638.94
536.29	1653.80
536.65	1669.00
537.00	1683.95
537.36	1699.35
537.72	1713.90
538.08	1728.46
538.44	1742.33
538.79	1756.22
539.15	1770.06
539.51	1783.84
539.87	1798.35
540.22	1812.20
540.58	1826.05
540.94	1839.42
541.29	1852.29
541.65	1865.05
542.01	1878.44
542.37	1890.79
542.72	1903.47
543.08	1915.09
543.44	1927.47
543.79	1938.80
544.15	1949.82
544.51	1961.31
544.87	1972.18
545.22	1983.15
545.58	1993.34
545.94	2003.20
546.29	2013.10
546.65	2022.83
547.01	2032.10
547.36	2040.78
547.72	2049.25
548.07	2057.06
548.43	2065.21
548.79	2073.20
549.14	2080.74
549.50	2088.07
549.86	2095.85
550.21	2103.06
550.57	2110.30
550.92	2116.95
551.28	2123.94
551.64	2130.89
551.99	2137.45
552.35	2143.58
552.70	2149.47
553.06	2155.37
553.41	2161.59
553.77	2167.61
554.13	2173.70
554.48	2179.70
554.84	2184.93
555.19	2190.09
555.55	2195.16
555.90	2199.63
556.26	2204.35
556.61	2208.85
556.97	2212.99
557.32	2216.92
557.68	2220.91
558.03	2225.08
558.39	2228.74
558.74	2233.25
559.10	2236.98
559.45	2240.49
559.81	2244.72
560.16	2248.33
560.52	2251.40
560.87	2254.74
561.23	2257.22
561.58	2259.98
561.94	2262.40
562.29	2264.83
562.64	2267.47
563.00	2269.87
563.35	2273.44
563.71	2276.47
564.06	2279.59
564.42	2282.31
564.77	2284.67
565.12	2286.84
565.48	2288.59
565.83	2290.33
566.19	2291.55
566.54	2292.49
566.89	2293.52
567.25	2294.04
567.60	2295.32
567.96	2296.82
568.31	2297.51
568.66	2298.40
569.02	2298.78
569.37	2298.95
569.72	2299.34
570.08	2299.21
570.43	2298.93
570.78	2297.77
571.14	2296.05
571.49	2294.51
571.84	2293.85
572.20	2292.47
572.55	2291.23
572.90	2289.40
573.26	2287.58
573.61	2285.66
573.96	2283.48
574.31	2280.33
574.67	2276.98
575.02	2273.03
575.37	2269.44
575.72	2265.23
576.08	2261.83
576.43	2258.43
576.78	2254.55
577.13	2251.30
577.49	2247.96
577.84	2244.49
578.19	2240.83
578.54	2236.84
578.90	2232.33
579.25	2226.71
579.60	2221.63
579.95	2216.43
580.30	2211.28
580.66	2206.03
581.01	2200.85
581.36	2195.72
581.71	2191.26
582.06	2186.71
582.42	2182.21
582.77	2176.78
583.12	2172.06
583.47	2167.07
583.82	2161.88
584.17	2156.38
584.53	2150.79
584.88	2144.99
585.23	2139.05
585.58	2133.31
585.93	2127.92
586.28	2123.06
586.63	2117.79
586.98	2112.60
587.34	2107.77
587.69	2102.83
588.04	2097.42
588.39	2091.49
588.74	2084.86
589.09	2078.68
589.44	2071.68
589.79	2065.52
590.14	2059.75
590.49	2053.04
590.84	2046.44
591.19	2040.18
591.54	2033.63
591.89	2026.05
592.25	2019.14
592.60	2011.79
592.95	2004.01
593.30	1996.51
593.65	1988.69
594.00	1981.60
594.35	1974.26
594.70	1966.01
595.05	1958.62
595.40	1951.26
595.75	1943.76
596.10	1937.44
596.45	1930.39
596.80	1924.17
597.15	1917.52
597.50	1910.40
597.85	1903.97
598.19	1897.38
598.54	1890.32
598.89	1883.63
599.24	1877.65
599.59	1870.92
599.94	1864.54
600.29	1858.17
600.64	1851.47
600.99	1844.11
601.34	1837.30
601.69	1830.21
602.04	1823.29
602.39	1815.84
602.74	1808.99
603.08	1802.32
603.43	1795.73
603.78	1788.58
604.13	1781.20
604.48	1773.75
604.83	1766.93
605.18	1759.98
605.53	1751.87
605.87	1743.82
606.22	1736.59
606.57	1728.75
606.92	1721.52
607.27	1714.37
607.62	1707.53
607.96	1700.36
608.31	1693.77
608.66	1686.05
609.01	1678.60
609.36	1671.15
609.70	1663.16
610.05	1655.27
610.40	1647.64
610.75	1639.28
611.10	1631.57
611.44	1623.31
611.79	1615.47
612.14	1606.72
612.49	1597.69
612.83	1589.43
613.18	1581.45
613.53	1573.65
613.88	1565.14
614.22	1556.92
614.57	1548.48
614.92	1540.49
615.27	1532.97
615.61	1524.71
615.96	1516.79
616.31	1509.23
616.65	1501.91
617.00	1494.43
617.35	1486.79
617.70	1478.43
618.04	1469.88
618.39	1461.87
618.74	1454.53
619.08	1446.35
619.43	1438.98
619.78	1432.19
620.12	1425.17
620.47	1417.67
620.82	1409.43
621.16	1402.11
621.51	1394.52
621.85	1386.99
622.20	1378.57
622.55	1370.37
622.89	1362.59
623.24	1355.23
623.59	1348.00
623.93	1340.54
624.28	1333.49
624.62	1326.07
624.97	1318.97
625.32	1312.48
625.66	1305.49
626.01	1298.27
626.35	1290.89
626.70	1283.28
627.04	1275.58
627.39	1267.90
627.73	1260.61
628.08	1253.85
628.43	1246.66
628.77	1239.54
629.12	1232.06
629.46	1224.96
629.81	1217.66
630.15	1210.64
630.50	1203.19
630.84	1195.04
631.19	1187.22
631.53	1179.92
631.88	1172.37
632.22	1164.90
632.57	1157.63
632.91	1150.28
633.26	1142.91
633.60	1135.63
633.95	1128.64
634.29	1121.72
634.64	1115.09
634.98	1107.81
635.32	1100.73
635.67	1094.27
636.01	1087.59
636.36	1080.88
636.70	1074.47
637.05	1067.89
637.39	1061.43
637.73	1055.04
638.08	1049.30
638.42	1043.41
638.77	1036.85
639.11	1030.40
639.45	1024.14
639.80	1017.58
640.14	1011.09
640.49	1004.64
640.83	998.46
641.17	992.22
641.52	985.95
641.86	979.63
642.20	973.90
642.55	967.60
642.89	961.17
643.23	954.74
643.58	949.11
643.92	942.98
644.26	937.05
644.61	931.11
644.95	925.08
645.29	918.50
645.64	911.76
645.98	905.58
646.32	899.83
646.66	893.83
647.01	888.14
647.35	882.63
647.69	876.95
648.04	871.47
648.38	865.75
648.72	859.70
649.06	853.71
649.41	847.79
649.75	841.87
650.09	835.93
650.43	830.15
650.78	823.92
651.12	818.08
651.46	812.39
651.80	806.65
652.14	801.42
652.49	796.16
652.83	791.06
653.17	785.37
653.51	779.57
653.85	774.18
654.20	768.56
654.54	762.52
654.88	756.80
655.22	750.91
655.56	745.28
655.90	739.89
656.25	734.67
656.59	729.39
656.93	724.45
657.27	719.39
657.61	714.06
657.95	709.10
658.29	704.00
658.64	698.76
658.98	693.52
659.32	688.04
659.66	682.85
660.00	677.58
660.34	672.72
660.68	667.98
661.02	663.04
661.36	658.40
661.70	654.00
662.05	649.67
662.39	645.41
662.73	640.96
663.07	636.67
663.41	632.31
663.75	627.92
664.09	623.31
664.43	618.98
664.77	614.87
665.11	610.64
665.45	606.63
665.79	602.64
666.13	598.60
666.47	594.53
666.81	590.41
667.15	586.38
667.49	582.57
667.83	578.75
668.17	574.85
668.51	570.79
668.85	566.80
669.19	563.00
669.53	559.15
669.87	555.38
670.21	551.75
670.55	548.15
670.89	544.72
671.23	541.36
671.57	537.94
671.91	534.49
672.25	531.08
672.58	527.60
672.92	524.28
673.26	521.16
673.60	518.07
673.94	514.99
674.28	512.09
674.62	509.15
674.96	506.08
675.30	503.19
675.64	500.28
675.97	497.57
676.31	494.70
676.65	491.88
676.99	489.22
677.33	486.37
677.67	483.56
678.01	480.53
678.34	477.56
678.68	474.73
679.02	471.91
679.36	469.18
679.70	466.47
680.04	463.75
680.37	460.89
680.71	458.15
681.05	455.62
681.39	452.95
681.73	450.31
682.06	447.79
682.40	445.36
682.74	442.88
683.08	440.32
683.42	437.78
683.75	435.26
684.09	432.66
684.43	430.25
684.77	427.81
685.10	425.56
685.44	423.34
685.78	421.04
686.12	418.78
686.45	416.53
686.79	414.26
687.13	412.05
687.46	409.96
687.80	407.82
688.14	405.59
688.48	403.62
688.81	401.43
689.15	399.36
689.49	397.18
689.82	395.17
690.16	393.13
690.50	391.23
690.83	389.31
691.17	387.41
691.51	385.51
691.84	383.71
692.18	381.76
692.52	379.79
692.85	377.86
693.19	376.06
693.52	374.23
693.86	372.47
694.20	370.70
694.53	368.91
694.87	367.10
695.21	365.37
695.54	363.55
695.88	361.89
696.21	360.18
696.55	358.56
696.88	356.87
697.22	355.25
697.56	353.63
697.89	352.03
698.23	350.48
698.56	348.91
698.90	347.33
699.23	345.71
699.57	344.17
699.90	342.72
700.24	341.19
700.58	339.69
700.91	338.19
701.25	336.76
701.58	335.41
701.92	334.10
702.25	332.73
702.59	331.35
702.92	330.00
703.26	328.74
703.59	327.48
703.93	326.29
704.26	325.08
704.60	323.81
704.93	322.56
705.26	321.32
705.60	320.16
705.93	319.00
706.27	317.99
706.60	316.98
706.94	315.86
707.27	314.69
707.61	313.63
707.94	312.62
708.27	311.52
708.61	310.44
708.94	309.45
709.28	308.49
709.61	307.59
709.94	306.67
710.28	305.63
710.61	304.62
710.95	303.57
711.28	302.68
711.61	301.77
711.95	300.81
712.28	299.87
712.61	298.88
712.95	297.98
713.28	297.09
713.61	296.13
713.95	295.26
714.28	294.47
714.61	293.67
714.95	292.82
715.28	292.03
715.61	291.16
715.95	290.26
716.28	289.41
716.61	288.56
716.95	287.72
717.28	287.04
717.61	286.30
717.94	285.56
718.28	284.75
718.61	284.05
718.94	283.41
719.27	282.77
719.61	282.19
719.94	281.53
720.27	280.82
720.60	280.21
720.94	279.57
721.27	278.99
721.60	278.38
721.93	277.77
722.27	277.25
722.60	276.70
722.93	276.17
723.26	275.64
723.59	275.09
723.93	274.53
724.26	273.95
724.59	273.37
724.92	272.90
725.25	272.41
725.59	271.85
725.92	271.34
726.25	270.80
726.58	270.26
726.91	269.79
727.24	269.33
727.57	268.87
727.91	268.36
728.24	267.89
728.57	267.40
728.90	266.97
729.23	266.43
729.56	266.00
729.89	265.51
730.22	265.02
730.55	264.55
730.89	264.12
731.22	263.67
731.55	263.26
731.88	262.81
732.21	262.38
732.54	261.96
732.87	261.54
733.20	261.19
733.53	260.82
733.86	260.46
734.19	260.07
734.52	259.71
734.85	259.45
735.18	259.05
735.51	258.69
735.84	258.35
736.17	258.03
736.50	257.65
736.83	257.44
737.16	257.09
737.49	256.76
737.82	256.42
738.15	256.11
738.48	255.80
738.81	255.46
739.14	255.15
739.47	254.85
739.80	254.61
740.13	254.28
740.46	253.95
740.79	253.63
741.12	253.30
741.45	252.99
741.78	252.62
742.11	252.35
742.44	252.03
742.77	251.73
743.10	251.41
743.43	251.10
743.75	250.72
744.08	250.55
744.41	250.26
744.74	250.04
745.07	249.73
745.40	249.50
745.73	249.29
746.06	249.00
746.39	248.72
746.71	248.42
747.04	248.15
747.37	247.90
747.70	247.66
748.03	247.43
748.36	247.18
748.68	246.97
749.01	246.73
749.34	246.50
749.67	246.27
750.00	246.06
750.33	245.92
750.65	245.72
750.98	245.38
751.31	245.22
751.64	245.00
751.97	244.84
752.29	244.60
752.62	244.32
752.95	244.13
753.28	243.94
753.60	243.73
753.93	243.54
754.26	243.32
754.59	243.08
754.91	242.90
755.24	242.69
755.57	242.49
755.90	242.32
756.22	242.13
756.55	241.93
756.88	241.70
757.20	241.49
757.53	241.28
757.86	241.14
758.19	240.95
758.51	240.76
758.84	240.57
759.17	240.39
759.49	240.26
759.82	240.13
760.15	240.00
760.47	239.83
760.80	239.67
761.13	239.54
761.45	239.39
761.78	239.23
762.11	239.10
762.43	238.95
762.76	238.79
763.08	238.68
763.41	238.55
763.74	238.45
764.06	238.28
764.39	238.14
764.71	237.99
765.04	237.84
765.37	237.72
765.69	237.56
766.02	237.42
766.34	237.31
766.67	237.17
767.00	237.05
767.32	237.00
767.65	236.94
767.97	236.81
768.30	236.70
768.62	236.57
768.95	236.47
769.27	236.37
769.60	236.28
769.92	236.17
770.25	236.05
770.57	235.91
770.90	235.86
771.22	235.77
771.55	235.64
771.87	235.57
772.20	235.49
772.52	235.50
772.85	235.57
773.17	235.45
773.50	235.33
773.82	235.22
774.15	235.06
774.47	234.91
774.80	234.84
775.12	234.74
775.45	234.71
775.77	234.59
776.09	234.51
776.42	234.42
776.74	234.35
777.07	234.31
777.39	234.26
777.72	234.20
778.04	234.14
778.36	234.09
778.69	234.01
779.01	233.98
779.33	233.88
779.66	233.68
779.98	233.63
780.31	233.61
780.63	233.57
780.95	233.53
781.28	233.49
781.60	233.42
781.92	233.40
782.25	233.32
782.57	233.30
782.89	233.22
783.22	233.15
783.54	233.11
783.86	233.04
784.19	232.99
784.51	232.91
784.83	232.87
785.16	232.83
785.48	232.80
785.80	232.73
786.12	232.62
786.45	232.57
786.77	232.53
787.09	232.48
787.42	232.41
787.74	232.39
788.06	232.34
788.38	232.31
788.71	232.23
789.03	232.21
789.35	232.14
789.67	232.09
789.99	232.04
790.32	231.96
790.64	231.91
790.96	231.92
791.28	231.87
791.61	231.83
791.93	231.79
792.25	231.77
792.57	231.76
792.89	231.71
793.21	231.71
793.54	231.66
793.86	231.60
794.18	231.56
794.50	231.50
794.82	231.47
795.14	231.43
795.47	231.42
795.79	231.38
796.11	231.36
796.43	231.31
796.75	231.27
797.07	231.25
797.39	231.21
797.71	231.12
798.04	231.08
798.36	231.05
798.68	231.00
799.00	230.96
799.32	230.86
799.64	230.86
799.96	230.77
800.28	230.73
800.60	230.66
800.92	230.64
801.24	230.59
801.56	230.59
801.89	230.54
802.21	230.49
802.53	230.45
802.85	230.42
803.17	230.45
803.49	230.43
803.81	230.37
804.13	230.34
804.45	230.28
804.77	230.24
805.09	230.19
805.41	230.13
805.73	230.06
806.05	230.06
806.37	230.01
806.69	229.96
807.01	229.92
807.33	229.93
807.65	229.85
807.97	229.89
808.28	229.83
808.60	229.79
808.92	229.74
809.24	229.76
809.56	229.67
809.88	229.61
810.20	229.58
810.52	229.60
810.84	229.56
811.16	229.52
811.48	229.50
811.80	229.50
812.12	229.48
812.43	229.48
812.75	229.43
813.07	229.40
813.39	229.44
813.71	229.41
814.03	229.36
814.35	229.34
814.67	229.27
814.98	229.24
815.30	229.23
815.62	229.19
815.94	229.13
816.26	229.20
816.58	229.21
816.89	229.18
817.21	229.15
817.53	229.16
817.85	229.19
818.17	229.15
818.48	229.13
818.80	229.17
819.12	229.16
819.44	229.14
819.76	229.10
820.07	229.07
820.39	229.08
820.71	229.09
821.03	229.10
821.34	229.06
821.66	229.07
821.98	229.09
822.30	229.11
822.61	229.18
822.93	229.15
823.25	229.13
823.57	229.12
823.88	229.12
824.20	229.11
824.52	229.11
824.83	229.14
825.15	229.11
825.47	229.06
825.79	229.06
826.10	229.06
826.42	229.09
826.74	229.08
827.05	229.07
827.37	229.07
827.69	229.07
828.00	229.09
828.32	229.07
828.64	229.03
828.95	229.07
829.27	229.01
829.58	228.97
829.90	228.99
830.22	229.00
830.53	228.96
830.85	228.93
831.17	228.89
831.48	228.86
831.80	228.87
832.11	228.87
832.43	228.86
832.75	228.86
833.06	228.89
833.38	228.86
833.69	228.85
834.01	228.84
834.32	228.81
834.64	228.76
834.96	228.74
835.27	228.71
835.59	228.66
835.90	228.61
836.22	228.60
836.53	228.54
836.85	228.50
837.16	228.58
837.48	228.58
837.79	228.63
838.11	228.65
838.42	228.63
838.74	228.63
839.05	228.62
839.37	228.60
839.68	228.53
840.00	228.52
840.31	228.53
840.63	228.50
840.94	228.49
841.26	228.49
841.57	228.46
841.88	228.46
842.20	228.46
842.51	228.43
842.83	228.44
843.14	228.55
843.46	228.51
843.77	228.45
844.08	228.44
844.40	228.38
844.71	228.37
845.03	228.34
845.34	228.34
845.65	228.30
845.97	228.28
846.28	228.26
846.60	228.28
846.91	228.20
847.22	228.20
847.54	228.23
847.85	228.25
848.16	228.24
848.48	228.25
848.79	228.25
849.10	228.27
849.42	228.26
849.73	228.14
850.04	228.16
850.36	228.12
850.67	228.11
850.98	228.08
851.30	228.03
851.61	227.99
851.92	227.97
852.23	228.03
852.55	228.03
852.86	228.03
853.17	227.97
853.49	228.02
853.80	228.04
854.11	228.02
854.42	228.03
854.74	228.04
855.05	228.02
855.36	227.98
855.67	227.99
855.99	227.97
856.30	228.09
856.61	228.08
856.92	228.08
857.23	228.07
857.55	228.09
857.86	228.12
858.17	228.18
858.48	228.15
858.79	228.13
859.11	228.13
859.42	228.13
859.73	228.15
860.04	228.13
860.35	228.10
860.66	228.07
860.98	228.06
861.29	228.06
861.60	228.06
861.91	228.08
862.22	228.03
862.53	228.03
862.84	227.92
863.16	227.94
863.47	227.92
863.78	227.93
864.09	227.96
864.40	227.96
864.71	227.93
865.02	227.94
865.33	227.92
865.64	227.90
865.95	227.90
866.27	227.98
866.58	227.96
866.89	227.96
867.20	227.99
867.51	227.95
867.82	227.97
868.13	228.02
868.44	227.98
868.75	228.04
869.06	228.07
869.37	228.09
869.68	228.09
869.99	228.12
870.30	228.12
870.61	228.11
870.92	228.09
871.23	228.08
871.54	228.09
871.85	228.13
872.16	228.16
872.47	228.14
872.78	228.06
873.09	228.07
873.40	228.05
873.71	228.04
874.02	228.05
874.33	228.00
874.64	227.95
874.95	227.98
875.26	227.93
875.56	227.92
875.87	227.87
876.18	227.86
876.49	227.94
876.80	227.90
877.11	227.86
877.42	227.86
877.73	227.90
878.04	227.90
878.35	227.87
878.66	227.84
878.96	227.86
879.27	227.86
879.58	227.88
879.89	227.87
880.20	227.88
880.51	227.87
880.82	227.89
881.12	227.89
881.43	227.88
881.74	227.85
882.05	227.84
882.36	227.85
882.67	227.84
882.97	227.72
883.28	227.75
883.59	227.74
883.90	227.71
884.21	227.67
884.51	227.65
884.82	227.62
885.13	227.61
885.44	227.60
885.74	227.60
886.05	227.56
886.36	227.58
886.67	227.54
886.98	227.58
887.28	227.58
887.59	227.61
887.90	227.60
888.20	227.61
888.51	227.60
888.82	227.61
889.13	227.63
889.43	227.68
889.74	227.67
890.05	227.68
890.35	227.68
890.66	227.70
890.97	227.70
891.28	227.71
891.58	227.71
891.89	227.74
892.20	227.75
892.50	227.76
892.81	227.75
893.12	227.77
893.42	227.71
893.73	227.71
894.04	227.68
894.34	227.72
894.65	227.73
894.95	227.72
895.26	227.68
895.57	227.71
895.87	227.65
896.18	227.66
896.48	227.70
896.79	227.71
897.10	227.72
897.40	227.73
897.71	227.73
898.01	227.71
898.32	227.73
898.63	227.71
898.93	227.72
899.24	227.70
899.54	227.67
899.85	227.70
900.15	227.71
900.46	227.70
900.76	227.67
901.07	227.66
901.38	227.66
901.68	227.67
901.99	227.62
902.29	227.63
902.60	227.62
902.90	227.58
903.21	227.61
903.51	227.57
903.82	227.60
904.12	227.63
904.43	227.64
904.73	227.57
905.03	227.57
905.34	227.66
905.64	227.68
905.95	227.66
906.25	227.66
906.56	227.64
906.86	227.66
907.17	227.68
907.47	227.66
907.77	227.67
908.08	227.67
908.38	227.65
908.69	227.66
908.99	227.66
909.30	227.69
909.60	227.67
909.90	227.68
910.21	227.61
910.51	227.57
910.81	227.58
911.12	227.62
911.42	227.63
911.73	227.52
912.03	227.52
912.33	227.58
912.64	227.61
912.94	227.61
913.24	227.58
913.55	227.58
913.85	227.59
914.15	227.61
914.46	227.62
914.76	227.64
915.06	227.65
915.37	227.66
915.67	227.63
915.97	227.63
916.27	227.62
916.58	227.63
916.88	227.65
917.18	227.66
917.49	227.72
917.79	227.71
918.09	227.72
918.39	227.73
918.70	227.70
919.00	227.65
919.30	227.68
919.60	227.68
919.91	227.66
920.21	227.67
920.51	227.64
920.81	227.64
921.12	227.69
921.42	227.66
921.72	227.65
922.02	227.68
922.32	227.68
922.63	227.65
922.93	227.69
923.23	227.69
923.53	227.68
923.83	227.59
924.13	227.57
924.44	227.57
924.74	227.60
925.04	227.63
925.34	227.65
925.64	227.60
925.94	227.64
926.24	227.70
926.55	227.68
926.85	227.73
927.15	227.74
927.45	227.73
927.75	227.74
928.05	227.76
928.35	227.70
928.65	227.74
928.95	227.79
929.26	227.76
929.56	227.77
929.86	227.74
930.16	227.73
930.46	227.76
930.76	227.77
931.06	227.69
931.36	227.65
931.66	227.66
931.96	227.66
932.26	227.65
932.56	227.57
932.86	227.59
933.16	227.57
933.46	227.58
933.76	227.53
934.06	227.56
934.36	227.59
934.66	227.61
934.96	227.55
935.26	227.53
935.56	227.54
935.86	227.54
936.16	227.53
936.46	227.54
936.76	227.55
937.06	227.52
937.36	227.54
937.66	227.56
937.96	227.55
938.26	227.56
938.56	227.55
938.86	227.55
939.16	227.55
939.46	227.54
939.76	227.51
940.06	227.52
940.35	227.47
940.65	227.43
940.95	227.46
941.25	227.48
941.55	227.49
941.85	227.45
942.15	227.47
942.45	227.52
942.75	227.49
943.04	227.47
943.34	227.54
943.64	227.55
943.94	227.54
944.24	227.56
944.54	227.55
944.84	227.57
945.13	227.56
945.43	227.54
945.73	227.55
946.03	227.55
946.33	227.55
946.62	227.58
946.92	227.57
947.22	227.57
947.52	227.57
947.82	227.56
948.11	227.60
948.41	227.56
948.71	227.53
949.01	227.56
949.31	227.58
949.60	227.52
949.90	227.55
950.20	227.55
950.50	227.54
950.79	227.50
951.09	227.54
951.39	227.54
951.69	227.52
951.98	227.53
952.28	227.54
952.58	227.56
952.87	227.56
953.17	227.57
953.47	227.54
953.76	227.53
954.06	227.50
954.36	227.46
954.66	227.48
954.95	227.50
955.25	227.51
955.55	227.51
955.84	227.50
956.14	227.50
956.44	227.50
956.73	227.48
957.03	227.50
957.32	227.47
957.62	227.49
957.92	227.52
958.21	227.52
958.51	227.65
958.81	227.63
959.10	227.59
959.40	227.59
959.69	227.62
959.99	227.64
960.29	227.67
960.58	227.68
960.88	227.69
961.17	227.67
961.47	227.68
961.76	227.67
962.06	227.71
962.36	227.70
962.65	227.70
962.95	227.73
963.24	227.72
963.54	227.70
963.83	227.72
964.13	227.72
964.42	227.72
964.72	227.60
965.01	227.62
965.31	227.65
965.60	227.65
965.90	227.68
966.19	227.64
966.49	227.66
966.78	227.67
967.08	227.66
967.37	227.66
967.67	227.62
967.96	227.66
968.26	227.65
968.55	227.63
968.85	227.63
969.14	227.61
969.43	227.61
969.73	227.62
970.02	227.57
970.32	227.59
970.61	227.56
970.91	227.53
971.20	227.49
971.49	227.48
971.79	227.50
972.08	227.44
972.38	227.47
972.67	227.46
972.96	227.45
973.26	227.45
973.55	227.46
973.85	227.45
974.14	227.44
974.43	227.42
974.73	227.42
975.02	227.37
975.31	227.36
975.61	227.38
975.90	227.34
976.19	227.35
976.49	227.32
976.78	227.34
977.07	227.35
977.37	227.36
977.66	227.34
977.95	227.31
978.24	227.32
978.54	227.30
978.83	227.28
979.12	227.29
979.42	227.28
979.71	227.28
980.00	227.30
980.29	227.25
980.59	227.22
980.88	227.22
981.17	227.23
981.46	227.21
981.76	227.17
982.05	227.22
982.34	227.22
982.63	227.24
982.93	227.20
983.22	227.21
983.51	227.22
983.80	227.24
984.09	227.26
984.39	227.25
984.68	227.22
984.97	227.23
985.26	227.22
985.55	227.23
985.85	227.23
986.14	227.24
986.43	227.25
986.72	227.25
987.01	227.25
987.30	227.28
987.59	227.29
987.89	227.30
988.18	227.25
988.47	227.26
988.76	227.26
989.05	227.25
989.34	227.28
989.63	227.28
989.92	227.26
990.22	227.23
990.51	227.22
990.80	227.25
991.09	227.27
991.38	227.29
991.67	227.25
991.96	227.24
992.25	227.25
992.54	227.24
992.83	227.26
993.12	227.25
993.41	227.28
993.70	227.37
993.99	227.41
994.28	227.44
994.58	227.46
994.87	227.42
995.16	227.42
995.45	227.37
995.74	227.34
996.03	227.34
996.32	227.35
996.61	227.39
996.90	227.38
997.19	227.37
997.48	227.33
997.77	227.34
998.06	227.37
998.34	227.38
998.63	227.38
998.92	227.40
999.21	227.42
999.50	227.40
999.79	227.31
1000.08	227.30
1000.37	227.28
1000.66	227.24
1000.95	227.29
1001.24	227.32
1001.53	227.33
1001.82	227.34
1002.11	227.33
1002.40	227.38
1002.68	227.40
1002.97	227.49
1003.26	227.42
1003.55	227.46
1003.84	227.48
1004.13	227.48
1004.42	227.46
1004.71	227.46
1004.99	227.44
1005.28	227.49
1005.57	227.50
1005.86	227.49
1006.15	227.48
1006.44	227.51
1006.72	227.55
1007.01	227.54
1007.30	227.52
1007.59	227.54
1007.88	227.58
1008.17	227.58
1008.45	227.53
1008.74	227.49
1009.03	227.43
1009.32	227.45
1009.60	227.43
1009.89	227.41
1010.18	227.36
1010.47	227.34
1010.76	227.35
1011.04	227.34
1011.33	227.37
1011.62	227.35
1011.91	227.39
1012.19	227.38
1012.48	227.39
1012.77	227.37
1013.05	227.41
1013.34	227.43
1013.63	227.45
1013.92	227.42
1014.20	227.43
1014.49	227.45
1014.78	227.46
1015.06	227.42
1015.35	227.43
1015.64	227.44
1015.92	227.45
1016.21	227.50
1016.50	227.51
1016.78	227.52
1017.07	227.55
1017.36	227.47
1017.64	227.46
1017.93	227.44
1018.22	227.46
1018.50	227.45
1018.79	227.43
1019.08	227.39
1019.36	227.41
1019.65	227.39
1019.93	227.40
1020.22	227.39
1020.51	227.44
1020.79	227.44
1021.08	227.78
1021.36	227.25
1021.65	227.17
1021.94	227.35
1022.22	227.85
1022.51	227.78
1022.79	227.47
1023.08	227.41
1023.36	228.60
1023.65	227.35
>>>>>End Processed Spectral Data<<<<<
