SpectraSuite Data File
++++++++++++++++++++++++++++++++++++
Date: Fri Feb 01 15:25:15 EST 2013
User: group
Dark Spectrum Present: No
Reference Spectrum Present: No
Number of Sampled Component Spectra: 1
Spectrometers: USB2E7196
Integration Time (usec): 35000 (USB2E7196)
Spectra Averaged: 100 (USB2E7196)
Boxcar Smoothing: 10 (USB2E7196)
Correct for Electrical Dark: No (USB2E7196)
Strobe/Lamp Enabled: No (USB2E7196)
Correct for Detector Non-linearity: No (USB2E7196)
Correct for Stray Light: No (USB2E7196)
Number of Pixels in Processed Spectrum: 2048
>>>>>Begin Processed Spectral Data<<<<<
339.09	0.00
339.48	215.03
339.86	216.11
340.24	218.30
340.63	219.36
341.01	221.80
341.39	221.86
341.78	223.81
342.16	224.41
342.54	225.14
342.93	213.43
343.31	224.21
343.69	224.74
344.07	225.23
344.46	225.61
344.84	225.97
345.22	226.21
345.60	226.47
345.99	226.63
346.37	226.77
346.75	226.86
347.13	226.92
347.52	226.96
347.90	227.03
348.28	227.07
348.66	227.11
349.05	227.11
349.43	227.16
349.81	227.18
350.19	227.20
350.57	227.24
350.96	227.35
351.34	227.47
351.72	227.56
352.10	227.66
352.48	227.73
352.87	227.78
353.25	227.86
353.63	227.89
354.01	227.95
354.39	228.03
354.77	228.14
355.15	228.24
355.54	228.32
355.92	228.39
356.30	228.45
356.68	228.58
357.06	228.65
357.44	228.70
357.82	228.78
358.20	228.85
358.58	228.93
358.97	228.98
359.35	229.02
359.73	229.14
360.11	229.16
360.49	229.28
360.87	229.35
361.25	229.40
361.63	229.49
362.01	229.55
362.39	229.54
362.77	229.58
363.15	229.59
363.53	229.62
363.91	229.65
364.29	229.64
364.67	229.56
365.05	229.58
365.43	229.60
365.81	229.62
366.19	229.67
366.57	229.70
366.95	229.66
367.33	229.64
367.71	229.58
368.09	229.63
368.47	229.56
368.85	229.52
369.23	229.48
369.61	229.43
369.99	229.44
370.37	229.44
370.75	229.43
371.13	229.36
371.51	229.32
371.89	229.27
372.27	229.23
372.65	229.18
373.03	229.13
373.41	229.05
373.78	228.97
374.16	228.85
374.54	228.75
374.92	228.68
375.30	228.59
375.68	228.51
376.06	228.41
376.44	228.33
376.82	228.27
377.19	228.19
377.57	228.12
377.95	228.04
378.33	227.95
378.71	227.84
379.09	227.81
379.47	227.72
379.84	227.62
380.22	227.57
380.60	227.48
380.98	227.40
381.36	227.33
381.73	227.26
382.11	227.20
382.49	227.14
382.87	227.07
383.25	227.05
383.62	227.09
384.00	227.03
384.38	226.98
384.76	226.95
385.13	226.93
385.51	226.87
385.89	226.77
386.27	226.72
386.64	226.66
387.02	226.60
387.40	226.57
387.78	226.57
388.15	226.52
388.53	226.52
388.91	226.47
389.29	226.44
389.66	226.41
390.04	226.39
390.42	226.38
390.79	226.37
391.17	226.32
391.55	226.19
391.92	226.16
392.30	226.19
392.68	226.19
393.05	226.22
393.43	226.24
393.81	226.26
394.18	226.24
394.56	226.28
394.94	226.34
395.31	226.34
395.69	226.41
396.06	226.44
396.44	226.49
396.82	226.57
397.19	226.67
397.57	226.74
397.95	226.84
398.32	226.87
398.70	226.97
399.07	227.05
399.45	227.16
399.82	227.25
400.20	227.33
400.58	227.41
400.95	227.43
401.33	227.55
401.70	227.74
402.08	227.86
402.45	227.97
402.83	228.09
403.20	228.23
403.58	228.28
403.95	228.43
404.33	228.54
404.71	228.67
405.08	228.87
405.46	228.98
405.83	229.13
406.21	229.32
406.58	229.50
406.96	229.70
407.33	229.86
407.70	230.06
408.08	230.35
408.45	230.55
408.83	230.83
409.20	231.05
409.58	231.22
409.95	231.49
410.33	231.75
410.70	231.97
411.08	232.24
411.45	232.59
411.82	232.90
412.20	233.25
412.57	233.69
412.95	233.96
413.32	234.39
413.69	234.76
414.07	235.20
414.44	235.62
414.82	236.08
415.19	236.62
415.56	237.14
415.94	237.69
416.31	238.32
416.68	238.92
417.06	239.63
417.43	240.33
417.81	241.10
418.18	241.90
418.55	242.80
418.93	243.71
419.30	244.59
419.67	245.55
420.04	246.51
420.42	247.49
420.79	248.69
421.16	249.85
421.54	251.06
421.91	252.24
422.28	253.50
422.66	254.83
423.03	256.16
423.40	257.50
423.77	258.90
424.15	260.33
424.52	261.83
424.89	263.43
425.26	264.96
425.64	266.39
426.01	267.96
426.38	269.60
426.75	271.27
427.13	273.01
427.50	274.79
427.87	276.66
428.24	278.53
428.61	280.22
428.99	282.16
429.36	284.29
429.73	286.35
430.10	288.38
430.47	290.46
430.85	292.57
431.22	294.80
431.59	297.22
431.96	299.44
432.33	301.93
432.70	304.28
433.08	307.07
433.45	309.78
433.82	312.39
434.19	315.28
434.56	318.07
434.93	320.73
435.30	323.36
435.68	326.21
436.05	329.01
436.42	331.81
436.79	334.29
437.16	336.95
437.53	339.84
437.90	342.66
438.27	345.39
438.64	348.21
439.01	350.82
439.38	353.04
439.75	355.21
440.13	357.70
440.50	360.09
440.87	361.97
441.24	363.89
441.61	366.05
441.98	367.52
442.35	369.35
442.72	371.20
443.09	372.94
443.46	373.98
443.83	374.56
444.20	375.09
444.57	375.95
444.94	376.19
445.31	376.53
445.68	376.87
446.05	376.91
446.42	376.56
446.79	376.13
447.16	375.67
447.53	375.38
447.90	374.24
448.27	373.02
448.64	371.43
449.01	370.23
449.37	368.24
449.74	366.34
450.11	364.08
450.48	361.60
450.85	359.15
451.22	357.03
451.59	355.03
451.96	353.09
452.33	350.51
452.70	348.21
453.07	345.35
453.43	342.49
453.80	339.77
454.17	337.07
454.54	334.54
454.91	331.82
455.28	329.10
455.65	326.57
456.02	324.15
456.38	321.99
456.75	319.35
457.12	317.11
457.49	314.91
457.86	312.73
458.23	310.89
458.59	308.82
458.96	306.71
459.33	304.84
459.70	302.99
460.07	301.49
460.43	299.77
460.80	298.14
461.17	296.68
461.54	295.22
461.91	293.80
462.27	292.33
462.64	291.05
463.01	289.75
463.38	288.47
463.74	287.12
464.11	286.00
464.48	284.99
464.85	283.90
465.21	283.01
465.58	282.09
465.95	280.98
466.32	280.08
466.68	279.18
467.05	278.32
467.42	277.44
467.78	276.46
468.15	275.59
468.52	274.92
468.88	274.05
469.25	273.24
469.62	272.62
469.98	271.96
470.35	271.34
470.72	270.70
471.08	270.03
471.45	269.49
471.82	268.90
472.18	268.26
472.55	267.79
472.92	267.23
473.28	266.74
473.65	266.29
474.02	265.81
474.38	265.44
474.75	265.10
475.11	264.71
475.48	264.44
475.85	264.15
476.21	263.90
476.58	263.73
476.94	263.59
477.31	263.38
477.67	263.21
478.04	263.08
478.41	263.00
478.77	263.05
479.14	262.98
479.50	262.99
479.87	263.09
480.23	263.15
480.60	263.22
480.96	263.33
481.33	263.52
481.69	263.73
482.06	263.88
482.42	264.05
482.79	264.32
483.15	264.65
483.52	265.06
483.88	265.43
484.25	265.80
484.61	266.23
484.98	266.70
485.34	267.26
485.71	267.86
486.07	268.47
486.44	269.00
486.80	269.68
487.17	270.38
487.53	271.19
487.90	272.01
488.26	272.94
488.62	273.89
488.99	274.89
489.35	275.88
489.72	277.02
490.08	278.20
490.44	279.39
490.81	280.73
491.17	282.08
491.54	283.54
491.90	285.07
492.26	286.70
492.63	288.42
492.99	290.23
493.36	292.09
493.72	294.14
494.08	296.26
494.45	298.55
494.81	300.91
495.17	303.31
495.54	305.90
495.90	308.58
496.26	311.43
496.63	314.38
496.99	317.51
497.35	320.75
497.72	324.17
498.08	327.74
498.44	331.40
498.80	335.30
499.17	339.30
499.53	343.43
499.89	347.85
500.26	352.39
500.62	357.04
500.98	362.00
501.34	367.10
501.71	372.46
502.07	377.83
502.43	383.53
502.79	389.40
503.16	395.50
503.52	401.85
503.88	408.27
504.24	414.88
504.60	421.79
504.97	428.97
505.33	436.31
505.69	443.98
506.05	451.73
506.41	459.69
506.78	467.93
507.14	476.48
507.50	485.17
507.86	494.19
508.22	503.45
508.59	512.66
508.95	522.27
509.31	532.06
509.67	542.22
510.03	552.48
510.39	563.04
510.75	573.88
511.12	584.77
511.48	595.95
511.84	607.47
512.20	619.01
512.56	630.97
512.92	643.12
513.28	655.47
513.64	668.01
514.00	680.69
514.37	693.58
514.73	706.61
515.09	719.62
515.45	732.85
515.81	746.44
516.17	760.46
516.53	774.52
516.89	788.71
517.25	802.89
517.61	817.35
517.97	831.86
518.33	846.28
518.69	861.11
519.05	876.27
519.41	891.44
519.77	907.00
520.13	922.47
520.49	937.92
520.85	953.40
521.21	969.17
521.57	985.46
521.93	1001.33
522.29	1017.70
522.65	1034.00
523.01	1050.38
523.37	1066.37
523.73	1082.55
524.09	1098.75
524.45	1115.18
524.81	1131.85
525.17	1148.67
525.53	1165.64
525.89	1182.57
526.25	1199.39
526.61	1215.73
526.97	1232.49
527.33	1249.02
527.68	1265.67
528.04	1282.09
528.40	1298.80
528.76	1315.84
529.12	1332.48
529.48	1349.44
529.84	1365.61
530.20	1382.28
530.56	1399.31
530.91	1416.73
531.27	1433.58
531.63	1450.05
531.99	1466.63
532.35	1482.66
532.71	1498.51
533.07	1514.70
533.42	1530.52
533.78	1546.66
534.14	1563.09
534.50	1578.52
534.86	1594.46
535.21	1609.70
535.57	1625.74
535.93	1641.06
536.29	1655.88
536.65	1671.06
537.00	1685.88
537.36	1701.22
537.72	1715.84
538.08	1730.19
538.44	1744.07
538.79	1758.02
539.15	1771.82
539.51	1785.68
539.87	1800.18
540.22	1813.98
540.58	1827.91
540.94	1841.41
541.29	1854.38
541.65	1866.98
542.01	1880.33
542.37	1892.77
542.72	1905.23
543.08	1917.18
543.44	1929.82
543.79	1941.19
544.15	1952.15
544.51	1963.69
544.87	1974.74
545.22	1985.54
545.58	1995.91
545.94	2005.73
546.29	2015.73
546.65	2025.65
547.01	2034.99
547.36	2043.67
547.72	2052.33
548.07	2060.25
548.43	2068.51
548.79	2076.64
549.14	2084.29
549.50	2091.59
549.86	2099.20
550.21	2106.52
550.57	2113.64
550.92	2120.19
551.28	2127.30
551.64	2134.51
551.99	2141.06
552.35	2147.19
552.70	2153.43
553.06	2159.50
553.41	2165.99
553.77	2172.01
554.13	2178.03
554.48	2184.04
554.84	2189.37
555.19	2194.76
555.55	2199.90
555.90	2204.34
556.26	2209.05
556.61	2213.84
556.97	2218.09
557.32	2222.32
557.68	2226.51
558.03	2230.86
558.39	2234.81
558.74	2239.43
559.10	2243.18
559.45	2246.99
559.81	2251.35
560.16	2254.99
560.52	2258.16
560.87	2261.56
561.23	2264.02
561.58	2267.02
561.94	2269.65
562.29	2272.24
562.64	2274.89
563.00	2277.36
563.35	2281.04
563.71	2284.11
564.06	2287.18
564.42	2290.04
564.77	2292.37
565.12	2294.47
565.48	2296.23
565.83	2297.83
566.19	2298.99
566.54	2299.95
566.89	2300.94
567.25	2301.40
567.60	2302.85
567.96	2304.38
568.31	2305.14
568.66	2306.30
569.02	2306.87
569.37	2306.99
569.72	2307.68
570.08	2307.60
570.43	2307.70
570.78	2306.78
571.14	2305.28
571.49	2303.93
571.84	2303.43
572.20	2302.25
572.55	2301.21
572.90	2299.71
573.26	2298.36
573.61	2296.64
573.96	2294.71
574.31	2291.56
574.67	2288.50
575.02	2284.81
575.37	2281.32
575.72	2277.38
576.08	2274.01
576.43	2270.60
576.78	2266.95
577.13	2263.74
577.49	2260.67
577.84	2257.02
578.19	2253.24
578.54	2249.53
578.90	2245.26
579.25	2239.70
579.60	2234.76
579.95	2229.65
580.30	2224.44
580.66	2219.14
581.01	2214.23
581.36	2209.20
581.71	2204.94
582.06	2200.33
582.42	2195.72
582.77	2190.53
583.12	2185.80
583.47	2180.90
583.82	2175.66
584.17	2170.20
584.53	2164.54
584.88	2158.83
585.23	2152.98
585.58	2147.46
585.93	2141.97
586.28	2137.09
586.63	2131.84
586.98	2126.61
587.34	2121.94
587.69	2117.01
588.04	2111.64
588.39	2105.81
588.74	2099.37
589.09	2093.27
589.44	2086.50
589.79	2080.40
590.14	2074.62
590.49	2068.05
590.84	2061.64
591.19	2055.58
591.54	2049.19
591.89	2041.75
592.25	2034.86
592.60	2027.60
592.95	2019.97
593.30	2012.61
593.65	2005.01
594.00	1998.13
594.35	1990.84
594.70	1982.79
595.05	1975.54
595.40	1968.33
595.75	1960.71
596.10	1954.38
596.45	1947.47
596.80	1941.23
597.15	1934.44
597.50	1927.24
597.85	1920.84
598.19	1914.12
598.54	1906.97
598.89	1900.32
599.24	1894.37
599.59	1887.45
599.94	1881.19
600.29	1874.87
600.64	1868.18
600.99	1860.68
601.34	1853.71
601.69	1846.81
602.04	1839.84
602.39	1832.46
602.74	1825.50
603.08	1818.85
603.43	1812.13
603.78	1804.85
604.13	1797.63
604.48	1790.40
604.83	1783.63
605.18	1776.52
605.53	1768.61
605.87	1760.61
606.22	1753.35
606.57	1745.42
606.92	1738.21
607.27	1731.00
607.62	1724.05
607.96	1716.64
608.31	1709.88
608.66	1702.12
609.01	1694.41
609.36	1686.85
609.70	1678.82
610.05	1670.70
610.40	1662.91
610.75	1654.57
611.10	1646.95
611.44	1638.51
611.79	1630.58
612.14	1621.85
612.49	1612.61
612.83	1604.17
613.18	1596.09
613.53	1587.89
613.88	1579.34
614.22	1571.10
614.57	1562.49
614.92	1554.35
615.27	1546.76
615.61	1538.44
615.96	1530.52
616.31	1522.91
616.65	1515.47
617.00	1507.84
617.35	1500.19
617.70	1491.78
618.04	1483.20
618.39	1474.98
618.74	1467.44
619.08	1459.03
619.43	1451.50
619.78	1444.71
620.12	1437.48
620.47	1429.82
620.82	1421.63
621.16	1414.26
621.51	1406.68
621.85	1399.10
622.20	1390.62
622.55	1382.37
622.89	1374.50
623.24	1366.98
623.59	1359.60
623.93	1352.07
624.28	1344.87
624.62	1337.38
624.97	1330.22
625.32	1323.52
625.66	1316.55
626.01	1309.23
626.35	1301.69
626.70	1293.91
627.04	1286.22
627.39	1278.45
627.73	1270.98
628.08	1264.09
628.43	1256.71
628.77	1249.17
629.12	1241.56
629.46	1234.30
629.81	1226.90
630.15	1219.73
630.50	1212.24
630.84	1204.06
631.19	1196.12
631.53	1188.54
631.88	1180.94
632.22	1173.41
632.57	1166.19
632.91	1158.59
633.26	1151.21
633.60	1143.97
633.95	1136.95
634.29	1129.86
634.64	1123.18
634.98	1115.98
635.32	1108.82
635.67	1102.33
636.01	1095.82
636.36	1089.08
636.70	1082.62
637.05	1076.05
637.39	1069.70
637.73	1063.22
638.08	1057.41
638.42	1051.55
638.77	1045.18
639.11	1038.59
639.45	1032.14
639.80	1025.37
640.14	1018.93
640.49	1012.44
640.83	1006.19
641.17	999.93
641.52	993.62
641.86	987.25
642.20	981.44
642.55	975.21
642.89	968.66
643.23	962.12
643.58	956.32
643.92	950.17
644.26	944.10
644.61	938.03
644.95	932.06
645.29	925.45
645.64	918.59
645.98	912.31
646.32	906.49
646.66	900.52
647.01	894.71
647.35	889.00
647.69	883.16
648.04	877.63
648.38	871.82
648.72	865.82
649.06	859.75
649.41	853.78
649.75	847.74
650.09	841.85
650.43	836.01
650.78	829.85
651.12	823.84
651.46	818.13
651.80	812.34
652.14	806.82
652.49	801.42
652.83	796.24
653.17	790.52
653.51	784.77
653.85	779.32
654.20	773.66
654.54	767.67
654.88	761.97
655.22	756.08
655.56	750.30
655.90	744.85
656.25	739.51
656.59	734.26
656.93	729.20
657.27	724.00
657.61	718.59
657.95	713.46
658.29	708.42
658.64	703.17
658.98	697.89
659.32	692.43
659.66	687.21
660.00	681.96
660.34	677.03
660.68	672.20
661.02	667.20
661.36	662.55
661.70	658.04
662.05	653.75
662.39	649.42
662.73	645.06
663.07	640.65
663.41	636.24
663.75	631.62
664.09	627.02
664.43	622.60
664.77	618.46
665.11	614.27
665.45	610.14
665.79	606.05
666.13	601.93
666.47	597.86
666.81	593.61
667.15	589.41
667.49	585.46
667.83	581.63
668.17	577.66
668.51	573.58
668.85	569.53
669.19	565.61
669.53	561.70
669.87	557.81
670.21	554.13
670.55	550.49
670.89	547.15
671.23	543.80
671.57	540.38
671.91	536.89
672.25	533.41
672.58	529.88
672.92	526.50
673.26	523.35
673.60	520.18
673.94	517.13
674.28	514.29
674.62	511.39
674.96	508.24
675.30	505.34
675.64	502.37
675.97	499.67
676.31	496.82
676.65	493.95
676.99	491.25
677.33	488.38
677.67	485.58
678.01	482.50
678.34	479.50
678.68	476.64
679.02	473.76
679.36	471.01
679.70	468.29
680.04	465.55
680.37	462.72
680.71	460.03
681.05	457.48
681.39	454.75
681.73	452.09
682.06	449.59
682.40	447.09
682.74	444.61
683.08	442.07
683.42	439.46
683.75	437.00
684.09	434.46
684.43	432.01
684.77	429.57
685.10	427.26
685.44	424.97
685.78	422.65
686.12	420.46
686.45	418.19
686.79	415.97
687.13	413.83
687.46	411.69
687.80	409.50
688.14	407.32
688.48	405.32
688.81	403.11
689.15	400.98
689.49	398.76
689.82	396.69
690.16	394.60
690.50	392.64
690.83	390.72
691.17	388.73
691.51	386.87
691.84	385.03
692.18	383.11
692.52	381.11
692.85	379.25
693.19	377.38
693.52	375.53
693.86	373.68
694.20	371.87
694.53	370.00
694.87	368.16
695.21	366.34
695.54	364.51
695.88	362.79
696.21	361.08
696.55	359.46
696.88	357.78
697.22	356.12
697.56	354.53
697.89	352.84
698.23	351.31
698.56	349.66
698.90	348.08
699.23	346.43
699.57	344.90
699.90	343.32
700.24	341.77
700.58	340.27
700.91	338.78
701.25	337.34
701.58	336.01
701.92	334.67
702.25	333.31
702.59	331.93
702.92	330.63
703.26	329.32
703.59	328.05
703.93	326.88
704.26	325.69
704.60	324.39
704.93	323.17
705.26	321.90
705.60	320.75
705.93	319.62
706.27	318.62
706.60	317.55
706.94	316.47
707.27	315.34
707.61	314.30
707.94	313.25
708.27	312.12
708.61	311.02
708.94	310.01
709.28	309.04
709.61	308.08
709.94	307.09
710.28	306.06
710.61	305.08
710.95	304.02
711.28	303.06
711.61	302.09
711.95	301.13
712.28	300.19
712.61	299.19
712.95	298.28
713.28	297.39
713.61	296.52
713.95	295.59
714.28	294.75
714.61	293.84
714.95	292.99
715.28	292.14
715.61	291.28
715.95	290.42
716.28	289.56
716.61	288.73
716.95	287.93
717.28	287.22
717.61	286.44
717.94	285.68
718.28	284.86
718.61	284.17
718.94	283.49
719.27	282.83
719.61	282.19
719.94	281.49
720.27	280.75
720.60	280.03
720.94	279.42
721.27	278.86
721.60	278.27
721.93	277.70
722.27	277.19
722.60	276.61
722.93	276.04
723.26	275.49
723.59	274.94
723.93	274.39
724.26	273.87
724.59	273.35
724.92	272.83
725.25	272.33
725.59	271.83
725.92	271.32
726.25	270.82
726.58	270.36
726.91	269.87
727.24	269.46
727.57	269.01
727.91	268.55
728.24	268.06
728.57	267.59
728.90	267.17
729.23	266.67
729.56	266.26
729.89	265.80
730.22	265.30
730.55	264.84
730.89	264.39
731.22	263.90
731.55	263.43
731.88	262.99
732.21	262.57
732.54	262.14
732.87	261.71
733.20	261.31
733.53	260.90
733.86	260.56
734.19	260.15
734.52	259.76
734.85	259.44
735.18	259.03
735.51	258.63
735.84	258.25
736.17	257.88
736.50	257.50
736.83	257.30
737.16	256.98
737.49	256.68
737.82	256.34
738.15	256.03
738.48	255.72
738.81	255.39
739.14	255.08
739.47	254.76
739.80	254.43
740.13	254.12
740.46	253.77
740.79	253.40
741.12	253.04
741.45	252.74
741.78	252.40
742.11	252.12
742.44	251.81
742.77	251.49
743.10	251.21
743.43	250.90
743.75	250.50
744.08	250.36
744.41	250.06
744.74	249.78
745.07	249.46
745.40	249.21
745.73	248.98
746.06	248.68
746.39	248.42
746.71	248.17
747.04	247.85
747.37	247.56
747.70	247.33
748.03	247.06
748.36	246.81
748.68	246.55
749.01	246.31
749.34	246.07
749.67	245.84
750.00	245.59
750.33	245.42
750.65	245.19
750.98	244.83
751.31	244.59
751.64	244.42
751.97	244.29
752.29	244.04
752.62	243.80
752.95	243.59
753.28	243.36
753.60	243.14
753.93	243.00
754.26	242.83
754.59	242.60
754.91	242.45
755.24	242.28
755.57	242.09
755.90	241.93
756.22	241.72
756.55	241.54
756.88	241.36
757.20	241.15
757.53	240.95
757.86	240.81
758.19	240.66
758.51	240.46
758.84	240.27
759.17	240.09
759.49	239.96
759.82	239.85
760.15	239.70
760.47	239.56
760.80	239.39
761.13	239.25
761.45	239.11
761.78	238.96
762.11	238.81
762.43	238.69
762.76	238.54
763.08	238.45
763.41	238.28
763.74	238.16
764.06	238.03
764.39	237.92
764.71	237.76
765.04	237.62
765.37	237.53
765.69	237.38
766.02	237.30
766.34	237.16
766.67	236.99
767.00	236.92
767.32	236.88
767.65	236.84
767.97	236.74
768.30	236.60
768.62	236.50
768.95	236.41
769.27	236.30
769.60	236.16
769.92	236.01
770.25	235.93
770.57	235.82
770.90	235.69
771.22	235.58
771.55	235.49
771.87	235.43
772.20	235.30
772.52	235.29
772.85	235.28
773.17	235.21
773.50	235.12
773.82	235.00
774.15	234.88
774.47	234.75
774.80	234.68
775.12	234.60
775.45	234.50
775.77	234.42
776.09	234.32
776.42	234.25
776.74	234.24
777.07	234.16
777.39	234.07
777.72	233.99
778.04	233.94
778.36	233.85
778.69	233.77
779.01	233.71
779.33	233.56
779.66	233.38
779.98	233.30
780.31	233.23
780.63	233.20
780.95	233.12
781.28	233.03
781.60	232.90
781.92	232.85
782.25	232.80
782.57	232.71
782.89	232.68
783.22	232.61
783.54	232.50
783.86	232.45
784.19	232.40
784.51	232.37
784.83	232.28
785.16	232.24
785.48	232.18
785.80	232.15
786.12	232.09
786.45	232.04
786.77	231.98
787.09	231.99
787.42	231.89
787.74	231.83
788.06	231.82
788.38	231.80
788.71	231.74
789.03	231.70
789.35	231.68
789.67	231.59
789.99	231.59
790.32	231.56
790.64	231.54
790.96	231.57
791.28	231.49
791.61	231.45
791.93	231.39
792.25	231.34
792.57	231.33
792.89	231.26
793.21	231.25
793.54	231.20
793.86	231.13
794.18	231.09
794.50	231.04
794.82	230.98
795.14	230.96
795.47	230.94
795.79	230.88
796.11	230.83
796.43	230.82
796.75	230.74
797.07	230.71
797.39	230.64
797.71	230.57
798.04	230.54
798.36	230.54
798.68	230.52
799.00	230.52
799.32	230.46
799.64	230.49
799.96	230.45
800.28	230.43
800.60	230.38
800.92	230.39
801.24	230.37
801.56	230.35
801.89	230.30
802.21	230.30
802.53	230.27
802.85	230.25
803.17	230.25
803.49	230.21
803.81	230.16
804.13	230.13
804.45	230.07
804.77	230.08
805.09	230.05
805.41	230.02
805.73	229.98
806.05	229.93
806.37	229.88
806.69	229.82
807.01	229.77
807.33	229.79
807.65	229.71
807.97	229.73
808.28	229.70
808.60	229.70
808.92	229.65
809.24	229.68
809.56	229.65
809.88	229.60
810.20	229.59
810.52	229.61
810.84	229.57
811.16	229.53
811.48	229.48
811.80	229.49
812.12	229.45
812.43	229.44
812.75	229.41
813.07	229.41
813.39	229.43
813.71	229.43
814.03	229.37
814.35	229.34
814.67	229.26
814.98	229.23
815.30	229.21
815.62	229.17
815.94	229.10
816.26	229.09
816.58	229.06
816.89	229.05
817.21	228.97
817.53	228.98
817.85	228.97
818.17	228.95
818.48	228.87
818.80	228.89
819.12	228.83
819.44	228.78
819.76	228.73
820.07	228.69
820.39	228.67
820.71	228.68
821.03	228.68
821.34	228.68
821.66	228.70
821.98	228.69
822.30	228.68
822.61	228.70
822.93	228.66
823.25	228.67
823.57	228.65
823.88	228.67
824.20	228.64
824.52	228.64
824.83	228.63
825.15	228.62
825.47	228.61
825.79	228.64
826.10	228.62
826.42	228.60
826.74	228.59
827.05	228.58
827.37	228.54
827.69	228.49
828.00	228.48
828.32	228.45
828.64	228.43
828.95	228.44
829.27	228.45
829.58	228.43
829.90	228.44
830.22	228.43
830.53	228.41
830.85	228.40
831.17	228.38
831.48	228.33
831.80	228.34
832.11	228.31
832.43	228.28
832.75	228.31
833.06	228.36
833.38	228.33
833.69	228.31
834.01	228.35
834.32	228.37
834.64	228.35
834.96	228.30
835.27	228.28
835.59	228.26
835.90	228.22
836.22	228.25
836.53	228.23
836.85	228.22
837.16	228.30
837.48	228.30
837.79	228.33
838.11	228.37
838.42	228.35
838.74	228.36
839.05	228.35
839.37	228.34
839.68	228.27
840.00	228.28
840.31	228.27
840.63	228.22
840.94	228.20
841.26	228.20
841.57	228.22
841.88	228.25
842.20	228.20
842.51	228.17
842.83	228.12
843.14	228.20
843.46	228.22
843.77	228.13
844.08	228.10
844.40	228.02
844.71	227.96
845.03	227.94
845.34	227.94
845.65	227.95
845.97	227.92
846.28	227.96
846.60	227.91
846.91	227.88
847.22	227.86
847.54	227.87
847.85	227.87
848.16	227.83
848.48	227.76
848.79	227.82
849.10	227.82
849.42	227.82
849.73	227.70
850.04	227.64
850.36	227.60
850.67	227.62
850.98	227.62
851.30	227.66
851.61	227.64
851.92	227.62
852.23	227.61
852.55	227.61
852.86	227.54
853.17	227.57
853.49	227.60
853.80	227.60
854.11	227.61
854.42	227.58
854.74	227.56
855.05	227.55
855.36	227.47
855.67	227.48
855.99	227.45
856.30	227.57
856.61	227.55
856.92	227.53
857.23	227.53
857.55	227.52
857.86	227.50
858.17	227.53
858.48	227.51
858.79	227.47
859.11	227.46
859.42	227.51
859.73	227.49
860.04	227.47
860.35	227.46
860.66	227.44
860.98	227.48
861.29	227.48
861.60	227.50
861.91	227.54
862.22	227.52
862.53	227.52
862.84	227.41
863.16	227.41
863.47	227.43
863.78	227.42
864.09	227.44
864.40	227.46
864.71	227.46
865.02	227.47
865.33	227.49
865.64	227.46
865.95	227.45
866.27	227.54
866.58	227.50
866.89	227.54
867.20	227.51
867.51	227.48
867.82	227.51
868.13	227.52
868.44	227.51
868.75	227.54
869.06	227.53
869.37	227.55
869.68	227.58
869.99	227.58
870.30	227.60
870.61	227.61
870.92	227.59
871.23	227.54
871.54	227.56
871.85	227.58
872.16	227.62
872.47	227.59
872.78	227.53
873.09	227.59
873.40	227.56
873.71	227.58
874.02	227.61
874.33	227.61
874.64	227.60
874.95	227.63
875.26	227.61
875.56	227.61
875.87	227.62
876.18	227.60
876.49	227.70
876.80	227.68
877.11	227.68
877.42	227.69
877.73	227.71
878.04	227.69
878.35	227.67
878.66	227.65
878.96	227.67
879.27	227.68
879.58	227.65
879.89	227.62
880.20	227.61
880.51	227.57
880.82	227.55
881.12	227.55
881.43	227.50
881.74	227.49
882.05	227.50
882.36	227.48
882.67	227.49
882.97	227.40
883.28	227.41
883.59	227.37
883.90	227.37
884.21	227.39
884.51	227.36
884.82	227.36
885.13	227.36
885.44	227.34
885.74	227.29
886.05	227.28
886.36	227.32
886.67	227.29
886.98	227.32
887.28	227.34
887.59	227.31
887.90	227.29
888.20	227.29
888.51	227.30
888.82	227.27
889.13	227.29
889.43	227.35
889.74	227.31
890.05	227.34
890.35	227.34
890.66	227.30
890.97	227.27
891.28	227.29
891.58	227.28
891.89	227.25
892.20	227.24
892.50	227.24
892.81	227.22
893.12	227.21
893.42	227.17
893.73	227.19
894.04	227.20
894.34	227.20
894.65	227.17
894.95	227.13
895.26	227.15
895.57	227.15
895.87	227.04
896.18	227.09
896.48	227.10
896.79	227.06
897.10	227.09
897.40	227.14
897.71	227.13
898.01	227.14
898.32	227.17
898.63	227.20
898.93	227.19
899.24	227.20
899.54	227.18
899.85	227.19
900.15	227.15
900.46	227.15
900.76	227.18
901.07	227.19
901.38	227.19
901.68	227.22
901.99	227.19
902.29	227.20
902.60	227.19
902.90	227.17
903.21	227.19
903.51	227.18
903.82	227.23
904.12	227.24
904.43	227.25
904.73	227.25
905.03	227.23
905.34	227.35
905.64	227.33
905.95	227.39
906.25	227.41
906.56	227.42
906.86	227.42
907.17	227.42
907.47	227.46
907.77	227.48
908.08	227.46
908.38	227.47
908.69	227.50
908.99	227.53
909.30	227.56
909.60	227.56
909.90	227.57
910.21	227.50
910.51	227.47
910.81	227.46
911.12	227.50
911.42	227.51
911.73	227.41
912.03	227.40
912.33	227.42
912.64	227.40
912.94	227.40
913.24	227.37
913.55	227.37
913.85	227.33
914.15	227.36
914.46	227.38
914.76	227.36
915.06	227.35
915.37	227.29
915.67	227.28
915.97	227.27
916.27	227.24
916.58	227.27
916.88	227.26
917.18	227.24
917.49	227.30
917.79	227.30
918.09	227.32
918.39	227.37
918.70	227.33
919.00	227.34
919.30	227.37
919.60	227.38
919.91	227.34
920.21	227.34
920.51	227.27
920.81	227.23
921.12	227.26
921.42	227.27
921.72	227.30
922.02	227.26
922.32	227.25
922.63	227.24
922.93	227.30
923.23	227.32
923.53	227.30
923.83	227.23
924.13	227.19
924.44	227.16
924.74	227.14
925.04	227.17
925.34	227.13
925.64	227.12
925.94	227.12
926.24	227.21
926.55	227.20
926.85	227.24
927.15	227.24
927.45	227.22
927.75	227.17
928.05	227.17
928.35	227.16
928.65	227.19
928.95	227.21
929.26	227.16
929.56	227.19
929.86	227.20
930.16	227.17
930.46	227.20
930.76	227.21
931.06	227.17
931.36	227.14
931.66	227.17
931.96	227.14
932.26	227.13
932.56	227.09
932.86	227.10
933.16	227.13
933.46	227.11
933.76	227.10
934.06	227.17
934.36	227.21
934.66	227.20
934.96	227.17
935.26	227.16
935.56	227.18
935.86	227.14
936.16	227.11
936.46	227.11
936.76	227.08
937.06	227.06
937.36	227.10
937.66	227.14
937.96	227.13
938.26	227.14
938.56	227.15
938.86	227.14
939.16	227.16
939.46	227.17
939.76	227.18
940.06	227.20
940.35	227.18
940.65	227.13
940.95	227.16
941.25	227.18
941.55	227.19
941.85	227.19
942.15	227.21
942.45	227.25
942.75	227.25
943.04	227.27
943.34	227.32
943.64	227.30
943.94	227.22
944.24	227.26
944.54	227.22
944.84	227.20
945.13	227.19
945.43	227.19
945.73	227.15
946.03	227.14
946.33	227.12
946.62	227.09
946.92	227.08
947.22	227.08
947.52	227.10
947.82	227.11
948.11	227.08
948.41	227.06
948.71	227.03
949.01	227.04
949.31	227.03
949.60	227.00
949.90	227.00
950.20	227.03
950.50	227.00
950.79	227.00
951.09	227.04
951.39	227.01
951.69	226.99
951.98	226.97
952.28	227.01
952.58	227.01
952.87	227.01
953.17	227.01
953.47	227.00
953.76	226.96
954.06	226.92
954.36	226.89
954.66	226.89
954.95	226.94
955.25	226.92
955.55	226.91
955.84	226.92
956.14	226.94
956.44	226.98
956.73	226.95
957.03	227.00
957.32	227.00
957.62	227.00
957.92	227.02
958.21	227.03
958.51	227.12
958.81	227.10
959.10	227.10
959.40	227.11
959.69	227.13
959.99	227.15
960.29	227.15
960.58	227.16
960.88	227.20
961.17	227.18
961.47	227.21
961.76	227.21
962.06	227.19
962.36	227.18
962.65	227.16
962.95	227.22
963.24	227.20
963.54	227.17
963.83	227.22
964.13	227.23
964.42	227.21
964.72	227.12
965.01	227.14
965.31	227.13
965.60	227.14
965.90	227.17
966.19	227.15
966.49	227.17
966.78	227.16
967.08	227.15
967.37	227.16
967.67	227.11
967.96	227.12
968.26	227.14
968.55	227.16
968.85	227.16
969.14	227.14
969.43	227.11
969.73	227.15
970.02	227.13
970.32	227.10
970.61	227.10
970.91	227.09
971.20	227.09
971.49	227.13
971.79	227.13
972.08	227.07
972.38	227.11
972.67	227.13
972.96	227.16
973.26	227.12
973.55	227.16
973.85	227.18
974.14	227.18
974.43	227.18
974.73	227.18
975.02	227.16
975.31	227.16
975.61	227.19
975.90	227.16
976.19	227.13
976.49	227.15
976.78	227.17
977.07	227.17
977.37	227.17
977.66	227.17
977.95	227.17
978.24	227.20
978.54	227.24
978.83	227.23
979.12	227.25
979.42	227.27
979.71	227.23
980.00	227.23
980.29	227.23
980.59	227.19
980.88	227.18
981.17	227.21
981.46	227.18
981.76	227.15
982.05	227.18
982.34	227.19
982.63	227.20
982.93	227.19
983.22	227.23
983.51	227.20
983.80	227.20
984.09	227.21
984.39	227.19
984.68	227.16
984.97	227.14
985.26	227.10
985.55	227.12
985.85	227.10
986.14	227.13
986.43	227.13
986.72	227.12
987.01	227.12
987.30	227.09
987.59	227.11
987.89	227.14
988.18	227.07
988.47	227.09
988.76	227.10
989.05	227.05
989.34	226.99
989.63	227.05
989.92	227.02
990.22	226.99
990.51	226.94
990.80	226.93
991.09	226.94
991.38	226.93
991.67	226.93
991.96	226.92
992.25	226.91
992.54	226.90
992.83	226.90
993.12	226.87
993.41	226.89
993.70	226.91
993.99	226.93
994.28	226.97
994.58	226.97
994.87	226.94
995.16	226.95
995.45	226.94
995.74	226.87
996.03	226.92
996.32	226.93
996.61	226.97
996.90	226.96
997.19	226.95
997.48	226.95
997.77	226.90
998.06	226.90
998.34	226.86
998.63	226.86
998.92	226.89
999.21	226.95
999.50	226.95
999.79	226.92
1000.08	226.88
1000.37	226.87
1000.66	226.88
1000.95	226.90
1001.24	226.91
1001.53	226.94
1001.82	226.97
1002.11	226.95
1002.40	226.96
1002.68	227.00
1002.97	227.05
1003.26	227.05
1003.55	227.08
1003.84	227.11
1004.13	227.16
1004.42	227.19
1004.71	227.22
1004.99	227.19
1005.28	227.21
1005.57	227.23
1005.86	227.24
1006.15	227.24
1006.44	227.24
1006.72	227.22
1007.01	227.20
1007.30	227.23
1007.59	227.22
1007.88	227.20
1008.17	227.19
1008.45	227.20
1008.74	227.13
1009.03	227.10
1009.32	227.09
1009.60	227.05
1009.89	227.02
1010.18	226.97
1010.47	226.97
1010.76	226.94
1011.04	226.95
1011.33	226.90
1011.62	226.88
1011.91	226.89
1012.19	226.90
1012.48	226.91
1012.77	226.92
1013.05	226.98
1013.34	226.96
1013.63	226.96
1013.92	227.01
1014.20	227.03
1014.49	226.99
1014.78	227.05
1015.06	227.02
1015.35	227.02
1015.64	227.06
1015.92	227.08
1016.21	227.09
1016.50	227.09
1016.78	227.12
1017.07	227.13
1017.36	227.13
1017.64	227.12
1017.93	227.15
1018.22	227.14
1018.50	227.12
1018.79	227.10
1019.08	227.05
1019.36	227.06
1019.65	227.06
1019.93	227.04
1020.22	227.07
1020.51	227.13
1020.79	227.08
1021.08	227.01
1021.36	226.49
1021.65	226.98
1021.94	226.84
1022.22	227.06
1022.51	226.92
1022.79	227.16
1023.08	227.73
1023.36	228.16
1023.65	226.72
>>>>>End Processed Spectral Data<<<<<
