SpectraSuite Data File
++++++++++++++++++++++++++++++++++++
Date: Fri Feb 01 15:36:14 EST 2013
User: group
Dark Spectrum Present: No
Reference Spectrum Present: No
Number of Sampled Component Spectra: 1
Spectrometers: USB2E7196
Integration Time (usec): 35000 (USB2E7196)
Spectra Averaged: 100 (USB2E7196)
Boxcar Smoothing: 10 (USB2E7196)
Correct for Electrical Dark: No (USB2E7196)
Strobe/Lamp Enabled: No (USB2E7196)
Correct for Detector Non-linearity: No (USB2E7196)
Correct for Stray Light: No (USB2E7196)
Number of Pixels in Processed Spectrum: 2048
>>>>>Begin Processed Spectral Data<<<<<
339.09	0.00
339.48	215.01
339.86	216.71
340.24	217.32
340.63	219.18
341.01	221.90
341.39	221.50
341.78	222.96
342.16	224.19
342.54	224.99
342.93	213.19
343.31	223.99
343.69	224.53
344.07	224.98
344.46	225.42
344.84	225.77
345.22	226.02
345.60	226.27
345.99	226.48
346.37	226.63
346.75	226.75
347.13	226.86
347.52	226.93
347.90	227.02
348.28	227.04
348.66	227.15
349.05	227.14
349.43	227.21
349.81	227.28
350.19	227.34
350.57	227.41
350.96	227.47
351.34	227.56
351.72	227.65
352.10	227.78
352.48	227.89
352.87	227.96
353.25	228.02
353.63	228.09
354.01	228.16
354.39	228.23
354.77	228.30
355.15	228.38
355.54	228.41
355.92	228.49
356.30	228.53
356.68	228.68
357.06	228.78
357.44	228.80
357.82	228.88
358.20	228.93
358.58	228.97
358.97	229.02
359.35	229.06
359.73	229.11
360.11	229.11
360.49	229.16
360.87	229.23
361.25	229.32
361.63	229.42
362.01	229.45
362.39	229.48
362.77	229.54
363.15	229.58
363.53	229.61
363.91	229.65
364.29	229.65
364.67	229.54
365.05	229.56
365.43	229.56
365.81	229.56
366.19	229.57
366.57	229.61
366.95	229.59
367.33	229.55
367.71	229.54
368.09	229.54
368.47	229.46
368.85	229.45
369.23	229.39
369.61	229.29
369.99	229.29
370.37	229.26
370.75	229.24
371.13	229.15
371.51	229.09
371.89	229.00
372.27	228.97
372.65	228.91
373.03	228.85
373.41	228.78
373.78	228.70
374.16	228.61
374.54	228.50
374.92	228.42
375.30	228.34
375.68	228.24
376.06	228.18
376.44	228.16
376.82	228.05
377.19	227.98
377.57	227.91
377.95	227.79
378.33	227.72
378.71	227.60
379.09	227.55
379.47	227.51
379.84	227.43
380.22	227.35
380.60	227.26
380.98	227.14
381.36	227.09
381.73	227.00
382.11	226.96
382.49	226.92
382.87	226.88
383.25	226.84
383.62	226.89
384.00	226.84
384.38	226.76
384.76	226.73
385.13	226.76
385.51	226.70
385.89	226.67
386.27	226.62
386.64	226.55
387.02	226.51
387.40	226.45
387.78	226.46
388.15	226.47
388.53	226.42
388.91	226.44
389.29	226.40
389.66	226.42
390.04	226.37
390.42	226.38
390.79	226.35
391.17	226.35
391.55	226.26
391.92	226.27
392.30	226.29
392.68	226.30
393.05	226.25
393.43	226.27
393.81	226.29
394.18	226.26
394.56	226.31
394.94	226.38
395.31	226.41
395.69	226.43
396.06	226.46
396.44	226.55
396.82	226.61
397.19	226.73
397.57	226.76
397.95	226.85
398.32	226.88
398.70	226.97
399.07	227.02
399.45	227.10
399.82	227.16
400.20	227.21
400.58	227.25
400.95	227.33
401.33	227.46
401.70	227.59
402.08	227.72
402.45	227.82
402.83	227.89
403.20	227.99
403.58	228.11
403.95	228.24
404.33	228.37
404.71	228.46
405.08	228.59
405.46	228.71
405.83	228.87
406.21	229.01
406.58	229.13
406.96	229.31
407.33	229.47
407.70	229.67
408.08	229.92
408.45	230.14
408.83	230.37
409.20	230.54
409.58	230.74
409.95	230.96
410.33	231.20
410.70	231.46
411.08	231.77
411.45	232.05
411.82	232.32
412.20	232.67
412.57	233.10
412.95	233.38
413.32	233.77
413.69	234.12
414.07	234.57
414.44	235.05
414.82	235.52
415.19	236.05
415.56	236.57
415.94	237.11
416.31	237.75
416.68	238.38
417.06	239.10
417.43	239.75
417.81	240.52
418.18	241.30
418.55	242.14
418.93	242.98
419.30	243.88
419.67	244.80
420.04	245.72
420.42	246.69
420.79	247.93
421.16	249.09
421.54	250.30
421.91	251.47
422.28	252.72
422.66	254.05
423.03	255.38
423.40	256.72
423.77	258.14
424.15	259.58
424.52	261.08
424.89	262.69
425.26	264.27
425.64	265.69
426.01	267.30
426.38	268.94
426.75	270.61
427.13	272.34
427.50	274.22
427.87	276.12
428.24	277.98
428.61	279.68
428.99	281.63
429.36	283.74
429.73	285.82
430.10	287.84
430.47	289.91
430.85	292.01
431.22	294.24
431.59	296.63
431.96	298.87
432.33	301.35
432.70	303.72
433.08	306.52
433.45	309.23
433.82	311.86
434.19	314.78
434.56	317.62
434.93	320.25
435.30	322.83
435.68	325.74
436.05	328.59
436.42	331.42
436.79	333.92
437.16	336.61
437.53	339.45
437.90	342.29
438.27	345.04
438.64	347.85
439.01	350.51
439.38	352.78
439.75	354.99
440.13	357.54
440.50	359.90
440.87	361.74
441.24	363.68
441.61	365.84
441.98	367.32
442.35	369.07
442.72	370.97
443.09	372.81
443.46	373.83
443.83	374.46
444.20	374.96
444.57	375.82
444.94	376.16
445.31	376.54
445.68	376.90
446.05	376.96
446.42	376.64
446.79	376.22
447.16	375.74
447.53	375.41
447.90	374.13
448.27	372.99
448.64	371.39
449.01	370.24
449.37	368.22
449.74	366.32
450.11	364.11
450.48	361.64
450.85	359.09
451.22	356.87
451.59	354.79
451.96	352.86
452.33	350.26
452.70	347.89
453.07	344.97
453.43	342.05
453.80	339.31
454.17	336.60
454.54	334.05
454.91	331.29
455.28	328.57
455.65	326.12
456.02	323.60
456.38	321.46
456.75	318.78
457.12	316.55
457.49	314.35
457.86	312.17
458.23	310.29
458.59	308.24
458.96	306.19
459.33	304.35
459.70	302.44
460.07	300.93
460.43	299.18
460.80	297.61
461.17	296.15
461.54	294.63
461.91	293.20
462.27	291.70
462.64	290.46
463.01	289.09
463.38	287.78
463.74	286.45
464.11	285.35
464.48	284.38
464.85	283.26
465.21	282.40
465.58	281.46
465.95	280.34
466.32	279.43
466.68	278.51
467.05	277.62
467.42	276.72
467.78	275.77
468.15	274.91
468.52	274.25
468.88	273.39
469.25	272.61
469.62	271.96
469.98	271.29
470.35	270.68
470.72	270.11
471.08	269.46
471.45	268.91
471.82	268.33
472.18	267.69
472.55	267.24
472.92	266.68
473.28	266.25
473.65	265.82
474.02	265.39
474.38	265.01
474.75	264.66
475.11	264.30
475.48	264.06
475.85	263.81
476.21	263.53
476.58	263.40
476.94	263.25
477.31	263.09
477.67	262.96
478.04	262.86
478.41	262.81
478.77	262.86
479.14	262.79
479.50	262.81
479.87	262.91
480.23	262.99
480.60	263.06
480.96	263.14
481.33	263.40
481.69	263.61
482.06	263.81
482.42	264.02
482.79	264.28
483.15	264.58
483.52	264.99
483.88	265.37
484.25	265.77
484.61	266.21
484.98	266.68
485.34	267.26
485.71	267.83
486.07	268.42
486.44	269.00
486.80	269.72
487.17	270.40
487.53	271.22
487.90	272.09
488.26	273.03
488.62	274.00
488.99	274.93
489.35	275.93
489.72	277.06
490.08	278.27
490.44	279.56
490.81	280.89
491.17	282.22
491.54	283.72
491.90	285.24
492.26	286.88
492.63	288.57
492.99	290.32
493.36	292.21
493.72	294.26
494.08	296.36
494.45	298.59
494.81	301.01
495.17	303.44
495.54	305.99
495.90	308.68
496.26	311.48
496.63	314.45
496.99	317.61
497.35	320.87
497.72	324.25
498.08	327.75
498.44	331.43
498.80	335.41
499.17	339.40
499.53	343.55
499.89	347.93
500.26	352.44
500.62	357.12
500.98	362.09
501.34	367.15
501.71	372.48
502.07	377.92
502.43	383.45
502.79	389.23
503.16	395.32
503.52	401.60
503.88	408.04
504.24	414.64
504.60	421.50
504.97	428.66
505.33	436.05
505.69	443.74
506.05	451.50
506.41	459.32
506.78	467.49
507.14	475.94
507.50	484.69
507.86	493.82
508.22	502.99
508.59	512.22
508.95	521.76
509.31	531.56
509.67	541.66
510.03	552.00
510.39	562.59
510.75	573.37
511.12	584.30
511.48	595.58
511.84	607.12
512.20	618.64
512.56	630.52
512.92	642.67
513.28	655.03
513.64	667.53
514.00	680.31
514.37	693.19
514.73	706.34
515.09	719.41
515.45	732.65
515.81	746.29
516.17	760.30
516.53	774.47
516.89	788.58
517.25	802.77
517.61	817.23
517.97	831.70
518.33	846.18
518.69	860.97
519.05	876.04
519.41	891.17
519.77	906.70
520.13	922.26
520.49	937.64
520.85	953.14
521.21	968.95
521.57	985.19
521.93	1001.13
522.29	1017.49
522.65	1033.74
523.01	1049.91
523.37	1065.98
523.73	1082.15
524.09	1098.30
524.45	1114.75
524.81	1131.52
525.17	1148.36
525.53	1165.28
525.89	1182.25
526.25	1199.14
526.61	1215.48
526.97	1232.26
527.33	1248.86
527.68	1265.51
528.04	1282.02
528.40	1298.54
528.76	1315.62
529.12	1332.18
529.48	1349.11
529.84	1365.14
530.20	1381.77
530.56	1398.91
530.91	1416.39
531.27	1433.22
531.63	1449.70
531.99	1466.38
532.35	1482.29
532.71	1498.17
533.07	1514.50
533.42	1530.39
533.78	1546.40
534.14	1562.76
534.50	1578.09
534.86	1593.97
535.21	1609.12
535.57	1625.11
535.93	1640.69
536.29	1655.40
536.65	1670.64
537.00	1685.32
537.36	1700.62
537.72	1715.22
538.08	1729.65
538.44	1743.45
538.79	1757.27
539.15	1770.98
539.51	1784.57
539.87	1798.93
540.22	1812.77
540.58	1826.42
540.94	1839.95
541.29	1853.00
541.65	1865.70
542.01	1879.05
542.37	1891.33
542.72	1903.73
543.08	1915.56
543.44	1928.02
543.79	1939.23
544.15	1950.25
544.51	1961.86
544.87	1972.88
545.22	1983.72
545.58	1993.94
545.94	2003.70
546.29	2013.50
546.65	2023.36
547.01	2032.64
547.36	2041.31
547.72	2049.74
548.07	2057.83
548.43	2065.94
548.79	2073.95
549.14	2081.50
549.50	2088.89
549.86	2096.65
550.21	2104.00
550.57	2111.11
550.92	2117.76
551.28	2124.95
551.64	2131.91
551.99	2138.45
552.35	2144.67
552.70	2150.78
553.06	2156.83
553.41	2163.18
553.77	2169.39
554.13	2175.45
554.48	2181.63
554.84	2187.04
555.19	2192.31
555.55	2197.30
555.90	2201.55
556.26	2206.32
556.61	2211.09
556.97	2215.14
557.32	2219.19
557.68	2223.30
558.03	2227.64
558.39	2231.32
558.74	2235.88
559.10	2239.78
559.45	2243.38
559.81	2247.63
560.16	2251.42
560.52	2254.66
560.87	2258.06
561.23	2260.61
561.58	2263.66
561.94	2266.08
562.29	2268.64
562.64	2271.26
563.00	2273.95
563.35	2277.59
563.71	2280.77
564.06	2283.92
564.42	2286.92
564.77	2289.51
565.12	2291.79
565.48	2293.57
565.83	2295.32
566.19	2296.67
566.54	2297.54
566.89	2298.69
567.25	2299.21
567.60	2300.60
567.96	2302.24
568.31	2303.04
568.66	2304.22
569.02	2304.62
569.37	2305.02
569.72	2305.67
570.08	2305.80
570.43	2305.68
570.78	2305.07
571.14	2303.56
571.49	2302.16
571.84	2301.84
572.20	2300.65
572.55	2299.48
572.90	2297.99
573.26	2296.54
573.61	2294.89
573.96	2293.10
574.31	2290.17
574.67	2287.12
575.02	2283.37
575.37	2279.84
575.72	2275.99
576.08	2272.67
576.43	2269.32
576.78	2265.68
577.13	2262.64
577.49	2259.63
577.84	2256.06
578.19	2252.32
578.54	2248.62
578.90	2244.39
579.25	2238.74
579.60	2233.65
579.95	2228.74
580.30	2223.64
580.66	2218.55
581.01	2213.39
581.36	2208.44
581.71	2204.07
582.06	2199.68
582.42	2195.07
582.77	2189.78
583.12	2185.22
583.47	2180.31
583.82	2175.28
584.17	2169.84
584.53	2164.32
584.88	2158.42
585.23	2152.69
585.58	2147.05
585.93	2141.62
586.28	2136.76
586.63	2131.66
586.98	2126.56
587.34	2121.79
587.69	2116.84
588.04	2111.42
588.39	2105.75
588.74	2099.32
589.09	2093.20
589.44	2086.32
589.79	2080.38
590.14	2074.80
590.49	2068.17
590.84	2061.81
591.19	2055.77
591.54	2049.33
591.89	2041.86
592.25	2035.17
592.60	2027.97
592.95	2020.26
593.30	2012.68
593.65	2005.15
594.00	1997.96
594.35	1990.67
594.70	1982.56
595.05	1975.31
595.40	1968.02
595.75	1960.42
596.10	1954.00
596.45	1947.14
596.80	1940.95
597.15	1934.24
597.50	1927.03
597.85	1920.66
598.19	1913.94
598.54	1906.80
598.89	1900.18
599.24	1894.16
599.59	1887.46
599.94	1881.22
600.29	1874.97
600.64	1868.50
600.99	1860.95
601.34	1854.22
601.69	1847.28
602.04	1840.28
602.39	1833.04
602.74	1826.20
603.08	1819.42
603.43	1812.75
603.78	1805.57
604.13	1798.37
604.48	1791.03
604.83	1784.15
605.18	1776.97
605.53	1768.95
605.87	1760.99
606.22	1753.68
606.57	1745.61
606.92	1738.28
607.27	1730.97
607.62	1723.91
607.96	1716.49
608.31	1709.86
608.66	1702.12
609.01	1694.50
609.36	1687.05
609.70	1678.94
610.05	1670.81
610.40	1663.19
610.75	1654.83
611.10	1647.01
611.44	1638.48
611.79	1630.55
612.14	1621.94
612.49	1612.87
612.83	1604.54
613.18	1596.30
613.53	1588.21
613.88	1579.84
614.22	1571.54
614.57	1563.00
614.92	1555.02
615.27	1547.45
615.61	1539.04
615.96	1531.05
616.31	1523.35
616.65	1515.98
617.00	1508.37
617.35	1500.80
617.70	1492.41
618.04	1483.92
618.39	1475.78
618.74	1468.23
619.08	1459.94
619.43	1452.32
619.78	1445.39
620.12	1438.12
620.47	1430.63
620.82	1422.50
621.16	1415.07
621.51	1407.37
621.85	1399.74
622.20	1391.20
622.55	1382.88
622.89	1375.11
623.24	1367.49
623.59	1360.24
623.93	1352.69
624.28	1345.46
624.62	1337.89
624.97	1330.75
625.32	1323.93
625.66	1316.89
626.01	1309.63
626.35	1302.08
626.70	1294.32
627.04	1286.56
627.39	1278.84
627.73	1271.46
628.08	1264.52
628.43	1257.23
628.77	1249.86
629.12	1242.23
629.46	1235.11
629.81	1227.65
630.15	1220.32
630.50	1212.92
630.84	1204.74
631.19	1196.89
631.53	1189.36
631.88	1181.76
632.22	1174.21
632.57	1167.00
632.91	1159.55
633.26	1152.17
633.60	1144.89
633.95	1137.82
634.29	1130.90
634.64	1124.20
634.98	1116.78
635.32	1109.54
635.67	1103.04
636.01	1096.44
636.36	1089.66
636.70	1083.17
637.05	1076.71
637.39	1070.31
637.73	1063.78
638.08	1057.87
638.42	1051.83
638.77	1045.39
639.11	1038.81
639.45	1032.30
639.80	1025.58
640.14	1019.16
640.49	1012.68
640.83	1006.29
641.17	1000.01
641.52	993.58
641.86	987.12
642.20	981.34
642.55	975.15
642.89	968.49
643.23	962.01
643.58	956.32
643.92	950.09
644.26	943.94
644.61	937.96
644.95	931.91
645.29	925.29
645.64	918.50
645.98	912.18
646.32	906.38
646.66	900.38
647.01	894.59
647.35	888.73
647.69	882.91
648.04	877.49
648.38	871.71
648.72	865.62
649.06	859.52
649.41	853.66
649.75	847.61
650.09	841.73
650.43	835.85
650.78	829.64
651.12	823.71
651.46	817.98
651.80	812.21
652.14	806.87
652.49	801.47
652.83	796.33
653.17	790.63
653.51	784.83
653.85	779.47
654.20	773.79
654.54	767.86
654.88	762.06
655.22	756.14
655.56	750.44
655.90	745.08
656.25	739.88
656.59	734.51
656.93	729.48
657.27	724.36
657.61	719.01
657.95	713.93
658.29	708.77
658.64	703.58
658.98	698.26
659.32	692.77
659.66	687.57
660.00	682.23
660.34	677.34
660.68	672.45
661.02	667.44
661.36	662.71
661.70	658.24
662.05	653.93
662.39	649.62
662.73	645.21
663.07	640.89
663.41	636.45
663.75	631.98
664.09	627.41
664.43	622.99
664.77	618.89
665.11	614.67
665.45	610.60
665.79	606.58
666.13	602.45
666.47	598.42
666.81	594.29
667.15	590.21
667.49	586.28
667.83	582.56
668.17	578.60
668.51	574.56
668.85	570.49
669.19	566.65
669.53	562.81
669.87	558.89
670.21	555.18
670.55	551.54
670.89	548.02
671.23	544.58
671.57	541.06
671.91	537.44
672.25	533.90
672.58	530.38
672.92	526.91
673.26	523.77
673.60	520.60
673.94	517.47
674.28	514.54
674.62	511.60
674.96	508.43
675.30	505.52
675.64	502.58
675.97	499.81
676.31	496.91
676.65	493.98
676.99	491.30
677.33	488.43
677.67	485.63
678.01	482.65
678.34	479.66
678.68	476.82
679.02	474.07
679.36	471.36
679.70	468.67
680.04	465.92
680.37	462.98
680.71	460.19
681.05	457.55
681.39	454.86
681.73	452.25
682.06	449.77
682.40	447.24
682.74	444.76
683.08	442.26
683.42	439.67
683.75	437.15
684.09	434.64
684.43	432.17
684.77	429.69
685.10	427.35
685.44	425.05
685.78	422.78
686.12	420.56
686.45	418.28
686.79	415.99
687.13	413.77
687.46	411.62
687.80	409.46
688.14	407.24
688.48	405.22
688.81	402.91
689.15	400.74
689.49	398.58
689.82	396.50
690.16	394.42
690.50	392.50
690.83	390.55
691.17	388.54
691.51	386.60
691.84	384.79
692.18	382.82
692.52	380.87
692.85	378.93
693.19	377.04
693.52	375.21
693.86	373.38
694.20	371.65
694.53	369.89
694.87	368.05
695.21	366.29
695.54	364.49
695.88	362.83
696.21	361.11
696.55	359.39
696.88	357.71
697.22	356.02
697.56	354.38
697.89	352.72
698.23	351.10
698.56	349.50
698.90	347.88
699.23	346.24
699.57	344.66
699.90	343.11
700.24	341.54
700.58	340.00
700.91	338.51
701.25	337.05
701.58	335.68
701.92	334.36
702.25	332.96
702.59	331.55
702.92	330.20
703.26	328.91
703.59	327.62
703.93	326.49
704.26	325.30
704.60	323.99
704.93	322.73
705.26	321.52
705.60	320.37
705.93	319.21
706.27	318.19
706.60	317.13
706.94	316.07
707.27	314.98
707.61	313.94
707.94	312.92
708.27	311.85
708.61	310.78
708.94	309.79
709.28	308.83
709.61	307.89
709.94	306.95
710.28	305.95
710.61	305.01
710.95	303.88
711.28	302.97
711.61	302.03
711.95	301.14
712.28	300.15
712.61	299.14
712.95	298.22
713.28	297.35
713.61	296.46
713.95	295.58
714.28	294.71
714.61	293.81
714.95	292.95
715.28	292.08
715.61	291.21
715.95	290.32
716.28	289.51
716.61	288.67
716.95	287.86
717.28	287.06
717.61	286.28
717.94	285.56
718.28	284.74
718.61	283.98
718.94	283.24
719.27	282.60
719.61	281.97
719.94	281.31
720.27	280.61
720.60	279.93
720.94	279.31
721.27	278.70
721.60	278.13
721.93	277.53
722.27	276.98
722.60	276.42
722.93	275.88
723.26	275.29
723.59	274.69
723.93	274.12
724.26	273.58
724.59	273.05
724.92	272.50
725.25	272.01
725.59	271.53
725.92	271.05
726.25	270.55
726.58	270.03
726.91	269.53
727.24	269.02
727.57	268.57
727.91	268.04
728.24	267.56
728.57	267.11
728.90	266.63
729.23	266.11
729.56	265.69
729.89	265.22
730.22	264.77
730.55	264.34
730.89	263.90
731.22	263.46
731.55	263.02
731.88	262.58
732.21	262.14
732.54	261.72
732.87	261.26
733.20	260.86
733.53	260.49
733.86	260.09
734.19	259.72
734.52	259.35
734.85	259.06
735.18	258.67
735.51	258.27
735.84	257.89
736.17	257.52
736.50	257.10
736.83	256.90
737.16	256.54
737.49	256.17
737.82	255.82
738.15	255.50
738.48	255.20
738.81	254.91
739.14	254.62
739.47	254.29
739.80	254.01
740.13	253.71
740.46	253.38
740.79	253.04
741.12	252.76
741.45	252.45
741.78	252.10
742.11	251.80
742.44	251.47
742.77	251.23
743.10	251.01
743.43	250.73
743.75	250.34
744.08	250.22
744.41	249.99
744.74	249.73
745.07	249.46
745.40	249.19
745.73	248.95
746.06	248.67
746.39	248.41
746.71	248.14
747.04	247.86
747.37	247.61
747.70	247.40
748.03	247.17
748.36	246.96
748.68	246.73
749.01	246.50
749.34	246.28
749.67	246.06
750.00	245.78
750.33	245.62
750.65	245.39
750.98	245.03
751.31	244.82
751.64	244.64
751.97	244.46
752.29	244.24
752.62	244.00
752.95	243.80
753.28	243.59
753.60	243.36
753.93	243.21
754.26	243.03
754.59	242.79
754.91	242.56
755.24	242.32
755.57	242.14
755.90	241.95
756.22	241.81
756.55	241.58
756.88	241.40
757.20	241.15
757.53	240.98
757.86	240.84
758.19	240.66
758.51	240.46
758.84	240.26
759.17	240.09
759.49	239.92
759.82	239.78
760.15	239.64
760.47	239.49
760.80	239.33
761.13	239.16
761.45	239.02
761.78	238.86
762.11	238.73
762.43	238.57
762.76	238.41
763.08	238.25
763.41	238.10
763.74	237.99
764.06	237.86
764.39	237.68
764.71	237.51
765.04	237.38
765.37	237.23
765.69	237.08
766.02	236.94
766.34	236.80
766.67	236.66
767.00	236.52
767.32	236.45
767.65	236.34
767.97	236.23
768.30	236.13
768.62	236.03
768.95	235.88
769.27	235.74
769.60	235.63
769.92	235.49
770.25	235.36
770.57	235.22
770.90	235.08
771.22	234.96
771.55	234.85
771.87	234.75
772.20	234.66
772.52	234.64
772.85	234.68
773.17	234.58
773.50	234.46
773.82	234.39
774.15	234.26
774.47	234.13
774.80	234.02
775.12	233.91
775.45	233.82
775.77	233.75
776.09	233.68
776.42	233.58
776.74	233.56
777.07	233.45
777.39	233.41
777.72	233.33
778.04	233.30
778.36	233.23
778.69	233.17
779.01	233.09
779.33	232.92
779.66	232.74
779.98	232.69
780.31	232.66
780.63	232.62
780.95	232.61
781.28	232.57
781.60	232.51
781.92	232.44
782.25	232.39
782.57	232.33
782.89	232.29
783.22	232.25
783.54	232.19
783.86	232.18
784.19	232.12
784.51	232.14
784.83	232.04
785.16	232.01
785.48	231.98
785.80	231.96
786.12	231.97
786.45	231.92
786.77	231.88
787.09	231.84
787.42	231.79
787.74	231.73
788.06	231.69
788.38	231.67
788.71	231.64
789.03	231.59
789.35	231.59
789.67	231.52
789.99	231.53
790.32	231.47
790.64	231.45
790.96	231.50
791.28	231.39
791.61	231.39
791.93	231.35
792.25	231.31
792.57	231.30
792.89	231.21
793.21	231.20
793.54	231.16
793.86	231.09
794.18	231.01
794.50	230.94
794.82	230.95
795.14	230.89
795.47	230.89
795.79	230.86
796.11	230.77
796.43	230.76
796.75	230.72
797.07	230.71
797.39	230.65
797.71	230.54
798.04	230.51
798.36	230.48
798.68	230.45
799.00	230.42
799.32	230.35
799.64	230.36
799.96	230.30
800.28	230.26
800.60	230.22
800.92	230.19
801.24	230.12
801.56	230.08
801.89	230.01
802.21	229.97
802.53	229.97
802.85	229.98
803.17	229.96
803.49	229.84
803.81	229.78
804.13	229.75
804.45	229.73
804.77	229.72
805.09	229.68
805.41	229.65
805.73	229.58
806.05	229.52
806.37	229.47
806.69	229.45
807.01	229.43
807.33	229.41
807.65	229.37
807.97	229.42
808.28	229.37
808.60	229.36
808.92	229.31
809.24	229.27
809.56	229.21
809.88	229.16
810.20	229.19
810.52	229.20
810.84	229.14
811.16	229.11
811.48	229.06
811.80	229.04
812.12	228.99
812.43	229.01
812.75	228.99
813.07	228.96
813.39	228.95
813.71	228.94
814.03	228.91
814.35	228.89
814.67	228.82
814.98	228.79
815.30	228.77
815.62	228.74
815.94	228.70
816.26	228.72
816.58	228.64
816.89	228.63
817.21	228.55
817.53	228.56
817.85	228.54
818.17	228.55
818.48	228.53
818.80	228.53
819.12	228.49
819.44	228.47
819.76	228.44
820.07	228.42
820.39	228.40
820.71	228.39
821.03	228.36
821.34	228.37
821.66	228.35
821.98	228.36
822.30	228.34
822.61	228.38
822.93	228.34
823.25	228.36
823.57	228.33
823.88	228.41
824.20	228.40
824.52	228.38
824.83	228.36
825.15	228.34
825.47	228.34
825.79	228.34
826.10	228.34
826.42	228.31
826.74	228.32
827.05	228.29
827.37	228.28
827.69	228.28
828.00	228.27
828.32	228.24
828.64	228.22
828.95	228.27
829.27	228.24
829.58	228.23
829.90	228.24
830.22	228.25
830.53	228.18
830.85	228.20
831.17	228.17
831.48	228.18
831.80	228.14
832.11	228.16
832.43	228.14
832.75	228.11
833.06	228.16
833.38	228.13
833.69	228.16
834.01	228.16
834.32	228.14
834.64	228.12
834.96	228.15
835.27	228.14
835.59	228.10
835.90	228.11
836.22	228.11
836.53	228.09
836.85	228.09
837.16	228.20
837.48	228.16
837.79	228.22
838.11	228.19
838.42	228.19
838.74	228.17
839.05	228.15
839.37	228.16
839.68	228.11
840.00	228.10
840.31	228.06
840.63	228.03
840.94	228.05
841.26	228.00
841.57	227.98
841.88	228.00
842.20	227.99
842.51	227.95
842.83	227.93
843.14	227.98
843.46	227.94
843.77	227.88
844.08	227.85
844.40	227.80
844.71	227.79
845.03	227.81
845.34	227.75
845.65	227.72
845.97	227.72
846.28	227.72
846.60	227.75
846.91	227.73
847.22	227.74
847.54	227.74
847.85	227.74
848.16	227.69
848.48	227.65
848.79	227.66
849.10	227.63
849.42	227.62
849.73	227.53
850.04	227.54
850.36	227.53
850.67	227.52
850.98	227.52
851.30	227.52
851.61	227.51
851.92	227.49
852.23	227.50
852.55	227.48
852.86	227.45
853.17	227.41
853.49	227.40
853.80	227.40
854.11	227.38
854.42	227.36
854.74	227.37
855.05	227.35
855.36	227.30
855.67	227.31
855.99	227.32
856.30	227.42
856.61	227.41
856.92	227.38
857.23	227.37
857.55	227.35
857.86	227.33
858.17	227.32
858.48	227.36
858.79	227.36
859.11	227.40
859.42	227.38
859.73	227.37
860.04	227.40
860.35	227.39
860.66	227.36
860.98	227.41
861.29	227.43
861.60	227.44
861.91	227.49
862.22	227.47
862.53	227.45
862.84	227.33
863.16	227.34
863.47	227.31
863.78	227.31
864.09	227.33
864.40	227.34
864.71	227.33
865.02	227.32
865.33	227.30
865.64	227.25
865.95	227.28
866.27	227.35
866.58	227.35
866.89	227.33
867.20	227.31
867.51	227.29
867.82	227.29
868.13	227.34
868.44	227.29
868.75	227.31
869.06	227.32
869.37	227.37
869.68	227.36
869.99	227.39
870.30	227.41
870.61	227.41
870.92	227.39
871.23	227.36
871.54	227.40
871.85	227.45
872.16	227.46
872.47	227.44
872.78	227.37
873.09	227.36
873.40	227.38
873.71	227.41
874.02	227.42
874.33	227.40
874.64	227.33
874.95	227.35
875.26	227.32
875.56	227.30
875.87	227.26
876.18	227.25
876.49	227.35
876.80	227.33
877.11	227.33
877.42	227.35
877.73	227.37
878.04	227.32
878.35	227.29
878.66	227.29
878.96	227.31
879.27	227.32
879.58	227.32
879.89	227.27
880.20	227.26
880.51	227.26
880.82	227.24
881.12	227.24
881.43	227.23
881.74	227.25
882.05	227.25
882.36	227.25
882.67	227.23
882.97	227.12
883.28	227.08
883.59	227.06
883.90	227.05
884.21	227.06
884.51	227.05
884.82	227.07
885.13	227.07
885.44	227.04
885.74	227.03
886.05	227.03
886.36	227.06
886.67	227.05
886.98	227.08
887.28	227.10
887.59	227.09
887.90	227.08
888.20	227.05
888.51	227.08
888.82	227.06
889.13	227.10
889.43	227.16
889.74	227.18
890.05	227.17
890.35	227.15
890.66	227.12
890.97	227.11
891.28	227.05
891.58	227.04
891.89	227.07
892.20	227.06
892.50	227.03
892.81	227.02
893.12	227.01
893.42	226.93
893.73	226.94
894.04	226.92
894.34	226.94
894.65	226.95
894.95	226.90
895.26	226.91
895.57	226.92
895.87	226.83
896.18	226.86
896.48	226.89
896.79	226.89
897.10	226.91
897.40	226.92
897.71	226.95
898.01	226.94
898.32	226.95
898.63	226.95
898.93	226.97
899.24	227.00
899.54	226.97
899.85	227.01
900.15	226.99
900.46	227.02
900.76	227.03
901.07	227.01
901.38	227.03
901.68	227.05
901.99	227.01
902.29	227.01
902.60	227.00
902.90	226.96
903.21	226.95
903.51	226.96
903.82	227.00
904.12	227.04
904.43	227.04
904.73	227.03
905.03	227.05
905.34	227.16
905.64	227.16
905.95	227.20
906.25	227.20
906.56	227.23
906.86	227.23
907.17	227.23
907.47	227.24
907.77	227.26
908.08	227.25
908.38	227.27
908.69	227.28
908.99	227.29
909.30	227.31
909.60	227.33
909.90	227.32
910.21	227.29
910.51	227.26
910.81	227.26
911.12	227.26
911.42	227.24
911.73	227.11
912.03	227.10
912.33	227.12
912.64	227.10
912.94	227.04
913.24	227.00
913.55	227.00
913.85	226.95
914.15	226.93
914.46	226.93
914.76	226.92
915.06	226.92
915.37	226.89
915.67	226.91
915.97	226.89
916.27	226.86
916.58	226.81
916.88	226.79
917.18	226.78
917.49	226.83
917.79	226.84
918.09	226.86
918.39	226.88
918.70	226.84
919.00	226.87
919.30	226.95
919.60	226.96
919.91	226.96
920.21	226.99
920.51	227.00
920.81	226.99
921.12	227.00
921.42	227.00
921.72	226.96
922.02	226.93
922.32	226.95
922.63	226.94
922.93	227.02
923.23	227.04
923.53	227.02
923.83	226.95
924.13	226.94
924.44	226.95
924.74	226.95
925.04	226.98
925.34	226.96
925.64	226.93
925.94	226.92
926.24	226.94
926.55	226.92
926.85	226.94
927.15	226.94
927.45	226.94
927.75	226.96
928.05	226.95
928.35	226.94
928.65	226.94
928.95	226.96
929.26	226.94
929.56	226.95
929.86	226.96
930.16	226.97
930.46	226.96
930.76	226.94
931.06	226.88
931.36	226.86
931.66	226.88
931.96	226.88
932.26	226.85
932.56	226.84
932.86	226.87
933.16	226.85
933.46	226.86
933.76	226.85
934.06	226.83
934.36	226.90
934.66	226.94
934.96	226.95
935.26	226.96
935.56	226.99
935.86	226.99
936.16	226.97
936.46	226.95
936.76	226.96
937.06	226.99
937.36	227.00
937.66	227.02
937.96	226.98
938.26	226.97
938.56	226.99
938.86	226.99
939.16	227.01
939.46	227.01
939.76	227.01
940.06	227.02
940.35	227.06
940.65	227.03
940.95	227.01
941.25	227.01
941.55	227.03
941.85	227.02
942.15	227.06
942.45	227.11
942.75	227.12
943.04	227.12
943.34	227.11
943.64	227.12
943.94	227.10
944.24	227.13
944.54	227.14
944.84	227.14
945.13	227.11
945.43	227.10
945.73	227.11
946.03	227.12
946.33	227.10
946.62	227.10
946.92	227.09
947.22	227.09
947.52	227.07
947.82	227.05
948.11	227.00
948.41	226.94
948.71	226.93
949.01	226.94
949.31	226.93
949.60	226.91
949.90	226.94
950.20	226.94
950.50	226.93
950.79	226.91
951.09	226.92
951.39	226.93
951.69	226.89
951.98	226.87
952.28	226.85
952.58	226.81
952.87	226.77
953.17	226.77
953.47	226.78
953.76	226.76
954.06	226.74
954.36	226.73
954.66	226.75
954.95	226.74
955.25	226.74
955.55	226.72
955.84	226.72
956.14	226.71
956.44	226.67
956.73	226.66
957.03	226.64
957.32	226.63
957.62	226.60
957.92	226.63
958.21	226.61
958.51	226.73
958.81	226.77
959.10	226.76
959.40	226.76
959.69	226.76
959.99	226.75
960.29	226.75
960.58	226.75
960.88	226.79
961.17	226.74
961.47	226.76
961.76	226.74
962.06	226.72
962.36	226.69
962.65	226.73
962.95	226.71
963.24	226.73
963.54	226.73
963.83	226.77
964.13	226.75
964.42	226.70
964.72	226.61
965.01	226.61
965.31	226.62
965.60	226.61
965.90	226.65
966.19	226.65
966.49	226.65
966.78	226.65
967.08	226.61
967.37	226.65
967.67	226.64
967.96	226.69
968.26	226.71
968.55	226.75
968.85	226.75
969.14	226.74
969.43	226.73
969.73	226.72
970.02	226.71
970.32	226.71
970.61	226.73
970.91	226.72
971.20	226.70
971.49	226.70
971.79	226.70
972.08	226.65
972.38	226.66
972.67	226.68
972.96	226.70
973.26	226.71
973.55	226.74
973.85	226.73
974.14	226.71
974.43	226.71
974.73	226.68
975.02	226.67
975.31	226.69
975.61	226.71
975.90	226.75
976.19	226.75
976.49	226.75
976.78	226.78
977.07	226.80
977.37	226.82
977.66	226.81
977.95	226.87
978.24	226.89
978.54	226.92
978.83	226.92
979.12	226.92
979.42	226.89
979.71	226.85
980.00	226.86
980.29	226.83
980.59	226.81
980.88	226.86
981.17	226.85
981.46	226.84
981.76	226.83
982.05	226.84
982.34	226.84
982.63	226.87
982.93	226.88
983.22	226.90
983.51	226.91
983.80	226.92
984.09	226.89
984.39	226.86
984.68	226.85
984.97	226.85
985.26	226.84
985.55	226.87
985.85	226.87
986.14	226.89
986.43	226.93
986.72	226.96
987.01	226.91
987.30	226.91
987.59	226.90
987.89	226.90
988.18	226.85
988.47	226.83
988.76	226.83
989.05	226.79
989.34	226.76
989.63	226.79
989.92	226.79
990.22	226.77
990.51	226.76
990.80	226.73
991.09	226.74
991.38	226.80
991.67	226.79
991.96	226.79
992.25	226.77
992.54	226.73
992.83	226.73
993.12	226.71
993.41	226.73
993.70	226.77
993.99	226.78
994.28	226.78
994.58	226.80
994.87	226.77
995.16	226.79
995.45	226.75
995.74	226.72
996.03	226.70
996.32	226.75
996.61	226.76
996.90	226.76
997.19	226.75
997.48	226.72
997.77	226.71
998.06	226.72
998.34	226.72
998.63	226.73
998.92	226.71
999.21	226.72
999.50	226.72
999.79	226.70
1000.08	226.69
1000.37	226.70
1000.66	226.66
1000.95	226.68
1001.24	226.67
1001.53	226.70
1001.82	226.69
1002.11	226.66
1002.40	226.66
1002.68	226.70
1002.97	226.77
1003.26	226.77
1003.55	226.73
1003.84	226.72
1004.13	226.72
1004.42	226.74
1004.71	226.73
1004.99	226.76
1005.28	226.79
1005.57	226.79
1005.86	226.78
1006.15	226.78
1006.44	226.77
1006.72	226.82
1007.01	226.82
1007.30	226.85
1007.59	226.86
1007.88	226.84
1008.17	226.87
1008.45	226.83
1008.74	226.79
1009.03	226.76
1009.32	226.71
1009.60	226.72
1009.89	226.71
1010.18	226.67
1010.47	226.66
1010.76	226.68
1011.04	226.64
1011.33	226.67
1011.62	226.69
1011.91	226.72
1012.19	226.73
1012.48	226.75
1012.77	226.74
1013.05	226.80
1013.34	226.81
1013.63	226.80
1013.92	226.83
1014.20	226.82
1014.49	226.82
1014.78	226.83
1015.06	226.80
1015.35	226.83
1015.64	226.85
1015.92	226.88
1016.21	226.93
1016.50	226.91
1016.78	226.94
1017.07	226.96
1017.36	226.94
1017.64	226.90
1017.93	226.89
1018.22	226.88
1018.50	226.89
1018.79	226.90
1019.08	226.83
1019.36	226.83
1019.65	226.80
1019.93	226.84
1020.22	226.87
1020.51	226.94
1020.79	226.97
1021.08	226.71
1021.36	226.93
1021.65	227.08
1021.94	226.90
1022.22	226.98
1022.51	226.45
1022.79	227.34
1023.08	227.35
1023.36	228.12
1023.65	227.28
>>>>>End Processed Spectral Data<<<<<
