SpectraSuite Data File
++++++++++++++++++++++++++++++++++++
Date: Fri Feb 01 14:53:20 EST 2013
User: group
Dark Spectrum Present: No
Reference Spectrum Present: No
Number of Sampled Component Spectra: 1
Spectrometers: USB2E7196
Integration Time (usec): 35000 (USB2E7196)
Spectra Averaged: 100 (USB2E7196)
Boxcar Smoothing: 10 (USB2E7196)
Correct for Electrical Dark: No (USB2E7196)
Strobe/Lamp Enabled: No (USB2E7196)
Correct for Detector Non-linearity: No (USB2E7196)
Correct for Stray Light: No (USB2E7196)
Number of Pixels in Processed Spectrum: 2048
>>>>>Begin Processed Spectral Data<<<<<
339.09	0.00
339.48	215.77
339.86	217.54
340.24	219.21
340.63	219.57
341.01	222.55
341.39	222.72
341.78	223.66
342.16	224.81
342.54	225.48
342.93	213.86
343.31	224.64
343.69	225.16
344.07	225.61
344.46	226.01
344.84	226.40
345.22	226.62
345.60	226.85
345.99	227.02
346.37	227.15
346.75	227.23
347.13	227.29
347.52	227.35
347.90	227.40
348.28	227.45
348.66	227.50
349.05	227.50
349.43	227.54
349.81	227.57
350.19	227.60
350.57	227.66
350.96	227.72
351.34	227.81
351.72	227.88
352.10	227.96
352.48	228.03
352.87	228.08
353.25	228.17
353.63	228.26
354.01	228.33
354.39	228.43
354.77	228.51
355.15	228.61
355.54	228.67
355.92	228.70
356.30	228.75
356.68	228.87
357.06	228.93
357.44	229.00
357.82	229.08
358.20	229.16
358.58	229.20
358.97	229.27
359.35	229.35
359.73	229.45
360.11	229.46
360.49	229.51
360.87	229.56
361.25	229.61
361.63	229.68
362.01	229.72
362.39	229.73
362.77	229.76
363.15	229.80
363.53	229.81
363.91	229.85
364.29	229.88
364.67	229.77
365.05	229.82
365.43	229.81
365.81	229.81
366.19	229.83
366.57	229.84
366.95	229.78
367.33	229.74
367.71	229.67
368.09	229.69
368.47	229.65
368.85	229.58
369.23	229.58
369.61	229.46
369.99	229.43
370.37	229.39
370.75	229.34
371.13	229.21
371.51	229.17
371.89	229.12
372.27	229.06
372.65	229.05
373.03	228.95
373.41	228.89
373.78	228.81
374.16	228.71
374.54	228.63
374.92	228.56
375.30	228.50
375.68	228.42
376.06	228.35
376.44	228.24
376.82	228.18
377.19	228.04
377.57	228.00
377.95	227.93
378.33	227.85
378.71	227.75
379.09	227.72
379.47	227.64
379.84	227.53
380.22	227.46
380.60	227.36
380.98	227.25
381.36	227.14
381.73	227.06
382.11	226.98
382.49	226.91
382.87	226.85
383.25	226.79
383.62	226.84
384.00	226.74
384.38	226.71
384.76	226.67
385.13	226.68
385.51	226.62
385.89	226.53
386.27	226.48
386.64	226.47
387.02	226.41
387.40	226.37
387.78	226.33
388.15	226.28
388.53	226.25
388.91	226.28
389.29	226.26
389.66	226.22
390.04	226.22
390.42	226.21
390.79	226.22
391.17	226.18
391.55	226.07
391.92	226.09
392.30	226.11
392.68	226.13
393.05	226.11
393.43	226.10
393.81	226.14
394.18	226.16
394.56	226.18
394.94	226.24
395.31	226.27
395.69	226.36
396.06	226.41
396.44	226.47
396.82	226.50
397.19	226.62
397.57	226.68
397.95	226.75
398.32	226.82
398.70	226.89
399.07	227.02
399.45	227.13
399.82	227.22
400.20	227.31
400.58	227.42
400.95	227.49
401.33	227.61
401.70	227.78
402.08	227.93
402.45	228.03
402.83	228.18
403.20	228.31
403.58	228.40
403.95	228.54
404.33	228.68
404.71	228.85
405.08	229.03
405.46	229.21
405.83	229.39
406.21	229.58
406.58	229.77
406.96	229.92
407.33	230.12
407.70	230.34
408.08	230.60
408.45	230.78
408.83	231.03
409.20	231.26
409.58	231.46
409.95	231.71
410.33	231.98
410.70	232.21
411.08	232.51
411.45	232.85
411.82	233.18
412.20	233.55
412.57	233.96
412.95	234.26
413.32	234.66
413.69	235.04
414.07	235.45
414.44	235.93
414.82	236.43
415.19	236.96
415.56	237.47
415.94	238.03
416.31	238.69
416.68	239.31
417.06	240.03
417.43	240.68
417.81	241.41
418.18	242.19
418.55	243.03
418.93	243.89
419.30	244.76
419.67	245.68
420.04	246.63
420.42	247.58
420.79	248.78
421.16	249.93
421.54	251.11
421.91	252.33
422.28	253.56
422.66	254.88
423.03	256.16
423.40	257.46
423.77	258.83
424.15	260.24
424.52	261.69
424.89	263.27
425.26	264.81
425.64	266.22
426.01	267.81
426.38	269.44
426.75	271.07
427.13	272.78
427.50	274.57
427.87	276.43
428.24	278.27
428.61	279.99
428.99	281.89
429.36	284.00
429.73	286.04
430.10	288.01
430.47	290.07
430.85	292.19
431.22	294.46
431.59	296.85
431.96	299.12
432.33	301.61
432.70	304.03
433.08	306.85
433.45	309.54
433.82	312.13
434.19	315.01
434.56	317.86
434.93	320.48
435.30	323.12
435.68	326.01
436.05	328.87
436.42	331.65
436.79	334.16
437.16	336.86
437.53	339.66
437.90	342.55
438.27	345.24
438.64	348.06
439.01	350.65
439.38	352.88
439.75	355.03
440.13	357.53
440.50	359.87
440.87	361.74
441.24	363.66
441.61	365.85
441.98	367.35
442.35	369.17
442.72	371.06
443.09	372.89
443.46	373.87
443.83	374.45
444.20	374.95
444.57	375.82
444.94	376.12
445.31	376.50
445.68	376.83
446.05	376.93
446.42	376.60
446.79	376.19
447.16	375.74
447.53	375.44
447.90	374.30
448.27	373.12
448.64	371.53
449.01	370.43
449.37	368.48
449.74	366.61
450.11	364.39
450.48	361.98
450.85	359.44
451.22	357.30
451.59	355.30
451.96	353.40
452.33	350.78
452.70	348.40
453.07	345.57
453.43	342.69
453.80	339.97
454.17	337.28
454.54	334.76
454.91	332.03
455.28	329.34
455.65	326.84
456.02	324.42
456.38	322.29
456.75	319.63
457.12	317.37
457.49	315.13
457.86	312.98
458.23	311.15
458.59	309.08
458.96	306.99
459.33	305.11
459.70	303.24
460.07	301.75
460.43	300.07
460.80	298.49
461.17	297.03
461.54	295.52
461.91	294.06
462.27	292.59
462.64	291.38
463.01	290.05
463.38	288.76
463.74	287.35
464.11	286.19
464.48	285.14
464.85	284.01
465.21	283.14
465.58	282.14
465.95	280.98
466.32	280.05
466.68	279.15
467.05	278.27
467.42	277.36
467.78	276.44
468.15	275.54
468.52	274.85
468.88	274.00
469.25	273.19
469.62	272.57
469.98	271.87
470.35	271.19
470.72	270.57
471.08	269.86
471.45	269.29
471.82	268.72
472.18	268.10
472.55	267.67
472.92	267.12
473.28	266.64
473.65	266.17
474.02	265.75
474.38	265.37
474.75	265.03
475.11	264.66
475.48	264.36
475.85	264.10
476.21	263.82
476.58	263.59
476.94	263.44
477.31	263.22
477.67	263.07
478.04	262.93
478.41	262.85
478.77	262.92
479.14	262.84
479.50	262.84
479.87	262.86
480.23	262.91
480.60	262.95
480.96	263.06
481.33	263.27
481.69	263.43
482.06	263.60
482.42	263.79
482.79	264.06
483.15	264.34
483.52	264.71
483.88	265.05
484.25	265.44
484.61	265.85
484.98	266.32
485.34	266.88
485.71	267.49
486.07	268.08
486.44	268.62
486.80	269.32
487.17	270.02
487.53	270.85
487.90	271.71
488.26	272.69
488.62	273.67
488.99	274.64
489.35	275.67
489.72	276.79
490.08	277.99
490.44	279.22
490.81	280.54
491.17	281.90
491.54	283.38
491.90	284.89
492.26	286.56
492.63	288.28
492.99	290.03
493.36	291.92
493.72	293.96
494.08	296.08
494.45	298.30
494.81	300.64
495.17	303.10
495.54	305.66
495.90	308.30
496.26	311.07
496.63	314.03
496.99	317.11
497.35	320.36
497.72	323.71
498.08	327.22
498.44	330.87
498.80	334.77
499.17	338.76
499.53	342.88
499.89	347.21
500.26	351.69
500.62	356.32
500.98	361.24
501.34	366.29
501.71	371.53
502.07	377.00
502.43	382.55
502.79	388.30
503.16	394.31
503.52	400.55
503.88	406.95
504.24	413.48
504.60	420.34
504.97	427.46
505.33	434.73
505.69	442.44
506.05	450.16
506.41	457.97
506.78	466.12
507.14	474.59
507.50	483.18
507.86	492.19
508.22	501.36
508.59	510.47
508.95	520.00
509.31	529.73
509.67	539.78
510.03	550.05
510.39	560.55
510.75	571.36
511.12	582.21
511.48	593.49
511.84	604.85
512.20	616.33
512.56	628.22
512.92	640.31
513.28	652.59
513.64	665.10
514.00	677.85
514.37	690.76
514.73	703.77
515.09	716.85
515.45	730.11
515.81	743.65
516.17	757.67
516.53	771.82
516.89	786.04
517.25	800.18
517.61	814.65
517.97	829.09
518.33	843.57
518.69	858.44
519.05	873.43
519.41	888.71
519.77	904.24
520.13	919.70
520.49	935.27
520.85	950.75
521.21	966.39
521.57	982.67
521.93	998.54
522.29	1015.01
522.65	1031.30
523.01	1047.55
523.37	1063.78
523.73	1080.00
524.09	1096.03
524.45	1112.43
524.81	1129.15
525.17	1146.04
525.53	1163.02
525.89	1179.80
526.25	1196.66
526.61	1213.06
526.97	1229.84
527.33	1246.51
527.68	1263.32
528.04	1279.80
528.40	1296.43
528.76	1313.71
529.12	1330.33
529.48	1347.19
529.84	1363.29
530.20	1380.11
530.56	1397.29
530.91	1414.68
531.27	1431.58
531.63	1448.23
531.99	1464.85
532.35	1480.86
532.71	1496.78
533.07	1513.17
533.42	1529.13
533.78	1545.25
534.14	1561.61
534.50	1576.89
534.86	1592.77
535.21	1607.81
535.57	1623.83
535.93	1639.34
536.29	1654.09
536.65	1669.22
537.00	1684.04
537.36	1699.41
537.72	1713.89
538.08	1728.31
538.44	1742.12
538.79	1756.09
539.15	1769.86
539.51	1783.79
539.87	1798.31
540.22	1812.13
540.58	1825.83
540.94	1839.26
541.29	1852.18
541.65	1865.03
542.01	1878.41
542.37	1890.67
542.72	1903.25
543.08	1915.13
543.44	1927.65
543.79	1939.01
544.15	1950.02
544.51	1961.63
544.87	1972.56
545.22	1983.40
545.58	1993.66
545.94	2003.50
546.29	2013.38
546.65	2023.19
547.01	2032.42
547.36	2041.03
547.72	2049.57
548.07	2057.58
548.43	2065.97
548.79	2074.07
549.14	2081.63
549.50	2089.06
549.86	2096.82
550.21	2104.12
550.57	2111.32
550.92	2117.84
551.28	2124.94
551.64	2131.99
551.99	2138.55
552.35	2144.72
552.70	2150.77
553.06	2156.52
553.41	2162.82
553.77	2168.67
554.13	2174.76
554.48	2180.67
554.84	2186.14
555.19	2191.31
555.55	2196.25
555.90	2200.61
556.26	2205.44
556.61	2209.90
556.97	2214.16
557.32	2218.19
557.68	2222.26
558.03	2226.39
558.39	2230.03
558.74	2234.54
559.10	2238.45
559.45	2241.96
559.81	2246.19
560.16	2249.89
560.52	2253.05
560.87	2256.34
561.23	2259.06
561.58	2261.81
561.94	2264.43
562.29	2266.74
562.64	2269.39
563.00	2271.93
563.35	2275.22
563.71	2278.09
564.06	2281.23
564.42	2283.91
564.77	2286.27
565.12	2288.48
565.48	2290.12
565.83	2291.76
566.19	2292.82
566.54	2293.55
566.89	2294.62
567.25	2295.04
567.60	2296.40
567.96	2297.97
568.31	2298.55
568.66	2299.36
569.02	2299.84
569.37	2299.80
569.72	2300.39
570.08	2300.22
570.43	2300.01
570.78	2299.08
571.14	2297.35
571.49	2295.78
571.84	2295.15
572.20	2293.80
572.55	2292.37
572.90	2290.70
573.26	2289.15
573.61	2287.15
573.96	2285.14
574.31	2281.97
574.67	2278.74
575.02	2274.68
575.37	2271.05
575.72	2267.14
576.08	2263.56
576.43	2260.01
576.78	2256.28
577.13	2252.84
577.49	2249.46
577.84	2245.83
578.19	2242.00
578.54	2238.15
578.90	2233.82
579.25	2228.23
579.60	2223.15
579.95	2218.07
580.30	2212.73
580.66	2207.38
581.01	2202.26
581.36	2197.07
581.71	2192.66
582.06	2188.00
582.42	2183.47
582.77	2178.07
583.12	2173.34
583.47	2168.60
583.82	2163.36
584.17	2157.89
584.53	2152.39
584.88	2146.74
585.23	2140.81
585.58	2135.24
585.93	2129.57
586.28	2124.59
586.63	2119.34
586.98	2114.14
587.34	2109.35
587.69	2104.39
588.04	2099.05
588.39	2093.39
588.74	2086.80
589.09	2080.51
589.44	2073.63
589.79	2067.47
590.14	2061.63
590.49	2054.99
590.84	2048.30
591.19	2042.08
591.54	2035.44
591.89	2027.85
592.25	2020.83
592.60	2013.57
592.95	2005.77
593.30	1998.44
593.65	1990.58
594.00	1983.29
594.35	1975.89
594.70	1967.61
595.05	1960.40
595.40	1953.12
595.75	1945.49
596.10	1939.26
596.45	1932.40
596.80	1926.05
597.15	1919.40
597.50	1912.35
597.85	1905.82
598.19	1899.30
598.54	1892.39
598.89	1885.80
599.24	1879.96
599.59	1873.35
599.94	1866.91
600.29	1860.59
600.64	1853.90
600.99	1846.54
601.34	1839.75
601.69	1832.72
602.04	1825.87
602.39	1818.42
602.74	1811.45
603.08	1804.60
603.43	1797.90
603.78	1790.60
604.13	1783.47
604.48	1776.23
604.83	1769.38
605.18	1762.44
605.53	1754.34
605.87	1746.14
606.22	1738.93
606.57	1731.04
606.92	1723.71
607.27	1716.61
607.62	1709.82
607.96	1702.69
608.31	1696.19
608.66	1688.61
609.01	1681.20
609.36	1673.75
609.70	1665.85
610.05	1657.97
610.40	1650.49
610.75	1642.15
611.10	1634.48
611.44	1626.15
611.79	1618.04
612.14	1609.40
612.49	1600.19
612.83	1591.94
613.18	1583.84
613.53	1575.77
613.88	1567.21
614.22	1559.03
614.57	1550.68
614.92	1542.69
615.27	1535.18
615.61	1526.95
615.96	1519.00
616.31	1511.51
616.65	1504.12
617.00	1496.57
617.35	1488.83
617.70	1480.46
618.04	1471.81
618.39	1463.81
618.74	1456.26
619.08	1448.10
619.43	1440.76
619.78	1433.99
620.12	1426.86
620.47	1419.57
620.82	1411.38
621.16	1403.98
621.51	1396.42
621.85	1388.79
622.20	1380.38
622.55	1372.02
622.89	1364.14
623.24	1356.62
623.59	1349.16
623.93	1341.68
624.28	1334.55
624.62	1327.12
624.97	1320.04
625.32	1313.58
625.66	1306.41
626.01	1299.25
626.35	1291.91
626.70	1284.19
627.04	1276.52
627.39	1268.78
627.73	1261.31
628.08	1254.46
628.43	1247.25
628.77	1239.88
629.12	1232.35
629.46	1225.12
629.81	1217.79
630.15	1210.72
630.50	1203.41
630.84	1195.29
631.19	1187.45
631.53	1179.97
631.88	1172.46
632.22	1164.87
632.57	1157.59
632.91	1150.25
633.26	1142.88
633.60	1135.53
633.95	1128.50
634.29	1121.54
634.64	1114.98
634.98	1107.80
635.32	1100.78
635.67	1094.33
636.01	1087.85
636.36	1081.15
636.70	1074.69
637.05	1068.32
637.39	1061.94
637.73	1055.47
638.08	1049.79
638.42	1043.91
638.77	1037.55
639.11	1031.04
639.45	1024.80
639.80	1018.29
640.14	1011.94
640.49	1005.57
640.83	999.42
641.17	993.25
641.52	987.06
641.86	980.66
642.20	974.91
642.55	968.68
642.89	962.18
643.23	955.66
643.58	949.93
643.92	943.85
644.26	937.78
644.61	931.79
644.95	925.90
645.29	919.30
645.64	912.59
645.98	906.35
646.32	900.67
646.66	894.73
647.01	888.98
647.35	883.38
647.69	877.61
648.04	872.10
648.38	866.41
648.72	860.39
649.06	854.43
649.41	848.51
649.75	842.66
650.09	836.76
650.43	831.04
650.78	824.98
651.12	819.11
651.46	813.43
651.80	807.78
652.14	802.36
652.49	797.05
652.83	791.90
653.17	786.25
653.51	780.52
653.85	775.15
654.20	769.51
654.54	763.50
654.88	757.69
655.22	751.86
655.56	746.12
655.90	740.71
656.25	735.49
656.59	730.19
656.93	725.12
657.27	720.04
657.61	714.66
657.95	709.57
658.29	704.51
658.64	699.34
658.98	694.00
659.32	688.62
659.66	683.44
660.00	678.22
660.34	673.34
660.68	668.47
661.02	663.43
661.36	658.76
661.70	654.40
662.05	650.19
662.39	645.90
662.73	641.51
663.07	637.20
663.41	632.74
663.75	628.35
664.09	623.88
664.43	619.57
664.77	615.47
665.11	611.29
665.45	607.20
665.79	603.14
666.13	599.09
666.47	594.97
666.81	590.80
667.15	586.73
667.49	582.91
667.83	579.07
668.17	575.15
668.51	571.15
668.85	567.07
669.19	563.26
669.53	559.44
669.87	555.65
670.21	552.02
670.55	548.43
670.89	544.99
671.23	541.55
671.57	538.06
671.91	534.59
672.25	531.14
672.58	527.72
672.92	524.33
673.26	521.21
673.60	518.10
673.94	515.05
674.28	512.18
674.62	509.23
674.96	506.26
675.30	503.43
675.64	500.56
675.97	497.85
676.31	495.01
676.65	492.11
676.99	489.39
677.33	486.52
677.67	483.71
678.01	480.71
678.34	477.68
678.68	474.83
679.02	472.04
679.36	469.31
679.70	466.60
680.04	463.87
680.37	460.97
680.71	458.27
681.05	455.75
681.39	453.08
681.73	450.50
682.06	447.99
682.40	445.50
682.74	442.98
683.08	440.53
683.42	437.98
683.75	435.55
684.09	433.07
684.43	430.66
684.77	428.25
685.10	425.95
685.44	423.69
685.78	421.44
686.12	419.21
686.45	417.00
686.79	414.74
687.13	412.60
687.46	410.51
687.80	408.35
688.14	406.13
688.48	404.11
688.81	401.91
689.15	399.78
689.49	397.65
689.82	395.64
690.16	393.53
690.50	391.55
690.83	389.62
691.17	387.66
691.51	385.75
691.84	383.93
692.18	382.01
692.52	380.14
692.85	378.24
693.19	376.37
693.52	374.51
693.86	372.67
694.20	370.91
694.53	369.14
694.87	367.32
695.21	365.55
695.54	363.73
695.88	362.02
696.21	360.27
696.55	358.58
696.88	356.91
697.22	355.24
697.56	353.65
697.89	352.01
698.23	350.41
698.56	348.85
698.90	347.26
699.23	345.63
699.57	344.05
699.90	342.53
700.24	341.02
700.58	339.50
700.91	338.04
701.25	336.56
701.58	335.19
701.92	333.83
702.25	332.44
702.59	331.08
702.92	329.73
703.26	328.45
703.59	327.17
703.93	325.99
704.26	324.80
704.60	323.53
704.93	322.27
705.26	320.99
705.60	319.81
705.93	318.65
706.27	317.65
706.60	316.62
706.94	315.51
707.27	314.40
707.61	313.33
707.94	312.33
708.27	311.29
708.61	310.20
708.94	309.22
709.28	308.27
709.61	307.35
709.94	306.40
710.28	305.39
710.61	304.43
710.95	303.36
711.28	302.43
711.61	301.47
711.95	300.57
712.28	299.68
712.61	298.72
712.95	297.82
713.28	296.94
713.61	296.08
713.95	295.24
714.28	294.42
714.61	293.55
714.95	292.67
715.28	291.82
715.61	290.96
715.95	290.13
716.28	289.29
716.61	288.47
716.95	287.68
717.28	286.94
717.61	286.22
717.94	285.51
718.28	284.72
718.61	284.03
718.94	283.33
719.27	282.66
719.61	282.02
719.94	281.37
720.27	280.67
720.60	279.99
720.94	279.39
721.27	278.83
721.60	278.29
721.93	277.73
722.27	277.22
722.60	276.70
722.93	276.13
723.26	275.63
723.59	275.04
723.93	274.52
724.26	274.00
724.59	273.39
724.92	272.86
725.25	272.40
725.59	271.88
725.92	271.43
726.25	270.96
726.58	270.50
726.91	270.04
727.24	269.58
727.57	269.12
727.91	268.63
728.24	268.16
728.57	267.70
728.90	267.28
729.23	266.78
729.56	266.39
729.89	265.94
730.22	265.45
730.55	265.02
730.89	264.55
731.22	264.09
731.55	263.70
731.88	263.24
732.21	262.80
732.54	262.38
732.87	261.93
733.20	261.53
733.53	261.10
733.86	260.72
734.19	260.34
734.52	259.96
734.85	259.62
735.18	259.21
735.51	258.86
735.84	258.45
736.17	258.09
736.50	257.67
736.83	257.39
737.16	257.08
737.49	256.75
737.82	256.43
738.15	256.11
738.48	255.77
738.81	255.47
739.14	255.13
739.47	254.81
739.80	254.49
740.13	254.19
740.46	253.85
740.79	253.49
741.12	253.16
741.45	252.85
741.78	252.48
742.11	252.17
742.44	251.78
742.77	251.47
743.10	251.16
743.43	250.82
743.75	250.44
744.08	250.24
744.41	249.95
744.74	249.67
745.07	249.35
745.40	249.10
745.73	248.85
746.06	248.54
746.39	248.24
746.71	247.94
747.04	247.63
747.37	247.35
747.70	247.11
748.03	246.84
748.36	246.62
748.68	246.36
749.01	246.07
749.34	245.85
749.67	245.65
750.00	245.46
750.33	245.33
750.65	245.13
750.98	244.80
751.31	244.54
751.64	244.34
751.97	244.19
752.29	243.98
752.62	243.73
752.95	243.55
753.28	243.38
753.60	243.16
753.93	243.00
754.26	242.84
754.59	242.66
754.91	242.48
755.24	242.25
755.57	242.10
755.90	241.96
756.22	241.80
756.55	241.59
756.88	241.37
757.20	241.17
757.53	240.99
757.86	240.83
758.19	240.70
758.51	240.53
758.84	240.35
759.17	240.19
759.49	240.06
759.82	239.98
760.15	239.81
760.47	239.74
760.80	239.56
761.13	239.46
761.45	239.32
761.78	239.20
762.11	239.08
762.43	238.97
762.76	238.85
763.08	238.75
763.41	238.65
763.74	238.51
764.06	238.38
764.39	238.27
764.71	238.14
765.04	238.02
765.37	237.90
765.69	237.76
766.02	237.64
766.34	237.49
766.67	237.35
767.00	237.28
767.32	237.21
767.65	237.18
767.97	237.04
768.30	236.92
768.62	236.80
768.95	236.70
769.27	236.56
769.60	236.45
769.92	236.30
770.25	236.19
770.57	236.12
770.90	236.02
771.22	235.90
771.55	235.80
771.87	235.71
772.20	235.62
772.52	235.60
772.85	235.60
773.17	235.54
773.50	235.44
773.82	235.31
774.15	235.17
774.47	235.00
774.80	234.90
775.12	234.75
775.45	234.69
775.77	234.59
776.09	234.51
776.42	234.42
776.74	234.38
777.07	234.28
777.39	234.17
777.72	234.09
778.04	234.01
778.36	233.91
778.69	233.83
779.01	233.74
779.33	233.57
779.66	233.40
779.98	233.26
780.31	233.17
780.63	233.11
780.95	233.04
781.28	232.96
781.60	232.89
781.92	232.86
782.25	232.78
782.57	232.72
782.89	232.64
783.22	232.56
783.54	232.46
783.86	232.39
784.19	232.33
784.51	232.28
784.83	232.21
785.16	232.19
785.48	232.11
785.80	232.03
786.12	231.99
786.45	231.92
786.77	231.90
787.09	231.86
787.42	231.79
787.74	231.73
788.06	231.69
788.38	231.62
788.71	231.55
789.03	231.48
789.35	231.43
789.67	231.36
789.99	231.34
790.32	231.27
790.64	231.25
790.96	231.29
791.28	231.22
791.61	231.20
791.93	231.14
792.25	231.11
792.57	231.18
792.89	231.13
793.21	231.11
793.54	231.06
793.86	230.99
794.18	231.00
794.50	230.97
794.82	230.96
795.14	230.98
795.47	230.94
795.79	230.92
796.11	230.87
796.43	230.87
796.75	230.84
797.07	230.83
797.39	230.82
797.71	230.73
798.04	230.70
798.36	230.67
798.68	230.65
799.00	230.66
799.32	230.59
799.64	230.60
799.96	230.56
800.28	230.56
800.60	230.57
800.92	230.55
801.24	230.54
801.56	230.55
801.89	230.47
802.21	230.48
802.53	230.43
802.85	230.46
803.17	230.48
803.49	230.44
803.81	230.44
804.13	230.42
804.45	230.40
804.77	230.38
805.09	230.37
805.41	230.34
805.73	230.29
806.05	230.27
806.37	230.24
806.69	230.25
807.01	230.22
807.33	230.20
807.65	230.14
807.97	230.14
808.28	230.10
808.60	230.12
808.92	230.08
809.24	230.14
809.56	230.09
809.88	230.03
810.20	230.02
810.52	230.03
810.84	229.97
811.16	229.96
811.48	229.92
811.80	229.91
812.12	229.87
812.43	229.86
812.75	229.81
813.07	229.77
813.39	229.71
813.71	229.69
814.03	229.66
814.35	229.65
814.67	229.59
814.98	229.53
815.30	229.51
815.62	229.47
815.94	229.37
816.26	229.37
816.58	229.33
816.89	229.36
817.21	229.28
817.53	229.24
817.85	229.18
818.17	229.15
818.48	229.08
818.80	229.09
819.12	229.04
819.44	229.01
819.76	228.96
820.07	228.92
820.39	228.88
820.71	228.85
821.03	228.81
821.34	228.77
821.66	228.76
821.98	228.71
822.30	228.71
822.61	228.76
822.93	228.69
823.25	228.67
823.57	228.56
823.88	228.53
824.20	228.52
824.52	228.54
824.83	228.53
825.15	228.49
825.47	228.41
825.79	228.39
826.10	228.34
826.42	228.33
826.74	228.32
827.05	228.29
827.37	228.28
827.69	228.25
828.00	228.25
828.32	228.21
828.64	228.18
828.95	228.20
829.27	228.14
829.58	228.16
829.90	228.18
830.22	228.21
830.53	228.24
830.85	228.22
831.17	228.20
831.48	228.22
831.80	228.25
832.11	228.30
832.43	228.30
832.75	228.31
833.06	228.36
833.38	228.33
833.69	228.35
834.01	228.33
834.32	228.33
834.64	228.31
834.96	228.33
835.27	228.34
835.59	228.29
835.90	228.29
836.22	228.28
836.53	228.24
836.85	228.26
837.16	228.33
837.48	228.38
837.79	228.42
838.11	228.42
838.42	228.39
838.74	228.38
839.05	228.36
839.37	228.37
839.68	228.32
840.00	228.37
840.31	228.38
840.63	228.40
840.94	228.42
841.26	228.43
841.57	228.43
841.88	228.46
842.20	228.48
842.51	228.47
842.83	228.46
843.14	228.57
843.46	228.58
843.77	228.53
844.08	228.48
844.40	228.42
844.71	228.37
845.03	228.38
845.34	228.39
845.65	228.39
845.97	228.40
846.28	228.43
846.60	228.48
846.91	228.48
847.22	228.48
847.54	228.50
847.85	228.48
848.16	228.47
848.48	228.46
848.79	228.47
849.10	228.48
849.42	228.48
849.73	228.38
850.04	228.34
850.36	228.28
850.67	228.28
850.98	228.28
851.30	228.29
851.61	228.26
851.92	228.24
852.23	228.27
852.55	228.27
852.86	228.24
853.17	228.18
853.49	228.15
853.80	228.16
854.11	228.17
854.42	228.20
854.74	228.20
855.05	228.15
855.36	228.12
855.67	228.13
855.99	228.12
856.30	228.23
856.61	228.23
856.92	228.21
857.23	228.22
857.55	228.23
857.86	228.21
858.17	228.21
858.48	228.20
858.79	228.14
859.11	228.10
859.42	228.09
859.73	228.06
860.04	228.06
860.35	228.00
860.66	227.92
860.98	227.89
861.29	227.89
861.60	227.87
861.91	227.87
862.22	227.81
862.53	227.78
862.84	227.63
863.16	227.64
863.47	227.64
863.78	227.61
864.09	227.62
864.40	227.61
864.71	227.62
865.02	227.58
865.33	227.59
865.64	227.57
865.95	227.58
866.27	227.64
866.58	227.64
866.89	227.64
867.20	227.67
867.51	227.66
867.82	227.61
868.13	227.69
868.44	227.66
868.75	227.65
869.06	227.69
869.37	227.70
869.68	227.69
869.99	227.69
870.30	227.69
870.61	227.66
870.92	227.67
871.23	227.64
871.54	227.67
871.85	227.71
872.16	227.73
872.47	227.70
872.78	227.67
873.09	227.69
873.40	227.68
873.71	227.67
874.02	227.68
874.33	227.71
874.64	227.70
874.95	227.71
875.26	227.72
875.56	227.71
875.87	227.73
876.18	227.70
876.49	227.83
876.80	227.84
877.11	227.83
877.42	227.85
877.73	227.89
878.04	227.89
878.35	227.89
878.66	227.88
878.96	227.91
879.27	227.89
879.58	227.87
879.89	227.89
880.20	227.91
880.51	227.90
880.82	227.92
881.12	227.90
881.43	227.90
881.74	227.91
882.05	227.92
882.36	227.94
882.67	227.98
882.97	227.89
883.28	227.88
883.59	227.89
883.90	227.90
884.21	227.89
884.51	227.88
884.82	227.84
885.13	227.88
885.44	227.90
885.74	227.92
886.05	227.90
886.36	227.90
886.67	227.88
886.98	227.92
887.28	227.93
887.59	227.94
887.90	227.96
888.20	227.97
888.51	227.98
888.82	227.92
889.13	227.91
889.43	227.97
889.74	227.97
890.05	227.98
890.35	227.99
890.66	228.00
890.97	228.01
891.28	228.00
891.58	227.99
891.89	227.96
892.20	227.91
892.50	227.92
892.81	227.91
893.12	227.90
893.42	227.86
893.73	227.82
894.04	227.79
894.34	227.79
894.65	227.73
894.95	227.71
895.26	227.69
895.57	227.68
895.87	227.59
896.18	227.61
896.48	227.58
896.79	227.53
897.10	227.50
897.40	227.45
897.71	227.47
898.01	227.48
898.32	227.47
898.63	227.47
898.93	227.49
899.24	227.50
899.54	227.49
899.85	227.48
900.15	227.50
900.46	227.53
900.76	227.54
901.07	227.54
901.38	227.51
901.68	227.56
901.99	227.53
902.29	227.52
902.60	227.46
902.90	227.45
903.21	227.40
903.51	227.42
903.82	227.48
904.12	227.43
904.43	227.45
904.73	227.42
905.03	227.45
905.34	227.51
905.64	227.47
905.95	227.50
906.25	227.49
906.56	227.47
906.86	227.43
907.17	227.41
907.47	227.43
907.77	227.43
908.08	227.41
908.38	227.39
908.69	227.38
908.99	227.41
909.30	227.42
909.60	227.47
909.90	227.50
910.21	227.46
910.51	227.47
910.81	227.42
911.12	227.44
911.42	227.43
911.73	227.34
912.03	227.36
912.33	227.32
912.64	227.33
912.94	227.30
913.24	227.30
913.55	227.31
913.85	227.33
914.15	227.34
914.46	227.37
914.76	227.38
915.06	227.41
915.37	227.40
915.67	227.39
915.97	227.40
916.27	227.38
916.58	227.40
916.88	227.42
917.18	227.42
917.49	227.49
917.79	227.48
918.09	227.52
918.39	227.56
918.70	227.58
919.00	227.58
919.30	227.66
919.60	227.69
919.91	227.67
920.21	227.68
920.51	227.66
920.81	227.67
921.12	227.73
921.42	227.74
921.72	227.77
922.02	227.79
922.32	227.79
922.63	227.78
922.93	227.82
923.23	227.81
923.53	227.80
923.83	227.77
924.13	227.79
924.44	227.76
924.74	227.74
925.04	227.76
925.34	227.76
925.64	227.69
925.94	227.68
926.24	227.72
926.55	227.70
926.85	227.73
927.15	227.72
927.45	227.67
927.75	227.67
928.05	227.62
928.35	227.60
928.65	227.64
928.95	227.65
929.26	227.60
929.56	227.61
929.86	227.64
930.16	227.58
930.46	227.59
930.76	227.63
931.06	227.59
931.36	227.57
931.66	227.56
931.96	227.57
932.26	227.57
932.56	227.52
932.86	227.53
933.16	227.50
933.46	227.48
933.76	227.46
934.06	227.46
934.36	227.52
934.66	227.54
934.96	227.48
935.26	227.48
935.56	227.48
935.86	227.49
936.16	227.45
936.46	227.46
936.76	227.43
937.06	227.39
937.36	227.40
937.66	227.38
937.96	227.39
938.26	227.34
938.56	227.32
938.86	227.33
939.16	227.34
939.46	227.38
939.76	227.40
940.06	227.41
940.35	227.39
940.65	227.33
940.95	227.31
941.25	227.27
941.55	227.26
941.85	227.28
942.15	227.26
942.45	227.31
942.75	227.34
943.04	227.35
943.34	227.36
943.64	227.36
943.94	227.34
944.24	227.35
944.54	227.39
944.84	227.43
945.13	227.42
945.43	227.41
945.73	227.38
946.03	227.35
946.33	227.36
946.62	227.35
946.92	227.34
947.22	227.37
947.52	227.42
947.82	227.47
948.11	227.47
948.41	227.42
948.71	227.40
949.01	227.40
949.31	227.41
949.60	227.40
949.90	227.42
950.20	227.45
950.50	227.46
950.79	227.46
951.09	227.46
951.39	227.47
951.69	227.48
951.98	227.50
952.28	227.49
952.58	227.49
952.87	227.47
953.17	227.54
953.47	227.54
953.76	227.55
954.06	227.50
954.36	227.50
954.66	227.55
954.95	227.55
955.25	227.57
955.55	227.59
955.84	227.56
956.14	227.54
956.44	227.55
956.73	227.55
957.03	227.58
957.32	227.57
957.62	227.55
957.92	227.56
958.21	227.57
958.51	227.71
958.81	227.71
959.10	227.74
959.40	227.71
959.69	227.67
959.99	227.68
960.29	227.65
960.58	227.63
960.88	227.68
961.17	227.65
961.47	227.63
961.76	227.60
962.06	227.65
962.36	227.66
962.65	227.62
962.95	227.61
963.24	227.57
963.54	227.55
963.83	227.58
964.13	227.53
964.42	227.48
964.72	227.40
965.01	227.40
965.31	227.38
965.60	227.36
965.90	227.43
966.19	227.38
966.49	227.40
966.78	227.38
967.08	227.33
967.37	227.34
967.67	227.32
967.96	227.32
968.26	227.28
968.55	227.27
968.85	227.27
969.14	227.26
969.43	227.26
969.73	227.24
970.02	227.21
970.32	227.21
970.61	227.21
970.91	227.16
971.20	227.15
971.49	227.12
971.79	227.11
972.08	227.03
972.38	227.05
972.67	227.03
972.96	227.03
973.26	227.03
973.55	227.04
973.85	227.04
974.14	227.03
974.43	227.00
974.73	226.98
975.02	226.96
975.31	226.97
975.61	226.96
975.90	226.97
976.19	226.95
976.49	226.96
976.78	226.97
977.07	226.94
977.37	226.92
977.66	226.94
977.95	226.93
978.24	226.95
978.54	226.96
978.83	226.96
979.12	226.96
979.42	226.97
979.71	226.94
980.00	226.92
980.29	226.93
980.59	226.94
980.88	226.96
981.17	226.97
981.46	226.97
981.76	226.97
982.05	226.98
982.34	226.99
982.63	226.98
982.93	226.93
983.22	227.00
983.51	227.01
983.80	227.04
984.09	227.06
984.39	227.04
984.68	227.04
984.97	227.05
985.26	227.05
985.55	227.02
985.85	227.02
986.14	227.04
986.43	227.06
986.72	227.09
987.01	227.06
987.30	227.07
987.59	227.06
987.89	227.06
988.18	227.07
988.47	227.08
988.76	227.06
989.05	227.10
989.34	227.10
989.63	227.14
989.92	227.11
990.22	227.12
990.51	227.11
990.80	227.11
991.09	227.12
991.38	227.15
991.67	227.18
991.96	227.20
992.25	227.19
992.54	227.17
992.83	227.18
993.12	227.21
993.41	227.26
993.70	227.32
993.99	227.35
994.28	227.35
994.58	227.39
994.87	227.41
995.16	227.42
995.45	227.38
995.74	227.37
996.03	227.40
996.32	227.41
996.61	227.45
996.90	227.46
997.19	227.47
997.48	227.46
997.77	227.48
998.06	227.48
998.34	227.49
998.63	227.53
998.92	227.53
999.21	227.57
999.50	227.55
999.79	227.52
1000.08	227.47
1000.37	227.49
1000.66	227.46
1000.95	227.48
1001.24	227.50
1001.53	227.54
1001.82	227.52
1002.11	227.51
1002.40	227.50
1002.68	227.57
1002.97	227.60
1003.26	227.61
1003.55	227.59
1003.84	227.61
1004.13	227.60
1004.42	227.62
1004.71	227.60
1004.99	227.58
1005.28	227.59
1005.57	227.57
1005.86	227.56
1006.15	227.53
1006.44	227.50
1006.72	227.52
1007.01	227.52
1007.30	227.49
1007.59	227.47
1007.88	227.47
1008.17	227.48
1008.45	227.45
1008.74	227.38
1009.03	227.34
1009.32	227.29
1009.60	227.30
1009.89	227.25
1010.18	227.24
1010.47	227.20
1010.76	227.19
1011.04	227.17
1011.33	227.13
1011.62	227.12
1011.91	227.11
1012.19	227.15
1012.48	227.15
1012.77	227.12
1013.05	227.12
1013.34	227.13
1013.63	227.13
1013.92	227.13
1014.20	227.13
1014.49	227.14
1014.78	227.13
1015.06	227.08
1015.35	227.10
1015.64	227.09
1015.92	227.11
1016.21	227.07
1016.50	227.09
1016.78	227.10
1017.07	227.13
1017.36	227.13
1017.64	227.10
1017.93	227.10
1018.22	227.09
1018.50	227.10
1018.79	227.08
1019.08	227.06
1019.36	227.04
1019.65	227.01
1019.93	227.03
1020.22	227.02
1020.51	227.06
1020.79	227.05
1021.08	227.17
1021.36	226.85
1021.65	226.97
1021.94	227.20
1022.22	226.79
1022.51	227.05
1022.79	227.33
1023.08	227.43
1023.36	227.95
1023.65	226.61
>>>>>End Processed Spectral Data<<<<<
