SpectraSuite Data File
++++++++++++++++++++++++++++++++++++
Date: Fri Feb 01 15:07:42 EST 2013
User: group
Dark Spectrum Present: No
Reference Spectrum Present: No
Number of Sampled Component Spectra: 1
Spectrometers: USB2E7196
Integration Time (usec): 35000 (USB2E7196)
Spectra Averaged: 100 (USB2E7196)
Boxcar Smoothing: 10 (USB2E7196)
Correct for Electrical Dark: No (USB2E7196)
Strobe/Lamp Enabled: No (USB2E7196)
Correct for Detector Non-linearity: No (USB2E7196)
Correct for Stray Light: No (USB2E7196)
Number of Pixels in Processed Spectrum: 2048
>>>>>Begin Processed Spectral Data<<<<<
339.09	0.00
339.48	214.82
339.86	216.17
340.24	217.91
340.63	219.39
341.01	222.76
341.39	222.18
341.78	223.62
342.16	224.70
342.54	224.54
342.93	213.47
343.31	224.27
343.69	224.82
344.07	225.31
344.46	225.72
344.84	226.11
345.22	226.31
345.60	226.55
345.99	226.72
346.37	226.84
346.75	226.95
347.13	226.99
347.52	227.09
347.90	227.17
348.28	227.21
348.66	227.24
349.05	227.22
349.43	227.29
349.81	227.31
350.19	227.32
350.57	227.35
350.96	227.40
351.34	227.47
351.72	227.57
352.10	227.63
352.48	227.72
352.87	227.76
353.25	227.86
353.63	227.93
354.01	228.00
354.39	228.05
354.77	228.11
355.15	228.21
355.54	228.28
355.92	228.27
356.30	228.32
356.68	228.43
357.06	228.52
357.44	228.55
357.82	228.60
358.20	228.70
358.58	228.78
358.97	228.80
359.35	228.87
359.73	228.94
360.11	228.99
360.49	229.06
360.87	229.09
361.25	229.13
361.63	229.19
362.01	229.23
362.39	229.28
362.77	229.33
363.15	229.33
363.53	229.33
363.91	229.39
364.29	229.46
364.67	229.41
365.05	229.41
365.43	229.42
365.81	229.45
366.19	229.48
366.57	229.51
366.95	229.54
367.33	229.50
367.71	229.44
368.09	229.46
368.47	229.42
368.85	229.42
369.23	229.39
369.61	229.32
369.99	229.32
370.37	229.31
370.75	229.34
371.13	229.31
371.51	229.26
371.89	229.23
372.27	229.15
372.65	229.09
373.03	229.07
373.41	229.01
373.78	228.96
374.16	228.86
374.54	228.79
374.92	228.72
375.30	228.68
375.68	228.61
376.06	228.53
376.44	228.44
376.82	228.37
377.19	228.28
377.57	228.22
377.95	228.13
378.33	228.07
378.71	227.94
379.09	227.87
379.47	227.82
379.84	227.73
380.22	227.62
380.60	227.54
380.98	227.49
381.36	227.43
381.73	227.36
382.11	227.29
382.49	227.17
382.87	227.10
383.25	227.02
383.62	227.09
384.00	227.02
384.38	226.96
384.76	226.93
385.13	226.94
385.51	226.90
385.89	226.82
386.27	226.78
386.64	226.72
387.02	226.65
387.40	226.60
387.78	226.54
388.15	226.56
388.53	226.51
388.91	226.44
389.29	226.39
389.66	226.35
390.04	226.33
390.42	226.37
390.79	226.36
391.17	226.34
391.55	226.22
391.92	226.23
392.30	226.25
392.68	226.27
393.05	226.26
393.43	226.23
393.81	226.27
394.18	226.25
394.56	226.26
394.94	226.34
395.31	226.36
395.69	226.41
396.06	226.47
396.44	226.51
396.82	226.56
397.19	226.69
397.57	226.78
397.95	226.81
398.32	226.82
398.70	226.90
399.07	226.98
399.45	227.07
399.82	227.17
400.20	227.24
400.58	227.30
400.95	227.33
401.33	227.44
401.70	227.60
402.08	227.73
402.45	227.82
402.83	227.92
403.20	228.02
403.58	228.15
403.95	228.28
404.33	228.42
404.71	228.58
405.08	228.75
405.46	228.86
405.83	229.03
406.21	229.17
406.58	229.33
406.96	229.52
407.33	229.70
407.70	229.89
408.08	230.17
408.45	230.38
408.83	230.64
409.20	230.90
409.58	231.04
409.95	231.28
410.33	231.59
410.70	231.83
411.08	232.14
411.45	232.44
411.82	232.74
412.20	233.09
412.57	233.47
412.95	233.76
413.32	234.16
413.69	234.58
414.07	235.04
414.44	235.53
414.82	236.01
415.19	236.57
415.56	237.12
415.94	237.62
416.31	238.26
416.68	238.88
417.06	239.61
417.43	240.34
417.81	241.12
418.18	241.84
418.55	242.71
418.93	243.62
419.30	244.49
419.67	245.43
420.04	246.42
420.42	247.42
420.79	248.62
421.16	249.79
421.54	250.99
421.91	252.20
422.28	253.48
422.66	254.81
423.03	256.11
423.40	257.47
423.77	258.91
424.15	260.31
424.52	261.82
424.89	263.40
425.26	264.92
425.64	266.38
426.01	268.01
426.38	269.70
426.75	271.32
427.13	273.08
427.50	274.88
427.87	276.79
428.24	278.69
428.61	280.43
428.99	282.35
429.36	284.45
429.73	286.54
430.10	288.54
430.47	290.59
430.85	292.73
431.22	294.98
431.59	297.38
431.96	299.64
432.33	302.13
432.70	304.48
433.08	307.35
433.45	309.99
433.82	312.58
434.19	315.44
434.56	318.27
434.93	320.90
435.30	323.51
435.68	326.41
436.05	329.22
436.42	332.05
436.79	334.63
437.16	337.33
437.53	340.16
437.90	342.99
438.27	345.78
438.64	348.59
439.01	351.12
439.38	353.30
439.75	355.46
440.13	357.98
440.50	360.36
440.87	362.20
441.24	364.14
441.61	366.33
441.98	367.83
442.35	369.66
442.72	371.55
443.09	373.36
443.46	374.31
443.83	374.87
444.20	375.34
444.57	376.10
444.94	376.38
445.31	376.72
445.68	377.05
446.05	377.10
446.42	376.69
446.79	376.28
447.16	375.88
447.53	375.60
447.90	374.41
448.27	373.26
448.64	371.62
449.01	370.50
449.37	368.51
449.74	366.57
450.11	364.30
450.48	361.82
450.85	359.28
451.22	357.12
451.59	355.10
451.96	353.14
452.33	350.53
452.70	348.15
453.07	345.31
453.43	342.38
453.80	339.60
454.17	336.93
454.54	334.35
454.91	331.61
455.28	328.90
455.65	326.39
456.02	323.88
456.38	321.74
456.75	319.01
457.12	316.73
457.49	314.53
457.86	312.37
458.23	310.50
458.59	308.50
458.96	306.45
459.33	304.62
459.70	302.78
460.07	301.34
460.43	299.63
460.80	298.00
461.17	296.60
461.54	295.10
461.91	293.70
462.27	292.32
462.64	291.06
463.01	289.71
463.38	288.44
463.74	287.08
464.11	285.87
464.48	284.90
464.85	283.81
465.21	282.93
465.58	281.99
465.95	280.88
466.32	279.91
466.68	278.96
467.05	278.05
467.42	277.15
467.78	276.19
468.15	275.33
468.52	274.64
468.88	273.75
469.25	272.94
469.62	272.30
469.98	271.61
470.35	270.99
470.72	270.38
471.08	269.72
471.45	269.20
471.82	268.70
472.18	268.10
472.55	267.66
472.92	267.12
473.28	266.64
473.65	266.19
474.02	265.74
474.38	265.38
474.75	265.05
475.11	264.70
475.48	264.41
475.85	264.19
476.21	263.95
476.58	263.77
476.94	263.68
477.31	263.49
477.67	263.34
478.04	263.24
478.41	263.22
478.77	263.21
479.14	263.16
479.50	263.17
479.87	263.21
480.23	263.29
480.60	263.34
480.96	263.41
481.33	263.66
481.69	263.85
482.06	264.06
482.42	264.25
482.79	264.52
483.15	264.85
483.52	265.22
483.88	265.59
484.25	265.97
484.61	266.37
484.98	266.85
485.34	267.39
485.71	267.96
486.07	268.54
486.44	269.11
486.80	269.78
487.17	270.53
487.53	271.33
487.90	272.21
488.26	273.15
488.62	274.19
488.99	275.15
489.35	276.19
489.72	277.30
490.08	278.51
490.44	279.69
490.81	281.03
491.17	282.37
491.54	283.86
491.90	285.38
492.26	286.99
492.63	288.67
492.99	290.43
493.36	292.31
493.72	294.35
494.08	296.46
494.45	298.69
494.81	301.03
495.17	303.46
495.54	305.98
495.90	308.64
496.26	311.36
496.63	314.32
496.99	317.45
497.35	320.72
497.72	324.08
498.08	327.59
498.44	331.27
498.80	335.15
499.17	339.15
499.53	343.28
499.89	347.68
500.26	352.21
500.62	356.87
500.98	361.83
501.34	366.89
501.71	372.20
502.07	377.63
502.43	383.16
502.79	388.99
503.16	395.04
503.52	401.29
503.88	407.69
504.24	414.29
504.60	421.13
504.97	428.21
505.33	435.46
505.69	443.11
506.05	450.84
506.41	458.67
506.78	466.81
507.14	475.30
507.50	484.01
507.86	492.96
508.22	502.12
508.59	511.29
508.95	520.86
509.31	530.59
509.67	540.64
510.03	551.02
510.39	561.57
510.75	572.36
511.12	583.37
511.48	594.69
511.84	606.11
512.20	617.67
512.56	629.59
512.92	641.82
513.28	654.15
513.64	666.71
514.00	679.46
514.37	692.35
514.73	705.42
515.09	718.38
515.45	731.69
515.81	745.31
516.17	759.30
516.53	773.38
516.89	787.68
517.25	801.88
517.61	816.29
517.97	830.60
518.33	845.01
518.69	859.81
519.05	874.77
519.41	890.03
519.77	905.55
520.13	921.04
520.49	936.39
520.85	951.90
521.21	967.56
521.57	983.89
521.93	999.75
522.29	1016.08
522.65	1032.55
523.01	1048.87
523.37	1064.97
523.73	1081.14
524.09	1097.32
524.45	1113.66
524.81	1130.40
525.17	1147.29
525.53	1164.41
525.89	1181.39
526.25	1198.26
526.61	1214.79
526.97	1231.58
527.33	1248.20
527.68	1264.95
528.04	1281.59
528.40	1298.27
528.76	1315.43
529.12	1332.06
529.48	1349.03
529.84	1365.25
530.20	1381.86
530.56	1399.03
530.91	1416.55
531.27	1433.45
531.63	1449.92
531.99	1466.52
532.35	1482.52
532.71	1498.54
533.07	1514.84
533.42	1530.72
533.78	1546.82
534.14	1563.23
534.50	1578.58
534.86	1594.59
535.21	1609.76
535.57	1625.76
535.93	1641.37
536.29	1656.25
536.65	1671.34
537.00	1686.21
537.36	1701.55
537.72	1716.01
538.08	1730.41
538.44	1744.31
538.79	1758.33
539.15	1772.23
539.51	1786.25
539.87	1800.59
540.22	1814.34
540.58	1828.24
540.94	1841.98
541.29	1855.02
541.65	1867.72
542.01	1881.22
542.37	1893.43
542.72	1905.99
543.08	1917.92
543.44	1930.42
543.79	1941.77
544.15	1952.84
544.51	1964.43
544.87	1975.52
545.22	1986.49
545.58	1996.74
545.94	2006.39
546.29	2016.20
546.65	2025.98
547.01	2035.12
547.36	2044.05
547.72	2052.53
548.07	2060.37
548.43	2068.51
548.79	2076.56
549.14	2084.09
549.50	2091.39
549.86	2099.29
550.21	2106.53
550.57	2113.55
550.92	2119.97
551.28	2127.03
551.64	2134.19
551.99	2140.75
552.35	2146.85
552.70	2152.97
553.06	2158.67
553.41	2165.07
553.77	2171.26
554.13	2177.43
554.48	2183.56
554.84	2188.84
555.19	2194.21
555.55	2199.37
555.90	2203.68
556.26	2208.56
556.61	2213.21
556.97	2217.30
557.32	2221.37
557.68	2225.45
558.03	2229.79
558.39	2233.61
558.74	2238.22
559.10	2242.00
559.45	2245.64
559.81	2249.85
560.16	2253.58
560.52	2257.06
560.87	2260.49
561.23	2263.03
561.58	2266.00
561.94	2268.40
562.29	2270.96
562.64	2273.58
563.00	2276.12
563.35	2279.65
563.71	2282.69
564.06	2285.90
564.42	2288.70
564.77	2291.04
565.12	2293.26
565.48	2294.97
565.83	2296.72
566.19	2297.85
566.54	2298.81
566.89	2299.85
567.25	2300.27
567.60	2301.58
567.96	2303.11
568.31	2303.91
568.66	2304.82
569.02	2305.17
569.37	2305.33
569.72	2305.84
570.08	2305.74
570.43	2305.56
570.78	2304.66
571.14	2303.11
571.49	2301.64
571.84	2301.23
572.20	2299.89
572.55	2298.75
572.90	2297.28
573.26	2295.83
573.61	2293.94
573.96	2291.89
574.31	2288.68
574.67	2285.58
575.02	2281.93
575.37	2278.45
575.72	2274.45
576.08	2271.11
576.43	2267.72
576.78	2264.05
577.13	2260.98
577.49	2257.78
577.84	2254.24
578.19	2250.58
578.54	2246.65
578.90	2242.29
579.25	2236.64
579.60	2231.57
579.95	2226.44
580.30	2221.22
580.66	2215.83
581.01	2210.85
581.36	2205.92
581.71	2201.71
582.06	2197.13
582.42	2192.54
582.77	2187.08
583.12	2182.35
583.47	2177.42
583.82	2172.18
584.17	2166.75
584.53	2161.05
584.88	2155.28
585.23	2149.27
585.58	2143.60
585.93	2138.07
586.28	2133.36
586.63	2128.13
586.98	2122.95
587.34	2118.18
587.69	2113.20
588.04	2107.84
588.39	2101.98
588.74	2095.35
589.09	2089.08
589.44	2082.19
589.79	2076.09
590.14	2070.42
590.49	2063.79
590.84	2057.29
591.19	2051.20
591.54	2044.67
591.89	2037.08
592.25	2030.23
592.60	2023.07
592.95	2015.26
593.30	2007.81
593.65	1999.95
594.00	1993.00
594.35	1985.76
594.70	1977.75
595.05	1970.41
595.40	1963.06
595.75	1955.60
596.10	1949.26
596.45	1942.29
596.80	1936.10
597.15	1929.32
597.50	1922.22
597.85	1915.74
598.19	1908.95
598.54	1901.87
598.89	1895.21
599.24	1889.37
599.59	1882.58
599.94	1876.38
600.29	1870.18
600.64	1863.52
600.99	1855.91
601.34	1848.90
601.69	1841.78
602.04	1834.61
602.39	1827.25
602.74	1820.33
603.08	1813.61
603.43	1806.91
603.78	1799.80
604.13	1792.50
604.48	1785.06
604.83	1778.16
605.18	1770.99
605.53	1763.05
605.87	1754.88
606.22	1747.61
606.57	1739.64
606.92	1732.43
607.27	1725.10
607.62	1718.02
607.96	1710.82
608.31	1704.32
608.66	1696.64
609.01	1689.18
609.36	1681.70
609.70	1673.64
610.05	1665.58
610.40	1657.72
610.75	1649.36
611.10	1641.53
611.44	1633.24
611.79	1625.26
612.14	1616.58
612.49	1607.69
612.83	1599.42
613.18	1591.33
613.53	1583.19
613.88	1574.68
614.22	1566.30
614.57	1557.74
614.92	1549.88
615.27	1542.26
615.61	1533.85
615.96	1525.92
616.31	1518.36
616.65	1511.04
617.00	1503.55
617.35	1496.00
617.70	1487.66
618.04	1479.21
618.39	1471.13
618.74	1463.57
619.08	1455.38
619.43	1447.80
619.78	1440.86
620.12	1433.62
620.47	1426.11
620.82	1418.02
621.16	1410.64
621.51	1403.10
621.85	1395.52
622.20	1386.97
622.55	1378.65
622.89	1371.05
623.24	1363.43
623.59	1356.15
623.93	1348.76
624.28	1341.51
624.62	1333.93
624.97	1326.86
625.32	1320.21
625.66	1313.17
626.01	1306.05
626.35	1298.63
626.70	1290.98
627.04	1283.19
627.39	1275.54
627.73	1268.23
628.08	1261.36
628.43	1254.01
628.77	1246.65
629.12	1239.17
629.46	1231.93
629.81	1224.52
630.15	1217.25
630.50	1209.95
630.84	1201.67
631.19	1193.71
631.53	1186.31
631.88	1178.90
632.22	1171.29
632.57	1163.99
632.91	1156.55
633.26	1149.18
633.60	1141.92
633.95	1134.95
634.29	1128.03
634.64	1121.29
634.98	1113.96
635.32	1106.93
635.67	1100.44
636.01	1093.81
636.36	1087.03
636.70	1080.72
637.05	1074.22
637.39	1067.81
637.73	1061.32
638.08	1055.53
638.42	1049.56
638.77	1043.06
639.11	1036.46
639.45	1030.21
639.80	1023.52
640.14	1017.04
640.49	1010.49
640.83	1004.18
641.17	997.83
641.52	991.48
641.86	985.12
642.20	979.37
642.55	973.06
642.89	966.51
643.23	960.05
643.58	954.27
643.92	948.02
644.26	941.88
644.61	935.82
644.95	929.75
645.29	923.08
645.64	916.29
645.98	910.01
646.32	904.21
646.66	898.16
647.01	892.35
647.35	886.76
647.69	880.90
648.04	875.39
648.38	869.60
648.72	863.54
649.06	857.50
649.41	851.50
649.75	845.50
650.09	839.61
650.43	833.81
650.78	827.67
651.12	821.68
651.46	816.03
651.80	810.25
652.14	804.84
652.49	799.48
652.83	794.34
653.17	788.62
653.51	782.88
653.85	777.47
654.20	771.80
654.54	765.79
654.88	760.06
655.22	754.19
655.56	748.51
655.90	743.13
656.25	737.83
656.59	732.55
656.93	727.45
657.27	722.25
657.61	716.84
657.95	711.77
658.29	706.78
658.64	701.57
658.98	696.41
659.32	691.00
659.66	685.84
660.00	680.55
660.34	675.63
660.68	670.74
661.02	665.65
661.36	661.02
661.70	656.52
662.05	652.22
662.39	647.94
662.73	643.54
663.07	639.15
663.41	634.75
663.75	630.27
664.09	625.79
664.43	621.53
664.77	617.45
665.11	613.19
665.45	609.06
665.79	605.05
666.13	600.89
666.47	596.84
666.81	592.71
667.15	588.65
667.49	584.89
667.83	581.15
668.17	577.34
668.51	573.28
668.85	569.34
669.19	565.49
669.53	561.62
669.87	557.77
670.21	554.16
670.55	550.61
670.89	547.18
671.23	543.79
671.57	540.27
671.91	536.75
672.25	533.33
672.58	529.86
672.92	526.45
673.26	523.26
673.60	520.13
673.94	517.06
674.28	514.18
674.62	511.21
674.96	508.08
675.30	505.13
675.64	502.21
675.97	499.44
676.31	496.58
676.65	493.67
676.99	490.99
677.33	488.13
677.67	485.34
678.01	482.34
678.34	479.31
678.68	476.46
679.02	473.64
679.36	470.89
679.70	468.14
680.04	465.35
680.37	462.51
680.71	459.69
681.05	457.04
681.39	454.33
681.73	451.72
682.06	449.21
682.40	446.67
682.74	444.14
683.08	441.57
683.42	438.98
683.75	436.48
684.09	433.89
684.43	431.44
684.77	428.92
685.10	426.60
685.44	424.32
685.78	422.03
686.12	419.83
686.45	417.52
686.79	415.26
687.13	413.09
687.46	410.94
687.80	408.83
688.14	406.68
688.48	404.62
688.81	402.33
689.15	400.19
689.49	398.06
689.82	396.00
690.16	393.94
690.50	391.98
690.83	390.05
691.17	388.09
691.51	386.16
691.84	384.31
692.18	382.33
692.52	380.35
692.85	378.40
693.19	376.47
693.52	374.68
693.86	372.85
694.20	371.12
694.53	369.35
694.87	367.50
695.21	365.70
695.54	363.87
695.88	362.17
696.21	360.46
696.55	358.81
696.88	357.16
697.22	355.54
697.56	353.95
697.89	352.33
698.23	350.73
698.56	349.13
698.90	347.60
699.23	346.01
699.57	344.44
699.90	342.92
700.24	341.40
700.58	339.84
700.91	338.34
701.25	336.85
701.58	335.48
701.92	334.12
702.25	332.75
702.59	331.39
702.92	330.04
703.26	328.72
703.59	327.44
703.93	326.23
704.26	325.00
704.60	323.70
704.93	322.45
705.26	321.23
705.60	320.08
705.93	318.92
706.27	317.89
706.60	316.89
706.94	315.87
707.27	314.78
707.61	313.74
707.94	312.78
708.27	311.74
708.61	310.64
708.94	309.71
709.28	308.75
709.61	307.82
709.94	306.89
710.28	305.86
710.61	304.90
710.95	303.88
711.28	302.96
711.61	302.04
711.95	301.11
712.28	300.20
712.61	299.23
712.95	298.29
713.28	297.46
713.61	296.60
713.95	295.71
714.28	294.86
714.61	294.03
714.95	293.18
715.28	292.33
715.61	291.50
715.95	290.64
716.28	289.75
716.61	288.93
716.95	288.14
717.28	287.45
717.61	286.74
717.94	285.98
718.28	285.20
718.61	284.47
718.94	283.79
719.27	283.14
719.61	282.54
719.94	281.86
720.27	281.10
720.60	280.39
720.94	279.74
721.27	279.17
721.60	278.57
721.93	278.00
722.27	277.44
722.60	276.90
722.93	276.34
723.26	275.84
723.59	275.24
723.93	274.70
724.26	274.12
724.59	273.49
724.92	272.96
725.25	272.44
725.59	271.92
725.92	271.38
726.25	270.82
726.58	270.29
726.91	269.80
727.24	269.36
727.57	268.90
727.91	268.35
728.24	267.88
728.57	267.39
728.90	266.91
729.23	266.42
729.56	265.94
729.89	265.45
730.22	264.94
730.55	264.46
730.89	264.03
731.22	263.60
731.55	263.17
731.88	262.76
732.21	262.32
732.54	261.86
732.87	261.46
733.20	261.10
733.53	260.69
733.86	260.31
734.19	259.87
734.52	259.50
734.85	259.20
735.18	258.75
735.51	258.38
735.84	257.99
736.17	257.64
736.50	257.28
736.83	257.04
737.16	256.73
737.49	256.41
737.82	256.08
738.15	255.75
738.48	255.40
738.81	255.06
739.14	254.74
739.47	254.44
739.80	254.15
740.13	253.83
740.46	253.54
740.79	253.20
741.12	252.89
741.45	252.58
741.78	252.26
742.11	252.00
742.44	251.69
742.77	251.38
743.10	251.04
743.43	250.74
743.75	250.36
744.08	250.21
744.41	249.95
744.74	249.65
745.07	249.37
745.40	249.17
745.73	248.94
746.06	248.68
746.39	248.43
746.71	248.13
747.04	247.85
747.37	247.59
747.70	247.37
748.03	247.13
748.36	246.90
748.68	246.65
749.01	246.42
749.34	246.20
749.67	245.99
750.00	245.81
750.33	245.66
750.65	245.42
750.98	245.07
751.31	244.86
751.64	244.65
751.97	244.49
752.29	244.22
752.62	243.98
752.95	243.74
753.28	243.55
753.60	243.36
753.93	243.21
754.26	243.00
754.59	242.80
754.91	242.59
755.24	242.42
755.57	242.24
755.90	242.02
756.22	241.88
756.55	241.71
756.88	241.54
757.20	241.32
757.53	241.15
757.86	241.00
758.19	240.80
758.51	240.63
758.84	240.43
759.17	240.31
759.49	240.17
759.82	240.09
760.15	239.94
760.47	239.83
760.80	239.65
761.13	239.51
761.45	239.34
761.78	239.19
762.11	239.04
762.43	238.89
762.76	238.77
763.08	238.62
763.41	238.48
763.74	238.33
764.06	238.19
764.39	238.03
764.71	237.90
765.04	237.79
765.37	237.62
765.69	237.47
766.02	237.32
766.34	237.18
766.67	236.98
767.00	236.89
767.32	236.81
767.65	236.75
767.97	236.64
768.30	236.54
768.62	236.45
768.95	236.35
769.27	236.23
769.60	236.14
769.92	235.99
770.25	235.87
770.57	235.73
770.90	235.60
771.22	235.53
771.55	235.41
771.87	235.33
772.20	235.26
772.52	235.25
772.85	235.26
773.17	235.17
773.50	235.10
773.82	234.97
774.15	234.81
774.47	234.65
774.80	234.54
775.12	234.43
775.45	234.35
775.77	234.23
776.09	234.14
776.42	234.04
776.74	233.99
777.07	233.91
777.39	233.86
777.72	233.80
778.04	233.71
778.36	233.66
778.69	233.60
779.01	233.55
779.33	233.40
779.66	233.22
779.98	233.14
780.31	233.08
780.63	233.04
780.95	233.00
781.28	232.92
781.60	232.87
781.92	232.82
782.25	232.74
782.57	232.68
782.89	232.62
783.22	232.55
783.54	232.46
783.86	232.43
784.19	232.33
784.51	232.33
784.83	232.26
785.16	232.18
785.48	232.11
785.80	232.02
786.12	231.97
786.45	231.92
786.77	231.86
787.09	231.81
787.42	231.76
787.74	231.70
788.06	231.69
788.38	231.63
788.71	231.58
789.03	231.57
789.35	231.56
789.67	231.50
789.99	231.46
790.32	231.41
790.64	231.34
790.96	231.42
791.28	231.32
791.61	231.30
791.93	231.27
792.25	231.24
792.57	231.31
792.89	231.29
793.21	231.29
793.54	231.25
793.86	231.24
794.18	231.18
794.50	231.13
794.82	231.09
795.14	231.07
795.47	231.08
795.79	231.03
796.11	230.99
796.43	230.97
796.75	230.94
797.07	230.94
797.39	230.94
797.71	230.82
798.04	230.82
798.36	230.77
798.68	230.73
799.00	230.73
799.32	230.67
799.64	230.65
799.96	230.61
800.28	230.59
800.60	230.55
800.92	230.58
801.24	230.59
801.56	230.57
801.89	230.53
802.21	230.51
802.53	230.50
802.85	230.47
803.17	230.49
803.49	230.44
803.81	230.41
804.13	230.37
804.45	230.37
804.77	230.35
805.09	230.35
805.41	230.32
805.73	230.27
806.05	230.21
806.37	230.18
806.69	230.13
807.01	230.07
807.33	230.06
807.65	229.98
807.97	229.95
808.28	229.94
808.60	229.92
808.92	229.85
809.24	229.86
809.56	229.83
809.88	229.81
810.20	229.81
810.52	229.77
810.84	229.72
811.16	229.66
811.48	229.60
811.80	229.62
812.12	229.59
812.43	229.55
812.75	229.47
813.07	229.42
813.39	229.40
813.71	229.38
814.03	229.32
814.35	229.28
814.67	229.22
814.98	229.16
815.30	229.15
815.62	229.12
815.94	229.03
816.26	229.01
816.58	228.94
816.89	228.91
817.21	228.88
817.53	228.84
817.85	228.83
818.17	228.80
818.48	228.71
818.80	228.72
819.12	228.68
819.44	228.65
819.76	228.64
820.07	228.61
820.39	228.59
820.71	228.60
821.03	228.58
821.34	228.55
821.66	228.56
821.98	228.53
822.30	228.48
822.61	228.53
822.93	228.50
823.25	228.51
823.57	228.49
823.88	228.49
824.20	228.48
824.52	228.49
824.83	228.50
825.15	228.51
825.47	228.46
825.79	228.46
826.10	228.47
826.42	228.48
826.74	228.51
827.05	228.50
827.37	228.48
827.69	228.48
828.00	228.50
828.32	228.49
828.64	228.48
828.95	228.52
829.27	228.49
829.58	228.48
829.90	228.48
830.22	228.47
830.53	228.49
830.85	228.48
831.17	228.45
831.48	228.46
831.80	228.46
832.11	228.47
832.43	228.48
832.75	228.47
833.06	228.54
833.38	228.52
833.69	228.50
834.01	228.50
834.32	228.49
834.64	228.48
834.96	228.46
835.27	228.46
835.59	228.43
835.90	228.44
836.22	228.43
836.53	228.42
836.85	228.43
837.16	228.44
837.48	228.46
837.79	228.50
838.11	228.49
838.42	228.49
838.74	228.51
839.05	228.51
839.37	228.54
839.68	228.44
840.00	228.44
840.31	228.48
840.63	228.47
840.94	228.45
841.26	228.45
841.57	228.47
841.88	228.48
842.20	228.46
842.51	228.41
842.83	228.41
843.14	228.47
843.46	228.46
843.77	228.44
844.08	228.44
844.40	228.40
844.71	228.35
845.03	228.32
845.34	228.28
845.65	228.24
845.97	228.23
846.28	228.23
846.60	228.19
846.91	228.15
847.22	228.15
847.54	228.17
847.85	228.14
848.16	228.09
848.48	228.03
848.79	228.08
849.10	228.09
849.42	228.05
849.73	227.96
850.04	227.94
850.36	227.88
850.67	227.83
850.98	227.82
851.30	227.82
851.61	227.81
851.92	227.76
852.23	227.77
852.55	227.73
852.86	227.71
853.17	227.68
853.49	227.66
853.80	227.66
854.11	227.62
854.42	227.65
854.74	227.63
855.05	227.60
855.36	227.53
855.67	227.52
855.99	227.50
856.30	227.59
856.61	227.59
856.92	227.56
857.23	227.56
857.55	227.54
857.86	227.51
858.17	227.49
858.48	227.51
858.79	227.48
859.11	227.48
859.42	227.46
859.73	227.44
860.04	227.46
860.35	227.41
860.66	227.41
860.98	227.36
861.29	227.38
861.60	227.39
861.91	227.42
862.22	227.38
862.53	227.36
862.84	227.23
863.16	227.27
863.47	227.27
863.78	227.28
864.09	227.28
864.40	227.32
864.71	227.34
865.02	227.32
865.33	227.35
865.64	227.39
865.95	227.40
866.27	227.47
866.58	227.46
866.89	227.49
867.20	227.48
867.51	227.49
867.82	227.50
868.13	227.55
868.44	227.53
868.75	227.59
869.06	227.62
869.37	227.65
869.68	227.62
869.99	227.64
870.30	227.65
870.61	227.65
870.92	227.62
871.23	227.62
871.54	227.65
871.85	227.68
872.16	227.65
872.47	227.67
872.78	227.64
873.09	227.65
873.40	227.65
873.71	227.67
874.02	227.66
874.33	227.63
874.64	227.61
874.95	227.62
875.26	227.60
875.56	227.60
875.87	227.61
876.18	227.60
876.49	227.71
876.80	227.69
877.11	227.70
877.42	227.73
877.73	227.77
878.04	227.74
878.35	227.72
878.66	227.76
878.96	227.74
879.27	227.74
879.58	227.75
879.89	227.74
880.20	227.73
880.51	227.77
880.82	227.80
881.12	227.81
881.43	227.80
881.74	227.77
882.05	227.76
882.36	227.76
882.67	227.75
882.97	227.66
883.28	227.65
883.59	227.65
883.90	227.65
884.21	227.64
884.51	227.65
884.82	227.65
885.13	227.58
885.44	227.59
885.74	227.58
886.05	227.55
886.36	227.57
886.67	227.56
886.98	227.58
887.28	227.56
887.59	227.55
887.90	227.54
888.20	227.53
888.51	227.54
888.82	227.51
889.13	227.49
889.43	227.54
889.74	227.50
890.05	227.50
890.35	227.49
890.66	227.43
890.97	227.38
891.28	227.35
891.58	227.38
891.89	227.34
892.20	227.32
892.50	227.33
892.81	227.29
893.12	227.28
893.42	227.24
893.73	227.24
894.04	227.22
894.34	227.25
894.65	227.24
894.95	227.23
895.26	227.24
895.57	227.29
895.87	227.15
896.18	227.18
896.48	227.16
896.79	227.13
897.10	227.15
897.40	227.14
897.71	227.15
898.01	227.12
898.32	227.15
898.63	227.12
898.93	227.11
899.24	227.12
899.54	227.11
899.85	227.10
900.15	227.08
900.46	227.08
900.76	227.10
901.07	227.11
901.38	227.11
901.68	227.16
901.99	227.14
902.29	227.19
902.60	227.19
902.90	227.21
903.21	227.24
903.51	227.23
903.82	227.27
904.12	227.29
904.43	227.32
904.73	227.34
905.03	227.35
905.34	227.45
905.64	227.44
905.95	227.46
906.25	227.45
906.56	227.47
906.86	227.49
907.17	227.47
907.47	227.48
907.77	227.48
908.08	227.43
908.38	227.42
908.69	227.44
908.99	227.48
909.30	227.47
909.60	227.48
909.90	227.51
910.21	227.49
910.51	227.46
910.81	227.46
911.12	227.46
911.42	227.49
911.73	227.41
912.03	227.42
912.33	227.43
912.64	227.46
912.94	227.44
913.24	227.44
913.55	227.44
913.85	227.43
914.15	227.43
914.46	227.45
914.76	227.44
915.06	227.45
915.37	227.45
915.67	227.45
915.97	227.46
916.27	227.45
916.58	227.47
916.88	227.48
917.18	227.47
917.49	227.53
917.79	227.52
918.09	227.53
918.39	227.56
918.70	227.57
919.00	227.57
919.30	227.60
919.60	227.59
919.91	227.57
920.21	227.58
920.51	227.58
920.81	227.59
921.12	227.63
921.42	227.61
921.72	227.59
922.02	227.57
922.32	227.56
922.63	227.55
922.93	227.59
923.23	227.59
923.53	227.60
923.83	227.51
924.13	227.52
924.44	227.49
924.74	227.49
925.04	227.45
925.34	227.41
925.64	227.37
925.94	227.30
926.24	227.33
926.55	227.30
926.85	227.31
927.15	227.24
927.45	227.20
927.75	227.17
928.05	227.15
928.35	227.14
928.65	227.13
928.95	227.15
929.26	227.10
929.56	227.11
929.86	227.11
930.16	227.09
930.46	227.06
930.76	227.06
931.06	227.01
931.36	226.98
931.66	226.99
931.96	226.98
932.26	227.01
932.56	226.98
932.86	226.98
933.16	226.93
933.46	226.92
933.76	226.93
934.06	226.94
934.36	226.94
934.66	226.94
934.96	226.91
935.26	226.88
935.56	226.89
935.86	226.88
936.16	226.85
936.46	226.85
936.76	226.83
937.06	226.83
937.36	226.85
937.66	226.88
937.96	226.84
938.26	226.80
938.56	226.79
938.86	226.78
939.16	226.81
939.46	226.84
939.76	226.90
940.06	226.88
940.35	226.87
940.65	226.86
940.95	226.88
941.25	226.88
941.55	226.90
941.85	226.93
942.15	226.92
942.45	226.95
942.75	226.97
943.04	227.01
943.34	227.01
943.64	227.00
943.94	227.01
944.24	227.05
944.54	227.09
944.84	227.12
945.13	227.15
945.43	227.15
945.73	227.14
946.03	227.10
946.33	227.12
946.62	227.12
946.92	227.13
947.22	227.15
947.52	227.16
947.82	227.17
948.11	227.15
948.41	227.15
948.71	227.14
949.01	227.14
949.31	227.14
949.60	227.16
949.90	227.17
950.20	227.19
950.50	227.20
950.79	227.20
951.09	227.21
951.39	227.21
951.69	227.19
951.98	227.23
952.28	227.27
952.58	227.28
952.87	227.30
953.17	227.33
953.47	227.33
953.76	227.33
954.06	227.32
954.36	227.28
954.66	227.30
954.95	227.31
955.25	227.33
955.55	227.33
955.84	227.28
956.14	227.34
956.44	227.34
956.73	227.35
957.03	227.33
957.32	227.33
957.62	227.30
957.92	227.32
958.21	227.30
958.51	227.36
958.81	227.33
959.10	227.36
959.40	227.38
959.69	227.38
959.99	227.42
960.29	227.43
960.58	227.44
960.88	227.46
961.17	227.47
961.47	227.44
961.76	227.43
962.06	227.46
962.36	227.42
962.65	227.42
962.95	227.37
963.24	227.35
963.54	227.34
963.83	227.36
964.13	227.35
964.42	227.34
964.72	227.30
965.01	227.34
965.31	227.28
965.60	227.27
965.90	227.30
966.19	227.23
966.49	227.20
966.78	227.17
967.08	227.16
967.37	227.16
967.67	227.14
967.96	227.16
968.26	227.13
968.55	227.13
968.85	227.13
969.14	227.14
969.43	227.15
969.73	227.14
970.02	227.10
970.32	227.09
970.61	227.06
970.91	227.02
971.20	226.98
971.49	226.99
971.79	226.98
972.08	226.93
972.38	226.93
972.67	226.93
972.96	226.96
973.26	226.94
973.55	226.94
973.85	226.96
974.14	226.95
974.43	226.98
974.73	226.95
975.02	226.94
975.31	226.96
975.61	226.98
975.90	226.96
976.19	226.97
976.49	226.98
976.78	227.03
977.07	227.06
977.37	227.07
977.66	227.09
977.95	227.06
978.24	227.07
978.54	227.11
978.83	227.10
979.12	227.15
979.42	227.16
979.71	227.16
980.00	227.16
980.29	227.19
980.59	227.17
980.88	227.22
981.17	227.24
981.46	227.21
981.76	227.20
982.05	227.29
982.34	227.31
982.63	227.30
982.93	227.32
983.22	227.33
983.51	227.36
983.80	227.37
984.09	227.42
984.39	227.41
984.68	227.41
984.97	227.44
985.26	227.40
985.55	227.41
985.85	227.40
986.14	227.44
986.43	227.39
986.72	227.41
987.01	227.40
987.30	227.39
987.59	227.41
987.89	227.45
988.18	227.40
988.47	227.40
988.76	227.41
989.05	227.37
989.34	227.36
989.63	227.40
989.92	227.40
990.22	227.36
990.51	227.36
990.80	227.33
991.09	227.35
991.38	227.37
991.67	227.35
991.96	227.34
992.25	227.33
992.54	227.37
992.83	227.34
993.12	227.35
993.41	227.38
993.70	227.41
993.99	227.42
994.28	227.44
994.58	227.47
994.87	227.46
995.16	227.47
995.45	227.49
995.74	227.40
996.03	227.39
996.32	227.41
996.61	227.44
996.90	227.45
997.19	227.41
997.48	227.40
997.77	227.41
998.06	227.39
998.34	227.35
998.63	227.31
998.92	227.29
999.21	227.27
999.50	227.22
999.79	227.18
1000.08	227.18
1000.37	227.14
1000.66	227.11
1000.95	227.12
1001.24	227.11
1001.53	227.10
1001.82	227.10
1002.11	227.06
1002.40	227.06
1002.68	227.04
1002.97	227.08
1003.26	227.06
1003.55	227.03
1003.84	227.01
1004.13	227.04
1004.42	227.06
1004.71	227.06
1004.99	227.07
1005.28	227.12
1005.57	227.11
1005.86	227.10
1006.15	227.06
1006.44	227.04
1006.72	227.06
1007.01	227.04
1007.30	227.02
1007.59	227.00
1007.88	226.99
1008.17	227.00
1008.45	226.98
1008.74	226.94
1009.03	226.89
1009.32	226.90
1009.60	226.90
1009.89	226.89
1010.18	226.83
1010.47	226.81
1010.76	226.81
1011.04	226.80
1011.33	226.76
1011.62	226.75
1011.91	226.78
1012.19	226.79
1012.48	226.78
1012.77	226.74
1013.05	226.77
1013.34	226.77
1013.63	226.76
1013.92	226.75
1014.20	226.77
1014.49	226.79
1014.78	226.81
1015.06	226.78
1015.35	226.78
1015.64	226.82
1015.92	226.80
1016.21	226.87
1016.50	226.88
1016.78	226.93
1017.07	226.94
1017.36	226.93
1017.64	226.94
1017.93	226.93
1018.22	226.91
1018.50	226.93
1018.79	226.94
1019.08	226.89
1019.36	226.89
1019.65	226.91
1019.93	226.98
1020.22	226.99
1020.51	227.05
1020.79	227.04
1021.08	226.67
1021.36	226.88
1021.65	226.72
1021.94	226.62
1022.22	226.79
1022.51	227.24
1022.79	227.75
1023.08	227.32
1023.36	228.82
1023.65	226.63
>>>>>End Processed Spectral Data<<<<<
