SpectraSuite Data File
++++++++++++++++++++++++++++++++++++
Date: Fri Feb 01 15:58:01 EST 2013
User: group
Dark Spectrum Present: No
Reference Spectrum Present: No
Number of Sampled Component Spectra: 1
Spectrometers: USB2E7196
Integration Time (usec): 35000 (USB2E7196)
Spectra Averaged: 100 (USB2E7196)
Boxcar Smoothing: 10 (USB2E7196)
Correct for Electrical Dark: No (USB2E7196)
Strobe/Lamp Enabled: No (USB2E7196)
Correct for Detector Non-linearity: No (USB2E7196)
Correct for Stray Light: No (USB2E7196)
Number of Pixels in Processed Spectrum: 2048
>>>>>Begin Processed Spectral Data<<<<<
339.09	0.00
339.48	214.83
339.86	215.99
340.24	217.50
340.63	218.64
341.01	222.07
341.39	221.64
341.78	222.76
342.16	223.98
342.54	224.16
342.93	213.04
343.31	223.82
343.69	224.35
344.07	224.79
344.46	225.23
344.84	225.61
345.22	225.82
345.60	226.05
345.99	226.25
346.37	226.38
346.75	226.48
347.13	226.51
347.52	226.55
347.90	226.61
348.28	226.64
348.66	226.65
349.05	226.63
349.43	226.65
349.81	226.69
350.19	226.71
350.57	226.74
350.96	226.83
351.34	226.87
351.72	226.95
352.10	227.06
352.48	227.12
352.87	227.20
353.25	227.25
353.63	227.34
354.01	227.41
354.39	227.48
354.77	227.57
355.15	227.71
355.54	227.79
355.92	227.85
356.30	227.92
356.68	228.06
357.06	228.15
357.44	228.18
357.82	228.26
358.20	228.33
358.58	228.39
358.97	228.47
359.35	228.56
359.73	228.65
360.11	228.72
360.49	228.77
360.87	228.82
361.25	228.89
361.63	228.97
362.01	229.00
362.39	229.08
362.77	229.12
363.15	229.14
363.53	229.18
363.91	229.20
364.29	229.21
364.67	229.13
365.05	229.15
365.43	229.21
365.81	229.21
366.19	229.28
366.57	229.36
366.95	229.34
367.33	229.32
367.71	229.29
368.09	229.29
368.47	229.26
368.85	229.25
369.23	229.25
369.61	229.19
369.99	229.18
370.37	229.14
370.75	229.16
371.13	229.10
371.51	229.06
371.89	229.03
372.27	229.00
372.65	228.97
373.03	228.96
373.41	228.88
373.78	228.81
374.16	228.69
374.54	228.61
374.92	228.55
375.30	228.51
375.68	228.42
376.06	228.34
376.44	228.29
376.82	228.21
377.19	228.14
377.57	228.07
377.95	228.00
378.33	227.93
378.71	227.76
379.09	227.74
379.47	227.69
379.84	227.60
380.22	227.53
380.60	227.46
380.98	227.38
381.36	227.31
381.73	227.22
382.11	227.17
382.49	227.12
382.87	227.02
383.25	226.95
383.62	227.04
384.00	226.98
384.38	226.90
384.76	226.93
385.13	226.92
385.51	226.87
385.89	226.81
386.27	226.74
386.64	226.74
387.02	226.66
387.40	226.57
387.78	226.54
388.15	226.49
388.53	226.44
388.91	226.39
389.29	226.34
389.66	226.35
390.04	226.32
390.42	226.29
390.79	226.28
391.17	226.27
391.55	226.10
391.92	226.09
392.30	226.13
392.68	226.06
393.05	226.01
393.43	226.02
393.81	226.02
394.18	226.02
394.56	226.05
394.94	226.04
395.31	226.07
395.69	226.12
396.06	226.16
396.44	226.21
396.82	226.24
397.19	226.36
397.57	226.40
397.95	226.46
398.32	226.50
398.70	226.56
399.07	226.62
399.45	226.74
399.82	226.80
400.20	226.82
400.58	226.87
400.95	226.92
401.33	227.03
401.70	227.18
402.08	227.29
402.45	227.37
402.83	227.51
403.20	227.59
403.58	227.67
403.95	227.83
404.33	227.94
404.71	228.07
405.08	228.22
405.46	228.34
405.83	228.48
406.21	228.60
406.58	228.76
406.96	228.91
407.33	229.08
407.70	229.30
408.08	229.59
408.45	229.81
408.83	230.06
409.20	230.23
409.58	230.39
409.95	230.66
410.33	230.91
410.70	231.19
411.08	231.52
411.45	231.84
411.82	232.10
412.20	232.46
412.57	232.90
412.95	233.18
413.32	233.61
413.69	234.03
414.07	234.52
414.44	235.00
414.82	235.50
415.19	236.06
415.56	236.61
415.94	237.17
416.31	237.83
416.68	238.46
417.06	239.18
417.43	239.86
417.81	240.59
418.18	241.43
418.55	242.23
418.93	243.12
419.30	244.05
419.67	245.02
420.04	245.97
420.42	246.94
420.79	248.16
421.16	249.28
421.54	250.49
421.91	251.69
422.28	252.93
422.66	254.26
423.03	255.56
423.40	256.87
423.77	258.26
424.15	259.63
424.52	261.14
424.89	262.77
425.26	264.34
425.64	265.80
426.01	267.36
426.38	269.05
426.75	270.72
427.13	272.39
427.50	274.19
427.87	276.10
428.24	277.97
428.61	279.70
428.99	281.67
429.36	283.77
429.73	285.84
430.10	287.85
430.47	289.88
430.85	291.95
431.22	294.20
431.59	296.58
431.96	298.89
432.33	301.37
432.70	303.77
433.08	306.56
433.45	309.21
433.82	311.82
434.19	314.68
434.56	317.44
434.93	320.13
435.30	322.76
435.68	325.63
436.05	328.50
436.42	331.29
436.79	333.80
437.16	336.47
437.53	339.29
437.90	342.11
438.27	344.89
438.64	347.73
439.01	350.27
439.38	352.49
439.75	354.62
440.13	357.05
440.50	359.33
440.87	361.17
441.24	363.11
441.61	365.27
441.98	366.78
442.35	368.57
442.72	370.39
443.09	372.19
443.46	373.15
443.83	373.68
444.20	374.19
444.57	375.02
444.94	375.31
445.31	375.63
445.68	375.99
446.05	376.05
446.42	375.65
446.79	375.25
447.16	374.81
447.53	374.52
447.90	373.38
448.27	372.23
448.64	370.69
449.01	369.56
449.37	367.60
449.74	365.70
450.11	363.47
450.48	361.02
450.85	358.50
451.22	356.38
451.59	354.38
451.96	352.45
452.33	349.79
452.70	347.41
453.07	344.57
453.43	341.65
453.80	338.88
454.17	336.25
454.54	333.71
454.91	330.97
455.28	328.26
455.65	325.77
456.02	323.36
456.38	321.19
456.75	318.53
457.12	316.28
457.49	314.04
457.86	311.89
458.23	310.04
458.59	307.98
458.96	305.90
459.33	304.02
459.70	302.18
460.07	300.73
460.43	299.00
460.80	297.41
461.17	296.00
461.54	294.53
461.91	293.11
462.27	291.73
462.64	290.53
463.01	289.21
463.38	287.96
463.74	286.59
464.11	285.44
464.48	284.40
464.85	283.26
465.21	282.41
465.58	281.48
465.95	280.40
466.32	279.49
466.68	278.57
467.05	277.68
467.42	276.76
467.78	275.85
468.15	275.02
468.52	274.38
468.88	273.51
469.25	272.74
469.62	272.11
469.98	271.40
470.35	270.74
470.72	270.12
471.08	269.45
471.45	268.89
471.82	268.34
472.18	267.75
472.55	267.34
472.92	266.81
473.28	266.35
473.65	265.89
474.02	265.45
474.38	265.07
474.75	264.76
475.11	264.41
475.48	264.17
475.85	263.92
476.21	263.68
476.58	263.48
476.94	263.30
477.31	263.14
477.67	262.98
478.04	262.89
478.41	262.86
478.77	262.88
479.14	262.80
479.50	262.79
479.87	262.85
480.23	262.96
480.60	263.03
480.96	263.11
481.33	263.34
481.69	263.54
482.06	263.76
482.42	263.97
482.79	264.24
483.15	264.50
483.52	264.85
483.88	265.22
484.25	265.60
484.61	266.06
484.98	266.49
485.34	267.02
485.71	267.59
486.07	268.20
486.44	268.77
486.80	269.52
487.17	270.28
487.53	271.12
487.90	271.95
488.26	272.90
488.62	273.88
488.99	274.85
489.35	275.93
489.72	277.06
490.08	278.23
490.44	279.48
490.81	280.81
491.17	282.22
491.54	283.64
491.90	285.22
492.26	286.88
492.63	288.63
492.99	290.45
493.36	292.34
493.72	294.39
494.08	296.49
494.45	298.73
494.81	301.07
495.17	303.50
495.54	306.05
495.90	308.73
496.26	311.61
496.63	314.54
496.99	317.60
497.35	320.87
497.72	324.28
498.08	327.84
498.44	331.56
498.80	335.45
499.17	339.58
499.53	343.77
499.89	348.15
500.26	352.67
500.62	357.33
500.98	362.35
501.34	367.45
501.71	372.83
502.07	378.32
502.43	383.96
502.79	389.78
503.16	395.85
503.52	402.14
503.88	408.56
504.24	415.25
504.60	422.14
504.97	429.26
505.33	436.62
505.69	444.32
506.05	452.12
506.41	460.02
506.78	468.14
507.14	476.56
507.50	485.29
507.86	494.33
508.22	503.50
508.59	512.65
508.95	522.26
509.31	532.08
509.67	542.17
510.03	552.48
510.39	562.97
510.75	573.81
511.12	584.72
511.48	595.98
511.84	607.30
512.20	618.84
512.56	630.78
512.92	643.01
513.28	655.38
513.64	667.83
514.00	680.60
514.37	693.49
514.73	706.56
515.09	719.57
515.45	732.81
515.81	746.47
516.17	760.46
516.53	774.53
516.89	788.64
517.25	802.80
517.61	817.19
517.97	831.73
518.33	846.03
518.69	860.76
519.05	875.70
519.41	891.01
519.77	906.57
520.13	922.00
520.49	937.29
520.85	952.62
521.21	968.35
521.57	984.55
521.93	1000.37
522.29	1016.76
522.65	1032.99
523.01	1049.18
523.37	1065.07
523.73	1081.15
524.09	1097.23
524.45	1113.49
524.81	1130.05
525.17	1146.83
525.53	1163.63
525.89	1180.58
526.25	1197.43
526.61	1213.84
526.97	1230.44
527.33	1246.82
527.68	1263.34
528.04	1279.85
528.40	1296.42
528.76	1313.34
529.12	1329.89
529.48	1346.68
529.84	1362.55
530.20	1379.14
530.56	1396.14
530.91	1413.58
531.27	1430.32
531.63	1446.74
531.99	1463.30
532.35	1479.29
532.71	1495.12
533.07	1511.20
533.42	1526.99
533.78	1542.93
534.14	1559.27
534.50	1574.59
534.86	1590.53
535.21	1605.72
535.57	1621.61
535.93	1636.95
536.29	1651.77
536.65	1666.69
537.00	1681.46
537.36	1696.87
537.72	1711.35
538.08	1725.61
538.44	1739.28
538.79	1753.10
539.15	1766.89
539.51	1780.56
539.87	1794.73
540.22	1808.45
540.58	1822.41
540.94	1835.66
541.29	1848.60
541.65	1861.08
542.01	1874.32
542.37	1886.48
542.72	1898.91
543.08	1910.54
543.44	1922.99
543.79	1934.11
544.15	1945.21
544.51	1956.73
544.87	1967.59
545.22	1978.36
545.58	1988.64
545.94	1998.41
546.29	2008.29
546.65	2017.98
547.01	2027.25
547.36	2036.11
547.72	2044.48
548.07	2052.21
548.43	2060.48
548.79	2068.48
549.14	2075.87
549.50	2083.16
549.86	2090.77
550.21	2098.00
550.57	2105.17
550.92	2111.74
551.28	2118.76
551.64	2125.73
551.99	2132.30
552.35	2138.43
552.70	2144.56
553.06	2150.60
553.41	2157.01
553.77	2163.04
554.13	2169.08
554.48	2175.24
554.84	2180.56
555.19	2185.83
555.55	2190.97
555.90	2195.32
556.26	2200.19
556.61	2205.09
556.97	2209.32
557.32	2213.50
557.68	2217.76
558.03	2222.13
558.39	2225.76
558.74	2230.58
559.10	2234.53
559.45	2238.05
559.81	2242.50
560.16	2246.35
560.52	2249.48
560.87	2252.81
561.23	2255.56
561.58	2258.59
561.94	2261.04
562.29	2263.46
562.64	2266.25
563.00	2268.84
563.35	2272.31
563.71	2275.48
564.06	2278.68
564.42	2281.51
564.77	2284.05
565.12	2286.19
565.48	2288.11
565.83	2290.11
566.19	2291.33
566.54	2292.24
566.89	2293.44
567.25	2293.90
567.60	2295.31
567.96	2297.00
568.31	2297.82
568.66	2298.88
569.02	2299.38
569.37	2299.76
569.72	2300.60
570.08	2300.72
570.43	2300.83
570.78	2300.39
571.14	2298.82
571.49	2297.54
571.84	2297.27
572.20	2296.10
572.55	2295.06
572.90	2293.49
573.26	2292.19
573.61	2290.56
573.96	2288.68
574.31	2285.85
574.67	2282.76
575.02	2279.00
575.37	2275.68
575.72	2271.87
576.08	2268.43
576.43	2265.10
576.78	2261.29
577.13	2258.09
577.49	2254.95
577.84	2251.34
578.19	2247.63
578.54	2243.85
578.90	2239.53
579.25	2234.03
579.60	2229.11
579.95	2224.11
580.30	2219.11
580.66	2213.82
581.01	2208.84
581.36	2203.95
581.71	2199.59
582.06	2195.19
582.42	2190.86
582.77	2185.67
583.12	2181.11
583.47	2176.45
583.82	2171.45
584.17	2166.35
584.53	2160.91
584.88	2155.27
585.23	2149.64
585.58	2144.18
585.93	2138.90
586.28	2134.19
586.63	2129.17
586.98	2124.20
587.34	2119.43
587.69	2114.37
588.04	2109.04
588.39	2103.28
588.74	2096.80
589.09	2090.72
589.44	2083.87
589.79	2077.76
590.14	2072.15
590.49	2065.64
590.84	2059.31
591.19	2053.11
591.54	2046.81
591.89	2039.47
592.25	2032.67
592.60	2025.38
592.95	2017.77
593.30	2010.39
593.65	2002.88
594.00	1995.88
594.35	1988.49
594.70	1980.66
595.05	1973.57
595.40	1966.44
595.75	1959.09
596.10	1952.90
596.45	1946.22
596.80	1940.18
597.15	1933.63
597.50	1926.36
597.85	1920.01
598.19	1913.24
598.54	1906.27
598.89	1899.59
599.24	1893.71
599.59	1887.11
599.94	1880.97
600.29	1874.64
600.64	1868.20
600.99	1860.70
601.34	1853.77
601.69	1846.93
602.04	1840.07
602.39	1832.83
602.74	1825.98
603.08	1819.09
603.43	1812.24
603.78	1804.75
604.13	1797.49
604.48	1790.19
604.83	1783.39
605.18	1776.34
605.53	1768.53
605.87	1760.59
606.22	1753.30
606.57	1745.34
606.92	1738.02
607.27	1730.81
607.62	1723.92
607.96	1716.44
608.31	1709.79
608.66	1702.18
609.01	1694.62
609.36	1686.98
609.70	1678.89
610.05	1670.81
610.40	1663.21
610.75	1655.00
611.10	1647.43
611.44	1639.09
611.79	1631.01
612.14	1622.35
612.49	1613.16
612.83	1604.69
613.18	1596.61
613.53	1588.44
613.88	1579.84
614.22	1571.51
614.57	1562.92
614.92	1554.92
615.27	1547.34
615.61	1538.99
615.96	1530.98
616.31	1523.33
616.65	1515.95
617.00	1508.36
617.35	1500.75
617.70	1492.36
618.04	1483.86
618.39	1475.70
618.74	1468.02
619.08	1459.77
619.43	1452.23
619.78	1445.36
620.12	1438.28
620.47	1430.68
620.82	1422.55
621.16	1415.23
621.51	1407.65
621.85	1400.04
622.20	1391.42
622.55	1383.08
622.89	1375.28
623.24	1367.62
623.59	1360.21
623.93	1352.62
624.28	1345.31
624.62	1337.72
624.97	1330.53
625.32	1323.81
625.66	1316.83
626.01	1309.71
626.35	1302.23
626.70	1294.55
627.04	1286.85
627.39	1278.93
627.73	1271.67
628.08	1264.82
628.43	1257.49
628.77	1250.10
629.12	1242.62
629.46	1235.49
629.81	1228.09
630.15	1220.87
630.50	1213.55
630.84	1205.39
631.19	1197.46
631.53	1190.03
631.88	1182.54
632.22	1174.97
632.57	1167.66
632.91	1160.05
633.26	1152.70
633.60	1145.41
633.95	1138.24
634.29	1131.22
634.64	1124.67
634.98	1117.24
635.32	1110.12
635.67	1103.58
636.01	1097.04
636.36	1090.15
636.70	1083.72
637.05	1077.21
637.39	1070.78
637.73	1064.16
638.08	1058.29
638.42	1052.31
638.77	1045.82
639.11	1039.15
639.45	1032.79
639.80	1026.09
640.14	1019.70
640.49	1013.03
640.83	1006.70
641.17	1000.48
641.52	994.18
641.86	987.69
642.20	981.84
642.55	975.47
642.89	968.87
643.23	962.33
643.58	956.62
643.92	950.38
644.26	944.32
644.61	938.29
644.95	932.36
645.29	925.70
645.64	918.94
645.98	912.66
646.32	906.87
646.66	900.76
647.01	895.04
647.35	889.29
647.69	883.48
648.04	877.90
648.38	872.14
648.72	866.16
649.06	860.14
649.41	854.21
649.75	848.17
650.09	842.29
650.43	836.45
650.78	830.22
651.12	824.23
651.46	818.48
651.80	812.71
652.14	807.33
652.49	802.01
652.83	796.97
653.17	791.24
653.51	785.48
653.85	780.19
654.20	774.46
654.54	768.53
654.88	762.79
655.22	756.95
655.56	751.25
655.90	745.71
656.25	740.40
656.59	735.04
656.93	729.99
657.27	724.81
657.61	719.44
657.95	714.38
658.29	709.29
658.64	704.09
658.98	698.82
659.32	693.21
659.66	688.01
660.00	682.64
660.34	677.71
660.68	672.81
661.02	667.73
661.36	663.02
661.70	658.47
662.05	654.16
662.39	649.85
662.73	645.34
663.07	640.98
663.41	636.50
663.75	632.02
664.09	627.43
664.43	623.00
664.77	618.90
665.11	614.61
665.45	610.48
665.79	606.37
666.13	602.21
666.47	598.26
666.81	594.12
667.15	590.00
667.49	586.14
667.83	582.36
668.17	578.43
668.51	574.32
668.85	570.21
669.19	566.34
669.53	562.44
669.87	558.59
670.21	554.89
670.55	551.32
670.89	547.88
671.23	544.45
671.57	540.96
671.91	537.32
672.25	533.89
672.58	530.36
672.92	526.96
673.26	523.84
673.60	520.67
673.94	517.53
674.28	514.61
674.62	511.64
674.96	508.51
675.30	505.62
675.64	502.79
675.97	500.13
676.31	497.26
676.65	494.37
676.99	491.70
677.33	488.87
677.67	486.10
678.01	483.10
678.34	480.14
678.68	477.28
679.02	474.48
679.36	471.74
679.70	469.06
680.04	466.27
680.37	463.41
680.71	460.58
681.05	457.97
681.39	455.26
681.73	452.59
682.06	450.00
682.40	447.52
682.74	445.00
683.08	442.44
683.42	439.89
683.75	437.37
684.09	434.81
684.43	432.32
684.77	429.82
685.10	427.44
685.44	425.16
685.78	422.88
686.12	420.67
686.45	418.34
686.79	416.01
687.13	413.91
687.46	411.70
687.80	409.57
688.14	407.36
688.48	405.31
688.81	403.06
689.15	400.95
689.49	398.74
689.82	396.67
690.16	394.60
690.50	392.70
690.83	390.75
691.17	388.77
691.51	386.87
691.84	385.03
692.18	383.14
692.52	381.11
692.85	379.19
693.19	377.29
693.52	375.45
693.86	373.66
694.20	371.78
694.53	369.96
694.87	368.09
695.21	366.32
695.54	364.51
695.88	362.81
696.21	361.10
696.55	359.41
696.88	357.68
697.22	355.99
697.56	354.31
697.89	352.65
698.23	351.04
698.56	349.38
698.90	347.75
699.23	346.08
699.57	344.55
699.90	343.02
700.24	341.50
700.58	340.00
700.91	338.47
701.25	337.04
701.58	335.68
701.92	334.33
702.25	332.89
702.59	331.50
702.92	330.14
703.26	328.83
703.59	327.55
703.93	326.36
704.26	325.11
704.60	323.76
704.93	322.47
705.26	321.24
705.60	320.08
705.93	318.90
706.27	317.83
706.60	316.78
706.94	315.69
707.27	314.56
707.61	313.47
707.94	312.43
708.27	311.30
708.61	310.25
708.94	309.22
709.28	308.28
709.61	307.33
709.94	306.39
710.28	305.36
710.61	304.38
710.95	303.32
711.28	302.40
711.61	301.46
711.95	300.57
712.28	299.57
712.61	298.61
712.95	297.73
713.28	296.89
713.61	295.98
713.95	295.09
714.28	294.23
714.61	293.37
714.95	292.59
715.28	291.81
715.61	290.93
715.95	290.12
716.28	289.27
716.61	288.45
716.95	287.65
717.28	286.93
717.61	286.20
717.94	285.49
718.28	284.72
718.61	284.06
718.94	283.36
719.27	282.73
719.61	282.09
719.94	281.45
720.27	280.74
720.60	280.11
720.94	279.50
721.27	278.89
721.60	278.31
721.93	277.70
722.27	277.11
722.60	276.59
722.93	276.01
723.26	275.49
723.59	274.92
723.93	274.39
724.26	273.84
724.59	273.28
724.92	272.75
725.25	272.24
725.59	271.71
725.92	271.24
726.25	270.75
726.58	270.27
726.91	269.80
727.24	269.33
727.57	268.88
727.91	268.37
728.24	267.90
728.57	267.42
728.90	266.97
729.23	266.50
729.56	266.06
729.89	265.56
730.22	265.10
730.55	264.69
730.89	264.24
731.22	263.80
731.55	263.37
731.88	262.95
732.21	262.55
732.54	262.13
732.87	261.68
733.20	261.26
733.53	260.91
733.86	260.48
734.19	260.07
734.52	259.65
734.85	259.35
735.18	258.96
735.51	258.58
735.84	258.21
736.17	257.88
736.50	257.49
736.83	257.31
737.16	256.94
737.49	256.57
737.82	256.20
738.15	255.85
738.48	255.49
738.81	255.17
739.14	254.82
739.47	254.49
739.80	254.18
740.13	253.87
740.46	253.46
740.79	253.14
741.12	252.82
741.45	252.49
741.78	252.11
742.11	251.82
742.44	251.52
742.77	251.21
743.10	250.88
743.43	250.52
743.75	250.08
744.08	249.91
744.41	249.58
744.74	249.30
745.07	248.99
745.40	248.74
745.73	248.46
746.06	248.16
746.39	247.89
746.71	247.59
747.04	247.29
747.37	247.07
747.70	246.80
748.03	246.53
748.36	246.33
748.68	246.07
749.01	245.81
749.34	245.58
749.67	245.34
750.00	245.11
750.33	244.97
750.65	244.79
750.98	244.46
751.31	244.25
751.64	244.06
751.97	243.91
752.29	243.71
752.62	243.48
752.95	243.29
753.28	243.10
753.60	242.92
753.93	242.79
754.26	242.57
754.59	242.37
754.91	242.19
755.24	242.00
755.57	241.85
755.90	241.71
756.22	241.54
756.55	241.33
756.88	241.11
757.20	240.89
757.53	240.67
757.86	240.53
758.19	240.42
758.51	240.25
758.84	240.05
759.17	239.88
759.49	239.74
759.82	239.61
760.15	239.46
760.47	239.31
760.80	239.13
761.13	239.03
761.45	238.89
761.78	238.78
762.11	238.62
762.43	238.45
762.76	238.31
763.08	238.18
763.41	238.09
763.74	238.01
764.06	237.90
764.39	237.79
764.71	237.68
765.04	237.52
765.37	237.39
765.69	237.27
766.02	237.14
766.34	237.03
766.67	236.88
767.00	236.78
767.32	236.66
767.65	236.61
767.97	236.50
768.30	236.41
768.62	236.29
768.95	236.15
769.27	236.07
769.60	235.96
769.92	235.84
770.25	235.72
770.57	235.57
770.90	235.44
771.22	235.33
771.55	235.20
771.87	235.12
772.20	235.04
772.52	235.03
772.85	235.06
773.17	234.96
773.50	234.89
773.82	234.79
774.15	234.70
774.47	234.56
774.80	234.47
775.12	234.35
775.45	234.23
775.77	234.19
776.09	234.10
776.42	233.95
776.74	233.91
777.07	233.82
777.39	233.77
777.72	233.70
778.04	233.61
778.36	233.53
778.69	233.47
779.01	233.37
779.33	233.21
779.66	233.00
779.98	232.92
780.31	232.84
780.63	232.81
780.95	232.74
781.28	232.65
781.60	232.54
781.92	232.47
782.25	232.43
782.57	232.31
782.89	232.22
783.22	232.20
783.54	232.09
783.86	232.02
784.19	231.95
784.51	231.91
784.83	231.86
785.16	231.80
785.48	231.70
785.80	231.62
786.12	231.56
786.45	231.49
786.77	231.41
787.09	231.31
787.42	231.21
787.74	231.16
788.06	231.11
788.38	231.09
788.71	231.03
789.03	230.98
789.35	230.98
789.67	230.94
789.99	230.91
790.32	230.86
790.64	230.82
790.96	230.86
791.28	230.81
791.61	230.76
791.93	230.74
792.25	230.71
792.57	230.76
792.89	230.73
793.21	230.71
793.54	230.68
793.86	230.67
794.18	230.63
794.50	230.58
794.82	230.54
795.14	230.49
795.47	230.47
795.79	230.44
796.11	230.37
796.43	230.34
796.75	230.31
797.07	230.28
797.39	230.27
797.71	230.17
798.04	230.13
798.36	230.16
798.68	230.11
799.00	230.10
799.32	230.03
799.64	230.04
799.96	230.02
800.28	230.03
800.60	230.00
800.92	229.98
801.24	229.97
801.56	229.97
801.89	229.95
802.21	229.95
802.53	229.91
802.85	229.92
803.17	229.96
803.49	229.91
803.81	229.90
804.13	229.87
804.45	229.82
804.77	229.80
805.09	229.77
805.41	229.73
805.73	229.67
806.05	229.62
806.37	229.54
806.69	229.51
807.01	229.47
807.33	229.47
807.65	229.40
807.97	229.44
808.28	229.39
808.60	229.37
808.92	229.32
809.24	229.36
809.56	229.32
809.88	229.26
810.20	229.28
810.52	229.29
810.84	229.26
811.16	229.29
811.48	229.25
811.80	229.24
812.12	229.24
812.43	229.25
812.75	229.24
813.07	229.26
813.39	229.25
813.71	229.21
814.03	229.16
814.35	229.17
814.67	229.10
814.98	229.11
815.30	229.08
815.62	229.04
815.94	228.95
816.26	228.96
816.58	228.90
816.89	228.86
817.21	228.78
817.53	228.77
817.85	228.69
818.17	228.69
818.48	228.65
818.80	228.62
819.12	228.55
819.44	228.49
819.76	228.45
820.07	228.43
820.39	228.44
820.71	228.42
821.03	228.39
821.34	228.35
821.66	228.34
821.98	228.35
822.30	228.32
822.61	228.35
822.93	228.33
823.25	228.32
823.57	228.33
823.88	228.31
824.20	228.24
824.52	228.24
824.83	228.21
825.15	228.14
825.47	228.11
825.79	228.13
826.10	228.11
826.42	228.08
826.74	228.06
827.05	228.04
827.37	228.02
827.69	227.97
828.00	227.98
828.32	227.94
828.64	227.88
828.95	227.96
829.27	227.94
829.58	227.91
829.90	227.90
830.22	227.86
830.53	227.80
830.85	227.82
831.17	227.80
831.48	227.78
831.80	227.78
832.11	227.79
832.43	227.74
832.75	227.74
833.06	227.81
833.38	227.75
833.69	227.71
834.01	227.71
834.32	227.69
834.64	227.65
834.96	227.63
835.27	227.62
835.59	227.55
835.90	227.50
836.22	227.48
836.53	227.43
836.85	227.40
837.16	227.49
837.48	227.52
837.79	227.52
838.11	227.52
838.42	227.54
838.74	227.52
839.05	227.55
839.37	227.55
839.68	227.49
840.00	227.50
840.31	227.50
840.63	227.50
840.94	227.54
841.26	227.53
841.57	227.53
841.88	227.56
842.20	227.55
842.51	227.52
842.83	227.52
843.14	227.63
843.46	227.65
843.77	227.59
844.08	227.55
844.40	227.54
844.71	227.52
845.03	227.49
845.34	227.50
845.65	227.49
845.97	227.47
846.28	227.42
846.60	227.43
846.91	227.42
847.22	227.40
847.54	227.43
847.85	227.45
848.16	227.45
848.48	227.42
848.79	227.44
849.10	227.45
849.42	227.47
849.73	227.39
850.04	227.37
850.36	227.36
850.67	227.39
850.98	227.40
851.30	227.42
851.61	227.42
851.92	227.42
852.23	227.45
852.55	227.48
852.86	227.53
853.17	227.56
853.49	227.57
853.80	227.61
854.11	227.58
854.42	227.59
854.74	227.60
855.05	227.62
855.36	227.59
855.67	227.60
855.99	227.59
856.30	227.70
856.61	227.70
856.92	227.74
857.23	227.72
857.55	227.69
857.86	227.69
858.17	227.69
858.48	227.67
858.79	227.62
859.11	227.61
859.42	227.57
859.73	227.57
860.04	227.56
860.35	227.54
860.66	227.51
860.98	227.47
861.29	227.48
861.60	227.49
861.91	227.52
862.22	227.53
862.53	227.50
862.84	227.37
863.16	227.38
863.47	227.32
863.78	227.32
864.09	227.38
864.40	227.38
864.71	227.39
865.02	227.38
865.33	227.39
865.64	227.34
865.95	227.34
866.27	227.38
866.58	227.39
866.89	227.40
867.20	227.42
867.51	227.40
867.82	227.37
868.13	227.37
868.44	227.33
868.75	227.35
869.06	227.37
869.37	227.37
869.68	227.33
869.99	227.33
870.30	227.31
870.61	227.27
870.92	227.23
871.23	227.20
871.54	227.21
871.85	227.22
872.16	227.25
872.47	227.25
872.78	227.19
873.09	227.17
873.40	227.15
873.71	227.16
874.02	227.17
874.33	227.17
874.64	227.10
874.95	227.11
875.26	227.07
875.56	227.04
875.87	227.05
876.18	227.07
876.49	227.22
876.80	227.17
877.11	227.16
877.42	227.19
877.73	227.19
878.04	227.19
878.35	227.18
878.66	227.19
878.96	227.18
879.27	227.16
879.58	227.16
879.89	227.15
880.20	227.12
880.51	227.11
880.82	227.10
881.12	227.12
881.43	227.09
881.74	227.06
882.05	227.07
882.36	227.05
882.67	227.05
882.97	226.93
883.28	226.97
883.59	226.95
883.90	226.98
884.21	226.98
884.51	226.95
884.82	226.93
885.13	226.94
885.44	226.93
885.74	226.92
886.05	226.90
886.36	226.92
886.67	226.89
886.98	226.96
887.28	226.99
887.59	226.99
887.90	227.00
888.20	226.98
888.51	226.99
888.82	226.98
889.13	227.00
889.43	227.05
889.74	227.06
890.05	227.06
890.35	227.05
890.66	227.05
890.97	227.05
891.28	227.05
891.58	227.04
891.89	227.02
892.20	227.02
892.50	227.00
892.81	227.01
893.12	227.03
893.42	226.97
893.73	226.96
894.04	226.93
894.34	226.91
894.65	226.94
894.95	226.96
895.26	226.93
895.57	226.99
895.87	226.91
896.18	226.90
896.48	226.89
896.79	226.85
897.10	226.87
897.40	226.90
897.71	226.90
898.01	226.89
898.32	226.93
898.63	226.94
898.93	226.95
899.24	226.94
899.54	226.93
899.85	226.91
900.15	226.90
900.46	226.91
900.76	226.95
901.07	226.95
901.38	226.93
901.68	226.99
901.99	226.91
902.29	226.93
902.60	226.91
902.90	226.88
903.21	226.87
903.51	226.84
903.82	226.84
904.12	226.85
904.43	226.87
904.73	226.85
905.03	226.85
905.34	226.92
905.64	226.90
905.95	226.91
906.25	226.92
906.56	226.92
906.86	226.90
907.17	226.89
907.47	226.86
907.77	226.85
908.08	226.80
908.38	226.81
908.69	226.81
908.99	226.81
909.30	226.86
909.60	226.87
909.90	226.89
910.21	226.83
910.51	226.83
910.81	226.81
911.12	226.82
911.42	226.80
911.73	226.72
912.03	226.73
912.33	226.76
912.64	226.75
912.94	226.74
913.24	226.76
913.55	226.74
913.85	226.77
914.15	226.81
914.46	226.79
914.76	226.79
915.06	226.74
915.37	226.73
915.67	226.68
915.97	226.68
916.27	226.66
916.58	226.68
916.88	226.67
917.18	226.67
917.49	226.73
917.79	226.74
918.09	226.74
918.39	226.77
918.70	226.73
919.00	226.73
919.30	226.76
919.60	226.72
919.91	226.69
920.21	226.69
920.51	226.65
920.81	226.67
921.12	226.68
921.42	226.72
921.72	226.74
922.02	226.75
922.32	226.75
922.63	226.72
922.93	226.74
923.23	226.75
923.53	226.74
923.83	226.68
924.13	226.72
924.44	226.73
924.74	226.72
925.04	226.76
925.34	226.77
925.64	226.75
925.94	226.77
926.24	226.84
926.55	226.80
926.85	226.80
927.15	226.79
927.45	226.75
927.75	226.74
928.05	226.74
928.35	226.76
928.65	226.79
928.95	226.83
929.26	226.81
929.56	226.84
929.86	226.84
930.16	226.83
930.46	226.78
930.76	226.77
931.06	226.73
931.36	226.68
931.66	226.70
931.96	226.69
932.26	226.69
932.56	226.68
932.86	226.72
933.16	226.75
933.46	226.77
933.76	226.78
934.06	226.80
934.36	226.86
934.66	226.85
934.96	226.86
935.26	226.86
935.56	226.88
935.86	226.84
936.16	226.82
936.46	226.82
936.76	226.85
937.06	226.87
937.36	226.88
937.66	226.93
937.96	226.91
938.26	226.89
938.56	226.91
938.86	226.89
939.16	226.91
939.46	226.93
939.76	226.95
940.06	226.97
940.35	226.93
940.65	226.87
940.95	226.87
941.25	226.82
941.55	226.81
941.85	226.81
942.15	226.85
942.45	226.90
942.75	226.89
943.04	226.87
943.34	226.88
943.64	226.86
943.94	226.83
944.24	226.83
944.54	226.87
944.84	226.87
945.13	226.87
945.43	226.85
945.73	226.86
946.03	226.86
946.33	226.83
946.62	226.86
946.92	226.88
947.22	226.90
947.52	226.90
947.82	226.93
948.11	226.89
948.41	226.87
948.71	226.83
949.01	226.83
949.31	226.84
949.60	226.83
949.90	226.86
950.20	226.86
950.50	226.85
950.79	226.86
951.09	226.88
951.39	226.87
951.69	226.86
951.98	226.86
952.28	226.85
952.58	226.88
952.87	226.84
953.17	226.83
953.47	226.85
953.76	226.83
954.06	226.82
954.36	226.83
954.66	226.81
954.95	226.85
955.25	226.85
955.55	226.85
955.84	226.81
956.14	226.81
956.44	226.81
956.73	226.78
957.03	226.78
957.32	226.77
957.62	226.74
957.92	226.75
958.21	226.70
958.51	226.79
958.81	226.78
959.10	226.81
959.40	226.81
959.69	226.77
959.99	226.83
960.29	226.79
960.58	226.78
960.88	226.83
961.17	226.83
961.47	226.84
961.76	226.83
962.06	226.84
962.36	226.81
962.65	226.81
962.95	226.84
963.24	226.81
963.54	226.81
963.83	226.80
964.13	226.78
964.42	226.78
964.72	226.71
965.01	226.69
965.31	226.65
965.60	226.60
965.90	226.68
966.19	226.66
966.49	226.69
966.78	226.67
967.08	226.63
967.37	226.63
967.67	226.58
967.96	226.60
968.26	226.59
968.55	226.60
968.85	226.61
969.14	226.58
969.43	226.58
969.73	226.58
970.02	226.57
970.32	226.56
970.61	226.54
970.91	226.51
971.20	226.48
971.49	226.48
971.79	226.52
972.08	226.41
972.38	226.42
972.67	226.38
972.96	226.39
973.26	226.38
973.55	226.40
973.85	226.41
974.14	226.40
974.43	226.41
974.73	226.38
975.02	226.39
975.31	226.39
975.61	226.37
975.90	226.34
976.19	226.31
976.49	226.32
976.78	226.35
977.07	226.34
977.37	226.36
977.66	226.37
977.95	226.36
978.24	226.39
978.54	226.38
978.83	226.38
979.12	226.41
979.42	226.41
979.71	226.38
980.00	226.37
980.29	226.39
980.59	226.40
980.88	226.42
981.17	226.40
981.46	226.42
981.76	226.43
982.05	226.50
982.34	226.55
982.63	226.56
982.93	226.56
983.22	226.59
983.51	226.58
983.80	226.61
984.09	226.65
984.39	226.64
984.68	226.61
984.97	226.64
985.26	226.64
985.55	226.66
985.85	226.64
986.14	226.69
986.43	226.72
986.72	226.70
987.01	226.68
987.30	226.68
987.59	226.68
987.89	226.70
988.18	226.64
988.47	226.67
988.76	226.70
989.05	226.70
989.34	226.68
989.63	226.74
989.92	226.76
990.22	226.74
990.51	226.75
990.80	226.81
991.09	226.81
991.38	226.81
991.67	226.80
991.96	226.84
992.25	226.84
992.54	226.79
992.83	226.82
993.12	226.86
993.41	226.88
993.70	226.91
993.99	226.93
994.28	226.98
994.58	226.98
994.87	226.96
995.16	226.98
995.45	227.00
995.74	227.00
996.03	226.98
996.32	227.02
996.61	227.04
996.90	227.01
997.19	227.02
997.48	226.98
997.77	227.00
998.06	226.98
998.34	226.95
998.63	226.98
998.92	226.97
999.21	226.95
999.50	226.93
999.79	226.91
1000.08	226.90
1000.37	226.87
1000.66	226.87
1000.95	226.87
1001.24	226.87
1001.53	226.87
1001.82	226.79
1002.11	226.76
1002.40	226.72
1002.68	226.72
1002.97	226.79
1003.26	226.78
1003.55	226.76
1003.84	226.72
1004.13	226.72
1004.42	226.72
1004.71	226.68
1004.99	226.64
1005.28	226.66
1005.57	226.66
1005.86	226.64
1006.15	226.58
1006.44	226.59
1006.72	226.58
1007.01	226.54
1007.30	226.50
1007.59	226.46
1007.88	226.49
1008.17	226.46
1008.45	226.47
1008.74	226.44
1009.03	226.38
1009.32	226.34
1009.60	226.36
1009.89	226.37
1010.18	226.36
1010.47	226.34
1010.76	226.32
1011.04	226.32
1011.33	226.32
1011.62	226.31
1011.91	226.30
1012.19	226.35
1012.48	226.37
1012.77	226.38
1013.05	226.44
1013.34	226.49
1013.63	226.50
1013.92	226.51
1014.20	226.56
1014.49	226.56
1014.78	226.56
1015.06	226.54
1015.35	226.55
1015.64	226.56
1015.92	226.57
1016.21	226.56
1016.50	226.55
1016.78	226.60
1017.07	226.64
1017.36	226.64
1017.64	226.64
1017.93	226.64
1018.22	226.59
1018.50	226.58
1018.79	226.57
1019.08	226.55
1019.36	226.53
1019.65	226.55
1019.93	226.59
1020.22	226.59
1020.51	226.67
1020.79	226.67
1021.08	225.94
1021.36	226.60
1021.65	226.79
1021.94	227.11
1022.22	226.82
1022.51	226.82
1022.79	227.48
1023.08	226.95
1023.36	228.48
1023.65	226.26
>>>>>End Processed Spectral Data<<<<<
