SpectraSuite Data File
++++++++++++++++++++++++++++++++++++
Date: Fri Feb 01 15:23:11 EST 2013
User: group
Dark Spectrum Present: No
Reference Spectrum Present: No
Number of Sampled Component Spectra: 1
Spectrometers: USB2E7196
Integration Time (usec): 35000 (USB2E7196)
Spectra Averaged: 100 (USB2E7196)
Boxcar Smoothing: 10 (USB2E7196)
Correct for Electrical Dark: No (USB2E7196)
Strobe/Lamp Enabled: No (USB2E7196)
Correct for Detector Non-linearity: No (USB2E7196)
Correct for Stray Light: No (USB2E7196)
Number of Pixels in Processed Spectrum: 2048
>>>>>Begin Processed Spectral Data<<<<<
339.09	0.00
339.48	215.27
339.86	216.49
340.24	217.49
340.63	219.67
341.01	222.33
341.39	222.19
341.78	223.29
342.16	224.46
342.54	225.27
342.93	213.39
343.31	224.17
343.69	224.72
344.07	225.22
344.46	225.65
344.84	226.00
345.22	226.24
345.60	226.49
345.99	226.68
346.37	226.82
346.75	226.88
347.13	226.97
347.52	227.03
347.90	227.09
348.28	227.10
348.66	227.17
349.05	227.17
349.43	227.21
349.81	227.29
350.19	227.36
350.57	227.45
350.96	227.53
351.34	227.64
351.72	227.67
352.10	227.73
352.48	227.80
352.87	227.88
353.25	227.92
353.63	227.99
354.01	228.08
354.39	228.14
354.77	228.25
355.15	228.36
355.54	228.43
355.92	228.46
356.30	228.53
356.68	228.63
357.06	228.72
357.44	228.75
357.82	228.80
358.20	228.83
358.58	228.86
358.97	228.92
359.35	228.99
359.73	229.10
360.11	229.17
360.49	229.22
360.87	229.25
361.25	229.31
361.63	229.38
362.01	229.39
362.39	229.42
362.77	229.44
363.15	229.44
363.53	229.48
363.91	229.51
364.29	229.53
364.67	229.45
365.05	229.46
365.43	229.49
365.81	229.48
366.19	229.50
366.57	229.51
366.95	229.48
367.33	229.42
367.71	229.39
368.09	229.37
368.47	229.35
368.85	229.35
369.23	229.33
369.61	229.27
369.99	229.27
370.37	229.26
370.75	229.26
371.13	229.18
371.51	229.11
371.89	229.07
372.27	229.00
372.65	228.96
373.03	228.88
373.41	228.85
373.78	228.78
374.16	228.70
374.54	228.64
374.92	228.58
375.30	228.53
375.68	228.45
376.06	228.37
376.44	228.32
376.82	228.23
377.19	228.15
377.57	228.05
377.95	227.92
378.33	227.84
378.71	227.73
379.09	227.68
379.47	227.62
379.84	227.51
380.22	227.47
380.60	227.41
380.98	227.35
381.36	227.29
381.73	227.24
382.11	227.21
382.49	227.14
382.87	227.05
383.25	226.96
383.62	227.02
384.00	226.97
384.38	226.92
384.76	226.87
385.13	226.86
385.51	226.85
385.89	226.80
386.27	226.73
386.64	226.69
387.02	226.64
387.40	226.58
387.78	226.60
388.15	226.56
388.53	226.51
388.91	226.48
389.29	226.44
389.66	226.44
390.04	226.40
390.42	226.40
390.79	226.45
391.17	226.46
391.55	226.36
391.92	226.36
392.30	226.38
392.68	226.39
393.05	226.40
393.43	226.40
393.81	226.44
394.18	226.47
394.56	226.51
394.94	226.59
395.31	226.67
395.69	226.72
396.06	226.77
396.44	226.86
396.82	226.89
397.19	226.97
397.57	227.04
397.95	227.10
398.32	227.13
398.70	227.15
399.07	227.27
399.45	227.32
399.82	227.38
400.20	227.43
400.58	227.52
400.95	227.58
401.33	227.69
401.70	227.85
402.08	227.98
402.45	228.07
402.83	228.21
403.20	228.30
403.58	228.37
403.95	228.54
404.33	228.66
404.71	228.81
405.08	229.01
405.46	229.12
405.83	229.28
406.21	229.43
406.58	229.61
406.96	229.76
407.33	229.97
407.70	230.19
408.08	230.49
408.45	230.70
408.83	230.95
409.20	231.16
409.58	231.34
409.95	231.56
410.33	231.83
410.70	232.07
411.08	232.35
411.45	232.67
411.82	232.94
412.20	233.30
412.57	233.68
412.95	233.98
413.32	234.41
413.69	234.79
414.07	235.23
414.44	235.73
414.82	236.20
415.19	236.71
415.56	237.24
415.94	237.75
416.31	238.41
416.68	239.05
417.06	239.72
417.43	240.38
417.81	241.16
418.18	241.96
418.55	242.76
418.93	243.65
419.30	244.55
419.67	245.52
420.04	246.44
420.42	247.43
420.79	248.56
421.16	249.68
421.54	250.87
421.91	252.08
422.28	253.30
422.66	254.64
423.03	255.99
423.40	257.30
423.77	258.72
424.15	260.13
424.52	261.57
424.89	263.20
425.26	264.72
425.64	266.14
426.01	267.74
426.38	269.40
426.75	271.09
427.13	272.79
427.50	274.56
427.87	276.45
428.24	278.30
428.61	280.05
428.99	281.99
429.36	284.12
429.73	286.15
430.10	288.18
430.47	290.18
430.85	292.23
431.22	294.52
431.59	296.90
431.96	299.15
432.33	301.62
432.70	304.02
433.08	306.86
433.45	309.56
433.82	312.15
434.19	315.03
434.56	317.80
434.93	320.49
435.30	323.12
435.68	326.03
436.05	328.92
436.42	331.75
436.79	334.29
437.16	336.99
437.53	339.86
437.90	342.67
438.27	345.48
438.64	348.37
439.01	350.96
439.38	353.17
439.75	355.35
440.13	357.88
440.50	360.18
440.87	362.09
441.24	364.02
441.61	366.25
441.98	367.78
442.35	369.63
442.72	371.47
443.09	373.31
443.46	374.32
443.83	374.91
444.20	375.44
444.57	376.34
444.94	376.61
445.31	376.98
445.68	377.40
446.05	377.47
446.42	377.11
446.79	376.68
447.16	376.28
447.53	375.97
447.90	374.80
448.27	373.68
448.64	372.07
449.01	370.92
449.37	368.93
449.74	367.06
450.11	364.83
450.48	362.36
450.85	359.81
451.22	357.65
451.59	355.63
451.96	353.67
452.33	351.02
452.70	348.70
453.07	345.86
453.43	342.93
453.80	340.14
454.17	337.40
454.54	334.88
454.91	332.14
455.28	329.45
455.65	326.98
456.02	324.51
456.38	322.35
456.75	319.64
457.12	317.33
457.49	315.07
457.86	312.86
458.23	310.98
458.59	308.94
458.96	306.85
459.33	304.94
459.70	303.07
460.07	301.54
460.43	299.79
460.80	298.11
461.17	296.66
461.54	295.14
461.91	293.73
462.27	292.25
462.64	291.00
463.01	289.62
463.38	288.33
463.74	286.94
464.11	285.79
464.48	284.77
464.85	283.66
465.21	282.77
465.58	281.81
465.95	280.69
466.32	279.76
466.68	278.85
467.05	277.96
467.42	277.03
467.78	276.06
468.15	275.17
468.52	274.49
468.88	273.62
469.25	272.85
469.62	272.19
469.98	271.50
470.35	270.85
470.72	270.24
471.08	269.56
471.45	269.03
471.82	268.46
472.18	267.84
472.55	267.35
472.92	266.82
473.28	266.34
473.65	265.90
474.02	265.44
474.38	265.08
474.75	264.75
475.11	264.43
475.48	264.20
475.85	263.97
476.21	263.76
476.58	263.53
476.94	263.35
477.31	263.17
477.67	263.01
478.04	262.88
478.41	262.79
478.77	262.86
479.14	262.75
479.50	262.76
479.87	262.80
480.23	262.88
480.60	262.98
480.96	263.07
481.33	263.27
481.69	263.50
482.06	263.67
482.42	263.84
482.79	264.11
483.15	264.43
483.52	264.81
483.88	265.15
484.25	265.59
484.61	266.07
484.98	266.57
485.34	267.12
485.71	267.73
486.07	268.37
486.44	268.91
486.80	269.65
487.17	270.43
487.53	271.27
487.90	272.18
488.26	273.13
488.62	274.15
488.99	275.13
489.35	276.14
489.72	277.32
490.08	278.54
490.44	279.81
490.81	281.13
491.17	282.50
491.54	284.01
491.90	285.54
492.26	287.18
492.63	288.94
492.99	290.73
493.36	292.67
493.72	294.71
494.08	296.76
494.45	299.05
494.81	301.42
495.17	303.87
495.54	306.43
495.90	309.11
496.26	311.92
496.63	314.88
496.99	318.04
497.35	321.27
497.72	324.72
498.08	328.22
498.44	331.89
498.80	335.77
499.17	339.78
499.53	343.94
499.89	348.26
500.26	352.71
500.62	357.39
500.98	362.33
501.34	367.41
501.71	372.76
502.07	378.19
502.43	383.77
502.79	389.59
503.16	395.69
503.52	401.93
503.88	408.29
504.24	414.91
504.60	421.77
504.97	428.85
505.33	436.12
505.69	443.70
506.05	451.44
506.41	459.31
506.78	467.50
507.14	475.95
507.50	484.75
507.86	493.89
508.22	503.03
508.59	512.22
508.95	521.77
509.31	531.56
509.67	541.67
510.03	551.99
510.39	562.52
510.75	573.29
511.12	584.20
511.48	595.59
511.84	607.07
512.20	618.61
512.56	630.62
512.92	642.80
513.28	655.20
513.64	667.78
514.00	680.52
514.37	693.40
514.73	706.53
515.09	719.48
515.45	732.69
515.81	746.34
516.17	760.26
516.53	774.44
516.89	788.64
517.25	802.74
517.61	817.17
517.97	831.64
518.33	846.03
518.69	860.87
519.05	875.85
519.41	891.03
519.77	906.52
520.13	921.98
520.49	937.36
520.85	952.85
521.21	968.63
521.57	984.88
521.93	1000.68
522.29	1017.05
522.65	1033.42
523.01	1049.76
523.37	1065.83
523.73	1082.13
524.09	1098.24
524.45	1114.57
524.81	1131.33
525.17	1148.28
525.53	1165.20
525.89	1182.12
526.25	1198.93
526.61	1215.34
526.97	1232.17
527.33	1248.81
527.68	1265.44
528.04	1282.03
528.40	1298.75
528.76	1315.71
529.12	1332.30
529.48	1349.20
529.84	1365.35
530.20	1382.11
530.56	1399.19
530.91	1416.59
531.27	1433.41
531.63	1449.95
531.99	1466.60
532.35	1482.56
532.71	1498.42
533.07	1514.76
533.42	1530.69
533.78	1546.85
534.14	1563.18
534.50	1578.51
534.86	1594.40
535.21	1609.66
535.57	1625.67
535.93	1641.11
536.29	1655.94
536.65	1671.14
537.00	1686.17
537.36	1701.43
537.72	1715.95
538.08	1730.30
538.44	1744.23
538.79	1758.08
539.15	1771.88
539.51	1785.73
539.87	1800.29
540.22	1814.10
540.58	1827.97
540.94	1841.51
541.29	1854.59
541.65	1867.39
542.01	1880.71
542.37	1893.02
542.72	1905.57
543.08	1917.40
543.44	1929.91
543.79	1941.37
544.15	1952.53
544.51	1964.06
544.87	1975.16
545.22	1986.06
545.58	1996.41
545.94	2006.23
546.29	2016.19
546.65	2025.98
547.01	2035.22
547.36	2043.94
547.72	2052.45
548.07	2060.32
548.43	2068.53
548.79	2076.53
549.14	2084.10
549.50	2091.51
549.86	2099.27
550.21	2106.60
550.57	2113.77
550.92	2120.43
551.28	2127.53
551.64	2134.60
551.99	2141.20
552.35	2147.26
552.70	2153.25
553.06	2159.18
553.41	2165.48
553.77	2171.56
554.13	2177.58
554.48	2183.71
554.84	2189.11
555.19	2194.54
555.55	2199.66
555.90	2204.05
556.26	2208.86
556.61	2213.47
556.97	2217.57
557.32	2221.72
557.68	2225.77
558.03	2230.07
558.39	2233.69
558.74	2238.17
559.10	2241.90
559.45	2245.44
559.81	2249.88
560.16	2253.74
560.52	2257.05
560.87	2260.62
561.23	2263.12
561.58	2266.08
561.94	2268.62
562.29	2271.01
562.64	2273.49
563.00	2276.18
563.35	2279.75
563.71	2282.88
564.06	2286.19
564.42	2289.11
564.77	2291.45
565.12	2293.66
565.48	2295.35
565.83	2297.12
566.19	2298.45
566.54	2299.47
566.89	2300.69
567.25	2301.13
567.60	2302.61
567.96	2304.25
568.31	2304.92
568.66	2306.13
569.02	2306.75
569.37	2307.07
569.72	2307.82
570.08	2308.07
570.43	2307.95
570.78	2307.13
571.14	2305.52
571.49	2304.07
571.84	2303.86
572.20	2302.68
572.55	2301.61
572.90	2300.13
573.26	2298.81
573.61	2296.98
573.96	2294.97
574.31	2291.75
574.67	2288.65
575.02	2284.81
575.37	2281.15
575.72	2277.16
576.08	2273.86
576.43	2270.46
576.78	2266.64
577.13	2263.34
577.49	2260.02
577.84	2256.48
578.19	2252.77
578.54	2249.01
578.90	2244.58
579.25	2238.95
579.60	2234.03
579.95	2229.02
580.30	2223.98
580.66	2218.59
581.01	2213.71
581.36	2208.80
581.71	2204.60
582.06	2200.15
582.42	2195.56
582.77	2190.52
583.12	2185.97
583.47	2180.89
583.82	2175.77
584.17	2170.42
584.53	2164.92
584.88	2159.27
585.23	2153.35
585.58	2147.83
585.93	2142.41
586.28	2137.83
586.63	2132.56
586.98	2127.41
587.34	2122.59
587.69	2117.57
588.04	2112.39
588.39	2106.37
588.74	2099.87
589.09	2093.73
589.44	2086.87
589.79	2080.82
590.14	2075.00
590.49	2068.39
590.84	2061.95
591.19	2055.86
591.54	2049.42
591.89	2041.79
592.25	2034.80
592.60	2027.51
592.95	2019.87
593.30	2012.37
593.65	2004.57
594.00	1997.56
594.35	1990.22
594.70	1982.04
595.05	1974.74
595.40	1967.32
595.75	1959.91
596.10	1953.55
596.45	1946.55
596.80	1940.16
597.15	1933.38
597.50	1926.15
597.85	1919.63
598.19	1913.05
598.54	1905.86
598.89	1899.15
599.24	1893.46
599.59	1886.75
599.94	1880.61
600.29	1874.17
600.64	1867.61
600.99	1860.02
601.34	1853.06
601.69	1846.01
602.04	1839.11
602.39	1831.72
602.74	1824.87
603.08	1818.11
603.43	1811.26
603.78	1804.00
604.13	1796.83
604.48	1789.57
604.83	1782.73
605.18	1775.65
605.53	1767.52
605.87	1759.49
606.22	1752.27
606.57	1744.16
606.92	1736.90
607.27	1729.70
607.62	1722.74
607.96	1715.39
608.31	1708.78
608.66	1701.13
609.01	1693.54
609.36	1685.98
609.70	1677.96
610.05	1669.73
610.40	1662.14
610.75	1653.86
611.10	1646.24
611.44	1637.91
611.79	1629.97
612.14	1621.22
612.49	1612.19
612.83	1603.92
613.18	1595.84
613.53	1587.67
613.88	1579.17
614.22	1570.79
614.57	1562.19
614.92	1554.09
615.27	1546.48
615.61	1538.13
615.96	1530.09
616.31	1522.50
616.65	1515.06
617.00	1507.55
617.35	1499.95
617.70	1491.36
618.04	1482.83
618.39	1474.58
618.74	1466.91
619.08	1458.59
619.43	1451.10
619.78	1444.19
620.12	1437.00
620.47	1429.45
620.82	1421.31
621.16	1413.93
621.51	1406.43
621.85	1398.82
622.20	1390.34
622.55	1382.08
622.89	1374.32
623.24	1366.82
623.59	1359.44
623.93	1352.06
624.28	1344.87
624.62	1337.34
624.97	1330.25
625.32	1323.66
625.66	1316.69
626.01	1309.54
626.35	1302.03
626.70	1294.32
627.04	1286.47
627.39	1278.70
627.73	1271.27
628.08	1264.36
628.43	1256.92
628.77	1249.46
629.12	1241.81
629.46	1234.72
629.81	1227.26
630.15	1219.97
630.50	1212.40
630.84	1204.20
631.19	1196.19
631.53	1188.64
631.88	1181.20
632.22	1173.61
632.57	1166.27
632.91	1158.72
633.26	1151.34
633.60	1143.98
633.95	1136.87
634.29	1129.97
634.64	1123.28
634.98	1115.90
635.32	1108.80
635.67	1102.41
636.01	1095.78
636.36	1089.01
636.70	1082.44
637.05	1075.87
637.39	1069.51
637.73	1063.02
638.08	1057.24
638.42	1051.22
638.77	1044.77
639.11	1038.14
639.45	1031.79
639.80	1025.05
640.14	1018.54
640.49	1011.95
640.83	1005.67
641.17	999.44
641.52	993.08
641.86	986.65
642.20	980.81
642.55	974.51
642.89	967.89
643.23	961.40
643.58	955.64
643.92	949.54
644.26	943.46
644.61	937.43
644.95	931.42
645.29	924.77
645.64	918.09
645.98	911.70
646.32	905.85
646.66	899.78
647.01	894.01
647.35	888.33
647.69	882.56
648.04	877.06
648.38	871.27
648.72	865.19
649.06	859.11
649.41	853.28
649.75	847.23
650.09	841.29
650.43	835.48
650.78	829.24
651.12	823.23
651.46	817.51
651.80	811.69
652.14	806.32
652.49	800.94
652.83	795.79
653.17	790.15
653.51	784.38
653.85	779.06
654.20	773.40
654.54	767.42
654.88	761.71
655.22	755.81
655.56	749.98
655.90	744.53
656.25	739.28
656.59	733.95
656.93	728.91
657.27	723.79
657.61	718.36
657.95	713.30
658.29	708.27
658.64	703.01
658.98	697.66
659.32	692.17
659.66	686.92
660.00	681.58
660.34	676.62
660.68	671.77
661.02	666.71
661.36	662.07
661.70	657.66
662.05	653.26
662.39	648.93
662.73	644.64
663.07	640.36
663.41	635.94
663.75	631.36
664.09	626.79
664.43	622.41
664.77	618.32
665.11	614.13
665.45	609.99
665.79	605.94
666.13	601.90
666.47	597.89
666.81	593.76
667.15	589.69
667.49	585.86
667.83	582.06
668.17	578.13
668.51	574.01
668.85	569.99
669.19	566.21
669.53	562.43
669.87	558.50
670.21	554.76
670.55	551.14
670.89	547.83
671.23	544.46
671.57	540.95
671.91	537.39
672.25	533.95
672.58	530.45
672.92	527.02
673.26	523.90
673.60	520.80
673.94	517.66
674.28	514.83
674.62	511.89
674.96	508.80
675.30	505.91
675.64	503.02
675.97	500.22
676.31	497.28
676.65	494.33
676.99	491.66
677.33	488.79
677.67	485.97
678.01	482.92
678.34	479.90
678.68	477.06
679.02	474.26
679.36	471.44
679.70	468.70
680.04	465.97
680.37	463.08
680.71	460.28
681.05	457.71
681.39	454.93
681.73	452.24
682.06	449.75
682.40	447.18
682.74	444.66
683.08	442.11
683.42	439.57
683.75	437.08
684.09	434.49
684.43	432.04
684.77	429.59
685.10	427.26
685.44	424.95
685.78	422.65
686.12	420.42
686.45	418.17
686.79	415.89
687.13	413.71
687.46	411.57
687.80	409.39
688.14	407.20
688.48	405.14
688.81	402.93
689.15	400.75
689.49	398.59
689.82	396.47
690.16	394.39
690.50	392.35
690.83	390.42
691.17	388.47
691.51	386.53
691.84	384.68
692.18	382.70
692.52	380.69
692.85	378.76
693.19	376.90
693.52	375.07
693.86	373.28
694.20	371.48
694.53	369.67
694.87	367.86
695.21	366.06
695.54	364.27
695.88	362.54
696.21	360.83
696.55	359.20
696.88	357.55
697.22	355.90
697.56	354.35
697.89	352.69
698.23	351.07
698.56	349.53
698.90	347.90
699.23	346.30
699.57	344.79
699.90	343.27
700.24	341.75
700.58	340.20
700.91	338.69
701.25	337.28
701.58	335.92
701.92	334.57
702.25	333.22
702.59	331.86
702.92	330.52
703.26	329.23
703.59	327.95
703.93	326.79
704.26	325.55
704.60	324.28
704.93	322.99
705.26	321.79
705.60	320.61
705.93	319.50
706.27	318.49
706.60	317.45
706.94	316.39
707.27	315.24
707.61	314.21
707.94	313.22
708.27	312.11
708.61	311.02
708.94	310.00
709.28	309.03
709.61	308.08
709.94	307.13
710.28	306.14
710.61	305.18
710.95	304.07
711.28	303.19
711.61	302.23
711.95	301.34
712.28	300.37
712.61	299.41
712.95	298.46
713.28	297.59
713.61	296.68
713.95	295.79
714.28	294.98
714.61	294.14
714.95	293.25
715.28	292.37
715.61	291.52
715.95	290.65
716.28	289.82
716.61	289.00
716.95	288.19
717.28	287.41
717.61	286.63
717.94	285.89
718.28	285.09
718.61	284.40
718.94	283.71
719.27	283.04
719.61	282.40
719.94	281.74
720.27	281.00
720.60	280.33
720.94	279.68
721.27	279.10
721.60	278.49
721.93	277.93
722.27	277.43
722.60	276.86
722.93	276.27
723.26	275.72
723.59	275.12
723.93	274.62
724.26	274.08
724.59	273.54
724.92	273.04
725.25	272.47
725.59	271.85
725.92	271.30
726.25	270.82
726.58	270.30
726.91	269.81
727.24	269.34
727.57	268.89
727.91	268.38
728.24	267.86
728.57	267.35
728.90	266.87
729.23	266.33
729.56	265.90
729.89	265.43
730.22	264.94
730.55	264.46
730.89	263.97
731.22	263.50
731.55	263.05
731.88	262.59
732.21	262.19
732.54	261.77
732.87	261.37
733.20	260.95
733.53	260.55
733.86	260.17
734.19	259.73
734.52	259.34
734.85	259.03
735.18	258.61
735.51	258.28
735.84	257.90
736.17	257.57
736.50	257.19
736.83	257.00
737.16	256.68
737.49	256.35
737.82	256.00
738.15	255.68
738.48	255.36
738.81	255.07
739.14	254.74
739.47	254.47
739.80	254.14
740.13	253.82
740.46	253.52
740.79	253.19
741.12	252.94
741.45	252.64
741.78	252.29
742.11	252.07
742.44	251.75
742.77	251.48
743.10	251.17
743.43	250.87
743.75	250.43
744.08	250.29
744.41	250.02
744.74	249.75
745.07	249.49
745.40	249.28
745.73	249.06
746.06	248.81
746.39	248.59
746.71	248.34
747.04	248.10
747.37	247.82
747.70	247.60
748.03	247.34
748.36	247.13
748.68	246.93
749.01	246.67
749.34	246.45
749.67	246.23
750.00	246.05
750.33	245.92
750.65	245.80
750.98	245.47
751.31	245.27
751.64	245.07
751.97	244.91
752.29	244.64
752.62	244.38
752.95	244.21
753.28	243.99
753.60	243.78
753.93	243.62
754.26	243.47
754.59	243.26
754.91	243.05
755.24	242.88
755.57	242.69
755.90	242.48
756.22	242.31
756.55	242.11
756.88	241.90
757.20	241.67
757.53	241.45
757.86	241.27
758.19	241.12
758.51	240.95
758.84	240.73
759.17	240.58
759.49	240.43
759.82	240.26
760.15	240.03
760.47	239.89
760.80	239.71
761.13	239.56
761.45	239.38
761.78	239.23
762.11	239.04
762.43	238.86
762.76	238.71
763.08	238.57
763.41	238.45
763.74	238.33
764.06	238.15
764.39	237.99
764.71	237.84
765.04	237.71
765.37	237.54
765.69	237.41
766.02	237.27
766.34	237.14
766.67	236.99
767.00	236.92
767.32	236.81
767.65	236.72
767.97	236.53
768.30	236.41
768.62	236.32
768.95	236.21
769.27	236.10
769.60	235.98
769.92	235.85
770.25	235.71
770.57	235.58
770.90	235.47
771.22	235.34
771.55	235.23
771.87	235.09
772.20	235.00
772.52	234.95
772.85	234.95
773.17	234.85
773.50	234.74
773.82	234.62
774.15	234.51
774.47	234.40
774.80	234.35
775.12	234.26
775.45	234.16
775.77	234.07
776.09	234.00
776.42	233.95
776.74	233.88
777.07	233.82
777.39	233.75
777.72	233.65
778.04	233.61
778.36	233.57
778.69	233.51
779.01	233.47
779.33	233.34
779.66	233.18
779.98	233.10
780.31	233.02
780.63	233.01
780.95	232.94
781.28	232.86
781.60	232.79
781.92	232.71
782.25	232.64
782.57	232.56
782.89	232.52
783.22	232.41
783.54	232.34
783.86	232.26
784.19	232.18
784.51	232.18
784.83	232.10
785.16	232.06
785.48	232.02
785.80	231.96
786.12	231.94
786.45	231.86
786.77	231.82
787.09	231.79
787.42	231.74
787.74	231.68
788.06	231.70
788.38	231.68
788.71	231.67
789.03	231.67
789.35	231.67
789.67	231.61
789.99	231.62
790.32	231.58
790.64	231.57
790.96	231.61
791.28	231.58
791.61	231.56
791.93	231.52
792.25	231.45
792.57	231.51
792.89	231.46
793.21	231.49
793.54	231.44
793.86	231.41
794.18	231.35
794.50	231.34
794.82	231.29
795.14	231.29
795.47	231.27
795.79	231.20
796.11	231.16
796.43	231.13
796.75	231.11
797.07	231.10
797.39	231.10
797.71	231.05
798.04	231.00
798.36	231.00
798.68	230.94
799.00	230.96
799.32	230.87
799.64	230.88
799.96	230.81
800.28	230.82
800.60	230.80
800.92	230.74
801.24	230.69
801.56	230.66
801.89	230.60
802.21	230.52
802.53	230.48
802.85	230.47
803.17	230.48
803.49	230.41
803.81	230.36
804.13	230.32
804.45	230.24
804.77	230.21
805.09	230.13
805.41	230.10
805.73	230.05
806.05	229.96
806.37	229.88
806.69	229.83
807.01	229.76
807.33	229.74
807.65	229.72
807.97	229.70
808.28	229.64
808.60	229.58
808.92	229.54
809.24	229.58
809.56	229.50
809.88	229.46
810.20	229.44
810.52	229.43
810.84	229.35
811.16	229.28
811.48	229.22
811.80	229.25
812.12	229.21
812.43	229.18
812.75	229.14
813.07	229.15
813.39	229.14
813.71	229.12
814.03	229.07
814.35	229.00
814.67	228.93
814.98	228.91
815.30	228.91
815.62	228.90
815.94	228.81
816.26	228.85
816.58	228.79
816.89	228.77
817.21	228.73
817.53	228.73
817.85	228.72
818.17	228.69
818.48	228.61
818.80	228.62
819.12	228.58
819.44	228.56
819.76	228.51
820.07	228.49
820.39	228.50
820.71	228.49
821.03	228.49
821.34	228.49
821.66	228.49
821.98	228.48
822.30	228.47
822.61	228.54
822.93	228.47
823.25	228.51
823.57	228.47
823.88	228.49
824.20	228.48
824.52	228.51
824.83	228.52
825.15	228.52
825.47	228.47
825.79	228.45
826.10	228.45
826.42	228.43
826.74	228.42
827.05	228.38
827.37	228.38
827.69	228.37
828.00	228.38
828.32	228.37
828.64	228.36
828.95	228.40
829.27	228.36
829.58	228.34
829.90	228.34
830.22	228.35
830.53	228.32
830.85	228.29
831.17	228.22
831.48	228.24
831.80	228.26
832.11	228.30
832.43	228.31
832.75	228.33
833.06	228.40
833.38	228.39
833.69	228.39
834.01	228.39
834.32	228.42
834.64	228.37
834.96	228.35
835.27	228.33
835.59	228.30
835.90	228.26
836.22	228.23
836.53	228.19
836.85	228.18
837.16	228.25
837.48	228.24
837.79	228.31
838.11	228.29
838.42	228.27
838.74	228.24
839.05	228.20
839.37	228.17
839.68	228.07
840.00	228.05
840.31	228.05
840.63	228.01
840.94	227.98
841.26	227.99
841.57	227.97
841.88	227.99
842.20	227.95
842.51	227.90
842.83	227.89
843.14	227.96
843.46	227.93
843.77	227.85
844.08	227.83
844.40	227.79
844.71	227.77
845.03	227.74
845.34	227.72
845.65	227.71
845.97	227.71
846.28	227.68
846.60	227.69
846.91	227.65
847.22	227.65
847.54	227.68
847.85	227.68
848.16	227.66
848.48	227.64
848.79	227.67
849.10	227.71
849.42	227.72
849.73	227.63
850.04	227.61
850.36	227.58
850.67	227.63
850.98	227.64
851.30	227.62
851.61	227.61
851.92	227.61
852.23	227.67
852.55	227.66
852.86	227.70
853.17	227.65
853.49	227.69
853.80	227.70
854.11	227.71
854.42	227.72
854.74	227.73
855.05	227.74
855.36	227.71
855.67	227.69
855.99	227.73
856.30	227.88
856.61	227.89
856.92	227.91
857.23	227.89
857.55	227.87
857.86	227.88
858.17	227.90
858.48	227.86
858.79	227.82
859.11	227.85
859.42	227.84
859.73	227.92
860.04	227.90
860.35	227.88
860.66	227.85
860.98	227.86
861.29	227.86
861.60	227.83
861.91	227.84
862.22	227.87
862.53	227.84
862.84	227.70
863.16	227.75
863.47	227.71
863.78	227.69
864.09	227.69
864.40	227.72
864.71	227.72
865.02	227.76
865.33	227.78
865.64	227.79
865.95	227.80
866.27	227.83
866.58	227.82
866.89	227.84
867.20	227.83
867.51	227.78
867.82	227.80
868.13	227.85
868.44	227.84
868.75	227.83
869.06	227.85
869.37	227.86
869.68	227.83
869.99	227.82
870.30	227.86
870.61	227.88
870.92	227.85
871.23	227.84
871.54	227.84
871.85	227.82
872.16	227.80
872.47	227.76
872.78	227.70
873.09	227.71
873.40	227.69
873.71	227.68
874.02	227.69
874.33	227.66
874.64	227.59
874.95	227.59
875.26	227.56
875.56	227.53
875.87	227.53
876.18	227.47
876.49	227.57
876.80	227.49
877.11	227.46
877.42	227.45
877.73	227.46
878.04	227.43
878.35	227.43
878.66	227.44
878.96	227.43
879.27	227.42
879.58	227.37
879.89	227.34
880.20	227.37
880.51	227.37
880.82	227.35
881.12	227.39
881.43	227.35
881.74	227.32
882.05	227.29
882.36	227.28
882.67	227.29
882.97	227.20
883.28	227.21
883.59	227.19
883.90	227.18
884.21	227.16
884.51	227.16
884.82	227.14
885.13	227.09
885.44	227.11
885.74	227.08
886.05	227.13
886.36	227.14
886.67	227.08
886.98	227.12
887.28	227.13
887.59	227.10
887.90	227.11
888.20	227.16
888.51	227.14
888.82	227.14
889.13	227.18
889.43	227.24
889.74	227.24
890.05	227.23
890.35	227.25
890.66	227.26
890.97	227.23
891.28	227.21
891.58	227.27
891.89	227.30
892.20	227.28
892.50	227.26
892.81	227.25
893.12	227.24
893.42	227.17
893.73	227.16
894.04	227.16
894.34	227.15
894.65	227.11
894.95	227.15
895.26	227.14
895.57	227.18
895.87	227.11
896.18	227.13
896.48	227.17
896.79	227.18
897.10	227.17
897.40	227.19
897.71	227.21
898.01	227.20
898.32	227.15
898.63	227.18
898.93	227.16
899.24	227.19
899.54	227.23
899.85	227.26
900.15	227.28
900.46	227.29
900.76	227.34
901.07	227.36
901.38	227.36
901.68	227.40
901.99	227.36
902.29	227.36
902.60	227.38
902.90	227.35
903.21	227.33
903.51	227.35
903.82	227.40
904.12	227.42
904.43	227.43
904.73	227.45
905.03	227.45
905.34	227.56
905.64	227.56
905.95	227.54
906.25	227.56
906.56	227.56
906.86	227.55
907.17	227.55
907.47	227.55
907.77	227.55
908.08	227.52
908.38	227.52
908.69	227.53
908.99	227.55
909.30	227.56
909.60	227.57
909.90	227.59
910.21	227.58
910.51	227.54
910.81	227.56
911.12	227.57
911.42	227.62
911.73	227.52
912.03	227.50
912.33	227.53
912.64	227.48
912.94	227.46
913.24	227.45
913.55	227.42
913.85	227.40
914.15	227.40
914.46	227.41
914.76	227.38
915.06	227.37
915.37	227.34
915.67	227.34
915.97	227.32
916.27	227.27
916.58	227.23
916.88	227.24
917.18	227.19
917.49	227.27
917.79	227.25
918.09	227.25
918.39	227.26
918.70	227.26
919.00	227.27
919.30	227.31
919.60	227.29
919.91	227.26
920.21	227.26
920.51	227.24
920.81	227.24
921.12	227.27
921.42	227.27
921.72	227.27
922.02	227.26
922.32	227.25
922.63	227.23
922.93	227.28
923.23	227.27
923.53	227.25
923.83	227.12
924.13	227.09
924.44	227.07
924.74	227.10
925.04	227.07
925.34	227.08
925.64	227.04
925.94	227.05
926.24	227.12
926.55	227.12
926.85	227.11
927.15	227.08
927.45	227.06
927.75	227.01
928.05	226.99
928.35	226.97
928.65	227.01
928.95	227.04
929.26	226.99
929.56	227.03
929.86	227.02
930.16	227.05
930.46	227.06
930.76	227.08
931.06	227.02
931.36	227.01
931.66	226.99
931.96	227.01
932.26	227.04
932.56	226.98
932.86	227.00
933.16	227.03
933.46	227.04
933.76	227.06
934.06	227.11
934.36	227.18
934.66	227.20
934.96	227.19
935.26	227.17
935.56	227.19
935.86	227.16
936.16	227.17
936.46	227.14
936.76	227.14
937.06	227.13
937.36	227.13
937.66	227.14
937.96	227.19
938.26	227.17
938.56	227.16
938.86	227.18
939.16	227.21
939.46	227.26
939.76	227.27
940.06	227.29
940.35	227.26
940.65	227.18
940.95	227.18
941.25	227.14
941.55	227.14
941.85	227.17
942.15	227.19
942.45	227.25
942.75	227.29
943.04	227.29
943.34	227.29
943.64	227.30
943.94	227.32
944.24	227.32
944.54	227.32
944.84	227.30
945.13	227.28
945.43	227.28
945.73	227.23
946.03	227.22
946.33	227.21
946.62	227.20
946.92	227.21
947.22	227.20
947.52	227.24
947.82	227.29
948.11	227.28
948.41	227.27
948.71	227.21
949.01	227.23
949.31	227.23
949.60	227.24
949.90	227.25
950.20	227.25
950.50	227.22
950.79	227.21
951.09	227.27
951.39	227.30
951.69	227.28
951.98	227.29
952.28	227.33
952.58	227.32
952.87	227.36
953.17	227.36
953.47	227.36
953.76	227.32
954.06	227.25
954.36	227.23
954.66	227.23
954.95	227.28
955.25	227.28
955.55	227.26
955.84	227.25
956.14	227.24
956.44	227.22
956.73	227.19
957.03	227.19
957.32	227.16
957.62	227.13
957.92	227.10
958.21	227.09
958.51	227.15
958.81	227.14
959.10	227.11
959.40	227.14
959.69	227.14
959.99	227.12
960.29	227.15
960.58	227.14
960.88	227.16
961.17	227.12
961.47	227.09
961.76	227.09
962.06	227.09
962.36	227.07
962.65	227.06
962.95	227.08
963.24	227.06
963.54	227.07
963.83	227.08
964.13	227.09
964.42	227.06
964.72	226.98
965.01	226.96
965.31	226.95
965.60	226.95
965.90	227.00
966.19	226.98
966.49	226.96
966.78	226.95
967.08	226.96
967.37	226.96
967.67	226.94
967.96	226.95
968.26	226.95
968.55	226.98
968.85	226.98
969.14	226.99
969.43	226.98
969.73	226.94
970.02	226.92
970.32	226.93
970.61	226.92
970.91	226.89
971.20	226.90
971.49	226.89
971.79	226.86
972.08	226.80
972.38	226.83
972.67	226.84
972.96	226.84
973.26	226.79
973.55	226.84
973.85	226.84
974.14	226.85
974.43	226.89
974.73	226.90
975.02	226.89
975.31	226.92
975.61	226.93
975.90	226.96
976.19	226.96
976.49	226.95
976.78	226.97
977.07	226.98
977.37	226.99
977.66	227.00
977.95	227.03
978.24	227.05
978.54	227.07
978.83	227.09
979.12	227.09
979.42	227.12
979.71	227.07
980.00	227.11
980.29	227.09
980.59	227.05
980.88	227.07
981.17	227.09
981.46	227.06
981.76	227.08
982.05	227.11
982.34	227.14
982.63	227.19
982.93	227.21
983.22	227.27
983.51	227.29
983.80	227.35
984.09	227.33
984.39	227.32
984.68	227.33
984.97	227.34
985.26	227.35
985.55	227.34
985.85	227.36
986.14	227.35
986.43	227.39
986.72	227.41
987.01	227.37
987.30	227.39
987.59	227.39
987.89	227.42
988.18	227.39
988.47	227.38
988.76	227.34
989.05	227.33
989.34	227.29
989.63	227.28
989.92	227.26
990.22	227.24
990.51	227.22
990.80	227.21
991.09	227.22
991.38	227.24
991.67	227.24
991.96	227.24
992.25	227.24
992.54	227.22
992.83	227.20
993.12	227.21
993.41	227.23
993.70	227.26
993.99	227.24
994.28	227.26
994.58	227.26
994.87	227.26
995.16	227.22
995.45	227.20
995.74	227.20
996.03	227.17
996.32	227.20
996.61	227.27
996.90	227.23
997.19	227.18
997.48	227.17
997.77	227.14
998.06	227.10
998.34	227.08
998.63	227.06
998.92	227.06
999.21	227.06
999.50	227.03
999.79	226.98
1000.08	226.96
1000.37	226.94
1000.66	226.89
1000.95	226.91
1001.24	226.93
1001.53	226.94
1001.82	226.91
1002.11	226.90
1002.40	226.89
1002.68	226.89
1002.97	226.96
1003.26	226.94
1003.55	226.91
1003.84	226.94
1004.13	226.96
1004.42	226.96
1004.71	226.91
1004.99	226.90
1005.28	226.91
1005.57	226.90
1005.86	226.90
1006.15	226.90
1006.44	226.88
1006.72	226.90
1007.01	226.86
1007.30	226.88
1007.59	226.86
1007.88	226.88
1008.17	226.88
1008.45	226.86
1008.74	226.82
1009.03	226.76
1009.32	226.76
1009.60	226.77
1009.89	226.76
1010.18	226.74
1010.47	226.74
1010.76	226.77
1011.04	226.79
1011.33	226.78
1011.62	226.79
1011.91	226.78
1012.19	226.78
1012.48	226.80
1012.77	226.80
1013.05	226.86
1013.34	226.85
1013.63	226.84
1013.92	226.83
1014.20	226.85
1014.49	226.88
1014.78	226.86
1015.06	226.86
1015.35	226.88
1015.64	226.89
1015.92	226.90
1016.21	226.91
1016.50	226.91
1016.78	226.92
1017.07	226.90
1017.36	226.87
1017.64	226.88
1017.93	226.90
1018.22	226.87
1018.50	226.86
1018.79	226.87
1019.08	226.85
1019.36	226.84
1019.65	226.85
1019.93	226.90
1020.22	226.91
1020.51	226.94
1020.79	226.97
1021.08	226.36
1021.36	226.55
1021.65	227.05
1021.94	227.23
1022.22	226.80
1022.51	227.09
1022.79	227.83
1023.08	227.16
1023.36	228.16
1023.65	227.06
>>>>>End Processed Spectral Data<<<<<
