SpectraSuite Data File
++++++++++++++++++++++++++++++++++++
Date: Fri Feb 01 16:59:47 EST 2013
User: group
Dark Spectrum Present: No
Reference Spectrum Present: No
Number of Sampled Component Spectra: 1
Spectrometers: USB2E7196
Integration Time (usec): 35000 (USB2E7196)
Spectra Averaged: 100 (USB2E7196)
Boxcar Smoothing: 10 (USB2E7196)
Correct for Electrical Dark: No (USB2E7196)
Strobe/Lamp Enabled: No (USB2E7196)
Correct for Detector Non-linearity: No (USB2E7196)
Correct for Stray Light: No (USB2E7196)
Number of Pixels in Processed Spectrum: 2048
>>>>>Begin Processed Spectral Data<<<<<
339.09	0.00
339.48	212.17
339.86	214.81
340.24	216.15
340.63	217.50
341.01	220.19
341.39	220.19
341.78	220.72
342.16	222.24
342.54	223.18
342.93	211.43
343.31	222.12
343.69	222.70
344.07	223.14
344.46	223.55
344.84	223.93
345.22	224.17
345.60	224.39
345.99	224.62
346.37	224.76
346.75	224.85
347.13	224.90
347.52	224.97
347.90	225.02
348.28	225.07
348.66	225.11
349.05	225.11
349.43	225.17
349.81	225.19
350.19	225.26
350.57	225.32
350.96	225.42
351.34	225.50
351.72	225.60
352.10	225.69
352.48	225.79
352.87	225.83
353.25	225.91
353.63	225.97
354.01	226.04
354.39	226.15
354.77	226.24
355.15	226.35
355.54	226.41
355.92	226.46
356.30	226.53
356.68	226.68
357.06	226.76
357.44	226.82
357.82	226.91
358.20	226.98
358.58	227.07
358.97	227.12
359.35	227.22
359.73	227.29
360.11	227.38
360.49	227.43
360.87	227.51
361.25	227.57
361.63	227.68
362.01	227.73
362.39	227.77
362.77	227.87
363.15	227.92
363.53	227.96
363.91	228.02
364.29	228.05
364.67	227.95
365.05	228.01
365.43	228.05
365.81	228.09
366.19	228.14
366.57	228.15
366.95	228.15
367.33	228.11
367.71	228.13
368.09	228.14
368.47	228.14
368.85	228.12
369.23	228.11
369.61	228.07
369.99	228.05
370.37	228.03
370.75	228.00
371.13	227.94
371.51	227.90
371.89	227.83
372.27	227.78
372.65	227.76
373.03	227.67
373.41	227.63
373.78	227.58
374.16	227.47
374.54	227.39
374.92	227.36
375.30	227.29
375.68	227.21
376.06	227.15
376.44	227.09
376.82	227.02
377.19	226.99
377.57	226.88
377.95	226.80
378.33	226.74
378.71	226.64
379.09	226.59
379.47	226.54
379.84	226.48
380.22	226.44
380.60	226.36
380.98	226.34
381.36	226.27
381.73	226.20
382.11	226.17
382.49	226.11
382.87	226.02
383.25	225.97
383.62	226.04
384.00	225.92
384.38	225.85
384.76	225.82
385.13	225.78
385.51	225.75
385.89	225.68
386.27	225.61
386.64	225.55
387.02	225.48
387.40	225.42
387.78	225.37
388.15	225.31
388.53	225.28
388.91	225.22
389.29	225.14
389.66	225.11
390.04	225.07
390.42	225.09
390.79	225.06
391.17	225.06
391.55	224.95
391.92	224.96
392.30	224.95
392.68	224.90
393.05	224.88
393.43	224.89
393.81	224.92
394.18	224.91
394.56	224.92
394.94	224.99
395.31	224.99
395.69	225.05
396.06	225.12
396.44	225.12
396.82	225.10
397.19	225.19
397.57	225.18
397.95	225.24
398.32	225.22
398.70	225.23
399.07	225.30
399.45	225.29
399.82	225.34
400.20	225.40
400.58	225.48
400.95	225.49
401.33	225.56
401.70	225.68
402.08	225.78
402.45	225.86
402.83	225.91
403.20	226.02
403.58	226.09
403.95	226.18
404.33	226.30
404.71	226.45
405.08	226.63
405.46	226.78
405.83	226.89
406.21	227.04
406.58	227.24
406.96	227.36
407.33	227.55
407.70	227.75
408.08	228.02
408.45	228.26
408.83	228.50
409.20	228.71
409.58	228.89
409.95	229.15
410.33	229.42
410.70	229.69
411.08	229.98
411.45	230.33
411.82	230.61
412.20	230.96
412.57	231.39
412.95	231.71
413.32	232.10
413.69	232.52
414.07	232.96
414.44	233.42
414.82	233.93
415.19	234.45
415.56	234.96
415.94	235.48
416.31	236.08
416.68	236.70
417.06	237.42
417.43	238.08
417.81	238.84
418.18	239.63
418.55	240.45
418.93	241.31
419.30	242.16
419.67	243.11
420.04	244.07
420.42	245.07
420.79	246.20
421.16	247.36
421.54	248.59
421.91	249.79
422.28	251.07
422.66	252.38
423.03	253.71
423.40	255.08
423.77	256.50
424.15	257.93
424.52	259.41
424.89	261.02
425.26	262.61
425.64	264.02
426.01	265.61
426.38	267.28
426.75	268.94
427.13	270.67
427.50	272.47
427.87	274.33
428.24	276.15
428.61	277.91
428.99	279.82
429.36	281.84
429.73	283.89
430.10	285.87
430.47	287.92
430.85	289.99
431.22	292.20
431.59	294.56
431.96	296.76
432.33	299.22
432.70	301.52
433.08	304.33
433.45	306.98
433.82	309.52
434.19	312.35
434.56	315.12
434.93	317.75
435.30	320.35
435.68	323.23
436.05	326.03
436.42	328.78
436.79	331.28
437.16	333.95
437.53	336.76
437.90	339.54
438.27	342.27
438.64	345.08
439.01	347.60
439.38	349.79
439.75	351.96
440.13	354.44
440.50	356.76
440.87	358.53
441.24	360.42
441.61	362.63
441.98	364.09
442.35	365.87
442.72	367.70
443.09	369.45
443.46	370.41
443.83	371.00
444.20	371.53
444.57	372.37
444.94	372.66
445.31	372.96
445.68	373.32
446.05	373.39
446.42	373.05
446.79	372.70
447.16	372.30
447.53	372.00
447.90	370.86
448.27	369.75
448.64	368.17
449.01	367.09
449.37	365.10
449.74	363.24
450.11	361.06
450.48	358.61
450.85	356.16
451.22	354.07
451.59	352.06
451.96	350.09
452.33	347.58
452.70	345.23
453.07	342.47
453.43	339.62
453.80	336.89
454.17	334.22
454.54	331.67
454.91	328.98
455.28	326.29
455.65	323.84
456.02	321.42
456.38	319.32
456.75	316.70
457.12	314.47
457.49	312.26
457.86	310.07
458.23	308.25
458.59	306.18
458.96	304.13
459.33	302.30
459.70	300.50
460.07	298.98
460.43	297.31
460.80	295.72
461.17	294.28
461.54	292.76
461.91	291.35
462.27	289.94
462.64	288.69
463.01	287.41
463.38	286.11
463.74	284.73
464.11	283.60
464.48	282.60
464.85	281.51
465.21	280.68
465.58	279.79
465.95	278.72
466.32	277.85
466.68	276.95
467.05	276.07
467.42	275.19
467.78	274.28
468.15	273.42
468.52	272.78
468.88	271.95
469.25	271.24
469.62	270.66
469.98	270.00
470.35	269.37
470.72	268.80
471.08	268.17
471.45	267.68
471.82	267.15
472.18	266.52
472.55	266.13
472.92	265.61
473.28	265.18
473.65	264.72
474.02	264.30
474.38	263.95
474.75	263.64
475.11	263.33
475.48	263.04
475.85	262.83
476.21	262.61
476.58	262.42
476.94	262.27
477.31	262.09
477.67	261.93
478.04	261.84
478.41	261.78
478.77	261.80
479.14	261.73
479.50	261.74
479.87	261.83
480.23	261.89
480.60	261.97
480.96	262.07
481.33	262.30
481.69	262.46
482.06	262.63
482.42	262.83
482.79	263.05
483.15	263.41
483.52	263.79
483.88	264.13
484.25	264.51
484.61	264.93
484.98	265.39
485.34	265.97
485.71	266.54
486.07	267.13
486.44	267.67
486.80	268.39
487.17	269.11
487.53	269.91
487.90	270.73
488.26	271.67
488.62	272.63
488.99	273.61
489.35	274.67
489.72	275.81
490.08	277.01
490.44	278.26
490.81	279.59
491.17	280.90
491.54	282.37
491.90	283.91
492.26	285.56
492.63	287.25
492.99	289.03
493.36	290.92
493.72	292.95
494.08	295.08
494.45	297.28
494.81	299.66
495.17	302.09
495.54	304.65
495.90	307.31
496.26	310.14
496.63	313.09
496.99	316.27
497.35	319.49
497.72	322.88
498.08	326.38
498.44	330.03
498.80	333.97
499.17	338.05
499.53	342.18
499.89	346.52
500.26	351.01
500.62	355.69
500.98	360.67
501.34	365.71
501.71	371.02
502.07	376.43
502.43	381.98
502.79	387.73
503.16	393.75
503.52	400.03
503.88	406.40
504.24	413.05
504.60	419.82
504.97	426.88
505.33	434.09
505.69	441.78
506.05	449.47
506.41	457.24
506.78	465.28
507.14	473.72
507.50	482.35
507.86	491.26
508.22	500.32
508.59	509.46
508.95	518.98
509.31	528.64
509.67	538.61
510.03	548.76
510.39	559.27
510.75	569.98
511.12	580.73
511.48	591.88
511.84	603.11
512.20	614.45
512.56	626.31
512.92	638.38
513.28	650.57
513.64	662.88
514.00	675.51
514.37	688.27
514.73	701.06
515.09	713.83
515.45	726.98
515.81	740.39
516.17	754.06
516.53	767.97
516.89	782.03
517.25	795.97
517.61	810.32
517.97	824.53
518.33	838.69
518.69	853.27
519.05	868.06
519.41	883.06
519.77	898.39
520.13	913.55
520.49	928.65
520.85	943.73
521.21	959.14
521.57	975.04
521.93	990.45
522.29	1006.54
522.65	1022.60
523.01	1038.50
523.37	1054.24
523.73	1070.10
524.09	1085.87
524.45	1101.79
524.81	1118.20
525.17	1134.52
525.53	1151.07
525.89	1167.56
526.25	1184.12
526.61	1200.12
526.97	1216.45
527.33	1232.62
527.68	1248.89
528.04	1265.13
528.40	1281.34
528.76	1298.08
529.12	1314.19
529.48	1330.78
529.84	1346.42
530.20	1362.56
530.56	1379.07
530.91	1396.10
531.27	1412.60
531.63	1428.63
531.99	1444.94
532.35	1460.62
532.71	1476.25
533.07	1492.13
533.42	1507.76
533.78	1523.31
534.14	1539.27
534.50	1554.23
534.86	1569.72
535.21	1584.67
535.57	1600.13
535.93	1615.35
536.29	1629.86
536.65	1644.70
537.00	1659.13
537.36	1674.22
537.72	1688.60
538.08	1702.74
538.44	1716.32
538.79	1729.84
539.15	1743.25
539.51	1756.59
539.87	1770.57
540.22	1783.95
540.58	1797.41
540.94	1810.46
541.29	1823.08
541.65	1835.40
542.01	1848.40
542.37	1860.54
542.72	1872.52
543.08	1884.10
543.44	1896.20
543.79	1907.18
544.15	1917.96
544.51	1929.38
544.87	1940.11
545.22	1950.81
545.58	1960.99
545.94	1970.51
546.29	1980.27
546.65	1990.14
547.01	1999.38
547.36	2007.94
547.72	2016.37
548.07	2024.15
548.43	2032.03
548.79	2040.01
549.14	2047.55
549.50	2054.68
549.86	2062.20
550.21	2069.54
550.57	2076.64
550.92	2083.19
551.28	2090.26
551.64	2097.27
551.99	2103.74
552.35	2109.88
552.70	2115.78
553.06	2121.76
553.41	2128.03
553.77	2133.85
554.13	2139.75
554.48	2145.84
554.84	2151.46
555.19	2156.65
555.55	2161.94
555.90	2166.65
556.26	2171.61
556.61	2176.36
556.97	2180.83
557.32	2185.02
557.68	2189.25
558.03	2193.61
558.39	2197.33
558.74	2201.98
559.10	2205.94
559.45	2209.53
559.81	2213.80
560.16	2217.80
560.52	2221.11
560.87	2224.58
561.23	2227.44
561.58	2230.40
561.94	2232.94
562.29	2235.26
562.64	2238.10
563.00	2240.65
563.35	2244.19
563.71	2247.28
564.06	2250.49
564.42	2253.54
564.77	2256.21
565.12	2258.58
565.48	2260.61
565.83	2262.75
566.19	2264.22
566.54	2265.19
566.89	2266.58
567.25	2267.28
567.60	2268.62
567.96	2270.41
568.31	2271.29
568.66	2272.64
569.02	2273.41
569.37	2273.92
569.72	2274.93
570.08	2275.13
570.43	2275.25
570.78	2274.82
571.14	2273.49
571.49	2272.28
571.84	2272.10
572.20	2271.05
572.55	2270.15
572.90	2268.62
573.26	2267.35
573.61	2265.67
573.96	2264.20
574.31	2261.55
574.67	2258.94
575.02	2255.60
575.37	2252.37
575.72	2248.97
576.08	2245.69
576.43	2242.48
576.78	2239.00
577.13	2235.97
577.49	2233.03
577.84	2229.95
578.19	2226.44
578.54	2223.16
578.90	2219.40
579.25	2214.09
579.60	2209.47
579.95	2204.63
580.30	2199.87
580.66	2194.96
581.01	2190.30
581.36	2185.64
581.71	2181.66
582.06	2177.32
582.42	2173.08
582.77	2168.04
583.12	2163.80
583.47	2159.36
583.82	2154.61
584.17	2149.68
584.53	2144.29
584.88	2138.87
585.23	2133.17
585.58	2127.78
585.93	2122.51
586.28	2117.75
586.63	2112.78
586.98	2107.79
587.34	2103.15
587.69	2098.42
588.04	2093.36
588.39	2087.84
588.74	2081.41
589.09	2075.29
589.44	2068.64
589.79	2062.64
590.14	2057.23
590.49	2050.62
590.84	2044.37
591.19	2038.51
591.54	2032.12
591.89	2025.12
592.25	2018.67
592.60	2011.76
592.95	2004.62
593.30	1997.31
593.65	1989.83
594.00	1982.92
594.35	1975.83
594.70	1967.94
595.05	1961.10
595.40	1953.87
595.75	1946.58
596.10	1940.69
596.45	1934.21
596.80	1928.33
597.15	1921.99
597.50	1915.07
597.85	1908.75
598.19	1902.30
598.54	1895.57
598.89	1889.09
599.24	1883.37
599.59	1876.78
599.94	1870.71
600.29	1864.32
600.64	1857.90
600.99	1850.68
601.34	1844.11
601.69	1837.34
602.04	1830.73
602.39	1823.42
602.74	1816.75
603.08	1810.06
603.43	1803.31
603.78	1796.02
604.13	1788.92
604.48	1781.85
604.83	1775.15
605.18	1768.40
605.53	1760.56
605.87	1752.52
606.22	1745.46
606.57	1737.56
606.92	1730.30
607.27	1723.24
607.62	1716.48
607.96	1709.33
608.31	1702.93
608.66	1695.42
609.01	1688.04
609.36	1680.59
609.70	1672.64
610.05	1664.71
610.40	1657.18
610.75	1649.05
611.10	1641.57
611.44	1633.12
611.79	1625.09
612.14	1616.51
612.49	1607.47
612.83	1599.08
613.18	1591.06
613.53	1582.94
613.88	1574.45
614.22	1566.22
614.57	1557.55
614.92	1549.57
615.27	1542.20
615.61	1533.91
615.96	1525.83
616.31	1518.12
616.65	1510.85
617.00	1503.30
617.35	1495.59
617.70	1487.35
618.04	1478.86
618.39	1470.61
618.74	1463.07
619.08	1454.85
619.43	1447.17
619.78	1440.15
620.12	1433.07
620.47	1425.49
620.82	1417.44
621.16	1410.01
621.51	1402.50
621.85	1394.90
622.20	1386.49
622.55	1378.03
622.89	1370.20
623.24	1362.56
623.59	1355.14
623.93	1347.64
624.28	1340.41
624.62	1333.07
624.97	1325.83
625.32	1319.00
625.66	1312.02
626.01	1304.99
626.35	1297.60
626.70	1289.97
627.04	1282.38
627.39	1274.58
627.73	1267.30
628.08	1260.39
628.43	1253.27
628.77	1245.93
629.12	1238.54
629.46	1231.37
629.81	1224.01
630.15	1216.80
630.50	1209.56
630.84	1201.48
631.19	1193.60
631.53	1186.23
631.88	1178.62
632.22	1171.02
632.57	1163.83
632.91	1156.47
633.26	1149.09
633.60	1141.70
633.95	1134.57
634.29	1127.49
634.64	1120.89
634.98	1113.55
635.32	1106.48
635.67	1099.83
636.01	1093.23
636.36	1086.37
636.70	1079.92
637.05	1073.35
637.39	1066.88
637.73	1060.35
638.08	1054.45
638.42	1048.39
638.77	1041.99
639.11	1035.47
639.45	1029.13
639.80	1022.41
640.14	1015.94
640.49	1009.38
640.83	1003.12
641.17	997.00
641.52	990.75
641.86	984.27
642.20	978.42
642.55	972.07
642.89	965.62
643.23	959.04
643.58	953.33
643.92	947.09
644.26	941.14
644.61	935.09
644.95	929.07
645.29	922.56
645.64	915.90
645.98	909.51
646.32	903.60
646.66	897.63
647.01	891.91
647.35	886.12
647.69	880.31
648.04	874.78
648.38	868.99
648.72	863.08
649.06	857.03
649.41	851.21
649.75	845.32
650.09	839.43
650.43	833.72
650.78	827.58
651.12	821.67
651.46	815.94
651.80	810.29
652.14	804.95
652.49	799.61
652.83	794.51
653.17	788.89
653.51	783.30
653.85	777.96
654.20	772.40
654.54	766.51
654.88	760.78
655.22	754.82
655.56	749.13
655.90	743.67
656.25	738.55
656.59	733.15
656.93	728.00
657.27	722.82
657.61	717.41
657.95	712.35
658.29	707.29
658.64	702.08
658.98	696.69
659.32	691.30
659.66	686.06
660.00	680.76
660.34	675.84
660.68	670.92
661.02	665.83
661.36	661.14
661.70	656.60
662.05	652.26
662.39	648.03
662.73	643.60
663.07	639.23
663.41	634.80
663.75	630.34
664.09	625.81
664.43	621.50
664.77	617.32
665.11	613.07
665.45	608.93
665.79	604.87
666.13	600.86
666.47	596.75
666.81	592.59
667.15	588.51
667.49	584.62
667.83	580.81
668.17	576.90
668.51	572.82
668.85	568.84
669.19	564.98
669.53	561.22
669.87	557.30
670.21	553.52
670.55	549.83
670.89	546.45
671.23	543.06
671.57	539.48
671.91	536.01
672.25	532.52
672.58	529.03
672.92	525.59
673.26	522.33
673.60	519.19
673.94	516.12
674.28	513.14
674.62	510.20
674.96	507.11
675.30	504.22
675.64	501.32
675.97	498.53
676.31	495.75
676.65	492.77
676.99	490.09
677.33	487.27
677.67	484.52
678.01	481.47
678.34	478.54
678.68	475.73
679.02	472.93
679.36	470.13
679.70	467.42
680.04	464.67
680.37	461.87
680.71	459.04
681.05	456.44
681.39	453.78
681.73	451.12
682.06	448.58
682.40	446.09
682.74	443.51
683.08	440.99
683.42	438.36
683.75	435.89
684.09	433.33
684.43	430.90
684.77	428.43
685.10	426.14
685.44	423.82
685.78	421.50
686.12	419.25
686.45	416.97
686.79	414.70
687.13	412.50
687.46	410.30
687.80	408.13
688.14	405.95
688.48	403.92
688.81	401.69
689.15	399.55
689.49	397.35
689.82	395.27
690.16	393.17
690.50	391.19
690.83	389.28
691.17	387.33
691.51	385.43
691.84	383.54
692.18	381.62
692.52	379.68
692.85	377.75
693.19	375.86
693.52	374.03
693.86	372.17
694.20	370.39
694.53	368.62
694.87	366.82
695.21	364.97
695.54	363.08
695.88	361.36
696.21	359.59
696.55	357.94
696.88	356.29
697.22	354.60
697.56	352.97
697.89	351.31
698.23	349.76
698.56	348.18
698.90	346.62
699.23	344.97
699.57	343.39
699.90	341.84
700.24	340.31
700.58	338.80
700.91	337.30
701.25	335.84
701.58	334.48
701.92	333.10
702.25	331.75
702.59	330.38
702.92	329.09
703.26	327.80
703.59	326.54
703.93	325.35
704.26	324.12
704.60	322.81
704.93	321.50
705.26	320.18
705.60	318.97
705.93	317.77
706.27	316.72
706.60	315.66
706.94	314.60
707.27	313.45
707.61	312.39
707.94	311.41
708.27	310.33
708.61	309.23
708.94	308.21
709.28	307.21
709.61	306.26
709.94	305.30
710.28	304.29
710.61	303.29
710.95	302.18
711.28	301.26
711.61	300.38
711.95	299.53
712.28	298.60
712.61	297.61
712.95	296.68
713.28	295.78
713.61	294.87
713.95	293.95
714.28	293.14
714.61	292.27
714.95	291.38
715.28	290.50
715.61	289.61
715.95	288.76
716.28	287.92
716.61	287.11
716.95	286.31
717.28	285.58
717.61	284.81
717.94	284.10
718.28	283.29
718.61	282.51
718.94	281.79
719.27	281.14
719.61	280.51
719.94	279.85
720.27	279.13
720.60	278.44
720.94	277.82
721.27	277.21
721.60	276.61
721.93	276.02
722.27	275.50
722.60	274.96
722.93	274.38
723.26	273.85
723.59	273.26
723.93	272.69
724.26	272.13
724.59	271.55
724.92	270.97
725.25	270.46
725.59	269.94
725.92	269.45
726.25	268.89
726.58	268.36
726.91	267.88
727.24	267.35
727.57	266.88
727.91	266.38
728.24	265.90
728.57	265.42
728.90	264.94
729.23	264.42
729.56	263.99
729.89	263.51
730.22	263.00
730.55	262.53
730.89	262.08
731.22	261.61
731.55	261.17
731.88	260.77
732.21	260.36
732.54	259.95
732.87	259.50
733.20	259.09
733.53	258.74
733.86	258.31
734.19	257.95
734.52	257.57
734.85	257.22
735.18	256.80
735.51	256.41
735.84	256.07
736.17	255.76
736.50	255.35
736.83	255.16
737.16	254.86
737.49	254.55
737.82	254.19
738.15	253.88
738.48	253.58
738.81	253.24
739.14	252.93
739.47	252.62
739.80	252.32
740.13	252.08
740.46	251.77
740.79	251.49
741.12	251.20
741.45	250.89
741.78	250.56
742.11	250.30
742.44	250.01
742.77	249.73
743.10	249.42
743.43	249.14
743.75	248.73
744.08	248.55
744.41	248.26
744.74	248.00
745.07	247.74
745.40	247.51
745.73	247.30
746.06	247.01
746.39	246.76
746.71	246.50
747.04	246.20
747.37	245.92
747.70	245.71
748.03	245.47
748.36	245.23
748.68	245.02
749.01	244.76
749.34	244.54
749.67	244.29
750.00	244.06
750.33	243.91
750.65	243.70
750.98	243.37
751.31	243.13
751.64	242.92
751.97	242.71
752.29	242.48
752.62	242.24
752.95	242.06
753.28	241.83
753.60	241.59
753.93	241.44
754.26	241.24
754.59	240.98
754.91	240.75
755.24	240.54
755.57	240.34
755.90	240.15
756.22	239.92
756.55	239.75
756.88	239.58
757.20	239.34
757.53	239.16
757.86	238.98
758.19	238.83
758.51	238.67
758.84	238.46
759.17	238.29
759.49	238.10
759.82	237.93
760.15	237.81
760.47	237.69
760.80	237.47
761.13	237.34
761.45	237.21
761.78	237.06
762.11	236.98
762.43	236.84
762.76	236.69
763.08	236.60
763.41	236.47
763.74	236.32
764.06	236.13
764.39	235.97
764.71	235.85
765.04	235.69
765.37	235.56
765.69	235.41
766.02	235.27
766.34	235.16
766.67	235.01
767.00	234.88
767.32	234.76
767.65	234.72
767.97	234.59
768.30	234.49
768.62	234.38
768.95	234.21
769.27	234.08
769.60	233.98
769.92	233.82
770.25	233.69
770.57	233.56
770.90	233.50
771.22	233.40
771.55	233.31
771.87	233.25
772.20	233.13
772.52	233.13
772.85	233.15
773.17	233.06
773.50	232.97
773.82	232.87
774.15	232.74
774.47	232.60
774.80	232.49
775.12	232.37
775.45	232.30
775.77	232.24
776.09	232.18
776.42	232.10
776.74	232.08
777.07	232.00
777.39	231.93
777.72	231.82
778.04	231.79
778.36	231.66
778.69	231.55
779.01	231.52
779.33	231.37
779.66	231.22
779.98	231.11
780.31	231.06
780.63	231.03
780.95	231.02
781.28	230.96
781.60	230.93
781.92	230.87
782.25	230.79
782.57	230.71
782.89	230.63
783.22	230.56
783.54	230.48
783.86	230.40
784.19	230.37
784.51	230.35
784.83	230.28
785.16	230.24
785.48	230.20
785.80	230.15
786.12	230.12
786.45	230.07
786.77	230.10
787.09	230.05
787.42	229.99
787.74	229.92
788.06	229.88
788.38	229.84
788.71	229.84
789.03	229.85
789.35	229.87
789.67	229.83
789.99	229.82
790.32	229.76
790.64	229.76
790.96	229.78
791.28	229.74
791.61	229.68
791.93	229.67
792.25	229.65
792.57	229.70
792.89	229.66
793.21	229.62
793.54	229.57
793.86	229.53
794.18	229.49
794.50	229.45
794.82	229.40
795.14	229.34
795.47	229.31
795.79	229.27
796.11	229.17
796.43	229.15
796.75	229.11
797.07	229.10
797.39	229.05
797.71	228.96
798.04	228.92
798.36	228.91
798.68	228.85
799.00	228.85
799.32	228.72
799.64	228.70
799.96	228.65
800.28	228.62
800.60	228.60
800.92	228.56
801.24	228.50
801.56	228.47
801.89	228.45
802.21	228.40
802.53	228.34
802.85	228.31
803.17	228.33
803.49	228.29
803.81	228.26
804.13	228.23
804.45	228.18
804.77	228.15
805.09	228.12
805.41	228.08
805.73	227.99
806.05	227.97
806.37	227.92
806.69	227.88
807.01	227.85
807.33	227.80
807.65	227.73
807.97	227.76
808.28	227.71
808.60	227.69
808.92	227.63
809.24	227.68
809.56	227.66
809.88	227.59
810.20	227.57
810.52	227.56
810.84	227.51
811.16	227.49
811.48	227.48
811.80	227.48
812.12	227.49
812.43	227.52
812.75	227.47
813.07	227.48
813.39	227.46
813.71	227.41
814.03	227.38
814.35	227.37
814.67	227.31
814.98	227.28
815.30	227.23
815.62	227.20
815.94	227.08
816.26	227.12
816.58	227.08
816.89	227.05
817.21	227.00
817.53	226.99
817.85	226.98
818.17	226.94
818.48	226.89
818.80	226.84
819.12	226.79
819.44	226.78
819.76	226.71
820.07	226.68
820.39	226.68
820.71	226.68
821.03	226.66
821.34	226.62
821.66	226.62
821.98	226.62
822.30	226.61
822.61	226.65
822.93	226.58
823.25	226.56
823.57	226.55
823.88	226.56
824.20	226.54
824.52	226.52
824.83	226.49
825.15	226.46
825.47	226.47
825.79	226.50
826.10	226.46
826.42	226.43
826.74	226.43
827.05	226.41
827.37	226.40
827.69	226.40
828.00	226.40
828.32	226.41
828.64	226.40
828.95	226.45
829.27	226.42
829.58	226.39
829.90	226.41
830.22	226.41
830.53	226.36
830.85	226.34
831.17	226.32
831.48	226.32
831.80	226.30
832.11	226.29
832.43	226.27
832.75	226.24
833.06	226.31
833.38	226.27
833.69	226.28
834.01	226.31
834.32	226.28
834.64	226.27
834.96	226.26
835.27	226.26
835.59	226.25
835.90	226.25
836.22	226.23
836.53	226.21
836.85	226.17
837.16	226.28
837.48	226.29
837.79	226.31
838.11	226.30
838.42	226.30
838.74	226.30
839.05	226.29
839.37	226.28
839.68	226.25
840.00	226.29
840.31	226.29
840.63	226.27
840.94	226.25
841.26	226.25
841.57	226.24
841.88	226.26
842.20	226.23
842.51	226.23
842.83	226.24
843.14	226.34
843.46	226.34
843.77	226.28
844.08	226.27
844.40	226.24
844.71	226.28
845.03	226.28
845.34	226.30
845.65	226.29
845.97	226.29
846.28	226.31
846.60	226.31
846.91	226.30
847.22	226.26
847.54	226.29
847.85	226.31
848.16	226.32
848.48	226.26
848.79	226.27
849.10	226.25
849.42	226.25
849.73	226.15
850.04	226.15
850.36	226.12
850.67	226.14
850.98	226.13
851.30	226.11
851.61	226.08
851.92	226.03
852.23	226.05
852.55	226.08
852.86	226.03
853.17	226.04
853.49	226.04
853.80	226.06
854.11	226.08
854.42	226.07
854.74	226.03
855.05	226.05
855.36	226.00
855.67	226.01
855.99	226.03
856.30	226.14
856.61	226.14
856.92	226.15
857.23	226.11
857.55	226.09
857.86	226.10
858.17	226.12
858.48	226.09
858.79	226.06
859.11	226.08
859.42	226.09
859.73	226.04
860.04	226.03
860.35	226.04
860.66	225.96
860.98	225.95
861.29	225.96
861.60	225.93
861.91	225.93
862.22	225.91
862.53	225.85
862.84	225.72
863.16	225.71
863.47	225.65
863.78	225.64
864.09	225.63
864.40	225.61
864.71	225.60
865.02	225.59
865.33	225.58
865.64	225.53
865.95	225.50
866.27	225.58
866.58	225.58
866.89	225.56
867.20	225.54
867.51	225.54
867.82	225.51
868.13	225.55
868.44	225.53
868.75	225.55
869.06	225.57
869.37	225.54
869.68	225.52
869.99	225.58
870.30	225.59
870.61	225.60
870.92	225.60
871.23	225.61
871.54	225.64
871.85	225.65
872.16	225.66
872.47	225.67
872.78	225.60
873.09	225.55
873.40	225.52
873.71	225.57
874.02	225.56
874.33	225.59
874.64	225.58
874.95	225.59
875.26	225.56
875.56	225.55
875.87	225.58
876.18	225.58
876.49	225.67
876.80	225.68
877.11	225.66
877.42	225.65
877.73	225.66
878.04	225.65
878.35	225.65
878.66	225.66
878.96	225.63
879.27	225.65
879.58	225.65
879.89	225.70
880.20	225.71
880.51	225.71
880.82	225.68
881.12	225.66
881.43	225.66
881.74	225.63
882.05	225.63
882.36	225.64
882.67	225.64
882.97	225.52
883.28	225.51
883.59	225.53
883.90	225.52
884.21	225.51
884.51	225.49
884.82	225.47
885.13	225.47
885.44	225.48
885.74	225.47
886.05	225.52
886.36	225.49
886.67	225.44
886.98	225.52
887.28	225.54
887.59	225.55
887.90	225.56
888.20	225.59
888.51	225.61
888.82	225.58
889.13	225.58
889.43	225.65
889.74	225.63
890.05	225.61
890.35	225.59
890.66	225.61
890.97	225.59
891.28	225.60
891.58	225.57
891.89	225.62
892.20	225.61
892.50	225.57
892.81	225.53
893.12	225.56
893.42	225.49
893.73	225.49
894.04	225.49
894.34	225.50
894.65	225.49
894.95	225.46
895.26	225.47
895.57	225.50
895.87	225.42
896.18	225.45
896.48	225.45
896.79	225.45
897.10	225.50
897.40	225.52
897.71	225.54
898.01	225.54
898.32	225.52
898.63	225.51
898.93	225.50
899.24	225.53
899.54	225.45
899.85	225.46
900.15	225.45
900.46	225.43
900.76	225.43
901.07	225.43
901.38	225.40
901.68	225.42
901.99	225.37
902.29	225.34
902.60	225.35
902.90	225.33
903.21	225.35
903.51	225.27
903.82	225.26
904.12	225.24
904.43	225.24
904.73	225.21
905.03	225.21
905.34	225.31
905.64	225.32
905.95	225.35
906.25	225.38
906.56	225.38
906.86	225.39
907.17	225.39
907.47	225.41
907.77	225.44
908.08	225.40
908.38	225.44
908.69	225.49
908.99	225.49
909.30	225.53
909.60	225.49
909.90	225.51
910.21	225.50
910.51	225.48
910.81	225.49
911.12	225.51
911.42	225.51
911.73	225.39
912.03	225.40
912.33	225.40
912.64	225.36
912.94	225.36
913.24	225.33
913.55	225.33
913.85	225.31
914.15	225.30
914.46	225.32
914.76	225.30
915.06	225.27
915.37	225.28
915.67	225.26
915.97	225.26
916.27	225.23
916.58	225.25
916.88	225.28
917.18	225.25
917.49	225.33
917.79	225.33
918.09	225.37
918.39	225.35
918.70	225.38
919.00	225.42
919.30	225.45
919.60	225.44
919.91	225.40
920.21	225.43
920.51	225.43
920.81	225.44
921.12	225.43
921.42	225.42
921.72	225.41
922.02	225.42
922.32	225.44
922.63	225.47
922.93	225.51
923.23	225.51
923.53	225.51
923.83	225.45
924.13	225.46
924.44	225.46
924.74	225.47
925.04	225.50
925.34	225.45
925.64	225.42
925.94	225.44
926.24	225.51
926.55	225.49
926.85	225.51
927.15	225.51
927.45	225.54
927.75	225.55
928.05	225.56
928.35	225.50
928.65	225.51
928.95	225.53
929.26	225.48
929.56	225.50
929.86	225.49
930.16	225.47
930.46	225.46
930.76	225.47
931.06	225.48
931.36	225.47
931.66	225.50
931.96	225.49
932.26	225.50
932.56	225.46
932.86	225.44
933.16	225.42
933.46	225.36
933.76	225.30
934.06	225.33
934.36	225.36
934.66	225.39
934.96	225.40
935.26	225.37
935.56	225.39
935.86	225.35
936.16	225.36
936.46	225.36
936.76	225.36
937.06	225.32
937.36	225.30
937.66	225.27
937.96	225.27
938.26	225.26
938.56	225.23
938.86	225.26
939.16	225.29
939.46	225.30
939.76	225.35
940.06	225.36
940.35	225.33
940.65	225.27
940.95	225.28
941.25	225.24
941.55	225.25
941.85	225.25
942.15	225.26
942.45	225.25
942.75	225.25
943.04	225.29
943.34	225.34
943.64	225.35
943.94	225.34
944.24	225.33
944.54	225.39
944.84	225.42
945.13	225.37
945.43	225.36
945.73	225.36
946.03	225.40
946.33	225.39
946.62	225.40
946.92	225.39
947.22	225.38
947.52	225.42
947.82	225.43
948.11	225.41
948.41	225.43
948.71	225.45
949.01	225.46
949.31	225.42
949.60	225.41
949.90	225.42
950.20	225.40
950.50	225.40
950.79	225.37
951.09	225.36
951.39	225.37
951.69	225.35
951.98	225.40
952.28	225.37
952.58	225.37
952.87	225.38
953.17	225.42
953.47	225.42
953.76	225.39
954.06	225.36
954.36	225.36
954.66	225.37
954.95	225.40
955.25	225.39
955.55	225.40
955.84	225.38
956.14	225.36
956.44	225.42
956.73	225.41
957.03	225.41
957.32	225.41
957.62	225.40
957.92	225.44
958.21	225.42
958.51	225.55
958.81	225.57
959.10	225.59
959.40	225.61
959.69	225.61
959.99	225.65
960.29	225.66
960.58	225.67
960.88	225.68
961.17	225.65
961.47	225.66
961.76	225.65
962.06	225.65
962.36	225.63
962.65	225.60
962.95	225.62
963.24	225.59
963.54	225.63
963.83	225.63
964.13	225.61
964.42	225.58
964.72	225.47
965.01	225.44
965.31	225.40
965.60	225.37
965.90	225.43
966.19	225.40
966.49	225.39
966.78	225.36
967.08	225.37
967.37	225.35
967.67	225.33
967.96	225.36
968.26	225.36
968.55	225.37
968.85	225.36
969.14	225.32
969.43	225.33
969.73	225.25
970.02	225.25
970.32	225.25
970.61	225.22
970.91	225.20
971.20	225.18
971.49	225.17
971.79	225.19
972.08	225.10
972.38	225.10
972.67	225.10
972.96	225.12
973.26	225.07
973.55	225.12
973.85	225.10
974.14	225.08
974.43	225.09
974.73	225.10
975.02	225.09
975.31	225.08
975.61	225.04
975.90	225.09
976.19	225.07
976.49	225.09
976.78	225.11
977.07	225.10
977.37	225.13
977.66	225.14
977.95	225.12
978.24	225.14
978.54	225.16
978.83	225.16
979.12	225.14
979.42	225.14
979.71	225.10
980.00	225.08
980.29	225.08
980.59	225.06
980.88	225.07
981.17	225.10
981.46	225.11
981.76	225.13
982.05	225.12
982.34	225.13
982.63	225.14
982.93	225.13
983.22	225.14
983.51	225.15
983.80	225.16
984.09	225.18
984.39	225.19
984.68	225.17
984.97	225.15
985.26	225.14
985.55	225.19
985.85	225.19
986.14	225.24
986.43	225.22
986.72	225.24
987.01	225.21
987.30	225.19
987.59	225.21
987.89	225.24
988.18	225.24
988.47	225.24
988.76	225.21
989.05	225.24
989.34	225.27
989.63	225.27
989.92	225.27
990.22	225.24
990.51	225.23
990.80	225.22
991.09	225.27
991.38	225.30
991.67	225.29
991.96	225.26
992.25	225.25
992.54	225.28
992.83	225.27
993.12	225.30
993.41	225.33
993.70	225.40
993.99	225.39
994.28	225.41
994.58	225.42
994.87	225.42
995.16	225.39
995.45	225.37
995.74	225.36
996.03	225.38
996.32	225.41
996.61	225.45
996.90	225.46
997.19	225.45
997.48	225.46
997.77	225.43
998.06	225.43
998.34	225.43
998.63	225.43
998.92	225.45
999.21	225.45
999.50	225.46
999.79	225.40
1000.08	225.40
1000.37	225.39
1000.66	225.37
1000.95	225.37
1001.24	225.40
1001.53	225.40
1001.82	225.41
1002.11	225.38
1002.40	225.35
1002.68	225.38
1002.97	225.45
1003.26	225.41
1003.55	225.39
1003.84	225.41
1004.13	225.44
1004.42	225.40
1004.71	225.38
1004.99	225.37
1005.28	225.37
1005.57	225.35
1005.86	225.33
1006.15	225.31
1006.44	225.28
1006.72	225.29
1007.01	225.29
1007.30	225.26
1007.59	225.25
1007.88	225.22
1008.17	225.24
1008.45	225.24
1008.74	225.15
1009.03	225.06
1009.32	225.06
1009.60	225.03
1009.89	225.02
1010.18	224.99
1010.47	225.00
1010.76	225.03
1011.04	225.00
1011.33	224.98
1011.62	224.97
1011.91	224.97
1012.19	224.95
1012.48	224.94
1012.77	224.94
1013.05	224.95
1013.34	224.89
1013.63	224.86
1013.92	224.85
1014.20	224.81
1014.49	224.80
1014.78	224.82
1015.06	224.81
1015.35	224.82
1015.64	224.87
1015.92	224.88
1016.21	224.88
1016.50	224.91
1016.78	224.90
1017.07	224.89
1017.36	224.87
1017.64	224.85
1017.93	224.85
1018.22	224.84
1018.50	224.87
1018.79	224.88
1019.08	224.82
1019.36	224.86
1019.65	224.87
1019.93	224.92
1020.22	224.94
1020.51	225.00
1020.79	225.00
1021.08	224.12
1021.36	225.19
1021.65	225.13
1021.94	224.23
1022.22	224.81
1022.51	224.77
1022.79	225.59
1023.08	224.79
1023.36	226.32
1023.65	224.88
>>>>>End Processed Spectral Data<<<<<
