SpectraSuite Data File
++++++++++++++++++++++++++++++++++++
Date: Fri Feb 01 15:41:05 EST 2013
User: group
Dark Spectrum Present: No
Reference Spectrum Present: No
Number of Sampled Component Spectra: 1
Spectrometers: USB2E7196
Integration Time (usec): 35000 (USB2E7196)
Spectra Averaged: 100 (USB2E7196)
Boxcar Smoothing: 10 (USB2E7196)
Correct for Electrical Dark: No (USB2E7196)
Strobe/Lamp Enabled: No (USB2E7196)
Correct for Detector Non-linearity: No (USB2E7196)
Correct for Stray Light: No (USB2E7196)
Number of Pixels in Processed Spectrum: 2048
>>>>>Begin Processed Spectral Data<<<<<
339.09	0.00
339.48	214.96
339.86	216.87
340.24	217.34
340.63	219.17
341.01	221.88
341.39	221.62
341.78	223.41
342.16	224.65
342.54	224.59
342.93	213.17
343.31	223.95
343.69	224.47
344.07	224.91
344.46	225.34
344.84	225.69
345.22	225.94
345.60	226.17
345.99	226.34
346.37	226.44
346.75	226.55
347.13	226.62
347.52	226.69
347.90	226.78
348.28	226.82
348.66	226.88
349.05	226.89
349.43	226.94
349.81	226.99
350.19	227.04
350.57	227.10
350.96	227.17
351.34	227.25
351.72	227.37
352.10	227.46
352.48	227.56
352.87	227.65
353.25	227.73
353.63	227.78
354.01	227.83
354.39	227.91
354.77	227.99
355.15	228.07
355.54	228.15
355.92	228.19
356.30	228.28
356.68	228.37
357.06	228.46
357.44	228.51
357.82	228.59
358.20	228.67
358.58	228.76
358.97	228.86
359.35	228.92
359.73	228.97
360.11	229.05
360.49	229.06
360.87	229.09
361.25	229.14
361.63	229.24
362.01	229.30
362.39	229.33
362.77	229.38
363.15	229.43
363.53	229.44
363.91	229.49
364.29	229.50
364.67	229.46
365.05	229.48
365.43	229.50
365.81	229.51
366.19	229.56
366.57	229.57
366.95	229.53
367.33	229.49
367.71	229.48
368.09	229.44
368.47	229.48
368.85	229.46
369.23	229.45
369.61	229.37
369.99	229.39
370.37	229.39
370.75	229.40
371.13	229.31
371.51	229.23
371.89	229.17
372.27	229.13
372.65	229.06
373.03	228.97
373.41	228.90
373.78	228.83
374.16	228.69
374.54	228.61
374.92	228.56
375.30	228.51
375.68	228.44
376.06	228.38
376.44	228.28
376.82	228.22
377.19	228.12
377.57	228.08
377.95	227.97
378.33	227.87
378.71	227.73
379.09	227.69
379.47	227.65
379.84	227.57
380.22	227.48
380.60	227.41
380.98	227.34
381.36	227.25
381.73	227.16
382.11	227.10
382.49	227.03
382.87	226.93
383.25	226.89
383.62	226.91
384.00	226.87
384.38	226.83
384.76	226.77
385.13	226.75
385.51	226.67
385.89	226.59
386.27	226.55
386.64	226.52
387.02	226.45
387.40	226.41
387.78	226.39
388.15	226.36
388.53	226.32
388.91	226.32
389.29	226.30
389.66	226.28
390.04	226.28
390.42	226.26
390.79	226.27
391.17	226.27
391.55	226.18
391.92	226.13
392.30	226.15
392.68	226.14
393.05	226.16
393.43	226.22
393.81	226.24
394.18	226.23
394.56	226.25
394.94	226.30
395.31	226.33
395.69	226.35
396.06	226.41
396.44	226.47
396.82	226.49
397.19	226.62
397.57	226.70
397.95	226.76
398.32	226.80
398.70	226.86
399.07	226.96
399.45	227.00
399.82	227.09
400.20	227.13
400.58	227.22
400.95	227.25
401.33	227.33
401.70	227.50
402.08	227.61
402.45	227.74
402.83	227.84
403.20	227.95
403.58	228.07
403.95	228.21
404.33	228.30
404.71	228.46
405.08	228.62
405.46	228.74
405.83	228.91
406.21	229.05
406.58	229.21
406.96	229.34
407.33	229.55
407.70	229.75
408.08	230.07
408.45	230.29
408.83	230.54
409.20	230.78
409.58	230.97
409.95	231.21
410.33	231.49
410.70	231.80
411.08	232.12
411.45	232.43
411.82	232.71
412.20	233.10
412.57	233.50
412.95	233.76
413.32	234.18
413.69	234.57
414.07	235.01
414.44	235.46
414.82	235.93
415.19	236.45
415.56	236.98
415.94	237.48
416.31	238.12
416.68	238.74
417.06	239.44
417.43	240.12
417.81	240.90
418.18	241.64
418.55	242.44
418.93	243.27
419.30	244.17
419.67	245.11
420.04	246.04
420.42	246.99
420.79	248.15
421.16	249.27
421.54	250.44
421.91	251.66
422.28	252.92
422.66	254.23
423.03	255.55
423.40	256.87
423.77	258.24
424.15	259.61
424.52	261.05
424.89	262.62
425.26	264.12
425.64	265.56
426.01	267.15
426.38	268.79
426.75	270.45
427.13	272.14
427.50	273.98
427.87	275.82
428.24	277.66
428.61	279.41
428.99	281.34
429.36	283.45
429.73	285.49
430.10	287.52
430.47	289.61
430.85	291.71
431.22	293.99
431.59	296.40
431.96	298.64
432.33	301.17
432.70	303.58
433.08	306.46
433.45	309.10
433.82	311.73
434.19	314.63
434.56	317.47
434.93	320.14
435.30	322.73
435.68	325.68
436.05	328.59
436.42	331.38
436.79	333.92
437.16	336.68
437.53	339.56
437.90	342.36
438.27	345.13
438.64	347.98
439.01	350.55
439.38	352.75
439.75	354.96
440.13	357.43
440.50	359.73
440.87	361.60
441.24	363.55
441.61	365.68
441.98	367.16
442.35	369.00
442.72	370.87
443.09	372.66
443.46	373.60
443.83	374.18
444.20	374.75
444.57	375.62
444.94	375.87
445.31	376.22
445.68	376.62
446.05	376.62
446.42	376.23
446.79	375.80
447.16	375.38
447.53	375.11
447.90	373.97
448.27	372.83
448.64	371.24
449.01	370.13
449.37	368.19
449.74	366.33
450.11	364.07
450.48	361.57
450.85	359.09
451.22	356.97
451.59	354.94
451.96	352.93
452.33	350.31
452.70	347.92
453.07	345.09
453.43	342.15
453.80	339.42
454.17	336.77
454.54	334.26
454.91	331.55
455.28	328.85
455.65	326.35
456.02	323.92
456.38	321.77
456.75	319.09
457.12	316.84
457.49	314.57
457.86	312.38
458.23	310.57
458.59	308.53
458.96	306.46
459.33	304.60
459.70	302.77
460.07	301.23
460.43	299.49
460.80	297.85
461.17	296.42
461.54	294.93
461.91	293.49
462.27	292.02
462.64	290.77
463.01	289.41
463.38	288.14
463.74	286.77
464.11	285.60
464.48	284.58
464.85	283.47
465.21	282.62
465.58	281.70
465.95	280.60
466.32	279.64
466.68	278.72
467.05	277.78
467.42	276.87
467.78	275.95
468.15	275.13
468.52	274.49
468.88	273.62
469.25	272.86
469.62	272.23
469.98	271.55
470.35	270.89
470.72	270.30
471.08	269.63
471.45	269.08
471.82	268.52
472.18	267.88
472.55	267.45
472.92	266.92
473.28	266.46
473.65	265.97
474.02	265.51
474.38	265.15
474.75	264.85
475.11	264.55
475.48	264.28
475.85	264.03
476.21	263.77
476.58	263.62
476.94	263.43
477.31	263.23
477.67	263.10
478.04	262.99
478.41	262.90
478.77	262.93
479.14	262.87
479.50	262.86
479.87	262.93
480.23	262.99
480.60	263.02
480.96	263.13
481.33	263.37
481.69	263.61
482.06	263.84
482.42	264.03
482.79	264.29
483.15	264.63
483.52	265.02
483.88	265.38
484.25	265.77
484.61	266.20
484.98	266.72
485.34	267.26
485.71	267.85
486.07	268.48
486.44	269.01
486.80	269.75
487.17	270.50
487.53	271.33
487.90	272.19
488.26	273.15
488.62	274.12
488.99	275.08
489.35	276.10
489.72	277.16
490.08	278.39
490.44	279.61
490.81	280.95
491.17	282.26
491.54	283.75
491.90	285.28
492.26	286.95
492.63	288.63
492.99	290.41
493.36	292.29
493.72	294.34
494.08	296.48
494.45	298.71
494.81	301.08
495.17	303.49
495.54	306.06
495.90	308.73
496.26	311.56
496.63	314.50
496.99	317.60
497.35	320.87
497.72	324.26
498.08	327.78
498.44	331.43
498.80	335.36
499.17	339.42
499.53	343.61
499.89	347.98
500.26	352.49
500.62	357.19
500.98	362.18
501.34	367.30
501.71	372.65
502.07	378.07
502.43	383.71
502.79	389.55
503.16	395.61
503.52	401.90
503.88	408.28
504.24	414.92
504.60	421.84
504.97	428.95
505.33	436.31
505.69	443.99
506.05	451.74
506.41	459.66
506.78	467.75
507.14	476.13
507.50	484.81
507.86	493.83
508.22	502.99
508.59	512.18
508.95	521.71
509.31	531.52
509.67	541.67
510.03	551.92
510.39	562.44
510.75	573.20
511.12	584.13
511.48	595.41
511.84	606.83
512.20	618.37
512.56	630.36
512.92	642.51
513.28	654.84
513.64	667.35
514.00	680.07
514.37	693.02
514.73	706.11
515.09	719.20
515.45	732.54
515.81	746.09
516.17	760.07
516.53	774.23
516.89	788.31
517.25	802.40
517.61	816.85
517.97	831.36
518.33	845.81
518.69	860.62
519.05	875.65
519.41	890.87
519.77	906.45
520.13	921.97
520.49	937.33
520.85	952.79
521.21	968.50
521.57	984.72
521.93	1000.58
522.29	1016.98
522.65	1033.19
523.01	1049.48
523.37	1065.61
523.73	1081.80
524.09	1097.90
524.45	1114.30
524.81	1131.08
525.17	1147.90
525.53	1164.80
525.89	1181.72
526.25	1198.52
526.61	1214.87
526.97	1231.60
527.33	1248.06
527.68	1264.53
528.04	1280.99
528.40	1297.61
528.76	1314.69
529.12	1331.31
529.48	1348.03
529.84	1364.10
530.20	1380.74
530.56	1397.69
530.91	1415.02
531.27	1431.75
531.63	1448.16
531.99	1464.75
532.35	1480.59
532.71	1496.56
533.07	1512.86
533.42	1528.68
533.78	1544.72
534.14	1561.12
534.50	1576.56
534.86	1592.53
535.21	1607.75
535.57	1623.78
535.93	1639.38
536.29	1654.20
536.65	1669.22
537.00	1684.12
537.36	1699.31
537.72	1713.77
538.08	1728.08
538.44	1741.98
538.79	1755.86
539.15	1769.59
539.51	1783.25
539.87	1797.65
540.22	1811.32
540.58	1825.11
540.94	1838.58
541.29	1851.57
541.65	1864.14
542.01	1877.38
542.37	1889.65
542.72	1902.22
543.08	1914.02
543.44	1926.25
543.79	1937.52
544.15	1948.51
544.51	1960.07
544.87	1971.17
545.22	1981.95
545.58	1992.29
545.94	2001.93
546.29	2011.73
546.65	2021.68
547.01	2030.97
547.36	2039.67
547.72	2048.10
548.07	2055.84
548.43	2063.92
548.79	2071.89
549.14	2079.54
549.50	2086.74
549.86	2094.41
550.21	2101.57
550.57	2108.69
550.92	2115.19
551.28	2122.25
551.64	2129.41
551.99	2135.83
552.35	2141.88
552.70	2148.23
553.06	2154.26
553.41	2160.65
553.77	2166.88
554.13	2172.84
554.48	2179.00
554.84	2184.48
555.19	2189.92
555.55	2195.00
555.90	2199.45
556.26	2204.37
556.61	2209.23
556.97	2213.54
557.32	2217.62
557.68	2221.90
558.03	2226.21
558.39	2230.03
558.74	2234.65
559.10	2238.52
559.45	2242.29
559.81	2246.73
560.16	2250.52
560.52	2253.74
560.87	2257.15
561.23	2259.72
561.58	2262.59
561.94	2265.15
562.29	2267.47
562.64	2270.07
563.00	2272.76
563.35	2276.30
563.71	2279.41
564.06	2282.49
564.42	2285.33
564.77	2287.85
565.12	2289.87
565.48	2291.71
565.83	2293.51
566.19	2294.66
566.54	2295.53
566.89	2296.69
567.25	2297.17
567.60	2298.38
567.96	2300.04
568.31	2300.91
568.66	2302.02
569.02	2302.51
569.37	2302.85
569.72	2303.68
570.08	2303.78
570.43	2303.91
570.78	2303.34
571.14	2301.65
571.49	2300.24
571.84	2299.85
572.20	2298.56
572.55	2297.68
572.90	2296.13
573.26	2294.80
573.61	2293.24
573.96	2291.49
574.31	2288.51
574.67	2285.47
575.02	2281.84
575.37	2278.43
575.72	2274.55
576.08	2271.16
576.43	2267.85
576.78	2263.95
577.13	2260.86
577.49	2257.85
577.84	2254.20
578.19	2250.39
578.54	2246.77
578.90	2242.40
579.25	2236.91
579.60	2232.03
579.95	2227.07
580.30	2221.98
580.66	2216.89
581.01	2211.91
581.36	2206.82
581.71	2202.58
582.06	2198.10
582.42	2193.60
582.77	2188.32
583.12	2183.66
583.47	2178.96
583.82	2173.94
584.17	2168.80
584.53	2163.24
584.88	2157.47
585.23	2151.69
585.58	2146.29
585.93	2140.86
586.28	2136.14
586.63	2130.94
586.98	2125.72
587.34	2120.90
587.69	2116.08
588.04	2110.61
588.39	2104.85
588.74	2098.52
589.09	2092.28
589.44	2085.55
589.79	2079.55
590.14	2073.78
590.49	2067.17
590.84	2060.68
591.19	2054.81
591.54	2048.34
591.89	2040.88
592.25	2034.07
592.60	2026.88
592.95	2019.14
593.30	2011.84
593.65	2004.25
594.00	1997.22
594.35	1990.09
594.70	1981.98
595.05	1974.60
595.40	1967.33
595.75	1959.84
596.10	1953.56
596.45	1946.84
596.80	1940.63
597.15	1933.95
597.50	1926.92
597.85	1920.56
598.19	1913.89
598.54	1906.59
598.89	1899.95
599.24	1894.06
599.59	1887.33
599.94	1881.01
600.29	1874.71
600.64	1868.16
600.99	1860.72
601.34	1853.92
601.69	1846.95
602.04	1840.07
602.39	1832.81
602.74	1825.96
603.08	1819.23
603.43	1812.40
603.78	1805.00
604.13	1797.72
604.48	1790.35
604.83	1783.50
605.18	1776.39
605.53	1768.34
605.87	1760.40
606.22	1753.03
606.57	1745.05
606.92	1737.66
607.27	1730.45
607.62	1723.47
607.96	1715.94
608.31	1709.24
608.66	1701.64
609.01	1694.12
609.36	1686.44
609.70	1678.34
610.05	1670.21
610.40	1662.33
610.75	1653.99
611.10	1646.25
611.44	1637.93
611.79	1630.03
612.14	1621.28
612.49	1612.27
612.83	1604.05
613.18	1595.91
613.53	1587.90
613.88	1579.42
614.22	1571.19
614.57	1562.66
614.92	1554.75
615.27	1547.31
615.61	1539.06
615.96	1531.02
616.31	1523.37
616.65	1516.06
617.00	1508.47
617.35	1500.83
617.70	1492.56
618.04	1484.11
618.39	1475.98
618.74	1468.28
619.08	1459.93
619.43	1452.40
619.78	1445.54
620.12	1438.27
620.47	1430.78
620.82	1422.63
621.16	1415.24
621.51	1407.59
621.85	1399.96
622.20	1391.34
622.55	1382.99
622.89	1375.13
623.24	1367.46
623.59	1360.08
623.93	1352.62
624.28	1345.51
624.62	1338.03
624.97	1330.94
625.32	1324.11
625.66	1317.16
626.01	1309.97
626.35	1302.40
626.70	1294.71
627.04	1286.81
627.39	1279.03
627.73	1271.60
628.08	1264.65
628.43	1257.35
628.77	1250.03
629.12	1242.44
629.46	1235.29
629.81	1227.88
630.15	1220.67
630.50	1213.30
630.84	1205.09
631.19	1197.19
631.53	1189.65
631.88	1182.05
632.22	1174.45
632.57	1167.20
632.91	1159.65
633.26	1152.21
633.60	1145.01
633.95	1137.93
634.29	1131.06
634.64	1124.40
634.98	1117.05
635.32	1109.92
635.67	1103.31
636.01	1096.66
636.36	1089.92
636.70	1083.37
637.05	1076.77
637.39	1070.22
637.73	1063.69
638.08	1057.77
638.42	1051.80
638.77	1045.33
639.11	1038.78
639.45	1032.31
639.80	1025.67
640.14	1019.20
640.49	1012.71
640.83	1006.28
641.17	999.89
641.52	993.43
641.86	987.02
642.20	981.19
642.55	974.85
642.89	968.32
643.23	961.83
643.58	956.00
643.92	949.82
644.26	943.76
644.61	937.80
644.95	931.71
645.29	925.02
645.64	918.18
645.98	911.88
646.32	905.98
646.66	899.96
647.01	894.05
647.35	888.33
647.69	882.54
648.04	877.10
648.38	871.38
648.72	865.44
649.06	859.30
649.41	853.41
649.75	847.42
650.09	841.47
650.43	835.64
650.78	829.51
651.12	823.54
651.46	817.83
651.80	812.04
652.14	806.72
652.49	801.43
652.83	796.28
653.17	790.64
653.51	784.90
653.85	779.53
654.20	773.98
654.54	767.98
654.88	762.28
655.22	756.38
655.56	750.76
655.90	745.36
656.25	740.20
656.59	734.84
656.93	729.81
657.27	724.65
657.61	719.24
657.95	714.20
658.29	709.17
658.64	703.92
658.98	698.63
659.32	693.11
659.66	687.91
660.00	682.61
660.34	677.61
660.68	672.75
661.02	667.74
661.36	663.06
661.70	658.52
662.05	654.08
662.39	649.72
662.73	645.28
663.07	640.84
663.41	636.36
663.75	631.85
664.09	627.29
664.43	622.93
664.77	618.82
665.11	614.51
665.45	610.41
665.79	606.30
666.13	602.19
666.47	598.18
666.81	594.01
667.15	589.92
667.49	586.02
667.83	582.25
668.17	578.35
668.51	574.21
668.85	570.20
669.19	566.40
669.53	562.61
669.87	558.66
670.21	555.01
670.55	551.35
670.89	548.00
671.23	544.57
671.57	541.04
671.91	537.53
672.25	534.08
672.58	530.54
672.92	527.19
673.26	524.01
673.60	520.80
673.94	517.75
674.28	514.84
674.62	511.89
674.96	508.76
675.30	505.85
675.64	502.96
675.97	500.25
676.31	497.36
676.65	494.43
676.99	491.77
677.33	488.90
677.67	486.05
678.01	482.97
678.34	479.95
678.68	477.12
679.02	474.27
679.36	471.51
679.70	468.78
680.04	465.99
680.37	463.11
680.71	460.38
681.05	457.70
681.39	454.98
681.73	452.37
682.06	449.86
682.40	447.28
682.74	444.79
683.08	442.24
683.42	439.69
683.75	437.18
684.09	434.63
684.43	432.14
684.77	429.75
685.10	427.40
685.44	425.13
685.78	422.82
686.12	420.57
686.45	418.25
686.79	416.03
687.13	413.87
687.46	411.74
687.80	409.57
688.14	407.38
688.48	405.34
688.81	403.09
689.15	400.94
689.49	398.77
689.82	396.68
690.16	394.60
690.50	392.64
690.83	390.68
691.17	388.70
691.51	386.81
691.84	384.93
692.18	383.02
692.52	381.05
692.85	379.16
693.19	377.28
693.52	375.47
693.86	373.61
694.20	371.83
694.53	369.99
694.87	368.15
695.21	366.35
695.54	364.53
695.88	362.83
696.21	361.09
696.55	359.44
696.88	357.76
697.22	356.08
697.56	354.45
697.89	352.81
698.23	351.18
698.56	349.58
698.90	348.01
699.23	346.34
699.57	344.72
699.90	343.15
700.24	341.64
700.58	340.08
700.91	338.57
701.25	337.08
701.58	335.71
701.92	334.33
702.25	332.94
702.59	331.55
702.92	330.22
703.26	328.91
703.59	327.62
703.93	326.42
704.26	325.20
704.60	323.89
704.93	322.61
705.26	321.36
705.60	320.19
705.93	318.96
706.27	317.91
706.60	316.91
706.94	315.82
707.27	314.68
707.61	313.63
707.94	312.61
708.27	311.53
708.61	310.51
708.94	309.52
709.28	308.57
709.61	307.63
709.94	306.62
710.28	305.64
710.61	304.65
710.95	303.59
711.28	302.67
711.61	301.73
711.95	300.79
712.28	299.82
712.61	298.83
712.95	297.93
713.28	297.05
713.61	296.17
713.95	295.26
714.28	294.43
714.61	293.55
714.95	292.69
715.28	291.84
715.61	290.90
715.95	290.06
716.28	289.18
716.61	288.33
716.95	287.49
717.28	286.73
717.61	285.97
717.94	285.23
718.28	284.42
718.61	283.70
718.94	283.04
719.27	282.38
719.61	281.79
719.94	281.19
720.27	280.48
720.60	279.79
720.94	279.15
721.27	278.55
721.60	278.04
721.93	277.47
722.27	276.94
722.60	276.42
722.93	275.83
723.26	275.34
723.59	274.80
723.93	274.30
724.26	273.75
724.59	273.21
724.92	272.69
725.25	272.24
725.59	271.74
725.92	271.23
726.25	270.75
726.58	270.24
726.91	269.75
727.24	269.28
727.57	268.84
727.91	268.36
728.24	267.86
728.57	267.35
728.90	266.89
729.23	266.39
729.56	265.96
729.89	265.51
730.22	265.01
730.55	264.53
730.89	264.08
731.22	263.65
731.55	263.21
731.88	262.80
732.21	262.31
732.54	261.92
732.87	261.49
733.20	261.10
733.53	260.71
733.86	260.28
734.19	259.90
734.52	259.47
734.85	259.17
735.18	258.79
735.51	258.44
735.84	258.10
736.17	257.75
736.50	257.38
736.83	257.11
737.16	256.79
737.49	256.47
737.82	256.09
738.15	255.76
738.48	255.43
738.81	255.11
739.14	254.81
739.47	254.47
739.80	254.17
740.13	253.85
740.46	253.51
740.79	253.23
741.12	252.89
741.45	252.63
741.78	252.27
742.11	252.00
742.44	251.64
742.77	251.35
743.10	251.04
743.43	250.74
743.75	250.39
744.08	250.26
744.41	249.97
744.74	249.71
745.07	249.43
745.40	249.15
745.73	248.92
746.06	248.65
746.39	248.39
746.71	248.12
747.04	247.83
747.37	247.55
747.70	247.32
748.03	247.09
748.36	246.89
748.68	246.66
749.01	246.41
749.34	246.19
749.67	245.92
750.00	245.71
750.33	245.56
750.65	245.32
750.98	244.95
751.31	244.74
751.64	244.54
751.97	244.42
752.29	244.22
752.62	243.96
752.95	243.75
753.28	243.51
753.60	243.26
753.93	243.09
754.26	242.85
754.59	242.61
754.91	242.39
755.24	242.14
755.57	241.94
755.90	241.75
756.22	241.59
756.55	241.40
756.88	241.18
757.20	240.94
757.53	240.75
757.86	240.57
758.19	240.43
758.51	240.25
758.84	239.99
759.17	239.82
759.49	239.65
759.82	239.52
760.15	239.37
760.47	239.24
760.80	239.04
761.13	238.95
761.45	238.78
761.78	238.67
762.11	238.53
762.43	238.36
762.76	238.20
763.08	238.05
763.41	237.95
763.74	237.81
764.06	237.65
764.39	237.53
764.71	237.41
765.04	237.25
765.37	237.13
765.69	236.99
766.02	236.82
766.34	236.72
766.67	236.56
767.00	236.45
767.32	236.42
767.65	236.39
767.97	236.27
768.30	236.12
768.62	236.00
768.95	235.88
769.27	235.78
769.60	235.68
769.92	235.55
770.25	235.41
770.57	235.32
770.90	235.20
771.22	235.10
771.55	235.01
771.87	234.94
772.20	234.85
772.52	234.86
772.85	234.90
773.17	234.81
773.50	234.72
773.82	234.64
774.15	234.50
774.47	234.37
774.80	234.30
775.12	234.25
775.45	234.19
775.77	234.16
776.09	234.08
776.42	234.02
776.74	233.96
777.07	233.89
777.39	233.80
777.72	233.73
778.04	233.65
778.36	233.56
778.69	233.50
779.01	233.43
779.33	233.29
779.66	233.12
779.98	233.06
780.31	233.02
780.63	233.00
780.95	232.96
781.28	232.87
781.60	232.79
781.92	232.76
782.25	232.68
782.57	232.59
782.89	232.57
783.22	232.52
783.54	232.43
783.86	232.36
784.19	232.28
784.51	232.26
784.83	232.22
785.16	232.16
785.48	232.09
785.80	232.05
786.12	231.99
786.45	231.94
786.77	231.87
787.09	231.79
787.42	231.70
787.74	231.66
788.06	231.61
788.38	231.55
788.71	231.47
789.03	231.44
789.35	231.38
789.67	231.32
789.99	231.25
790.32	231.22
790.64	231.23
790.96	231.30
791.28	231.24
791.61	231.17
791.93	231.15
792.25	231.10
792.57	231.08
792.89	231.04
793.21	231.03
793.54	231.02
793.86	230.96
794.18	230.89
794.50	230.85
794.82	230.82
795.14	230.84
795.47	230.82
795.79	230.78
796.11	230.75
796.43	230.68
796.75	230.65
797.07	230.66
797.39	230.60
797.71	230.49
798.04	230.43
798.36	230.42
798.68	230.40
799.00	230.39
799.32	230.34
799.64	230.31
799.96	230.27
800.28	230.27
800.60	230.25
800.92	230.26
801.24	230.19
801.56	230.14
801.89	230.09
802.21	230.06
802.53	230.02
802.85	230.00
803.17	230.01
803.49	229.99
803.81	229.91
804.13	229.89
804.45	229.88
804.77	229.90
805.09	229.84
805.41	229.80
805.73	229.76
806.05	229.71
806.37	229.66
806.69	229.62
807.01	229.58
807.33	229.56
807.65	229.48
807.97	229.53
808.28	229.49
808.60	229.44
808.92	229.41
809.24	229.44
809.56	229.37
809.88	229.32
810.20	229.30
810.52	229.31
810.84	229.27
811.16	229.22
811.48	229.18
811.80	229.21
812.12	229.14
812.43	229.15
812.75	229.11
813.07	229.10
813.39	229.09
813.71	229.05
814.03	229.00
814.35	228.99
814.67	228.90
814.98	228.86
815.30	228.85
815.62	228.82
815.94	228.75
816.26	228.79
816.58	228.74
816.89	228.71
817.21	228.66
817.53	228.64
817.85	228.65
818.17	228.63
818.48	228.57
818.80	228.61
819.12	228.55
819.44	228.51
819.76	228.49
820.07	228.47
820.39	228.44
820.71	228.44
821.03	228.43
821.34	228.42
821.66	228.48
821.98	228.47
822.30	228.44
822.61	228.51
822.93	228.47
823.25	228.53
823.57	228.48
823.88	228.51
824.20	228.50
824.52	228.47
824.83	228.47
825.15	228.46
825.47	228.43
825.79	228.44
826.10	228.46
826.42	228.47
826.74	228.45
827.05	228.44
827.37	228.46
827.69	228.44
828.00	228.45
828.32	228.41
828.64	228.38
828.95	228.41
829.27	228.36
829.58	228.38
829.90	228.33
830.22	228.37
830.53	228.32
830.85	228.31
831.17	228.28
831.48	228.26
831.80	228.25
832.11	228.22
832.43	228.20
832.75	228.17
833.06	228.17
833.38	228.15
833.69	228.17
834.01	228.14
834.32	228.12
834.64	228.06
834.96	228.05
835.27	228.06
835.59	227.98
835.90	227.94
836.22	227.90
836.53	227.89
836.85	227.86
837.16	227.93
837.48	227.91
837.79	227.91
838.11	227.88
838.42	227.87
838.74	227.90
839.05	227.91
839.37	227.90
839.68	227.87
840.00	227.85
840.31	227.81
840.63	227.82
840.94	227.81
841.26	227.85
841.57	227.87
841.88	227.87
842.20	227.87
842.51	227.82
842.83	227.82
843.14	227.88
843.46	227.86
843.77	227.83
844.08	227.83
844.40	227.86
844.71	227.82
845.03	227.80
845.34	227.77
845.65	227.74
845.97	227.72
846.28	227.72
846.60	227.73
846.91	227.75
847.22	227.73
847.54	227.75
847.85	227.73
848.16	227.69
848.48	227.67
848.79	227.71
849.10	227.78
849.42	227.79
849.73	227.69
850.04	227.71
850.36	227.65
850.67	227.67
850.98	227.61
851.30	227.63
851.61	227.64
851.92	227.64
852.23	227.67
852.55	227.67
852.86	227.66
853.17	227.67
853.49	227.67
853.80	227.69
854.11	227.74
854.42	227.75
854.74	227.73
855.05	227.72
855.36	227.68
855.67	227.67
855.99	227.68
856.30	227.81
856.61	227.79
856.92	227.79
857.23	227.75
857.55	227.78
857.86	227.80
858.17	227.80
858.48	227.77
858.79	227.76
859.11	227.76
859.42	227.75
859.73	227.72
860.04	227.70
860.35	227.64
860.66	227.58
860.98	227.60
861.29	227.61
861.60	227.60
861.91	227.62
862.22	227.59
862.53	227.56
862.84	227.41
863.16	227.44
863.47	227.44
863.78	227.44
864.09	227.44
864.40	227.43
864.71	227.44
865.02	227.44
865.33	227.42
865.64	227.39
865.95	227.38
866.27	227.46
866.58	227.46
866.89	227.47
867.20	227.47
867.51	227.42
867.82	227.42
868.13	227.43
868.44	227.44
868.75	227.44
869.06	227.42
869.37	227.41
869.68	227.38
869.99	227.40
870.30	227.40
870.61	227.38
870.92	227.32
871.23	227.30
871.54	227.32
871.85	227.33
872.16	227.32
872.47	227.29
872.78	227.17
873.09	227.18
873.40	227.18
873.71	227.18
874.02	227.14
874.33	227.11
874.64	227.11
874.95	227.08
875.26	227.03
875.56	227.04
875.87	227.07
876.18	227.03
876.49	227.10
876.80	227.10
877.11	227.09
877.42	227.12
877.73	227.10
878.04	227.08
878.35	227.07
878.66	227.07
878.96	227.09
879.27	227.10
879.58	227.07
879.89	227.04
880.20	227.07
880.51	227.07
880.82	227.06
881.12	227.05
881.43	227.01
881.74	227.02
882.05	226.99
882.36	226.98
882.67	226.99
882.97	226.91
883.28	226.87
883.59	226.86
883.90	226.87
884.21	226.91
884.51	226.87
884.82	226.88
885.13	226.87
885.44	226.87
885.74	226.90
886.05	226.88
886.36	226.89
886.67	226.84
886.98	226.94
887.28	226.93
887.59	226.92
887.90	226.99
888.20	226.95
888.51	226.99
888.82	226.99
889.13	227.03
889.43	227.08
889.74	227.09
890.05	227.09
890.35	227.06
890.66	227.04
890.97	227.05
891.28	227.04
891.58	227.05
891.89	227.07
892.20	227.04
892.50	227.07
892.81	227.07
893.12	227.08
893.42	227.00
893.73	227.03
894.04	227.04
894.34	227.00
894.65	227.04
894.95	227.02
895.26	227.04
895.57	227.10
895.87	227.01
896.18	227.01
896.48	227.04
896.79	227.07
897.10	227.09
897.40	227.13
897.71	227.15
898.01	227.16
898.32	227.20
898.63	227.21
898.93	227.21
899.24	227.24
899.54	227.24
899.85	227.24
900.15	227.22
900.46	227.23
900.76	227.24
901.07	227.25
901.38	227.28
901.68	227.23
901.99	227.17
902.29	227.18
902.60	227.20
902.90	227.18
903.21	227.17
903.51	227.15
903.82	227.15
904.12	227.15
904.43	227.13
904.73	227.11
905.03	227.12
905.34	227.22
905.64	227.19
905.95	227.16
906.25	227.18
906.56	227.19
906.86	227.18
907.17	227.17
907.47	227.17
907.77	227.13
908.08	227.12
908.38	227.13
908.69	227.13
908.99	227.13
909.30	227.16
909.60	227.14
909.90	227.13
910.21	227.11
910.51	227.09
910.81	227.08
911.12	227.05
911.42	227.03
911.73	226.95
912.03	226.94
912.33	226.99
912.64	226.94
912.94	226.90
913.24	226.89
913.55	226.89
913.85	226.88
914.15	226.92
914.46	226.95
914.76	226.89
915.06	226.87
915.37	226.85
915.67	226.80
915.97	226.82
916.27	226.80
916.58	226.78
916.88	226.75
917.18	226.75
917.49	226.84
917.79	226.81
918.09	226.80
918.39	226.83
918.70	226.77
919.00	226.80
919.30	226.87
919.60	226.87
919.91	226.85
920.21	226.84
920.51	226.78
920.81	226.78
921.12	226.80
921.42	226.84
921.72	226.85
922.02	226.81
922.32	226.83
922.63	226.82
922.93	226.86
923.23	226.89
923.53	226.88
923.83	226.80
924.13	226.83
924.44	226.82
924.74	226.85
925.04	226.89
925.34	226.90
925.64	226.85
925.94	226.88
926.24	226.92
926.55	226.92
926.85	226.95
927.15	226.94
927.45	226.97
927.75	226.96
928.05	226.96
928.35	227.01
928.65	227.00
928.95	227.04
929.26	227.02
929.56	227.03
929.86	227.06
930.16	227.07
930.46	227.05
930.76	227.05
931.06	226.96
931.36	226.97
931.66	226.98
931.96	227.00
932.26	226.97
932.56	226.96
932.86	226.97
933.16	226.96
933.46	226.97
933.76	226.94
934.06	226.95
934.36	226.99
934.66	226.96
934.96	226.95
935.26	226.94
935.56	226.95
935.86	226.93
936.16	226.90
936.46	226.91
936.76	226.93
937.06	226.92
937.36	226.95
937.66	226.96
937.96	226.99
938.26	226.98
938.56	226.96
938.86	226.95
939.16	226.97
939.46	226.96
939.76	226.96
940.06	226.98
940.35	226.99
940.65	226.93
940.95	226.97
941.25	226.97
941.55	226.96
941.85	226.99
942.15	227.03
942.45	227.07
942.75	227.09
943.04	227.10
943.34	227.13
943.64	227.12
943.94	227.09
944.24	227.07
944.54	227.06
944.84	227.08
945.13	227.06
945.43	227.04
945.73	227.06
946.03	227.07
946.33	227.03
946.62	227.00
946.92	227.01
947.22	227.02
947.52	227.02
947.82	227.01
948.11	226.98
948.41	226.93
948.71	226.90
949.01	226.88
949.31	226.87
949.60	226.85
949.90	226.86
950.20	226.84
950.50	226.84
950.79	226.81
951.09	226.81
951.39	226.79
951.69	226.79
951.98	226.77
952.28	226.76
952.58	226.77
952.87	226.77
953.17	226.77
953.47	226.73
953.76	226.75
954.06	226.73
954.36	226.69
954.66	226.67
954.95	226.66
955.25	226.64
955.55	226.64
955.84	226.63
956.14	226.64
956.44	226.66
956.73	226.61
957.03	226.62
957.32	226.61
957.62	226.62
957.92	226.60
958.21	226.60
958.51	226.70
958.81	226.73
959.10	226.73
959.40	226.76
959.69	226.74
959.99	226.70
960.29	226.70
960.58	226.74
960.88	226.78
961.17	226.79
961.47	226.82
961.76	226.79
962.06	226.81
962.36	226.78
962.65	226.78
962.95	226.81
963.24	226.84
963.54	226.84
963.83	226.87
964.13	226.89
964.42	226.89
964.72	226.81
965.01	226.80
965.31	226.82
965.60	226.77
965.90	226.83
966.19	226.82
966.49	226.87
966.78	226.86
967.08	226.89
967.37	226.89
967.67	226.85
967.96	226.86
968.26	226.87
968.55	226.85
968.85	226.84
969.14	226.85
969.43	226.82
969.73	226.84
970.02	226.82
970.32	226.82
970.61	226.83
970.91	226.79
971.20	226.79
971.49	226.78
971.79	226.83
972.08	226.78
972.38	226.83
972.67	226.79
972.96	226.79
973.26	226.77
973.55	226.81
973.85	226.85
974.14	226.87
974.43	226.86
974.73	226.91
975.02	226.90
975.31	226.89
975.61	226.92
975.90	226.89
976.19	226.89
976.49	226.90
976.78	226.90
977.07	226.94
977.37	226.93
977.66	226.95
977.95	226.92
978.24	226.95
978.54	226.98
978.83	226.98
979.12	226.99
979.42	226.95
979.71	226.93
980.00	226.94
980.29	226.92
980.59	226.89
980.88	226.89
981.17	226.92
981.46	226.91
981.76	226.92
982.05	226.96
982.34	226.97
982.63	226.98
982.93	226.98
983.22	226.97
983.51	226.96
983.80	226.96
984.09	226.96
984.39	226.96
984.68	226.91
984.97	226.92
985.26	226.90
985.55	226.95
985.85	226.90
986.14	226.86
986.43	226.87
986.72	226.86
987.01	226.81
987.30	226.76
987.59	226.73
987.89	226.70
988.18	226.67
988.47	226.63
988.76	226.60
989.05	226.56
989.34	226.58
989.63	226.60
989.92	226.58
990.22	226.56
990.51	226.54
990.80	226.54
991.09	226.52
991.38	226.54
991.67	226.51
991.96	226.52
992.25	226.55
992.54	226.51
992.83	226.52
993.12	226.54
993.41	226.60
993.70	226.65
993.99	226.69
994.28	226.72
994.58	226.74
994.87	226.73
995.16	226.75
995.45	226.70
995.74	226.69
996.03	226.71
996.32	226.73
996.61	226.76
996.90	226.79
997.19	226.80
997.48	226.81
997.77	226.81
998.06	226.78
998.34	226.79
998.63	226.79
998.92	226.80
999.21	226.83
999.50	226.80
999.79	226.76
1000.08	226.75
1000.37	226.73
1000.66	226.73
1000.95	226.74
1001.24	226.75
1001.53	226.79
1001.82	226.79
1002.11	226.75
1002.40	226.77
1002.68	226.79
1002.97	226.84
1003.26	226.80
1003.55	226.77
1003.84	226.82
1004.13	226.89
1004.42	226.91
1004.71	226.93
1004.99	226.96
1005.28	226.97
1005.57	227.01
1005.86	227.04
1006.15	227.03
1006.44	227.04
1006.72	227.08
1007.01	227.10
1007.30	227.09
1007.59	227.10
1007.88	227.11
1008.17	227.14
1008.45	227.12
1008.74	227.09
1009.03	227.06
1009.32	227.09
1009.60	227.07
1009.89	227.04
1010.18	227.00
1010.47	226.99
1010.76	226.97
1011.04	226.94
1011.33	227.00
1011.62	227.00
1011.91	226.99
1012.19	227.01
1012.48	226.99
1012.77	226.97
1013.05	227.00
1013.34	227.00
1013.63	227.00
1013.92	226.99
1014.20	226.99
1014.49	226.99
1014.78	226.97
1015.06	226.93
1015.35	226.93
1015.64	226.98
1015.92	226.96
1016.21	226.97
1016.50	226.94
1016.78	226.98
1017.07	226.97
1017.36	226.92
1017.64	226.89
1017.93	226.89
1018.22	226.85
1018.50	226.85
1018.79	226.87
1019.08	226.81
1019.36	226.83
1019.65	226.83
1019.93	226.86
1020.22	226.85
1020.51	226.90
1020.79	226.90
1021.08	226.58
1021.36	226.60
1021.65	227.24
1021.94	226.54
1022.22	227.06
1022.51	227.12
1022.79	227.54
1023.08	226.70
1023.36	227.96
1023.65	226.62
>>>>>End Processed Spectral Data<<<<<
