SpectraSuite Data File
++++++++++++++++++++++++++++++++++++
Date: Fri Feb 01 16:18:12 EST 2013
User: group
Dark Spectrum Present: No
Reference Spectrum Present: No
Number of Sampled Component Spectra: 1
Spectrometers: USB2E7196
Integration Time (usec): 35000 (USB2E7196)
Spectra Averaged: 100 (USB2E7196)
Boxcar Smoothing: 10 (USB2E7196)
Correct for Electrical Dark: No (USB2E7196)
Strobe/Lamp Enabled: No (USB2E7196)
Correct for Detector Non-linearity: No (USB2E7196)
Correct for Stray Light: No (USB2E7196)
Number of Pixels in Processed Spectrum: 2048
>>>>>Begin Processed Spectral Data<<<<<
339.09	0.00
339.48	213.50
339.86	215.52
340.24	216.93
340.63	218.46
341.01	220.74
341.39	220.65
341.78	222.17
342.16	223.82
342.54	223.90
342.93	212.44
343.31	223.20
343.69	223.77
344.07	224.20
344.46	224.64
344.84	225.01
345.22	225.26
345.60	225.53
345.99	225.73
346.37	225.85
346.75	225.96
347.13	226.06
347.52	226.06
347.90	226.16
348.28	226.19
348.66	226.22
349.05	226.19
349.43	226.21
349.81	226.29
350.19	226.34
350.57	226.37
350.96	226.46
351.34	226.53
351.72	226.62
352.10	226.74
352.48	226.80
352.87	226.85
353.25	226.92
353.63	226.97
354.01	227.02
354.39	227.11
354.77	227.18
355.15	227.27
355.54	227.35
355.92	227.35
356.30	227.42
356.68	227.57
357.06	227.66
357.44	227.75
357.82	227.76
358.20	227.83
358.58	227.89
358.97	227.94
359.35	228.01
359.73	228.08
360.11	228.13
360.49	228.17
360.87	228.20
361.25	228.26
361.63	228.36
362.01	228.41
362.39	228.44
362.77	228.51
363.15	228.55
363.53	228.59
363.91	228.64
364.29	228.65
364.67	228.58
365.05	228.61
365.43	228.68
365.81	228.73
366.19	228.82
366.57	228.88
366.95	228.90
367.33	228.88
367.71	228.87
368.09	228.91
368.47	228.87
368.85	228.88
369.23	228.87
369.61	228.80
369.99	228.80
370.37	228.74
370.75	228.72
371.13	228.64
371.51	228.59
371.89	228.54
372.27	228.53
372.65	228.48
373.03	228.43
373.41	228.34
373.78	228.28
374.16	228.16
374.54	228.06
374.92	227.95
375.30	227.88
375.68	227.80
376.06	227.76
376.44	227.75
376.82	227.73
377.19	227.66
377.57	227.60
377.95	227.50
378.33	227.45
378.71	227.32
379.09	227.27
379.47	227.19
379.84	227.12
380.22	227.01
380.60	226.94
380.98	226.88
381.36	226.83
381.73	226.77
382.11	226.70
382.49	226.63
382.87	226.56
383.25	226.52
383.62	226.55
384.00	226.41
384.38	226.35
384.76	226.28
385.13	226.26
385.51	226.23
385.89	226.18
386.27	226.15
386.64	226.16
387.02	226.09
387.40	226.06
387.78	226.02
388.15	226.01
388.53	225.96
388.91	225.92
389.29	225.88
389.66	225.86
390.04	225.83
390.42	225.83
390.79	225.84
391.17	225.83
391.55	225.74
391.92	225.76
392.30	225.72
392.68	225.70
393.05	225.68
393.43	225.68
393.81	225.66
394.18	225.65
394.56	225.64
394.94	225.66
395.31	225.68
395.69	225.73
396.06	225.77
396.44	225.79
396.82	225.81
397.19	225.89
397.57	225.91
397.95	225.97
398.32	226.01
398.70	226.08
399.07	226.14
399.45	226.16
399.82	226.23
400.20	226.31
400.58	226.36
400.95	226.38
401.33	226.47
401.70	226.63
402.08	226.74
402.45	226.85
402.83	226.98
403.20	227.09
403.58	227.18
403.95	227.30
404.33	227.45
404.71	227.59
405.08	227.75
405.46	227.89
405.83	228.05
406.21	228.20
406.58	228.33
406.96	228.50
407.33	228.71
407.70	228.87
408.08	229.14
408.45	229.39
408.83	229.66
409.20	229.84
409.58	230.02
409.95	230.26
410.33	230.54
410.70	230.77
411.08	231.04
411.45	231.37
411.82	231.66
412.20	231.97
412.57	232.38
412.95	232.66
413.32	233.09
413.69	233.49
414.07	233.93
414.44	234.42
414.82	234.89
415.19	235.46
415.56	236.01
415.94	236.56
416.31	237.21
416.68	237.82
417.06	238.54
417.43	239.26
417.81	240.03
418.18	240.78
418.55	241.64
418.93	242.53
419.30	243.41
419.67	244.37
420.04	245.37
420.42	246.36
420.79	247.56
421.16	248.66
421.54	249.83
421.91	251.03
422.28	252.23
422.66	253.54
423.03	254.83
423.40	256.17
423.77	257.57
424.15	258.99
424.52	260.46
424.89	262.09
425.26	263.62
425.64	265.06
426.01	266.66
426.38	268.29
426.75	269.94
427.13	271.65
427.50	273.42
427.87	275.26
428.24	277.10
428.61	278.85
428.99	280.83
429.36	282.96
429.73	285.00
430.10	287.05
430.47	289.15
430.85	291.25
431.22	293.50
431.59	295.85
431.96	298.06
432.33	300.53
432.70	302.88
433.08	305.65
433.45	308.31
433.82	310.91
434.19	313.85
434.56	316.68
434.93	319.32
435.30	321.98
435.68	324.86
436.05	327.68
436.42	330.43
436.79	332.92
437.16	335.57
437.53	338.43
437.90	341.24
438.27	343.90
438.64	346.73
439.01	349.30
439.38	351.53
439.75	353.70
440.13	356.19
440.50	358.55
440.87	360.40
441.24	362.34
441.61	364.45
441.98	365.88
442.35	367.64
442.72	369.49
443.09	371.29
443.46	372.27
443.83	372.87
444.20	373.38
444.57	374.22
444.94	374.54
445.31	374.88
445.68	375.27
446.05	375.37
446.42	374.99
446.79	374.55
447.16	374.07
447.53	373.75
447.90	372.63
448.27	371.44
448.64	369.83
449.01	368.68
449.37	366.68
449.74	364.75
450.11	362.55
450.48	360.08
450.85	357.56
451.22	355.39
451.59	353.36
451.96	351.41
452.33	348.79
452.70	346.44
453.07	343.57
453.43	340.61
453.80	337.82
454.17	335.12
454.54	332.59
454.91	329.87
455.28	327.20
455.65	324.67
456.02	322.25
456.38	320.15
456.75	317.49
457.12	315.29
457.49	313.10
457.86	310.91
458.23	309.08
458.59	307.02
458.96	304.98
459.33	303.11
459.70	301.28
460.07	299.81
460.43	298.09
460.80	296.51
461.17	295.09
461.54	293.65
461.91	292.24
462.27	290.78
462.64	289.60
463.01	288.19
463.38	286.93
463.74	285.54
464.11	284.37
464.48	283.36
464.85	282.25
465.21	281.38
465.58	280.48
465.95	279.38
466.32	278.46
466.68	277.55
467.05	276.68
467.42	275.81
467.78	274.86
468.15	273.99
468.52	273.25
468.88	272.41
469.25	271.62
469.62	271.02
469.98	270.40
470.35	269.76
470.72	269.20
471.08	268.56
471.45	268.04
471.82	267.49
472.18	266.85
472.55	266.44
472.92	265.90
473.28	265.40
473.65	264.96
474.02	264.54
474.38	264.19
474.75	263.89
475.11	263.55
475.48	263.29
475.85	263.06
476.21	262.88
476.58	262.72
476.94	262.58
477.31	262.41
477.67	262.25
478.04	262.11
478.41	262.06
478.77	262.09
479.14	261.98
479.50	262.01
479.87	262.12
480.23	262.20
480.60	262.31
480.96	262.41
481.33	262.63
481.69	262.83
482.06	263.00
482.42	263.17
482.79	263.37
483.15	263.69
483.52	264.07
483.88	264.42
484.25	264.79
484.61	265.23
484.98	265.63
485.34	266.19
485.71	266.84
486.07	267.43
486.44	268.02
486.80	268.80
487.17	269.52
487.53	270.32
487.90	271.18
488.26	272.10
488.62	273.09
488.99	274.06
489.35	275.09
489.72	276.23
490.08	277.46
490.44	278.76
490.81	280.10
491.17	281.42
491.54	282.93
491.90	284.46
492.26	286.09
492.63	287.90
492.99	289.67
493.36	291.55
493.72	293.62
494.08	295.76
494.45	298.02
494.81	300.41
495.17	302.85
495.54	305.41
495.90	308.11
496.26	310.95
496.63	313.93
496.99	317.10
497.35	320.37
497.72	323.82
498.08	327.33
498.44	330.98
498.80	334.98
499.17	339.01
499.53	343.19
499.89	347.52
500.26	352.01
500.62	356.72
500.98	361.74
501.34	366.87
501.71	372.22
502.07	377.68
502.43	383.32
502.79	389.15
503.16	395.28
503.52	401.60
503.88	408.04
504.24	414.70
504.60	421.60
504.97	428.74
505.33	436.04
505.69	443.78
506.05	451.57
506.41	459.41
506.78	467.60
507.14	476.07
507.50	484.86
507.86	493.96
508.22	503.13
508.59	512.31
508.95	521.89
509.31	531.65
509.67	541.77
510.03	552.03
510.39	562.60
510.75	573.40
511.12	584.36
511.48	595.70
511.84	607.19
512.20	618.61
512.56	630.59
512.92	642.80
513.28	655.20
513.64	667.72
514.00	680.49
514.37	693.41
514.73	706.50
515.09	719.56
515.45	732.78
515.81	746.39
516.17	760.38
516.53	774.45
516.89	788.62
517.25	802.76
517.61	817.18
517.97	831.71
518.33	846.17
518.69	860.90
519.05	875.90
519.41	890.97
519.77	906.55
520.13	921.96
520.49	937.28
520.85	952.63
521.21	968.34
521.57	984.57
521.93	1000.27
522.29	1016.58
522.65	1032.74
523.01	1048.95
523.37	1064.99
523.73	1081.08
524.09	1097.13
524.45	1113.45
524.81	1129.96
525.17	1146.81
525.53	1163.61
525.89	1180.46
526.25	1197.26
526.61	1213.47
526.97	1230.28
527.33	1246.68
527.68	1263.23
528.04	1279.74
528.40	1296.24
528.76	1313.17
529.12	1329.68
529.48	1346.59
529.84	1362.58
530.20	1379.15
530.56	1396.08
530.91	1413.40
531.27	1430.09
531.63	1446.57
531.99	1463.10
532.35	1479.07
532.71	1494.88
533.07	1511.12
533.42	1526.88
533.78	1542.93
534.14	1559.24
534.50	1574.39
534.86	1590.36
535.21	1605.55
535.57	1621.36
535.93	1636.85
536.29	1651.61
536.65	1666.74
537.00	1681.45
537.36	1696.62
537.72	1711.05
538.08	1725.44
538.44	1739.25
538.79	1753.13
539.15	1766.58
539.51	1780.34
539.87	1794.50
540.22	1808.11
540.58	1821.74
540.94	1834.95
541.29	1847.79
541.65	1860.39
542.01	1873.59
542.37	1885.83
542.72	1898.07
543.08	1909.80
543.44	1922.11
543.79	1933.32
544.15	1943.94
544.51	1955.46
544.87	1966.37
545.22	1977.29
545.58	1987.44
545.94	1997.13
546.29	2006.90
546.65	2016.87
547.01	2026.17
547.36	2035.08
547.72	2043.56
548.07	2051.43
548.43	2059.69
548.79	2067.58
549.14	2075.08
549.50	2082.35
549.86	2089.90
550.21	2097.17
550.57	2104.30
550.92	2110.89
551.28	2117.93
551.64	2125.23
551.99	2131.66
552.35	2137.95
552.70	2144.05
553.06	2149.92
553.41	2156.15
553.77	2162.05
554.13	2168.05
554.48	2174.00
554.84	2179.40
555.19	2184.67
555.55	2189.74
555.90	2194.07
556.26	2198.97
556.61	2203.73
556.97	2208.07
557.32	2212.25
557.68	2216.48
558.03	2220.78
558.39	2224.47
558.74	2229.20
559.10	2232.96
559.45	2236.69
559.81	2240.79
560.16	2244.59
560.52	2247.88
560.87	2251.24
561.23	2253.97
561.58	2257.00
561.94	2259.50
562.29	2261.86
562.64	2264.41
563.00	2267.14
563.35	2270.64
563.71	2273.69
564.06	2276.75
564.42	2279.62
564.77	2282.03
565.12	2284.32
565.48	2286.30
565.83	2288.25
566.19	2289.47
566.54	2290.38
566.89	2291.45
567.25	2292.30
567.60	2293.49
567.96	2295.38
568.31	2296.48
568.66	2297.77
569.02	2298.37
569.37	2298.65
569.72	2299.56
570.08	2299.94
570.43	2300.00
570.78	2299.66
571.14	2298.10
571.49	2296.81
571.84	2296.58
572.20	2295.56
572.55	2294.52
572.90	2292.98
573.26	2291.41
573.61	2289.65
573.96	2287.99
574.31	2285.13
574.67	2282.17
575.02	2278.83
575.37	2275.35
575.72	2271.49
576.08	2267.99
576.43	2264.66
576.78	2261.08
577.13	2257.94
577.49	2254.79
577.84	2251.32
578.19	2247.54
578.54	2244.07
578.90	2239.92
579.25	2234.24
579.60	2229.31
579.95	2224.31
580.30	2219.26
580.66	2214.30
581.01	2209.53
581.36	2204.60
581.71	2200.58
582.06	2196.22
582.42	2191.63
582.77	2186.45
583.12	2181.98
583.47	2177.45
583.82	2172.45
584.17	2167.28
584.53	2161.74
584.88	2156.23
585.23	2150.43
585.58	2144.97
585.93	2139.59
586.28	2134.98
586.63	2130.01
586.98	2124.94
587.34	2120.37
587.69	2115.55
588.04	2110.24
588.39	2104.60
588.74	2098.28
589.09	2092.13
589.44	2085.33
589.79	2079.34
590.14	2073.84
590.49	2067.23
590.84	2060.87
591.19	2055.05
591.54	2048.61
591.89	2041.39
592.25	2034.57
592.60	2027.45
592.95	2019.95
593.30	2012.57
593.65	2005.02
594.00	1998.18
594.35	1991.07
594.70	1982.93
595.05	1975.77
595.40	1968.58
595.75	1961.11
596.10	1954.94
596.45	1948.08
596.80	1941.93
597.15	1935.49
597.50	1928.25
597.85	1921.92
598.19	1915.25
598.54	1908.00
598.89	1901.43
599.24	1895.63
599.59	1888.98
599.94	1882.80
600.29	1876.44
600.64	1869.87
600.99	1862.41
601.34	1855.49
601.69	1848.55
602.04	1841.85
602.39	1834.48
602.74	1827.78
603.08	1821.11
603.43	1814.23
603.78	1806.98
604.13	1799.65
604.48	1792.25
604.83	1785.49
605.18	1778.42
605.53	1770.48
605.87	1762.59
606.22	1755.25
606.57	1747.24
606.92	1739.98
607.27	1732.78
607.62	1725.87
607.96	1718.67
608.31	1712.21
608.66	1704.59
609.01	1697.09
609.36	1689.49
609.70	1681.52
610.05	1673.36
610.40	1665.65
610.75	1657.48
611.10	1649.89
611.44	1641.51
611.79	1633.53
612.14	1624.83
612.49	1615.74
612.83	1607.35
613.18	1599.14
613.53	1591.07
613.88	1582.50
614.22	1574.17
614.57	1565.53
614.92	1557.50
615.27	1549.77
615.61	1541.35
615.96	1533.32
616.31	1525.68
616.65	1518.23
617.00	1510.60
617.35	1503.02
617.70	1494.63
618.04	1486.03
618.39	1477.85
618.74	1470.27
619.08	1461.93
619.43	1454.37
619.78	1447.42
620.12	1440.25
620.47	1432.79
620.82	1424.77
621.16	1417.29
621.51	1409.64
621.85	1402.05
622.20	1393.51
622.55	1385.33
622.89	1377.44
623.24	1369.76
623.59	1362.26
623.93	1354.75
624.28	1347.55
624.62	1339.89
624.97	1332.69
625.32	1325.91
625.66	1318.86
626.01	1311.69
626.35	1304.28
626.70	1296.57
627.04	1288.90
627.39	1281.13
627.73	1273.70
628.08	1266.72
628.43	1259.46
628.77	1252.03
629.12	1244.42
629.46	1237.29
629.81	1229.73
630.15	1222.56
630.50	1215.20
630.84	1207.03
631.19	1199.10
631.53	1191.59
631.88	1184.05
632.22	1176.42
632.57	1169.09
632.91	1161.43
633.26	1153.99
633.60	1146.60
633.95	1139.45
634.29	1132.34
634.64	1125.56
634.98	1118.16
635.32	1110.83
635.67	1104.21
636.01	1097.63
636.36	1090.83
636.70	1084.30
637.05	1077.81
637.39	1071.25
637.73	1064.76
638.08	1058.82
638.42	1052.81
638.77	1046.39
639.11	1039.75
639.45	1033.40
639.80	1026.80
640.14	1020.44
640.49	1013.92
640.83	1007.69
641.17	1001.33
641.52	995.00
641.86	988.54
642.20	982.73
642.55	976.56
642.89	970.10
643.23	963.54
643.58	957.74
643.92	951.56
644.26	945.51
644.61	939.50
644.95	933.42
645.29	926.86
645.64	920.11
645.98	913.76
646.32	908.02
646.66	901.99
647.01	896.26
647.35	890.50
647.69	884.67
648.04	879.06
648.38	873.37
648.72	867.33
649.06	861.31
649.41	855.42
649.75	849.39
650.09	843.37
650.43	837.57
650.78	831.44
651.12	825.42
651.46	819.67
651.80	813.86
652.14	808.43
652.49	803.02
652.83	797.85
653.17	792.06
653.51	786.30
653.85	780.85
654.20	775.12
654.54	769.13
654.88	763.32
655.22	757.39
655.56	751.67
655.90	746.23
656.25	741.01
656.59	735.67
656.93	730.58
657.27	725.51
657.61	720.10
657.95	715.04
658.29	709.95
658.64	704.68
658.98	699.36
659.32	693.91
659.66	688.68
660.00	683.28
660.34	678.41
660.68	673.40
661.02	668.33
661.36	663.62
661.70	659.12
662.05	654.81
662.39	650.49
662.73	646.01
663.07	641.61
663.41	637.09
663.75	632.58
664.09	628.02
664.43	623.54
664.77	619.41
665.11	615.07
665.45	610.92
665.79	606.85
666.13	602.71
666.47	598.67
666.81	594.50
667.15	590.46
667.49	586.52
667.83	582.77
668.17	578.82
668.51	574.73
668.85	570.69
669.19	566.81
669.53	562.93
669.87	559.09
670.21	555.34
670.55	551.71
670.89	548.21
671.23	544.73
671.57	541.21
671.91	537.63
672.25	534.15
672.58	530.66
672.92	527.20
673.26	524.00
673.60	520.81
673.94	517.64
674.28	514.65
674.62	511.68
674.96	508.55
675.30	505.68
675.64	502.75
675.97	499.93
676.31	497.06
676.65	494.12
676.99	491.42
677.33	488.58
677.67	485.81
678.01	482.78
678.34	479.84
678.68	476.95
679.02	474.16
679.36	471.39
679.70	468.64
680.04	465.88
680.37	463.00
680.71	460.23
681.05	457.70
681.39	455.02
681.73	452.39
682.06	449.81
682.40	447.26
682.74	444.73
683.08	442.17
683.42	439.56
683.75	437.04
684.09	434.47
684.43	431.99
684.77	429.44
685.10	427.04
685.44	424.71
685.78	422.43
686.12	420.19
686.45	417.89
686.79	415.58
687.13	413.38
687.46	411.23
687.80	409.03
688.14	406.81
688.48	404.79
688.81	402.47
689.15	400.31
689.49	398.17
689.82	396.07
690.16	394.04
690.50	392.11
690.83	390.20
691.17	388.23
691.51	386.32
691.84	384.48
692.18	382.55
692.52	380.58
692.85	378.66
693.19	376.78
693.52	374.94
693.86	373.14
694.20	371.37
694.53	369.60
694.87	367.76
695.21	365.92
695.54	364.09
695.88	362.42
696.21	360.71
696.55	359.02
696.88	357.35
697.22	355.61
697.56	353.99
697.89	352.29
698.23	350.65
698.56	349.04
698.90	347.47
699.23	345.86
699.57	344.28
699.90	342.76
700.24	341.20
700.58	339.65
700.91	338.14
701.25	336.67
701.58	335.32
701.92	333.97
702.25	332.56
702.59	331.17
702.92	329.82
703.26	328.57
703.59	327.28
703.93	326.08
704.26	324.87
704.60	323.53
704.93	322.28
705.26	321.04
705.60	319.83
705.93	318.66
706.27	317.63
706.60	316.65
706.94	315.52
707.27	314.39
707.61	313.33
707.94	312.32
708.27	311.23
708.61	310.09
708.94	309.10
709.28	308.18
709.61	307.20
709.94	306.22
710.28	305.16
710.61	304.16
710.95	303.08
711.28	302.18
711.61	301.24
711.95	300.35
712.28	299.39
712.61	298.45
712.95	297.52
713.28	296.63
713.61	295.68
713.95	294.80
714.28	293.97
714.61	293.11
714.95	292.24
715.28	291.36
715.61	290.49
715.95	289.62
716.28	288.77
716.61	287.96
716.95	287.18
717.28	286.41
717.61	285.64
717.94	284.85
718.28	284.00
718.61	283.29
718.94	282.59
719.27	281.95
719.61	281.31
719.94	280.63
720.27	279.91
720.60	279.23
720.94	278.59
721.27	277.97
721.60	277.36
721.93	276.79
722.27	276.26
722.60	275.75
722.93	275.19
723.26	274.63
723.59	274.07
723.93	273.48
724.26	272.98
724.59	272.45
724.92	271.96
725.25	271.50
725.59	270.94
725.92	270.42
726.25	269.91
726.58	269.40
726.91	268.89
727.24	268.40
727.57	267.92
727.91	267.42
728.24	266.96
728.57	266.49
728.90	266.03
729.23	265.56
729.56	265.09
729.89	264.59
730.22	264.10
730.55	263.68
730.89	263.26
731.22	262.79
731.55	262.35
731.88	261.93
732.21	261.49
732.54	261.06
732.87	260.62
733.20	260.18
733.53	259.80
733.86	259.44
734.19	259.05
734.52	258.71
734.85	258.39
735.18	257.98
735.51	257.62
735.84	257.22
736.17	256.85
736.50	256.47
736.83	256.26
737.16	255.91
737.49	255.57
737.82	255.22
738.15	254.92
738.48	254.57
738.81	254.27
739.14	253.93
739.47	253.63
739.80	253.33
740.13	253.06
740.46	252.75
740.79	252.41
741.12	252.09
741.45	251.75
741.78	251.40
742.11	251.11
742.44	250.78
742.77	250.49
743.10	250.23
743.43	249.94
743.75	249.52
744.08	249.37
744.41	249.06
744.74	248.79
745.07	248.48
745.40	248.24
745.73	247.96
746.06	247.76
746.39	247.50
746.71	247.23
747.04	246.94
747.37	246.67
747.70	246.43
748.03	246.20
748.36	246.01
748.68	245.75
749.01	245.52
749.34	245.28
749.67	245.06
750.00	244.81
750.33	244.66
750.65	244.47
750.98	244.17
751.31	243.95
751.64	243.72
751.97	243.54
752.29	243.31
752.62	243.08
752.95	242.83
753.28	242.61
753.60	242.40
753.93	242.21
754.26	242.00
754.59	241.74
754.91	241.51
755.24	241.30
755.57	241.12
755.90	240.94
756.22	240.78
756.55	240.58
756.88	240.39
757.20	240.11
757.53	239.93
757.86	239.74
758.19	239.61
758.51	239.47
758.84	239.26
759.17	239.09
759.49	238.92
759.82	238.79
760.15	238.64
760.47	238.52
760.80	238.36
761.13	238.22
761.45	238.09
761.78	237.97
762.11	237.81
762.43	237.67
762.76	237.52
763.08	237.39
763.41	237.24
763.74	237.09
764.06	236.98
764.39	236.86
764.71	236.71
765.04	236.55
765.37	236.41
765.69	236.32
766.02	236.18
766.34	236.05
766.67	235.94
767.00	235.86
767.32	235.77
767.65	235.72
767.97	235.60
768.30	235.53
768.62	235.43
768.95	235.32
769.27	235.20
769.60	235.11
769.92	234.98
770.25	234.84
770.57	234.72
770.90	234.61
771.22	234.47
771.55	234.37
771.87	234.28
772.20	234.18
772.52	234.16
772.85	234.20
773.17	234.10
773.50	233.96
773.82	233.82
774.15	233.68
774.47	233.50
774.80	233.40
775.12	233.30
775.45	233.22
775.77	233.15
776.09	233.06
776.42	232.97
776.74	232.94
777.07	232.89
777.39	232.83
777.72	232.72
778.04	232.68
778.36	232.63
778.69	232.56
779.01	232.48
779.33	232.31
779.66	232.12
779.98	232.02
780.31	231.96
780.63	231.97
780.95	231.93
781.28	231.89
781.60	231.82
781.92	231.74
782.25	231.67
782.57	231.61
782.89	231.58
783.22	231.52
783.54	231.41
783.86	231.32
784.19	231.24
784.51	231.25
784.83	231.17
785.16	231.11
785.48	231.07
785.80	231.00
786.12	230.94
786.45	230.92
786.77	230.90
787.09	230.86
787.42	230.75
787.74	230.66
788.06	230.65
788.38	230.60
788.71	230.54
789.03	230.48
789.35	230.46
789.67	230.38
789.99	230.35
790.32	230.33
790.64	230.35
790.96	230.40
791.28	230.31
791.61	230.24
791.93	230.19
792.25	230.13
792.57	230.19
792.89	230.15
793.21	230.08
793.54	230.04
793.86	229.99
794.18	229.97
794.50	229.94
794.82	229.87
795.14	229.89
795.47	229.92
795.79	229.88
796.11	229.84
796.43	229.84
796.75	229.80
797.07	229.77
797.39	229.71
797.71	229.60
798.04	229.59
798.36	229.59
798.68	229.57
799.00	229.56
799.32	229.46
799.64	229.44
799.96	229.44
800.28	229.44
800.60	229.39
800.92	229.38
801.24	229.35
801.56	229.33
801.89	229.28
802.21	229.21
802.53	229.20
802.85	229.16
803.17	229.16
803.49	229.11
803.81	229.06
804.13	229.04
804.45	229.03
804.77	228.97
805.09	228.94
805.41	228.90
805.73	228.82
806.05	228.77
806.37	228.74
806.69	228.72
807.01	228.67
807.33	228.64
807.65	228.60
807.97	228.61
808.28	228.56
808.60	228.52
808.92	228.48
809.24	228.48
809.56	228.46
809.88	228.38
810.20	228.37
810.52	228.36
810.84	228.33
811.16	228.27
811.48	228.29
811.80	228.28
812.12	228.25
812.43	228.28
812.75	228.26
813.07	228.22
813.39	228.20
813.71	228.15
814.03	228.12
814.35	228.08
814.67	228.02
814.98	227.99
815.30	227.96
815.62	227.91
815.94	227.85
816.26	227.85
816.58	227.78
816.89	227.74
817.21	227.68
817.53	227.62
817.85	227.60
818.17	227.54
818.48	227.50
818.80	227.51
819.12	227.48
819.44	227.45
819.76	227.45
820.07	227.39
820.39	227.39
820.71	227.38
821.03	227.37
821.34	227.34
821.66	227.32
821.98	227.28
822.30	227.28
822.61	227.32
822.93	227.27
823.25	227.30
823.57	227.31
823.88	227.33
824.20	227.32
824.52	227.36
824.83	227.37
825.15	227.35
825.47	227.33
825.79	227.30
826.10	227.28
826.42	227.28
826.74	227.30
827.05	227.26
827.37	227.29
827.69	227.28
828.00	227.28
828.32	227.28
828.64	227.28
828.95	227.33
829.27	227.30
829.58	227.31
829.90	227.30
830.22	227.29
830.53	227.25
830.85	227.27
831.17	227.22
831.48	227.19
831.80	227.17
832.11	227.16
832.43	227.16
832.75	227.18
833.06	227.21
833.38	227.21
833.69	227.24
834.01	227.24
834.32	227.21
834.64	227.20
834.96	227.22
835.27	227.24
835.59	227.16
835.90	227.14
836.22	227.12
836.53	227.13
836.85	227.12
837.16	227.23
837.48	227.23
837.79	227.26
838.11	227.28
838.42	227.29
838.74	227.29
839.05	227.30
839.37	227.30
839.68	227.23
840.00	227.20
840.31	227.19
840.63	227.17
840.94	227.19
841.26	227.18
841.57	227.16
841.88	227.15
842.20	227.15
842.51	227.13
842.83	227.15
843.14	227.25
843.46	227.23
843.77	227.15
844.08	227.12
844.40	227.09
844.71	227.06
845.03	227.03
845.34	227.02
845.65	227.00
845.97	226.97
846.28	226.96
846.60	226.98
846.91	226.97
847.22	226.94
847.54	226.91
847.85	226.92
848.16	226.90
848.48	226.88
848.79	226.93
849.10	226.95
849.42	226.90
849.73	226.78
850.04	226.78
850.36	226.77
850.67	226.79
850.98	226.78
851.30	226.77
851.61	226.76
851.92	226.76
852.23	226.78
852.55	226.80
852.86	226.80
853.17	226.78
853.49	226.79
853.80	226.80
854.11	226.82
854.42	226.80
854.74	226.80
855.05	226.79
855.36	226.73
855.67	226.68
855.99	226.72
856.30	226.83
856.61	226.80
856.92	226.78
857.23	226.78
857.55	226.76
857.86	226.77
858.17	226.83
858.48	226.79
858.79	226.80
859.11	226.76
859.42	226.75
859.73	226.76
860.04	226.74
860.35	226.73
860.66	226.70
860.98	226.73
861.29	226.71
861.60	226.71
861.91	226.76
862.22	226.78
862.53	226.79
862.84	226.68
863.16	226.70
863.47	226.67
863.78	226.66
864.09	226.68
864.40	226.69
864.71	226.68
865.02	226.70
865.33	226.64
865.64	226.65
865.95	226.64
866.27	226.70
866.58	226.71
866.89	226.69
867.20	226.69
867.51	226.59
867.82	226.59
868.13	226.61
868.44	226.56
868.75	226.58
869.06	226.53
869.37	226.53
869.68	226.53
869.99	226.52
870.30	226.48
870.61	226.49
870.92	226.47
871.23	226.46
871.54	226.46
871.85	226.48
872.16	226.50
872.47	226.48
872.78	226.41
873.09	226.40
873.40	226.40
873.71	226.41
874.02	226.47
874.33	226.43
874.64	226.44
874.95	226.46
875.26	226.45
875.56	226.45
875.87	226.47
876.18	226.44
876.49	226.55
876.80	226.57
877.11	226.50
877.42	226.51
877.73	226.50
878.04	226.45
878.35	226.45
878.66	226.43
878.96	226.46
879.27	226.44
879.58	226.43
879.89	226.44
880.20	226.45
880.51	226.44
880.82	226.47
881.12	226.44
881.43	226.42
881.74	226.39
882.05	226.39
882.36	226.39
882.67	226.39
882.97	226.28
883.28	226.25
883.59	226.28
883.90	226.25
884.21	226.26
884.51	226.28
884.82	226.27
885.13	226.28
885.44	226.27
885.74	226.28
886.05	226.29
886.36	226.26
886.67	226.24
886.98	226.31
887.28	226.30
887.59	226.30
887.90	226.28
888.20	226.29
888.51	226.29
888.82	226.28
889.13	226.30
889.43	226.39
889.74	226.40
890.05	226.38
890.35	226.40
890.66	226.37
890.97	226.38
891.28	226.38
891.58	226.36
891.89	226.34
892.20	226.32
892.50	226.31
892.81	226.33
893.12	226.31
893.42	226.25
893.73	226.24
894.04	226.24
894.34	226.25
894.65	226.26
894.95	226.26
895.26	226.24
895.57	226.27
895.87	226.18
896.18	226.19
896.48	226.21
896.79	226.21
897.10	226.23
897.40	226.20
897.71	226.23
898.01	226.24
898.32	226.28
898.63	226.27
898.93	226.25
899.24	226.21
899.54	226.23
899.85	226.25
900.15	226.25
900.46	226.23
900.76	226.23
901.07	226.19
901.38	226.18
901.68	226.18
901.99	226.11
902.29	226.12
902.60	226.11
902.90	226.10
903.21	226.06
903.51	226.06
903.82	226.07
904.12	226.04
904.43	226.03
904.73	226.03
905.03	226.04
905.34	226.14
905.64	226.18
905.95	226.17
906.25	226.14
906.56	226.13
906.86	226.16
907.17	226.14
907.47	226.16
907.77	226.13
908.08	226.11
908.38	226.11
908.69	226.11
908.99	226.12
909.30	226.12
909.60	226.14
909.90	226.15
910.21	226.14
910.51	226.13
910.81	226.13
911.12	226.08
911.42	226.07
911.73	225.96
912.03	225.94
912.33	225.92
912.64	225.92
912.94	225.91
913.24	225.90
913.55	225.92
913.85	225.90
914.15	225.94
914.46	225.97
914.76	225.97
915.06	225.96
915.37	225.92
915.67	225.94
915.97	225.93
916.27	225.89
916.58	225.90
916.88	225.89
917.18	225.89
917.49	225.98
917.79	226.00
918.09	226.01
918.39	226.05
918.70	226.11
919.00	226.13
919.30	226.16
919.60	226.13
919.91	226.13
920.21	226.14
920.51	226.12
920.81	226.12
921.12	226.16
921.42	226.18
921.72	226.21
922.02	226.22
922.32	226.22
922.63	226.28
922.93	226.33
923.23	226.33
923.53	226.35
923.83	226.31
924.13	226.30
924.44	226.33
924.74	226.33
925.04	226.36
925.34	226.35
925.64	226.36
925.94	226.39
926.24	226.41
926.55	226.43
926.85	226.46
927.15	226.47
927.45	226.49
927.75	226.48
928.05	226.51
928.35	226.49
928.65	226.54
928.95	226.50
929.26	226.46
929.56	226.51
929.86	226.51
930.16	226.52
930.46	226.51
930.76	226.51
931.06	226.46
931.36	226.41
931.66	226.40
931.96	226.36
932.26	226.36
932.56	226.31
932.86	226.33
933.16	226.33
933.46	226.33
933.76	226.29
934.06	226.34
934.36	226.34
934.66	226.34
934.96	226.31
935.26	226.31
935.56	226.31
935.86	226.25
936.16	226.22
936.46	226.17
936.76	226.14
937.06	226.13
937.36	226.14
937.66	226.14
937.96	226.14
938.26	226.16
938.56	226.15
938.86	226.15
939.16	226.16
939.46	226.17
939.76	226.16
940.06	226.14
940.35	226.07
940.65	226.03
940.95	226.01
941.25	226.00
941.55	225.99
941.85	225.98
942.15	226.00
942.45	226.02
942.75	226.04
943.04	226.10
943.34	226.12
943.64	226.13
943.94	226.10
944.24	226.09
944.54	226.08
944.84	226.07
945.13	226.04
945.43	226.01
945.73	225.98
946.03	225.95
946.33	225.95
946.62	225.96
946.92	225.97
947.22	226.00
947.52	226.00
947.82	226.04
948.11	226.02
948.41	226.02
948.71	226.02
949.01	226.01
949.31	225.99
949.60	225.98
949.90	225.99
950.20	225.99
950.50	226.00
950.79	225.99
951.09	226.01
951.39	226.04
951.69	226.01
951.98	226.01
952.28	226.02
952.58	225.98
952.87	225.97
953.17	225.98
953.47	225.96
953.76	225.96
954.06	225.88
954.36	225.89
954.66	225.90
954.95	225.91
955.25	225.92
955.55	225.93
955.84	225.92
956.14	225.92
956.44	225.96
956.73	225.95
957.03	225.97
957.32	225.96
957.62	225.97
957.92	226.00
958.21	226.04
958.51	226.17
958.81	226.24
959.10	226.26
959.40	226.25
959.69	226.27
959.99	226.28
960.29	226.30
960.58	226.28
960.88	226.29
961.17	226.28
961.47	226.29
961.76	226.28
962.06	226.31
962.36	226.31
962.65	226.29
962.95	226.31
963.24	226.32
963.54	226.29
963.83	226.33
964.13	226.33
964.42	226.28
964.72	226.22
965.01	226.18
965.31	226.18
965.60	226.15
965.90	226.21
966.19	226.16
966.49	226.19
966.78	226.20
967.08	226.18
967.37	226.21
967.67	226.17
967.96	226.18
968.26	226.17
968.55	226.17
968.85	226.18
969.14	226.16
969.43	226.18
969.73	226.21
970.02	226.15
970.32	226.15
970.61	226.15
970.91	226.08
971.20	226.08
971.49	226.07
971.79	226.12
972.08	226.05
972.38	226.11
972.67	226.10
972.96	226.15
973.26	226.13
973.55	226.14
973.85	226.14
974.14	226.11
974.43	226.13
974.73	226.09
975.02	226.08
975.31	226.07
975.61	226.07
975.90	226.04
976.19	226.04
976.49	226.04
976.78	226.07
977.07	226.09
977.37	226.11
977.66	226.10
977.95	226.07
978.24	226.08
978.54	226.07
978.83	226.02
979.12	225.99
979.42	225.98
979.71	225.94
980.00	225.92
980.29	225.95
980.59	225.90
980.88	225.97
981.17	225.96
981.46	225.95
981.76	225.95
982.05	225.98
982.34	225.99
982.63	225.95
982.93	225.94
983.22	225.96
983.51	225.95
983.80	225.99
984.09	225.97
984.39	225.95
984.68	225.93
984.97	225.93
985.26	225.91
985.55	225.95
985.85	225.97
986.14	226.00
986.43	225.99
986.72	225.95
987.01	225.86
987.30	225.87
987.59	225.87
987.89	225.86
988.18	225.84
988.47	225.82
988.76	225.84
989.05	225.83
989.34	225.81
989.63	225.87
989.92	225.82
990.22	225.86
990.51	225.89
990.80	225.88
991.09	225.94
991.38	225.99
991.67	225.96
991.96	225.96
992.25	225.97
992.54	225.94
992.83	226.01
993.12	226.01
993.41	226.03
993.70	226.05
993.99	226.07
994.28	226.09
994.58	226.11
994.87	226.09
995.16	226.09
995.45	226.10
995.74	226.03
996.03	226.08
996.32	226.07
996.61	226.05
996.90	226.06
997.19	226.04
997.48	226.04
997.77	226.04
998.06	226.06
998.34	226.05
998.63	226.06
998.92	226.05
999.21	226.08
999.50	226.08
999.79	226.04
1000.08	226.02
1000.37	226.01
1000.66	226.01
1000.95	226.07
1001.24	226.06
1001.53	226.04
1001.82	226.05
1002.11	226.00
1002.40	226.01
1002.68	226.04
1002.97	226.12
1003.26	226.09
1003.55	226.08
1003.84	226.09
1004.13	226.07
1004.42	226.09
1004.71	226.10
1004.99	226.09
1005.28	226.12
1005.57	226.12
1005.86	226.15
1006.15	226.15
1006.44	226.14
1006.72	226.16
1007.01	226.11
1007.30	226.13
1007.59	226.14
1007.88	226.16
1008.17	226.15
1008.45	226.14
1008.74	226.07
1009.03	226.00
1009.32	225.98
1009.60	225.96
1009.89	225.94
1010.18	225.89
1010.47	225.88
1010.76	225.88
1011.04	225.85
1011.33	225.87
1011.62	225.86
1011.91	225.85
1012.19	225.85
1012.48	225.86
1012.77	225.82
1013.05	225.88
1013.34	225.86
1013.63	225.84
1013.92	225.83
1014.20	225.85
1014.49	225.85
1014.78	225.88
1015.06	225.82
1015.35	225.87
1015.64	225.85
1015.92	225.86
1016.21	225.87
1016.50	225.84
1016.78	225.84
1017.07	225.86
1017.36	225.82
1017.64	225.77
1017.93	225.77
1018.22	225.78
1018.50	225.76
1018.79	225.78
1019.08	225.73
1019.36	225.71
1019.65	225.73
1019.93	225.75
1020.22	225.77
1020.51	225.84
1020.79	225.83
1021.08	226.15
1021.36	225.58
1021.65	225.93
1021.94	225.71
1022.22	225.66
1022.51	225.99
1022.79	226.45
1023.08	225.98
1023.36	227.67
1023.65	225.40
>>>>>End Processed Spectral Data<<<<<
