SpectraSuite Data File
++++++++++++++++++++++++++++++++++++
Date: Fri Feb 01 15:04:47 EST 2013
User: group
Dark Spectrum Present: No
Reference Spectrum Present: No
Number of Sampled Component Spectra: 1
Spectrometers: USB2E7196
Integration Time (usec): 35000 (USB2E7196)
Spectra Averaged: 100 (USB2E7196)
Boxcar Smoothing: 10 (USB2E7196)
Correct for Electrical Dark: No (USB2E7196)
Strobe/Lamp Enabled: No (USB2E7196)
Correct for Detector Non-linearity: No (USB2E7196)
Correct for Stray Light: No (USB2E7196)
Number of Pixels in Processed Spectrum: 2048
>>>>>Begin Processed Spectral Data<<<<<
339.09	0.00
339.48	215.25
339.86	216.30
340.24	218.54
340.63	219.31
341.01	222.17
341.39	222.85
341.78	223.41
342.16	224.50
342.54	224.63
342.93	213.51
343.31	224.28
343.69	224.81
344.07	225.28
344.46	225.70
344.84	226.10
345.22	226.34
345.60	226.53
345.99	226.73
346.37	226.88
346.75	227.00
347.13	227.08
347.52	227.13
347.90	227.21
348.28	227.24
348.66	227.26
349.05	227.28
349.43	227.34
349.81	227.39
350.19	227.44
350.57	227.50
350.96	227.59
351.34	227.72
351.72	227.80
352.10	227.93
352.48	227.99
352.87	228.05
353.25	228.11
353.63	228.23
354.01	228.28
354.39	228.37
354.77	228.46
355.15	228.55
355.54	228.62
355.92	228.69
356.30	228.76
356.68	228.91
357.06	228.99
357.44	229.00
357.82	229.04
358.20	229.11
358.58	229.16
358.97	229.20
359.35	229.29
359.73	229.37
360.11	229.41
360.49	229.44
360.87	229.49
361.25	229.53
361.63	229.58
362.01	229.63
362.39	229.61
362.77	229.64
363.15	229.64
363.53	229.65
363.91	229.65
364.29	229.68
364.67	229.58
365.05	229.58
365.43	229.61
365.81	229.62
366.19	229.62
366.57	229.65
366.95	229.65
367.33	229.53
367.71	229.49
368.09	229.48
368.47	229.46
368.85	229.40
369.23	229.38
369.61	229.29
369.99	229.29
370.37	229.26
370.75	229.24
371.13	229.22
371.51	229.13
371.89	229.09
372.27	229.04
372.65	228.98
373.03	228.94
373.41	228.86
373.78	228.80
374.16	228.70
374.54	228.57
374.92	228.46
375.30	228.42
375.68	228.31
376.06	228.23
376.44	228.17
376.82	228.13
377.19	228.06
377.57	227.98
377.95	227.86
378.33	227.79
378.71	227.67
379.09	227.58
379.47	227.54
379.84	227.46
380.22	227.37
380.60	227.28
380.98	227.19
381.36	227.11
381.73	227.01
382.11	227.01
382.49	226.98
382.87	226.92
383.25	226.89
383.62	226.98
384.00	226.87
384.38	226.80
384.76	226.75
385.13	226.71
385.51	226.65
385.89	226.59
386.27	226.55
386.64	226.51
387.02	226.45
387.40	226.42
387.78	226.35
388.15	226.33
388.53	226.30
388.91	226.27
389.29	226.25
389.66	226.25
390.04	226.18
390.42	226.18
390.79	226.18
391.17	226.16
391.55	226.03
391.92	226.05
392.30	226.05
392.68	226.04
393.05	226.06
393.43	226.10
393.81	226.15
394.18	226.14
394.56	226.17
394.94	226.25
395.31	226.27
395.69	226.35
396.06	226.39
396.44	226.45
396.82	226.50
397.19	226.58
397.57	226.64
397.95	226.73
398.32	226.77
398.70	226.86
399.07	226.94
399.45	227.03
399.82	227.11
400.20	227.21
400.58	227.30
400.95	227.37
401.33	227.48
401.70	227.61
402.08	227.75
402.45	227.87
402.83	227.96
403.20	228.07
403.58	228.20
403.95	228.34
404.33	228.48
404.71	228.59
405.08	228.80
405.46	228.94
405.83	229.07
406.21	229.21
406.58	229.36
406.96	229.53
407.33	229.72
407.70	229.91
408.08	230.19
408.45	230.41
408.83	230.63
409.20	230.84
409.58	231.05
409.95	231.28
410.33	231.57
410.70	231.81
411.08	232.13
411.45	232.43
411.82	232.74
412.20	233.09
412.57	233.52
412.95	233.79
413.32	234.22
413.69	234.64
414.07	235.11
414.44	235.59
414.82	236.05
415.19	236.59
415.56	237.13
415.94	237.65
416.31	238.28
416.68	238.91
417.06	239.63
417.43	240.28
417.81	241.06
418.18	241.81
418.55	242.67
418.93	243.54
419.30	244.42
419.67	245.39
420.04	246.36
420.42	247.35
420.79	248.54
421.16	249.66
421.54	250.82
421.91	252.01
422.28	253.29
422.66	254.63
423.03	255.93
423.40	257.25
423.77	258.67
424.15	260.10
424.52	261.57
424.89	263.18
425.26	264.78
425.64	266.21
426.01	267.82
426.38	269.48
426.75	271.13
427.13	272.87
427.50	274.66
427.87	276.50
428.24	278.35
428.61	280.07
428.99	282.04
429.36	284.19
429.73	286.26
430.10	288.24
430.47	290.32
430.85	292.41
431.22	294.68
431.59	297.07
431.96	299.29
432.33	301.80
432.70	304.17
433.08	306.97
433.45	309.65
433.82	312.28
434.19	315.17
434.56	318.03
434.93	320.71
435.30	323.36
435.68	326.26
436.05	329.16
436.42	332.00
436.79	334.51
437.16	337.21
437.53	340.06
437.90	342.86
438.27	345.64
438.64	348.50
439.01	351.11
439.38	353.35
439.75	355.52
440.13	358.01
440.50	360.38
440.87	362.20
441.24	364.15
441.61	366.34
441.98	367.83
442.35	369.60
442.72	371.45
443.09	373.26
443.46	374.27
443.83	374.83
444.20	375.36
444.57	376.19
444.94	376.49
445.31	376.78
445.68	377.19
446.05	377.23
446.42	376.86
446.79	376.46
447.16	376.00
447.53	375.71
447.90	374.55
448.27	373.36
448.64	371.79
449.01	370.61
449.37	368.62
449.74	366.72
450.11	364.49
450.48	362.01
450.85	359.46
451.22	357.32
451.59	355.30
451.96	353.38
452.33	350.74
452.70	348.35
453.07	345.58
453.43	342.64
453.80	339.88
454.17	337.20
454.54	334.64
454.91	331.92
455.28	329.23
455.65	326.78
456.02	324.35
456.38	322.21
456.75	319.55
457.12	317.31
457.49	315.08
457.86	312.88
458.23	311.04
458.59	309.01
458.96	306.92
459.33	305.04
459.70	303.13
460.07	301.66
460.43	299.94
460.80	298.32
461.17	296.87
461.54	295.36
461.91	293.91
462.27	292.44
462.64	291.18
463.01	289.82
463.38	288.48
463.74	287.07
464.11	285.88
464.48	284.85
464.85	283.71
465.21	282.83
465.58	281.96
465.95	280.84
466.32	279.89
466.68	278.94
467.05	278.01
467.42	277.11
467.78	276.18
468.15	275.32
468.52	274.61
468.88	273.74
469.25	272.96
469.62	272.35
469.98	271.64
470.35	270.99
470.72	270.38
471.08	269.72
471.45	269.17
471.82	268.59
472.18	267.99
472.55	267.56
472.92	267.00
473.28	266.47
473.65	266.00
474.02	265.54
474.38	265.16
474.75	264.83
475.11	264.45
475.48	264.17
475.85	263.92
476.21	263.65
476.58	263.45
476.94	263.26
477.31	263.06
477.67	262.94
478.04	262.85
478.41	262.79
478.77	262.83
479.14	262.76
479.50	262.77
479.87	262.86
480.23	262.89
480.60	262.99
480.96	263.09
481.33	263.28
481.69	263.49
482.06	263.71
482.42	263.92
482.79	264.19
483.15	264.50
483.52	264.86
483.88	265.23
484.25	265.64
484.61	266.07
484.98	266.54
485.34	267.08
485.71	267.63
486.07	268.21
486.44	268.78
486.80	269.50
487.17	270.24
487.53	271.04
487.90	271.89
488.26	272.82
488.62	273.77
488.99	274.70
489.35	275.74
489.72	276.91
490.08	278.09
490.44	279.33
490.81	280.66
491.17	282.03
491.54	283.54
491.90	285.06
492.26	286.71
492.63	288.41
492.99	290.17
493.36	292.05
493.72	294.09
494.08	296.19
494.45	298.40
494.81	300.76
495.17	303.16
495.54	305.71
495.90	308.37
496.26	311.21
496.63	314.16
496.99	317.24
497.35	320.41
497.72	323.80
498.08	327.32
498.44	331.00
498.80	334.88
499.17	338.85
499.53	343.01
499.89	347.34
500.26	351.87
500.62	356.50
500.98	361.41
501.34	366.48
501.71	371.76
502.07	377.17
502.43	382.77
502.79	388.60
503.16	394.67
503.52	400.89
503.88	407.25
504.24	413.88
504.60	420.80
504.97	427.95
505.33	435.30
505.69	442.99
506.05	450.72
506.41	458.53
506.78	466.66
507.14	475.06
507.50	483.77
507.86	492.74
508.22	501.93
508.59	511.16
508.95	520.69
509.31	530.50
509.67	540.66
510.03	550.90
510.39	561.44
510.75	572.22
511.12	583.21
511.48	594.51
511.84	605.95
512.20	617.39
512.56	629.33
512.92	641.45
513.28	653.72
513.64	666.20
514.00	678.94
514.37	691.91
514.73	705.02
515.09	718.08
515.45	731.48
515.81	745.01
516.17	758.96
516.53	773.11
516.89	787.26
517.25	801.44
517.61	815.91
517.97	830.36
518.33	844.88
518.69	859.62
519.05	874.58
519.41	889.74
519.77	905.36
520.13	920.68
520.49	936.13
520.85	951.60
521.21	967.28
521.57	983.57
521.93	999.33
522.29	1015.80
522.65	1032.06
523.01	1048.30
523.37	1064.46
523.73	1080.76
524.09	1096.93
524.45	1113.40
524.81	1130.13
525.17	1147.01
525.53	1163.96
525.89	1180.80
526.25	1197.66
526.61	1214.15
526.97	1230.95
527.33	1247.49
527.68	1264.21
528.04	1280.67
528.40	1297.41
528.76	1314.68
529.12	1331.36
529.48	1348.33
529.84	1364.49
530.20	1381.25
530.56	1398.33
530.91	1415.81
531.27	1432.53
531.63	1449.03
531.99	1465.60
532.35	1481.63
532.71	1497.53
533.07	1513.83
533.42	1529.82
533.78	1545.91
534.14	1562.24
534.50	1577.63
534.86	1593.67
535.21	1609.01
535.57	1625.15
535.93	1640.64
536.29	1655.45
536.65	1670.73
537.00	1685.67
537.36	1700.94
537.72	1715.58
538.08	1730.02
538.44	1743.99
538.79	1758.10
539.15	1772.06
539.51	1785.93
539.87	1800.45
540.22	1814.23
540.58	1828.13
540.94	1841.61
541.29	1854.82
541.65	1867.64
542.01	1881.11
542.37	1893.29
542.72	1905.84
543.08	1917.66
543.44	1930.13
543.79	1941.51
544.15	1952.38
544.51	1964.02
544.87	1975.04
545.22	1985.90
545.58	1996.08
545.94	2006.00
546.29	2015.93
546.65	2025.68
547.01	2034.99
547.36	2043.75
547.72	2052.32
548.07	2060.22
548.43	2068.34
548.79	2076.29
549.14	2083.78
549.50	2091.08
549.86	2098.90
550.21	2106.22
550.57	2113.29
550.92	2119.80
551.28	2126.83
551.64	2133.91
551.99	2140.48
552.35	2146.64
552.70	2152.70
553.06	2158.58
553.41	2164.73
553.77	2170.68
554.13	2176.64
554.48	2182.61
554.84	2187.83
555.19	2193.18
555.55	2198.17
555.90	2202.64
556.26	2207.43
556.61	2212.17
556.97	2216.23
557.32	2220.28
557.68	2224.32
558.03	2228.74
558.39	2232.41
558.74	2236.88
559.10	2240.70
559.45	2244.02
559.81	2248.33
560.16	2252.05
560.52	2255.29
560.87	2258.74
561.23	2261.34
561.58	2264.37
561.94	2266.96
562.29	2269.44
562.64	2272.04
563.00	2274.71
563.35	2278.20
563.71	2281.35
564.06	2284.58
564.42	2287.52
564.77	2290.09
565.12	2292.27
565.48	2293.91
565.83	2295.71
566.19	2297.06
566.54	2297.89
566.89	2299.19
567.25	2299.44
567.60	2300.76
567.96	2302.46
568.31	2303.10
568.66	2304.01
569.02	2304.41
569.37	2304.63
569.72	2305.24
570.08	2305.32
570.43	2305.24
570.78	2304.45
571.14	2302.64
571.49	2301.11
571.84	2300.74
572.20	2299.32
572.55	2298.06
572.90	2296.43
573.26	2294.98
573.61	2292.95
573.96	2290.91
574.31	2287.69
574.67	2284.68
575.02	2281.01
575.37	2277.55
575.72	2273.72
576.08	2270.40
576.43	2266.87
576.78	2263.04
577.13	2259.76
577.49	2256.45
577.84	2252.87
578.19	2249.08
578.54	2245.38
578.90	2240.97
579.25	2235.17
579.60	2229.96
579.95	2224.93
580.30	2219.83
580.66	2214.56
581.01	2209.71
581.36	2204.87
581.71	2200.56
582.06	2196.12
582.42	2191.45
582.77	2185.90
583.12	2181.10
583.47	2176.13
583.82	2171.02
584.17	2165.65
584.53	2160.10
584.88	2154.39
585.23	2148.30
585.58	2142.65
585.93	2137.18
586.28	2132.24
586.63	2127.07
586.98	2122.09
587.34	2117.28
587.69	2112.19
588.04	2106.80
588.39	2100.99
588.74	2094.30
589.09	2088.12
589.44	2081.11
589.79	2074.99
590.14	2069.31
590.49	2062.70
590.84	2056.23
591.19	2050.18
591.54	2043.63
591.89	2035.95
592.25	2028.92
592.60	2021.79
592.95	2014.19
593.30	2006.59
593.65	1999.06
594.00	1991.93
594.35	1984.56
594.70	1976.47
595.05	1969.23
595.40	1961.91
595.75	1954.24
596.10	1947.93
596.45	1941.08
596.80	1934.81
597.15	1928.03
597.50	1920.96
597.85	1914.47
598.19	1907.84
598.54	1900.72
598.89	1893.99
599.24	1888.11
599.59	1881.45
599.94	1875.14
600.29	1868.66
600.64	1862.15
600.99	1854.65
601.34	1847.74
601.69	1840.78
602.04	1833.63
602.39	1826.18
602.74	1819.23
603.08	1812.60
603.43	1805.96
603.78	1798.64
604.13	1791.50
604.48	1784.25
604.83	1777.38
605.18	1770.20
605.53	1762.08
605.87	1754.00
606.22	1746.83
606.57	1739.02
606.92	1731.65
607.27	1724.39
607.62	1717.51
607.96	1710.18
608.31	1703.40
608.66	1695.76
609.01	1688.18
609.36	1680.79
609.70	1672.92
610.05	1664.83
610.40	1657.16
610.75	1648.74
611.10	1641.09
611.44	1632.75
611.79	1624.73
612.14	1616.02
612.49	1606.98
612.83	1598.65
613.18	1590.52
613.53	1582.35
613.88	1573.81
614.22	1565.60
614.57	1557.05
614.92	1549.08
615.27	1541.45
615.61	1533.12
615.96	1525.23
616.31	1517.65
616.65	1510.33
617.00	1502.62
617.35	1495.10
617.70	1486.59
618.04	1478.09
618.39	1469.92
618.74	1462.32
619.08	1454.08
619.43	1446.54
619.78	1439.75
620.12	1432.62
620.47	1425.18
620.82	1417.08
621.16	1409.64
621.51	1402.07
621.85	1394.56
622.20	1386.06
622.55	1377.80
622.89	1370.11
623.24	1362.51
623.59	1355.14
623.93	1347.61
624.28	1340.44
624.62	1332.92
624.97	1325.82
625.32	1319.14
625.66	1312.11
626.01	1304.76
626.35	1297.20
626.70	1289.48
627.04	1281.66
627.39	1273.94
627.73	1266.54
628.08	1259.59
628.43	1252.25
628.77	1244.85
629.12	1237.27
629.46	1230.09
629.81	1222.67
630.15	1215.56
630.50	1208.17
630.84	1199.97
631.19	1192.07
631.53	1184.64
631.88	1177.07
632.22	1169.52
632.57	1162.28
632.91	1154.83
633.26	1147.50
633.60	1140.34
633.95	1133.26
634.29	1126.38
634.64	1119.70
634.98	1112.34
635.32	1105.37
635.67	1098.90
636.01	1092.34
636.36	1085.50
636.70	1079.02
637.05	1072.55
637.39	1066.03
637.73	1059.57
638.08	1053.78
638.42	1047.87
638.77	1041.45
639.11	1034.85
639.45	1028.54
639.80	1021.85
640.14	1015.39
640.49	1008.98
640.83	1002.68
641.17	996.50
641.52	990.15
641.86	983.86
642.20	978.13
642.55	971.81
642.89	965.42
643.23	958.88
643.58	953.29
643.92	947.14
644.26	941.09
644.61	935.19
644.95	929.21
645.29	922.61
645.64	915.87
645.98	909.60
646.32	903.93
646.66	897.96
647.01	892.24
647.35	886.63
647.69	880.79
648.04	875.36
648.38	869.60
648.72	863.61
649.06	857.48
649.41	851.60
649.75	845.57
650.09	839.56
650.43	833.81
650.78	827.57
651.12	821.60
651.46	815.83
651.80	809.98
652.14	804.51
652.49	799.19
652.83	794.09
653.17	788.38
653.51	782.55
653.85	777.14
654.20	771.45
654.54	765.38
654.88	759.78
655.22	753.82
655.56	748.19
655.90	742.81
656.25	737.59
656.59	732.19
656.93	727.20
657.27	722.03
657.61	716.62
657.95	711.53
658.29	706.47
658.64	701.33
658.98	696.14
659.32	690.80
659.66	685.54
660.00	680.21
660.34	675.32
660.68	670.57
661.02	665.54
661.36	660.86
661.70	656.47
662.05	652.03
662.39	647.76
662.73	643.37
663.07	638.99
663.41	634.53
663.75	630.04
664.09	625.48
664.43	621.16
664.77	617.07
665.11	612.83
665.45	608.78
665.79	604.72
666.13	600.55
666.47	596.42
666.81	592.28
667.15	588.21
667.49	584.37
667.83	580.61
668.17	576.73
668.51	572.70
668.85	568.68
669.19	564.85
669.53	560.98
669.87	557.02
670.21	553.33
670.55	549.79
670.89	546.40
671.23	543.00
671.57	539.47
671.91	535.96
672.25	532.54
672.58	529.05
672.92	525.64
673.26	522.54
673.60	519.44
673.94	516.36
674.28	513.54
674.62	510.61
674.96	507.46
675.30	504.55
675.64	501.67
675.97	498.95
676.31	496.09
676.65	493.19
676.99	490.48
677.33	487.64
677.67	484.76
678.01	481.74
678.34	478.81
678.68	475.98
679.02	473.20
679.36	470.48
679.70	467.76
680.04	465.00
680.37	462.14
680.71	459.34
681.05	456.80
681.39	454.08
681.73	451.37
682.06	448.84
682.40	446.33
682.74	443.81
683.08	441.21
683.42	438.67
683.75	436.20
684.09	433.70
684.43	431.25
684.77	428.79
685.10	426.49
685.44	424.14
685.78	421.91
686.12	419.66
686.45	417.36
686.79	415.07
687.13	412.90
687.46	410.73
687.80	408.63
688.14	406.40
688.48	404.34
688.81	402.18
689.15	400.03
689.49	397.84
689.82	395.82
690.16	393.74
690.50	391.76
690.83	389.80
691.17	387.85
691.51	385.96
691.84	384.15
692.18	382.21
692.52	380.30
692.85	378.34
693.19	376.47
693.52	374.66
693.86	372.86
694.20	371.11
694.53	369.36
694.87	367.51
695.21	365.73
695.54	363.92
695.88	362.15
696.21	360.43
696.55	358.77
696.88	357.05
697.22	355.45
697.56	353.85
697.89	352.23
698.23	350.62
698.56	348.98
698.90	347.35
699.23	345.69
699.57	344.08
699.90	342.58
700.24	341.04
700.58	339.48
700.91	338.00
701.25	336.56
701.58	335.20
701.92	333.89
702.25	332.54
702.59	331.20
702.92	329.92
703.26	328.70
703.59	327.41
703.93	326.22
704.26	324.97
704.60	323.68
704.93	322.41
705.26	321.16
705.60	320.03
705.93	318.92
706.27	317.97
706.60	316.96
706.94	315.90
707.27	314.75
707.61	313.76
707.94	312.74
708.27	311.68
708.61	310.58
708.94	309.50
709.28	308.54
709.61	307.54
709.94	306.57
710.28	305.52
710.61	304.57
710.95	303.55
711.28	302.69
711.61	301.78
711.95	300.88
712.28	299.94
712.61	298.94
712.95	298.03
713.28	297.13
713.61	296.25
713.95	295.33
714.28	294.54
714.61	293.65
714.95	292.77
715.28	291.91
715.61	291.04
715.95	290.23
716.28	289.38
716.61	288.60
716.95	287.78
717.28	287.07
717.61	286.33
717.94	285.58
718.28	284.73
718.61	284.01
718.94	283.38
719.27	282.74
719.61	282.13
719.94	281.48
720.27	280.78
720.60	280.11
720.94	279.48
721.27	278.91
721.60	278.34
721.93	277.77
722.27	277.19
722.60	276.62
722.93	276.04
723.26	275.49
723.59	274.93
723.93	274.41
724.26	273.84
724.59	273.26
724.92	272.77
725.25	272.29
725.59	271.76
725.92	271.22
726.25	270.71
726.58	270.19
726.91	269.69
727.24	269.24
727.57	268.77
727.91	268.28
728.24	267.79
728.57	267.32
728.90	266.85
729.23	266.37
729.56	265.97
729.89	265.53
730.22	265.02
730.55	264.56
730.89	264.12
731.22	263.69
731.55	263.25
731.88	262.78
732.21	262.34
732.54	261.89
732.87	261.47
733.20	261.10
733.53	260.73
733.86	260.33
734.19	259.93
734.52	259.57
734.85	259.26
735.18	258.83
735.51	258.46
735.84	258.11
736.17	257.74
736.50	257.36
736.83	257.11
737.16	256.79
737.49	256.47
737.82	256.09
738.15	255.76
738.48	255.42
738.81	255.06
739.14	254.71
739.47	254.41
739.80	254.06
740.13	253.74
740.46	253.39
740.79	253.09
741.12	252.73
741.45	252.41
741.78	252.04
742.11	251.79
742.44	251.45
742.77	251.14
743.10	250.86
743.43	250.54
743.75	250.15
744.08	250.01
744.41	249.71
744.74	249.44
745.07	249.15
745.40	248.90
745.73	248.67
746.06	248.43
746.39	248.15
746.71	247.90
747.04	247.63
747.37	247.37
747.70	247.11
748.03	246.90
748.36	246.67
748.68	246.49
749.01	246.20
749.34	245.97
749.67	245.74
750.00	245.53
750.33	245.37
750.65	245.18
750.98	244.83
751.31	244.60
751.64	244.40
751.97	244.25
752.29	244.06
752.62	243.86
752.95	243.69
753.28	243.49
753.60	243.29
753.93	243.11
754.26	242.92
754.59	242.74
754.91	242.54
755.24	242.34
755.57	242.14
755.90	241.98
756.22	241.83
756.55	241.64
756.88	241.44
757.20	241.27
757.53	241.07
757.86	240.90
758.19	240.77
758.51	240.61
758.84	240.37
759.17	240.18
759.49	240.04
759.82	239.91
760.15	239.76
760.47	239.60
760.80	239.43
761.13	239.31
761.45	239.14
761.78	238.98
762.11	238.84
762.43	238.69
762.76	238.55
763.08	238.39
763.41	238.28
763.74	238.16
764.06	237.98
764.39	237.84
764.71	237.74
765.04	237.59
765.37	237.48
765.69	237.36
766.02	237.25
766.34	237.13
766.67	236.96
767.00	236.87
767.32	236.84
767.65	236.81
767.97	236.69
768.30	236.60
768.62	236.51
768.95	236.40
769.27	236.28
769.60	236.18
769.92	236.07
770.25	235.94
770.57	235.81
770.90	235.72
771.22	235.60
771.55	235.47
771.87	235.37
772.20	235.27
772.52	235.26
772.85	235.23
773.17	235.14
773.50	235.05
773.82	234.94
774.15	234.74
774.47	234.57
774.80	234.47
775.12	234.34
775.45	234.22
775.77	234.14
776.09	234.05
776.42	233.96
776.74	233.90
777.07	233.81
777.39	233.72
777.72	233.62
778.04	233.55
778.36	233.44
778.69	233.41
779.01	233.36
779.33	233.22
779.66	233.05
779.98	232.92
780.31	232.84
780.63	232.79
780.95	232.77
781.28	232.69
781.60	232.61
781.92	232.57
782.25	232.54
782.57	232.51
782.89	232.44
783.22	232.35
783.54	232.28
783.86	232.19
784.19	232.13
784.51	232.11
784.83	232.07
785.16	232.04
785.48	231.97
785.80	231.88
786.12	231.84
786.45	231.80
786.77	231.78
787.09	231.74
787.42	231.67
787.74	231.60
788.06	231.58
788.38	231.54
788.71	231.50
789.03	231.46
789.35	231.41
789.67	231.39
789.99	231.37
790.32	231.33
790.64	231.35
790.96	231.40
791.28	231.32
791.61	231.29
791.93	231.28
792.25	231.23
792.57	231.30
792.89	231.24
793.21	231.22
793.54	231.17
793.86	231.13
794.18	231.10
794.50	231.04
794.82	231.00
795.14	231.01
795.47	230.98
795.79	230.93
796.11	230.88
796.43	230.82
796.75	230.83
797.07	230.79
797.39	230.74
797.71	230.64
798.04	230.63
798.36	230.62
798.68	230.55
799.00	230.54
799.32	230.44
799.64	230.45
799.96	230.44
800.28	230.46
800.60	230.45
800.92	230.44
801.24	230.44
801.56	230.42
801.89	230.37
802.21	230.35
802.53	230.31
802.85	230.30
803.17	230.34
803.49	230.26
803.81	230.25
804.13	230.23
804.45	230.21
804.77	230.18
805.09	230.13
805.41	230.11
805.73	230.05
806.05	230.00
806.37	229.93
806.69	229.86
807.01	229.79
807.33	229.75
807.65	229.70
807.97	229.70
808.28	229.66
808.60	229.63
808.92	229.60
809.24	229.62
809.56	229.57
809.88	229.50
810.20	229.48
810.52	229.45
810.84	229.42
811.16	229.40
811.48	229.37
811.80	229.42
812.12	229.37
812.43	229.38
812.75	229.35
813.07	229.35
813.39	229.29
813.71	229.24
814.03	229.23
814.35	229.21
814.67	229.15
814.98	229.16
815.30	229.15
815.62	229.12
815.94	229.06
816.26	229.08
816.58	229.04
816.89	229.02
817.21	229.01
817.53	228.99
817.85	228.97
818.17	228.92
818.48	228.80
818.80	228.85
819.12	228.79
819.44	228.76
819.76	228.73
820.07	228.76
820.39	228.79
820.71	228.74
821.03	228.72
821.34	228.66
821.66	228.62
821.98	228.59
822.30	228.55
822.61	228.59
822.93	228.53
823.25	228.51
823.57	228.50
823.88	228.48
824.20	228.44
824.52	228.42
824.83	228.44
825.15	228.42
825.47	228.38
825.79	228.36
826.10	228.33
826.42	228.30
826.74	228.30
827.05	228.24
827.37	228.25
827.69	228.23
828.00	228.22
828.32	228.22
828.64	228.20
828.95	228.23
829.27	228.19
829.58	228.17
829.90	228.18
830.22	228.17
830.53	228.14
830.85	228.15
831.17	228.09
831.48	228.06
831.80	228.09
832.11	228.09
832.43	228.10
832.75	228.11
833.06	228.19
833.38	228.18
833.69	228.19
834.01	228.18
834.32	228.18
834.64	228.18
834.96	228.16
835.27	228.17
835.59	228.14
835.90	228.10
836.22	228.11
836.53	228.07
836.85	228.07
837.16	228.18
837.48	228.18
837.79	228.22
838.11	228.20
838.42	228.19
838.74	228.16
839.05	228.16
839.37	228.14
839.68	228.06
840.00	228.02
840.31	228.02
840.63	228.02
840.94	228.04
841.26	228.03
841.57	228.03
841.88	228.03
842.20	228.02
842.51	228.03
842.83	228.01
843.14	228.09
843.46	228.10
843.77	228.04
844.08	228.04
844.40	228.04
844.71	228.05
845.03	228.07
845.34	228.11
845.65	228.09
845.97	228.09
846.28	228.09
846.60	228.13
846.91	228.12
847.22	228.12
847.54	228.11
847.85	228.13
848.16	228.13
848.48	228.11
848.79	228.16
849.10	228.17
849.42	228.18
849.73	228.12
850.04	228.10
850.36	228.04
850.67	228.04
850.98	228.03
851.30	228.03
851.61	228.00
851.92	227.95
852.23	227.98
852.55	228.00
852.86	228.01
853.17	228.00
853.49	228.03
853.80	228.03
854.11	228.05
854.42	228.04
854.74	228.00
855.05	228.00
855.36	227.93
855.67	227.90
855.99	227.92
856.30	227.99
856.61	227.98
856.92	227.96
857.23	227.97
857.55	227.95
857.86	227.91
858.17	227.91
858.48	227.89
858.79	227.87
859.11	227.88
859.42	227.87
859.73	227.82
860.04	227.77
860.35	227.74
860.66	227.68
860.98	227.65
861.29	227.68
861.60	227.66
861.91	227.65
862.22	227.63
862.53	227.60
862.84	227.50
863.16	227.53
863.47	227.49
863.78	227.45
864.09	227.46
864.40	227.46
864.71	227.45
865.02	227.46
865.33	227.41
865.64	227.36
865.95	227.30
866.27	227.39
866.58	227.39
866.89	227.41
867.20	227.41
867.51	227.40
867.82	227.36
868.13	227.39
868.44	227.39
868.75	227.40
869.06	227.39
869.37	227.39
869.68	227.34
869.99	227.40
870.30	227.42
870.61	227.40
870.92	227.40
871.23	227.41
871.54	227.41
871.85	227.43
872.16	227.45
872.47	227.47
872.78	227.41
873.09	227.43
873.40	227.40
873.71	227.41
874.02	227.44
874.33	227.44
874.64	227.41
874.95	227.40
875.26	227.37
875.56	227.35
875.87	227.34
876.18	227.36
876.49	227.42
876.80	227.40
877.11	227.38
877.42	227.40
877.73	227.42
878.04	227.46
878.35	227.52
878.66	227.52
878.96	227.57
879.27	227.54
879.58	227.54
879.89	227.55
880.20	227.59
880.51	227.59
880.82	227.60
881.12	227.61
881.43	227.64
881.74	227.64
882.05	227.67
882.36	227.71
882.67	227.71
882.97	227.66
883.28	227.68
883.59	227.71
883.90	227.69
884.21	227.65
884.51	227.63
884.82	227.60
885.13	227.61
885.44	227.59
885.74	227.61
886.05	227.61
886.36	227.63
886.67	227.55
886.98	227.58
887.28	227.61
887.59	227.63
887.90	227.64
888.20	227.64
888.51	227.66
888.82	227.63
889.13	227.62
889.43	227.66
889.74	227.64
890.05	227.66
890.35	227.66
890.66	227.67
890.97	227.66
891.28	227.65
891.58	227.65
891.89	227.67
892.20	227.65
892.50	227.65
892.81	227.62
893.12	227.65
893.42	227.63
893.73	227.62
894.04	227.61
894.34	227.60
894.65	227.60
894.95	227.57
895.26	227.57
895.57	227.63
895.87	227.55
896.18	227.54
896.48	227.52
896.79	227.51
897.10	227.54
897.40	227.54
897.71	227.54
898.01	227.49
898.32	227.46
898.63	227.46
898.93	227.44
899.24	227.44
899.54	227.41
899.85	227.38
900.15	227.39
900.46	227.35
900.76	227.36
901.07	227.34
901.38	227.31
901.68	227.31
901.99	227.25
902.29	227.24
902.60	227.23
902.90	227.23
903.21	227.25
903.51	227.20
903.82	227.22
904.12	227.21
904.43	227.23
904.73	227.23
905.03	227.22
905.34	227.33
905.64	227.32
905.95	227.31
906.25	227.29
906.56	227.24
906.86	227.22
907.17	227.23
907.47	227.23
907.77	227.22
908.08	227.21
908.38	227.21
908.69	227.19
908.99	227.20
909.30	227.19
909.60	227.16
909.90	227.18
910.21	227.18
910.51	227.17
910.81	227.19
911.12	227.20
911.42	227.22
911.73	227.13
912.03	227.17
912.33	227.21
912.64	227.25
912.94	227.25
913.24	227.27
913.55	227.25
913.85	227.25
914.15	227.31
914.46	227.32
914.76	227.31
915.06	227.36
915.37	227.34
915.67	227.33
915.97	227.34
916.27	227.34
916.58	227.32
916.88	227.33
917.18	227.34
917.49	227.42
917.79	227.39
918.09	227.39
918.39	227.38
918.70	227.40
919.00	227.39
919.30	227.46
919.60	227.45
919.91	227.44
920.21	227.49
920.51	227.48
920.81	227.50
921.12	227.50
921.42	227.55
921.72	227.60
922.02	227.60
922.32	227.64
922.63	227.66
922.93	227.76
923.23	227.75
923.53	227.75
923.83	227.70
924.13	227.72
924.44	227.72
924.74	227.75
925.04	227.78
925.34	227.78
925.64	227.74
925.94	227.76
926.24	227.84
926.55	227.82
926.85	227.81
927.15	227.80
927.45	227.81
927.75	227.79
928.05	227.73
928.35	227.75
928.65	227.74
928.95	227.73
929.26	227.62
929.56	227.65
929.86	227.65
930.16	227.63
930.46	227.62
930.76	227.62
931.06	227.59
931.36	227.54
931.66	227.54
931.96	227.56
932.26	227.56
932.56	227.49
932.86	227.48
933.16	227.45
933.46	227.43
933.76	227.40
934.06	227.39
934.36	227.43
934.66	227.41
934.96	227.35
935.26	227.35
935.56	227.40
935.86	227.36
936.16	227.33
936.46	227.31
936.76	227.31
937.06	227.25
937.36	227.22
937.66	227.20
937.96	227.21
938.26	227.16
938.56	227.10
938.86	227.09
939.16	227.08
939.46	227.13
939.76	227.11
940.06	227.11
940.35	227.09
940.65	227.07
940.95	227.06
941.25	227.04
941.55	227.01
941.85	226.97
942.15	226.95
942.45	226.98
942.75	226.95
943.04	226.94
943.34	226.98
943.64	226.95
943.94	226.95
944.24	226.93
944.54	226.95
944.84	226.98
945.13	226.96
945.43	226.97
945.73	226.95
946.03	226.95
946.33	226.95
946.62	226.93
946.92	226.90
947.22	226.92
947.52	226.96
947.82	226.98
948.11	226.96
948.41	226.94
948.71	226.90
949.01	226.90
949.31	226.88
949.60	226.85
949.90	226.90
950.20	226.88
950.50	226.89
950.79	226.84
951.09	226.87
951.39	226.86
951.69	226.85
951.98	226.86
952.28	226.89
952.58	226.91
952.87	226.89
953.17	226.93
953.47	226.96
953.76	226.91
954.06	226.90
954.36	226.85
954.66	226.90
954.95	226.92
955.25	226.95
955.55	226.97
955.84	226.97
956.14	226.96
956.44	227.00
956.73	226.99
957.03	227.05
957.32	227.05
957.62	227.07
957.92	227.09
958.21	227.08
958.51	227.18
958.81	227.15
959.10	227.17
959.40	227.17
959.69	227.17
959.99	227.20
960.29	227.21
960.58	227.26
960.88	227.30
961.17	227.29
961.47	227.30
961.76	227.33
962.06	227.38
962.36	227.38
962.65	227.35
962.95	227.32
963.24	227.28
963.54	227.28
963.83	227.27
964.13	227.26
964.42	227.22
964.72	227.15
965.01	227.17
965.31	227.18
965.60	227.14
965.90	227.16
966.19	227.17
966.49	227.17
966.78	227.19
967.08	227.17
967.37	227.17
967.67	227.14
967.96	227.12
968.26	227.11
968.55	227.11
968.85	227.15
969.14	227.19
969.43	227.19
969.73	227.17
970.02	227.16
970.32	227.14
970.61	227.14
970.91	227.09
971.20	227.09
971.49	227.05
971.79	227.08
972.08	227.00
972.38	226.99
972.67	226.97
972.96	226.95
973.26	226.92
973.55	226.96
973.85	226.96
974.14	226.97
974.43	226.96
974.73	226.94
975.02	226.90
975.31	226.87
975.61	226.85
975.90	226.83
976.19	226.84
976.49	226.88
976.78	226.86
977.07	226.86
977.37	226.87
977.66	226.88
977.95	226.85
978.24	226.88
978.54	226.88
978.83	226.89
979.12	226.88
979.42	226.87
979.71	226.85
980.00	226.84
980.29	226.83
980.59	226.81
980.88	226.83
981.17	226.86
981.46	226.87
981.76	226.90
982.05	226.95
982.34	226.95
982.63	226.96
982.93	226.97
983.22	226.99
983.51	226.99
983.80	227.02
984.09	227.03
984.39	227.03
984.68	227.04
984.97	227.06
985.26	227.08
985.55	227.09
985.85	227.08
986.14	227.13
986.43	227.17
986.72	227.17
987.01	227.15
987.30	227.13
987.59	227.11
987.89	227.11
988.18	227.10
988.47	227.11
988.76	227.10
989.05	227.10
989.34	227.10
989.63	227.12
989.92	227.10
990.22	227.11
990.51	227.12
990.80	227.12
991.09	227.11
991.38	227.12
991.67	227.14
991.96	227.11
992.25	227.09
992.54	227.08
992.83	227.09
993.12	227.09
993.41	227.15
993.70	227.25
993.99	227.27
994.28	227.29
994.58	227.33
994.87	227.32
995.16	227.31
995.45	227.27
995.74	227.26
996.03	227.31
996.32	227.31
996.61	227.31
996.90	227.32
997.19	227.33
997.48	227.30
997.77	227.31
998.06	227.28
998.34	227.25
998.63	227.24
998.92	227.24
999.21	227.24
999.50	227.21
999.79	227.13
1000.08	227.10
1000.37	227.10
1000.66	227.04
1000.95	227.05
1001.24	227.07
1001.53	227.08
1001.82	227.04
1002.11	227.01
1002.40	227.04
1002.68	227.06
1002.97	227.08
1003.26	227.05
1003.55	227.05
1003.84	227.02
1004.13	227.08
1004.42	227.09
1004.71	227.05
1004.99	227.07
1005.28	227.06
1005.57	227.06
1005.86	227.08
1006.15	227.07
1006.44	227.02
1006.72	227.06
1007.01	227.04
1007.30	227.04
1007.59	227.04
1007.88	227.03
1008.17	227.03
1008.45	226.96
1008.74	226.94
1009.03	226.91
1009.32	226.91
1009.60	226.92
1009.89	226.88
1010.18	226.85
1010.47	226.86
1010.76	226.89
1011.04	226.81
1011.33	226.91
1011.62	226.90
1011.91	226.86
1012.19	226.86
1012.48	226.86
1012.77	226.82
1013.05	226.86
1013.34	226.87
1013.63	226.86
1013.92	226.91
1014.20	226.90
1014.49	226.92
1014.78	226.90
1015.06	226.88
1015.35	226.85
1015.64	226.85
1015.92	226.90
1016.21	226.88
1016.50	226.86
1016.78	226.87
1017.07	226.93
1017.36	226.82
1017.64	226.80
1017.93	226.83
1018.22	226.84
1018.50	226.86
1018.79	226.85
1019.08	226.83
1019.36	226.81
1019.65	226.80
1019.93	226.80
1020.22	226.83
1020.51	226.89
1020.79	226.90
1021.08	226.95
1021.36	226.85
1021.65	226.62
1021.94	227.07
1022.22	226.80
1022.51	226.75
1022.79	227.14
1023.08	227.36
1023.36	228.09
1023.65	226.77
>>>>>End Processed Spectral Data<<<<<
