SpectraSuite Data File
++++++++++++++++++++++++++++++++++++
Date: Fri Feb 01 15:32:51 EST 2013
User: group
Dark Spectrum Present: No
Reference Spectrum Present: No
Number of Sampled Component Spectra: 1
Spectrometers: USB2E7196
Integration Time (usec): 35000 (USB2E7196)
Spectra Averaged: 100 (USB2E7196)
Boxcar Smoothing: 10 (USB2E7196)
Correct for Electrical Dark: No (USB2E7196)
Strobe/Lamp Enabled: No (USB2E7196)
Correct for Detector Non-linearity: No (USB2E7196)
Correct for Stray Light: No (USB2E7196)
Number of Pixels in Processed Spectrum: 2048
>>>>>Begin Processed Spectral Data<<<<<
339.09	0.00
339.48	215.04
339.86	216.31
340.24	218.05
340.63	219.75
341.01	221.77
341.39	222.00
341.78	223.83
342.16	225.00
342.54	225.19
342.93	213.57
343.31	224.37
343.69	224.93
344.07	225.42
344.46	225.85
344.84	226.20
345.22	226.47
345.60	226.72
345.99	226.89
346.37	227.00
346.75	227.11
347.13	227.19
347.52	227.27
347.90	227.35
348.28	227.41
348.66	227.46
349.05	227.45
349.43	227.50
349.81	227.56
350.19	227.61
350.57	227.66
350.96	227.73
351.34	227.80
351.72	227.88
352.10	227.94
352.48	228.00
352.87	228.06
353.25	228.13
353.63	228.21
354.01	228.29
354.39	228.36
354.77	228.40
355.15	228.49
355.54	228.56
355.92	228.57
356.30	228.61
356.68	228.73
357.06	228.78
357.44	228.80
357.82	228.84
358.20	228.87
358.58	228.96
358.97	228.99
359.35	229.09
359.73	229.13
360.11	229.17
360.49	229.21
360.87	229.25
361.25	229.28
361.63	229.31
362.01	229.33
362.39	229.34
362.77	229.38
363.15	229.38
363.53	229.37
363.91	229.40
364.29	229.42
364.67	229.34
365.05	229.36
365.43	229.37
365.81	229.37
366.19	229.40
366.57	229.40
366.95	229.37
367.33	229.33
367.71	229.31
368.09	229.30
368.47	229.29
368.85	229.23
369.23	229.20
369.61	229.15
369.99	229.15
370.37	229.10
370.75	229.12
371.13	229.05
371.51	229.00
371.89	228.95
372.27	228.92
372.65	228.87
373.03	228.80
373.41	228.73
373.78	228.67
374.16	228.57
374.54	228.46
374.92	228.42
375.30	228.33
375.68	228.24
376.06	228.22
376.44	228.14
376.82	228.09
377.19	228.02
377.57	227.91
377.95	227.81
378.33	227.73
378.71	227.60
379.09	227.53
379.47	227.48
379.84	227.39
380.22	227.29
380.60	227.21
380.98	227.16
381.36	227.07
381.73	227.00
382.11	226.93
382.49	226.88
382.87	226.81
383.25	226.75
383.62	226.81
384.00	226.71
384.38	226.65
384.76	226.65
385.13	226.66
385.51	226.62
385.89	226.59
386.27	226.57
386.64	226.55
387.02	226.52
387.40	226.47
387.78	226.45
388.15	226.40
388.53	226.39
388.91	226.34
389.29	226.34
389.66	226.35
390.04	226.32
390.42	226.31
390.79	226.31
391.17	226.29
391.55	226.18
391.92	226.16
392.30	226.18
392.68	226.14
393.05	226.14
393.43	226.17
393.81	226.19
394.18	226.22
394.56	226.25
394.94	226.31
395.31	226.32
395.69	226.36
396.06	226.41
396.44	226.45
396.82	226.48
397.19	226.58
397.57	226.56
397.95	226.66
398.32	226.68
398.70	226.75
399.07	226.87
399.45	226.93
399.82	227.04
400.20	227.12
400.58	227.21
400.95	227.25
401.33	227.34
401.70	227.48
402.08	227.55
402.45	227.64
402.83	227.77
403.20	227.89
403.58	228.00
403.95	228.15
404.33	228.30
404.71	228.44
405.08	228.60
405.46	228.75
405.83	228.88
406.21	229.05
406.58	229.21
406.96	229.36
407.33	229.56
407.70	229.71
408.08	229.98
408.45	230.19
408.83	230.40
409.20	230.65
409.58	230.84
409.95	231.10
410.33	231.35
410.70	231.58
411.08	231.87
411.45	232.18
411.82	232.44
412.20	232.76
412.57	233.16
412.95	233.45
413.32	233.87
413.69	234.26
414.07	234.68
414.44	235.15
414.82	235.62
415.19	236.16
415.56	236.73
415.94	237.26
416.31	237.89
416.68	238.53
417.06	239.23
417.43	239.89
417.81	240.69
418.18	241.49
418.55	242.31
418.93	243.21
419.30	244.10
419.67	245.06
420.04	246.05
420.42	247.03
420.79	248.21
421.16	249.37
421.54	250.59
421.91	251.83
422.28	253.05
422.66	254.39
423.03	255.69
423.40	257.01
423.77	258.42
424.15	259.86
424.52	261.36
424.89	262.97
425.26	264.51
425.64	265.92
426.01	267.53
426.38	269.22
426.75	270.88
427.13	272.60
427.50	274.44
427.87	276.29
428.24	278.19
428.61	279.96
428.99	281.89
429.36	283.97
429.73	286.00
430.10	288.05
430.47	290.07
430.85	292.20
431.22	294.45
431.59	296.87
431.96	299.12
432.33	301.62
432.70	304.00
433.08	306.86
433.45	309.57
433.82	312.17
434.19	315.07
434.56	317.91
434.93	320.55
435.30	323.17
435.68	326.11
436.05	328.97
436.42	331.72
436.79	334.27
437.16	336.98
437.53	339.82
437.90	342.64
438.27	345.46
438.64	348.33
439.01	350.95
439.38	353.15
439.75	355.34
440.13	357.86
440.50	360.18
440.87	362.04
441.24	363.97
441.61	366.18
441.98	367.63
442.35	369.40
442.72	371.32
443.09	373.14
443.46	374.07
443.83	374.65
444.20	375.17
444.57	376.05
444.94	376.35
445.31	376.71
445.68	377.10
446.05	377.13
446.42	376.72
446.79	376.28
447.16	375.82
447.53	375.48
447.90	374.29
448.27	373.17
448.64	371.54
449.01	370.36
449.37	368.33
449.74	366.42
450.11	364.19
450.48	361.70
450.85	359.13
451.22	357.03
451.59	355.00
451.96	353.08
452.33	350.43
452.70	348.09
453.07	345.23
453.43	342.35
453.80	339.58
454.17	336.87
454.54	334.33
454.91	331.62
455.28	328.95
455.65	326.48
456.02	323.99
456.38	321.82
456.75	319.19
457.12	316.98
457.49	314.77
457.86	312.58
458.23	310.75
458.59	308.70
458.96	306.61
459.33	304.73
459.70	302.79
460.07	301.28
460.43	299.52
460.80	297.90
461.17	296.41
461.54	294.92
461.91	293.50
462.27	292.08
462.64	290.84
463.01	289.48
463.38	288.15
463.74	286.78
464.11	285.64
464.48	284.61
464.85	283.46
465.21	282.59
465.58	281.66
465.95	280.53
466.32	279.60
466.68	278.67
467.05	277.77
467.42	276.95
467.78	276.01
468.15	275.13
468.52	274.52
468.88	273.63
469.25	272.87
469.62	272.24
469.98	271.52
470.35	270.88
470.72	270.25
471.08	269.61
471.45	269.09
471.82	268.53
472.18	267.91
472.55	267.46
472.92	266.96
473.28	266.52
473.65	266.04
474.02	265.66
474.38	265.30
474.75	264.98
475.11	264.60
475.48	264.33
475.85	264.11
476.21	263.82
476.58	263.64
476.94	263.50
477.31	263.34
477.67	263.21
478.04	263.11
478.41	263.06
478.77	263.10
479.14	262.95
479.50	263.00
479.87	263.07
480.23	263.18
480.60	263.26
480.96	263.35
481.33	263.63
481.69	263.78
482.06	264.00
482.42	264.18
482.79	264.48
483.15	264.79
483.52	265.18
483.88	265.56
484.25	265.94
484.61	266.38
484.98	266.84
485.34	267.40
485.71	267.98
486.07	268.58
486.44	269.13
486.80	269.90
487.17	270.61
487.53	271.43
487.90	272.27
488.26	273.19
488.62	274.19
488.99	275.13
489.35	276.17
489.72	277.25
490.08	278.47
490.44	279.73
490.81	281.08
491.17	282.42
491.54	283.89
491.90	285.43
492.26	287.07
492.63	288.81
492.99	290.62
493.36	292.50
493.72	294.53
494.08	296.66
494.45	298.89
494.81	301.27
495.17	303.70
495.54	306.23
495.90	308.91
496.26	311.71
496.63	314.67
496.99	317.79
497.35	321.09
497.72	324.51
498.08	327.98
498.44	331.64
498.80	335.55
499.17	339.57
499.53	343.69
499.89	348.06
500.26	352.52
500.62	357.14
500.98	362.08
501.34	367.18
501.71	372.44
502.07	377.91
502.43	383.54
502.79	389.42
503.16	395.46
503.52	401.73
503.88	408.07
504.24	414.66
504.60	421.58
504.97	428.75
505.33	436.08
505.69	443.76
506.05	451.51
506.41	459.42
506.78	467.58
507.14	476.01
507.50	484.74
507.86	493.80
508.22	502.97
508.59	512.19
508.95	521.79
509.31	531.70
509.67	541.78
510.03	552.02
510.39	562.52
510.75	573.35
511.12	584.28
511.48	595.63
511.84	607.11
512.20	618.62
512.56	630.46
512.92	642.61
513.28	655.00
513.64	667.61
514.00	680.38
514.37	693.42
514.73	706.55
515.09	719.64
515.45	732.95
515.81	746.55
516.17	760.56
516.53	774.70
516.89	788.86
517.25	803.08
517.61	817.45
517.97	832.02
518.33	846.43
518.69	861.24
519.05	876.21
519.41	891.34
519.77	906.97
520.13	922.48
520.49	937.96
520.85	953.36
521.21	969.02
521.57	985.23
521.93	1001.01
522.29	1017.51
522.65	1033.73
523.01	1049.92
523.37	1066.07
523.73	1082.27
524.09	1098.35
524.45	1114.72
524.81	1131.37
525.17	1148.36
525.53	1165.29
525.89	1182.24
526.25	1199.10
526.61	1215.57
526.97	1232.34
527.33	1248.69
527.68	1265.35
528.04	1281.88
528.40	1298.60
528.76	1315.67
529.12	1332.21
529.48	1348.99
529.84	1365.10
530.20	1381.79
530.56	1398.90
530.91	1416.36
531.27	1433.21
531.63	1449.71
531.99	1466.30
532.35	1482.34
532.71	1498.20
533.07	1514.44
533.42	1530.36
533.78	1546.37
534.14	1562.61
534.50	1578.20
534.86	1594.18
535.21	1609.49
535.57	1625.44
535.93	1640.89
536.29	1655.68
536.65	1671.00
537.00	1686.01
537.36	1701.26
537.72	1715.76
538.08	1730.19
538.44	1743.97
538.79	1757.96
539.15	1771.75
539.51	1785.43
539.87	1799.88
540.22	1813.69
540.58	1827.45
540.94	1840.89
541.29	1854.04
541.65	1866.82
542.01	1880.08
542.37	1892.55
542.72	1905.00
543.08	1916.68
543.44	1929.17
543.79	1940.62
544.15	1951.41
544.51	1962.94
544.87	1973.98
545.22	1984.78
545.58	1995.03
545.94	2004.81
546.29	2014.60
546.65	2024.49
547.01	2033.82
547.36	2042.38
547.72	2051.03
548.07	2058.95
548.43	2067.09
548.79	2075.07
549.14	2082.62
549.50	2089.95
549.86	2097.58
550.21	2104.88
550.57	2112.15
550.92	2118.84
551.28	2125.94
551.64	2133.13
551.99	2139.68
552.35	2145.68
552.70	2151.97
553.06	2157.86
553.41	2164.27
553.77	2170.31
554.13	2176.33
554.48	2182.49
554.84	2187.97
555.19	2193.10
555.55	2198.22
555.90	2202.70
556.26	2207.40
556.61	2212.31
556.97	2216.46
557.32	2220.60
557.68	2224.74
558.03	2229.07
558.39	2232.66
558.74	2237.15
559.10	2241.03
559.45	2244.65
559.81	2249.24
560.16	2253.00
560.52	2256.34
560.87	2259.75
561.23	2262.52
561.58	2265.53
561.94	2268.01
562.29	2270.43
562.64	2273.21
563.00	2275.93
563.35	2279.51
563.71	2282.73
564.06	2285.79
564.42	2288.69
564.77	2291.17
565.12	2293.31
565.48	2295.06
565.83	2296.94
566.19	2298.10
566.54	2298.93
566.89	2299.95
567.25	2300.32
567.60	2301.66
567.96	2303.28
568.31	2304.14
568.66	2305.01
569.02	2305.59
569.37	2305.95
569.72	2306.71
570.08	2306.79
570.43	2306.63
570.78	2305.98
571.14	2304.44
571.49	2303.11
571.84	2302.66
572.20	2301.49
572.55	2300.50
572.90	2299.04
573.26	2297.62
573.61	2295.98
573.96	2294.13
574.31	2291.18
574.67	2288.14
575.02	2284.50
575.37	2281.12
575.72	2277.06
576.08	2273.83
576.43	2270.38
576.78	2266.60
577.13	2263.63
577.49	2260.42
577.84	2256.91
578.19	2253.10
578.54	2249.39
578.90	2244.92
579.25	2239.29
579.60	2234.31
579.95	2229.28
580.30	2224.28
580.66	2219.04
581.01	2214.13
581.36	2209.24
581.71	2204.97
582.06	2200.57
582.42	2196.00
582.77	2190.66
583.12	2186.16
583.47	2181.28
583.82	2176.13
584.17	2170.81
584.53	2164.99
584.88	2159.36
585.23	2153.47
585.58	2147.95
585.93	2142.49
586.28	2137.77
586.63	2132.78
586.98	2127.74
587.34	2122.87
587.69	2117.84
588.04	2112.48
588.39	2106.63
588.74	2100.10
589.09	2093.93
589.44	2086.93
589.79	2081.00
590.14	2075.44
590.49	2068.83
590.84	2062.41
591.19	2056.45
591.54	2049.98
591.89	2042.75
592.25	2035.81
592.60	2028.56
592.95	2020.92
593.30	2013.47
593.65	2005.85
594.00	1998.80
594.35	1991.43
594.70	1983.43
595.05	1976.20
595.40	1968.96
595.75	1961.46
596.10	1955.10
596.45	1948.29
596.80	1942.12
597.15	1935.24
597.50	1927.99
597.85	1921.55
598.19	1914.88
598.54	1907.70
598.89	1901.13
599.24	1895.20
599.59	1888.44
599.94	1882.32
600.29	1875.92
600.64	1869.39
600.99	1861.81
601.34	1854.81
601.69	1847.77
602.04	1840.78
602.39	1833.30
602.74	1826.39
603.08	1819.68
603.43	1812.99
603.78	1805.69
604.13	1798.46
604.48	1791.07
604.83	1784.21
605.18	1777.11
605.53	1769.00
605.87	1761.00
606.22	1753.74
606.57	1745.68
606.92	1738.43
607.27	1731.19
607.62	1724.22
607.96	1716.73
608.31	1710.16
608.66	1702.53
609.01	1694.98
609.36	1687.42
609.70	1679.33
610.05	1671.19
610.40	1663.45
610.75	1655.02
611.10	1647.35
611.44	1639.02
611.79	1631.17
612.14	1622.49
612.49	1613.40
612.83	1605.05
613.18	1596.90
613.53	1588.66
613.88	1580.08
614.22	1571.86
614.57	1563.15
614.92	1555.16
615.27	1547.70
615.61	1539.35
615.96	1531.35
616.31	1523.61
616.65	1516.16
617.00	1508.64
617.35	1501.04
617.70	1492.68
618.04	1484.28
618.39	1476.08
618.74	1468.41
619.08	1460.06
619.43	1452.43
619.78	1445.49
620.12	1438.33
620.47	1430.81
620.82	1422.71
621.16	1415.28
621.51	1407.65
621.85	1400.22
622.20	1391.67
622.55	1383.30
622.89	1375.42
623.24	1367.80
623.59	1360.47
623.93	1352.99
624.28	1345.78
624.62	1338.25
624.97	1331.09
625.32	1324.29
625.66	1317.19
626.01	1309.94
626.35	1302.43
626.70	1294.73
627.04	1286.99
627.39	1279.21
627.73	1271.79
628.08	1264.80
628.43	1257.50
628.77	1249.94
629.12	1242.26
629.46	1235.09
629.81	1227.62
630.15	1220.48
630.50	1213.08
630.84	1204.87
631.19	1196.93
631.53	1189.43
631.88	1181.82
632.22	1174.25
632.57	1166.96
632.91	1159.37
633.26	1152.00
633.60	1144.79
633.95	1137.75
634.29	1130.69
634.64	1124.03
634.98	1116.57
635.32	1109.46
635.67	1102.96
636.01	1096.42
636.36	1089.60
636.70	1083.07
637.05	1076.55
637.39	1070.09
637.73	1063.50
638.08	1057.67
638.42	1051.72
638.77	1045.24
639.11	1038.61
639.45	1032.17
639.80	1025.48
640.14	1019.10
640.49	1012.55
640.83	1006.16
641.17	999.82
641.52	993.44
641.86	986.97
642.20	981.16
642.55	974.88
642.89	968.30
643.23	961.81
643.58	956.05
643.92	949.83
644.26	943.75
644.61	937.78
644.95	931.83
645.29	925.27
645.64	918.53
645.98	912.26
646.32	906.46
646.66	900.41
647.01	894.65
647.35	888.99
647.69	883.11
648.04	877.60
648.38	871.79
648.72	865.93
649.06	859.92
649.41	854.08
649.75	848.12
650.09	842.18
650.43	836.30
650.78	830.15
651.12	824.27
651.46	818.60
651.80	812.77
652.14	807.35
652.49	801.91
652.83	796.74
653.17	791.00
653.51	785.31
653.85	779.94
654.20	774.31
654.54	768.33
654.88	762.63
655.22	756.72
655.56	750.98
655.90	745.43
656.25	740.23
656.59	734.91
656.93	729.84
657.27	724.66
657.61	719.20
657.95	714.09
658.29	708.99
658.64	703.69
658.98	698.43
659.32	692.94
659.66	687.78
660.00	682.50
660.34	677.58
660.68	672.70
661.02	667.70
661.36	662.98
661.70	658.50
662.05	654.14
662.39	649.85
662.73	645.51
663.07	641.18
663.41	636.59
663.75	632.02
664.09	627.39
664.43	623.06
664.77	618.93
665.11	614.69
665.45	610.55
665.79	606.45
666.13	602.29
666.47	598.22
666.81	594.08
667.15	589.98
667.49	586.08
667.83	582.22
668.17	578.30
668.51	574.21
668.85	570.12
669.19	566.33
669.53	562.43
669.87	558.50
670.21	554.78
670.55	551.20
670.89	547.82
671.23	544.40
671.57	540.84
671.91	537.31
672.25	533.84
672.58	530.32
672.92	526.96
673.26	523.81
673.60	520.71
673.94	517.56
674.28	514.65
674.62	511.70
674.96	508.63
675.30	505.67
675.64	502.74
675.97	499.95
676.31	497.05
676.65	494.12
676.99	491.42
677.33	488.53
677.67	485.67
678.01	482.62
678.34	479.65
678.68	476.79
679.02	474.02
679.36	471.27
679.70	468.57
680.04	465.80
680.37	462.92
680.71	460.08
681.05	457.51
681.39	454.74
681.73	452.09
682.06	449.60
682.40	447.06
682.74	444.54
683.08	442.04
683.42	439.49
683.75	437.06
684.09	434.47
684.43	432.05
684.77	429.59
685.10	427.22
685.44	424.90
685.78	422.62
686.12	420.38
686.45	418.09
686.79	415.74
687.13	413.54
687.46	411.39
687.80	409.22
688.14	406.95
688.48	404.89
688.81	402.63
689.15	400.44
689.49	398.33
689.82	396.26
690.16	394.21
690.50	392.22
690.83	390.19
691.17	388.29
691.51	386.41
691.84	384.63
692.18	382.76
692.52	380.82
692.85	378.90
693.19	377.05
693.52	375.22
693.86	373.48
694.20	371.71
694.53	369.95
694.87	368.12
695.21	366.37
695.54	364.57
695.88	362.87
696.21	361.16
696.55	359.49
696.88	357.83
697.22	356.16
697.56	354.61
697.89	353.00
698.23	351.39
698.56	349.77
698.90	348.13
699.23	346.49
699.57	344.93
699.90	343.44
700.24	341.92
700.58	340.40
700.91	338.91
701.25	337.47
701.58	336.04
701.92	334.70
702.25	333.30
702.59	331.94
702.92	330.65
703.26	329.36
703.59	328.04
703.93	326.82
704.26	325.56
704.60	324.22
704.93	322.97
705.26	321.72
705.60	320.59
705.93	319.47
706.27	318.42
706.60	317.39
706.94	316.29
707.27	315.18
707.61	314.13
707.94	313.08
708.27	312.01
708.61	310.97
708.94	309.98
709.28	309.07
709.61	308.13
709.94	307.15
710.28	306.10
710.61	305.16
710.95	304.13
711.28	303.19
711.61	302.27
711.95	301.30
712.28	300.34
712.61	299.32
712.95	298.36
713.28	297.45
713.61	296.54
713.95	295.68
714.28	294.81
714.61	293.92
714.95	293.05
715.28	292.17
715.61	291.33
715.95	290.45
716.28	289.54
716.61	288.70
716.95	287.88
717.28	287.16
717.61	286.39
717.94	285.66
718.28	284.84
718.61	284.14
718.94	283.48
719.27	282.84
719.61	282.23
719.94	281.54
720.27	280.84
720.60	280.16
720.94	279.51
721.27	278.87
721.60	278.25
721.93	277.69
722.27	277.15
722.60	276.58
722.93	275.99
723.26	275.44
723.59	274.86
723.93	274.30
724.26	273.71
724.59	273.15
724.92	272.61
725.25	272.10
725.59	271.53
725.92	271.00
726.25	270.45
726.58	269.95
726.91	269.46
727.24	269.02
727.57	268.56
727.91	268.05
728.24	267.59
728.57	267.15
728.90	266.66
729.23	266.15
729.56	265.71
729.89	265.24
730.22	264.80
730.55	264.35
730.89	263.93
731.22	263.49
731.55	263.07
731.88	262.64
732.21	262.26
732.54	261.83
732.87	261.45
733.20	261.04
733.53	260.64
733.86	260.28
734.19	259.86
734.52	259.47
734.85	259.16
735.18	258.76
735.51	258.38
735.84	258.04
736.17	257.71
736.50	257.32
736.83	257.10
737.16	256.74
737.49	256.41
737.82	256.06
738.15	255.74
738.48	255.39
738.81	255.05
739.14	254.72
739.47	254.39
739.80	254.08
740.13	253.81
740.46	253.46
740.79	253.18
741.12	252.88
741.45	252.58
741.78	252.21
742.11	251.95
742.44	251.64
742.77	251.32
743.10	251.02
743.43	250.71
743.75	250.34
744.08	250.21
744.41	249.94
744.74	249.69
745.07	249.43
745.40	249.19
745.73	248.97
746.06	248.68
746.39	248.44
746.71	248.18
747.04	247.90
747.37	247.67
747.70	247.40
748.03	247.12
748.36	246.90
748.68	246.67
749.01	246.41
749.34	246.19
749.67	246.00
750.00	245.76
750.33	245.64
750.65	245.40
750.98	245.02
751.31	244.81
751.64	244.60
751.97	244.44
752.29	244.18
752.62	243.92
752.95	243.72
753.28	243.49
753.60	243.27
753.93	243.05
754.26	242.85
754.59	242.64
754.91	242.44
755.24	242.23
755.57	242.04
755.90	241.84
756.22	241.63
756.55	241.42
756.88	241.24
757.20	240.99
757.53	240.78
757.86	240.64
758.19	240.46
758.51	240.27
758.84	240.01
759.17	239.84
759.49	239.68
759.82	239.57
760.15	239.42
760.47	239.26
760.80	239.09
761.13	238.95
761.45	238.77
761.78	238.63
762.11	238.52
762.43	238.36
762.76	238.22
763.08	238.11
763.41	237.95
763.74	237.78
764.06	237.61
764.39	237.49
764.71	237.31
765.04	237.16
765.37	237.00
765.69	236.88
766.02	236.73
766.34	236.64
766.67	236.46
767.00	236.36
767.32	236.31
767.65	236.24
767.97	236.11
768.30	236.02
768.62	235.89
768.95	235.71
769.27	235.60
769.60	235.51
769.92	235.38
770.25	235.27
770.57	235.15
770.90	235.08
771.22	234.96
771.55	234.89
771.87	234.79
772.20	234.74
772.52	234.76
772.85	234.78
773.17	234.66
773.50	234.60
773.82	234.50
774.15	234.34
774.47	234.23
774.80	234.13
775.12	234.03
775.45	233.98
775.77	233.95
776.09	233.88
776.42	233.79
776.74	233.76
777.07	233.65
777.39	233.60
777.72	233.52
778.04	233.49
778.36	233.40
778.69	233.38
779.01	233.30
779.33	233.12
779.66	232.97
779.98	232.90
780.31	232.83
780.63	232.82
780.95	232.82
781.28	232.76
781.60	232.73
781.92	232.72
782.25	232.67
782.57	232.63
782.89	232.56
783.22	232.54
783.54	232.45
783.86	232.43
784.19	232.38
784.51	232.36
784.83	232.30
785.16	232.26
785.48	232.16
785.80	232.13
786.12	232.12
786.45	232.08
786.77	232.05
787.09	231.98
787.42	231.92
787.74	231.85
788.06	231.83
788.38	231.75
788.71	231.68
789.03	231.64
789.35	231.61
789.67	231.57
789.99	231.50
790.32	231.46
790.64	231.44
790.96	231.50
791.28	231.43
791.61	231.40
791.93	231.36
792.25	231.33
792.57	231.36
792.89	231.28
793.21	231.24
793.54	231.19
793.86	231.15
794.18	231.11
794.50	231.07
794.82	231.02
795.14	231.03
795.47	230.99
795.79	230.96
796.11	230.87
796.43	230.82
796.75	230.80
797.07	230.77
797.39	230.69
797.71	230.59
798.04	230.57
798.36	230.51
798.68	230.50
799.00	230.47
799.32	230.39
799.64	230.39
799.96	230.39
800.28	230.35
800.60	230.30
800.92	230.26
801.24	230.21
801.56	230.18
801.89	230.09
802.21	230.08
802.53	230.01
802.85	230.02
803.17	230.04
803.49	229.98
803.81	229.91
804.13	229.88
804.45	229.81
804.77	229.80
805.09	229.79
805.41	229.75
805.73	229.71
806.05	229.63
806.37	229.59
806.69	229.51
807.01	229.49
807.33	229.48
807.65	229.39
807.97	229.41
808.28	229.35
808.60	229.32
808.92	229.27
809.24	229.29
809.56	229.24
809.88	229.19
810.20	229.16
810.52	229.18
810.84	229.14
811.16	229.12
811.48	229.07
811.80	229.06
812.12	229.02
812.43	228.99
812.75	229.00
813.07	228.98
813.39	228.99
813.71	228.95
814.03	228.93
814.35	228.92
814.67	228.84
814.98	228.84
815.30	228.84
815.62	228.81
815.94	228.73
816.26	228.71
816.58	228.68
816.89	228.69
817.21	228.65
817.53	228.68
817.85	228.65
818.17	228.67
818.48	228.64
818.80	228.65
819.12	228.64
819.44	228.60
819.76	228.56
820.07	228.56
820.39	228.57
820.71	228.58
821.03	228.57
821.34	228.58
821.66	228.60
821.98	228.61
822.30	228.63
822.61	228.69
822.93	228.67
823.25	228.65
823.57	228.61
823.88	228.61
824.20	228.57
824.52	228.61
824.83	228.57
825.15	228.53
825.47	228.52
825.79	228.54
826.10	228.53
826.42	228.56
826.74	228.53
827.05	228.51
827.37	228.49
827.69	228.48
828.00	228.48
828.32	228.45
828.64	228.41
828.95	228.43
829.27	228.41
829.58	228.40
829.90	228.41
830.22	228.43
830.53	228.39
830.85	228.40
831.17	228.35
831.48	228.35
831.80	228.37
832.11	228.39
832.43	228.38
832.75	228.35
833.06	228.38
833.38	228.37
833.69	228.36
834.01	228.35
834.32	228.36
834.64	228.35
834.96	228.38
835.27	228.38
835.59	228.35
835.90	228.31
836.22	228.26
836.53	228.26
836.85	228.26
837.16	228.36
837.48	228.34
837.79	228.35
838.11	228.35
838.42	228.32
838.74	228.28
839.05	228.22
839.37	228.23
839.68	228.15
840.00	228.09
840.31	228.11
840.63	228.09
840.94	228.06
841.26	228.00
841.57	227.95
841.88	227.92
842.20	227.88
842.51	227.86
842.83	227.88
843.14	227.93
843.46	227.90
843.77	227.84
844.08	227.84
844.40	227.79
844.71	227.77
845.03	227.75
845.34	227.76
845.65	227.75
845.97	227.73
846.28	227.72
846.60	227.73
846.91	227.68
847.22	227.66
847.54	227.66
847.85	227.67
848.16	227.64
848.48	227.62
848.79	227.65
849.10	227.66
849.42	227.67
849.73	227.58
850.04	227.56
850.36	227.52
850.67	227.51
850.98	227.53
851.30	227.51
851.61	227.50
851.92	227.47
852.23	227.46
852.55	227.47
852.86	227.47
853.17	227.49
853.49	227.50
853.80	227.53
854.11	227.52
854.42	227.54
854.74	227.53
855.05	227.55
855.36	227.51
855.67	227.49
855.99	227.47
856.30	227.59
856.61	227.60
856.92	227.62
857.23	227.63
857.55	227.62
857.86	227.62
858.17	227.64
858.48	227.67
858.79	227.68
859.11	227.69
859.42	227.67
859.73	227.67
860.04	227.68
860.35	227.66
860.66	227.63
860.98	227.62
861.29	227.67
861.60	227.67
861.91	227.69
862.22	227.68
862.53	227.66
862.84	227.52
863.16	227.54
863.47	227.50
863.78	227.50
864.09	227.48
864.40	227.50
864.71	227.51
865.02	227.53
865.33	227.53
865.64	227.52
865.95	227.55
866.27	227.63
866.58	227.64
866.89	227.67
867.20	227.70
867.51	227.69
867.82	227.66
868.13	227.71
868.44	227.67
868.75	227.69
869.06	227.69
869.37	227.72
869.68	227.68
869.99	227.71
870.30	227.73
870.61	227.75
870.92	227.71
871.23	227.69
871.54	227.69
871.85	227.69
872.16	227.68
872.47	227.66
872.78	227.58
873.09	227.55
873.40	227.53
873.71	227.51
874.02	227.55
874.33	227.55
874.64	227.52
874.95	227.52
875.26	227.49
875.56	227.47
875.87	227.46
876.18	227.46
876.49	227.53
876.80	227.51
877.11	227.46
877.42	227.47
877.73	227.45
878.04	227.41
878.35	227.41
878.66	227.42
878.96	227.40
879.27	227.39
879.58	227.37
879.89	227.37
880.20	227.41
880.51	227.36
880.82	227.35
881.12	227.33
881.43	227.33
881.74	227.31
882.05	227.30
882.36	227.30
882.67	227.28
882.97	227.16
883.28	227.13
883.59	227.16
883.90	227.16
884.21	227.16
884.51	227.19
884.82	227.14
885.13	227.14
885.44	227.16
885.74	227.15
886.05	227.14
886.36	227.12
886.67	227.06
886.98	227.08
887.28	227.07
887.59	227.07
887.90	227.08
888.20	227.11
888.51	227.14
888.82	227.13
889.13	227.17
889.43	227.25
889.74	227.25
890.05	227.23
890.35	227.21
890.66	227.22
890.97	227.17
891.28	227.17
891.58	227.16
891.89	227.15
892.20	227.12
892.50	227.13
892.81	227.13
893.12	227.14
893.42	227.11
893.73	227.12
894.04	227.13
894.34	227.13
894.65	227.12
894.95	227.12
895.26	227.11
895.57	227.10
895.87	227.04
896.18	227.06
896.48	227.09
896.79	227.10
897.10	227.10
897.40	227.10
897.71	227.11
898.01	227.10
898.32	227.09
898.63	227.15
898.93	227.15
899.24	227.13
899.54	227.13
899.85	227.13
900.15	227.12
900.46	227.12
900.76	227.13
901.07	227.13
901.38	227.14
901.68	227.17
901.99	227.16
902.29	227.15
902.60	227.14
902.90	227.09
903.21	227.10
903.51	227.10
903.82	227.15
904.12	227.16
904.43	227.15
904.73	227.15
905.03	227.11
905.34	227.21
905.64	227.24
905.95	227.27
906.25	227.27
906.56	227.30
906.86	227.31
907.17	227.29
907.47	227.28
907.77	227.25
908.08	227.20
908.38	227.20
908.69	227.26
908.99	227.29
909.30	227.29
909.60	227.30
909.90	227.32
910.21	227.25
910.51	227.27
910.81	227.29
911.12	227.28
911.42	227.27
911.73	227.16
912.03	227.16
912.33	227.17
912.64	227.17
912.94	227.13
913.24	227.10
913.55	227.09
913.85	227.08
914.15	227.11
914.46	227.12
914.76	227.11
915.06	227.06
915.37	227.05
915.67	227.04
915.97	227.04
916.27	227.01
916.58	227.02
916.88	226.99
917.18	226.96
917.49	227.03
917.79	227.05
918.09	227.09
918.39	227.12
918.70	227.07
919.00	227.09
919.30	227.13
919.60	227.14
919.91	227.13
920.21	227.15
920.51	227.12
920.81	227.13
921.12	227.14
921.42	227.13
921.72	227.12
922.02	227.12
922.32	227.11
922.63	227.09
922.93	227.14
923.23	227.14
923.53	227.18
923.83	227.12
924.13	227.11
924.44	227.09
924.74	227.10
925.04	227.11
925.34	227.09
925.64	227.05
925.94	227.03
926.24	227.06
926.55	227.06
926.85	227.09
927.15	227.10
927.45	227.11
927.75	227.07
928.05	227.08
928.35	227.07
928.65	227.09
928.95	227.14
929.26	227.11
929.56	227.10
929.86	227.09
930.16	227.07
930.46	227.05
930.76	227.06
931.06	227.00
931.36	227.00
931.66	227.01
931.96	227.06
932.26	227.09
932.56	227.06
932.86	227.06
933.16	227.04
933.46	227.02
933.76	227.02
934.06	227.11
934.36	227.13
934.66	227.17
934.96	227.12
935.26	227.15
935.56	227.17
935.86	227.17
936.16	227.18
936.46	227.18
936.76	227.20
937.06	227.20
937.36	227.22
937.66	227.21
937.96	227.22
938.26	227.17
938.56	227.14
938.86	227.17
939.16	227.17
939.46	227.18
939.76	227.19
940.06	227.18
940.35	227.14
940.65	227.09
940.95	227.09
941.25	227.11
941.55	227.06
941.85	227.03
942.15	227.04
942.45	227.06
942.75	227.05
943.04	227.05
943.34	227.04
943.64	227.04
943.94	227.04
944.24	227.01
944.54	227.01
944.84	227.03
945.13	226.98
945.43	226.97
945.73	226.96
946.03	226.97
946.33	226.96
946.62	226.95
946.92	226.94
947.22	226.94
947.52	226.95
947.82	226.97
948.11	226.98
948.41	226.97
948.71	226.95
949.01	226.96
949.31	226.95
949.60	226.96
949.90	226.96
950.20	226.97
950.50	227.00
950.79	226.97
951.09	226.95
951.39	226.98
951.69	226.93
951.98	226.94
952.28	226.93
952.58	226.93
952.87	226.95
953.17	226.99
953.47	226.98
953.76	226.95
954.06	226.92
954.36	226.91
954.66	226.91
954.95	226.90
955.25	226.94
955.55	226.93
955.84	226.90
956.14	226.91
956.44	226.93
956.73	226.90
957.03	226.96
957.32	226.99
957.62	226.97
957.92	227.00
958.21	226.99
958.51	227.09
958.81	227.09
959.10	227.07
959.40	227.07
959.69	227.08
959.99	227.11
960.29	227.10
960.58	227.12
960.88	227.14
961.17	227.15
961.47	227.11
961.76	227.12
962.06	227.13
962.36	227.10
962.65	227.09
962.95	227.08
963.24	227.05
963.54	227.06
963.83	227.09
964.13	227.09
964.42	227.09
964.72	227.05
965.01	227.05
965.31	227.05
965.60	227.06
965.90	227.07
966.19	227.06
966.49	227.06
966.78	227.06
967.08	227.06
967.37	227.09
967.67	227.09
967.96	227.09
968.26	227.10
968.55	227.10
968.85	227.09
969.14	227.10
969.43	227.11
969.73	227.12
970.02	227.11
970.32	227.11
970.61	227.12
970.91	227.06
971.20	227.01
971.49	227.01
971.79	226.99
972.08	226.98
972.38	227.01
972.67	226.99
972.96	226.99
973.26	226.97
973.55	226.95
973.85	226.98
974.14	226.97
974.43	226.96
974.73	226.95
975.02	226.91
975.31	226.91
975.61	226.89
975.90	226.87
976.19	226.84
976.49	226.86
976.78	226.83
977.07	226.84
977.37	226.87
977.66	226.89
977.95	226.86
978.24	226.87
978.54	226.85
978.83	226.87
979.12	226.84
979.42	226.82
979.71	226.81
980.00	226.79
980.29	226.78
980.59	226.77
980.88	226.80
981.17	226.79
981.46	226.79
981.76	226.81
982.05	226.84
982.34	226.86
982.63	226.84
982.93	226.83
983.22	226.84
983.51	226.84
983.80	226.82
984.09	226.84
984.39	226.79
984.68	226.77
984.97	226.80
985.26	226.79
985.55	226.79
985.85	226.78
986.14	226.79
986.43	226.79
986.72	226.82
987.01	226.78
987.30	226.81
987.59	226.78
987.89	226.76
988.18	226.76
988.47	226.74
988.76	226.73
989.05	226.73
989.34	226.72
989.63	226.75
989.92	226.73
990.22	226.71
990.51	226.75
990.80	226.72
991.09	226.72
991.38	226.74
991.67	226.75
991.96	226.73
992.25	226.76
992.54	226.76
992.83	226.75
993.12	226.75
993.41	226.75
993.70	226.80
993.99	226.83
994.28	226.82
994.58	226.82
994.87	226.85
995.16	226.81
995.45	226.79
995.74	226.74
996.03	226.75
996.32	226.79
996.61	226.79
996.90	226.82
997.19	226.82
997.48	226.83
997.77	226.82
998.06	226.82
998.34	226.79
998.63	226.79
998.92	226.78
999.21	226.77
999.50	226.79
999.79	226.74
1000.08	226.73
1000.37	226.73
1000.66	226.77
1000.95	226.73
1001.24	226.79
1001.53	226.81
1001.82	226.83
1002.11	226.79
1002.40	226.80
1002.68	226.82
1002.97	226.89
1003.26	226.86
1003.55	226.86
1003.84	226.88
1004.13	226.91
1004.42	226.94
1004.71	226.94
1004.99	226.95
1005.28	227.01
1005.57	227.00
1005.86	227.05
1006.15	227.04
1006.44	227.01
1006.72	226.98
1007.01	227.05
1007.30	227.03
1007.59	227.03
1007.88	227.04
1008.17	227.10
1008.45	227.06
1008.74	227.03
1009.03	227.00
1009.32	227.02
1009.60	227.01
1009.89	227.00
1010.18	226.95
1010.47	226.93
1010.76	226.93
1011.04	226.89
1011.33	226.92
1011.62	226.92
1011.91	226.90
1012.19	226.89
1012.48	226.90
1012.77	226.92
1013.05	226.94
1013.34	226.95
1013.63	226.93
1013.92	226.95
1014.20	226.91
1014.49	226.93
1014.78	226.94
1015.06	226.90
1015.35	226.87
1015.64	226.87
1015.92	226.89
1016.21	226.92
1016.50	226.95
1016.78	226.96
1017.07	226.99
1017.36	226.94
1017.64	226.93
1017.93	226.96
1018.22	226.95
1018.50	226.96
1018.79	226.91
1019.08	226.83
1019.36	226.83
1019.65	226.80
1019.93	226.81
1020.22	226.81
1020.51	226.87
1020.79	226.84
1021.08	226.67
1021.36	226.79
1021.65	226.02
1021.94	226.46
1022.22	226.73
1022.51	226.04
1022.79	227.10
1023.08	226.70
1023.36	228.28
1023.65	226.35
>>>>>End Processed Spectral Data<<<<<
