SpectraSuite Data File
++++++++++++++++++++++++++++++++++++
Date: Fri Feb 01 14:54:33 EST 2013
User: group
Dark Spectrum Present: No
Reference Spectrum Present: No
Number of Sampled Component Spectra: 1
Spectrometers: USB2E7196
Integration Time (usec): 35000 (USB2E7196)
Spectra Averaged: 100 (USB2E7196)
Boxcar Smoothing: 10 (USB2E7196)
Correct for Electrical Dark: No (USB2E7196)
Strobe/Lamp Enabled: No (USB2E7196)
Correct for Detector Non-linearity: No (USB2E7196)
Correct for Stray Light: No (USB2E7196)
Number of Pixels in Processed Spectrum: 2048
>>>>>Begin Processed Spectral Data<<<<<
339.09	0.00
339.48	215.54
339.86	216.91
340.24	218.14
340.63	219.64
341.01	222.45
341.39	222.79
341.78	223.42
342.16	224.51
342.54	225.75
342.93	213.73
343.31	224.55
343.69	225.08
344.07	225.56
344.46	225.99
344.84	226.39
345.22	226.63
345.60	226.86
345.99	227.06
346.37	227.22
346.75	227.30
347.13	227.35
347.52	227.39
347.90	227.47
348.28	227.51
348.66	227.56
349.05	227.53
349.43	227.57
349.81	227.60
350.19	227.64
350.57	227.70
350.96	227.79
351.34	227.87
351.72	227.94
352.10	228.01
352.48	228.08
352.87	228.11
353.25	228.17
353.63	228.22
354.01	228.29
354.39	228.36
354.77	228.41
355.15	228.51
355.54	228.55
355.92	228.60
356.30	228.63
356.68	228.76
357.06	228.83
357.44	228.89
357.82	228.96
358.20	229.02
358.58	229.10
358.97	229.12
359.35	229.18
359.73	229.25
360.11	229.28
360.49	229.32
360.87	229.36
361.25	229.42
361.63	229.47
362.01	229.50
362.39	229.52
362.77	229.57
363.15	229.60
363.53	229.64
363.91	229.67
364.29	229.70
364.67	229.62
365.05	229.64
365.43	229.65
365.81	229.63
366.19	229.68
366.57	229.70
366.95	229.73
367.33	229.68
367.71	229.65
368.09	229.71
368.47	229.68
368.85	229.67
369.23	229.63
369.61	229.59
369.99	229.60
370.37	229.58
370.75	229.60
371.13	229.54
371.51	229.49
371.89	229.41
372.27	229.36
372.65	229.31
373.03	229.29
373.41	229.23
373.78	229.17
374.16	229.05
374.54	228.97
374.92	228.91
375.30	228.85
375.68	228.76
376.06	228.66
376.44	228.61
376.82	228.51
377.19	228.43
377.57	228.34
377.95	228.23
378.33	228.13
378.71	227.96
379.09	227.88
379.47	227.81
379.84	227.75
380.22	227.70
380.60	227.61
380.98	227.49
381.36	227.44
381.73	227.39
382.11	227.35
382.49	227.23
382.87	227.15
383.25	227.12
383.62	227.19
384.00	227.12
384.38	227.04
384.76	227.06
385.13	227.04
385.51	227.01
385.89	226.95
386.27	226.90
386.64	226.91
387.02	226.88
387.40	226.83
387.78	226.77
388.15	226.74
388.53	226.70
388.91	226.65
389.29	226.62
389.66	226.63
390.04	226.60
390.42	226.63
390.79	226.61
391.17	226.56
391.55	226.44
391.92	226.43
392.30	226.45
392.68	226.38
393.05	226.40
393.43	226.44
393.81	226.45
394.18	226.47
394.56	226.45
394.94	226.48
395.31	226.50
395.69	226.58
396.06	226.61
396.44	226.67
396.82	226.77
397.19	226.83
397.57	226.84
397.95	226.90
398.32	226.91
398.70	226.99
399.07	227.10
399.45	227.16
399.82	227.25
400.20	227.30
400.58	227.39
400.95	227.41
401.33	227.52
401.70	227.67
402.08	227.77
402.45	227.92
402.83	228.04
403.20	228.14
403.58	228.26
403.95	228.40
404.33	228.53
404.71	228.63
405.08	228.83
405.46	228.99
405.83	229.16
406.21	229.33
406.58	229.52
406.96	229.68
407.33	229.88
407.70	230.05
408.08	230.34
408.45	230.59
408.83	230.83
409.20	231.01
409.58	231.18
409.95	231.44
410.33	231.69
410.70	231.92
411.08	232.27
411.45	232.55
411.82	232.88
412.20	233.25
412.57	233.69
412.95	233.96
413.32	234.40
413.69	234.80
414.07	235.24
414.44	235.71
414.82	236.19
415.19	236.72
415.56	237.30
415.94	237.86
416.31	238.51
416.68	239.17
417.06	239.91
417.43	240.63
417.81	241.42
418.18	242.24
418.55	243.11
418.93	243.98
419.30	244.89
419.67	245.81
420.04	246.78
420.42	247.76
420.79	248.98
421.16	250.13
421.54	251.31
421.91	252.53
422.28	253.74
422.66	255.11
423.03	256.43
423.40	257.76
423.77	259.15
424.15	260.59
424.52	262.04
424.89	263.65
425.26	265.19
425.64	266.65
426.01	268.23
426.38	269.87
426.75	271.51
427.13	273.28
427.50	275.09
427.87	276.94
428.24	278.81
428.61	280.55
428.99	282.46
429.36	284.54
429.73	286.64
430.10	288.67
430.47	290.67
430.85	292.82
431.22	295.09
431.59	297.46
431.96	299.65
432.33	302.19
432.70	304.53
433.08	307.35
433.45	309.96
433.82	312.58
434.19	315.50
434.56	318.34
434.93	320.96
435.30	323.57
435.68	326.47
436.05	329.32
436.42	332.10
436.79	334.62
437.16	337.31
437.53	340.13
437.90	342.96
438.27	345.72
438.64	348.48
439.01	351.04
439.38	353.29
439.75	355.45
440.13	357.91
440.50	360.28
440.87	362.10
441.24	364.08
441.61	366.27
441.98	367.75
442.35	369.55
442.72	371.41
443.09	373.23
443.46	374.21
443.83	374.77
444.20	375.26
444.57	376.08
444.94	376.42
445.31	376.75
445.68	377.10
446.05	377.16
446.42	376.80
446.79	376.38
447.16	375.90
447.53	375.59
447.90	374.42
448.27	373.25
448.64	371.64
449.01	370.47
449.37	368.46
449.74	366.55
450.11	364.26
450.48	361.77
450.85	359.21
451.22	357.03
451.59	354.99
451.96	353.05
452.33	350.44
452.70	348.03
453.07	345.15
453.43	342.27
453.80	339.52
454.17	336.88
454.54	334.31
454.91	331.63
455.28	328.96
455.65	326.49
456.02	324.06
456.38	321.91
456.75	319.23
457.12	316.96
457.49	314.75
457.86	312.57
458.23	310.72
458.59	308.74
458.96	306.67
459.33	304.82
459.70	302.97
460.07	301.46
460.43	299.79
460.80	298.18
461.17	296.73
461.54	295.24
461.91	293.78
462.27	292.37
462.64	291.12
463.01	289.74
463.38	288.42
463.74	287.03
464.11	285.88
464.48	284.86
464.85	283.75
465.21	282.87
465.58	281.95
465.95	280.82
466.32	279.87
466.68	279.02
467.05	278.11
467.42	277.20
467.78	276.27
468.15	275.36
468.52	274.68
468.88	273.84
469.25	273.06
469.62	272.45
469.98	271.74
470.35	271.08
470.72	270.51
471.08	269.88
471.45	269.35
471.82	268.80
472.18	268.19
472.55	267.75
472.92	267.20
473.28	266.74
473.65	266.30
474.02	265.86
474.38	265.45
474.75	265.15
475.11	264.83
475.48	264.53
475.85	264.29
476.21	264.04
476.58	263.81
476.94	263.62
477.31	263.43
477.67	263.28
478.04	263.19
478.41	263.10
478.77	263.12
479.14	263.02
479.50	263.02
479.87	263.08
480.23	263.15
480.60	263.21
480.96	263.29
481.33	263.48
481.69	263.64
482.06	263.82
482.42	263.99
482.79	264.20
483.15	264.53
483.52	264.90
483.88	265.26
484.25	265.62
484.61	266.05
484.98	266.49
485.34	267.04
485.71	267.58
486.07	268.17
486.44	268.72
486.80	269.41
487.17	270.13
487.53	270.92
487.90	271.73
488.26	272.64
488.62	273.59
488.99	274.51
489.35	275.54
489.72	276.62
490.08	277.80
490.44	279.02
490.81	280.31
491.17	281.66
491.54	283.14
491.90	284.67
492.26	286.26
492.63	287.98
492.99	289.71
493.36	291.61
493.72	293.61
494.08	295.70
494.45	297.92
494.81	300.26
495.17	302.64
495.54	305.22
495.90	307.88
496.26	310.69
496.63	313.68
496.99	316.81
497.35	320.05
497.72	323.47
498.08	326.96
498.44	330.60
498.80	334.49
499.17	338.47
499.53	342.59
499.89	346.93
500.26	351.38
500.62	356.05
500.98	360.98
501.34	366.01
501.71	371.33
502.07	376.71
502.43	382.29
502.79	388.12
503.16	394.14
503.52	400.42
503.88	406.70
504.24	413.32
504.60	420.18
504.97	427.29
505.33	434.63
505.69	442.29
506.05	450.05
506.41	457.90
506.78	466.05
507.14	474.55
507.50	483.30
507.86	492.35
508.22	501.50
508.59	510.68
508.95	520.26
509.31	530.01
509.67	540.09
510.03	550.40
510.39	560.94
510.75	571.71
511.12	582.62
511.48	593.96
511.84	605.42
512.20	616.95
512.56	628.94
512.92	641.04
513.28	653.36
513.64	665.85
514.00	678.51
514.37	691.37
514.73	704.36
515.09	717.45
515.45	730.69
515.81	744.21
516.17	758.21
516.53	772.38
516.89	786.56
517.25	800.77
517.61	815.17
517.97	829.63
518.33	844.13
518.69	858.98
519.05	874.06
519.41	889.18
519.77	904.73
520.13	920.21
520.49	935.65
520.85	951.15
521.21	966.88
521.57	983.17
521.93	999.02
522.29	1015.51
522.65	1031.71
523.01	1047.98
523.37	1064.12
523.73	1080.30
524.09	1096.41
524.45	1112.82
524.81	1129.61
525.17	1146.52
525.53	1163.53
525.89	1180.38
526.25	1197.19
526.61	1213.67
526.97	1230.54
527.33	1247.06
527.68	1263.65
528.04	1280.11
528.40	1296.84
528.76	1313.97
529.12	1330.64
529.48	1347.69
529.84	1363.80
530.20	1380.72
530.56	1397.94
530.91	1415.45
531.27	1432.37
531.63	1448.93
531.99	1465.59
532.35	1481.56
532.71	1497.50
533.07	1513.90
533.42	1529.92
533.78	1546.15
534.14	1562.42
534.50	1577.78
534.86	1593.82
535.21	1609.03
535.57	1625.17
535.93	1640.72
536.29	1655.65
536.65	1670.80
537.00	1685.55
537.36	1700.89
537.72	1715.34
538.08	1729.74
538.44	1743.71
538.79	1757.62
539.15	1771.45
539.51	1785.33
539.87	1799.74
540.22	1813.51
540.58	1827.19
540.94	1840.65
541.29	1853.64
541.65	1866.48
542.01	1879.85
542.37	1892.08
542.72	1904.72
543.08	1916.48
543.44	1928.90
543.79	1940.02
544.15	1950.97
544.51	1962.60
544.87	1973.53
545.22	1984.32
545.58	1994.59
545.94	2004.23
546.29	2014.17
546.65	2023.90
547.01	2033.09
547.36	2041.83
547.72	2050.38
548.07	2058.28
548.43	2066.42
548.79	2074.46
549.14	2081.90
549.50	2089.18
549.86	2096.97
550.21	2104.14
550.57	2111.49
550.92	2118.08
551.28	2125.17
551.64	2132.28
551.99	2138.95
552.35	2145.09
552.70	2151.25
553.06	2157.10
553.41	2163.47
553.77	2169.41
554.13	2175.57
554.48	2181.68
554.84	2187.06
555.19	2192.36
555.55	2197.47
555.90	2201.88
556.26	2206.56
556.61	2211.11
556.97	2215.19
557.32	2219.28
557.68	2223.42
558.03	2227.39
558.39	2230.95
558.74	2235.56
559.10	2239.35
559.45	2242.85
559.81	2247.29
560.16	2251.01
560.52	2254.16
560.87	2257.51
561.23	2260.06
561.58	2262.86
561.94	2265.20
562.29	2267.63
562.64	2270.13
563.00	2272.86
563.35	2276.34
563.71	2279.38
564.06	2282.64
564.42	2285.51
564.77	2287.83
565.12	2289.98
565.48	2291.69
565.83	2293.37
566.19	2294.60
566.54	2295.39
566.89	2296.29
567.25	2296.62
567.60	2297.88
567.96	2299.31
568.31	2299.99
568.66	2300.85
569.02	2301.24
569.37	2301.49
569.72	2302.08
570.08	2301.99
570.43	2301.60
570.78	2300.59
571.14	2298.93
571.49	2297.55
571.84	2296.96
572.20	2295.57
572.55	2294.19
572.90	2292.58
573.26	2291.06
573.61	2289.11
573.96	2287.13
574.31	2284.19
574.67	2280.90
575.02	2277.06
575.37	2273.56
575.72	2269.50
576.08	2266.09
576.43	2262.67
576.78	2258.77
577.13	2255.26
577.49	2252.07
577.84	2248.46
578.19	2244.67
578.54	2240.71
578.90	2236.19
579.25	2230.54
579.60	2225.41
579.95	2220.34
580.30	2215.18
580.66	2209.80
581.01	2204.70
581.36	2199.50
581.71	2194.89
582.06	2190.29
582.42	2185.47
582.77	2180.23
583.12	2175.51
583.47	2170.59
583.82	2165.34
584.17	2159.82
584.53	2154.20
584.88	2148.30
585.23	2142.33
585.58	2136.78
585.93	2131.18
586.28	2126.33
586.63	2121.14
586.98	2115.91
587.34	2111.10
587.69	2105.96
588.04	2100.53
588.39	2094.66
588.74	2088.25
589.09	2082.06
589.44	2075.09
589.79	2069.19
590.14	2063.45
590.49	2056.76
590.84	2050.16
591.19	2043.98
591.54	2037.49
591.89	2030.03
592.25	2023.10
592.60	2015.85
592.95	2008.18
593.30	2000.74
593.65	1992.92
594.00	1985.67
594.35	1978.39
594.70	1970.19
595.05	1962.85
595.40	1955.55
595.75	1948.08
596.10	1941.68
596.45	1934.85
596.80	1928.67
597.15	1921.79
597.50	1914.54
597.85	1908.15
598.19	1901.44
598.54	1894.30
598.89	1887.58
599.24	1881.58
599.59	1874.86
599.94	1868.58
600.29	1862.20
600.64	1855.54
600.99	1848.01
601.34	1841.22
601.69	1834.29
602.04	1827.46
602.39	1820.16
602.74	1813.36
603.08	1806.51
603.43	1799.83
603.78	1792.49
604.13	1785.12
604.48	1777.78
604.83	1770.82
605.18	1763.72
605.53	1755.74
605.87	1747.70
606.22	1740.56
606.57	1732.80
606.92	1725.55
607.27	1718.34
607.62	1711.29
607.96	1704.09
608.31	1697.61
608.66	1690.03
609.01	1682.57
609.36	1675.02
609.70	1667.05
610.05	1658.92
610.40	1651.37
610.75	1643.05
611.10	1635.46
611.44	1627.22
611.79	1619.41
612.14	1610.87
612.49	1601.91
612.83	1593.66
613.18	1585.63
613.53	1577.55
613.88	1569.04
614.22	1560.82
614.57	1552.22
614.92	1544.30
615.27	1536.78
615.61	1528.42
615.96	1520.45
616.31	1512.78
616.65	1505.47
617.00	1497.97
617.35	1490.41
617.70	1481.99
618.04	1473.49
618.39	1465.27
618.74	1457.81
619.08	1449.52
619.43	1441.93
619.78	1434.98
620.12	1427.83
620.47	1420.41
620.82	1412.34
621.16	1404.90
621.51	1397.39
621.85	1390.00
622.20	1381.57
622.55	1373.31
622.89	1365.59
623.24	1357.98
623.59	1350.67
623.93	1343.09
624.28	1335.93
624.62	1328.48
624.97	1321.42
625.32	1314.82
625.66	1307.90
626.01	1300.63
626.35	1293.26
626.70	1285.61
627.04	1277.96
627.39	1270.33
627.73	1262.97
628.08	1256.05
628.43	1248.85
628.77	1241.50
629.12	1233.86
629.46	1226.73
629.81	1219.38
630.15	1212.23
630.50	1204.92
630.84	1196.68
631.19	1188.97
631.53	1181.55
631.88	1174.08
632.22	1166.55
632.57	1159.28
632.91	1151.88
633.26	1144.60
633.60	1137.27
633.95	1130.26
634.29	1123.29
634.64	1116.57
634.98	1109.24
635.32	1102.25
635.67	1095.69
636.01	1089.15
636.36	1082.45
636.70	1076.07
637.05	1069.54
637.39	1063.09
637.73	1056.71
638.08	1050.94
638.42	1045.00
638.77	1038.57
639.11	1031.99
639.45	1025.70
639.80	1019.05
640.14	1012.59
640.49	1006.18
640.83	999.98
641.17	993.77
641.52	987.50
641.86	981.25
642.20	975.57
642.55	969.33
642.89	962.88
643.23	956.46
643.58	950.77
643.92	944.61
644.26	938.59
644.61	932.64
644.95	926.58
645.29	920.12
645.64	913.41
645.98	907.10
646.32	901.44
646.66	895.42
647.01	889.68
647.35	884.02
647.69	878.20
648.04	872.80
648.38	867.21
648.72	861.26
649.06	855.17
649.41	849.25
649.75	843.24
650.09	837.39
650.43	831.51
650.78	825.37
651.12	819.44
651.46	813.82
651.80	808.03
652.14	802.72
652.49	797.37
652.83	792.21
653.17	786.55
653.51	780.72
653.85	775.40
654.20	769.81
654.54	763.90
654.88	758.26
655.22	752.36
655.56	746.55
655.90	741.18
656.25	735.99
656.59	730.67
656.93	725.60
657.27	720.48
657.61	715.16
657.95	710.14
658.29	705.13
658.64	699.90
658.98	694.69
659.32	689.22
659.66	684.00
660.00	678.73
660.34	673.92
660.68	669.15
661.02	664.18
661.36	659.50
661.70	655.08
662.05	650.75
662.39	646.40
662.73	642.03
663.07	637.62
663.41	633.16
663.75	628.64
664.09	624.16
664.43	619.80
664.77	615.73
665.11	611.47
665.45	607.43
665.79	603.35
666.13	599.30
666.47	595.25
666.81	591.16
667.15	587.09
667.49	583.18
667.83	579.44
668.17	575.53
668.51	571.51
668.85	567.47
669.19	563.63
669.53	559.84
669.87	556.00
670.21	552.39
670.55	548.81
670.89	545.51
671.23	542.10
671.57	538.61
671.91	535.09
672.25	531.65
672.58	528.07
672.92	524.70
673.26	521.54
673.60	518.44
673.94	515.38
674.28	512.47
674.62	509.61
674.96	506.44
675.30	503.49
675.64	500.62
675.97	497.91
676.31	495.06
676.65	492.13
676.99	489.44
677.33	486.58
677.67	483.73
678.01	480.70
678.34	477.72
678.68	474.90
679.02	472.07
679.36	469.41
679.70	466.78
680.04	464.07
680.37	461.21
680.71	458.44
681.05	455.85
681.39	453.24
681.73	450.60
682.06	448.14
682.40	445.66
682.74	443.12
683.08	440.61
683.42	438.03
683.75	435.60
684.09	433.09
684.43	430.65
684.77	428.25
685.10	426.02
685.44	423.80
685.78	421.54
686.12	419.39
686.45	417.10
686.79	414.81
687.13	412.68
687.46	410.58
687.80	408.49
688.14	406.34
688.48	404.27
688.81	401.98
689.15	399.86
689.49	397.75
689.82	395.76
690.16	393.69
690.50	391.79
690.83	389.90
691.17	388.00
691.51	386.13
691.84	384.39
692.18	382.41
692.52	380.41
692.85	378.49
693.19	376.64
693.52	374.83
693.86	373.05
694.20	371.28
694.53	369.49
694.87	367.63
695.21	365.84
695.54	364.10
695.88	362.47
696.21	360.77
696.55	359.12
696.88	357.43
697.22	355.79
697.56	354.17
697.89	352.51
698.23	350.88
698.56	349.29
698.90	347.67
699.23	346.04
699.57	344.51
699.90	342.98
700.24	341.38
700.58	339.86
700.91	338.35
701.25	336.91
701.58	335.54
701.92	334.22
702.25	332.83
702.59	331.41
702.92	330.06
703.26	328.77
703.59	327.49
703.93	326.33
704.26	325.08
704.60	323.79
704.93	322.50
705.26	321.20
705.60	320.04
705.93	318.92
706.27	317.90
706.60	316.86
706.94	315.81
707.27	314.73
707.61	313.66
707.94	312.64
708.27	311.54
708.61	310.49
708.94	309.46
709.28	308.49
709.61	307.53
709.94	306.61
710.28	305.58
710.61	304.59
710.95	303.52
711.28	302.60
711.61	301.64
711.95	300.75
712.28	299.81
712.61	298.83
712.95	297.88
713.28	296.99
713.61	296.08
713.95	295.18
714.28	294.33
714.61	293.45
714.95	292.62
715.28	291.80
715.61	290.95
715.95	290.14
716.28	289.28
716.61	288.47
716.95	287.66
717.28	286.92
717.61	286.14
717.94	285.41
718.28	284.64
718.61	283.99
718.94	283.29
719.27	282.67
719.61	282.06
719.94	281.40
720.27	280.72
720.60	280.09
720.94	279.46
721.27	278.91
721.60	278.39
721.93	277.79
722.27	277.22
722.60	276.65
722.93	276.04
723.26	275.56
723.59	275.01
723.93	274.48
724.26	273.95
724.59	273.46
724.92	272.93
725.25	272.49
725.59	271.93
725.92	271.46
726.25	270.98
726.58	270.48
726.91	269.99
727.24	269.52
727.57	269.07
727.91	268.56
728.24	268.09
728.57	267.62
728.90	267.21
729.23	266.73
729.56	266.32
729.89	265.91
730.22	265.40
730.55	264.94
730.89	264.47
731.22	264.05
731.55	263.60
731.88	263.17
732.21	262.72
732.54	262.31
732.87	261.85
733.20	261.42
733.53	261.05
733.86	260.68
734.19	260.31
734.52	259.92
734.85	259.67
735.18	259.28
735.51	258.92
735.84	258.49
736.17	258.14
736.50	257.76
736.83	257.48
737.16	257.18
737.49	256.89
737.82	256.53
738.15	256.19
738.48	255.83
738.81	255.53
739.14	255.21
739.47	254.86
739.80	254.59
740.13	254.29
740.46	253.94
740.79	253.66
741.12	253.31
741.45	253.00
741.78	252.61
742.11	252.29
742.44	251.94
742.77	251.69
743.10	251.37
743.43	251.06
743.75	250.69
744.08	250.54
744.41	250.21
744.74	249.95
745.07	249.63
745.40	249.39
745.73	249.15
746.06	248.84
746.39	248.63
746.71	248.33
747.04	248.06
747.37	247.80
747.70	247.52
748.03	247.24
748.36	247.00
748.68	246.80
749.01	246.54
749.34	246.31
749.67	246.07
750.00	245.83
750.33	245.65
750.65	245.42
750.98	245.04
751.31	244.80
751.64	244.59
751.97	244.43
752.29	244.20
752.62	243.92
752.95	243.71
753.28	243.46
753.60	243.25
753.93	243.07
754.26	242.89
754.59	242.65
754.91	242.47
755.24	242.26
755.57	242.06
755.90	241.87
756.22	241.66
756.55	241.46
756.88	241.27
757.20	241.05
757.53	240.87
757.86	240.75
758.19	240.61
758.51	240.47
758.84	240.28
759.17	240.10
759.49	239.96
759.82	239.82
760.15	239.67
760.47	239.52
760.80	239.38
761.13	239.25
761.45	239.09
761.78	238.96
762.11	238.87
762.43	238.72
762.76	238.59
763.08	238.47
763.41	238.34
763.74	238.25
764.06	238.11
764.39	237.95
764.71	237.79
765.04	237.67
765.37	237.52
765.69	237.41
766.02	237.28
766.34	237.15
766.67	237.02
767.00	236.95
767.32	236.90
767.65	236.84
767.97	236.71
768.30	236.61
768.62	236.47
768.95	236.35
769.27	236.24
769.60	236.17
769.92	236.06
770.25	235.98
770.57	235.85
770.90	235.77
771.22	235.72
771.55	235.65
771.87	235.56
772.20	235.47
772.52	235.46
772.85	235.50
773.17	235.42
773.50	235.31
773.82	235.19
774.15	235.04
774.47	234.86
774.80	234.79
775.12	234.75
775.45	234.70
775.77	234.60
776.09	234.54
776.42	234.48
776.74	234.43
777.07	234.32
777.39	234.24
777.72	234.15
778.04	234.04
778.36	233.98
778.69	233.91
779.01	233.84
779.33	233.69
779.66	233.52
779.98	233.46
780.31	233.43
780.63	233.38
780.95	233.36
781.28	233.32
781.60	233.25
781.92	233.12
782.25	233.05
782.57	232.98
782.89	232.90
783.22	232.77
783.54	232.68
783.86	232.65
784.19	232.60
784.51	232.58
784.83	232.52
785.16	232.44
785.48	232.37
785.80	232.28
786.12	232.24
786.45	232.17
786.77	232.14
787.09	232.05
787.42	231.98
787.74	231.93
788.06	231.87
788.38	231.79
788.71	231.76
789.03	231.73
789.35	231.73
789.67	231.68
789.99	231.67
790.32	231.62
790.64	231.58
790.96	231.63
791.28	231.56
791.61	231.49
791.93	231.46
792.25	231.41
792.57	231.46
792.89	231.37
793.21	231.37
793.54	231.29
793.86	231.26
794.18	231.24
794.50	231.18
794.82	231.16
795.14	231.14
795.47	231.12
795.79	231.08
796.11	230.97
796.43	230.94
796.75	230.92
797.07	230.88
797.39	230.85
797.71	230.69
798.04	230.65
798.36	230.66
798.68	230.62
799.00	230.62
799.32	230.54
799.64	230.56
799.96	230.48
800.28	230.47
800.60	230.42
800.92	230.39
801.24	230.35
801.56	230.31
801.89	230.27
802.21	230.26
802.53	230.20
802.85	230.23
803.17	230.22
803.49	230.17
803.81	230.14
804.13	230.11
804.45	230.12
804.77	230.10
805.09	230.09
805.41	230.06
805.73	230.02
806.05	229.98
806.37	229.93
806.69	229.92
807.01	229.91
807.33	229.90
807.65	229.86
807.97	229.89
808.28	229.85
808.60	229.86
808.92	229.83
809.24	229.90
809.56	229.89
809.88	229.88
810.20	229.86
810.52	229.89
810.84	229.87
811.16	229.84
811.48	229.81
811.80	229.81
812.12	229.78
812.43	229.79
812.75	229.80
813.07	229.79
813.39	229.81
813.71	229.76
814.03	229.74
814.35	229.71
814.67	229.64
814.98	229.63
815.30	229.60
815.62	229.55
815.94	229.44
816.26	229.44
816.58	229.38
816.89	229.34
817.21	229.28
817.53	229.29
817.85	229.29
818.17	229.27
818.48	229.19
818.80	229.20
819.12	229.13
819.44	229.06
819.76	229.04
820.07	229.02
820.39	228.99
820.71	228.99
821.03	228.98
821.34	228.95
821.66	228.94
821.98	228.95
822.30	228.93
822.61	229.02
822.93	228.96
823.25	228.93
823.57	228.92
823.88	228.92
824.20	228.87
824.52	228.86
824.83	228.82
825.15	228.78
825.47	228.75
825.79	228.76
826.10	228.73
826.42	228.73
826.74	228.70
827.05	228.70
827.37	228.68
827.69	228.66
828.00	228.64
828.32	228.62
828.64	228.58
828.95	228.63
829.27	228.54
829.58	228.51
829.90	228.50
830.22	228.46
830.53	228.43
830.85	228.39
831.17	228.35
831.48	228.34
831.80	228.34
832.11	228.34
832.43	228.33
832.75	228.33
833.06	228.35
833.38	228.31
833.69	228.31
834.01	228.30
834.32	228.26
834.64	228.27
834.96	228.27
835.27	228.27
835.59	228.19
835.90	228.20
836.22	228.23
836.53	228.20
836.85	228.23
837.16	228.33
837.48	228.32
837.79	228.36
838.11	228.38
838.42	228.41
838.74	228.41
839.05	228.41
839.37	228.39
839.68	228.33
840.00	228.32
840.31	228.35
840.63	228.37
840.94	228.37
841.26	228.34
841.57	228.34
841.88	228.32
842.20	228.32
842.51	228.28
842.83	228.26
843.14	228.35
843.46	228.35
843.77	228.30
844.08	228.30
844.40	228.26
844.71	228.22
845.03	228.21
845.34	228.21
845.65	228.21
845.97	228.24
846.28	228.25
846.60	228.25
846.91	228.19
847.22	228.17
847.54	228.19
847.85	228.20
848.16	228.17
848.48	228.14
848.79	228.19
849.10	228.20
849.42	228.18
849.73	228.10
850.04	228.07
850.36	228.06
850.67	228.09
850.98	228.09
851.30	228.11
851.61	228.13
851.92	228.14
852.23	228.14
852.55	228.14
852.86	228.14
853.17	228.16
853.49	228.18
853.80	228.19
854.11	228.22
854.42	228.25
854.74	228.25
855.05	228.26
855.36	228.21
855.67	228.21
855.99	228.23
856.30	228.34
856.61	228.35
856.92	228.34
857.23	228.34
857.55	228.33
857.86	228.30
858.17	228.30
858.48	228.25
858.79	228.23
859.11	228.24
859.42	228.20
859.73	228.16
860.04	228.18
860.35	228.16
860.66	228.09
860.98	228.08
861.29	228.09
861.60	228.07
861.91	228.08
862.22	228.07
862.53	228.03
862.84	227.91
863.16	227.92
863.47	227.89
863.78	227.85
864.09	227.83
864.40	227.82
864.71	227.79
865.02	227.80
865.33	227.80
865.64	227.76
865.95	227.75
866.27	227.85
866.58	227.81
866.89	227.81
867.20	227.81
867.51	227.79
867.82	227.79
868.13	227.83
868.44	227.82
868.75	227.85
869.06	227.83
869.37	227.83
869.68	227.79
869.99	227.82
870.30	227.82
870.61	227.83
870.92	227.83
871.23	227.80
871.54	227.80
871.85	227.82
872.16	227.79
872.47	227.80
872.78	227.69
873.09	227.69
873.40	227.64
873.71	227.63
874.02	227.61
874.33	227.60
874.64	227.54
874.95	227.54
875.26	227.52
875.56	227.54
875.87	227.57
876.18	227.56
876.49	227.65
876.80	227.65
877.11	227.63
877.42	227.60
877.73	227.61
878.04	227.61
878.35	227.60
878.66	227.63
878.96	227.62
879.27	227.64
879.58	227.68
879.89	227.68
880.20	227.72
880.51	227.73
880.82	227.74
881.12	227.79
881.43	227.77
881.74	227.78
882.05	227.75
882.36	227.73
882.67	227.74
882.97	227.63
883.28	227.61
883.59	227.62
883.90	227.66
884.21	227.71
884.51	227.71
884.82	227.71
885.13	227.73
885.44	227.75
885.74	227.74
886.05	227.71
886.36	227.73
886.67	227.71
886.98	227.78
887.28	227.80
887.59	227.78
887.90	227.81
888.20	227.79
888.51	227.82
888.82	227.82
889.13	227.85
889.43	227.95
889.74	227.98
890.05	227.97
890.35	227.97
890.66	227.94
890.97	227.93
891.28	227.92
891.58	227.91
891.89	227.92
892.20	227.91
892.50	227.90
892.81	227.88
893.12	227.88
893.42	227.80
893.73	227.82
894.04	227.82
894.34	227.82
894.65	227.84
894.95	227.83
895.26	227.82
895.57	227.86
895.87	227.79
896.18	227.79
896.48	227.81
896.79	227.82
897.10	227.83
897.40	227.82
897.71	227.81
898.01	227.81
898.32	227.80
898.63	227.79
898.93	227.80
899.24	227.81
899.54	227.78
899.85	227.81
900.15	227.75
900.46	227.75
900.76	227.74
901.07	227.70
901.38	227.71
901.68	227.71
901.99	227.62
902.29	227.58
902.60	227.57
902.90	227.53
903.21	227.53
903.51	227.50
903.82	227.50
904.12	227.48
904.43	227.45
904.73	227.45
905.03	227.47
905.34	227.56
905.64	227.56
905.95	227.56
906.25	227.54
906.56	227.56
906.86	227.59
907.17	227.56
907.47	227.56
907.77	227.54
908.08	227.52
908.38	227.51
908.69	227.51
908.99	227.51
909.30	227.51
909.60	227.49
909.90	227.51
910.21	227.51
910.51	227.49
910.81	227.50
911.12	227.46
911.42	227.45
911.73	227.34
912.03	227.37
912.33	227.38
912.64	227.39
912.94	227.37
913.24	227.29
913.55	227.27
913.85	227.26
914.15	227.27
914.46	227.27
914.76	227.30
915.06	227.30
915.37	227.29
915.67	227.31
915.97	227.31
916.27	227.27
916.58	227.24
916.88	227.27
917.18	227.29
917.49	227.37
917.79	227.37
918.09	227.41
918.39	227.40
918.70	227.39
919.00	227.38
919.30	227.42
919.60	227.45
919.91	227.47
920.21	227.49
920.51	227.48
920.81	227.48
921.12	227.49
921.42	227.48
921.72	227.49
922.02	227.51
922.32	227.54
922.63	227.55
922.93	227.64
923.23	227.65
923.53	227.62
923.83	227.59
924.13	227.61
924.44	227.61
924.74	227.64
925.04	227.67
925.34	227.69
925.64	227.67
925.94	227.65
926.24	227.72
926.55	227.68
926.85	227.70
927.15	227.71
927.45	227.69
927.75	227.68
928.05	227.64
928.35	227.64
928.65	227.64
928.95	227.66
929.26	227.60
929.56	227.61
929.86	227.62
930.16	227.59
930.46	227.57
930.76	227.54
931.06	227.49
931.36	227.45
931.66	227.45
931.96	227.48
932.26	227.46
932.56	227.41
932.86	227.45
933.16	227.45
933.46	227.46
933.76	227.46
934.06	227.49
934.36	227.55
934.66	227.56
934.96	227.56
935.26	227.55
935.56	227.56
935.86	227.54
936.16	227.54
936.46	227.55
936.76	227.56
937.06	227.55
937.36	227.56
937.66	227.56
937.96	227.55
938.26	227.51
938.56	227.55
938.86	227.53
939.16	227.53
939.46	227.53
939.76	227.51
940.06	227.49
940.35	227.46
940.65	227.39
940.95	227.33
941.25	227.30
941.55	227.27
941.85	227.27
942.15	227.26
942.45	227.26
942.75	227.23
943.04	227.22
943.34	227.24
943.64	227.22
943.94	227.24
944.24	227.22
944.54	227.20
944.84	227.19
945.13	227.18
945.43	227.15
945.73	227.15
946.03	227.16
946.33	227.17
946.62	227.19
946.92	227.20
947.22	227.22
947.52	227.22
947.82	227.25
948.11	227.23
948.41	227.22
948.71	227.21
949.01	227.20
949.31	227.22
949.60	227.19
949.90	227.21
950.20	227.21
950.50	227.21
950.79	227.20
951.09	227.20
951.39	227.17
951.69	227.20
951.98	227.19
952.28	227.18
952.58	227.16
952.87	227.14
953.17	227.15
953.47	227.18
953.76	227.14
954.06	227.13
954.36	227.13
954.66	227.13
954.95	227.14
955.25	227.17
955.55	227.14
955.84	227.16
956.14	227.15
956.44	227.13
956.73	227.09
957.03	227.14
957.32	227.12
957.62	227.18
957.92	227.17
958.21	227.20
958.51	227.29
958.81	227.29
959.10	227.29
959.40	227.31
959.69	227.28
959.99	227.33
960.29	227.31
960.58	227.32
960.88	227.34
961.17	227.33
961.47	227.36
961.76	227.38
962.06	227.37
962.36	227.34
962.65	227.35
962.95	227.39
963.24	227.35
963.54	227.38
963.83	227.35
964.13	227.38
964.42	227.35
964.72	227.29
965.01	227.32
965.31	227.36
965.60	227.36
965.90	227.43
966.19	227.38
966.49	227.41
966.78	227.39
967.08	227.39
967.37	227.40
967.67	227.36
967.96	227.39
968.26	227.40
968.55	227.45
968.85	227.44
969.14	227.44
969.43	227.45
969.73	227.45
970.02	227.42
970.32	227.40
970.61	227.41
970.91	227.36
971.20	227.32
971.49	227.27
971.79	227.26
972.08	227.19
972.38	227.23
972.67	227.20
972.96	227.21
973.26	227.19
973.55	227.21
973.85	227.18
974.14	227.19
974.43	227.19
974.73	227.16
975.02	227.16
975.31	227.15
975.61	227.14
975.90	227.14
976.19	227.14
976.49	227.17
976.78	227.16
977.07	227.18
977.37	227.21
977.66	227.22
977.95	227.18
978.24	227.22
978.54	227.22
978.83	227.20
979.12	227.19
979.42	227.19
979.71	227.20
980.00	227.20
980.29	227.21
980.59	227.17
980.88	227.18
981.17	227.18
981.46	227.20
981.76	227.18
982.05	227.23
982.34	227.26
982.63	227.24
982.93	227.24
983.22	227.29
983.51	227.26
983.80	227.28
984.09	227.28
984.39	227.24
984.68	227.21
984.97	227.25
985.26	227.25
985.55	227.24
985.85	227.21
986.14	227.24
986.43	227.19
986.72	227.20
987.01	227.17
987.30	227.20
987.59	227.15
987.89	227.15
988.18	227.14
988.47	227.13
988.76	227.13
989.05	227.13
989.34	227.06
989.63	227.10
989.92	227.08
990.22	227.08
990.51	227.10
990.80	227.09
991.09	227.07
991.38	227.11
991.67	227.13
991.96	227.13
992.25	227.16
992.54	227.16
992.83	227.18
993.12	227.17
993.41	227.13
993.70	227.19
993.99	227.21
994.28	227.16
994.58	227.17
994.87	227.16
995.16	227.15
995.45	227.16
995.74	227.15
996.03	227.16
996.32	227.20
996.61	227.23
996.90	227.23
997.19	227.25
997.48	227.26
997.77	227.22
998.06	227.26
998.34	227.26
998.63	227.27
998.92	227.27
999.21	227.32
999.50	227.35
999.79	227.30
1000.08	227.30
1000.37	227.33
1000.66	227.31
1000.95	227.36
1001.24	227.33
1001.53	227.35
1001.82	227.35
1002.11	227.33
1002.40	227.34
1002.68	227.35
1002.97	227.42
1003.26	227.40
1003.55	227.37
1003.84	227.41
1004.13	227.39
1004.42	227.35
1004.71	227.32
1004.99	227.30
1005.28	227.27
1005.57	227.29
1005.86	227.29
1006.15	227.27
1006.44	227.24
1006.72	227.22
1007.01	227.22
1007.30	227.24
1007.59	227.23
1007.88	227.21
1008.17	227.23
1008.45	227.21
1008.74	227.17
1009.03	227.13
1009.32	227.12
1009.60	227.12
1009.89	227.13
1010.18	227.07
1010.47	227.06
1010.76	227.07
1011.04	227.07
1011.33	227.10
1011.62	227.11
1011.91	227.13
1012.19	227.12
1012.48	227.16
1012.77	227.20
1013.05	227.22
1013.34	227.24
1013.63	227.23
1013.92	227.23
1014.20	227.23
1014.49	227.23
1014.78	227.22
1015.06	227.19
1015.35	227.18
1015.64	227.18
1015.92	227.19
1016.21	227.20
1016.50	227.21
1016.78	227.25
1017.07	227.26
1017.36	227.22
1017.64	227.20
1017.93	227.21
1018.22	227.25
1018.50	227.22
1018.79	227.18
1019.08	227.13
1019.36	227.12
1019.65	227.12
1019.93	227.18
1020.22	227.20
1020.51	227.27
1020.79	227.29
1021.08	227.60
1021.36	226.84
1021.65	226.82
1021.94	227.28
1022.22	227.14
1022.51	227.20
1022.79	227.95
1023.08	227.50
1023.36	228.80
1023.65	227.19
>>>>>End Processed Spectral Data<<<<<
