SpectraSuite Data File
++++++++++++++++++++++++++++++++++++
Date: Fri Feb 01 15:53:00 EST 2013
User: group
Dark Spectrum Present: No
Reference Spectrum Present: No
Number of Sampled Component Spectra: 1
Spectrometers: USB2E7196
Integration Time (usec): 35000 (USB2E7196)
Spectra Averaged: 100 (USB2E7196)
Boxcar Smoothing: 10 (USB2E7196)
Correct for Electrical Dark: No (USB2E7196)
Strobe/Lamp Enabled: No (USB2E7196)
Correct for Detector Non-linearity: No (USB2E7196)
Correct for Stray Light: No (USB2E7196)
Number of Pixels in Processed Spectrum: 2048
>>>>>Begin Processed Spectral Data<<<<<
339.09	0.00
339.48	215.40
339.86	216.83
340.24	217.47
340.63	218.74
341.01	221.82
341.39	222.06
341.78	223.71
342.16	224.14
342.54	225.11
342.93	213.26
343.31	224.07
343.69	224.58
344.07	225.02
344.46	225.47
344.84	225.88
345.22	226.11
345.60	226.36
345.99	226.51
346.37	226.67
346.75	226.74
347.13	226.80
347.52	226.87
347.90	226.94
348.28	226.93
348.66	226.96
349.05	226.96
349.43	226.98
349.81	227.00
350.19	227.06
350.57	227.10
350.96	227.12
351.34	227.15
351.72	227.22
352.10	227.30
352.48	227.37
352.87	227.41
353.25	227.49
353.63	227.50
354.01	227.57
354.39	227.59
354.77	227.67
355.15	227.81
355.54	227.87
355.92	227.88
356.30	227.97
356.68	228.06
357.06	228.16
357.44	228.20
357.82	228.28
358.20	228.35
358.58	228.37
358.97	228.47
359.35	228.53
359.73	228.61
360.11	228.63
360.49	228.68
360.87	228.75
361.25	228.78
361.63	228.87
362.01	228.91
362.39	228.95
362.77	228.99
363.15	228.98
363.53	229.01
363.91	229.05
364.29	229.06
364.67	228.99
365.05	228.98
365.43	229.02
365.81	229.01
366.19	229.06
366.57	229.13
366.95	229.13
367.33	229.13
367.71	229.11
368.09	229.15
368.47	229.11
368.85	229.04
369.23	229.02
369.61	228.95
369.99	228.95
370.37	228.95
370.75	229.00
371.13	228.96
371.51	228.92
371.89	228.88
372.27	228.85
372.65	228.82
373.03	228.78
373.41	228.70
373.78	228.64
374.16	228.54
374.54	228.47
374.92	228.38
375.30	228.30
375.68	228.24
376.06	228.17
376.44	228.09
376.82	228.05
377.19	227.99
377.57	227.92
377.95	227.81
378.33	227.74
378.71	227.57
379.09	227.50
379.47	227.43
379.84	227.37
380.22	227.33
380.60	227.25
380.98	227.16
381.36	227.11
381.73	227.02
382.11	226.98
382.49	226.90
382.87	226.83
383.25	226.78
383.62	226.82
384.00	226.71
384.38	226.68
384.76	226.65
385.13	226.63
385.51	226.61
385.89	226.57
386.27	226.52
386.64	226.50
387.02	226.47
387.40	226.45
387.78	226.37
388.15	226.31
388.53	226.28
388.91	226.28
389.29	226.24
389.66	226.26
390.04	226.22
390.42	226.24
390.79	226.23
391.17	226.21
391.55	226.07
391.92	226.09
392.30	226.09
392.68	226.06
393.05	226.04
393.43	226.04
393.81	226.06
394.18	226.06
394.56	226.05
394.94	226.07
395.31	226.03
395.69	226.09
396.06	226.15
396.44	226.21
396.82	226.20
397.19	226.31
397.57	226.31
397.95	226.39
398.32	226.39
398.70	226.48
399.07	226.59
399.45	226.66
399.82	226.73
400.20	226.80
400.58	226.91
400.95	226.97
401.33	227.09
401.70	227.21
402.08	227.32
402.45	227.43
402.83	227.56
403.20	227.70
403.58	227.79
403.95	227.93
404.33	228.08
404.71	228.24
405.08	228.42
405.46	228.57
405.83	228.72
406.21	228.92
406.58	229.08
406.96	229.25
407.33	229.47
407.70	229.67
408.08	229.95
408.45	230.14
408.83	230.41
409.20	230.62
409.58	230.81
409.95	231.11
410.33	231.36
410.70	231.61
411.08	231.93
411.45	232.26
411.82	232.56
412.20	232.87
412.57	233.29
412.95	233.57
413.32	233.98
413.69	234.37
414.07	234.78
414.44	235.21
414.82	235.67
415.19	236.21
415.56	236.79
415.94	237.29
416.31	237.93
416.68	238.51
417.06	239.22
417.43	239.91
417.81	240.63
418.18	241.44
418.55	242.28
418.93	243.15
419.30	244.02
419.67	244.91
420.04	245.89
420.42	246.83
420.79	248.01
421.16	249.14
421.54	250.34
421.91	251.54
422.28	252.85
422.66	254.14
423.03	255.45
423.40	256.76
423.77	258.21
424.15	259.64
424.52	261.16
424.89	262.79
425.26	264.32
425.64	265.80
426.01	267.36
426.38	269.00
426.75	270.67
427.13	272.44
427.50	274.29
427.87	276.17
428.24	278.07
428.61	279.83
428.99	281.80
429.36	283.89
429.73	285.97
430.10	287.94
430.47	290.00
430.85	292.13
431.22	294.38
431.59	296.74
431.96	298.98
432.33	301.46
432.70	303.81
433.08	306.67
433.45	309.32
433.82	311.95
434.19	314.82
434.56	317.64
434.93	320.29
435.30	322.88
435.68	325.75
436.05	328.53
436.42	331.31
436.79	333.85
437.16	336.58
437.53	339.39
437.90	342.21
438.27	345.03
438.64	347.83
439.01	350.43
439.38	352.66
439.75	354.83
440.13	357.32
440.50	359.66
440.87	361.49
441.24	363.41
441.61	365.56
441.98	367.10
442.35	368.86
442.72	370.67
443.09	372.51
443.46	373.49
443.83	374.14
444.20	374.64
444.57	375.44
444.94	375.72
445.31	376.05
445.68	376.41
446.05	376.41
446.42	376.01
446.79	375.59
447.16	375.16
447.53	374.82
447.90	373.66
448.27	372.48
448.64	370.89
449.01	369.74
449.37	367.75
449.74	365.83
450.11	363.60
450.48	361.16
450.85	358.60
451.22	356.50
451.59	354.48
451.96	352.55
452.33	349.91
452.70	347.55
453.07	344.74
453.43	341.87
453.80	339.14
454.17	336.48
454.54	333.95
454.91	331.22
455.28	328.60
455.65	326.13
456.02	323.70
456.38	321.54
456.75	318.87
457.12	316.63
457.49	314.45
457.86	312.28
458.23	310.44
458.59	308.38
458.96	306.30
459.33	304.44
459.70	302.57
460.07	301.12
460.43	299.39
460.80	297.79
461.17	296.34
461.54	294.84
461.91	293.41
462.27	291.96
462.64	290.69
463.01	289.31
463.38	287.99
463.74	286.59
464.11	285.45
464.48	284.45
464.85	283.34
465.21	282.41
465.58	281.48
465.95	280.37
466.32	279.50
466.68	278.58
467.05	277.65
467.42	276.73
467.78	275.76
468.15	274.88
468.52	274.20
468.88	273.33
469.25	272.52
469.62	271.87
469.98	271.18
470.35	270.58
470.72	269.99
471.08	269.32
471.45	268.79
471.82	268.26
472.18	267.66
472.55	267.20
472.92	266.69
473.28	266.23
473.65	265.77
474.02	265.31
474.38	264.96
474.75	264.64
475.11	264.32
475.48	264.06
475.85	263.86
476.21	263.63
476.58	263.48
476.94	263.38
477.31	263.23
477.67	263.07
478.04	262.94
478.41	262.90
478.77	262.94
479.14	262.88
479.50	262.84
479.87	262.90
480.23	262.99
480.60	263.05
480.96	263.14
481.33	263.37
481.69	263.57
482.06	263.75
482.42	263.98
482.79	264.20
483.15	264.54
483.52	264.91
483.88	265.25
484.25	265.60
484.61	266.02
484.98	266.46
485.34	267.03
485.71	267.64
486.07	268.22
486.44	268.80
486.80	269.48
487.17	270.23
487.53	271.07
487.90	271.91
488.26	272.92
488.62	273.93
488.99	274.88
489.35	275.91
489.72	277.05
490.08	278.24
490.44	279.51
490.81	280.86
491.17	282.19
491.54	283.68
491.90	285.22
492.26	286.86
492.63	288.61
492.99	290.43
493.36	292.30
493.72	294.34
494.08	296.47
494.45	298.80
494.81	301.14
495.17	303.56
495.54	306.14
495.90	308.77
496.26	311.59
496.63	314.59
496.99	317.73
497.35	320.97
497.72	324.38
498.08	327.88
498.44	331.55
498.80	335.42
499.17	339.45
499.53	343.65
499.89	348.04
500.26	352.52
500.62	357.18
500.98	362.12
501.34	367.19
501.71	372.53
502.07	377.92
502.43	383.53
502.79	389.35
503.16	395.43
503.52	401.74
503.88	408.10
504.24	414.73
504.60	421.61
504.97	428.80
505.33	436.13
505.69	443.83
506.05	451.58
506.41	459.50
506.78	467.74
507.14	476.22
507.50	484.93
507.86	493.96
508.22	503.10
508.59	512.34
508.95	521.93
509.31	531.73
509.67	541.85
510.03	552.21
510.39	562.83
510.75	573.65
511.12	584.59
511.48	595.82
511.84	607.29
512.20	618.82
512.56	630.76
512.92	642.95
513.28	655.28
513.64	667.74
514.00	680.43
514.37	693.29
514.73	706.29
515.09	719.37
515.45	732.74
515.81	746.44
516.17	760.42
516.53	774.50
516.89	788.66
517.25	802.82
517.61	817.25
517.97	831.66
518.33	846.10
518.69	860.78
519.05	875.91
519.41	891.09
519.77	906.66
520.13	922.04
520.49	937.36
520.85	952.81
521.21	968.52
521.57	984.78
521.93	1000.52
522.29	1016.92
522.65	1033.10
523.01	1049.29
523.37	1065.29
523.73	1081.54
524.09	1097.68
524.45	1114.02
524.81	1130.71
525.17	1147.53
525.53	1164.31
525.89	1181.14
526.25	1198.08
526.61	1214.28
526.97	1230.98
527.33	1247.44
527.68	1263.99
528.04	1280.52
528.40	1297.06
528.76	1314.15
529.12	1330.68
529.48	1347.63
529.84	1363.59
530.20	1380.18
530.56	1397.20
530.91	1414.56
531.27	1431.20
531.63	1447.62
531.99	1464.07
532.35	1479.91
532.71	1495.79
533.07	1512.08
533.42	1528.00
533.78	1543.97
534.14	1560.34
534.50	1575.65
534.86	1591.47
535.21	1606.74
535.57	1622.71
535.93	1638.26
536.29	1652.96
536.65	1667.90
537.00	1682.57
537.36	1697.78
537.72	1712.32
538.08	1726.67
538.44	1740.43
538.79	1754.29
539.15	1767.93
539.51	1781.74
539.87	1796.06
540.22	1809.76
540.58	1823.48
540.94	1836.79
541.29	1849.61
541.65	1862.36
542.01	1875.68
542.37	1887.96
542.72	1900.29
543.08	1911.98
543.44	1924.27
543.79	1935.54
544.15	1946.64
544.51	1958.26
544.87	1969.27
545.22	1980.12
545.58	1990.28
545.94	1999.90
546.29	2009.79
546.65	2019.60
547.01	2028.80
547.36	2037.60
547.72	2046.04
548.07	2053.86
548.43	2061.96
548.79	2070.09
549.14	2077.51
549.50	2084.66
549.86	2092.37
550.21	2099.70
550.57	2106.86
550.92	2113.41
551.28	2120.41
551.64	2127.48
551.99	2133.94
552.35	2140.15
552.70	2146.27
553.06	2152.34
553.41	2158.77
553.77	2164.81
554.13	2170.91
554.48	2177.11
554.84	2182.55
555.19	2187.88
555.55	2193.07
555.90	2197.68
556.26	2202.45
556.61	2207.24
556.97	2211.52
557.32	2215.63
557.68	2219.65
558.03	2223.92
558.39	2227.68
558.74	2232.50
559.10	2236.28
559.45	2239.95
559.81	2244.36
560.16	2248.18
560.52	2251.23
560.87	2254.55
561.23	2257.26
561.58	2260.37
561.94	2262.81
562.29	2265.06
562.64	2267.64
563.00	2270.32
563.35	2273.73
563.71	2276.90
564.06	2279.90
564.42	2282.68
564.77	2285.07
565.12	2287.30
565.48	2289.29
565.83	2291.14
566.19	2292.28
566.54	2293.26
566.89	2294.38
567.25	2294.80
567.60	2296.13
567.96	2297.83
568.31	2298.69
568.66	2299.69
569.02	2300.04
569.37	2300.44
569.72	2301.33
570.08	2301.37
570.43	2301.38
570.78	2300.69
571.14	2299.09
571.49	2297.92
571.84	2297.69
572.20	2296.59
572.55	2295.71
572.90	2294.18
573.26	2292.89
573.61	2291.21
573.96	2289.39
574.31	2286.54
574.67	2283.54
575.02	2279.90
575.37	2276.60
575.72	2272.80
576.08	2269.58
576.43	2266.36
576.78	2262.60
577.13	2259.45
577.49	2256.50
577.84	2252.89
578.19	2249.20
578.54	2245.53
578.90	2241.27
579.25	2235.74
579.60	2230.80
579.95	2225.69
580.30	2220.54
580.66	2215.33
581.01	2210.40
581.36	2205.51
581.71	2201.17
582.06	2196.78
582.42	2192.37
582.77	2187.08
583.12	2182.66
583.47	2177.85
583.82	2172.75
584.17	2167.50
584.53	2161.92
584.88	2156.20
585.23	2150.41
585.58	2144.99
585.93	2139.59
586.28	2134.88
586.63	2129.87
586.98	2124.84
587.34	2120.20
587.69	2115.39
588.04	2110.07
588.39	2104.31
588.74	2097.85
589.09	2091.67
589.44	2084.80
589.79	2078.74
590.14	2073.35
590.49	2066.73
590.84	2060.32
591.19	2054.39
591.54	2047.96
591.89	2040.64
592.25	2033.76
592.60	2026.54
592.95	2018.98
593.30	2011.66
593.65	2004.11
594.00	1997.07
594.35	1989.80
594.70	1981.77
595.05	1974.50
595.40	1967.30
595.75	1959.82
596.10	1953.58
596.45	1946.82
596.80	1940.71
597.15	1933.97
597.50	1926.63
597.85	1920.22
598.19	1913.56
598.54	1906.40
598.89	1899.82
599.24	1893.91
599.59	1887.36
599.94	1881.19
600.29	1874.82
600.64	1868.32
600.99	1860.71
601.34	1853.78
601.69	1846.86
602.04	1839.99
602.39	1832.70
602.74	1825.81
603.08	1819.15
603.43	1812.39
603.78	1805.14
604.13	1797.91
604.48	1790.60
604.83	1783.79
605.18	1776.65
605.53	1768.61
605.87	1760.52
606.22	1753.22
606.57	1745.33
606.92	1738.00
607.27	1730.88
607.62	1723.96
607.96	1716.59
608.31	1710.07
608.66	1702.51
609.01	1694.96
609.36	1687.35
609.70	1679.24
610.05	1671.16
610.40	1663.36
610.75	1655.14
611.10	1647.53
611.44	1639.18
611.79	1631.33
612.14	1622.64
612.49	1613.65
612.83	1605.38
613.18	1597.38
613.53	1589.35
613.88	1580.74
614.22	1572.52
614.57	1563.81
614.92	1555.78
615.27	1548.16
615.61	1539.77
615.96	1531.70
616.31	1524.08
616.65	1516.73
617.00	1509.23
617.35	1501.69
617.70	1493.41
618.04	1484.86
618.39	1476.61
618.74	1469.03
619.08	1460.79
619.43	1453.15
619.78	1446.19
620.12	1438.90
620.47	1431.31
620.82	1423.14
621.16	1415.85
621.51	1408.15
621.85	1400.64
622.20	1392.18
622.55	1383.87
622.89	1376.08
623.24	1368.56
623.59	1361.19
623.93	1353.72
624.28	1346.50
624.62	1338.88
624.97	1331.75
625.32	1324.99
625.66	1317.99
626.01	1310.78
626.35	1303.22
626.70	1295.59
627.04	1287.83
627.39	1280.12
627.73	1272.81
628.08	1265.87
628.43	1258.51
628.77	1251.16
629.12	1243.61
629.46	1236.42
629.81	1229.11
630.15	1221.83
630.50	1214.33
630.84	1206.07
631.19	1198.12
631.53	1190.60
631.88	1183.01
632.22	1175.38
632.57	1168.03
632.91	1160.44
633.26	1152.86
633.60	1145.48
633.95	1138.38
634.29	1131.41
634.64	1124.75
634.98	1117.36
635.32	1110.19
635.67	1103.60
636.01	1097.02
636.36	1090.17
636.70	1083.59
637.05	1076.91
637.39	1070.49
637.73	1063.96
638.08	1058.08
638.42	1052.02
638.77	1045.54
639.11	1038.97
639.45	1032.57
639.80	1025.89
640.14	1019.50
640.49	1013.04
640.83	1006.68
641.17	1000.39
641.52	994.01
641.86	987.60
642.20	981.60
642.55	975.31
642.89	968.80
643.23	962.22
643.58	956.43
643.92	950.26
644.26	944.16
644.61	938.13
644.95	932.15
645.29	925.55
645.64	918.84
645.98	912.54
646.32	906.66
646.66	900.61
647.01	894.81
647.35	889.03
647.69	883.27
648.04	877.84
648.38	872.03
648.72	866.00
649.06	859.84
649.41	854.08
649.75	848.09
650.09	842.13
650.43	836.40
650.78	830.26
651.12	824.30
651.46	818.61
651.80	812.79
652.14	807.44
652.49	802.04
652.83	796.95
653.17	791.23
653.51	785.49
653.85	780.16
654.20	774.61
654.54	768.63
654.88	762.85
655.22	756.89
655.56	751.19
655.90	745.75
656.25	740.59
656.59	735.19
656.93	730.08
657.27	724.97
657.61	719.44
657.95	714.44
658.29	709.39
658.64	704.16
658.98	698.88
659.32	693.36
659.66	688.18
660.00	682.70
660.34	677.75
660.68	672.81
661.02	667.76
661.36	663.04
661.70	658.57
662.05	654.22
662.39	649.95
662.73	645.54
663.07	641.13
663.41	636.58
663.75	632.04
664.09	627.52
664.43	623.08
664.77	619.00
665.11	614.70
665.45	610.53
665.79	606.42
666.13	602.31
666.47	598.23
666.81	594.08
667.15	590.03
667.49	586.15
667.83	582.40
668.17	578.45
668.51	574.32
668.85	570.31
669.19	566.51
669.53	562.65
669.87	558.74
670.21	555.14
670.55	551.55
670.89	548.11
671.23	544.63
671.57	541.13
671.91	537.56
672.25	534.01
672.58	530.52
672.92	527.18
673.26	524.02
673.60	520.88
673.94	517.79
674.28	514.90
674.62	511.97
674.96	508.86
675.30	505.92
675.64	503.01
675.97	500.22
676.31	497.28
676.65	494.33
676.99	491.57
677.33	488.71
677.67	485.90
678.01	482.91
678.34	479.99
678.68	477.15
679.02	474.29
679.36	471.58
679.70	468.82
680.04	466.02
680.37	463.13
680.71	460.30
681.05	457.68
681.39	454.92
681.73	452.28
682.06	449.75
682.40	447.22
682.74	444.68
683.08	442.11
683.42	439.56
683.75	437.06
684.09	434.57
684.43	432.08
684.77	429.64
685.10	427.25
685.44	424.94
685.78	422.67
686.12	420.47
686.45	418.17
686.79	415.87
687.13	413.70
687.46	411.52
687.80	409.42
688.14	407.19
688.48	405.14
688.81	402.84
689.15	400.69
689.49	398.57
689.82	396.53
690.16	394.51
690.50	392.56
690.83	390.66
691.17	388.67
691.51	386.74
691.84	384.84
692.18	382.92
692.52	380.91
692.85	378.94
693.19	377.00
693.52	375.19
693.86	373.37
694.20	371.55
694.53	369.78
694.87	367.88
695.21	366.11
695.54	364.30
695.88	362.57
696.21	360.82
696.55	359.07
696.88	357.37
697.22	355.67
697.56	354.02
697.89	352.30
698.23	350.72
698.56	349.11
698.90	347.53
699.23	345.92
699.57	344.38
699.90	342.85
700.24	341.37
700.58	339.81
700.91	338.34
701.25	336.92
701.58	335.57
701.92	334.25
702.25	332.85
702.59	331.48
702.92	330.21
703.26	328.90
703.59	327.67
703.93	326.45
704.26	325.22
704.60	323.94
704.93	322.67
705.26	321.41
705.60	320.19
705.93	319.04
706.27	317.97
706.60	316.91
706.94	315.82
707.27	314.69
707.61	313.66
707.94	312.64
708.27	311.57
708.61	310.49
708.94	309.48
709.28	308.52
709.61	307.60
709.94	306.60
710.28	305.61
710.61	304.62
710.95	303.59
711.28	302.70
711.61	301.71
711.95	300.80
712.28	299.83
712.61	298.88
712.95	297.98
713.28	297.11
713.61	296.20
713.95	295.35
714.28	294.49
714.61	293.61
714.95	292.73
715.28	291.85
715.61	290.98
715.95	290.12
716.28	289.23
716.61	288.40
716.95	287.60
717.28	286.82
717.61	286.04
717.94	285.31
718.28	284.48
718.61	283.78
718.94	283.09
719.27	282.46
719.61	281.83
719.94	281.17
720.27	280.47
720.60	279.83
720.94	279.17
721.27	278.55
721.60	277.94
721.93	277.36
722.27	276.79
722.60	276.20
722.93	275.62
723.26	275.13
723.59	274.53
723.93	273.95
724.26	273.45
724.59	272.91
724.92	272.37
725.25	271.86
725.59	271.35
725.92	270.85
726.25	270.34
726.58	269.82
726.91	269.30
727.24	268.84
727.57	268.35
727.91	267.84
728.24	267.42
728.57	266.96
728.90	266.51
729.23	266.02
729.56	265.64
729.89	265.16
730.22	264.63
730.55	264.19
730.89	263.78
731.22	263.33
731.55	262.87
731.88	262.49
732.21	262.06
732.54	261.66
732.87	261.25
733.20	260.88
733.53	260.49
733.86	260.15
734.19	259.74
734.52	259.41
734.85	259.13
735.18	258.69
735.51	258.33
735.84	257.94
736.17	257.63
736.50	257.20
736.83	257.00
737.16	256.68
737.49	256.37
737.82	256.01
738.15	255.67
738.48	255.35
738.81	255.02
739.14	254.73
739.47	254.42
739.80	254.11
740.13	253.80
740.46	253.46
740.79	253.10
741.12	252.81
741.45	252.46
741.78	252.09
742.11	251.84
742.44	251.52
742.77	251.23
743.10	250.94
743.43	250.65
743.75	250.30
744.08	250.14
744.41	249.82
744.74	249.57
745.07	249.29
745.40	249.05
745.73	248.76
746.06	248.44
746.39	248.16
746.71	247.86
747.04	247.58
747.37	247.36
747.70	247.18
748.03	246.94
748.36	246.73
748.68	246.49
749.01	246.22
749.34	246.00
749.67	245.79
750.00	245.52
750.33	245.37
750.65	245.15
750.98	244.81
751.31	244.63
751.64	244.45
751.97	244.31
752.29	244.10
752.62	243.88
752.95	243.70
753.28	243.47
753.60	243.29
753.93	243.12
754.26	242.92
754.59	242.63
754.91	242.45
755.24	242.23
755.57	242.10
755.90	241.89
756.22	241.70
756.55	241.50
756.88	241.33
757.20	241.11
757.53	240.87
757.86	240.70
758.19	240.54
758.51	240.34
758.84	240.10
759.17	239.92
759.49	239.76
759.82	239.65
760.15	239.52
760.47	239.39
760.80	239.23
761.13	239.07
761.45	238.93
761.78	238.76
762.11	238.61
762.43	238.42
762.76	238.26
763.08	238.16
763.41	238.01
763.74	237.85
764.06	237.69
764.39	237.58
764.71	237.44
765.04	237.31
765.37	237.17
765.69	237.05
766.02	236.92
766.34	236.80
766.67	236.64
767.00	236.53
767.32	236.47
767.65	236.42
767.97	236.30
768.30	236.20
768.62	236.10
768.95	235.97
769.27	235.87
769.60	235.80
769.92	235.65
770.25	235.53
770.57	235.43
770.90	235.34
771.22	235.22
771.55	235.12
771.87	235.02
772.20	234.94
772.52	234.94
772.85	234.98
773.17	234.88
773.50	234.80
773.82	234.69
774.15	234.52
774.47	234.33
774.80	234.24
775.12	234.15
775.45	234.03
775.77	233.98
776.09	233.91
776.42	233.82
776.74	233.75
777.07	233.66
777.39	233.60
777.72	233.54
778.04	233.49
778.36	233.41
778.69	233.32
779.01	233.24
779.33	233.06
779.66	232.89
779.98	232.82
780.31	232.74
780.63	232.71
780.95	232.68
781.28	232.65
781.60	232.57
781.92	232.49
782.25	232.45
782.57	232.35
782.89	232.27
783.22	232.21
783.54	232.17
783.86	232.13
784.19	232.07
784.51	232.03
784.83	231.95
785.16	231.89
785.48	231.79
785.80	231.76
786.12	231.74
786.45	231.67
786.77	231.62
787.09	231.58
787.42	231.47
787.74	231.43
788.06	231.36
788.38	231.33
788.71	231.28
789.03	231.23
789.35	231.21
789.67	231.18
789.99	231.15
790.32	231.07
790.64	231.02
790.96	231.03
791.28	230.96
791.61	230.94
791.93	230.92
792.25	230.93
792.57	230.93
792.89	230.89
793.21	230.87
793.54	230.79
793.86	230.69
794.18	230.68
794.50	230.61
794.82	230.59
795.14	230.58
795.47	230.55
795.79	230.51
796.11	230.48
796.43	230.43
796.75	230.38
797.07	230.36
797.39	230.36
797.71	230.26
798.04	230.23
798.36	230.18
798.68	230.14
799.00	230.12
799.32	230.05
799.64	230.04
799.96	229.98
800.28	229.99
800.60	229.99
800.92	229.95
801.24	229.91
801.56	229.87
801.89	229.82
802.21	229.82
802.53	229.77
802.85	229.74
803.17	229.74
803.49	229.68
803.81	229.64
804.13	229.57
804.45	229.54
804.77	229.52
805.09	229.50
805.41	229.45
805.73	229.38
806.05	229.35
806.37	229.30
806.69	229.27
807.01	229.25
807.33	229.24
807.65	229.18
807.97	229.19
808.28	229.17
808.60	229.13
808.92	229.11
809.24	229.18
809.56	229.13
809.88	229.10
810.20	229.10
810.52	229.11
810.84	229.08
811.16	229.04
811.48	229.00
811.80	229.03
812.12	229.03
812.43	229.02
812.75	228.98
813.07	228.95
813.39	228.92
813.71	228.89
814.03	228.83
814.35	228.84
814.67	228.80
814.98	228.79
815.30	228.75
815.62	228.72
815.94	228.63
816.26	228.67
816.58	228.61
816.89	228.61
817.21	228.56
817.53	228.55
817.85	228.54
818.17	228.49
818.48	228.41
818.80	228.42
819.12	228.41
819.44	228.39
819.76	228.36
820.07	228.37
820.39	228.33
820.71	228.34
821.03	228.30
821.34	228.27
821.66	228.23
821.98	228.24
822.30	228.21
822.61	228.24
822.93	228.19
823.25	228.20
823.57	228.20
823.88	228.24
824.20	228.29
824.52	228.28
824.83	228.29
825.15	228.29
825.47	228.27
825.79	228.24
826.10	228.24
826.42	228.25
826.74	228.25
827.05	228.27
827.37	228.27
827.69	228.24
828.00	228.24
828.32	228.24
828.64	228.23
828.95	228.27
829.27	228.24
829.58	228.23
829.90	228.19
830.22	228.16
830.53	228.11
830.85	228.04
831.17	228.05
831.48	228.03
831.80	228.04
832.11	228.05
832.43	228.02
832.75	227.98
833.06	228.00
833.38	227.96
833.69	227.95
834.01	227.95
834.32	227.98
834.64	227.98
834.96	227.98
835.27	227.99
835.59	227.93
835.90	227.92
836.22	227.92
836.53	227.93
836.85	227.91
837.16	227.99
837.48	227.99
837.79	227.99
838.11	227.99
838.42	227.99
838.74	227.95
839.05	227.95
839.37	227.95
839.68	227.92
840.00	227.93
840.31	227.90
840.63	227.86
840.94	227.81
841.26	227.76
841.57	227.76
841.88	227.75
842.20	227.73
842.51	227.70
842.83	227.68
843.14	227.74
843.46	227.74
843.77	227.67
844.08	227.65
844.40	227.62
844.71	227.60
845.03	227.56
845.34	227.54
845.65	227.55
845.97	227.54
846.28	227.49
846.60	227.46
846.91	227.47
847.22	227.46
847.54	227.51
847.85	227.50
848.16	227.47
848.48	227.44
848.79	227.48
849.10	227.51
849.42	227.49
849.73	227.43
850.04	227.42
850.36	227.41
850.67	227.42
850.98	227.42
851.30	227.42
851.61	227.43
851.92	227.45
852.23	227.49
852.55	227.49
852.86	227.52
853.17	227.53
853.49	227.54
853.80	227.57
854.11	227.57
854.42	227.60
854.74	227.61
855.05	227.62
855.36	227.58
855.67	227.57
855.99	227.59
856.30	227.68
856.61	227.64
856.92	227.65
857.23	227.64
857.55	227.62
857.86	227.62
858.17	227.63
858.48	227.58
858.79	227.54
859.11	227.57
859.42	227.56
859.73	227.57
860.04	227.56
860.35	227.56
860.66	227.50
860.98	227.52
861.29	227.50
861.60	227.49
861.91	227.49
862.22	227.49
862.53	227.47
862.84	227.36
863.16	227.41
863.47	227.38
863.78	227.38
864.09	227.37
864.40	227.36
864.71	227.38
865.02	227.43
865.33	227.40
865.64	227.37
865.95	227.37
866.27	227.44
866.58	227.46
866.89	227.45
867.20	227.45
867.51	227.40
867.82	227.44
868.13	227.45
868.44	227.44
868.75	227.43
869.06	227.43
869.37	227.44
869.68	227.42
869.99	227.42
870.30	227.44
870.61	227.48
870.92	227.46
871.23	227.44
871.54	227.42
871.85	227.45
872.16	227.44
872.47	227.43
872.78	227.36
873.09	227.35
873.40	227.31
873.71	227.31
874.02	227.32
874.33	227.28
874.64	227.29
874.95	227.28
875.26	227.27
875.56	227.27
875.87	227.26
876.18	227.22
876.49	227.32
876.80	227.31
877.11	227.26
877.42	227.29
877.73	227.27
878.04	227.24
878.35	227.26
878.66	227.25
878.96	227.23
879.27	227.20
879.58	227.18
879.89	227.18
880.20	227.23
880.51	227.25
880.82	227.25
881.12	227.23
881.43	227.20
881.74	227.16
882.05	227.12
882.36	227.09
882.67	227.08
882.97	226.98
883.28	226.95
883.59	226.96
883.90	226.97
884.21	226.97
884.51	226.97
884.82	226.90
885.13	226.88
885.44	226.90
885.74	226.93
886.05	226.96
886.36	226.94
886.67	226.89
886.98	226.94
887.28	226.95
887.59	226.96
887.90	226.96
888.20	226.99
888.51	227.04
888.82	227.04
889.13	227.08
889.43	227.14
889.74	227.11
890.05	227.13
890.35	227.10
890.66	227.09
890.97	227.08
891.28	227.11
891.58	227.14
891.89	227.16
892.20	227.07
892.50	227.04
892.81	227.04
893.12	227.03
893.42	226.96
893.73	226.93
894.04	226.93
894.34	226.95
894.65	226.94
894.95	226.89
895.26	226.87
895.57	226.94
895.87	226.84
896.18	226.86
896.48	226.85
896.79	226.85
897.10	226.87
897.40	226.87
897.71	226.87
898.01	226.85
898.32	226.84
898.63	226.87
898.93	226.89
899.24	226.87
899.54	226.84
899.85	226.82
900.15	226.83
900.46	226.80
900.76	226.78
901.07	226.79
901.38	226.79
901.68	226.84
901.99	226.76
902.29	226.75
902.60	226.74
902.90	226.72
903.21	226.70
903.51	226.68
903.82	226.69
904.12	226.69
904.43	226.70
904.73	226.68
905.03	226.71
905.34	226.82
905.64	226.85
905.95	226.87
906.25	226.85
906.56	226.85
906.86	226.88
907.17	226.90
907.47	226.90
907.77	226.93
908.08	226.90
908.38	226.90
908.69	226.93
908.99	226.99
909.30	227.00
909.60	227.00
909.90	227.02
910.21	227.02
910.51	227.01
910.81	227.02
911.12	227.02
911.42	227.00
911.73	226.90
912.03	226.89
912.33	226.93
912.64	226.93
912.94	226.91
913.24	226.90
913.55	226.87
913.85	226.85
914.15	226.83
914.46	226.82
914.76	226.84
915.06	226.83
915.37	226.75
915.67	226.74
915.97	226.77
916.27	226.76
916.58	226.75
916.88	226.72
917.18	226.69
917.49	226.74
917.79	226.73
918.09	226.73
918.39	226.75
918.70	226.76
919.00	226.81
919.30	226.87
919.60	226.84
919.91	226.84
920.21	226.84
920.51	226.83
920.81	226.83
921.12	226.82
921.42	226.83
921.72	226.82
922.02	226.85
922.32	226.84
922.63	226.82
922.93	226.86
923.23	226.89
923.53	226.90
923.83	226.86
924.13	226.89
924.44	226.88
924.74	226.92
925.04	226.89
925.34	226.87
925.64	226.81
925.94	226.83
926.24	226.91
926.55	226.92
926.85	226.95
927.15	226.96
927.45	226.93
927.75	226.93
928.05	226.98
928.35	226.98
928.65	226.98
928.95	227.00
929.26	226.96
929.56	226.95
929.86	226.95
930.16	226.93
930.46	226.92
930.76	226.88
931.06	226.83
931.36	226.82
931.66	226.83
931.96	226.87
932.26	226.85
932.56	226.78
932.86	226.80
933.16	226.79
933.46	226.77
933.76	226.77
934.06	226.80
934.36	226.82
934.66	226.78
934.96	226.77
935.26	226.75
935.56	226.77
935.86	226.76
936.16	226.75
936.46	226.72
936.76	226.69
937.06	226.73
937.36	226.70
937.66	226.67
937.96	226.70
938.26	226.67
938.56	226.70
938.86	226.70
939.16	226.70
939.46	226.71
939.76	226.72
940.06	226.72
940.35	226.67
940.65	226.63
940.95	226.64
941.25	226.65
941.55	226.68
941.85	226.66
942.15	226.68
942.45	226.71
942.75	226.76
943.04	226.78
943.34	226.78
943.64	226.79
943.94	226.82
944.24	226.77
944.54	226.77
944.84	226.73
945.13	226.71
945.43	226.67
945.73	226.67
946.03	226.67
946.33	226.67
946.62	226.66
946.92	226.66
947.22	226.65
947.52	226.63
947.82	226.61
948.11	226.62
948.41	226.62
948.71	226.62
949.01	226.60
949.31	226.58
949.60	226.58
949.90	226.63
950.20	226.63
950.50	226.67
950.79	226.69
951.09	226.72
951.39	226.73
951.69	226.71
951.98	226.74
952.28	226.70
952.58	226.72
952.87	226.73
953.17	226.74
953.47	226.76
953.76	226.77
954.06	226.80
954.36	226.78
954.66	226.76
954.95	226.78
955.25	226.81
955.55	226.82
955.84	226.80
956.14	226.81
956.44	226.82
956.73	226.78
957.03	226.77
957.32	226.79
957.62	226.80
957.92	226.85
958.21	226.81
958.51	226.95
958.81	226.99
959.10	226.98
959.40	227.01
959.69	227.01
959.99	226.99
960.29	226.97
960.58	226.97
960.88	227.02
961.17	227.00
961.47	226.96
961.76	226.98
962.06	227.00
962.36	226.98
962.65	226.95
962.95	226.97
963.24	226.98
963.54	226.98
963.83	226.96
964.13	226.93
964.42	226.91
964.72	226.85
965.01	226.82
965.31	226.83
965.60	226.83
965.90	226.87
966.19	226.85
966.49	226.89
966.78	226.87
967.08	226.86
967.37	226.85
967.67	226.86
967.96	226.86
968.26	226.84
968.55	226.84
968.85	226.84
969.14	226.83
969.43	226.82
969.73	226.78
970.02	226.78
970.32	226.79
970.61	226.78
970.91	226.75
971.20	226.70
971.49	226.67
971.79	226.68
972.08	226.60
972.38	226.63
972.67	226.59
972.96	226.64
973.26	226.59
973.55	226.61
973.85	226.59
974.14	226.59
974.43	226.61
974.73	226.57
975.02	226.56
975.31	226.56
975.61	226.56
975.90	226.56
976.19	226.57
976.49	226.58
976.78	226.61
977.07	226.59
977.37	226.60
977.66	226.62
977.95	226.59
978.24	226.61
978.54	226.60
978.83	226.57
979.12	226.55
979.42	226.56
979.71	226.57
980.00	226.55
980.29	226.55
980.59	226.53
980.88	226.57
981.17	226.56
981.46	226.56
981.76	226.54
982.05	226.57
982.34	226.56
982.63	226.57
982.93	226.56
983.22	226.58
983.51	226.63
983.80	226.67
984.09	226.69
984.39	226.70
984.68	226.72
984.97	226.74
985.26	226.73
985.55	226.72
985.85	226.69
986.14	226.70
986.43	226.69
986.72	226.67
987.01	226.62
987.30	226.64
987.59	226.64
987.89	226.64
988.18	226.62
988.47	226.61
988.76	226.59
989.05	226.59
989.34	226.58
989.63	226.62
989.92	226.60
990.22	226.58
990.51	226.58
990.80	226.56
991.09	226.58
991.38	226.59
991.67	226.60
991.96	226.58
992.25	226.59
992.54	226.61
992.83	226.63
993.12	226.67
993.41	226.66
993.70	226.68
993.99	226.72
994.28	226.70
994.58	226.70
994.87	226.73
995.16	226.70
995.45	226.72
995.74	226.67
996.03	226.65
996.32	226.66
996.61	226.66
996.90	226.66
997.19	226.66
997.48	226.67
997.77	226.64
998.06	226.68
998.34	226.69
998.63	226.64
998.92	226.62
999.21	226.64
999.50	226.66
999.79	226.66
1000.08	226.67
1000.37	226.69
1000.66	226.70
1000.95	226.68
1001.24	226.70
1001.53	226.67
1001.82	226.68
1002.11	226.64
1002.40	226.67
1002.68	226.71
1002.97	226.78
1003.26	226.77
1003.55	226.77
1003.84	226.82
1004.13	226.84
1004.42	226.84
1004.71	226.88
1004.99	226.89
1005.28	226.86
1005.57	226.88
1005.86	226.82
1006.15	226.79
1006.44	226.77
1006.72	226.79
1007.01	226.81
1007.30	226.82
1007.59	226.83
1007.88	226.82
1008.17	226.86
1008.45	226.83
1008.74	226.76
1009.03	226.72
1009.32	226.70
1009.60	226.67
1009.89	226.62
1010.18	226.58
1010.47	226.55
1010.76	226.54
1011.04	226.55
1011.33	226.59
1011.62	226.57
1011.91	226.61
1012.19	226.65
1012.48	226.66
1012.77	226.64
1013.05	226.66
1013.34	226.64
1013.63	226.61
1013.92	226.60
1014.20	226.59
1014.49	226.58
1014.78	226.59
1015.06	226.58
1015.35	226.62
1015.64	226.63
1015.92	226.64
1016.21	226.64
1016.50	226.63
1016.78	226.63
1017.07	226.65
1017.36	226.59
1017.64	226.61
1017.93	226.60
1018.22	226.57
1018.50	226.54
1018.79	226.57
1019.08	226.55
1019.36	226.57
1019.65	226.58
1019.93	226.60
1020.22	226.60
1020.51	226.68
1020.79	226.66
1021.08	226.34
1021.36	226.21
1021.65	227.08
1021.94	226.87
1022.22	226.71
1022.51	226.45
1022.79	226.99
1023.08	226.54
1023.36	228.12
1023.65	226.02
>>>>>End Processed Spectral Data<<<<<
