SpectraSuite Data File
++++++++++++++++++++++++++++++++++++
Date: Fri Feb 01 16:32:30 EST 2013
User: group
Dark Spectrum Present: No
Reference Spectrum Present: No
Number of Sampled Component Spectra: 1
Spectrometers: USB2E7196
Integration Time (usec): 35000 (USB2E7196)
Spectra Averaged: 100 (USB2E7196)
Boxcar Smoothing: 10 (USB2E7196)
Correct for Electrical Dark: No (USB2E7196)
Strobe/Lamp Enabled: No (USB2E7196)
Correct for Detector Non-linearity: No (USB2E7196)
Correct for Stray Light: No (USB2E7196)
Number of Pixels in Processed Spectrum: 2048
>>>>>Begin Processed Spectral Data<<<<<
339.09	0.00
339.48	214.61
339.86	215.76
340.24	216.91
340.63	218.76
341.01	221.77
341.39	220.95
341.78	222.18
342.16	224.01
342.54	224.21
342.93	212.61
343.31	223.36
343.69	223.90
344.07	224.38
344.46	224.83
344.84	225.20
345.22	225.42
345.60	225.66
345.99	225.86
346.37	225.98
346.75	226.07
347.13	226.11
347.52	226.16
347.90	226.20
348.28	226.21
348.66	226.26
349.05	226.26
349.43	226.29
349.81	226.31
350.19	226.38
350.57	226.45
350.96	226.52
351.34	226.57
351.72	226.62
352.10	226.66
352.48	226.71
352.87	226.75
353.25	226.78
353.63	226.84
354.01	226.87
354.39	226.94
354.77	227.02
355.15	227.16
355.54	227.21
355.92	227.27
356.30	227.32
356.68	227.44
357.06	227.51
357.44	227.57
357.82	227.66
358.20	227.70
358.58	227.73
358.97	227.76
359.35	227.84
359.73	227.92
360.11	227.99
360.49	228.04
360.87	228.05
361.25	228.11
361.63	228.19
362.01	228.28
362.39	228.31
362.77	228.33
363.15	228.34
363.53	228.37
363.91	228.38
364.29	228.42
364.67	228.31
365.05	228.30
365.43	228.31
365.81	228.33
366.19	228.37
366.57	228.40
366.95	228.40
367.33	228.39
367.71	228.34
368.09	228.38
368.47	228.37
368.85	228.36
369.23	228.37
369.61	228.33
369.99	228.28
370.37	228.23
370.75	228.25
371.13	228.20
371.51	228.15
371.89	228.10
372.27	228.06
372.65	228.04
373.03	228.02
373.41	227.96
373.78	227.87
374.16	227.78
374.54	227.71
374.92	227.65
375.30	227.57
375.68	227.51
376.06	227.43
376.44	227.37
376.82	227.34
377.19	227.27
377.57	227.22
377.95	227.12
378.33	227.10
378.71	226.98
379.09	226.91
379.47	226.87
379.84	226.81
380.22	226.76
380.60	226.68
380.98	226.60
381.36	226.55
381.73	226.46
382.11	226.44
382.49	226.38
382.87	226.30
383.25	226.26
383.62	226.31
384.00	226.21
384.38	226.13
384.76	226.09
385.13	226.06
385.51	225.98
385.89	225.92
386.27	225.86
386.64	225.80
387.02	225.78
387.40	225.72
387.78	225.67
388.15	225.66
388.53	225.65
388.91	225.62
389.29	225.55
389.66	225.56
390.04	225.49
390.42	225.49
390.79	225.48
391.17	225.45
391.55	225.33
391.92	225.36
392.30	225.37
392.68	225.36
393.05	225.38
393.43	225.39
393.81	225.43
394.18	225.40
394.56	225.43
394.94	225.43
395.31	225.45
395.69	225.51
396.06	225.50
396.44	225.51
396.82	225.54
397.19	225.64
397.57	225.67
397.95	225.76
398.32	225.74
398.70	225.79
399.07	225.86
399.45	225.93
399.82	225.96
400.20	226.03
400.58	226.08
400.95	226.09
401.33	226.16
401.70	226.29
402.08	226.38
402.45	226.46
402.83	226.58
403.20	226.63
403.58	226.69
403.95	226.83
404.33	226.98
404.71	227.10
405.08	227.24
405.46	227.39
405.83	227.50
406.21	227.64
406.58	227.82
406.96	227.96
407.33	228.11
407.70	228.29
408.08	228.55
408.45	228.75
408.83	228.97
409.20	229.20
409.58	229.37
409.95	229.67
410.33	229.93
410.70	230.14
411.08	230.47
411.45	230.78
411.82	231.07
412.20	231.44
412.57	231.86
412.95	232.17
413.32	232.56
413.69	232.95
414.07	233.42
414.44	233.88
414.82	234.39
415.19	234.95
415.56	235.50
415.94	236.03
416.31	236.67
416.68	237.31
417.06	238.01
417.43	238.69
417.81	239.41
418.18	240.18
418.55	241.04
418.93	241.93
419.30	242.81
419.67	243.74
420.04	244.70
420.42	245.66
420.79	246.85
421.16	248.01
421.54	249.21
421.91	250.47
422.28	251.72
422.66	253.04
423.03	254.35
423.40	255.70
423.77	257.13
424.15	258.53
424.52	259.98
424.89	261.60
425.26	263.14
425.64	264.59
426.01	266.18
426.38	267.82
426.75	269.48
427.13	271.22
427.50	273.02
427.87	274.87
428.24	276.74
428.61	278.48
428.99	280.41
429.36	282.57
429.73	284.59
430.10	286.60
430.47	288.60
430.85	290.69
431.22	292.93
431.59	295.27
431.96	297.55
432.33	300.04
432.70	302.38
433.08	305.20
433.45	307.83
433.82	310.42
434.19	313.28
434.56	316.07
434.93	318.70
435.30	321.28
435.68	324.14
436.05	326.96
436.42	329.69
436.79	332.19
437.16	334.84
437.53	337.64
437.90	340.40
438.27	343.12
438.64	345.89
439.01	348.46
439.38	350.65
439.75	352.75
440.13	355.20
440.50	357.49
440.87	359.30
441.24	361.22
441.61	363.36
441.98	364.86
442.35	366.64
442.72	368.50
443.09	370.33
443.46	371.35
443.83	371.92
444.20	372.44
444.57	373.24
444.94	373.52
445.31	373.84
445.68	374.20
446.05	374.31
446.42	373.97
446.79	373.57
447.16	373.20
447.53	372.87
447.90	371.76
448.27	370.64
448.64	369.09
449.01	367.97
449.37	366.07
449.74	364.19
450.11	361.98
450.48	359.52
450.85	356.98
451.22	354.86
451.59	352.86
451.96	350.93
452.33	348.34
452.70	346.00
453.07	343.23
453.43	340.38
453.80	337.64
454.17	335.01
454.54	332.46
454.91	329.71
455.28	327.08
455.65	324.61
456.02	322.20
456.38	320.06
456.75	317.41
457.12	315.12
457.49	312.89
457.86	310.73
458.23	308.92
458.59	306.90
458.96	304.83
459.33	303.00
459.70	301.12
460.07	299.65
460.43	297.95
460.80	296.33
461.17	294.91
461.54	293.44
461.91	292.01
462.27	290.61
462.64	289.38
463.01	288.07
463.38	286.79
463.74	285.44
464.11	284.28
464.48	283.29
464.85	282.20
465.21	281.37
465.58	280.41
465.95	279.33
466.32	278.43
466.68	277.53
467.05	276.62
467.42	275.79
467.78	274.85
468.15	273.99
468.52	273.34
468.88	272.51
469.25	271.75
469.62	271.13
469.98	270.44
470.35	269.81
470.72	269.19
471.08	268.55
471.45	268.04
471.82	267.51
472.18	266.89
472.55	266.45
472.92	265.91
473.28	265.52
473.65	265.05
474.02	264.63
474.38	264.30
474.75	264.01
475.11	263.65
475.48	263.43
475.85	263.19
476.21	262.93
476.58	262.71
476.94	262.56
477.31	262.40
477.67	262.28
478.04	262.20
478.41	262.16
478.77	262.19
479.14	262.11
479.50	262.12
479.87	262.25
480.23	262.32
480.60	262.39
480.96	262.46
481.33	262.68
481.69	262.84
482.06	262.98
482.42	263.16
482.79	263.41
483.15	263.73
483.52	264.10
483.88	264.47
484.25	264.86
484.61	265.31
484.98	265.74
485.34	266.28
485.71	266.88
486.07	267.46
486.44	268.06
486.80	268.76
487.17	269.51
487.53	270.30
487.90	271.17
488.26	272.14
488.62	273.11
488.99	274.08
489.35	275.15
489.72	276.30
490.08	277.54
490.44	278.85
490.81	280.17
491.17	281.52
491.54	283.00
491.90	284.55
492.26	286.19
492.63	287.93
492.99	289.73
493.36	291.58
493.72	293.65
494.08	295.75
494.45	298.00
494.81	300.38
495.17	302.79
495.54	305.41
495.90	308.09
496.26	310.96
496.63	313.91
496.99	317.03
497.35	320.33
497.72	323.74
498.08	327.23
498.44	330.89
498.80	334.81
499.17	338.85
499.53	343.04
499.89	347.40
500.26	351.92
500.62	356.60
500.98	361.58
501.34	366.69
501.71	372.00
502.07	377.45
502.43	383.08
502.79	388.93
503.16	394.98
503.52	401.22
503.88	407.61
504.24	414.29
504.60	421.17
504.97	428.32
505.33	435.61
505.69	443.32
506.05	451.18
506.41	459.13
506.78	467.36
507.14	475.82
507.50	484.52
507.86	493.58
508.22	502.77
508.59	512.05
508.95	521.61
509.31	531.45
509.67	541.55
510.03	551.91
510.39	562.45
510.75	573.19
511.12	584.20
511.48	595.44
511.84	606.86
512.20	618.32
512.56	630.22
512.92	642.44
513.28	654.78
513.64	667.15
514.00	679.85
514.37	692.72
514.73	705.78
515.09	718.79
515.45	732.01
515.81	745.55
516.17	759.43
516.53	773.49
516.89	787.69
517.25	801.85
517.61	816.14
517.97	830.53
518.33	844.95
518.69	859.62
519.05	874.56
519.41	889.67
519.77	905.24
520.13	920.66
520.49	935.90
520.85	951.37
521.21	967.06
521.57	983.16
521.93	998.92
522.29	1015.23
522.65	1031.44
523.01	1047.63
523.37	1063.59
523.73	1079.77
524.09	1095.74
524.45	1111.87
524.81	1128.38
525.17	1145.06
525.53	1161.91
525.89	1178.74
526.25	1195.56
526.61	1212.01
526.97	1228.77
527.33	1245.07
527.68	1261.62
528.04	1278.05
528.40	1294.38
528.76	1311.45
529.12	1327.90
529.48	1344.62
529.84	1360.58
530.20	1377.15
530.56	1393.95
530.91	1411.33
531.27	1427.88
531.63	1444.33
531.99	1460.82
532.35	1476.73
532.71	1492.59
533.07	1508.80
533.42	1524.55
533.78	1540.55
534.14	1556.61
534.50	1571.77
534.86	1587.57
535.21	1602.66
535.57	1618.45
535.93	1633.90
536.29	1648.48
536.65	1663.34
537.00	1678.03
537.36	1693.23
537.72	1707.54
538.08	1721.94
538.44	1735.54
538.79	1749.37
539.15	1762.92
539.51	1776.61
539.87	1790.85
540.22	1804.44
540.58	1817.95
540.94	1831.11
541.29	1843.78
541.65	1856.37
542.01	1869.50
542.37	1881.78
542.72	1894.00
543.08	1905.84
543.44	1918.10
543.79	1929.16
544.15	1940.27
544.51	1951.73
544.87	1962.59
545.22	1973.39
545.58	1983.52
545.94	1993.11
546.29	2002.78
546.65	2012.56
547.01	2021.67
547.36	2030.28
547.72	2038.70
548.07	2046.54
548.43	2054.74
548.79	2062.71
549.14	2070.15
549.50	2077.35
549.86	2084.92
550.21	2092.20
550.57	2099.20
550.92	2105.66
551.28	2112.59
551.64	2119.54
551.99	2126.05
552.35	2132.16
552.70	2138.23
553.06	2144.24
553.41	2150.78
553.77	2156.88
554.13	2162.92
554.48	2169.03
554.84	2174.37
555.19	2179.64
555.55	2184.78
555.90	2189.17
556.26	2194.14
556.61	2198.89
556.97	2203.24
557.32	2207.30
557.68	2211.48
558.03	2215.72
558.39	2219.49
558.74	2224.13
559.10	2228.06
559.45	2231.73
559.81	2235.92
560.16	2239.79
560.52	2242.97
560.87	2246.27
561.23	2249.01
561.58	2251.90
561.94	2254.53
562.29	2256.98
562.64	2259.62
563.00	2262.20
563.35	2265.78
563.71	2268.77
564.06	2271.99
564.42	2274.80
564.77	2277.51
565.12	2279.77
565.48	2281.64
565.83	2283.54
566.19	2285.06
566.54	2285.97
566.89	2287.09
567.25	2287.79
567.60	2289.05
567.96	2290.83
568.31	2291.74
568.66	2292.97
569.02	2293.77
569.37	2294.11
569.72	2295.06
570.08	2295.22
570.43	2295.44
570.78	2294.83
571.14	2293.43
571.49	2292.16
571.84	2291.92
572.20	2290.89
572.55	2290.04
572.90	2288.58
573.26	2287.29
573.61	2285.62
573.96	2283.94
574.31	2281.16
574.67	2278.40
575.02	2275.02
575.37	2271.71
575.72	2267.89
576.08	2264.47
576.43	2261.17
576.78	2257.61
577.13	2254.52
577.49	2251.63
577.84	2248.11
578.19	2244.49
578.54	2240.98
578.90	2236.92
579.25	2231.53
579.60	2226.48
579.95	2221.41
580.30	2216.59
580.66	2211.57
581.01	2206.65
581.36	2201.73
581.71	2197.61
582.06	2193.16
582.42	2188.77
582.77	2183.68
583.12	2179.31
583.47	2174.72
583.82	2169.80
584.17	2164.74
584.53	2159.38
584.88	2153.80
585.23	2148.13
585.58	2142.69
585.93	2137.21
586.28	2132.44
586.63	2127.47
586.98	2122.64
587.34	2118.00
587.69	2113.10
588.04	2107.82
588.39	2102.33
588.74	2096.00
589.09	2089.86
589.44	2082.97
589.79	2076.92
590.14	2071.23
590.49	2064.66
590.84	2058.27
591.19	2052.20
591.54	2045.59
591.89	2038.28
592.25	2031.47
592.60	2024.30
592.95	2016.83
593.30	2009.53
593.65	2001.79
594.00	1994.71
594.35	1987.33
594.70	1979.38
595.05	1972.39
595.40	1965.31
595.75	1957.73
596.10	1951.60
596.45	1944.98
596.80	1938.97
597.15	1932.39
597.50	1925.32
597.85	1918.90
598.19	1912.29
598.54	1905.17
598.89	1898.62
599.24	1892.72
599.59	1886.12
599.94	1880.05
600.29	1873.68
600.64	1867.14
600.99	1859.96
601.34	1853.21
601.69	1846.37
602.04	1839.52
602.39	1832.13
602.74	1825.29
603.08	1818.62
603.43	1811.98
603.78	1804.61
604.13	1797.52
604.48	1790.26
604.83	1783.42
605.18	1776.57
605.53	1768.64
605.87	1760.76
606.22	1753.56
606.57	1745.59
606.92	1738.32
607.27	1731.08
607.62	1724.28
607.96	1717.14
608.31	1710.47
608.66	1702.92
609.01	1695.34
609.36	1687.73
609.70	1679.68
610.05	1671.55
610.40	1663.87
610.75	1655.54
611.10	1647.94
611.44	1639.39
611.79	1631.38
612.14	1622.80
612.49	1613.66
612.83	1605.33
613.18	1597.20
613.53	1589.24
613.88	1580.64
614.22	1572.25
614.57	1563.74
614.92	1555.62
615.27	1548.00
615.61	1539.66
615.96	1531.58
616.31	1524.03
616.65	1516.80
617.00	1509.26
617.35	1501.65
617.70	1493.28
618.04	1484.80
618.39	1476.53
618.74	1468.98
619.08	1460.72
619.43	1453.11
619.78	1446.20
620.12	1439.03
620.47	1431.48
620.82	1423.25
621.16	1416.02
621.51	1408.52
621.85	1400.86
622.20	1392.37
622.55	1384.12
622.89	1376.24
623.24	1368.62
623.59	1361.19
623.93	1353.56
624.28	1346.40
624.62	1338.86
624.97	1331.71
625.32	1324.93
625.66	1318.05
626.01	1310.83
626.35	1303.44
626.70	1295.77
627.04	1287.92
627.39	1280.13
627.73	1272.85
628.08	1265.85
628.43	1258.44
628.77	1251.07
629.12	1243.54
629.46	1236.44
629.81	1228.96
630.15	1221.78
630.50	1214.41
630.84	1206.16
631.19	1198.22
631.53	1190.60
631.88	1183.04
632.22	1175.41
632.57	1167.99
632.91	1160.34
633.26	1152.91
633.60	1145.51
633.95	1138.29
634.29	1131.28
634.64	1124.52
634.98	1116.97
635.32	1109.96
635.67	1103.42
636.01	1096.68
636.36	1089.85
636.70	1083.32
637.05	1076.72
637.39	1070.22
637.73	1063.69
638.08	1057.83
638.42	1051.86
638.77	1045.42
639.11	1038.74
639.45	1032.36
639.80	1025.77
640.14	1019.35
640.49	1012.82
640.83	1006.51
641.17	1000.33
641.52	993.98
641.86	987.58
642.20	981.80
642.55	975.40
642.89	968.87
643.23	962.28
643.58	956.51
643.92	950.30
644.26	944.19
644.61	938.21
644.95	932.18
645.29	925.56
645.64	918.80
645.98	912.46
646.32	906.70
646.66	900.66
647.01	894.88
647.35	889.12
647.69	883.29
648.04	877.69
648.38	871.84
648.72	865.89
649.06	859.84
649.41	854.01
649.75	847.99
650.09	842.04
650.43	836.30
650.78	830.14
651.12	824.18
651.46	818.52
651.80	812.78
652.14	807.44
652.49	802.09
652.83	796.99
653.17	791.26
653.51	785.50
653.85	780.11
654.20	774.45
654.54	768.46
654.88	762.73
655.22	756.84
655.56	751.17
655.90	745.76
656.25	740.50
656.59	735.12
656.93	730.12
657.27	724.97
657.61	719.56
657.95	714.49
658.29	709.41
658.64	704.17
658.98	698.95
659.32	693.42
659.66	688.23
660.00	682.84
660.34	677.91
660.68	673.03
661.02	668.00
661.36	663.21
661.70	658.68
662.05	654.35
662.39	650.12
662.73	645.71
663.07	641.27
663.41	636.82
663.75	632.29
664.09	627.73
664.43	623.39
664.77	619.27
665.11	614.99
665.45	610.85
665.79	606.69
666.13	602.43
666.47	598.30
666.81	594.15
667.15	590.06
667.49	586.18
667.83	582.38
668.17	578.47
668.51	574.47
668.85	570.48
669.19	566.56
669.53	562.65
669.87	558.72
670.21	555.01
670.55	551.41
670.89	548.02
671.23	544.52
671.57	540.93
671.91	537.40
672.25	533.86
672.58	530.33
672.92	526.90
673.26	523.75
673.60	520.62
673.94	517.52
674.28	514.62
674.62	511.62
674.96	508.44
675.30	505.48
675.64	502.49
675.97	499.68
676.31	496.83
676.65	493.90
676.99	491.18
677.33	488.31
677.67	485.43
678.01	482.34
678.34	479.34
678.68	476.45
679.02	473.67
679.36	470.86
679.70	468.18
680.04	465.44
680.37	462.55
680.71	459.70
681.05	457.07
681.39	454.30
681.73	451.64
682.06	449.19
682.40	446.66
682.74	444.18
683.08	441.63
683.42	439.04
683.75	436.56
684.09	434.00
684.43	431.53
684.77	429.06
685.10	426.68
685.44	424.41
685.78	422.08
686.12	419.79
686.45	417.49
686.79	415.17
687.13	412.96
687.46	410.79
687.80	408.63
688.14	406.38
688.48	404.35
688.81	402.12
689.15	399.91
689.49	397.75
689.82	395.66
690.16	393.55
690.50	391.60
690.83	389.59
691.17	387.63
691.51	385.71
691.84	383.84
692.18	381.95
692.52	379.96
692.85	378.06
693.19	376.19
693.52	374.43
693.86	372.60
694.20	370.83
694.53	369.06
694.87	367.23
695.21	365.48
695.54	363.65
695.88	361.95
696.21	360.29
696.55	358.59
696.88	356.90
697.22	355.26
697.56	353.67
697.89	352.07
698.23	350.46
698.56	348.88
698.90	347.32
699.23	345.65
699.57	344.12
699.90	342.60
700.24	341.10
700.58	339.58
700.91	338.11
701.25	336.66
701.58	335.28
701.92	333.96
702.25	332.60
702.59	331.29
702.92	329.95
703.26	328.61
703.59	327.38
703.93	326.21
704.26	325.01
704.60	323.70
704.93	322.41
705.26	321.16
705.60	320.00
705.93	318.85
706.27	317.86
706.60	316.83
706.94	315.73
707.27	314.59
707.61	313.50
707.94	312.46
708.27	311.39
708.61	310.33
708.94	309.31
709.28	308.30
709.61	307.29
709.94	306.33
710.28	305.32
710.61	304.30
710.95	303.20
711.28	302.29
711.61	301.33
711.95	300.39
712.28	299.43
712.61	298.41
712.95	297.47
713.28	296.61
713.61	295.70
713.95	294.85
714.28	293.99
714.61	293.14
714.95	292.28
715.28	291.42
715.61	290.53
715.95	289.66
716.28	288.80
716.61	287.93
716.95	287.15
717.28	286.39
717.61	285.61
717.94	284.85
718.28	284.01
718.61	283.27
718.94	282.60
719.27	281.92
719.61	281.27
719.94	280.62
720.27	279.82
720.60	279.14
720.94	278.46
721.27	277.86
721.60	277.25
721.93	276.62
722.27	276.04
722.60	275.45
722.93	274.86
723.26	274.34
723.59	273.82
723.93	273.26
724.26	272.70
724.59	272.15
724.92	271.65
725.25	271.15
725.59	270.63
725.92	270.10
726.25	269.63
726.58	269.12
726.91	268.57
727.24	268.13
727.57	267.68
727.91	267.17
728.24	266.70
728.57	266.21
728.90	265.77
729.23	265.28
729.56	264.88
729.89	264.43
730.22	263.93
730.55	263.45
730.89	262.97
731.22	262.52
731.55	262.08
731.88	261.67
732.21	261.27
732.54	260.84
732.87	260.42
733.20	259.99
733.53	259.65
733.86	259.32
734.19	258.88
734.52	258.47
734.85	258.16
735.18	257.74
735.51	257.38
735.84	257.01
736.17	256.68
736.50	256.29
736.83	256.06
737.16	255.73
737.49	255.43
737.82	255.12
738.15	254.80
738.48	254.45
738.81	254.09
739.14	253.77
739.47	253.47
739.80	253.18
740.13	252.90
740.46	252.56
740.79	252.23
741.12	251.95
741.45	251.67
741.78	251.32
742.11	251.05
742.44	250.74
742.77	250.49
743.10	250.23
743.43	249.89
743.75	249.55
744.08	249.41
744.41	249.12
744.74	248.84
745.07	248.56
745.40	248.32
745.73	248.11
746.06	247.82
746.39	247.56
746.71	247.27
747.04	246.98
747.37	246.70
747.70	246.47
748.03	246.23
748.36	245.97
748.68	245.73
749.01	245.43
749.34	245.20
749.67	244.96
750.00	244.71
750.33	244.58
750.65	244.30
750.98	243.95
751.31	243.72
751.64	243.49
751.97	243.31
752.29	243.08
752.62	242.81
752.95	242.62
753.28	242.40
753.60	242.22
753.93	242.04
754.26	241.85
754.59	241.58
754.91	241.39
755.24	241.19
755.57	241.02
755.90	240.86
756.22	240.65
756.55	240.42
756.88	240.22
757.20	239.97
757.53	239.80
757.86	239.60
758.19	239.45
758.51	239.29
758.84	239.05
759.17	238.91
759.49	238.75
759.82	238.60
760.15	238.46
760.47	238.28
760.80	238.11
761.13	237.95
761.45	237.80
761.78	237.63
762.11	237.48
762.43	237.31
762.76	237.17
763.08	237.10
763.41	236.97
763.74	236.80
764.06	236.66
764.39	236.52
764.71	236.37
765.04	236.19
765.37	236.06
765.69	235.95
766.02	235.81
766.34	235.70
766.67	235.56
767.00	235.42
767.32	235.36
767.65	235.30
767.97	235.17
768.30	235.08
768.62	234.95
768.95	234.84
769.27	234.72
769.60	234.65
769.92	234.52
770.25	234.39
770.57	234.30
770.90	234.22
771.22	234.11
771.55	234.06
771.87	233.98
772.20	233.87
772.52	233.87
772.85	233.90
773.17	233.79
773.50	233.68
773.82	233.60
774.15	233.46
774.47	233.31
774.80	233.23
775.12	233.14
775.45	233.08
775.77	233.02
776.09	232.97
776.42	232.86
776.74	232.79
777.07	232.73
777.39	232.67
777.72	232.58
778.04	232.53
778.36	232.43
778.69	232.37
779.01	232.36
779.33	232.22
779.66	232.05
779.98	232.00
780.31	231.93
780.63	231.91
780.95	231.86
781.28	231.84
781.60	231.80
781.92	231.72
782.25	231.68
782.57	231.64
782.89	231.56
783.22	231.49
783.54	231.44
783.86	231.40
784.19	231.35
784.51	231.34
784.83	231.30
785.16	231.26
785.48	231.25
785.80	231.17
786.12	231.12
786.45	231.09
786.77	231.06
787.09	231.00
787.42	230.93
787.74	230.93
788.06	230.87
788.38	230.84
788.71	230.81
789.03	230.79
789.35	230.76
789.67	230.73
789.99	230.72
790.32	230.64
790.64	230.65
790.96	230.65
791.28	230.57
791.61	230.51
791.93	230.45
792.25	230.36
792.57	230.39
792.89	230.31
793.21	230.28
793.54	230.25
793.86	230.22
794.18	230.20
794.50	230.12
794.82	230.06
795.14	230.00
795.47	230.01
795.79	229.94
796.11	229.84
796.43	229.79
796.75	229.72
797.07	229.68
797.39	229.63
797.71	229.53
798.04	229.49
798.36	229.45
798.68	229.41
799.00	229.42
799.32	229.32
799.64	229.33
799.96	229.26
800.28	229.20
800.60	229.16
800.92	229.07
801.24	229.04
801.56	229.03
801.89	228.99
802.21	228.93
802.53	228.89
802.85	228.87
803.17	228.87
803.49	228.79
803.81	228.76
804.13	228.70
804.45	228.66
804.77	228.65
805.09	228.62
805.41	228.60
805.73	228.51
806.05	228.47
806.37	228.40
806.69	228.37
807.01	228.36
807.33	228.33
807.65	228.28
807.97	228.30
808.28	228.24
808.60	228.19
808.92	228.15
809.24	228.18
809.56	228.17
809.88	228.13
810.20	228.15
810.52	228.15
810.84	228.13
811.16	228.11
811.48	228.06
811.80	228.05
812.12	228.03
812.43	228.05
812.75	228.04
813.07	228.04
813.39	228.03
813.71	227.99
814.03	227.97
814.35	227.96
814.67	227.87
814.98	227.84
815.30	227.83
815.62	227.77
815.94	227.67
816.26	227.67
816.58	227.62
816.89	227.62
817.21	227.55
817.53	227.53
817.85	227.51
818.17	227.51
818.48	227.47
818.80	227.48
819.12	227.45
819.44	227.40
819.76	227.39
820.07	227.35
820.39	227.33
820.71	227.31
821.03	227.28
821.34	227.27
821.66	227.27
821.98	227.30
822.30	227.30
822.61	227.37
822.93	227.32
823.25	227.30
823.57	227.29
823.88	227.33
824.20	227.33
824.52	227.32
824.83	227.31
825.15	227.29
825.47	227.27
825.79	227.27
826.10	227.26
826.42	227.23
826.74	227.29
827.05	227.27
827.37	227.25
827.69	227.29
828.00	227.32
828.32	227.33
828.64	227.29
828.95	227.36
829.27	227.32
829.58	227.35
829.90	227.37
830.22	227.39
830.53	227.32
830.85	227.30
831.17	227.30
831.48	227.29
831.80	227.28
832.11	227.26
832.43	227.23
832.75	227.25
833.06	227.31
833.38	227.23
833.69	227.23
834.01	227.24
834.32	227.21
834.64	227.19
834.96	227.20
835.27	227.19
835.59	227.16
835.90	227.13
836.22	227.07
836.53	227.07
836.85	227.02
837.16	227.13
837.48	227.12
837.79	227.12
838.11	227.11
838.42	227.08
838.74	227.09
839.05	227.08
839.37	227.04
839.68	226.95
840.00	226.94
840.31	226.96
840.63	226.94
840.94	226.90
841.26	226.90
841.57	226.89
841.88	226.90
842.20	226.82
842.51	226.79
842.83	226.79
843.14	226.83
843.46	226.82
843.77	226.75
844.08	226.73
844.40	226.68
844.71	226.65
845.03	226.63
845.34	226.60
845.65	226.57
845.97	226.58
846.28	226.58
846.60	226.56
846.91	226.54
847.22	226.55
847.54	226.57
847.85	226.52
848.16	226.47
848.48	226.45
848.79	226.49
849.10	226.52
849.42	226.54
849.73	226.44
850.04	226.44
850.36	226.41
850.67	226.39
850.98	226.39
851.30	226.40
851.61	226.41
851.92	226.43
852.23	226.45
852.55	226.44
852.86	226.45
853.17	226.49
853.49	226.47
853.80	226.45
854.11	226.44
854.42	226.48
854.74	226.46
855.05	226.47
855.36	226.44
855.67	226.43
855.99	226.41
856.30	226.48
856.61	226.46
856.92	226.44
857.23	226.46
857.55	226.47
857.86	226.49
858.17	226.50
858.48	226.46
858.79	226.46
859.11	226.48
859.42	226.45
859.73	226.39
860.04	226.42
860.35	226.39
860.66	226.36
860.98	226.35
861.29	226.38
861.60	226.35
861.91	226.36
862.22	226.36
862.53	226.35
862.84	226.29
863.16	226.33
863.47	226.32
863.78	226.36
864.09	226.39
864.40	226.33
864.71	226.33
865.02	226.36
865.33	226.35
865.64	226.30
865.95	226.31
866.27	226.41
866.58	226.38
866.89	226.41
867.20	226.41
867.51	226.39
867.82	226.35
868.13	226.40
868.44	226.39
868.75	226.38
869.06	226.38
869.37	226.38
869.68	226.34
869.99	226.35
870.30	226.33
870.61	226.31
870.92	226.34
871.23	226.33
871.54	226.31
871.85	226.34
872.16	226.37
872.47	226.35
872.78	226.27
873.09	226.27
873.40	226.25
873.71	226.25
874.02	226.28
874.33	226.26
874.64	226.22
874.95	226.23
875.26	226.21
875.56	226.19
875.87	226.18
876.18	226.17
876.49	226.26
876.80	226.21
877.11	226.19
877.42	226.20
877.73	226.21
878.04	226.22
878.35	226.18
878.66	226.18
878.96	226.18
879.27	226.18
879.58	226.19
879.89	226.19
880.20	226.22
880.51	226.21
880.82	226.23
881.12	226.21
881.43	226.16
881.74	226.16
882.05	226.15
882.36	226.15
882.67	226.18
882.97	226.05
883.28	226.06
883.59	226.04
883.90	226.00
884.21	225.99
884.51	225.94
884.82	225.94
885.13	225.93
885.44	225.92
885.74	225.92
886.05	225.91
886.36	225.89
886.67	225.85
886.98	225.87
887.28	225.86
887.59	225.88
887.90	225.92
888.20	225.90
888.51	225.92
888.82	225.92
889.13	225.91
889.43	226.00
889.74	225.97
890.05	225.99
890.35	226.00
890.66	226.01
890.97	225.99
891.28	225.99
891.58	226.00
891.89	225.99
892.20	225.99
892.50	225.97
892.81	225.97
893.12	226.01
893.42	225.96
893.73	225.98
894.04	225.96
894.34	225.97
894.65	225.97
894.95	225.96
895.26	225.96
895.57	226.01
895.87	225.91
896.18	225.96
896.48	225.95
896.79	225.93
897.10	225.97
897.40	225.99
897.71	226.01
898.01	225.98
898.32	226.02
898.63	226.03
898.93	226.07
899.24	226.09
899.54	226.05
899.85	226.03
900.15	226.01
900.46	226.04
900.76	226.07
901.07	226.06
901.38	226.08
901.68	226.08
901.99	226.03
902.29	226.09
902.60	226.09
902.90	226.11
903.21	226.13
903.51	226.12
903.82	226.14
904.12	226.17
904.43	226.18
904.73	226.19
905.03	226.19
905.34	226.29
905.64	226.27
905.95	226.30
906.25	226.34
906.56	226.33
906.86	226.34
907.17	226.32
907.47	226.33
907.77	226.34
908.08	226.33
908.38	226.35
908.69	226.35
908.99	226.36
909.30	226.36
909.60	226.37
909.90	226.38
910.21	226.35
910.51	226.31
910.81	226.33
911.12	226.31
911.42	226.33
911.73	226.21
912.03	226.25
912.33	226.23
912.64	226.24
912.94	226.25
913.24	226.21
913.55	226.19
913.85	226.19
914.15	226.19
914.46	226.21
914.76	226.21
915.06	226.22
915.37	226.21
915.67	226.19
915.97	226.17
916.27	226.14
916.58	226.16
916.88	226.15
917.18	226.14
917.49	226.21
917.79	226.18
918.09	226.19
918.39	226.21
918.70	226.24
919.00	226.23
919.30	226.28
919.60	226.29
919.91	226.28
920.21	226.29
920.51	226.23
920.81	226.19
921.12	226.19
921.42	226.14
921.72	226.16
922.02	226.18
922.32	226.21
922.63	226.20
922.93	226.24
923.23	226.27
923.53	226.27
923.83	226.18
924.13	226.17
924.44	226.15
924.74	226.14
925.04	226.13
925.34	226.12
925.64	226.07
925.94	226.09
926.24	226.13
926.55	226.12
926.85	226.15
927.15	226.13
927.45	226.13
927.75	226.16
928.05	226.16
928.35	226.12
928.65	226.11
928.95	226.11
929.26	226.07
929.56	226.07
929.86	226.04
930.16	226.05
930.46	226.07
930.76	226.07
931.06	226.02
931.36	225.99
931.66	225.99
931.96	226.03
932.26	225.98
932.56	225.97
932.86	225.96
933.16	225.97
933.46	225.96
933.76	225.91
934.06	225.92
934.36	225.91
934.66	225.92
934.96	225.92
935.26	225.92
935.56	225.95
935.86	225.92
936.16	225.92
936.46	225.91
936.76	225.87
937.06	225.87
937.36	225.90
937.66	225.92
937.96	225.92
938.26	225.87
938.56	225.88
938.86	225.88
939.16	225.91
939.46	225.93
939.76	225.94
940.06	225.95
940.35	225.94
940.65	225.89
940.95	225.92
941.25	225.88
941.55	225.86
941.85	225.86
942.15	225.89
942.45	225.91
942.75	225.91
943.04	225.91
943.34	225.90
943.64	225.86
943.94	225.83
944.24	225.82
944.54	225.84
944.84	225.86
945.13	225.85
945.43	225.82
945.73	225.80
946.03	225.79
946.33	225.82
946.62	225.79
946.92	225.80
947.22	225.78
947.52	225.81
947.82	225.80
948.11	225.78
948.41	225.76
948.71	225.77
949.01	225.78
949.31	225.76
949.60	225.80
949.90	225.82
950.20	225.81
950.50	225.80
950.79	225.80
951.09	225.78
951.39	225.79
951.69	225.80
951.98	225.82
952.28	225.84
952.58	225.83
952.87	225.88
953.17	225.89
953.47	225.87
953.76	225.89
954.06	225.91
954.36	225.89
954.66	225.90
954.95	225.88
955.25	225.88
955.55	225.93
955.84	225.90
956.14	225.93
956.44	225.97
956.73	225.97
957.03	225.96
957.32	226.02
957.62	226.00
957.92	226.03
958.21	226.04
958.51	226.12
958.81	226.15
959.10	226.15
959.40	226.19
959.69	226.22
959.99	226.24
960.29	226.22
960.58	226.19
960.88	226.26
961.17	226.24
961.47	226.26
961.76	226.26
962.06	226.26
962.36	226.23
962.65	226.26
962.95	226.29
963.24	226.30
963.54	226.28
963.83	226.26
964.13	226.24
964.42	226.19
964.72	226.14
965.01	226.12
965.31	226.10
965.60	226.05
965.90	226.08
966.19	226.06
966.49	226.09
966.78	226.12
967.08	226.11
967.37	226.11
967.67	226.08
967.96	226.08
968.26	226.09
968.55	226.12
968.85	226.10
969.14	226.06
969.43	226.06
969.73	226.04
970.02	226.05
970.32	226.05
970.61	226.05
970.91	226.01
971.20	226.02
971.49	226.00
971.79	226.01
972.08	225.95
972.38	225.95
972.67	225.93
972.96	225.92
973.26	225.89
973.55	225.92
973.85	225.92
974.14	225.88
974.43	225.89
974.73	225.87
975.02	225.83
975.31	225.84
975.61	225.84
975.90	225.85
976.19	225.83
976.49	225.85
976.78	225.85
977.07	225.85
977.37	225.81
977.66	225.76
977.95	225.77
978.24	225.75
978.54	225.73
978.83	225.72
979.12	225.75
979.42	225.74
979.71	225.72
980.00	225.70
980.29	225.71
980.59	225.68
980.88	225.72
981.17	225.71
981.46	225.71
981.76	225.69
982.05	225.71
982.34	225.71
982.63	225.70
982.93	225.71
983.22	225.76
983.51	225.83
983.80	225.88
984.09	225.87
984.39	225.86
984.68	225.84
984.97	225.87
985.26	225.83
985.55	225.82
985.85	225.83
986.14	225.86
986.43	225.88
986.72	225.86
987.01	225.82
987.30	225.82
987.59	225.82
987.89	225.83
988.18	225.77
988.47	225.75
988.76	225.75
989.05	225.72
989.34	225.67
989.63	225.65
989.92	225.66
990.22	225.66
990.51	225.67
990.80	225.72
991.09	225.72
991.38	225.75
991.67	225.76
991.96	225.73
992.25	225.73
992.54	225.71
992.83	225.72
993.12	225.69
993.41	225.72
993.70	225.76
993.99	225.77
994.28	225.80
994.58	225.85
994.87	225.84
995.16	225.86
995.45	225.87
995.74	225.83
996.03	225.85
996.32	225.89
996.61	225.91
996.90	225.89
997.19	225.87
997.48	225.88
997.77	225.86
998.06	225.86
998.34	225.86
998.63	225.88
998.92	225.89
999.21	225.91
999.50	225.89
999.79	225.86
1000.08	225.87
1000.37	225.87
1000.66	225.86
1000.95	225.88
1001.24	225.89
1001.53	225.90
1001.82	225.91
1002.11	225.90
1002.40	225.88
1002.68	225.93
1002.97	226.00
1003.26	226.00
1003.55	225.96
1003.84	225.98
1004.13	226.03
1004.42	226.03
1004.71	226.04
1004.99	226.03
1005.28	226.06
1005.57	226.05
1005.86	226.05
1006.15	226.04
1006.44	226.06
1006.72	226.06
1007.01	226.04
1007.30	226.03
1007.59	226.04
1007.88	226.06
1008.17	226.05
1008.45	226.04
1008.74	226.01
1009.03	225.95
1009.32	225.95
1009.60	225.98
1009.89	225.93
1010.18	225.90
1010.47	225.88
1010.76	225.88
1011.04	225.88
1011.33	225.89
1011.62	225.91
1011.91	225.94
1012.19	225.94
1012.48	225.90
1012.77	225.89
1013.05	225.92
1013.34	225.93
1013.63	225.90
1013.92	225.89
1014.20	225.88
1014.49	225.88
1014.78	225.87
1015.06	225.83
1015.35	225.84
1015.64	225.85
1015.92	225.88
1016.21	225.86
1016.50	225.89
1016.78	225.87
1017.07	225.87
1017.36	225.85
1017.64	225.84
1017.93	225.82
1018.22	225.79
1018.50	225.80
1018.79	225.81
1019.08	225.78
1019.36	225.76
1019.65	225.76
1019.93	225.78
1020.22	225.79
1020.51	225.83
1020.79	225.83
1021.08	225.26
1021.36	225.54
1021.65	225.79
1021.94	226.00
1022.22	225.62
1022.51	225.77
1022.79	226.12
1023.08	225.86
1023.36	226.68
1023.65	225.82
>>>>>End Processed Spectral Data<<<<<
