SpectraSuite Data File
++++++++++++++++++++++++++++++++++++
Date: Fri Feb 01 16:13:48 EST 2013
User: group
Dark Spectrum Present: No
Reference Spectrum Present: No
Number of Sampled Component Spectra: 1
Spectrometers: USB2E7196
Integration Time (usec): 35000 (USB2E7196)
Spectra Averaged: 100 (USB2E7196)
Boxcar Smoothing: 10 (USB2E7196)
Correct for Electrical Dark: No (USB2E7196)
Strobe/Lamp Enabled: No (USB2E7196)
Correct for Detector Non-linearity: No (USB2E7196)
Correct for Stray Light: No (USB2E7196)
Number of Pixels in Processed Spectrum: 2048
>>>>>Begin Processed Spectral Data<<<<<
339.09	0.00
339.48	214.45
339.86	216.14
340.24	217.14
340.63	218.60
341.01	220.74
341.39	221.34
341.78	222.29
342.16	223.81
342.54	224.71
342.93	212.68
343.31	223.44
343.69	223.95
344.07	224.42
344.46	224.83
344.84	225.22
345.22	225.49
345.60	225.71
345.99	225.89
346.37	226.02
346.75	226.12
347.13	226.17
347.52	226.20
347.90	226.30
348.28	226.34
348.66	226.40
349.05	226.35
349.43	226.41
349.81	226.50
350.19	226.55
350.57	226.58
350.96	226.65
351.34	226.69
351.72	226.76
352.10	226.83
352.48	226.92
352.87	226.96
353.25	227.03
353.63	227.09
354.01	227.18
354.39	227.26
354.77	227.32
355.15	227.44
355.54	227.51
355.92	227.58
356.30	227.61
356.68	227.76
357.06	227.87
357.44	227.91
357.82	227.95
358.20	228.04
358.58	228.12
358.97	228.18
359.35	228.30
359.73	228.42
360.11	228.46
360.49	228.52
360.87	228.59
361.25	228.66
361.63	228.75
362.01	228.79
362.39	228.81
362.77	228.84
363.15	228.86
363.53	228.88
363.91	228.87
364.29	228.90
364.67	228.80
365.05	228.80
365.43	228.84
365.81	228.85
366.19	228.89
366.57	228.93
366.95	228.91
367.33	228.86
367.71	228.85
368.09	228.88
368.47	228.86
368.85	228.83
369.23	228.79
369.61	228.75
369.99	228.77
370.37	228.75
370.75	228.79
371.13	228.75
371.51	228.70
371.89	228.65
372.27	228.61
372.65	228.58
373.03	228.52
373.41	228.46
373.78	228.40
374.16	228.30
374.54	228.19
374.92	228.14
375.30	228.07
375.68	227.98
376.06	227.90
376.44	227.84
376.82	227.77
377.19	227.72
377.57	227.63
377.95	227.52
378.33	227.43
378.71	227.29
379.09	227.25
379.47	227.21
379.84	227.16
380.22	227.06
380.60	226.97
380.98	226.92
381.36	226.83
381.73	226.75
382.11	226.68
382.49	226.62
382.87	226.54
383.25	226.48
383.62	226.53
384.00	226.47
384.38	226.41
384.76	226.38
385.13	226.32
385.51	226.27
385.89	226.18
386.27	226.15
386.64	226.10
387.02	226.00
387.40	225.96
387.78	225.89
388.15	225.85
388.53	225.84
388.91	225.78
389.29	225.77
389.66	225.74
390.04	225.70
390.42	225.69
390.79	225.68
391.17	225.67
391.55	225.53
391.92	225.51
392.30	225.51
392.68	225.47
393.05	225.49
393.43	225.52
393.81	225.56
394.18	225.57
394.56	225.61
394.94	225.66
395.31	225.66
395.69	225.73
396.06	225.79
396.44	225.82
396.82	225.84
397.19	225.91
397.57	225.97
397.95	226.05
398.32	226.09
398.70	226.15
399.07	226.24
399.45	226.31
399.82	226.37
400.20	226.41
400.58	226.49
400.95	226.54
401.33	226.66
401.70	226.81
402.08	226.90
402.45	226.98
402.83	227.09
403.20	227.23
403.58	227.33
403.95	227.48
404.33	227.63
404.71	227.76
405.08	227.92
405.46	228.07
405.83	228.21
406.21	228.35
406.58	228.53
406.96	228.65
407.33	228.84
407.70	229.03
408.08	229.32
408.45	229.55
408.83	229.77
409.20	229.94
409.58	230.12
409.95	230.39
410.33	230.68
410.70	230.92
411.08	231.24
411.45	231.54
411.82	231.85
412.20	232.21
412.57	232.64
412.95	232.94
413.32	233.32
413.69	233.72
414.07	234.15
414.44	234.63
414.82	235.14
415.19	235.68
415.56	236.23
415.94	236.78
416.31	237.41
416.68	238.03
417.06	238.75
417.43	239.46
417.81	240.22
418.18	240.99
418.55	241.80
418.93	242.65
419.30	243.51
419.67	244.43
420.04	245.39
420.42	246.34
420.79	247.52
421.16	248.69
421.54	249.90
421.91	251.16
422.28	252.42
422.66	253.76
423.03	255.05
423.40	256.41
423.77	257.80
424.15	259.19
424.52	260.71
424.89	262.29
425.26	263.83
425.64	265.28
426.01	266.85
426.38	268.50
426.75	270.13
427.13	271.86
427.50	273.64
427.87	275.48
428.24	277.36
428.61	279.10
428.99	281.04
429.36	283.10
429.73	285.08
430.10	287.03
430.47	289.05
430.85	291.16
431.22	293.35
431.59	295.72
431.96	297.96
432.33	300.40
432.70	302.79
433.08	305.59
433.45	308.17
433.82	310.75
434.19	313.65
434.56	316.44
434.93	319.08
435.30	321.67
435.68	324.54
436.05	327.38
436.42	330.21
436.79	332.72
437.16	335.43
437.53	338.26
437.90	341.08
438.27	343.80
438.64	346.61
439.01	349.23
439.38	351.49
439.75	353.67
440.13	356.14
440.50	358.45
440.87	360.28
441.24	362.24
441.61	364.42
441.98	365.91
442.35	367.77
442.72	369.64
443.09	371.48
443.46	372.49
443.83	373.08
444.20	373.53
444.57	374.40
444.94	374.70
445.31	375.06
445.68	375.45
446.05	375.55
446.42	375.18
446.79	374.76
447.16	374.26
447.53	373.91
447.90	372.76
448.27	371.63
448.64	370.06
449.01	368.92
449.37	366.97
449.74	365.08
450.11	362.81
450.48	360.32
450.85	357.82
451.22	355.70
451.59	353.70
451.96	351.79
452.33	349.16
452.70	346.78
453.07	343.95
453.43	341.03
453.80	338.27
454.17	335.62
454.54	333.07
454.91	330.37
455.28	327.74
455.65	325.29
456.02	322.87
456.38	320.71
456.75	318.06
457.12	315.77
457.49	313.59
457.86	311.42
458.23	309.59
458.59	307.51
458.96	305.40
459.33	303.52
459.70	301.62
460.07	300.12
460.43	298.42
460.80	296.81
461.17	295.39
461.54	293.87
461.91	292.42
462.27	290.99
462.64	289.72
463.01	288.38
463.38	287.10
463.74	285.73
464.11	284.55
464.48	283.54
464.85	282.47
465.21	281.58
465.58	280.64
465.95	279.55
466.32	278.68
466.68	277.78
467.05	276.90
467.42	276.07
467.78	275.15
468.15	274.26
468.52	273.60
468.88	272.74
469.25	272.00
469.62	271.45
469.98	270.79
470.35	270.17
470.72	269.53
471.08	268.84
471.45	268.29
471.82	267.76
472.18	267.18
472.55	266.72
472.92	266.20
473.28	265.79
473.65	265.33
474.02	264.88
474.38	264.56
474.75	264.26
475.11	263.85
475.48	263.57
475.85	263.37
476.21	263.17
476.58	263.01
476.94	262.84
477.31	262.65
477.67	262.48
478.04	262.40
478.41	262.40
478.77	262.44
479.14	262.40
479.50	262.42
479.87	262.46
480.23	262.55
480.60	262.64
480.96	262.75
481.33	262.97
481.69	263.15
482.06	263.35
482.42	263.53
482.79	263.84
483.15	264.16
483.52	264.54
483.88	264.89
484.25	265.30
484.61	265.74
484.98	266.20
485.34	266.79
485.71	267.37
486.07	267.97
486.44	268.56
486.80	269.27
487.17	269.99
487.53	270.84
487.90	271.71
488.26	272.63
488.62	273.56
488.99	274.52
489.35	275.60
489.72	276.71
490.08	277.94
490.44	279.16
490.81	280.50
491.17	281.83
491.54	283.32
491.90	284.84
492.26	286.49
492.63	288.19
492.99	289.94
493.36	291.85
493.72	293.89
494.08	295.99
494.45	298.24
494.81	300.63
495.17	303.05
495.54	305.61
495.90	308.31
496.26	311.13
496.63	314.14
496.99	317.23
497.35	320.47
497.72	323.86
498.08	327.42
498.44	331.12
498.80	335.09
499.17	339.14
499.53	343.34
499.89	347.74
500.26	352.29
500.62	356.98
500.98	361.94
501.34	366.99
501.71	372.29
502.07	377.70
502.43	383.33
502.79	389.22
503.16	395.32
503.52	401.60
503.88	408.01
504.24	414.64
504.60	421.57
504.97	428.71
505.33	436.06
505.69	443.78
506.05	451.57
506.41	459.45
506.78	467.60
507.14	476.05
507.50	484.74
507.86	493.71
508.22	502.94
508.59	512.10
508.95	521.67
509.31	531.54
509.67	541.64
510.03	551.99
510.39	562.50
510.75	573.27
511.12	584.19
511.48	595.54
511.84	607.03
512.20	618.52
512.56	630.51
512.92	642.67
513.28	655.03
513.64	667.50
514.00	680.24
514.37	693.15
514.73	706.16
515.09	719.13
515.45	732.47
515.81	746.02
516.17	760.04
516.53	774.22
516.89	788.39
517.25	802.57
517.61	816.87
517.97	831.24
518.33	845.68
518.69	860.40
519.05	875.29
519.41	890.37
519.77	905.82
520.13	921.17
520.49	936.52
520.85	951.88
521.21	967.47
521.57	983.58
521.93	999.29
522.29	1015.65
522.65	1031.93
523.01	1048.05
523.37	1064.02
523.73	1080.20
524.09	1096.19
524.45	1112.44
524.81	1129.05
525.17	1145.70
525.53	1162.50
525.89	1179.26
526.25	1196.05
526.61	1212.43
526.97	1229.07
527.33	1245.54
527.68	1261.98
528.04	1278.41
528.40	1294.94
528.76	1312.00
529.12	1328.47
529.48	1345.33
529.84	1361.29
530.20	1377.91
530.56	1394.84
530.91	1412.13
531.27	1428.82
531.63	1445.22
531.99	1461.76
532.35	1477.67
532.71	1493.50
533.07	1509.77
533.42	1525.71
533.78	1541.69
534.14	1557.86
534.50	1573.16
534.86	1588.94
535.21	1604.33
535.57	1620.12
535.93	1635.53
536.29	1650.35
536.65	1665.38
537.00	1680.05
537.36	1695.34
537.72	1709.63
538.08	1723.80
538.44	1737.53
538.79	1751.26
539.15	1764.82
539.51	1778.41
539.87	1792.71
540.22	1806.41
540.58	1820.10
540.94	1833.17
541.29	1845.89
541.65	1858.47
542.01	1871.59
542.37	1883.75
542.72	1896.00
543.08	1907.65
543.44	1919.93
543.79	1930.93
544.15	1941.90
544.51	1953.39
544.87	1964.27
545.22	1975.10
545.58	1985.53
545.94	1995.24
546.29	2005.05
546.65	2014.95
547.01	2024.34
547.36	2032.90
547.72	2041.43
548.07	2049.31
548.43	2057.50
548.79	2065.53
549.14	2073.14
549.50	2080.44
549.86	2088.13
550.21	2095.45
550.57	2102.78
550.92	2109.40
551.28	2116.47
551.64	2123.58
551.99	2130.09
552.35	2136.21
552.70	2142.36
553.06	2148.38
553.41	2154.76
553.77	2160.70
554.13	2166.63
554.48	2172.56
554.84	2178.16
555.19	2183.41
555.55	2188.61
555.90	2193.20
556.26	2198.10
556.61	2202.76
556.97	2207.13
557.32	2211.18
557.68	2215.19
558.03	2219.43
558.39	2223.02
558.74	2227.60
559.10	2231.34
559.45	2235.04
559.81	2239.23
560.16	2243.05
560.52	2246.21
560.87	2249.73
561.23	2252.36
561.58	2255.31
561.94	2257.83
562.29	2259.95
562.64	2262.69
563.00	2265.09
563.35	2268.38
563.71	2271.51
564.06	2274.72
564.42	2277.50
564.77	2280.15
565.12	2282.67
565.48	2284.60
565.83	2286.55
566.19	2287.95
566.54	2288.87
566.89	2290.01
567.25	2290.73
567.60	2292.19
567.96	2293.87
568.31	2294.54
568.66	2295.82
569.02	2296.54
569.37	2296.94
569.72	2298.03
570.08	2298.22
570.43	2298.27
570.78	2297.91
571.14	2296.48
571.49	2295.13
571.84	2294.97
572.20	2293.86
572.55	2292.73
572.90	2291.03
573.26	2289.71
573.61	2287.97
573.96	2286.37
574.31	2283.36
574.67	2280.41
575.02	2276.69
575.37	2273.36
575.72	2269.90
576.08	2266.55
576.43	2263.26
576.78	2259.59
577.13	2256.27
577.49	2253.03
577.84	2249.65
578.19	2245.90
578.54	2242.25
578.90	2238.10
579.25	2232.60
579.60	2227.66
579.95	2222.64
580.30	2217.67
580.66	2212.47
581.01	2207.54
581.36	2202.73
581.71	2198.76
582.06	2194.42
582.42	2190.10
582.77	2184.87
583.12	2180.05
583.47	2175.39
583.82	2170.45
584.17	2165.23
584.53	2159.87
584.88	2154.30
585.23	2148.49
585.58	2143.03
585.93	2137.49
586.28	2132.69
586.63	2127.69
586.98	2122.76
587.34	2117.99
587.69	2113.14
588.04	2107.93
588.39	2102.40
588.74	2095.81
589.09	2089.57
589.44	2082.79
589.79	2076.65
590.14	2071.12
590.49	2064.60
590.84	2058.19
591.19	2052.09
591.54	2045.66
591.89	2038.44
592.25	2031.87
592.60	2024.79
592.95	2017.34
593.30	2010.11
593.65	2002.61
594.00	1995.48
594.35	1988.10
594.70	1980.14
595.05	1973.12
595.40	1965.87
595.75	1958.37
596.10	1952.33
596.45	1945.67
596.80	1939.64
597.15	1933.10
597.50	1926.08
597.85	1919.67
598.19	1913.02
598.54	1906.08
598.89	1899.47
599.24	1893.55
599.59	1886.78
599.94	1880.55
600.29	1874.18
600.64	1867.46
600.99	1860.15
601.34	1853.39
601.69	1846.45
602.04	1839.57
602.39	1832.23
602.74	1825.47
603.08	1818.79
603.43	1812.02
603.78	1804.70
604.13	1797.30
604.48	1790.10
604.83	1783.22
605.18	1776.38
605.53	1768.56
605.87	1760.48
606.22	1753.22
606.57	1745.23
606.92	1737.88
607.27	1730.87
607.62	1724.04
607.96	1717.04
608.31	1710.43
608.66	1702.91
609.01	1695.50
609.36	1688.07
609.70	1680.09
610.05	1672.07
610.40	1664.45
610.75	1656.01
611.10	1648.36
611.44	1640.08
611.79	1631.99
612.14	1623.32
612.49	1614.04
612.83	1605.54
613.18	1597.44
613.53	1589.50
613.88	1580.90
614.22	1572.74
614.57	1563.88
614.92	1555.85
615.27	1548.29
615.61	1539.94
615.96	1531.74
616.31	1524.00
616.65	1516.61
617.00	1509.04
617.35	1501.29
617.70	1492.96
618.04	1484.61
618.39	1476.33
618.74	1468.62
619.08	1460.30
619.43	1452.76
619.78	1445.91
620.12	1438.87
620.47	1431.31
620.82	1423.05
621.16	1415.68
621.51	1407.93
621.85	1400.55
622.20	1391.99
622.55	1383.51
622.89	1375.63
623.24	1368.12
623.59	1360.76
623.93	1353.24
624.28	1345.97
624.62	1338.54
624.97	1331.34
625.32	1324.53
625.66	1317.50
626.01	1310.44
626.35	1303.09
626.70	1295.25
627.04	1287.61
627.39	1279.70
627.73	1272.33
628.08	1265.54
628.43	1258.39
628.77	1251.15
629.12	1243.52
629.46	1236.38
629.81	1228.97
630.15	1221.79
630.50	1214.38
630.84	1206.19
631.19	1198.20
631.53	1190.62
631.88	1183.00
632.22	1175.44
632.57	1168.06
632.91	1160.58
633.26	1153.10
633.60	1145.67
633.95	1138.52
634.29	1131.39
634.64	1124.70
634.98	1117.35
635.32	1110.08
635.67	1103.40
636.01	1096.72
636.36	1089.94
636.70	1083.36
637.05	1076.80
637.39	1070.37
637.73	1063.73
638.08	1057.83
638.42	1051.86
638.77	1045.53
639.11	1038.99
639.45	1032.53
639.80	1025.85
640.14	1019.47
640.49	1012.99
640.83	1006.66
641.17	1000.54
641.52	994.15
641.86	987.72
642.20	981.90
642.55	975.62
642.89	969.10
643.23	962.43
643.58	956.64
643.92	950.56
644.26	944.54
644.61	938.43
644.95	932.51
645.29	925.97
645.64	919.19
645.98	912.81
646.32	906.96
646.66	900.87
647.01	895.13
647.35	889.41
647.69	883.55
648.04	878.02
648.38	872.21
648.72	866.35
649.06	860.34
649.41	854.34
649.75	848.40
650.09	842.52
650.43	836.76
650.78	830.61
651.12	824.60
651.46	818.91
651.80	813.20
652.14	807.80
652.49	802.40
652.83	797.28
653.17	791.64
653.51	785.84
653.85	780.47
654.20	774.78
654.54	768.71
654.88	762.87
655.22	756.98
655.56	751.26
655.90	745.74
656.25	740.52
656.59	735.18
656.93	730.04
657.27	724.88
657.61	719.47
657.95	714.39
658.29	709.30
658.64	703.96
658.98	698.62
659.32	693.21
659.66	688.00
660.00	682.71
660.34	677.70
660.68	672.86
661.02	667.82
661.36	663.13
661.70	658.68
662.05	654.39
662.39	650.01
662.73	645.58
663.07	641.17
663.41	636.65
663.75	632.24
664.09	627.65
664.43	623.24
664.77	619.15
665.11	614.83
665.45	610.69
665.79	606.66
666.13	602.56
666.47	598.33
666.81	594.16
667.15	590.00
667.49	586.10
667.83	582.24
668.17	578.28
668.51	574.21
668.85	570.16
669.19	566.26
669.53	562.48
669.87	558.57
670.21	554.98
670.55	551.35
670.89	547.91
671.23	544.48
671.57	540.92
671.91	537.41
672.25	533.91
672.58	530.36
672.92	526.96
673.26	523.75
673.60	520.65
673.94	517.58
674.28	514.67
674.62	511.73
674.96	508.63
675.30	505.78
675.64	502.92
675.97	500.10
676.31	497.27
676.65	494.35
676.99	491.66
677.33	488.72
677.67	485.91
678.01	482.87
678.34	479.90
678.68	477.06
679.02	474.26
679.36	471.52
679.70	468.89
680.04	466.05
680.37	463.17
680.71	460.35
681.05	457.76
681.39	455.04
681.73	452.35
682.06	449.84
682.40	447.29
682.74	444.76
683.08	442.29
683.42	439.68
683.75	437.16
684.09	434.57
684.43	432.07
684.77	429.61
685.10	427.22
685.44	424.93
685.78	422.60
686.12	420.24
686.45	417.94
686.79	415.64
687.13	413.44
687.46	411.28
687.80	409.14
688.14	406.87
688.48	404.79
688.81	402.59
689.15	400.39
689.49	398.18
689.82	396.00
690.16	393.86
690.50	391.89
690.83	389.95
691.17	387.98
691.51	386.16
691.84	384.29
692.18	382.39
692.52	380.42
692.85	378.49
693.19	376.65
693.52	374.77
693.86	372.92
694.20	371.14
694.53	369.34
694.87	367.47
695.21	365.69
695.54	363.89
695.88	362.14
696.21	360.40
696.55	358.71
696.88	357.05
697.22	355.39
697.56	353.78
697.89	352.10
698.23	350.46
698.56	348.77
698.90	347.20
699.23	345.54
699.57	344.00
699.90	342.47
700.24	340.92
700.58	339.44
700.91	337.93
701.25	336.51
701.58	335.13
701.92	333.80
702.25	332.43
702.59	331.04
702.92	329.70
703.26	328.43
703.59	327.15
703.93	325.95
704.26	324.72
704.60	323.41
704.93	322.17
705.26	320.92
705.60	319.76
705.93	318.59
706.27	317.55
706.60	316.48
706.94	315.38
707.27	314.26
707.61	313.20
707.94	312.17
708.27	311.08
708.61	310.02
708.94	309.01
709.28	308.02
709.61	307.08
709.94	306.14
710.28	305.13
710.61	304.19
710.95	303.11
711.28	302.23
711.61	301.28
711.95	300.34
712.28	299.38
712.61	298.38
712.95	297.45
713.28	296.56
713.61	295.66
713.95	294.80
714.28	293.97
714.61	293.07
714.95	292.17
715.28	291.33
715.61	290.44
715.95	289.59
716.28	288.73
716.61	287.87
716.95	287.02
717.28	286.30
717.61	285.54
717.94	284.81
718.28	283.98
718.61	283.26
718.94	282.55
719.27	281.90
719.61	281.27
719.94	280.59
720.27	279.84
720.60	279.19
720.94	278.55
721.27	277.94
721.60	277.38
721.93	276.80
722.27	276.23
722.60	275.67
722.93	275.07
723.26	274.52
723.59	273.96
723.93	273.44
724.26	272.85
724.59	272.26
724.92	271.74
725.25	271.22
725.59	270.71
725.92	270.21
726.25	269.69
726.58	269.20
726.91	268.72
727.24	268.27
727.57	267.76
727.91	267.26
728.24	266.79
728.57	266.29
728.90	265.83
729.23	265.33
729.56	264.90
729.89	264.44
730.22	263.96
730.55	263.50
730.89	263.03
731.22	262.60
731.55	262.16
731.88	261.72
732.21	261.31
732.54	260.86
732.87	260.45
733.20	260.08
733.53	259.67
733.86	259.27
734.19	258.87
734.52	258.53
734.85	258.20
735.18	257.75
735.51	257.39
735.84	257.06
736.17	256.70
736.50	256.30
736.83	256.05
737.16	255.72
737.49	255.39
737.82	255.06
738.15	254.68
738.48	254.33
738.81	254.02
739.14	253.68
739.47	253.33
739.80	253.02
740.13	252.72
740.46	252.42
740.79	252.10
741.12	251.77
741.45	251.47
741.78	251.10
742.11	250.83
742.44	250.50
742.77	250.21
743.10	249.91
743.43	249.62
743.75	249.23
744.08	249.10
744.41	248.80
744.74	248.52
745.07	248.26
745.40	248.05
745.73	247.83
746.06	247.58
746.39	247.38
746.71	247.13
747.04	246.84
747.37	246.54
747.70	246.32
748.03	246.06
748.36	245.85
748.68	245.64
749.01	245.41
749.34	245.22
749.67	244.99
750.00	244.76
750.33	244.65
750.65	244.47
750.98	244.14
751.31	243.96
751.64	243.75
751.97	243.62
752.29	243.40
752.62	243.14
752.95	242.91
753.28	242.67
753.60	242.48
753.93	242.34
754.26	242.18
754.59	242.00
754.91	241.83
755.24	241.60
755.57	241.43
755.90	241.28
756.22	241.06
756.55	240.88
756.88	240.71
757.20	240.46
757.53	240.28
757.86	240.11
758.19	239.95
758.51	239.79
758.84	239.56
759.17	239.40
759.49	239.23
759.82	239.11
760.15	238.98
760.47	238.85
760.80	238.67
761.13	238.54
761.45	238.37
761.78	238.24
762.11	238.11
762.43	237.96
762.76	237.79
763.08	237.72
763.41	237.61
763.74	237.50
764.06	237.36
764.39	237.21
764.71	237.09
765.04	236.94
765.37	236.82
765.69	236.76
766.02	236.63
766.34	236.51
766.67	236.40
767.00	236.32
767.32	236.22
767.65	236.14
767.97	236.02
768.30	235.91
768.62	235.78
768.95	235.68
769.27	235.56
769.60	235.44
769.92	235.29
770.25	235.14
770.57	234.99
770.90	234.90
771.22	234.81
771.55	234.71
771.87	234.65
772.20	234.59
772.52	234.51
772.85	234.50
773.17	234.38
773.50	234.26
773.82	234.16
774.15	234.01
774.47	233.88
774.80	233.78
775.12	233.66
775.45	233.56
775.77	233.46
776.09	233.39
776.42	233.32
776.74	233.26
777.07	233.17
777.39	233.08
777.72	232.99
778.04	232.90
778.36	232.83
778.69	232.71
779.01	232.60
779.33	232.47
779.66	232.29
779.98	232.20
780.31	232.11
780.63	232.04
780.95	232.01
781.28	231.90
781.60	231.85
781.92	231.81
782.25	231.71
782.57	231.63
782.89	231.55
783.22	231.47
783.54	231.39
783.86	231.33
784.19	231.26
784.51	231.23
784.83	231.14
785.16	231.04
785.48	231.00
785.80	230.95
786.12	230.90
786.45	230.86
786.77	230.84
787.09	230.77
787.42	230.71
787.74	230.64
788.06	230.63
788.38	230.54
788.71	230.47
789.03	230.51
789.35	230.51
789.67	230.47
789.99	230.46
790.32	230.43
790.64	230.39
790.96	230.45
791.28	230.40
791.61	230.38
791.93	230.35
792.25	230.31
792.57	230.33
792.89	230.28
793.21	230.26
793.54	230.25
793.86	230.23
794.18	230.22
794.50	230.21
794.82	230.17
795.14	230.17
795.47	230.17
795.79	230.11
796.11	230.06
796.43	230.04
796.75	230.03
797.07	230.01
797.39	229.98
797.71	229.89
798.04	229.88
798.36	229.88
798.68	229.90
799.00	229.89
799.32	229.83
799.64	229.84
799.96	229.81
800.28	229.75
800.60	229.71
800.92	229.69
801.24	229.64
801.56	229.61
801.89	229.54
802.21	229.53
802.53	229.48
802.85	229.43
803.17	229.42
803.49	229.37
803.81	229.31
804.13	229.30
804.45	229.24
804.77	229.24
805.09	229.21
805.41	229.14
805.73	229.07
806.05	229.05
806.37	229.01
806.69	229.00
807.01	229.00
807.33	229.01
807.65	228.98
807.97	229.00
808.28	228.97
808.60	228.99
808.92	228.92
809.24	229.00
809.56	228.99
809.88	228.93
810.20	228.88
810.52	228.90
810.84	228.85
811.16	228.82
811.48	228.76
811.80	228.76
812.12	228.73
812.43	228.72
812.75	228.67
813.07	228.66
813.39	228.62
813.71	228.54
814.03	228.49
814.35	228.44
814.67	228.36
814.98	228.29
815.30	228.27
815.62	228.26
815.94	228.12
816.26	228.13
816.58	228.12
816.89	228.08
817.21	228.00
817.53	227.97
817.85	227.95
818.17	227.91
818.48	227.84
818.80	227.86
819.12	227.82
819.44	227.77
819.76	227.72
820.07	227.71
820.39	227.72
820.71	227.68
821.03	227.69
821.34	227.69
821.66	227.73
821.98	227.71
822.30	227.66
822.61	227.71
822.93	227.64
823.25	227.60
823.57	227.59
823.88	227.62
824.20	227.61
824.52	227.61
824.83	227.58
825.15	227.51
825.47	227.47
825.79	227.47
826.10	227.45
826.42	227.44
826.74	227.41
827.05	227.37
827.37	227.36
827.69	227.31
828.00	227.28
828.32	227.28
828.64	227.25
828.95	227.30
829.27	227.29
829.58	227.30
829.90	227.35
830.22	227.38
830.53	227.36
830.85	227.34
831.17	227.31
831.48	227.36
831.80	227.40
832.11	227.38
832.43	227.40
832.75	227.41
833.06	227.50
833.38	227.48
833.69	227.51
834.01	227.53
834.32	227.53
834.64	227.52
834.96	227.53
835.27	227.54
835.59	227.53
835.90	227.52
836.22	227.52
836.53	227.47
836.85	227.47
837.16	227.59
837.48	227.61
837.79	227.66
838.11	227.69
838.42	227.70
838.74	227.75
839.05	227.73
839.37	227.73
839.68	227.64
840.00	227.63
840.31	227.64
840.63	227.65
840.94	227.64
841.26	227.61
841.57	227.59
841.88	227.59
842.20	227.55
842.51	227.54
842.83	227.56
843.14	227.65
843.46	227.62
843.77	227.54
844.08	227.54
844.40	227.48
844.71	227.42
845.03	227.37
845.34	227.36
845.65	227.35
845.97	227.36
846.28	227.35
846.60	227.35
846.91	227.31
847.22	227.30
847.54	227.32
847.85	227.32
848.16	227.32
848.48	227.30
848.79	227.37
849.10	227.34
849.42	227.33
849.73	227.22
850.04	227.18
850.36	227.12
850.67	227.09
850.98	227.08
851.30	227.07
851.61	227.07
851.92	227.02
852.23	227.05
852.55	227.04
852.86	227.03
853.17	227.01
853.49	227.02
853.80	227.00
854.11	226.95
854.42	226.96
854.74	226.90
855.05	226.88
855.36	226.78
855.67	226.78
855.99	226.76
856.30	226.85
856.61	226.81
856.92	226.83
857.23	226.81
857.55	226.79
857.86	226.80
858.17	226.78
858.48	226.75
858.79	226.68
859.11	226.63
859.42	226.63
859.73	226.60
860.04	226.58
860.35	226.55
860.66	226.55
860.98	226.54
861.29	226.51
861.60	226.48
861.91	226.49
862.22	226.45
862.53	226.44
862.84	226.33
863.16	226.34
863.47	226.28
863.78	226.27
864.09	226.28
864.40	226.25
864.71	226.23
865.02	226.28
865.33	226.29
865.64	226.31
865.95	226.30
866.27	226.39
866.58	226.41
866.89	226.43
867.20	226.43
867.51	226.42
867.82	226.45
868.13	226.51
868.44	226.51
868.75	226.54
869.06	226.53
869.37	226.53
869.68	226.51
869.99	226.54
870.30	226.55
870.61	226.55
870.92	226.56
871.23	226.58
871.54	226.55
871.85	226.58
872.16	226.56
872.47	226.57
872.78	226.51
873.09	226.50
873.40	226.52
873.71	226.54
874.02	226.55
874.33	226.53
874.64	226.49
874.95	226.54
875.26	226.49
875.56	226.50
875.87	226.50
876.18	226.52
876.49	226.63
876.80	226.64
877.11	226.67
877.42	226.72
877.73	226.70
878.04	226.74
878.35	226.72
878.66	226.76
878.96	226.75
879.27	226.75
879.58	226.76
879.89	226.74
880.20	226.76
880.51	226.76
880.82	226.76
881.12	226.78
881.43	226.70
881.74	226.72
882.05	226.71
882.36	226.73
882.67	226.73
882.97	226.63
883.28	226.60
883.59	226.59
883.90	226.54
884.21	226.56
884.51	226.52
884.82	226.51
885.13	226.51
885.44	226.53
885.74	226.51
886.05	226.49
886.36	226.48
886.67	226.43
886.98	226.49
887.28	226.53
887.59	226.51
887.90	226.55
888.20	226.54
888.51	226.55
888.82	226.51
889.13	226.50
889.43	226.62
889.74	226.62
890.05	226.60
890.35	226.58
890.66	226.59
890.97	226.59
891.28	226.59
891.58	226.57
891.89	226.54
892.20	226.55
892.50	226.54
892.81	226.52
893.12	226.51
893.42	226.43
893.73	226.39
894.04	226.42
894.34	226.39
894.65	226.39
894.95	226.36
895.26	226.36
895.57	226.41
895.87	226.28
896.18	226.29
896.48	226.29
896.79	226.30
897.10	226.30
897.40	226.27
897.71	226.28
898.01	226.29
898.32	226.32
898.63	226.30
898.93	226.29
899.24	226.30
899.54	226.29
899.85	226.30
900.15	226.33
900.46	226.29
900.76	226.28
901.07	226.26
901.38	226.27
901.68	226.27
901.99	226.21
902.29	226.21
902.60	226.22
902.90	226.20
903.21	226.20
903.51	226.19
903.82	226.23
904.12	226.22
904.43	226.23
904.73	226.19
905.03	226.19
905.34	226.29
905.64	226.29
905.95	226.30
906.25	226.31
906.56	226.29
906.86	226.32
907.17	226.33
907.47	226.34
907.77	226.36
908.08	226.35
908.38	226.37
908.69	226.39
908.99	226.39
909.30	226.40
909.60	226.40
909.90	226.41
910.21	226.37
910.51	226.33
910.81	226.34
911.12	226.36
911.42	226.37
911.73	226.26
912.03	226.28
912.33	226.30
912.64	226.29
912.94	226.31
913.24	226.31
913.55	226.33
913.85	226.35
914.15	226.35
914.46	226.40
914.76	226.40
915.06	226.40
915.37	226.38
915.67	226.41
915.97	226.42
916.27	226.39
916.58	226.43
916.88	226.49
917.18	226.49
917.49	226.57
917.79	226.56
918.09	226.60
918.39	226.63
918.70	226.66
919.00	226.67
919.30	226.72
919.60	226.72
919.91	226.73
920.21	226.75
920.51	226.74
920.81	226.74
921.12	226.75
921.42	226.74
921.72	226.73
922.02	226.72
922.32	226.71
922.63	226.72
922.93	226.75
923.23	226.73
923.53	226.71
923.83	226.64
924.13	226.64
924.44	226.64
924.74	226.60
925.04	226.59
925.34	226.59
925.64	226.49
925.94	226.46
926.24	226.46
926.55	226.47
926.85	226.48
927.15	226.46
927.45	226.45
927.75	226.47
928.05	226.45
928.35	226.41
928.65	226.44
928.95	226.45
929.26	226.38
929.56	226.40
929.86	226.43
930.16	226.41
930.46	226.42
930.76	226.42
931.06	226.41
931.36	226.38
931.66	226.37
931.96	226.38
932.26	226.39
932.56	226.37
932.86	226.33
933.16	226.30
933.46	226.29
933.76	226.27
934.06	226.31
934.36	226.34
934.66	226.35
934.96	226.33
935.26	226.34
935.56	226.39
935.86	226.34
936.16	226.28
936.46	226.29
936.76	226.26
937.06	226.23
937.36	226.20
937.66	226.24
937.96	226.24
938.26	226.24
938.56	226.23
938.86	226.22
939.16	226.24
939.46	226.26
939.76	226.29
940.06	226.26
940.35	226.25
940.65	226.22
940.95	226.24
941.25	226.19
941.55	226.17
941.85	226.13
942.15	226.18
942.45	226.20
942.75	226.18
943.04	226.21
943.34	226.24
943.64	226.24
943.94	226.22
944.24	226.24
944.54	226.24
944.84	226.23
945.13	226.23
945.43	226.20
945.73	226.23
946.03	226.20
946.33	226.19
946.62	226.15
946.92	226.16
947.22	226.18
947.52	226.20
947.82	226.19
948.11	226.21
948.41	226.18
948.71	226.16
949.01	226.16
949.31	226.15
949.60	226.15
949.90	226.19
950.20	226.17
950.50	226.13
950.79	226.14
951.09	226.17
951.39	226.19
951.69	226.19
951.98	226.20
952.28	226.20
952.58	226.19
952.87	226.19
953.17	226.20
953.47	226.13
953.76	226.14
954.06	226.16
954.36	226.13
954.66	226.14
954.95	226.19
955.25	226.24
955.55	226.23
955.84	226.23
956.14	226.23
956.44	226.26
956.73	226.28
957.03	226.32
957.32	226.33
957.62	226.32
957.92	226.33
958.21	226.35
958.51	226.46
958.81	226.50
959.10	226.53
959.40	226.56
959.69	226.60
959.99	226.62
960.29	226.62
960.58	226.63
960.88	226.69
961.17	226.66
961.47	226.66
961.76	226.67
962.06	226.67
962.36	226.67
962.65	226.67
962.95	226.66
963.24	226.61
963.54	226.59
963.83	226.62
964.13	226.61
964.42	226.56
964.72	226.47
965.01	226.49
965.31	226.45
965.60	226.42
965.90	226.47
966.19	226.42
966.49	226.43
966.78	226.39
967.08	226.33
967.37	226.32
967.67	226.27
967.96	226.29
968.26	226.28
968.55	226.26
968.85	226.23
969.14	226.25
969.43	226.25
969.73	226.26
970.02	226.20
970.32	226.20
970.61	226.18
970.91	226.18
971.20	226.15
971.49	226.18
971.79	226.19
972.08	226.13
972.38	226.14
972.67	226.10
972.96	226.16
973.26	226.18
973.55	226.21
973.85	226.23
974.14	226.21
974.43	226.19
974.73	226.17
975.02	226.16
975.31	226.16
975.61	226.14
975.90	226.10
976.19	226.10
976.49	226.10
976.78	226.10
977.07	226.06
977.37	226.07
977.66	226.06
977.95	226.00
978.24	226.01
978.54	226.03
978.83	226.09
979.12	226.01
979.42	226.00
979.71	225.99
980.00	225.96
980.29	225.96
980.59	225.94
980.88	225.98
981.17	225.95
981.46	225.94
981.76	225.95
982.05	226.00
982.34	226.03
982.63	226.05
982.93	226.07
983.22	226.08
983.51	226.09
983.80	226.10
984.09	226.13
984.39	226.12
984.68	226.11
984.97	226.09
985.26	226.12
985.55	226.12
985.85	226.09
986.14	226.11
986.43	226.12
986.72	226.14
987.01	226.11
987.30	226.14
987.59	226.13
987.89	226.16
988.18	226.14
988.47	226.11
988.76	226.08
989.05	226.06
989.34	226.08
989.63	226.08
989.92	226.06
990.22	226.06
990.51	226.08
990.80	226.07
991.09	226.06
991.38	226.06
991.67	226.07
991.96	226.05
992.25	226.07
992.54	226.07
992.83	226.09
993.12	226.10
993.41	226.13
993.70	226.21
993.99	226.22
994.28	226.25
994.58	226.25
994.87	226.23
995.16	226.28
995.45	226.29
995.74	226.27
996.03	226.29
996.32	226.32
996.61	226.36
996.90	226.35
997.19	226.37
997.48	226.37
997.77	226.34
998.06	226.38
998.34	226.36
998.63	226.36
998.92	226.34
999.21	226.37
999.50	226.36
999.79	226.30
1000.08	226.31
1000.37	226.30
1000.66	226.33
1000.95	226.37
1001.24	226.36
1001.53	226.37
1001.82	226.38
1002.11	226.35
1002.40	226.34
1002.68	226.35
1002.97	226.41
1003.26	226.40
1003.55	226.40
1003.84	226.43
1004.13	226.47
1004.42	226.48
1004.71	226.48
1004.99	226.46
1005.28	226.45
1005.57	226.44
1005.86	226.42
1006.15	226.42
1006.44	226.39
1006.72	226.41
1007.01	226.36
1007.30	226.37
1007.59	226.32
1007.88	226.30
1008.17	226.31
1008.45	226.29
1008.74	226.26
1009.03	226.25
1009.32	226.25
1009.60	226.22
1009.89	226.16
1010.18	226.12
1010.47	226.09
1010.76	226.06
1011.04	226.05
1011.33	226.09
1011.62	226.11
1011.91	226.13
1012.19	226.10
1012.48	226.06
1012.77	226.00
1013.05	226.08
1013.34	226.06
1013.63	226.09
1013.92	226.09
1014.20	226.09
1014.49	226.07
1014.78	226.05
1015.06	225.99
1015.35	226.00
1015.64	226.02
1015.92	226.04
1016.21	226.05
1016.50	226.07
1016.78	226.10
1017.07	226.10
1017.36	226.04
1017.64	225.99
1017.93	225.98
1018.22	225.99
1018.50	226.01
1018.79	226.04
1019.08	225.97
1019.36	225.94
1019.65	225.93
1019.93	225.97
1020.22	226.01
1020.51	226.11
1020.79	226.05
1021.08	226.24
1021.36	225.57
1021.65	226.15
1021.94	225.82
1022.22	225.70
1022.51	226.10
1022.79	226.87
1023.08	226.56
1023.36	227.90
1023.65	224.91
>>>>>End Processed Spectral Data<<<<<
