SpectraSuite Data File
++++++++++++++++++++++++++++++++++++
Date: Fri Feb 01 16:14:14 EST 2013
User: group
Dark Spectrum Present: No
Reference Spectrum Present: No
Number of Sampled Component Spectra: 1
Spectrometers: USB2E7196
Integration Time (usec): 35000 (USB2E7196)
Spectra Averaged: 100 (USB2E7196)
Boxcar Smoothing: 10 (USB2E7196)
Correct for Electrical Dark: No (USB2E7196)
Strobe/Lamp Enabled: No (USB2E7196)
Correct for Detector Non-linearity: No (USB2E7196)
Correct for Stray Light: No (USB2E7196)
Number of Pixels in Processed Spectrum: 2048
>>>>>Begin Processed Spectral Data<<<<<
339.09	0.00
339.48	214.14
339.86	215.67
340.24	217.51
340.63	218.69
341.01	220.99
341.39	221.08
341.78	222.30
342.16	223.60
342.54	224.46
342.93	212.66
343.31	223.43
343.69	224.00
344.07	224.46
344.46	224.86
344.84	225.25
345.22	225.49
345.60	225.76
345.99	225.96
346.37	226.11
346.75	226.19
347.13	226.26
347.52	226.31
347.90	226.39
348.28	226.41
348.66	226.45
349.05	226.40
349.43	226.45
349.81	226.48
350.19	226.52
350.57	226.58
350.96	226.64
351.34	226.70
351.72	226.77
352.10	226.84
352.48	226.94
352.87	226.96
353.25	227.03
353.63	227.08
354.01	227.16
354.39	227.22
354.77	227.28
355.15	227.38
355.54	227.46
355.92	227.50
356.30	227.57
356.68	227.70
357.06	227.81
357.44	227.86
357.82	227.90
358.20	227.96
358.58	228.03
358.97	228.09
359.35	228.16
359.73	228.21
360.11	228.28
360.49	228.29
360.87	228.35
361.25	228.41
361.63	228.48
362.01	228.53
362.39	228.57
362.77	228.62
363.15	228.66
363.53	228.67
363.91	228.72
364.29	228.73
364.67	228.67
365.05	228.66
365.43	228.68
365.81	228.70
366.19	228.73
366.57	228.77
366.95	228.76
367.33	228.72
367.71	228.72
368.09	228.75
368.47	228.77
368.85	228.75
369.23	228.75
369.61	228.68
369.99	228.65
370.37	228.64
370.75	228.66
371.13	228.60
371.51	228.53
371.89	228.50
372.27	228.46
372.65	228.41
373.03	228.35
373.41	228.27
373.78	228.26
374.16	228.17
374.54	228.08
374.92	228.04
375.30	227.99
375.68	227.91
376.06	227.83
376.44	227.78
376.82	227.73
377.19	227.64
377.57	227.59
377.95	227.48
378.33	227.41
378.71	227.29
379.09	227.22
379.47	227.20
379.84	227.12
380.22	227.04
380.60	226.97
380.98	226.92
381.36	226.87
381.73	226.74
382.11	226.68
382.49	226.61
382.87	226.52
383.25	226.47
383.62	226.53
384.00	226.48
384.38	226.40
384.76	226.36
385.13	226.37
385.51	226.31
385.89	226.31
386.27	226.28
386.64	226.24
387.02	226.17
387.40	226.12
387.78	226.11
388.15	226.10
388.53	226.08
388.91	226.09
389.29	226.05
389.66	226.08
390.04	226.07
390.42	226.06
390.79	226.09
391.17	226.10
391.55	225.99
391.92	225.95
392.30	225.96
392.68	225.91
393.05	225.89
393.43	225.89
393.81	225.84
394.18	225.82
394.56	225.84
394.94	225.91
395.31	225.92
395.69	225.94
396.06	225.96
396.44	225.99
396.82	226.00
397.19	226.08
397.57	226.07
397.95	226.15
398.32	226.17
398.70	226.19
399.07	226.21
399.45	226.26
399.82	226.30
400.20	226.35
400.58	226.43
400.95	226.44
401.33	226.54
401.70	226.68
402.08	226.75
402.45	226.85
402.83	226.93
403.20	227.02
403.58	227.09
403.95	227.17
404.33	227.32
404.71	227.42
405.08	227.59
405.46	227.75
405.83	227.88
406.21	228.02
406.58	228.18
406.96	228.34
407.33	228.50
407.70	228.72
408.08	228.97
408.45	229.17
408.83	229.44
409.20	229.63
409.58	229.84
409.95	230.09
410.33	230.34
410.70	230.61
411.08	230.92
411.45	231.24
411.82	231.59
412.20	231.91
412.57	232.34
412.95	232.61
413.32	233.00
413.69	233.41
414.07	233.84
414.44	234.29
414.82	234.78
415.19	235.37
415.56	235.94
415.94	236.52
416.31	237.16
416.68	237.77
417.06	238.51
417.43	239.22
417.81	239.99
418.18	240.80
418.55	241.63
418.93	242.52
419.30	243.44
419.67	244.37
420.04	245.32
420.42	246.28
420.79	247.50
421.16	248.67
421.54	249.86
421.91	251.10
422.28	252.38
422.66	253.70
423.03	254.96
423.40	256.24
423.77	257.67
424.15	259.09
424.52	260.60
424.89	262.18
425.26	263.71
425.64	265.15
426.01	266.72
426.38	268.39
426.75	270.00
427.13	271.72
427.50	273.55
427.87	275.41
428.24	277.30
428.61	279.05
428.99	280.99
429.36	283.10
429.73	285.18
430.10	287.23
430.47	289.32
430.85	291.52
431.22	293.77
431.59	296.14
431.96	298.40
432.33	300.89
432.70	303.29
433.08	306.10
433.45	308.75
433.82	311.36
434.19	314.25
434.56	317.08
434.93	319.67
435.30	322.26
435.68	325.15
436.05	327.97
436.42	330.74
436.79	333.23
437.16	335.91
437.53	338.70
437.90	341.47
438.27	344.19
438.64	346.97
439.01	349.53
439.38	351.71
439.75	353.87
440.13	356.34
440.50	358.63
440.87	360.43
441.24	362.36
441.61	364.50
441.98	365.94
442.35	367.73
442.72	369.63
443.09	371.41
443.46	372.40
443.83	372.95
444.20	373.44
444.57	374.28
444.94	374.54
445.31	374.86
445.68	375.18
446.05	375.28
446.42	374.90
446.79	374.42
447.16	373.99
447.53	373.65
447.90	372.47
448.27	371.36
448.64	369.86
449.01	368.71
449.37	366.73
449.74	364.85
450.11	362.65
450.48	360.16
450.85	357.66
451.22	355.53
451.59	353.53
451.96	351.63
452.33	349.01
452.70	346.64
453.07	343.81
453.43	340.94
453.80	338.11
454.17	335.46
454.54	333.00
454.91	330.31
455.28	327.63
455.65	325.15
456.02	322.65
456.38	320.46
456.75	317.82
457.12	315.60
457.49	313.39
457.86	311.19
458.23	309.31
458.59	307.31
458.96	305.25
459.33	303.38
459.70	301.47
460.07	300.01
460.43	298.36
460.80	296.77
461.17	295.35
461.54	293.89
461.91	292.47
462.27	291.02
462.64	289.76
463.01	288.43
463.38	287.16
463.74	285.83
464.11	284.72
464.48	283.73
464.85	282.60
465.21	281.75
465.58	280.85
465.95	279.83
466.32	278.93
466.68	278.02
467.05	277.14
467.42	276.29
467.78	275.33
468.15	274.45
468.52	273.82
468.88	272.98
469.25	272.21
469.62	271.61
469.98	270.96
470.35	270.35
470.72	269.77
471.08	269.15
471.45	268.63
471.82	268.08
472.18	267.48
472.55	267.10
472.92	266.58
473.28	266.07
473.65	265.62
474.02	265.15
474.38	264.78
474.75	264.49
475.11	264.12
475.48	263.91
475.85	263.69
476.21	263.46
476.58	263.27
476.94	263.16
477.31	262.98
477.67	262.85
478.04	262.71
478.41	262.69
478.77	262.72
479.14	262.67
479.50	262.63
479.87	262.68
480.23	262.76
480.60	262.80
480.96	262.92
481.33	263.12
481.69	263.38
482.06	263.57
482.42	263.75
482.79	264.05
483.15	264.32
483.52	264.65
483.88	264.98
484.25	265.39
484.61	265.78
484.98	266.19
485.34	266.73
485.71	267.32
486.07	267.93
486.44	268.49
486.80	269.17
487.17	269.93
487.53	270.73
487.90	271.55
488.26	272.48
488.62	273.51
488.99	274.47
489.35	275.48
489.72	276.60
490.08	277.83
490.44	279.07
490.81	280.39
491.17	281.77
491.54	283.25
491.90	284.78
492.26	286.44
492.63	288.17
492.99	289.95
493.36	291.86
493.72	293.86
494.08	295.97
494.45	298.22
494.81	300.60
495.17	303.04
495.54	305.59
495.90	308.32
496.26	311.10
496.63	314.09
496.99	317.24
497.35	320.50
497.72	323.91
498.08	327.43
498.44	331.13
498.80	335.10
499.17	339.14
499.53	343.36
499.89	347.76
500.26	352.30
500.62	356.99
500.98	361.95
501.34	367.01
501.71	372.35
502.07	377.79
502.43	383.40
502.79	389.22
503.16	395.34
503.52	401.56
503.88	407.98
504.24	414.60
504.60	421.44
504.97	428.60
505.33	435.89
505.69	443.59
506.05	451.38
506.41	459.20
506.78	467.42
507.14	475.88
507.50	484.57
507.86	493.61
508.22	502.77
508.59	511.99
508.95	521.62
509.31	531.46
509.67	541.57
510.03	551.90
510.39	562.51
510.75	573.25
511.12	584.25
511.48	595.49
511.84	606.95
512.20	618.40
512.56	630.38
512.92	642.54
513.28	654.86
513.64	667.26
514.00	680.00
514.37	692.90
514.73	705.89
515.09	718.91
515.45	732.16
515.81	745.77
516.17	759.68
516.53	773.85
516.89	787.97
517.25	802.12
517.61	816.50
517.97	830.90
518.33	845.34
518.69	860.05
519.05	875.04
519.41	890.12
519.77	905.63
520.13	921.01
520.49	936.45
520.85	951.75
521.21	967.47
521.57	983.62
521.93	999.29
522.29	1015.59
522.65	1031.87
523.01	1048.05
523.37	1064.06
523.73	1080.22
524.09	1096.17
524.45	1112.41
524.81	1129.09
525.17	1145.77
525.53	1162.55
525.89	1179.43
526.25	1196.21
526.61	1212.58
526.97	1229.39
527.33	1245.97
527.68	1262.45
528.04	1278.80
528.40	1295.42
528.76	1312.39
529.12	1329.01
529.48	1345.84
529.84	1361.87
530.20	1378.36
530.56	1395.20
530.91	1412.44
531.27	1429.13
531.63	1445.59
531.99	1462.17
532.35	1478.03
532.71	1493.98
533.07	1510.27
533.42	1526.07
533.78	1542.12
534.14	1558.29
534.50	1573.46
534.86	1589.10
535.21	1604.23
535.57	1620.07
535.93	1635.42
536.29	1650.12
536.65	1665.04
537.00	1679.74
537.36	1694.88
537.72	1709.28
538.08	1723.80
538.44	1737.65
538.79	1751.28
539.15	1764.71
539.51	1778.32
539.87	1792.59
540.22	1806.16
540.58	1819.58
540.94	1832.63
541.29	1845.44
541.65	1858.06
542.01	1871.18
542.37	1883.52
542.72	1895.84
543.08	1907.59
543.44	1919.95
543.79	1931.21
544.15	1942.08
544.51	1953.58
544.87	1964.61
545.22	1975.52
545.58	1985.66
545.94	1995.28
546.29	2005.21
546.65	2015.19
547.01	2024.37
547.36	2032.96
547.72	2041.37
548.07	2049.48
548.43	2057.78
548.79	2065.49
549.14	2073.10
549.50	2080.32
549.86	2087.81
550.21	2095.11
550.57	2102.26
550.92	2108.85
551.28	2116.01
551.64	2123.08
551.99	2129.55
552.35	2135.55
552.70	2141.67
553.06	2147.55
553.41	2153.86
553.77	2159.86
554.13	2165.77
554.48	2171.90
554.84	2177.46
555.19	2182.63
555.55	2187.74
555.90	2192.27
556.26	2197.34
556.61	2201.82
556.97	2206.44
557.32	2210.50
557.68	2214.72
558.03	2218.94
558.39	2222.57
558.74	2227.16
559.10	2231.11
559.45	2234.86
559.81	2239.13
560.16	2242.86
560.52	2246.00
560.87	2249.46
561.23	2252.09
561.58	2255.00
561.94	2257.61
562.29	2259.84
562.64	2262.59
563.00	2265.21
563.35	2268.62
563.71	2271.75
564.06	2274.98
564.42	2277.69
564.77	2280.41
565.12	2282.70
565.48	2284.56
565.83	2286.36
566.19	2287.63
566.54	2288.45
566.89	2289.57
567.25	2290.34
567.60	2291.58
567.96	2293.45
568.31	2294.17
568.66	2295.41
569.02	2296.17
569.37	2296.43
569.72	2297.52
570.08	2297.86
570.43	2297.78
570.78	2297.36
571.14	2295.90
571.49	2294.70
571.84	2294.33
572.20	2293.27
572.55	2292.15
572.90	2290.57
573.26	2289.23
573.61	2287.34
573.96	2285.72
574.31	2282.79
574.67	2279.78
575.02	2276.39
575.37	2272.90
575.72	2269.33
576.08	2265.98
576.43	2262.54
576.78	2259.01
577.13	2255.69
577.49	2252.42
577.84	2249.06
578.19	2245.24
578.54	2241.68
578.90	2237.68
579.25	2232.20
579.60	2227.32
579.95	2222.42
580.30	2217.55
580.66	2212.56
581.01	2207.70
581.36	2202.72
581.71	2198.58
582.06	2194.18
582.42	2189.64
582.77	2184.55
583.12	2179.99
583.47	2175.50
583.82	2170.63
584.17	2165.32
584.53	2159.88
584.88	2154.46
585.23	2148.81
585.58	2143.27
585.93	2137.65
586.28	2132.68
586.63	2127.61
586.98	2122.62
587.34	2118.01
587.69	2113.15
588.04	2108.01
588.39	2102.49
588.74	2096.13
589.09	2089.91
589.44	2083.16
589.79	2077.00
590.14	2071.29
590.49	2064.70
590.84	2058.03
591.19	2051.94
591.54	2045.50
591.89	2038.28
592.25	2031.50
592.60	2024.24
592.95	2016.86
593.30	2009.63
593.65	2001.95
594.00	1994.93
594.35	1987.51
594.70	1979.34
595.05	1972.34
595.40	1965.07
595.75	1957.50
596.10	1951.30
596.45	1944.80
596.80	1938.63
597.15	1932.20
597.50	1925.38
597.85	1918.91
598.19	1912.46
598.54	1905.59
598.89	1899.01
599.24	1893.00
599.59	1886.40
599.94	1880.15
600.29	1873.83
600.64	1867.21
600.99	1859.84
601.34	1853.16
601.69	1846.15
602.04	1839.32
602.39	1831.95
602.74	1825.12
603.08	1818.53
603.43	1811.81
603.78	1804.46
604.13	1797.31
604.48	1790.14
604.83	1783.20
605.18	1776.43
605.53	1768.45
605.87	1760.39
606.22	1753.05
606.57	1745.09
606.92	1737.70
607.27	1730.72
607.62	1723.87
607.96	1716.76
608.31	1710.43
608.66	1702.76
609.01	1695.39
609.36	1687.97
609.70	1679.91
610.05	1671.91
610.40	1664.37
610.75	1656.06
611.10	1648.49
611.44	1639.94
611.79	1631.86
612.14	1623.21
612.49	1613.87
612.83	1605.49
613.18	1597.31
613.53	1589.34
613.88	1580.92
614.22	1572.65
614.57	1563.95
614.92	1555.87
615.27	1548.35
615.61	1540.04
615.96	1532.03
616.31	1524.38
616.65	1516.95
617.00	1509.44
617.35	1501.70
617.70	1493.28
618.04	1484.79
618.39	1476.35
618.74	1468.95
619.08	1460.67
619.43	1453.12
619.78	1446.30
620.12	1439.22
620.47	1431.82
620.82	1423.67
621.16	1416.18
621.51	1408.53
621.85	1400.88
622.20	1392.38
622.55	1383.98
622.89	1376.00
623.24	1368.30
623.59	1360.87
623.93	1353.34
624.28	1346.09
624.62	1338.72
624.97	1331.56
625.32	1324.78
625.66	1317.92
626.01	1310.68
626.35	1303.39
626.70	1295.65
627.04	1287.96
627.39	1280.05
627.73	1272.59
628.08	1265.62
628.43	1258.49
628.77	1251.21
629.12	1243.71
629.46	1236.64
629.81	1229.16
630.15	1221.91
630.50	1214.58
630.84	1206.45
631.19	1198.43
631.53	1190.80
631.88	1183.12
632.22	1175.51
632.57	1168.16
632.91	1160.63
633.26	1153.22
633.60	1145.62
633.95	1138.34
634.29	1131.24
634.64	1124.60
634.98	1117.20
635.32	1110.10
635.67	1103.37
636.01	1096.65
636.36	1089.81
636.70	1083.08
637.05	1076.54
637.39	1070.19
637.73	1063.68
638.08	1057.79
638.42	1051.92
638.77	1045.57
639.11	1039.03
639.45	1032.58
639.80	1025.98
640.14	1019.46
640.49	1012.91
640.83	1006.65
641.17	1000.56
641.52	994.29
641.86	987.82
642.20	982.01
642.55	975.61
642.89	969.19
643.23	962.55
643.58	956.86
643.92	950.74
644.26	944.76
644.61	938.67
644.95	932.70
645.29	926.13
645.64	919.34
645.98	912.89
646.32	906.98
646.66	900.92
647.01	895.09
647.35	889.36
647.69	883.49
648.04	877.99
648.38	872.18
648.72	866.18
649.06	860.16
649.41	854.20
649.75	848.33
650.09	842.30
650.43	836.51
650.78	830.29
651.12	824.31
651.46	818.50
651.80	812.78
652.14	807.25
652.49	801.89
652.83	796.79
653.17	791.16
653.51	785.39
653.85	779.96
654.20	774.23
654.54	768.21
654.88	762.50
655.22	756.59
655.56	750.91
655.90	745.32
656.25	740.06
656.59	734.70
656.93	729.58
657.27	724.45
657.61	719.05
657.95	714.02
658.29	708.96
658.64	703.69
658.98	698.33
659.32	692.85
659.66	687.68
660.00	682.32
660.34	677.42
660.68	672.58
661.02	667.58
661.36	662.98
661.70	658.50
662.05	654.13
662.39	649.80
662.73	645.29
663.07	641.08
663.41	636.68
663.75	632.28
664.09	627.79
664.43	623.46
664.77	619.39
665.11	615.11
665.45	610.98
665.79	606.94
666.13	602.86
666.47	598.74
666.81	594.55
667.15	590.45
667.49	586.50
667.83	582.62
668.17	578.66
668.51	574.58
668.85	570.59
669.19	566.76
669.53	562.96
669.87	559.11
670.21	555.36
670.55	551.69
670.89	548.25
671.23	544.77
671.57	541.22
671.91	537.69
672.25	534.15
672.58	530.58
672.92	527.12
673.26	523.93
673.60	520.86
673.94	517.72
674.28	514.75
674.62	511.81
674.96	508.74
675.30	505.86
675.64	502.96
675.97	500.17
676.31	497.31
676.65	494.36
676.99	491.69
677.33	488.84
677.67	486.01
678.01	482.93
678.34	479.97
678.68	477.08
679.02	474.25
679.36	471.52
679.70	468.83
680.04	466.07
680.37	463.19
680.71	460.36
681.05	457.74
681.39	455.04
681.73	452.39
682.06	449.88
682.40	447.32
682.74	444.75
683.08	442.17
683.42	439.53
683.75	437.04
684.09	434.39
684.43	431.90
684.77	429.45
685.10	427.07
685.44	424.74
685.78	422.43
686.12	420.18
686.45	417.82
686.79	415.54
687.13	413.33
687.46	411.11
687.80	408.95
688.14	406.70
688.48	404.64
688.81	402.44
689.15	400.27
689.49	398.18
689.82	396.09
690.16	394.01
690.50	392.05
690.83	390.09
691.17	388.11
691.51	386.17
691.84	384.32
692.18	382.38
692.52	380.41
692.85	378.47
693.19	376.60
693.52	374.76
693.86	372.90
694.20	371.11
694.53	369.37
694.87	367.50
695.21	365.72
695.54	363.92
695.88	362.13
696.21	360.40
696.55	358.68
696.88	357.02
697.22	355.36
697.56	353.74
697.89	352.13
698.23	350.53
698.56	348.94
698.90	347.33
699.23	345.74
699.57	344.19
699.90	342.63
700.24	341.06
700.58	339.60
700.91	338.11
701.25	336.68
701.58	335.33
701.92	333.99
702.25	332.64
702.59	331.26
702.92	329.96
703.26	328.63
703.59	327.37
703.93	326.15
704.26	324.98
704.60	323.69
704.93	322.42
705.26	321.18
705.60	320.01
705.93	318.83
706.27	317.77
706.60	316.72
706.94	315.69
707.27	314.62
707.61	313.51
707.94	312.51
708.27	311.42
708.61	310.30
708.94	309.32
709.28	308.34
709.61	307.35
709.94	306.42
710.28	305.40
710.61	304.39
710.95	303.29
711.28	302.34
711.61	301.40
711.95	300.47
712.28	299.56
712.61	298.58
712.95	297.67
713.28	296.81
713.61	295.91
713.95	294.96
714.28	294.07
714.61	293.21
714.95	292.42
715.28	291.57
715.61	290.70
715.95	289.81
716.28	288.93
716.61	288.12
716.95	287.29
717.28	286.53
717.61	285.75
717.94	285.01
718.28	284.19
718.61	283.46
718.94	282.76
719.27	282.11
719.61	281.44
719.94	280.79
720.27	280.05
720.60	279.39
720.94	278.82
721.27	278.24
721.60	277.68
721.93	277.05
722.27	276.50
722.60	275.94
722.93	275.39
723.26	274.87
723.59	274.31
723.93	273.72
724.26	273.16
724.59	272.61
724.92	272.11
725.25	271.61
725.59	271.12
725.92	270.57
726.25	270.01
726.58	269.53
726.91	269.01
727.24	268.53
727.57	268.04
727.91	267.52
728.24	267.00
728.57	266.47
728.90	266.00
729.23	265.49
729.56	265.08
729.89	264.60
730.22	264.07
730.55	263.58
730.89	263.19
731.22	262.75
731.55	262.30
731.88	261.86
732.21	261.43
732.54	260.95
732.87	260.54
733.20	260.18
733.53	259.81
733.86	259.42
734.19	259.01
734.52	258.64
734.85	258.29
735.18	257.88
735.51	257.55
735.84	257.17
736.17	256.83
736.50	256.39
736.83	256.14
737.16	255.83
737.49	255.53
737.82	255.15
738.15	254.86
738.48	254.53
738.81	254.22
739.14	253.90
739.47	253.60
739.80	253.31
740.13	253.00
740.46	252.66
740.79	252.31
741.12	252.02
741.45	251.69
741.78	251.37
742.11	251.10
742.44	250.73
742.77	250.45
743.10	250.14
743.43	249.86
743.75	249.50
744.08	249.31
744.41	249.03
744.74	248.75
745.07	248.45
745.40	248.19
745.73	247.96
746.06	247.65
746.39	247.38
746.71	247.11
747.04	246.81
747.37	246.58
747.70	246.35
748.03	246.09
748.36	245.89
748.68	245.65
749.01	245.41
749.34	245.21
749.67	244.97
750.00	244.73
750.33	244.62
750.65	244.39
750.98	244.09
751.31	243.88
751.64	243.68
751.97	243.49
752.29	243.29
752.62	243.01
752.95	242.86
753.28	242.63
753.60	242.40
753.93	242.25
754.26	242.01
754.59	241.79
754.91	241.58
755.24	241.38
755.57	241.16
755.90	241.02
756.22	240.83
756.55	240.65
756.88	240.45
757.20	240.18
757.53	240.00
757.86	239.82
758.19	239.64
758.51	239.48
758.84	239.27
759.17	239.09
759.49	238.94
759.82	238.80
760.15	238.66
760.47	238.51
760.80	238.33
761.13	238.24
761.45	238.10
761.78	237.96
762.11	237.82
762.43	237.68
762.76	237.50
763.08	237.36
763.41	237.24
763.74	237.13
764.06	236.97
764.39	236.84
764.71	236.68
765.04	236.55
765.37	236.38
765.69	236.27
766.02	236.15
766.34	235.99
766.67	235.83
767.00	235.72
767.32	235.63
767.65	235.55
767.97	235.39
768.30	235.27
768.62	235.16
768.95	235.02
769.27	234.91
769.60	234.80
769.92	234.68
770.25	234.57
770.57	234.46
770.90	234.36
771.22	234.23
771.55	234.14
771.87	234.09
772.20	233.99
772.52	233.98
772.85	233.96
773.17	233.88
773.50	233.78
773.82	233.69
774.15	233.55
774.47	233.43
774.80	233.35
775.12	233.24
775.45	233.14
775.77	233.07
776.09	233.03
776.42	232.97
776.74	232.92
777.07	232.80
777.39	232.73
777.72	232.66
778.04	232.60
778.36	232.52
778.69	232.42
779.01	232.41
779.33	232.23
779.66	232.08
779.98	232.03
780.31	231.99
780.63	231.98
780.95	231.92
781.28	231.87
781.60	231.79
781.92	231.75
782.25	231.68
782.57	231.62
782.89	231.54
783.22	231.49
783.54	231.42
783.86	231.40
784.19	231.34
784.51	231.30
784.83	231.25
785.16	231.22
785.48	231.18
785.80	231.10
786.12	231.06
786.45	231.03
786.77	231.02
787.09	230.96
787.42	230.84
787.74	230.84
788.06	230.78
788.38	230.74
788.71	230.74
789.03	230.71
789.35	230.68
789.67	230.65
789.99	230.60
790.32	230.55
790.64	230.54
790.96	230.61
791.28	230.56
791.61	230.51
791.93	230.51
792.25	230.46
792.57	230.49
792.89	230.44
793.21	230.42
793.54	230.37
793.86	230.34
794.18	230.33
794.50	230.27
794.82	230.25
795.14	230.24
795.47	230.19
795.79	230.17
796.11	230.13
796.43	230.06
796.75	230.03
797.07	230.03
797.39	229.98
797.71	229.85
798.04	229.84
798.36	229.83
798.68	229.78
799.00	229.76
799.32	229.68
799.64	229.68
799.96	229.64
800.28	229.61
800.60	229.58
800.92	229.57
801.24	229.54
801.56	229.47
801.89	229.45
802.21	229.41
802.53	229.37
802.85	229.33
803.17	229.36
803.49	229.33
803.81	229.27
804.13	229.23
804.45	229.21
804.77	229.16
805.09	229.13
805.41	229.11
805.73	229.10
806.05	229.02
806.37	229.02
806.69	228.99
807.01	228.98
807.33	228.97
807.65	228.92
807.97	228.90
808.28	228.90
808.60	228.88
808.92	228.88
809.24	228.92
809.56	228.92
809.88	228.84
810.20	228.82
810.52	228.85
810.84	228.81
811.16	228.78
811.48	228.75
811.80	228.77
812.12	228.71
812.43	228.67
812.75	228.70
813.07	228.61
813.39	228.60
813.71	228.56
814.03	228.51
814.35	228.49
814.67	228.45
814.98	228.40
815.30	228.35
815.62	228.29
815.94	228.18
816.26	228.18
816.58	228.17
816.89	228.16
817.21	228.10
817.53	228.07
817.85	228.06
818.17	228.03
818.48	227.98
818.80	227.97
819.12	227.95
819.44	227.90
819.76	227.92
820.07	227.88
820.39	227.84
820.71	227.81
821.03	227.77
821.34	227.79
821.66	227.81
821.98	227.85
822.30	227.85
822.61	227.91
822.93	227.83
823.25	227.83
823.57	227.80
823.88	227.82
824.20	227.82
824.52	227.80
824.83	227.80
825.15	227.75
825.47	227.74
825.79	227.72
826.10	227.72
826.42	227.71
826.74	227.70
827.05	227.71
827.37	227.72
827.69	227.68
828.00	227.66
828.32	227.66
828.64	227.58
828.95	227.60
829.27	227.56
829.58	227.57
829.90	227.56
830.22	227.56
830.53	227.51
830.85	227.47
831.17	227.44
831.48	227.42
831.80	227.44
832.11	227.45
832.43	227.42
832.75	227.41
833.06	227.43
833.38	227.41
833.69	227.40
834.01	227.41
834.32	227.44
834.64	227.38
834.96	227.37
835.27	227.40
835.59	227.36
835.90	227.33
836.22	227.28
836.53	227.22
836.85	227.22
837.16	227.29
837.48	227.29
837.79	227.32
838.11	227.34
838.42	227.33
838.74	227.32
839.05	227.33
839.37	227.31
839.68	227.25
840.00	227.22
840.31	227.21
840.63	227.17
840.94	227.14
841.26	227.16
841.57	227.15
841.88	227.13
842.20	227.13
842.51	227.12
842.83	227.17
843.14	227.28
843.46	227.26
843.77	227.21
844.08	227.21
844.40	227.15
844.71	227.12
845.03	227.12
845.34	227.08
845.65	227.08
845.97	227.09
846.28	227.11
846.60	227.12
846.91	227.14
847.22	227.17
847.54	227.18
847.85	227.16
848.16	227.13
848.48	227.10
848.79	227.11
849.10	227.14
849.42	227.11
849.73	227.01
850.04	227.02
850.36	227.00
850.67	227.00
850.98	227.00
851.30	227.00
851.61	226.96
851.92	226.97
852.23	226.97
852.55	226.98
852.86	226.95
853.17	226.92
853.49	226.89
853.80	226.89
854.11	226.91
854.42	226.94
854.74	226.98
855.05	226.99
855.36	226.95
855.67	226.96
855.99	226.94
856.30	227.04
856.61	227.02
856.92	227.01
857.23	227.03
857.55	227.01
857.86	227.05
858.17	227.08
858.48	227.08
858.79	227.05
859.11	227.04
859.42	227.06
859.73	227.08
860.04	227.09
860.35	227.05
860.66	227.01
860.98	226.95
861.29	226.94
861.60	226.93
861.91	226.95
862.22	226.94
862.53	226.90
862.84	226.78
863.16	226.79
863.47	226.76
863.78	226.75
864.09	226.79
864.40	226.76
864.71	226.75
865.02	226.74
865.33	226.73
865.64	226.71
865.95	226.69
866.27	226.71
866.58	226.68
866.89	226.66
867.20	226.67
867.51	226.67
867.82	226.65
868.13	226.69
868.44	226.64
868.75	226.67
869.06	226.70
869.37	226.69
869.68	226.65
869.99	226.69
870.30	226.69
870.61	226.67
870.92	226.64
871.23	226.61
871.54	226.62
871.85	226.63
872.16	226.65
872.47	226.63
872.78	226.59
873.09	226.57
873.40	226.60
873.71	226.60
874.02	226.61
874.33	226.59
874.64	226.54
874.95	226.56
875.26	226.52
875.56	226.51
875.87	226.53
876.18	226.54
876.49	226.61
876.80	226.59
877.11	226.57
877.42	226.56
877.73	226.59
878.04	226.57
878.35	226.57
878.66	226.54
878.96	226.56
879.27	226.57
879.58	226.61
879.89	226.58
880.20	226.60
880.51	226.59
880.82	226.60
881.12	226.61
881.43	226.59
881.74	226.58
882.05	226.58
882.36	226.59
882.67	226.57
882.97	226.52
883.28	226.51
883.59	226.53
883.90	226.56
884.21	226.55
884.51	226.56
884.82	226.58
885.13	226.60
885.44	226.57
885.74	226.55
886.05	226.56
886.36	226.56
886.67	226.54
886.98	226.58
887.28	226.60
887.59	226.61
887.90	226.64
888.20	226.64
888.51	226.67
888.82	226.68
889.13	226.68
889.43	226.73
889.74	226.72
890.05	226.69
890.35	226.69
890.66	226.70
890.97	226.69
891.28	226.67
891.58	226.67
891.89	226.68
892.20	226.69
892.50	226.66
892.81	226.67
893.12	226.65
893.42	226.61
893.73	226.60
894.04	226.58
894.34	226.59
894.65	226.59
894.95	226.57
895.26	226.53
895.57	226.58
895.87	226.49
896.18	226.52
896.48	226.55
896.79	226.53
897.10	226.54
897.40	226.52
897.71	226.55
898.01	226.54
898.32	226.55
898.63	226.55
898.93	226.57
899.24	226.57
899.54	226.58
899.85	226.56
900.15	226.55
900.46	226.57
900.76	226.56
901.07	226.53
901.38	226.51
901.68	226.52
901.99	226.47
902.29	226.47
902.60	226.44
902.90	226.44
903.21	226.45
903.51	226.43
903.82	226.46
904.12	226.44
904.43	226.42
904.73	226.44
905.03	226.45
905.34	226.53
905.64	226.53
905.95	226.52
906.25	226.52
906.56	226.53
906.86	226.53
907.17	226.52
907.47	226.56
907.77	226.55
908.08	226.53
908.38	226.55
908.69	226.56
908.99	226.59
909.30	226.59
909.60	226.57
909.90	226.59
910.21	226.55
910.51	226.53
910.81	226.53
911.12	226.52
911.42	226.47
911.73	226.36
912.03	226.33
912.33	226.38
912.64	226.38
912.94	226.36
913.24	226.33
913.55	226.30
913.85	226.28
914.15	226.28
914.46	226.29
914.76	226.26
915.06	226.21
915.37	226.14
915.67	226.11
915.97	226.11
916.27	226.08
916.58	226.10
916.88	226.09
917.18	226.09
917.49	226.15
917.79	226.19
918.09	226.20
918.39	226.24
918.70	226.21
919.00	226.17
919.30	226.22
919.60	226.22
919.91	226.21
920.21	226.19
920.51	226.18
920.81	226.17
921.12	226.22
921.42	226.22
921.72	226.26
922.02	226.28
922.32	226.30
922.63	226.32
922.93	226.34
923.23	226.35
923.53	226.36
923.83	226.29
924.13	226.28
924.44	226.27
924.74	226.28
925.04	226.33
925.34	226.36
925.64	226.32
925.94	226.30
926.24	226.35
926.55	226.36
926.85	226.38
927.15	226.36
927.45	226.32
927.75	226.37
928.05	226.39
928.35	226.37
928.65	226.39
928.95	226.37
929.26	226.36
929.56	226.37
929.86	226.36
930.16	226.37
930.46	226.37
930.76	226.40
931.06	226.37
931.36	226.31
931.66	226.35
931.96	226.37
932.26	226.39
932.56	226.38
932.86	226.36
933.16	226.38
933.46	226.37
933.76	226.41
934.06	226.42
934.36	226.44
934.66	226.46
934.96	226.46
935.26	226.48
935.56	226.52
935.86	226.49
936.16	226.49
936.46	226.50
936.76	226.51
937.06	226.48
937.36	226.49
937.66	226.51
937.96	226.50
938.26	226.47
938.56	226.47
938.86	226.47
939.16	226.51
939.46	226.50
939.76	226.56
940.06	226.52
940.35	226.47
940.65	226.43
940.95	226.42
941.25	226.36
941.55	226.33
941.85	226.29
942.15	226.32
942.45	226.38
942.75	226.38
943.04	226.34
943.34	226.34
943.64	226.31
943.94	226.30
944.24	226.28
944.54	226.29
944.84	226.28
945.13	226.30
945.43	226.26
945.73	226.26
946.03	226.23
946.33	226.24
946.62	226.24
946.92	226.26
947.22	226.24
947.52	226.28
947.82	226.28
948.11	226.25
948.41	226.22
948.71	226.16
949.01	226.13
949.31	226.11
949.60	226.13
949.90	226.17
950.20	226.13
950.50	226.13
950.79	226.12
951.09	226.15
951.39	226.13
951.69	226.14
951.98	226.16
952.28	226.14
952.58	226.14
952.87	226.14
953.17	226.15
953.47	226.18
953.76	226.19
954.06	226.16
954.36	226.17
954.66	226.17
954.95	226.19
955.25	226.23
955.55	226.23
955.84	226.21
956.14	226.18
956.44	226.20
956.73	226.19
957.03	226.17
957.32	226.16
957.62	226.15
957.92	226.16
958.21	226.14
958.51	226.24
958.81	226.26
959.10	226.27
959.40	226.26
959.69	226.27
959.99	226.29
960.29	226.28
960.58	226.27
960.88	226.33
961.17	226.31
961.47	226.30
961.76	226.31
962.06	226.34
962.36	226.35
962.65	226.35
962.95	226.35
963.24	226.35
963.54	226.35
963.83	226.36
964.13	226.34
964.42	226.35
964.72	226.30
965.01	226.28
965.31	226.29
965.60	226.26
965.90	226.30
966.19	226.28
966.49	226.31
966.78	226.33
967.08	226.33
967.37	226.34
967.67	226.30
967.96	226.33
968.26	226.33
968.55	226.34
968.85	226.39
969.14	226.37
969.43	226.38
969.73	226.37
970.02	226.39
970.32	226.40
970.61	226.39
970.91	226.34
971.20	226.36
971.49	226.36
971.79	226.40
972.08	226.33
972.38	226.34
972.67	226.34
972.96	226.36
973.26	226.34
973.55	226.37
973.85	226.38
974.14	226.35
974.43	226.34
974.73	226.33
975.02	226.30
975.31	226.35
975.61	226.34
975.90	226.36
976.19	226.33
976.49	226.35
976.78	226.35
977.07	226.34
977.37	226.32
977.66	226.28
977.95	226.28
978.24	226.25
978.54	226.25
978.83	226.24
979.12	226.24
979.42	226.21
979.71	226.21
980.00	226.19
980.29	226.21
980.59	226.17
980.88	226.20
981.17	226.17
981.46	226.17
981.76	226.15
982.05	226.16
982.34	226.17
982.63	226.19
982.93	226.19
983.22	226.22
983.51	226.24
983.80	226.27
984.09	226.25
984.39	226.25
984.68	226.26
984.97	226.25
985.26	226.21
985.55	226.22
985.85	226.16
986.14	226.19
986.43	226.20
986.72	226.22
987.01	226.18
987.30	226.20
987.59	226.13
987.89	226.16
988.18	226.11
988.47	226.09
988.76	226.04
989.05	226.00
989.34	226.00
989.63	226.00
989.92	225.99
990.22	225.97
990.51	225.98
990.80	225.96
991.09	225.96
991.38	225.97
991.67	225.93
991.96	225.91
992.25	225.92
992.54	225.89
992.83	225.88
993.12	225.85
993.41	225.85
993.70	225.94
993.99	225.94
994.28	225.97
994.58	225.99
994.87	225.99
995.16	225.99
995.45	225.97
995.74	225.94
996.03	225.95
996.32	225.97
996.61	225.99
996.90	225.98
997.19	225.99
997.48	226.00
997.77	225.99
998.06	226.03
998.34	226.00
998.63	226.02
998.92	226.03
999.21	226.08
999.50	226.08
999.79	226.02
1000.08	226.04
1000.37	226.04
1000.66	226.01
1000.95	226.04
1001.24	226.06
1001.53	226.06
1001.82	226.08
1002.11	226.03
1002.40	226.05
1002.68	226.10
1002.97	226.20
1003.26	226.18
1003.55	226.15
1003.84	226.19
1004.13	226.22
1004.42	226.22
1004.71	226.24
1004.99	226.24
1005.28	226.24
1005.57	226.24
1005.86	226.21
1006.15	226.20
1006.44	226.19
1006.72	226.25
1007.01	226.24
1007.30	226.26
1007.59	226.21
1007.88	226.23
1008.17	226.28
1008.45	226.29
1008.74	226.23
1009.03	226.17
1009.32	226.19
1009.60	226.20
1009.89	226.20
1010.18	226.17
1010.47	226.18
1010.76	226.17
1011.04	226.15
1011.33	226.16
1011.62	226.16
1011.91	226.21
1012.19	226.19
1012.48	226.19
1012.77	226.16
1013.05	226.23
1013.34	226.23
1013.63	226.28
1013.92	226.28
1014.20	226.26
1014.49	226.22
1014.78	226.25
1015.06	226.23
1015.35	226.24
1015.64	226.26
1015.92	226.26
1016.21	226.23
1016.50	226.22
1016.78	226.23
1017.07	226.27
1017.36	226.26
1017.64	226.26
1017.93	226.25
1018.22	226.28
1018.50	226.27
1018.79	226.25
1019.08	226.19
1019.36	226.18
1019.65	226.14
1019.93	226.15
1020.22	226.14
1020.51	226.22
1020.79	226.17
1021.08	226.34
1021.36	225.64
1021.65	226.00
1021.94	226.08
1022.22	226.13
1022.51	225.71
1022.79	226.48
1023.08	225.70
1023.36	227.74
1023.65	225.70
>>>>>End Processed Spectral Data<<<<<
