SpectraSuite Data File
++++++++++++++++++++++++++++++++++++
Date: Fri Feb 01 15:22:20 EST 2013
User: group
Dark Spectrum Present: No
Reference Spectrum Present: No
Number of Sampled Component Spectra: 1
Spectrometers: USB2E7196
Integration Time (usec): 35000 (USB2E7196)
Spectra Averaged: 100 (USB2E7196)
Boxcar Smoothing: 10 (USB2E7196)
Correct for Electrical Dark: No (USB2E7196)
Strobe/Lamp Enabled: No (USB2E7196)
Correct for Detector Non-linearity: No (USB2E7196)
Correct for Stray Light: No (USB2E7196)
Number of Pixels in Processed Spectrum: 2048
>>>>>Begin Processed Spectral Data<<<<<
339.09	0.00
339.48	215.18
339.86	216.58
340.24	218.49
340.63	218.65
341.01	222.17
341.39	222.12
341.78	223.90
342.16	224.40
342.54	224.68
342.93	213.48
343.31	224.27
343.69	224.80
344.07	225.27
344.46	225.66
344.84	226.08
345.22	226.28
345.60	226.53
345.99	226.67
346.37	226.80
346.75	226.93
347.13	227.03
347.52	227.03
347.90	227.11
348.28	227.13
348.66	227.17
349.05	227.19
349.43	227.23
349.81	227.24
350.19	227.27
350.57	227.33
350.96	227.39
351.34	227.46
351.72	227.56
352.10	227.67
352.48	227.75
352.87	227.82
353.25	227.93
353.63	227.97
354.01	228.06
354.39	228.15
354.77	228.23
355.15	228.30
355.54	228.40
355.92	228.46
356.30	228.55
356.68	228.70
357.06	228.76
357.44	228.82
357.82	228.89
358.20	228.98
358.58	229.04
358.97	229.07
359.35	229.16
359.73	229.25
360.11	229.30
360.49	229.33
360.87	229.35
361.25	229.40
361.63	229.48
362.01	229.49
362.39	229.52
362.77	229.54
363.15	229.56
363.53	229.57
363.91	229.56
364.29	229.58
364.67	229.49
365.05	229.50
365.43	229.51
365.81	229.52
366.19	229.55
366.57	229.55
366.95	229.55
367.33	229.50
367.71	229.46
368.09	229.42
368.47	229.40
368.85	229.41
369.23	229.37
369.61	229.30
369.99	229.35
370.37	229.32
370.75	229.35
371.13	229.29
371.51	229.23
371.89	229.19
372.27	229.14
372.65	229.08
373.03	229.03
373.41	228.94
373.78	228.87
374.16	228.79
374.54	228.71
374.92	228.63
375.30	228.58
375.68	228.50
376.06	228.46
376.44	228.37
376.82	228.29
377.19	228.24
377.57	228.17
377.95	228.03
378.33	227.95
378.71	227.80
379.09	227.72
379.47	227.66
379.84	227.60
380.22	227.51
380.60	227.45
380.98	227.39
381.36	227.35
381.73	227.27
382.11	227.19
382.49	227.14
382.87	227.05
383.25	226.96
383.62	227.01
384.00	226.94
384.38	226.90
384.76	226.86
385.13	226.82
385.51	226.75
385.89	226.67
386.27	226.64
386.64	226.61
387.02	226.57
387.40	226.50
387.78	226.48
388.15	226.43
388.53	226.40
388.91	226.36
389.29	226.33
389.66	226.33
390.04	226.29
390.42	226.29
390.79	226.28
391.17	226.29
391.55	226.17
391.92	226.13
392.30	226.11
392.68	226.09
393.05	226.08
393.43	226.11
393.81	226.13
394.18	226.13
394.56	226.14
394.94	226.18
395.31	226.24
395.69	226.28
396.06	226.36
396.44	226.41
396.82	226.43
397.19	226.53
397.57	226.56
397.95	226.65
398.32	226.68
398.70	226.76
399.07	226.86
399.45	226.92
399.82	227.04
400.20	227.11
400.58	227.19
400.95	227.23
401.33	227.34
401.70	227.52
402.08	227.62
402.45	227.71
402.83	227.84
403.20	227.96
403.58	228.09
403.95	228.25
404.33	228.37
404.71	228.49
405.08	228.67
405.46	228.83
405.83	228.97
406.21	229.14
406.58	229.33
406.96	229.48
407.33	229.69
407.70	229.88
408.08	230.17
408.45	230.40
408.83	230.68
409.20	230.89
409.58	231.06
409.95	231.35
410.33	231.64
410.70	231.88
411.08	232.17
411.45	232.49
411.82	232.76
412.20	233.10
412.57	233.57
412.95	233.85
413.32	234.26
413.69	234.69
414.07	235.08
414.44	235.55
414.82	236.07
415.19	236.60
415.56	237.13
415.94	237.70
416.31	238.35
416.68	238.95
417.06	239.71
417.43	240.40
417.81	241.17
418.18	241.98
418.55	242.87
418.93	243.74
419.30	244.63
419.67	245.58
420.04	246.55
420.42	247.48
420.79	248.65
421.16	249.80
421.54	250.98
421.91	252.24
422.28	253.47
422.66	254.78
423.03	256.08
423.40	257.42
423.77	258.81
424.15	260.23
424.52	261.72
424.89	263.33
425.26	264.88
425.64	266.31
426.01	267.85
426.38	269.49
426.75	271.15
427.13	272.84
427.50	274.62
427.87	276.52
428.24	278.42
428.61	280.16
428.99	282.11
429.36	284.18
429.73	286.24
430.10	288.30
430.47	290.36
430.85	292.48
431.22	294.73
431.59	297.09
431.96	299.34
432.33	301.87
432.70	304.23
433.08	307.07
433.45	309.74
433.82	312.36
434.19	315.25
434.56	318.09
434.93	320.76
435.30	323.42
435.68	326.27
436.05	329.09
436.42	331.85
436.79	334.37
437.16	337.13
437.53	339.98
437.90	342.74
438.27	345.46
438.64	348.29
439.01	350.90
439.38	353.18
439.75	355.39
440.13	357.84
440.50	360.19
440.87	361.98
441.24	363.90
441.61	366.07
441.98	367.53
442.35	369.33
442.72	371.20
443.09	373.02
443.46	374.07
443.83	374.68
444.20	375.25
444.57	376.05
444.94	376.30
445.31	376.66
445.68	377.02
446.05	377.09
446.42	376.67
446.79	376.23
447.16	375.73
447.53	375.41
447.90	374.23
448.27	373.07
448.64	371.51
449.01	370.38
449.37	368.41
449.74	366.54
450.11	364.28
450.48	361.77
450.85	359.22
451.22	357.09
451.59	355.05
451.96	353.08
452.33	350.50
452.70	348.16
453.07	345.28
453.43	342.41
453.80	339.64
454.17	337.01
454.54	334.50
454.91	331.84
455.28	329.12
455.65	326.64
456.02	324.20
456.38	322.07
456.75	319.35
457.12	317.10
457.49	314.87
457.86	312.72
458.23	310.89
458.59	308.83
458.96	306.75
459.33	304.86
459.70	303.01
460.07	301.51
460.43	299.77
460.80	298.13
461.17	296.70
461.54	295.26
461.91	293.85
462.27	292.35
462.64	291.09
463.01	289.78
463.38	288.47
463.74	287.08
464.11	285.91
464.48	284.90
464.85	283.79
465.21	282.90
465.58	281.94
465.95	280.85
466.32	279.94
466.68	278.97
467.05	278.10
467.42	277.20
467.78	276.29
468.15	275.41
468.52	274.76
468.88	273.90
469.25	273.06
469.62	272.41
469.98	271.75
470.35	271.09
470.72	270.42
471.08	269.79
471.45	269.23
471.82	268.72
472.18	268.11
472.55	267.64
472.92	267.09
473.28	266.62
473.65	266.13
474.02	265.70
474.38	265.34
474.75	264.96
475.11	264.62
475.48	264.31
475.85	264.05
476.21	263.81
476.58	263.58
476.94	263.43
477.31	263.26
477.67	263.10
478.04	263.01
478.41	262.96
478.77	262.97
479.14	262.90
479.50	262.86
479.87	262.92
480.23	263.02
480.60	263.10
480.96	263.20
481.33	263.42
481.69	263.60
482.06	263.78
482.42	264.01
482.79	264.26
483.15	264.59
483.52	264.95
483.88	265.29
484.25	265.68
484.61	266.13
484.98	266.58
485.34	267.13
485.71	267.65
486.07	268.26
486.44	268.83
486.80	269.51
487.17	270.22
487.53	271.03
487.90	271.90
488.26	272.85
488.62	273.80
488.99	274.75
489.35	275.79
489.72	276.93
490.08	278.12
490.44	279.37
490.81	280.68
491.17	282.05
491.54	283.52
491.90	285.03
492.26	286.66
492.63	288.39
492.99	290.19
493.36	292.11
493.72	294.14
494.08	296.23
494.45	298.49
494.81	300.88
495.17	303.28
495.54	305.85
495.90	308.55
496.26	311.38
496.63	314.38
496.99	317.46
497.35	320.77
497.72	324.18
498.08	327.70
498.44	331.37
498.80	335.29
499.17	339.33
499.53	343.51
499.89	347.91
500.26	352.43
500.62	357.09
500.98	362.07
501.34	367.15
501.71	372.48
502.07	377.93
502.43	383.52
502.79	389.38
503.16	395.42
503.52	401.66
503.88	408.11
504.24	414.78
504.60	421.68
504.97	428.75
505.33	436.06
505.69	443.78
506.05	451.56
506.41	459.45
506.78	467.67
507.14	476.10
507.50	484.86
507.86	493.86
508.22	502.99
508.59	512.17
508.95	521.72
509.31	531.53
509.67	541.57
510.03	551.90
510.39	562.42
510.75	573.31
511.12	584.30
511.48	595.57
511.84	606.97
512.20	618.54
512.56	630.52
512.92	642.70
513.28	655.05
513.64	667.50
514.00	680.18
514.37	693.03
514.73	706.19
515.09	719.12
515.45	732.44
515.81	746.14
516.17	760.09
516.53	774.25
516.89	788.45
517.25	802.72
517.61	817.16
517.97	831.67
518.33	846.10
518.69	860.84
519.05	875.90
519.41	891.11
519.77	906.69
520.13	922.15
520.49	937.52
520.85	953.01
521.21	968.80
521.57	985.17
521.93	1001.09
522.29	1017.50
522.65	1033.94
523.01	1050.16
523.37	1066.15
523.73	1082.39
524.09	1098.58
524.45	1114.94
524.81	1131.67
525.17	1148.63
525.53	1165.69
525.89	1182.60
526.25	1199.46
526.61	1215.88
526.97	1232.63
527.33	1249.08
527.68	1265.81
528.04	1282.30
528.40	1298.99
528.76	1316.14
529.12	1332.70
529.48	1349.67
529.84	1365.78
530.20	1382.34
530.56	1399.55
530.91	1417.04
531.27	1433.86
531.63	1450.47
531.99	1467.11
532.35	1483.09
532.71	1498.95
533.07	1515.20
533.42	1531.12
533.78	1547.25
534.14	1563.52
534.50	1578.91
534.86	1595.01
535.21	1610.19
535.57	1626.32
535.93	1641.88
536.29	1656.66
536.65	1671.87
537.00	1686.62
537.36	1701.89
537.72	1716.57
538.08	1731.08
538.44	1744.84
538.79	1758.89
539.15	1772.63
539.51	1786.50
539.87	1800.97
540.22	1814.81
540.58	1828.65
540.94	1842.10
541.29	1855.12
541.65	1867.97
542.01	1881.38
542.37	1893.58
542.72	1905.98
543.08	1917.79
543.44	1930.32
543.79	1941.62
544.15	1952.58
544.51	1964.26
544.87	1975.30
545.22	1986.10
545.58	1996.23
545.94	2006.13
546.29	2016.07
546.65	2025.83
547.01	2034.99
547.36	2043.76
547.72	2052.25
548.07	2060.12
548.43	2068.33
548.79	2076.46
549.14	2084.05
549.50	2091.34
549.86	2099.12
550.21	2106.58
550.57	2113.76
550.92	2120.13
551.28	2127.22
551.64	2134.25
551.99	2140.90
552.35	2147.17
552.70	2153.27
553.06	2159.33
553.41	2165.69
553.77	2171.61
554.13	2177.73
554.48	2183.96
554.84	2189.34
555.19	2194.68
555.55	2199.59
555.90	2204.06
556.26	2208.74
556.61	2213.36
556.97	2217.61
557.32	2221.76
557.68	2225.83
558.03	2230.08
558.39	2233.86
558.74	2238.47
559.10	2242.36
559.45	2245.85
559.81	2250.13
560.16	2254.02
560.52	2257.18
560.87	2260.73
561.23	2263.40
561.58	2266.35
561.94	2268.88
562.29	2271.26
562.64	2273.91
563.00	2276.72
563.35	2280.22
563.71	2283.46
564.06	2286.73
564.42	2289.51
564.77	2291.97
565.12	2294.21
565.48	2296.07
565.83	2297.91
566.19	2299.22
566.54	2300.28
566.89	2301.47
567.25	2301.85
567.60	2303.16
567.96	2304.79
568.31	2305.39
568.66	2306.40
569.02	2306.92
569.37	2307.11
569.72	2307.88
570.08	2307.79
570.43	2307.85
570.78	2307.07
571.14	2305.44
571.49	2303.96
571.84	2303.70
572.20	2302.40
572.55	2301.35
572.90	2299.80
573.26	2298.37
573.61	2296.69
573.96	2294.66
574.31	2291.56
574.67	2288.61
575.02	2284.93
575.37	2281.48
575.72	2277.65
576.08	2274.24
576.43	2270.73
576.78	2267.05
577.13	2263.86
577.49	2261.00
577.84	2257.27
578.19	2253.54
578.54	2249.75
578.90	2245.41
579.25	2239.74
579.60	2234.73
579.95	2229.63
580.30	2224.56
580.66	2219.33
581.01	2214.18
581.36	2209.24
581.71	2204.97
582.06	2200.28
582.42	2195.64
582.77	2190.35
583.12	2185.69
583.47	2180.89
583.82	2175.89
584.17	2170.50
584.53	2164.87
584.88	2158.97
585.23	2153.10
585.58	2147.60
585.93	2142.17
586.28	2137.52
586.63	2132.39
586.98	2127.30
587.34	2122.52
587.69	2117.51
588.04	2112.17
588.39	2106.51
588.74	2100.00
589.09	2093.89
589.44	2087.10
589.79	2080.95
590.14	2075.19
590.49	2068.60
590.84	2062.20
591.19	2056.05
591.54	2049.58
591.89	2042.16
592.25	2035.23
592.60	2028.01
592.95	2020.29
593.30	2012.76
593.65	2005.09
594.00	1997.96
594.35	1990.73
594.70	1982.61
595.05	1975.27
595.40	1967.87
595.75	1960.22
596.10	1953.86
596.45	1946.72
596.80	1940.49
597.15	1933.85
597.50	1926.66
597.85	1920.19
598.19	1913.57
598.54	1906.38
598.89	1899.72
599.24	1893.78
599.59	1887.06
599.94	1880.85
600.29	1874.51
600.64	1867.91
600.99	1860.22
601.34	1853.26
601.69	1846.22
602.04	1839.17
602.39	1831.84
602.74	1824.94
603.08	1818.29
603.43	1811.53
603.78	1804.40
604.13	1797.20
604.48	1789.94
604.83	1783.12
605.18	1776.03
605.53	1767.82
605.87	1759.91
606.22	1752.53
606.57	1744.60
606.92	1737.23
607.27	1730.00
607.62	1723.06
607.96	1715.79
608.31	1709.21
608.66	1701.55
609.01	1693.83
609.36	1686.29
609.70	1678.30
610.05	1670.16
610.40	1662.37
610.75	1654.05
611.10	1646.44
611.44	1638.17
611.79	1630.17
612.14	1621.40
612.49	1612.28
612.83	1604.06
613.18	1595.85
613.53	1587.84
613.88	1579.22
614.22	1570.93
614.57	1562.30
614.92	1554.36
615.27	1546.77
615.61	1538.39
615.96	1530.53
616.31	1522.93
616.65	1515.60
617.00	1508.03
617.35	1500.47
617.70	1491.93
618.04	1483.33
618.39	1474.95
618.74	1467.15
619.08	1458.76
619.43	1451.24
619.78	1444.37
620.12	1437.14
620.47	1429.58
620.82	1421.46
621.16	1414.09
621.51	1406.52
621.85	1399.03
622.20	1390.33
622.55	1381.95
622.89	1374.10
623.24	1366.48
623.59	1359.11
623.93	1351.59
624.28	1344.39
624.62	1336.90
624.97	1329.91
625.32	1323.38
625.66	1316.36
626.01	1309.18
626.35	1301.75
626.70	1294.05
627.04	1286.21
627.39	1278.36
627.73	1270.91
628.08	1263.88
628.43	1256.55
628.77	1249.16
629.12	1241.54
629.46	1234.41
629.81	1227.08
630.15	1219.96
630.50	1212.51
630.84	1204.30
631.19	1196.47
631.53	1188.95
631.88	1181.32
632.22	1173.77
632.57	1166.34
632.91	1158.82
633.26	1151.45
633.60	1144.14
633.95	1137.13
634.29	1130.20
634.64	1123.60
634.98	1116.34
635.32	1109.27
635.67	1102.73
636.01	1096.14
636.36	1089.31
636.70	1082.86
637.05	1076.17
637.39	1069.65
637.73	1063.15
638.08	1057.37
638.42	1051.34
638.77	1044.89
639.11	1038.32
639.45	1031.84
639.80	1025.26
640.14	1018.85
640.49	1012.26
640.83	1006.00
641.17	999.70
641.52	993.33
641.86	986.87
642.20	981.15
642.55	974.86
642.89	968.34
643.23	961.88
643.58	956.11
643.92	949.88
644.26	943.87
644.61	937.96
644.95	931.94
645.29	925.33
645.64	918.66
645.98	912.36
646.32	906.47
646.66	900.52
647.01	894.75
647.35	889.04
647.69	883.27
648.04	877.66
648.38	871.82
648.72	865.77
649.06	859.70
649.41	853.63
649.75	847.64
650.09	841.71
650.43	835.83
650.78	829.71
651.12	823.80
651.46	818.05
651.80	812.21
652.14	806.81
652.49	801.40
652.83	796.14
653.17	790.36
653.51	784.68
653.85	779.25
654.20	773.47
654.54	767.44
654.88	761.71
655.22	755.84
655.56	750.17
655.90	744.76
656.25	739.48
656.59	734.14
656.93	729.09
657.27	723.92
657.61	718.45
657.95	713.36
658.29	708.21
658.64	702.98
658.98	697.64
659.32	692.14
659.66	686.92
660.00	681.61
660.34	676.69
660.68	671.76
661.02	666.74
661.36	662.11
661.70	657.66
662.05	653.32
662.39	649.00
662.73	644.57
663.07	640.23
663.41	635.83
663.75	631.32
664.09	626.72
664.43	622.29
664.77	618.20
665.11	613.91
665.45	609.79
665.79	605.72
666.13	601.66
666.47	597.60
666.81	593.43
667.15	589.31
667.49	585.43
667.83	581.62
668.17	577.70
668.51	573.61
668.85	569.62
669.19	565.75
669.53	561.91
669.87	558.01
670.21	554.29
670.55	550.65
670.89	547.24
671.23	543.83
671.57	540.36
671.91	536.85
672.25	533.39
672.58	529.88
672.92	526.48
673.26	523.27
673.60	520.17
673.94	517.07
674.28	514.22
674.62	511.26
674.96	508.19
675.30	505.26
675.64	502.34
675.97	499.60
676.31	496.76
676.65	493.83
676.99	491.19
677.33	488.36
677.67	485.57
678.01	482.57
678.34	479.59
678.68	476.75
679.02	473.91
679.36	471.12
679.70	468.48
680.04	465.73
680.37	462.87
680.71	460.09
681.05	457.48
681.39	454.72
681.73	452.12
682.06	449.64
682.40	447.08
682.74	444.58
683.08	442.05
683.42	439.47
683.75	436.99
684.09	434.43
684.43	431.96
684.77	429.50
685.10	427.20
685.44	424.87
685.78	422.56
686.12	420.35
686.45	418.11
686.79	415.73
687.13	413.57
687.46	411.43
687.80	409.22
688.14	407.05
688.48	405.04
688.81	402.77
689.15	400.60
689.49	398.48
689.82	396.36
690.16	394.24
690.50	392.28
690.83	390.34
691.17	388.39
691.51	386.48
691.84	384.65
692.18	382.73
692.52	380.78
692.85	378.87
693.19	376.98
693.52	375.16
693.86	373.38
694.20	371.58
694.53	369.78
694.87	367.98
695.21	366.21
695.54	364.40
695.88	362.69
696.21	360.98
696.55	359.31
696.88	357.66
697.22	356.04
697.56	354.42
697.89	352.78
698.23	351.15
698.56	349.53
698.90	347.94
699.23	346.23
699.57	344.67
699.90	343.11
700.24	341.59
700.58	340.05
700.91	338.58
701.25	337.15
701.58	335.80
701.92	334.44
702.25	333.07
702.59	331.65
702.92	330.36
703.26	329.04
703.59	327.75
703.93	326.59
704.26	325.33
704.60	324.07
704.93	322.80
705.26	321.60
705.60	320.46
705.93	319.28
706.27	318.28
706.60	317.25
706.94	316.23
707.27	315.11
707.61	314.04
707.94	313.02
708.27	311.93
708.61	310.85
708.94	309.84
709.28	308.83
709.61	307.91
709.94	306.95
710.28	305.93
710.61	304.94
710.95	303.90
711.28	303.00
711.61	302.05
711.95	301.12
712.28	300.13
712.61	299.12
712.95	298.25
713.28	297.39
713.61	296.51
713.95	295.62
714.28	294.77
714.61	293.93
714.95	293.09
715.28	292.26
715.61	291.37
715.95	290.54
716.28	289.70
716.61	288.88
716.95	288.07
717.28	287.36
717.61	286.62
717.94	285.84
718.28	285.04
718.61	284.30
718.94	283.64
719.27	283.01
719.61	282.37
719.94	281.66
720.27	280.94
720.60	280.28
720.94	279.67
721.27	279.07
721.60	278.50
721.93	277.90
722.27	277.34
722.60	276.77
722.93	276.18
723.26	275.65
723.59	275.06
723.93	274.54
724.26	273.95
724.59	273.40
724.92	272.91
725.25	272.39
725.59	271.88
725.92	271.36
726.25	270.83
726.58	270.38
726.91	269.90
727.24	269.42
727.57	268.94
727.91	268.43
728.24	267.97
728.57	267.45
728.90	267.03
729.23	266.53
729.56	266.15
729.89	265.67
730.22	265.18
730.55	264.70
730.89	264.22
731.22	263.76
731.55	263.30
731.88	262.86
732.21	262.42
732.54	261.99
732.87	261.56
733.20	261.17
733.53	260.76
733.86	260.37
734.19	259.97
734.52	259.58
734.85	259.26
735.18	258.85
735.51	258.49
735.84	258.08
736.17	257.71
736.50	257.29
736.83	257.06
737.16	256.73
737.49	256.43
737.82	256.12
738.15	255.83
738.48	255.51
738.81	255.19
739.14	254.86
739.47	254.54
739.80	254.22
740.13	253.90
740.46	253.54
740.79	253.21
741.12	252.93
741.45	252.61
741.78	252.26
742.11	251.96
742.44	251.64
742.77	251.36
743.10	251.06
743.43	250.76
743.75	250.40
744.08	250.23
744.41	249.94
744.74	249.67
745.07	249.37
745.40	249.12
745.73	248.88
746.06	248.60
746.39	248.35
746.71	248.08
747.04	247.78
747.37	247.56
747.70	247.33
748.03	247.06
748.36	246.86
748.68	246.62
749.01	246.38
749.34	246.15
749.67	245.90
750.00	245.69
750.33	245.54
750.65	245.30
750.98	245.00
751.31	244.80
751.64	244.59
751.97	244.44
752.29	244.22
752.62	243.96
752.95	243.79
753.28	243.58
753.60	243.35
753.93	243.21
754.26	243.02
754.59	242.80
754.91	242.56
755.24	242.35
755.57	242.16
755.90	241.98
756.22	241.82
756.55	241.65
756.88	241.44
757.20	241.20
757.53	241.03
757.86	240.85
758.19	240.72
758.51	240.52
758.84	240.29
759.17	240.12
759.49	239.97
759.82	239.83
760.15	239.70
760.47	239.59
760.80	239.38
761.13	239.24
761.45	239.08
761.78	238.97
762.11	238.81
762.43	238.65
762.76	238.52
763.08	238.40
763.41	238.28
763.74	238.14
764.06	238.00
764.39	237.85
764.71	237.72
765.04	237.52
765.37	237.43
765.69	237.31
766.02	237.17
766.34	237.04
766.67	236.92
767.00	236.81
767.32	236.75
767.65	236.69
767.97	236.58
768.30	236.48
768.62	236.38
768.95	236.28
769.27	236.17
769.60	236.06
769.92	235.94
770.25	235.79
770.57	235.68
770.90	235.59
771.22	235.50
771.55	235.37
771.87	235.29
772.20	235.16
772.52	235.18
772.85	235.21
773.17	235.12
773.50	235.01
773.82	234.89
774.15	234.71
774.47	234.60
774.80	234.49
775.12	234.39
775.45	234.30
775.77	234.21
776.09	234.16
776.42	234.08
776.74	233.96
777.07	233.89
777.39	233.82
777.72	233.74
778.04	233.68
778.36	233.65
778.69	233.58
779.01	233.53
779.33	233.36
779.66	233.21
779.98	233.13
780.31	233.06
780.63	233.05
780.95	233.00
781.28	232.97
781.60	232.92
781.92	232.86
782.25	232.81
782.57	232.76
782.89	232.67
783.22	232.60
783.54	232.56
783.86	232.51
784.19	232.46
784.51	232.46
784.83	232.38
785.16	232.29
785.48	232.25
785.80	232.24
786.12	232.19
786.45	232.13
786.77	232.11
787.09	232.06
787.42	231.95
787.74	231.94
788.06	231.86
788.38	231.79
788.71	231.73
789.03	231.69
789.35	231.67
789.67	231.63
789.99	231.59
790.32	231.56
790.64	231.53
790.96	231.55
791.28	231.44
791.61	231.41
791.93	231.38
792.25	231.34
792.57	231.32
792.89	231.27
793.21	231.22
793.54	231.17
793.86	231.14
794.18	231.11
794.50	231.06
794.82	231.02
795.14	231.00
795.47	231.01
795.79	230.96
796.11	230.90
796.43	230.84
796.75	230.86
797.07	230.81
797.39	230.76
797.71	230.68
798.04	230.65
798.36	230.62
798.68	230.63
799.00	230.59
799.32	230.52
799.64	230.50
799.96	230.47
800.28	230.46
800.60	230.41
800.92	230.40
801.24	230.35
801.56	230.34
801.89	230.31
802.21	230.28
802.53	230.28
802.85	230.25
803.17	230.30
803.49	230.20
803.81	230.18
804.13	230.18
804.45	230.12
804.77	230.10
805.09	230.07
805.41	229.98
805.73	229.92
806.05	229.86
806.37	229.83
806.69	229.80
807.01	229.75
807.33	229.70
807.65	229.64
807.97	229.66
808.28	229.59
808.60	229.59
808.92	229.54
809.24	229.53
809.56	229.46
809.88	229.39
810.20	229.34
810.52	229.34
810.84	229.28
811.16	229.24
811.48	229.23
811.80	229.22
812.12	229.22
812.43	229.26
812.75	229.25
813.07	229.23
813.39	229.22
813.71	229.20
814.03	229.20
814.35	229.21
814.67	229.17
814.98	229.18
815.30	229.15
815.62	229.09
815.94	229.00
816.26	229.05
816.58	229.02
816.89	229.06
817.21	228.99
817.53	228.99
817.85	228.97
818.17	228.93
818.48	228.90
818.80	228.91
819.12	228.84
819.44	228.81
819.76	228.77
820.07	228.74
820.39	228.71
820.71	228.71
821.03	228.69
821.34	228.63
821.66	228.62
821.98	228.62
822.30	228.64
822.61	228.73
822.93	228.66
823.25	228.64
823.57	228.62
823.88	228.65
824.20	228.62
824.52	228.67
824.83	228.65
825.15	228.62
825.47	228.57
825.79	228.60
826.10	228.60
826.42	228.59
826.74	228.58
827.05	228.59
827.37	228.59
827.69	228.55
828.00	228.57
828.32	228.55
828.64	228.54
828.95	228.59
829.27	228.54
829.58	228.54
829.90	228.57
830.22	228.55
830.53	228.50
830.85	228.52
831.17	228.47
831.48	228.46
831.80	228.49
832.11	228.48
832.43	228.45
832.75	228.43
833.06	228.48
833.38	228.42
833.69	228.39
834.01	228.37
834.32	228.34
834.64	228.35
834.96	228.32
835.27	228.27
835.59	228.20
835.90	228.18
836.22	228.14
836.53	228.12
836.85	228.11
837.16	228.22
837.48	228.17
837.79	228.23
838.11	228.21
838.42	228.17
838.74	228.20
839.05	228.15
839.37	228.14
839.68	228.06
840.00	228.08
840.31	228.08
840.63	228.04
840.94	228.02
841.26	228.00
841.57	228.02
841.88	228.05
842.20	228.04
842.51	228.01
842.83	228.03
843.14	228.10
843.46	228.07
843.77	228.02
844.08	228.01
844.40	227.92
844.71	227.95
845.03	227.92
845.34	227.90
845.65	227.90
845.97	227.87
846.28	227.87
846.60	227.87
846.91	227.85
847.22	227.87
847.54	227.89
847.85	227.86
848.16	227.82
848.48	227.78
848.79	227.77
849.10	227.76
849.42	227.73
849.73	227.62
850.04	227.62
850.36	227.55
850.67	227.56
850.98	227.60
851.30	227.57
851.61	227.57
851.92	227.58
852.23	227.65
852.55	227.65
852.86	227.62
853.17	227.61
853.49	227.64
853.80	227.64
854.11	227.65
854.42	227.72
854.74	227.72
855.05	227.72
855.36	227.69
855.67	227.73
855.99	227.74
856.30	227.89
856.61	227.90
856.92	227.96
857.23	227.96
857.55	227.92
857.86	227.94
858.17	227.98
858.48	227.96
858.79	227.93
859.11	227.95
859.42	227.95
859.73	227.97
860.04	227.95
860.35	227.93
860.66	227.87
860.98	227.83
861.29	227.87
861.60	227.88
861.91	227.90
862.22	227.87
862.53	227.85
862.84	227.70
863.16	227.70
863.47	227.65
863.78	227.66
864.09	227.66
864.40	227.63
864.71	227.61
865.02	227.60
865.33	227.58
865.64	227.58
865.95	227.61
866.27	227.66
866.58	227.66
866.89	227.67
867.20	227.71
867.51	227.68
867.82	227.65
868.13	227.68
868.44	227.67
868.75	227.71
869.06	227.75
869.37	227.75
869.68	227.74
869.99	227.75
870.30	227.75
870.61	227.77
870.92	227.78
871.23	227.75
871.54	227.80
871.85	227.78
872.16	227.78
872.47	227.76
872.78	227.70
873.09	227.69
873.40	227.67
873.71	227.68
874.02	227.70
874.33	227.69
874.64	227.65
874.95	227.64
875.26	227.57
875.56	227.54
875.87	227.54
876.18	227.52
876.49	227.57
876.80	227.51
877.11	227.49
877.42	227.49
877.73	227.50
878.04	227.46
878.35	227.48
878.66	227.49
878.96	227.47
879.27	227.46
879.58	227.44
879.89	227.45
880.20	227.47
880.51	227.45
880.82	227.45
881.12	227.45
881.43	227.42
881.74	227.40
882.05	227.39
882.36	227.40
882.67	227.43
882.97	227.33
883.28	227.34
883.59	227.35
883.90	227.37
884.21	227.37
884.51	227.34
884.82	227.29
885.13	227.24
885.44	227.25
885.74	227.26
886.05	227.24
886.36	227.20
886.67	227.16
886.98	227.19
887.28	227.18
887.59	227.16
887.90	227.19
888.20	227.23
888.51	227.27
888.82	227.24
889.13	227.23
889.43	227.31
889.74	227.32
890.05	227.29
890.35	227.27
890.66	227.24
890.97	227.25
891.28	227.28
891.58	227.31
891.89	227.33
892.20	227.28
892.50	227.29
892.81	227.26
893.12	227.22
893.42	227.21
893.73	227.18
894.04	227.21
894.34	227.19
894.65	227.20
894.95	227.14
895.26	227.12
895.57	227.15
895.87	227.08
896.18	227.08
896.48	227.10
896.79	227.13
897.10	227.16
897.40	227.14
897.71	227.16
898.01	227.12
898.32	227.12
898.63	227.15
898.93	227.16
899.24	227.19
899.54	227.21
899.85	227.19
900.15	227.23
900.46	227.20
900.76	227.22
901.07	227.19
901.38	227.23
901.68	227.26
901.99	227.22
902.29	227.24
902.60	227.25
902.90	227.25
903.21	227.21
903.51	227.20
903.82	227.22
904.12	227.23
904.43	227.26
904.73	227.28
905.03	227.28
905.34	227.38
905.64	227.38
905.95	227.41
906.25	227.42
906.56	227.41
906.86	227.42
907.17	227.42
907.47	227.44
907.77	227.43
908.08	227.43
908.38	227.47
908.69	227.46
908.99	227.49
909.30	227.51
909.60	227.53
909.90	227.54
910.21	227.54
910.51	227.52
910.81	227.51
911.12	227.49
911.42	227.51
911.73	227.43
912.03	227.44
912.33	227.42
912.64	227.41
912.94	227.42
913.24	227.40
913.55	227.40
913.85	227.38
914.15	227.42
914.46	227.43
914.76	227.41
915.06	227.41
915.37	227.37
915.67	227.38
915.97	227.37
916.27	227.35
916.58	227.36
916.88	227.35
917.18	227.33
917.49	227.38
917.79	227.36
918.09	227.37
918.39	227.41
918.70	227.45
919.00	227.44
919.30	227.47
919.60	227.49
919.91	227.47
920.21	227.51
920.51	227.48
920.81	227.46
921.12	227.45
921.42	227.44
921.72	227.44
922.02	227.41
922.32	227.41
922.63	227.39
922.93	227.42
923.23	227.41
923.53	227.41
923.83	227.33
924.13	227.33
924.44	227.34
924.74	227.30
925.04	227.29
925.34	227.29
925.64	227.24
925.94	227.22
926.24	227.26
926.55	227.20
926.85	227.22
927.15	227.19
927.45	227.20
927.75	227.20
928.05	227.21
928.35	227.18
928.65	227.17
928.95	227.21
929.26	227.16
929.56	227.17
929.86	227.20
930.16	227.22
930.46	227.20
930.76	227.15
931.06	227.11
931.36	227.07
931.66	227.09
931.96	227.07
932.26	227.08
932.56	227.04
932.86	227.06
933.16	227.04
933.46	227.03
933.76	226.99
934.06	227.00
934.36	227.03
934.66	227.04
934.96	227.07
935.26	227.05
935.56	227.05
935.86	227.04
936.16	227.03
936.46	227.01
936.76	226.98
937.06	226.98
937.36	227.02
937.66	227.04
937.96	227.04
938.26	227.08
938.56	227.05
938.86	227.05
939.16	227.08
939.46	227.10
939.76	227.12
940.06	227.14
940.35	227.14
940.65	227.08
940.95	227.09
941.25	227.06
941.55	227.07
941.85	227.10
942.15	227.13
942.45	227.15
942.75	227.15
943.04	227.18
943.34	227.20
943.64	227.20
943.94	227.21
944.24	227.21
944.54	227.22
944.84	227.26
945.13	227.27
945.43	227.26
945.73	227.26
946.03	227.28
946.33	227.28
946.62	227.25
946.92	227.28
947.22	227.30
947.52	227.33
947.82	227.37
948.11	227.34
948.41	227.34
948.71	227.30
949.01	227.32
949.31	227.34
949.60	227.38
949.90	227.39
950.20	227.37
950.50	227.35
950.79	227.35
951.09	227.36
951.39	227.36
951.69	227.33
951.98	227.36
952.28	227.35
952.58	227.34
952.87	227.37
953.17	227.35
953.47	227.33
953.76	227.35
954.06	227.33
954.36	227.33
954.66	227.31
954.95	227.35
955.25	227.36
955.55	227.36
955.84	227.29
956.14	227.27
956.44	227.28
956.73	227.28
957.03	227.26
957.32	227.27
957.62	227.29
957.92	227.30
958.21	227.26
958.51	227.33
958.81	227.37
959.10	227.35
959.40	227.40
959.69	227.40
959.99	227.39
960.29	227.38
960.58	227.37
960.88	227.38
961.17	227.38
961.47	227.34
961.76	227.32
962.06	227.34
962.36	227.34
962.65	227.34
962.95	227.34
963.24	227.31
963.54	227.25
963.83	227.24
964.13	227.25
964.42	227.20
964.72	227.14
965.01	227.08
965.31	227.08
965.60	227.03
965.90	227.09
966.19	227.04
966.49	227.00
966.78	226.97
967.08	226.95
967.37	226.90
967.67	226.90
967.96	226.93
968.26	226.94
968.55	226.94
968.85	226.92
969.14	226.94
969.43	226.99
969.73	226.99
970.02	226.97
970.32	226.94
970.61	226.96
970.91	226.94
971.20	226.93
971.49	226.91
971.79	226.93
972.08	226.89
972.38	226.89
972.67	226.92
972.96	226.95
973.26	226.95
973.55	227.03
973.85	227.00
974.14	226.95
974.43	226.96
974.73	226.96
975.02	226.95
975.31	226.93
975.61	226.89
975.90	226.89
976.19	226.89
976.49	226.93
976.78	226.93
977.07	226.92
977.37	226.95
977.66	226.97
977.95	226.97
978.24	226.96
978.54	227.01
978.83	227.01
979.12	227.02
979.42	227.02
979.71	226.97
980.00	227.00
980.29	227.05
980.59	227.03
980.88	227.08
981.17	227.09
981.46	227.08
981.76	227.10
982.05	227.13
982.34	227.13
982.63	227.14
982.93	227.13
983.22	227.17
983.51	227.21
983.80	227.25
984.09	227.28
984.39	227.23
984.68	227.21
984.97	227.21
985.26	227.20
985.55	227.23
985.85	227.23
986.14	227.25
986.43	227.27
986.72	227.22
987.01	227.17
987.30	227.18
987.59	227.19
987.89	227.19
988.18	227.16
988.47	227.16
988.76	227.16
989.05	227.18
989.34	227.17
989.63	227.17
989.92	227.13
990.22	227.09
990.51	227.10
990.80	227.09
991.09	227.09
991.38	227.10
991.67	227.09
991.96	227.09
992.25	227.08
992.54	227.04
992.83	227.06
993.12	227.08
993.41	227.14
993.70	227.18
993.99	227.19
994.28	227.20
994.58	227.20
994.87	227.16
995.16	227.14
995.45	227.15
995.74	227.12
996.03	227.14
996.32	227.14
996.61	227.16
996.90	227.16
997.19	227.12
997.48	227.13
997.77	227.12
998.06	227.15
998.34	227.16
998.63	227.14
998.92	227.16
999.21	227.16
999.50	227.13
999.79	227.08
1000.08	227.08
1000.37	227.08
1000.66	227.08
1000.95	227.12
1001.24	227.14
1001.53	227.13
1001.82	227.12
1002.11	227.11
1002.40	227.13
1002.68	227.17
1002.97	227.23
1003.26	227.24
1003.55	227.20
1003.84	227.18
1004.13	227.19
1004.42	227.17
1004.71	227.20
1004.99	227.17
1005.28	227.20
1005.57	227.18
1005.86	227.17
1006.15	227.14
1006.44	227.11
1006.72	227.12
1007.01	227.07
1007.30	227.04
1007.59	226.99
1007.88	227.01
1008.17	227.01
1008.45	226.99
1008.74	226.96
1009.03	226.93
1009.32	226.94
1009.60	226.97
1009.89	226.95
1010.18	226.92
1010.47	226.89
1010.76	226.88
1011.04	226.86
1011.33	226.83
1011.62	226.85
1011.91	226.87
1012.19	226.91
1012.48	226.92
1012.77	226.93
1013.05	227.01
1013.34	227.05
1013.63	227.05
1013.92	227.04
1014.20	227.04
1014.49	227.05
1014.78	227.08
1015.06	227.04
1015.35	227.02
1015.64	227.08
1015.92	227.10
1016.21	227.10
1016.50	227.11
1016.78	227.12
1017.07	227.14
1017.36	227.13
1017.64	227.12
1017.93	227.09
1018.22	227.06
1018.50	227.07
1018.79	227.05
1019.08	226.98
1019.36	226.98
1019.65	226.98
1019.93	227.02
1020.22	227.03
1020.51	227.05
1020.79	227.00
1021.08	226.76
1021.36	226.88
1021.65	227.05
1021.94	226.79
1022.22	226.81
1022.51	226.86
1022.79	227.76
1023.08	227.13
1023.36	227.84
1023.65	226.68
>>>>>End Processed Spectral Data<<<<<
