SpectraSuite Data File
++++++++++++++++++++++++++++++++++++
Date: Fri Feb 01 16:23:03 EST 2013
User: group
Dark Spectrum Present: No
Reference Spectrum Present: No
Number of Sampled Component Spectra: 1
Spectrometers: USB2E7196
Integration Time (usec): 35000 (USB2E7196)
Spectra Averaged: 100 (USB2E7196)
Boxcar Smoothing: 10 (USB2E7196)
Correct for Electrical Dark: No (USB2E7196)
Strobe/Lamp Enabled: No (USB2E7196)
Correct for Detector Non-linearity: No (USB2E7196)
Correct for Stray Light: No (USB2E7196)
Number of Pixels in Processed Spectrum: 2048
>>>>>Begin Processed Spectral Data<<<<<
339.09	0.00
339.48	214.50
339.86	215.67
340.24	217.09
340.63	218.50
341.01	221.33
341.39	221.62
341.78	222.76
342.16	223.66
342.54	224.00
342.93	212.67
343.31	223.43
343.69	223.96
344.07	224.43
344.46	224.83
344.84	225.20
345.22	225.43
345.60	225.63
345.99	225.80
346.37	225.93
346.75	226.03
347.13	226.10
347.52	226.13
347.90	226.17
348.28	226.19
348.66	226.23
349.05	226.22
349.43	226.27
349.81	226.29
350.19	226.31
350.57	226.35
350.96	226.46
351.34	226.53
351.72	226.63
352.10	226.70
352.48	226.78
352.87	226.83
353.25	226.88
353.63	226.97
354.01	227.03
354.39	227.08
354.77	227.15
355.15	227.25
355.54	227.27
355.92	227.32
356.30	227.40
356.68	227.48
357.06	227.55
357.44	227.59
357.82	227.64
358.20	227.75
358.58	227.79
358.97	227.81
359.35	227.88
359.73	227.96
360.11	228.02
360.49	228.10
360.87	228.12
361.25	228.18
361.63	228.23
362.01	228.26
362.39	228.26
362.77	228.31
363.15	228.31
363.53	228.36
363.91	228.34
364.29	228.36
364.67	228.31
365.05	228.33
365.43	228.35
365.81	228.38
366.19	228.41
366.57	228.44
366.95	228.45
367.33	228.43
367.71	228.39
368.09	228.38
368.47	228.36
368.85	228.37
369.23	228.38
369.61	228.30
369.99	228.31
370.37	228.36
370.75	228.37
371.13	228.31
371.51	228.29
371.89	228.28
372.27	228.27
372.65	228.22
373.03	228.20
373.41	228.15
373.78	228.10
374.16	227.98
374.54	227.91
374.92	227.81
375.30	227.74
375.68	227.64
376.06	227.59
376.44	227.53
376.82	227.44
377.19	227.39
377.57	227.34
377.95	227.24
378.33	227.14
378.71	226.99
379.09	226.96
379.47	226.91
379.84	226.85
380.22	226.78
380.60	226.70
380.98	226.62
381.36	226.58
381.73	226.50
382.11	226.46
382.49	226.40
382.87	226.37
383.25	226.31
383.62	226.40
384.00	226.30
384.38	226.24
384.76	226.22
385.13	226.18
385.51	226.13
385.89	226.07
386.27	226.01
386.64	226.04
387.02	225.99
387.40	225.93
387.78	225.90
388.15	225.85
388.53	225.85
388.91	225.80
389.29	225.76
389.66	225.75
390.04	225.69
390.42	225.66
390.79	225.62
391.17	225.59
391.55	225.46
391.92	225.46
392.30	225.48
392.68	225.46
393.05	225.46
393.43	225.48
393.81	225.50
394.18	225.49
394.56	225.47
394.94	225.49
395.31	225.50
395.69	225.55
396.06	225.59
396.44	225.59
396.82	225.63
397.19	225.71
397.57	225.73
397.95	225.82
398.32	225.84
398.70	225.95
399.07	226.05
399.45	226.11
399.82	226.16
400.20	226.24
400.58	226.30
400.95	226.32
401.33	226.40
401.70	226.54
402.08	226.63
402.45	226.73
402.83	226.89
403.20	227.02
403.58	227.09
403.95	227.23
404.33	227.38
404.71	227.53
405.08	227.68
405.46	227.79
405.83	227.95
406.21	228.11
406.58	228.23
406.96	228.39
407.33	228.56
407.70	228.79
408.08	228.99
408.45	229.25
408.83	229.50
409.20	229.69
409.58	229.90
409.95	230.18
410.33	230.47
410.70	230.69
411.08	230.99
411.45	231.30
411.82	231.57
412.20	231.92
412.57	232.32
412.95	232.62
413.32	233.07
413.69	233.44
414.07	233.88
414.44	234.36
414.82	234.84
415.19	235.38
415.56	235.88
415.94	236.48
416.31	237.10
416.68	237.75
417.06	238.51
417.43	239.18
417.81	239.93
418.18	240.68
418.55	241.52
418.93	242.37
419.30	243.27
419.67	244.24
420.04	245.17
420.42	246.14
420.79	247.30
421.16	248.40
421.54	249.62
421.91	250.83
422.28	252.07
422.66	253.39
423.03	254.73
423.40	256.07
423.77	257.46
424.15	258.87
424.52	260.33
424.89	261.93
425.26	263.49
425.64	264.93
426.01	266.53
426.38	268.16
426.75	269.82
427.13	271.54
427.50	273.32
427.87	275.21
428.24	277.07
428.61	278.83
428.99	280.81
429.36	282.91
429.73	284.97
430.10	286.99
430.47	289.02
430.85	291.12
431.22	293.35
431.59	295.74
431.96	297.99
432.33	300.46
432.70	302.78
433.08	305.60
433.45	308.26
433.82	310.84
434.19	313.71
434.56	316.53
434.93	319.17
435.30	321.79
435.68	324.68
436.05	327.54
436.42	330.32
436.79	332.76
437.16	335.45
437.53	338.28
437.90	341.06
438.27	343.82
438.64	346.64
439.01	349.21
439.38	351.42
439.75	353.58
440.13	356.04
440.50	358.38
440.87	360.15
441.24	362.04
441.61	364.21
441.98	365.71
442.35	367.49
442.72	369.32
443.09	371.11
443.46	372.06
443.83	372.61
444.20	373.08
444.57	373.96
444.94	374.27
445.31	374.56
445.68	374.93
446.05	375.00
446.42	374.62
446.79	374.22
447.16	373.74
447.53	373.41
447.90	372.25
448.27	371.09
448.64	369.54
449.01	368.40
449.37	366.40
449.74	364.51
450.11	362.29
450.48	359.81
450.85	357.30
451.22	355.16
451.59	353.11
451.96	351.21
452.33	348.60
452.70	346.18
453.07	343.37
453.43	340.44
453.80	337.63
454.17	334.96
454.54	332.42
454.91	329.71
455.28	327.04
455.65	324.60
456.02	322.16
456.38	320.02
456.75	317.39
457.12	315.17
457.49	312.97
457.86	310.80
458.23	309.01
458.59	306.95
458.96	304.94
459.33	303.12
459.70	301.27
460.07	299.80
460.43	298.12
460.80	296.53
461.17	295.11
461.54	293.68
461.91	292.26
462.27	290.82
462.64	289.59
463.01	288.25
463.38	286.90
463.74	285.56
464.11	284.42
464.48	283.44
464.85	282.31
465.21	281.43
465.58	280.49
465.95	279.38
466.32	278.53
466.68	277.58
467.05	276.70
467.42	275.79
467.78	274.86
468.15	273.98
468.52	273.35
468.88	272.52
469.25	271.73
469.62	271.10
469.98	270.45
470.35	269.80
470.72	269.18
471.08	268.58
471.45	268.05
471.82	267.50
472.18	266.93
472.55	266.50
472.92	265.98
473.28	265.54
473.65	265.12
474.02	264.66
474.38	264.29
474.75	263.96
475.11	263.61
475.48	263.37
475.85	263.16
476.21	262.93
476.58	262.74
476.94	262.63
477.31	262.48
477.67	262.34
478.04	262.25
478.41	262.22
478.77	262.27
479.14	262.17
479.50	262.16
479.87	262.21
480.23	262.30
480.60	262.38
480.96	262.51
481.33	262.73
481.69	262.91
482.06	263.12
482.42	263.33
482.79	263.63
483.15	263.93
483.52	264.26
483.88	264.61
484.25	265.02
484.61	265.41
484.98	265.89
485.34	266.43
485.71	267.05
486.07	267.66
486.44	268.24
486.80	268.97
487.17	269.72
487.53	270.51
487.90	271.39
488.26	272.33
488.62	273.29
488.99	274.26
489.35	275.33
489.72	276.48
490.08	277.66
490.44	278.90
490.81	280.23
491.17	281.66
491.54	283.13
491.90	284.70
492.26	286.36
492.63	288.05
492.99	289.83
493.36	291.70
493.72	293.74
494.08	295.85
494.45	298.09
494.81	300.48
495.17	302.93
495.54	305.48
495.90	308.17
496.26	310.98
496.63	313.91
496.99	317.02
497.35	320.31
497.72	323.76
498.08	327.29
498.44	330.98
498.80	334.86
499.17	338.91
499.53	343.09
499.89	347.50
500.26	352.02
500.62	356.73
500.98	361.68
501.34	366.81
501.71	372.16
502.07	377.60
502.43	383.20
502.79	389.06
503.16	395.09
503.52	401.39
503.88	407.84
504.24	414.50
504.60	421.42
504.97	428.57
505.33	435.88
505.69	443.63
506.05	451.36
506.41	459.25
506.78	467.42
507.14	475.88
507.50	484.67
507.86	493.73
508.22	502.95
508.59	512.22
508.95	521.84
509.31	531.65
509.67	541.78
510.03	552.07
510.39	562.60
510.75	573.43
511.12	584.38
511.48	595.67
511.84	607.16
512.20	618.59
512.56	630.59
512.92	642.82
513.28	655.09
513.64	667.63
514.00	680.36
514.37	693.33
514.73	706.38
515.09	719.32
515.45	732.60
515.81	746.13
516.17	760.08
516.53	774.18
516.89	788.30
517.25	802.37
517.61	816.85
517.97	831.26
518.33	845.72
518.69	860.45
519.05	875.42
519.41	890.56
519.77	906.21
520.13	921.53
520.49	936.76
520.85	952.13
521.21	967.87
521.57	984.02
521.93	999.64
522.29	1015.85
522.65	1032.07
523.01	1048.26
523.37	1064.21
523.73	1080.32
524.09	1096.21
524.45	1112.43
524.81	1129.07
525.17	1145.75
525.53	1162.65
525.89	1179.47
526.25	1196.24
526.61	1212.52
526.97	1229.21
527.33	1245.57
527.68	1262.08
528.04	1278.61
528.40	1295.07
528.76	1312.05
529.12	1328.62
529.48	1345.58
529.84	1361.60
530.20	1378.19
530.56	1395.12
530.91	1412.57
531.27	1429.20
531.63	1445.60
531.99	1462.11
532.35	1477.93
532.71	1493.67
533.07	1509.81
533.42	1525.62
533.78	1541.61
534.14	1557.88
534.50	1573.16
534.86	1588.93
535.21	1604.13
535.57	1619.95
535.93	1635.45
536.29	1650.08
536.65	1665.14
537.00	1679.72
537.36	1694.92
537.72	1709.30
538.08	1723.50
538.44	1737.14
538.79	1751.05
539.15	1764.66
539.51	1778.31
539.87	1792.62
540.22	1806.38
540.58	1820.09
540.94	1833.30
541.29	1846.13
541.65	1858.75
542.01	1871.84
542.37	1883.98
542.72	1896.26
543.08	1907.95
543.44	1920.33
543.79	1931.40
544.15	1942.15
544.51	1953.76
544.87	1964.74
545.22	1975.56
545.58	1985.74
545.94	1995.45
546.29	2005.17
546.65	2015.03
547.01	2024.36
547.36	2033.14
547.72	2041.48
548.07	2049.22
548.43	2057.44
548.79	2065.43
549.14	2072.74
549.50	2080.03
549.86	2087.64
550.21	2095.03
550.57	2102.08
550.92	2108.53
551.28	2115.75
551.64	2122.85
551.99	2129.14
552.35	2135.32
552.70	2141.46
553.06	2147.56
553.41	2153.86
553.77	2159.98
554.13	2166.07
554.48	2172.19
554.84	2177.59
555.19	2182.83
555.55	2187.95
555.90	2192.42
556.26	2197.25
556.61	2202.05
556.97	2206.44
557.32	2210.72
557.68	2214.74
558.03	2219.14
558.39	2222.88
558.74	2227.52
559.10	2231.38
559.45	2235.23
559.81	2239.39
560.16	2243.25
560.52	2246.43
560.87	2249.81
561.23	2252.37
561.58	2255.33
561.94	2257.65
562.29	2260.08
562.64	2262.78
563.00	2265.44
563.35	2268.94
563.71	2272.03
564.06	2275.30
564.42	2278.14
564.77	2280.56
565.12	2282.85
565.48	2284.81
565.83	2286.61
566.19	2287.83
566.54	2288.74
566.89	2289.79
567.25	2290.44
567.60	2291.60
567.96	2293.30
568.31	2294.30
568.66	2295.56
569.02	2296.12
569.37	2296.64
569.72	2297.56
570.08	2297.81
570.43	2297.91
570.78	2297.22
571.14	2295.88
571.49	2294.61
571.84	2294.30
572.20	2293.35
572.55	2292.34
572.90	2290.73
573.26	2289.44
573.61	2287.81
573.96	2286.07
574.31	2283.21
574.67	2280.29
575.02	2276.90
575.37	2273.57
575.72	2269.67
576.08	2266.42
576.43	2263.07
576.78	2259.35
577.13	2256.08
577.49	2253.06
577.84	2249.48
578.19	2245.89
578.54	2242.15
578.90	2237.78
579.25	2232.16
579.60	2227.31
579.95	2222.35
580.30	2217.46
580.66	2212.33
581.01	2207.41
581.36	2202.74
581.71	2198.57
582.06	2194.25
582.42	2189.76
582.77	2184.59
583.12	2180.15
583.47	2175.35
583.82	2170.50
584.17	2165.39
584.53	2159.96
584.88	2154.42
585.23	2148.92
585.58	2143.48
585.93	2138.18
586.28	2133.53
586.63	2128.55
586.98	2123.42
587.34	2118.80
587.69	2113.97
588.04	2108.72
588.39	2103.14
588.74	2096.62
589.09	2090.63
589.44	2083.86
589.79	2077.93
590.14	2072.41
590.49	2065.90
590.84	2059.66
591.19	2053.69
591.54	2047.32
591.89	2040.00
592.25	2033.21
592.60	2025.96
592.95	2018.50
593.30	2011.15
593.65	2003.66
594.00	1996.76
594.35	1989.48
594.70	1981.45
595.05	1974.30
595.40	1967.10
595.75	1959.61
596.10	1953.54
596.45	1946.83
596.80	1940.64
597.15	1933.95
597.50	1926.82
597.85	1920.38
598.19	1913.71
598.54	1906.61
598.89	1900.05
599.24	1894.15
599.59	1887.44
599.94	1881.31
600.29	1874.93
600.64	1868.30
600.99	1860.93
601.34	1854.11
601.69	1847.35
602.04	1840.54
602.39	1833.12
602.74	1826.37
603.08	1819.72
603.43	1812.88
603.78	1805.62
604.13	1798.56
604.48	1791.29
604.83	1784.45
605.18	1777.68
605.53	1769.64
605.87	1761.78
606.22	1754.47
606.57	1746.69
606.92	1739.43
607.27	1732.26
607.62	1725.39
607.96	1718.20
608.31	1711.59
608.66	1704.08
609.01	1696.56
609.36	1689.02
609.70	1681.14
610.05	1673.14
610.40	1665.42
610.75	1657.23
611.10	1649.52
611.44	1640.88
611.79	1632.99
612.14	1624.36
612.49	1615.02
612.83	1606.64
613.18	1598.49
613.53	1590.42
613.88	1581.86
614.22	1573.57
614.57	1564.97
614.92	1556.96
615.27	1549.40
615.61	1541.05
615.96	1532.88
616.31	1525.16
616.65	1517.75
617.00	1510.09
617.35	1502.30
617.70	1493.95
618.04	1485.38
618.39	1477.08
618.74	1469.61
619.08	1461.15
619.43	1453.49
619.78	1446.62
620.12	1439.54
620.47	1431.97
620.82	1423.76
621.16	1416.26
621.51	1408.71
621.85	1401.01
622.20	1392.45
622.55	1384.16
622.89	1376.33
623.24	1368.72
623.59	1361.28
623.93	1353.69
624.28	1346.43
624.62	1338.86
624.97	1331.68
625.32	1324.82
625.66	1317.80
626.01	1310.66
626.35	1303.26
626.70	1295.51
627.04	1287.82
627.39	1279.98
627.73	1272.58
628.08	1265.69
628.43	1258.48
628.77	1250.98
629.12	1243.45
629.46	1236.32
629.81	1228.79
630.15	1221.50
630.50	1214.09
630.84	1205.95
631.19	1198.02
631.53	1190.47
631.88	1182.97
632.22	1175.44
632.57	1168.15
632.91	1160.70
633.26	1153.30
633.60	1145.94
633.95	1138.88
634.29	1131.74
634.64	1125.00
634.98	1117.61
635.32	1110.36
635.67	1103.72
636.01	1097.14
636.36	1090.23
636.70	1083.63
637.05	1077.10
637.39	1070.64
637.73	1064.14
638.08	1058.17
638.42	1052.30
638.77	1045.95
639.11	1039.35
639.45	1032.89
639.80	1026.22
640.14	1019.70
640.49	1013.12
640.83	1006.80
641.17	1000.53
641.52	994.24
641.86	987.81
642.20	981.92
642.55	975.65
642.89	969.16
643.23	962.64
643.58	956.95
643.92	950.74
644.26	944.57
644.61	938.55
644.95	932.51
645.29	925.94
645.64	919.14
645.98	912.74
646.32	906.95
646.66	900.94
647.01	895.11
647.35	889.43
647.69	883.55
648.04	877.98
648.38	872.13
648.72	866.14
649.06	860.07
649.41	854.15
649.75	848.25
650.09	842.23
650.43	836.42
650.78	830.35
651.12	824.46
651.46	818.87
651.80	813.10
652.14	807.76
652.49	802.38
652.83	797.23
653.17	791.59
653.51	785.80
653.85	780.39
654.20	774.80
654.54	768.78
654.88	763.08
655.22	757.20
655.56	751.56
655.90	746.19
656.25	740.98
656.59	735.67
656.93	730.55
657.27	725.44
657.61	719.98
657.95	714.84
658.29	709.72
658.64	704.42
658.98	699.16
659.32	693.64
659.66	688.45
660.00	683.10
660.34	678.12
660.68	673.21
661.02	668.13
661.36	663.42
661.70	658.87
662.05	654.57
662.39	650.25
662.73	645.77
663.07	641.31
663.41	636.82
663.75	632.26
664.09	627.65
664.43	623.26
664.77	619.11
665.11	614.81
665.45	610.70
665.79	606.59
666.13	602.41
666.47	598.31
666.81	594.13
667.15	589.98
667.49	586.09
667.83	582.30
668.17	578.40
668.51	574.29
668.85	570.26
669.19	566.38
669.53	562.48
669.87	558.59
670.21	554.87
670.55	551.22
670.89	547.83
671.23	544.41
671.57	540.91
671.91	537.39
672.25	533.95
672.58	530.36
672.92	527.03
673.26	523.88
673.60	520.76
673.94	517.56
674.28	514.71
674.62	511.76
674.96	508.63
675.30	505.71
675.64	502.73
675.97	499.97
676.31	497.06
676.65	494.22
676.99	491.51
677.33	488.66
677.67	485.83
678.01	482.72
678.34	479.74
678.68	476.86
679.02	474.08
679.36	471.26
679.70	468.59
680.04	465.76
680.37	462.83
680.71	460.00
681.05	457.46
681.39	454.66
681.73	452.00
682.06	449.48
682.40	446.94
682.74	444.42
683.08	441.92
683.42	439.31
683.75	436.79
684.09	434.26
684.43	431.78
684.77	429.40
685.10	427.11
685.44	424.82
685.78	422.53
686.12	420.29
686.45	417.98
686.79	415.64
687.13	413.43
687.46	411.31
687.80	409.19
688.14	406.99
688.48	405.00
688.81	402.73
689.15	400.56
689.49	398.40
689.82	396.35
690.16	394.24
690.50	392.29
690.83	390.36
691.17	388.39
691.51	386.47
691.84	384.57
692.18	382.65
692.52	380.66
692.85	378.70
693.19	376.79
693.52	374.98
693.86	373.20
694.20	371.42
694.53	369.58
694.87	367.67
695.21	365.91
695.54	364.03
695.88	362.35
696.21	360.65
696.55	358.95
696.88	357.28
697.22	355.58
697.56	353.94
697.89	352.28
698.23	350.63
698.56	349.05
698.90	347.49
699.23	345.84
699.57	344.25
699.90	342.71
700.24	341.15
700.58	339.61
700.91	338.10
701.25	336.64
701.58	335.29
701.92	333.96
702.25	332.53
702.59	331.16
702.92	329.80
703.26	328.51
703.59	327.22
703.93	326.01
704.26	324.79
704.60	323.50
704.93	322.22
705.26	320.97
705.60	319.78
705.93	318.64
706.27	317.58
706.60	316.55
706.94	315.46
707.27	314.31
707.61	313.25
707.94	312.20
708.27	311.12
708.61	309.99
708.94	308.97
709.28	307.97
709.61	307.03
709.94	306.08
710.28	305.03
710.61	304.07
710.95	302.98
711.28	302.12
711.61	301.17
711.95	300.22
712.28	299.26
712.61	298.22
712.95	297.25
713.28	296.39
713.61	295.48
713.95	294.61
714.28	293.80
714.61	292.92
714.95	292.07
715.28	291.19
715.61	290.37
715.95	289.52
716.28	288.64
716.61	287.78
716.95	286.96
717.28	286.22
717.61	285.41
717.94	284.69
718.28	283.86
718.61	283.14
718.94	282.47
719.27	281.83
719.61	281.22
719.94	280.56
720.27	279.83
720.60	279.18
720.94	278.55
721.27	277.94
721.60	277.36
721.93	276.76
722.27	276.26
722.60	275.71
722.93	275.12
723.26	274.64
723.59	274.09
723.93	273.55
724.26	272.97
724.59	272.41
724.92	271.87
725.25	271.33
725.59	270.81
725.92	270.30
726.25	269.78
726.58	269.30
726.91	268.81
727.24	268.34
727.57	267.86
727.91	267.33
728.24	266.87
728.57	266.44
728.90	265.99
729.23	265.47
729.56	265.01
729.89	264.54
730.22	264.04
730.55	263.60
730.89	263.11
731.22	262.70
731.55	262.30
731.88	261.85
732.21	261.43
732.54	261.01
732.87	260.60
733.20	260.19
733.53	259.80
733.86	259.43
734.19	259.01
734.52	258.60
734.85	258.31
735.18	257.90
735.51	257.51
735.84	257.17
736.17	256.82
736.50	256.48
736.83	256.27
737.16	255.95
737.49	255.61
737.82	255.28
738.15	254.96
738.48	254.64
738.81	254.34
739.14	254.02
739.47	253.73
739.80	253.38
740.13	253.10
740.46	252.80
740.79	252.45
741.12	252.14
741.45	251.86
741.78	251.52
742.11	251.25
742.44	250.92
742.77	250.58
743.10	250.31
743.43	249.98
743.75	249.55
744.08	249.41
744.41	249.12
744.74	248.92
745.07	248.62
745.40	248.36
745.73	248.12
746.06	247.83
746.39	247.55
746.71	247.28
747.04	247.01
747.37	246.71
747.70	246.48
748.03	246.26
748.36	246.03
748.68	245.78
749.01	245.49
749.34	245.25
749.67	245.03
750.00	244.79
750.33	244.62
750.65	244.45
750.98	244.08
751.31	243.85
751.64	243.62
751.97	243.43
752.29	243.21
752.62	242.93
752.95	242.76
753.28	242.57
753.60	242.40
753.93	242.18
754.26	242.00
754.59	241.78
754.91	241.56
755.24	241.33
755.57	241.14
755.90	240.97
756.22	240.82
756.55	240.61
756.88	240.43
757.20	240.21
757.53	240.01
757.86	239.85
758.19	239.72
758.51	239.56
758.84	239.37
759.17	239.19
759.49	239.07
759.82	238.92
760.15	238.73
760.47	238.55
760.80	238.40
761.13	238.23
761.45	238.04
761.78	237.88
762.11	237.73
762.43	237.57
762.76	237.40
763.08	237.24
763.41	237.10
763.74	236.95
764.06	236.82
764.39	236.65
764.71	236.48
765.04	236.34
765.37	236.17
765.69	236.02
766.02	235.89
766.34	235.74
766.67	235.63
767.00	235.55
767.32	235.49
767.65	235.41
767.97	235.33
768.30	235.26
768.62	235.16
768.95	235.05
769.27	234.96
769.60	234.93
769.92	234.83
770.25	234.73
770.57	234.63
770.90	234.49
771.22	234.40
771.55	234.31
771.87	234.21
772.20	234.14
772.52	234.13
772.85	234.15
773.17	234.08
773.50	233.97
773.82	233.87
774.15	233.74
774.47	233.63
774.80	233.52
775.12	233.45
775.45	233.37
775.77	233.33
776.09	233.25
776.42	233.15
776.74	233.12
777.07	233.05
777.39	232.98
777.72	232.96
778.04	232.93
778.36	232.86
778.69	232.82
779.01	232.76
779.33	232.64
779.66	232.51
779.98	232.43
780.31	232.39
780.63	232.34
780.95	232.31
781.28	232.27
781.60	232.24
781.92	232.15
782.25	232.11
782.57	232.04
782.89	231.98
783.22	231.89
783.54	231.82
783.86	231.77
784.19	231.72
784.51	231.69
784.83	231.64
785.16	231.62
785.48	231.56
785.80	231.49
786.12	231.46
786.45	231.41
786.77	231.38
787.09	231.32
787.42	231.28
787.74	231.25
788.06	231.18
788.38	231.14
788.71	231.09
789.03	231.07
789.35	231.03
789.67	230.98
789.99	230.97
790.32	230.89
790.64	230.85
790.96	230.86
791.28	230.78
791.61	230.71
791.93	230.64
792.25	230.57
792.57	230.62
792.89	230.53
793.21	230.46
793.54	230.40
793.86	230.30
794.18	230.23
794.50	230.17
794.82	230.10
795.14	230.04
795.47	230.02
795.79	229.95
796.11	229.86
796.43	229.81
796.75	229.75
797.07	229.74
797.39	229.71
797.71	229.64
798.04	229.58
798.36	229.55
798.68	229.52
799.00	229.49
799.32	229.39
799.64	229.38
799.96	229.36
800.28	229.35
800.60	229.34
800.92	229.31
801.24	229.21
801.56	229.20
801.89	229.14
802.21	229.11
802.53	229.06
802.85	229.08
803.17	229.08
803.49	229.05
803.81	228.98
804.13	228.92
804.45	228.87
804.77	228.86
805.09	228.81
805.41	228.77
805.73	228.72
806.05	228.66
806.37	228.61
806.69	228.60
807.01	228.54
807.33	228.49
807.65	228.45
807.97	228.52
808.28	228.48
808.60	228.47
808.92	228.42
809.24	228.47
809.56	228.45
809.88	228.40
810.20	228.36
810.52	228.33
810.84	228.29
811.16	228.25
811.48	228.23
811.80	228.24
812.12	228.23
812.43	228.23
812.75	228.21
813.07	228.17
813.39	228.14
813.71	228.11
814.03	228.10
814.35	228.10
814.67	228.02
814.98	228.01
815.30	228.02
815.62	227.99
815.94	227.90
816.26	227.92
816.58	227.91
816.89	227.89
817.21	227.87
817.53	227.88
817.85	227.89
818.17	227.86
818.48	227.84
818.80	227.86
819.12	227.84
819.44	227.81
819.76	227.81
820.07	227.78
820.39	227.77
820.71	227.79
821.03	227.80
821.34	227.78
821.66	227.77
821.98	227.74
822.30	227.75
822.61	227.80
822.93	227.73
823.25	227.72
823.57	227.74
823.88	227.78
824.20	227.76
824.52	227.74
824.83	227.73
825.15	227.70
825.47	227.69
825.79	227.69
826.10	227.71
826.42	227.69
826.74	227.68
827.05	227.69
827.37	227.67
827.69	227.61
828.00	227.65
828.32	227.64
828.64	227.65
828.95	227.71
829.27	227.67
829.58	227.69
829.90	227.70
830.22	227.69
830.53	227.65
830.85	227.65
831.17	227.64
831.48	227.63
831.80	227.63
832.11	227.63
832.43	227.59
832.75	227.61
833.06	227.71
833.38	227.70
833.69	227.70
834.01	227.69
834.32	227.68
834.64	227.63
834.96	227.64
835.27	227.59
835.59	227.52
835.90	227.48
836.22	227.44
836.53	227.40
836.85	227.37
837.16	227.45
837.48	227.43
837.79	227.43
838.11	227.44
838.42	227.42
838.74	227.41
839.05	227.41
839.37	227.36
839.68	227.27
840.00	227.25
840.31	227.25
840.63	227.25
840.94	227.23
841.26	227.23
841.57	227.22
841.88	227.21
842.20	227.19
842.51	227.22
842.83	227.20
843.14	227.29
843.46	227.28
843.77	227.21
844.08	227.19
844.40	227.16
844.71	227.13
845.03	227.10
845.34	227.08
845.65	227.07
845.97	227.07
846.28	227.06
846.60	227.04
846.91	226.99
847.22	226.97
847.54	226.99
847.85	226.96
848.16	226.93
848.48	226.91
848.79	226.94
849.10	226.92
849.42	226.93
849.73	226.79
850.04	226.76
850.36	226.74
850.67	226.72
850.98	226.74
851.30	226.72
851.61	226.72
851.92	226.69
852.23	226.73
852.55	226.69
852.86	226.72
853.17	226.71
853.49	226.74
853.80	226.75
854.11	226.78
854.42	226.78
854.74	226.77
855.05	226.79
855.36	226.75
855.67	226.76
855.99	226.75
856.30	226.91
856.61	226.93
856.92	226.95
857.23	226.97
857.55	226.95
857.86	226.94
858.17	226.94
858.48	226.94
858.79	226.90
859.11	226.94
859.42	226.89
859.73	226.89
860.04	226.91
860.35	226.88
860.66	226.84
860.98	226.83
861.29	226.85
861.60	226.83
861.91	226.87
862.22	226.87
862.53	226.87
862.84	226.72
863.16	226.72
863.47	226.70
863.78	226.70
864.09	226.73
864.40	226.75
864.71	226.78
865.02	226.79
865.33	226.79
865.64	226.74
865.95	226.74
866.27	226.79
866.58	226.74
866.89	226.75
867.20	226.76
867.51	226.78
867.82	226.78
868.13	226.80
868.44	226.74
868.75	226.74
869.06	226.74
869.37	226.80
869.68	226.77
869.99	226.79
870.30	226.79
870.61	226.78
870.92	226.79
871.23	226.72
871.54	226.71
871.85	226.73
872.16	226.76
872.47	226.74
872.78	226.69
873.09	226.68
873.40	226.65
873.71	226.62
874.02	226.62
874.33	226.60
874.64	226.62
874.95	226.60
875.26	226.61
875.56	226.56
875.87	226.54
876.18	226.52
876.49	226.59
876.80	226.53
877.11	226.50
877.42	226.51
877.73	226.56
878.04	226.54
878.35	226.53
878.66	226.54
878.96	226.59
879.27	226.59
879.58	226.63
879.89	226.63
880.20	226.64
880.51	226.60
880.82	226.60
881.12	226.55
881.43	226.55
881.74	226.51
882.05	226.53
882.36	226.52
882.67	226.53
882.97	226.43
883.28	226.46
883.59	226.45
883.90	226.43
884.21	226.44
884.51	226.42
884.82	226.41
885.13	226.39
885.44	226.35
885.74	226.35
886.05	226.32
886.36	226.28
886.67	226.26
886.98	226.32
887.28	226.32
887.59	226.34
887.90	226.32
888.20	226.31
888.51	226.33
888.82	226.31
889.13	226.30
889.43	226.35
889.74	226.33
890.05	226.33
890.35	226.32
890.66	226.28
890.97	226.32
891.28	226.26
891.58	226.23
891.89	226.22
892.20	226.20
892.50	226.18
892.81	226.19
893.12	226.18
893.42	226.14
893.73	226.11
894.04	226.10
894.34	226.13
894.65	226.13
894.95	226.11
895.26	226.10
895.57	226.16
895.87	226.09
896.18	226.15
896.48	226.16
896.79	226.17
897.10	226.18
897.40	226.14
897.71	226.21
898.01	226.21
898.32	226.23
898.63	226.26
898.93	226.27
899.24	226.30
899.54	226.30
899.85	226.27
900.15	226.31
900.46	226.33
900.76	226.34
901.07	226.35
901.38	226.36
901.68	226.39
901.99	226.37
902.29	226.37
902.60	226.34
902.90	226.33
903.21	226.32
903.51	226.31
903.82	226.37
904.12	226.35
904.43	226.39
904.73	226.37
905.03	226.35
905.34	226.45
905.64	226.43
905.95	226.42
906.25	226.43
906.56	226.42
906.86	226.42
907.17	226.40
907.47	226.39
907.77	226.40
908.08	226.39
908.38	226.37
908.69	226.41
908.99	226.44
909.30	226.47
909.60	226.52
909.90	226.54
910.21	226.51
910.51	226.47
910.81	226.46
911.12	226.50
911.42	226.52
911.73	226.41
912.03	226.46
912.33	226.49
912.64	226.52
912.94	226.49
913.24	226.46
913.55	226.45
913.85	226.47
914.15	226.50
914.46	226.54
914.76	226.53
915.06	226.46
915.37	226.45
915.67	226.42
915.97	226.38
916.27	226.36
916.58	226.33
916.88	226.34
917.18	226.31
917.49	226.32
917.79	226.33
918.09	226.34
918.39	226.37
918.70	226.39
919.00	226.34
919.30	226.42
919.60	226.42
919.91	226.41
920.21	226.38
920.51	226.34
920.81	226.29
921.12	226.32
921.42	226.33
921.72	226.32
922.02	226.32
922.32	226.34
922.63	226.33
922.93	226.37
923.23	226.37
923.53	226.36
923.83	226.32
924.13	226.32
924.44	226.29
924.74	226.26
925.04	226.25
925.34	226.27
925.64	226.19
925.94	226.20
926.24	226.26
926.55	226.25
926.85	226.26
927.15	226.28
927.45	226.26
927.75	226.27
928.05	226.26
928.35	226.24
928.65	226.24
928.95	226.22
929.26	226.17
929.56	226.18
929.86	226.19
930.16	226.18
930.46	226.17
930.76	226.15
931.06	226.11
931.36	226.07
931.66	226.05
931.96	226.08
932.26	226.07
932.56	226.04
932.86	226.06
933.16	226.05
933.46	226.00
933.76	225.98
934.06	225.96
934.36	226.00
934.66	226.00
934.96	225.98
935.26	226.02
935.56	226.05
935.86	226.04
936.16	226.04
936.46	226.05
936.76	226.03
937.06	226.03
937.36	226.06
937.66	226.09
937.96	226.10
938.26	226.06
938.56	226.03
938.86	226.02
939.16	226.06
939.46	226.09
939.76	226.15
940.06	226.17
940.35	226.19
940.65	226.15
940.95	226.18
941.25	226.17
941.55	226.15
941.85	226.14
942.15	226.19
942.45	226.23
942.75	226.24
943.04	226.28
943.34	226.32
943.64	226.31
943.94	226.31
944.24	226.33
944.54	226.35
944.84	226.38
945.13	226.40
945.43	226.39
945.73	226.40
946.03	226.39
946.33	226.40
946.62	226.39
946.92	226.38
947.22	226.38
947.52	226.41
947.82	226.42
948.11	226.42
948.41	226.37
948.71	226.32
949.01	226.33
949.31	226.34
949.60	226.33
949.90	226.32
950.20	226.29
950.50	226.31
950.79	226.33
951.09	226.35
951.39	226.33
951.69	226.31
951.98	226.32
952.28	226.29
952.58	226.26
952.87	226.27
953.17	226.29
953.47	226.26
953.76	226.25
954.06	226.27
954.36	226.26
954.66	226.25
954.95	226.32
955.25	226.30
955.55	226.30
955.84	226.26
956.14	226.27
956.44	226.30
956.73	226.26
957.03	226.27
957.32	226.24
957.62	226.24
957.92	226.25
958.21	226.20
958.51	226.29
958.81	226.32
959.10	226.31
959.40	226.31
959.69	226.36
959.99	226.33
960.29	226.28
960.58	226.26
960.88	226.31
961.17	226.26
961.47	226.25
961.76	226.22
962.06	226.25
962.36	226.24
962.65	226.21
962.95	226.20
963.24	226.17
963.54	226.17
963.83	226.17
964.13	226.16
964.42	226.15
964.72	226.09
965.01	226.06
965.31	226.06
965.60	226.02
965.90	226.04
966.19	226.02
966.49	226.04
966.78	226.01
967.08	226.02
967.37	226.00
967.67	225.97
967.96	225.95
968.26	225.97
968.55	225.96
968.85	225.96
969.14	225.97
969.43	225.94
969.73	225.95
970.02	225.92
970.32	225.86
970.61	225.85
970.91	225.78
971.20	225.80
971.49	225.76
971.79	225.78
972.08	225.70
972.38	225.73
972.67	225.69
972.96	225.73
973.26	225.66
973.55	225.71
973.85	225.69
974.14	225.71
974.43	225.67
974.73	225.68
975.02	225.69
975.31	225.70
975.61	225.70
975.90	225.69
976.19	225.69
976.49	225.73
976.78	225.77
977.07	225.80
977.37	225.81
977.66	225.86
977.95	225.87
978.24	225.87
978.54	225.89
978.83	225.92
979.12	225.93
979.42	225.96
979.71	225.96
980.00	226.01
980.29	226.05
980.59	226.08
980.88	226.13
981.17	226.10
981.46	226.08
981.76	226.10
982.05	226.12
982.34	226.13
982.63	226.16
982.93	226.15
983.22	226.19
983.51	226.17
983.80	226.16
984.09	226.18
984.39	226.20
984.68	226.20
984.97	226.23
985.26	226.23
985.55	226.26
985.85	226.22
986.14	226.23
986.43	226.21
986.72	226.18
987.01	226.13
987.30	226.14
987.59	226.13
987.89	226.14
988.18	226.15
988.47	226.15
988.76	226.15
989.05	226.14
989.34	226.10
989.63	226.13
989.92	226.11
990.22	226.07
990.51	226.08
990.80	226.06
991.09	226.02
991.38	226.02
991.67	226.01
991.96	226.00
992.25	226.00
992.54	226.03
992.83	226.05
993.12	226.07
993.41	226.09
993.70	226.17
993.99	226.14
994.28	226.12
994.58	226.13
994.87	226.09
995.16	226.09
995.45	226.10
995.74	226.06
996.03	226.08
996.32	226.12
996.61	226.10
996.90	226.12
997.19	226.11
997.48	226.10
997.77	226.04
998.06	226.05
998.34	226.04
998.63	225.97
998.92	225.91
999.21	225.92
999.50	225.90
999.79	225.86
1000.08	225.87
1000.37	225.84
1000.66	225.81
1000.95	225.81
1001.24	225.81
1001.53	225.80
1001.82	225.81
1002.11	225.77
1002.40	225.74
1002.68	225.77
1002.97	225.82
1003.26	225.80
1003.55	225.76
1003.84	225.83
1004.13	225.84
1004.42	225.78
1004.71	225.77
1004.99	225.79
1005.28	225.80
1005.57	225.77
1005.86	225.74
1006.15	225.74
1006.44	225.74
1006.72	225.75
1007.01	225.75
1007.30	225.72
1007.59	225.70
1007.88	225.65
1008.17	225.71
1008.45	225.70
1008.74	225.66
1009.03	225.60
1009.32	225.61
1009.60	225.66
1009.89	225.60
1010.18	225.57
1010.47	225.65
1010.76	225.69
1011.04	225.70
1011.33	225.70
1011.62	225.73
1011.91	225.75
1012.19	225.76
1012.48	225.79
1012.77	225.80
1013.05	225.86
1013.34	225.90
1013.63	225.92
1013.92	225.95
1014.20	225.94
1014.49	225.95
1014.78	226.00
1015.06	226.00
1015.35	226.00
1015.64	226.02
1015.92	226.07
1016.21	226.10
1016.50	226.06
1016.78	226.04
1017.07	226.02
1017.36	226.01
1017.64	226.01
1017.93	226.04
1018.22	226.07
1018.50	226.07
1018.79	226.06
1019.08	226.04
1019.36	226.02
1019.65	226.00
1019.93	226.07
1020.22	226.10
1020.51	226.17
1020.79	226.14
1021.08	226.41
1021.36	225.78
1021.65	225.97
1021.94	226.52
1022.22	225.79
1022.51	225.49
1022.79	227.10
1023.08	226.68
1023.36	227.69
1023.65	225.57
>>>>>End Processed Spectral Data<<<<<
