SpectraSuite Data File
++++++++++++++++++++++++++++++++++++
Date: Fri Feb 01 15:11:16 EST 2013
User: group
Dark Spectrum Present: No
Reference Spectrum Present: No
Number of Sampled Component Spectra: 1
Spectrometers: USB2E7196
Integration Time (usec): 35000 (USB2E7196)
Spectra Averaged: 100 (USB2E7196)
Boxcar Smoothing: 10 (USB2E7196)
Correct for Electrical Dark: No (USB2E7196)
Strobe/Lamp Enabled: No (USB2E7196)
Correct for Detector Non-linearity: No (USB2E7196)
Correct for Stray Light: No (USB2E7196)
Number of Pixels in Processed Spectrum: 2048
>>>>>Begin Processed Spectral Data<<<<<
339.09	0.00
339.48	215.28
339.86	217.16
340.24	218.60
340.63	219.55
341.01	222.25
341.39	222.25
341.78	223.91
342.16	224.42
342.54	225.30
342.93	213.56
343.31	224.35
343.69	224.85
344.07	225.31
344.46	225.68
344.84	226.05
345.22	226.29
345.60	226.55
345.99	226.70
346.37	226.84
346.75	226.94
347.13	227.03
347.52	227.07
347.90	227.13
348.28	227.19
348.66	227.28
349.05	227.26
349.43	227.32
349.81	227.39
350.19	227.39
350.57	227.43
350.96	227.51
351.34	227.59
351.72	227.71
352.10	227.79
352.48	227.90
352.87	227.95
353.25	227.99
353.63	228.06
354.01	228.15
354.39	228.22
354.77	228.29
355.15	228.39
355.54	228.45
355.92	228.50
356.30	228.52
356.68	228.63
357.06	228.69
357.44	228.73
357.82	228.79
358.20	228.90
358.58	228.95
358.97	229.00
359.35	229.09
359.73	229.17
360.11	229.23
360.49	229.26
360.87	229.33
361.25	229.39
361.63	229.43
362.01	229.46
362.39	229.50
362.77	229.55
363.15	229.56
363.53	229.60
363.91	229.63
364.29	229.66
364.67	229.59
365.05	229.62
365.43	229.64
365.81	229.64
366.19	229.65
366.57	229.69
366.95	229.63
367.33	229.58
367.71	229.54
368.09	229.54
368.47	229.52
368.85	229.49
369.23	229.46
369.61	229.41
369.99	229.40
370.37	229.39
370.75	229.40
371.13	229.32
371.51	229.24
371.89	229.19
372.27	229.13
372.65	229.07
373.03	229.02
373.41	228.95
373.78	228.88
374.16	228.76
374.54	228.67
374.92	228.63
375.30	228.57
375.68	228.45
376.06	228.36
376.44	228.26
376.82	228.17
377.19	228.11
377.57	228.00
377.95	227.88
378.33	227.80
378.71	227.66
379.09	227.60
379.47	227.55
379.84	227.44
380.22	227.38
380.60	227.27
380.98	227.17
381.36	227.09
381.73	227.00
382.11	226.96
382.49	226.89
382.87	226.82
383.25	226.73
383.62	226.80
384.00	226.73
384.38	226.68
384.76	226.60
385.13	226.58
385.51	226.54
385.89	226.49
386.27	226.40
386.64	226.35
387.02	226.29
387.40	226.26
387.78	226.23
388.15	226.25
388.53	226.24
388.91	226.23
389.29	226.19
389.66	226.18
390.04	226.16
390.42	226.15
390.79	226.15
391.17	226.16
391.55	226.05
391.92	226.06
392.30	226.07
392.68	226.12
393.05	226.12
393.43	226.13
393.81	226.13
394.18	226.14
394.56	226.18
394.94	226.25
395.31	226.26
395.69	226.35
396.06	226.34
396.44	226.38
396.82	226.42
397.19	226.58
397.57	226.65
397.95	226.73
398.32	226.79
398.70	226.85
399.07	226.95
399.45	227.03
399.82	227.11
400.20	227.20
400.58	227.27
400.95	227.30
401.33	227.46
401.70	227.61
402.08	227.73
402.45	227.84
402.83	227.92
403.20	228.03
403.58	228.13
403.95	228.29
404.33	228.43
404.71	228.54
405.08	228.68
405.46	228.82
405.83	228.97
406.21	229.13
406.58	229.30
406.96	229.46
407.33	229.66
407.70	229.85
408.08	230.11
408.45	230.32
408.83	230.58
409.20	230.76
409.58	230.99
409.95	231.25
410.33	231.51
410.70	231.77
411.08	232.07
411.45	232.37
411.82	232.67
412.20	233.03
412.57	233.47
412.95	233.74
413.32	234.17
413.69	234.54
414.07	234.97
414.44	235.46
414.82	235.91
415.19	236.46
415.56	237.01
415.94	237.57
416.31	238.24
416.68	238.85
417.06	239.56
417.43	240.24
417.81	241.00
418.18	241.79
418.55	242.65
418.93	243.57
419.30	244.47
419.67	245.40
420.04	246.35
420.42	247.36
420.79	248.55
421.16	249.66
421.54	250.88
421.91	252.10
422.28	253.32
422.66	254.68
423.03	255.95
423.40	257.26
423.77	258.67
424.15	260.06
424.52	261.53
424.89	263.17
425.26	264.71
425.64	266.16
426.01	267.74
426.38	269.36
426.75	271.03
427.13	272.75
427.50	274.60
427.87	276.47
428.24	278.32
428.61	280.06
428.99	282.04
429.36	284.15
429.73	286.19
430.10	288.23
430.47	290.26
430.85	292.42
431.22	294.66
431.59	297.02
431.96	299.29
432.33	301.82
432.70	304.20
433.08	307.04
433.45	309.67
433.82	312.25
434.19	315.20
434.56	317.99
434.93	320.65
435.30	323.26
435.68	326.17
436.05	329.03
436.42	331.81
436.79	334.30
437.16	337.00
437.53	339.87
437.90	342.74
438.27	345.52
438.64	348.36
439.01	350.94
439.38	353.18
439.75	355.39
440.13	357.90
440.50	360.27
440.87	362.17
441.24	364.16
441.61	366.36
441.98	367.85
442.35	369.67
442.72	371.54
443.09	373.32
443.46	374.35
443.83	374.93
444.20	375.51
444.57	376.38
444.94	376.68
445.31	377.01
445.68	377.35
446.05	377.41
446.42	377.05
446.79	376.66
447.16	376.23
447.53	375.86
447.90	374.72
448.27	373.57
448.64	371.95
449.01	370.80
449.37	368.82
449.74	366.92
450.11	364.67
450.48	362.20
450.85	359.72
451.22	357.57
451.59	355.58
451.96	353.61
452.33	351.02
452.70	348.64
453.07	345.79
453.43	342.87
453.80	340.11
454.17	337.44
454.54	334.88
454.91	332.20
455.28	329.54
455.65	327.04
456.02	324.55
456.38	322.40
456.75	319.76
457.12	317.51
457.49	315.28
457.86	313.11
458.23	311.24
458.59	309.15
458.96	307.04
459.33	305.13
459.70	303.24
460.07	301.71
460.43	300.01
460.80	298.40
461.17	296.93
461.54	295.41
461.91	293.95
462.27	292.51
462.64	291.22
463.01	289.84
463.38	288.48
463.74	287.11
464.11	285.95
464.48	284.91
464.85	283.79
465.21	282.93
465.58	281.99
465.95	280.82
466.32	279.91
466.68	278.98
467.05	278.05
467.42	277.15
467.78	276.21
468.15	275.32
468.52	274.66
468.88	273.80
469.25	273.01
469.62	272.37
469.98	271.66
470.35	271.03
470.72	270.41
471.08	269.74
471.45	269.16
471.82	268.58
472.18	267.96
472.55	267.50
472.92	266.94
473.28	266.49
473.65	266.08
474.02	265.60
474.38	265.25
474.75	264.91
475.11	264.58
475.48	264.32
475.85	264.06
476.21	263.77
476.58	263.58
476.94	263.44
477.31	263.25
477.67	263.08
478.04	262.93
478.41	262.89
478.77	262.96
479.14	262.91
479.50	262.91
479.87	262.93
480.23	263.02
480.60	263.07
480.96	263.15
481.33	263.36
481.69	263.55
482.06	263.73
482.42	263.90
482.79	264.15
483.15	264.47
483.52	264.86
483.88	265.25
484.25	265.61
484.61	266.00
484.98	266.46
485.34	267.04
485.71	267.62
486.07	268.21
486.44	268.74
486.80	269.40
487.17	270.08
487.53	270.88
487.90	271.71
488.26	272.68
488.62	273.66
488.99	274.63
489.35	275.68
489.72	276.82
490.08	278.07
490.44	279.26
490.81	280.58
491.17	281.92
491.54	283.36
491.90	284.94
492.26	286.63
492.63	288.31
492.99	290.08
493.36	291.95
493.72	293.97
494.08	296.12
494.45	298.39
494.81	300.77
495.17	303.24
495.54	305.84
495.90	308.52
496.26	311.24
496.63	314.22
496.99	317.32
497.35	320.57
497.72	323.92
498.08	327.48
498.44	331.15
498.80	335.07
499.17	339.10
499.53	343.23
499.89	347.61
500.26	352.14
500.62	356.79
500.98	361.80
501.34	366.89
501.71	372.20
502.07	377.56
502.43	383.16
502.79	388.97
503.16	394.97
503.52	401.22
503.88	407.68
504.24	414.28
504.60	421.15
504.97	428.25
505.33	435.64
505.69	443.32
506.05	451.07
506.41	458.92
506.78	467.11
507.14	475.62
507.50	484.32
507.86	493.33
508.22	502.47
508.59	511.57
508.95	521.17
509.31	530.98
509.67	541.16
510.03	551.44
510.39	561.98
510.75	572.79
511.12	583.68
511.48	594.95
511.84	606.40
512.20	617.94
512.56	629.89
512.92	642.09
513.28	654.41
513.64	666.92
514.00	679.62
514.37	692.51
514.73	705.60
515.09	718.63
515.45	732.01
515.81	745.63
516.17	759.71
516.53	773.81
516.89	788.00
517.25	802.16
517.61	816.67
517.97	831.08
518.33	845.57
518.69	860.41
519.05	875.37
519.41	890.52
519.77	906.12
520.13	921.59
520.49	936.98
520.85	952.50
521.21	968.16
521.57	984.57
521.93	1000.41
522.29	1016.73
522.65	1033.06
523.01	1049.34
523.37	1065.49
523.73	1081.67
524.09	1097.86
524.45	1114.30
524.81	1130.98
525.17	1147.89
525.53	1164.89
525.89	1181.87
526.25	1198.73
526.61	1215.26
526.97	1232.12
527.33	1248.62
527.68	1265.38
528.04	1281.88
528.40	1298.58
528.76	1315.79
529.12	1332.39
529.48	1349.34
529.84	1365.47
530.20	1382.19
530.56	1399.26
530.91	1416.69
531.27	1433.49
531.63	1449.88
531.99	1466.57
532.35	1482.68
532.71	1498.58
533.07	1514.95
533.42	1530.86
533.78	1546.97
534.14	1563.25
534.50	1578.60
534.86	1594.59
535.21	1609.77
535.57	1625.88
535.93	1641.33
536.29	1656.18
536.65	1671.32
537.00	1686.20
537.36	1701.67
537.72	1716.25
538.08	1730.74
538.44	1744.61
538.79	1758.73
539.15	1772.68
539.51	1786.33
539.87	1800.69
540.22	1814.52
540.58	1828.35
540.94	1841.85
541.29	1854.85
541.65	1867.70
542.01	1881.09
542.37	1893.47
542.72	1905.90
543.08	1917.74
543.44	1930.35
543.79	1941.64
544.15	1952.71
544.51	1964.25
544.87	1975.13
545.22	1985.92
545.58	1996.11
545.94	2005.96
546.29	2015.81
546.65	2025.53
547.01	2034.78
547.36	2043.57
547.72	2052.06
548.07	2060.01
548.43	2068.09
548.79	2076.20
549.14	2083.78
549.50	2091.11
549.86	2098.88
550.21	2106.18
550.57	2113.38
550.92	2119.78
551.28	2126.84
551.64	2133.94
551.99	2140.45
552.35	2146.75
552.70	2152.94
553.06	2158.96
553.41	2165.37
553.77	2171.36
554.13	2177.48
554.48	2183.65
554.84	2188.94
555.19	2194.31
555.55	2199.34
555.90	2203.79
556.26	2208.61
556.61	2213.43
556.97	2217.56
557.32	2221.63
557.68	2225.91
558.03	2230.13
558.39	2233.94
558.74	2238.61
559.10	2242.40
559.45	2246.06
559.81	2250.39
560.16	2254.23
560.52	2257.40
560.87	2260.72
561.23	2263.31
561.58	2266.37
561.94	2268.96
562.29	2271.54
562.64	2274.03
563.00	2276.74
563.35	2280.20
563.71	2283.15
564.06	2286.23
564.42	2289.12
564.77	2291.47
565.12	2293.55
565.48	2295.31
565.83	2296.95
566.19	2298.15
566.54	2299.13
566.89	2300.26
567.25	2300.60
567.60	2301.76
567.96	2303.39
568.31	2304.13
568.66	2305.26
569.02	2305.62
569.37	2305.77
569.72	2306.38
570.08	2306.38
570.43	2306.23
570.78	2305.57
571.14	2304.05
571.49	2302.57
571.84	2302.15
572.20	2300.96
572.55	2299.94
572.90	2298.39
573.26	2296.91
573.61	2295.05
573.96	2293.14
574.31	2290.05
574.67	2286.99
575.02	2283.30
575.37	2279.86
575.72	2275.92
576.08	2272.52
576.43	2269.17
576.78	2265.37
577.13	2262.17
577.49	2259.06
577.84	2255.49
578.19	2251.64
578.54	2247.79
578.90	2243.50
579.25	2237.96
579.60	2232.79
579.95	2227.59
580.30	2222.49
580.66	2217.31
581.01	2212.36
581.36	2207.15
581.71	2202.80
582.06	2198.17
582.42	2193.65
582.77	2188.27
583.12	2183.50
583.47	2178.52
583.82	2173.26
584.17	2167.94
584.53	2162.29
584.88	2156.60
585.23	2150.59
585.58	2145.13
585.93	2139.69
586.28	2134.86
586.63	2129.54
586.98	2124.50
587.34	2119.87
587.69	2114.86
588.04	2109.55
588.39	2103.61
588.74	2097.13
589.09	2091.11
589.44	2084.26
589.79	2078.14
590.14	2072.39
590.49	2065.92
590.84	2059.54
591.19	2053.67
591.54	2047.25
591.89	2039.70
592.25	2032.75
592.60	2025.45
592.95	2017.68
593.30	2010.40
593.65	2002.64
594.00	1995.68
594.35	1988.31
594.70	1980.21
595.05	1972.77
595.40	1965.44
595.75	1958.06
596.10	1951.68
596.45	1944.61
596.80	1938.41
597.15	1931.67
597.50	1924.48
597.85	1917.88
598.19	1911.18
598.54	1903.90
598.89	1897.14
599.24	1891.20
599.59	1884.48
599.94	1878.37
600.29	1871.98
600.64	1865.24
600.99	1857.72
601.34	1850.74
601.69	1843.78
602.04	1836.62
602.39	1829.43
602.74	1822.60
603.08	1815.78
603.43	1809.16
603.78	1801.86
604.13	1794.64
604.48	1787.26
604.83	1780.42
605.18	1773.44
605.53	1765.30
605.87	1757.21
606.22	1749.92
606.57	1742.16
606.92	1734.85
607.27	1727.56
607.62	1720.70
607.96	1713.36
608.31	1706.62
608.66	1698.97
609.01	1691.39
609.36	1683.95
609.70	1675.83
610.05	1667.61
610.40	1659.84
610.75	1651.36
611.10	1643.77
611.44	1635.35
611.79	1627.34
612.14	1618.67
612.49	1609.52
612.83	1601.16
613.18	1593.06
613.53	1584.93
613.88	1576.33
614.22	1568.09
614.57	1559.63
614.92	1551.53
615.27	1543.92
615.61	1535.63
615.96	1527.69
616.31	1520.02
616.65	1512.63
617.00	1505.05
617.35	1497.47
617.70	1489.11
618.04	1480.59
618.39	1472.34
618.74	1464.72
619.08	1456.58
619.43	1449.05
619.78	1442.19
620.12	1435.03
620.47	1427.47
620.82	1419.38
621.16	1411.94
621.51	1404.25
621.85	1396.48
622.20	1388.09
622.55	1379.77
622.89	1372.07
623.24	1364.48
623.59	1357.19
623.93	1349.72
624.28	1342.47
624.62	1334.89
624.97	1327.70
625.32	1321.04
625.66	1313.99
626.01	1306.79
626.35	1299.26
626.70	1291.44
627.04	1283.66
627.39	1275.87
627.73	1268.57
628.08	1261.68
628.43	1254.34
628.77	1246.98
629.12	1239.52
629.46	1232.29
629.81	1224.93
630.15	1217.63
630.50	1210.22
630.84	1202.04
631.19	1194.14
631.53	1186.75
631.88	1179.33
632.22	1171.77
632.57	1164.49
632.91	1157.08
633.26	1149.82
633.60	1142.49
633.95	1135.45
634.29	1128.50
634.64	1121.95
634.98	1114.55
635.32	1107.46
635.67	1101.01
636.01	1094.47
636.36	1087.59
636.70	1081.06
637.05	1074.48
637.39	1068.01
637.73	1061.45
638.08	1055.58
638.42	1049.60
638.77	1043.09
639.11	1036.38
639.45	1030.10
639.80	1023.47
640.14	1016.89
640.49	1010.21
640.83	1003.92
641.17	997.68
641.52	991.41
641.86	985.09
642.20	979.31
642.55	972.98
642.89	966.44
643.23	959.82
643.58	954.01
643.92	947.85
644.26	941.84
644.61	935.86
644.95	929.84
645.29	923.18
645.64	916.39
645.98	910.08
646.32	904.35
646.66	898.32
647.01	892.57
647.35	886.91
647.69	881.22
648.04	875.76
648.38	870.00
648.72	863.91
649.06	857.77
649.41	851.87
649.75	845.84
650.09	839.87
650.43	834.08
650.78	828.06
651.12	822.16
651.46	816.39
651.80	810.56
652.14	805.25
652.49	800.00
652.83	794.89
653.17	789.17
653.51	783.36
653.85	777.99
654.20	772.30
654.54	766.36
654.88	760.60
655.22	754.74
655.56	749.04
655.90	743.59
656.25	738.37
656.59	733.00
656.93	727.97
657.27	722.89
657.61	717.50
657.95	712.36
658.29	707.31
658.64	702.17
658.98	696.97
659.32	691.43
659.66	686.22
660.00	680.84
660.34	676.02
660.68	671.19
661.02	666.20
661.36	661.54
661.70	657.15
662.05	652.81
662.39	648.45
662.73	643.99
663.07	639.67
663.41	635.22
663.75	630.77
664.09	626.23
664.43	621.84
664.77	617.77
665.11	613.58
665.45	609.52
665.79	605.38
666.13	601.25
666.47	597.25
666.81	593.12
667.15	589.02
667.49	585.15
667.83	581.31
668.17	577.38
668.51	573.29
668.85	569.23
669.19	565.38
669.53	561.54
669.87	557.70
670.21	554.02
670.55	550.42
670.89	547.06
671.23	543.66
671.57	540.13
671.91	536.62
672.25	533.16
672.58	529.61
672.92	526.28
673.26	523.17
673.60	520.03
673.94	516.93
674.28	514.11
674.62	511.14
674.96	508.04
675.30	505.18
675.64	502.34
675.97	499.60
676.31	496.77
676.65	493.89
676.99	491.19
677.33	488.33
677.67	485.49
678.01	482.37
678.34	479.38
678.68	476.59
679.02	473.79
679.36	471.07
679.70	468.39
680.04	465.59
680.37	462.70
680.71	459.96
681.05	457.38
681.39	454.63
681.73	452.00
682.06	449.54
682.40	446.95
682.74	444.41
683.08	441.87
683.42	439.27
683.75	436.74
684.09	434.24
684.43	431.84
684.77	429.37
685.10	427.08
685.44	424.79
685.78	422.50
686.12	420.27
686.45	417.95
686.79	415.64
687.13	413.47
687.46	411.35
687.80	409.21
688.14	406.94
688.48	404.90
688.81	402.67
689.15	400.50
689.49	398.35
689.82	396.27
690.16	394.17
690.50	392.21
690.83	390.27
691.17	388.24
691.51	386.29
691.84	384.49
692.18	382.49
692.52	380.50
692.85	378.55
693.19	376.65
693.52	374.85
693.86	373.03
694.20	371.26
694.53	369.46
694.87	367.56
695.21	365.82
695.54	364.03
695.88	362.30
696.21	360.59
696.55	358.91
696.88	357.23
697.22	355.57
697.56	353.98
697.89	352.33
698.23	350.74
698.56	349.15
698.90	347.52
699.23	345.90
699.57	344.35
699.90	342.77
700.24	341.19
700.58	339.66
700.91	338.17
701.25	336.71
701.58	335.33
701.92	333.98
702.25	332.62
702.59	331.25
702.92	329.91
703.26	328.59
703.59	327.34
703.93	326.17
704.26	324.98
704.60	323.72
704.93	322.47
705.26	321.25
705.60	320.08
705.93	318.92
706.27	317.94
706.60	316.91
706.94	315.90
707.27	314.82
707.61	313.76
707.94	312.73
708.27	311.65
708.61	310.62
708.94	309.61
709.28	308.60
709.61	307.64
709.94	306.73
710.28	305.69
710.61	304.69
710.95	303.64
711.28	302.73
711.61	301.75
711.95	300.87
712.28	299.90
712.61	298.92
712.95	298.00
713.28	297.17
713.61	296.27
713.95	295.40
714.28	294.55
714.61	293.69
714.95	292.87
715.28	291.99
715.61	291.11
715.95	290.28
716.28	289.40
716.61	288.59
716.95	287.80
717.28	287.12
717.61	286.35
717.94	285.62
718.28	284.82
718.61	284.12
718.94	283.41
719.27	282.79
719.61	282.18
719.94	281.53
720.27	280.78
720.60	280.13
720.94	279.48
721.27	278.93
721.60	278.34
721.93	277.73
722.27	277.22
722.60	276.65
722.93	276.06
723.26	275.58
723.59	275.01
723.93	274.47
724.26	273.87
724.59	273.36
724.92	272.85
725.25	272.37
725.59	271.86
725.92	271.37
726.25	270.82
726.58	270.32
726.91	269.83
727.24	269.37
727.57	268.91
727.91	268.43
728.24	267.92
728.57	267.44
728.90	266.99
729.23	266.47
729.56	266.01
729.89	265.57
730.22	265.11
730.55	264.64
730.89	264.15
731.22	263.70
731.55	263.25
731.88	262.78
732.21	262.31
732.54	261.85
732.87	261.38
733.20	261.01
733.53	260.58
733.86	260.21
734.19	259.78
734.52	259.35
734.85	259.01
735.18	258.60
735.51	258.24
735.84	257.85
736.17	257.51
736.50	257.14
736.83	256.92
737.16	256.51
737.49	256.17
737.82	255.85
738.15	255.54
738.48	255.17
738.81	254.82
739.14	254.49
739.47	254.18
739.80	253.88
740.13	253.58
740.46	253.24
740.79	252.90
741.12	252.64
741.45	252.34
741.78	252.03
742.11	251.72
742.44	251.41
742.77	251.13
743.10	250.82
743.43	250.52
743.75	250.08
744.08	249.98
744.41	249.68
744.74	249.39
745.07	249.10
745.40	248.88
745.73	248.66
746.06	248.40
746.39	248.12
746.71	247.88
747.04	247.60
747.37	247.38
747.70	247.09
748.03	246.80
748.36	246.59
748.68	246.34
749.01	246.11
749.34	245.86
749.67	245.65
750.00	245.46
750.33	245.34
750.65	245.16
750.98	244.84
751.31	244.66
751.64	244.49
751.97	244.37
752.29	244.16
752.62	243.91
752.95	243.71
753.28	243.53
753.60	243.33
753.93	243.12
754.26	242.94
754.59	242.77
754.91	242.59
755.24	242.40
755.57	242.23
755.90	242.06
756.22	241.91
756.55	241.68
756.88	241.48
757.20	241.27
757.53	241.09
757.86	240.94
758.19	240.76
758.51	240.59
758.84	240.38
759.17	240.26
759.49	240.11
759.82	240.00
760.15	239.89
760.47	239.75
760.80	239.62
761.13	239.48
761.45	239.34
761.78	239.21
762.11	239.09
762.43	238.93
762.76	238.82
763.08	238.69
763.41	238.62
763.74	238.48
764.06	238.32
764.39	238.19
764.71	238.02
765.04	237.91
765.37	237.78
765.69	237.64
766.02	237.46
766.34	237.35
766.67	237.20
767.00	237.10
767.32	237.05
767.65	237.01
767.97	236.93
768.30	236.81
768.62	236.71
768.95	236.60
769.27	236.48
769.60	236.35
769.92	236.21
770.25	236.09
770.57	235.98
770.90	235.87
771.22	235.74
771.55	235.66
771.87	235.55
772.20	235.45
772.52	235.45
772.85	235.47
773.17	235.37
773.50	235.26
773.82	235.12
774.15	234.95
774.47	234.79
774.80	234.65
775.12	234.58
775.45	234.48
775.77	234.35
776.09	234.30
776.42	234.19
776.74	234.13
777.07	233.98
777.39	233.88
777.72	233.78
778.04	233.74
778.36	233.64
778.69	233.55
779.01	233.51
779.33	233.36
779.66	233.19
779.98	233.09
780.31	233.03
780.63	232.99
780.95	232.92
781.28	232.83
781.60	232.78
781.92	232.68
782.25	232.59
782.57	232.54
782.89	232.44
783.22	232.39
783.54	232.32
783.86	232.31
784.19	232.29
784.51	232.26
784.83	232.18
785.16	232.10
785.48	232.07
785.80	231.97
786.12	231.87
786.45	231.83
786.77	231.82
787.09	231.75
787.42	231.68
787.74	231.64
788.06	231.63
788.38	231.56
788.71	231.53
789.03	231.52
789.35	231.46
789.67	231.39
789.99	231.36
790.32	231.34
790.64	231.29
790.96	231.32
791.28	231.26
791.61	231.21
791.93	231.22
792.25	231.16
792.57	231.22
792.89	231.21
793.21	231.15
793.54	231.10
793.86	231.06
794.18	231.01
794.50	230.98
794.82	230.93
795.14	230.93
795.47	230.92
795.79	230.89
796.11	230.86
796.43	230.84
796.75	230.85
797.07	230.81
797.39	230.77
797.71	230.68
798.04	230.67
798.36	230.66
798.68	230.61
799.00	230.60
799.32	230.49
799.64	230.51
799.96	230.46
800.28	230.47
800.60	230.44
800.92	230.44
801.24	230.41
801.56	230.37
801.89	230.33
802.21	230.31
802.53	230.27
802.85	230.28
803.17	230.31
803.49	230.26
803.81	230.23
804.13	230.21
804.45	230.17
804.77	230.16
805.09	230.13
805.41	230.12
805.73	230.08
806.05	230.04
806.37	229.96
806.69	230.00
807.01	229.94
807.33	229.93
807.65	229.87
807.97	229.88
808.28	229.87
808.60	229.86
808.92	229.80
809.24	229.86
809.56	229.82
809.88	229.75
810.20	229.73
810.52	229.71
810.84	229.70
811.16	229.69
811.48	229.64
811.80	229.62
812.12	229.57
812.43	229.58
812.75	229.58
813.07	229.57
813.39	229.53
813.71	229.50
814.03	229.46
814.35	229.45
814.67	229.39
814.98	229.35
815.30	229.31
815.62	229.28
815.94	229.17
816.26	229.20
816.58	229.17
816.89	229.14
817.21	229.09
817.53	229.09
817.85	229.08
818.17	229.07
818.48	229.04
818.80	229.05
819.12	229.01
819.44	228.95
819.76	228.92
820.07	228.90
820.39	228.88
820.71	228.89
821.03	228.83
821.34	228.79
821.66	228.79
821.98	228.78
822.30	228.79
822.61	228.81
822.93	228.74
823.25	228.74
823.57	228.74
823.88	228.73
824.20	228.70
824.52	228.67
824.83	228.65
825.15	228.63
825.47	228.62
825.79	228.61
826.10	228.57
826.42	228.58
826.74	228.56
827.05	228.53
827.37	228.51
827.69	228.51
828.00	228.54
828.32	228.52
828.64	228.49
828.95	228.50
829.27	228.48
829.58	228.47
829.90	228.47
830.22	228.42
830.53	228.41
830.85	228.41
831.17	228.39
831.48	228.36
831.80	228.36
832.11	228.32
832.43	228.30
832.75	228.34
833.06	228.37
833.38	228.31
833.69	228.30
834.01	228.29
834.32	228.30
834.64	228.30
834.96	228.29
835.27	228.30
835.59	228.27
835.90	228.25
836.22	228.26
836.53	228.19
836.85	228.19
837.16	228.26
837.48	228.24
837.79	228.27
838.11	228.27
838.42	228.27
838.74	228.27
839.05	228.26
839.37	228.23
839.68	228.19
840.00	228.21
840.31	228.23
840.63	228.24
840.94	228.22
841.26	228.14
841.57	228.14
841.88	228.13
842.20	228.11
842.51	228.10
842.83	228.07
843.14	228.16
843.46	228.16
843.77	228.10
844.08	228.11
844.40	228.09
844.71	228.06
845.03	228.04
845.34	228.03
845.65	228.03
845.97	228.04
846.28	228.02
846.60	228.04
846.91	227.99
847.22	227.95
847.54	227.97
847.85	228.00
848.16	227.97
848.48	227.96
848.79	227.99
849.10	228.01
849.42	228.01
849.73	227.95
850.04	227.92
850.36	227.88
850.67	227.86
850.98	227.82
851.30	227.86
851.61	227.85
851.92	227.85
852.23	227.88
852.55	227.87
852.86	227.84
853.17	227.83
853.49	227.83
853.80	227.88
854.11	227.87
854.42	227.88
854.74	227.86
855.05	227.88
855.36	227.81
855.67	227.79
855.99	227.80
856.30	227.88
856.61	227.89
856.92	227.91
857.23	227.90
857.55	227.89
857.86	227.88
858.17	227.91
858.48	227.86
858.79	227.84
859.11	227.84
859.42	227.83
859.73	227.82
860.04	227.86
860.35	227.82
860.66	227.76
860.98	227.73
861.29	227.75
861.60	227.74
861.91	227.78
862.22	227.78
862.53	227.74
862.84	227.64
863.16	227.68
863.47	227.66
863.78	227.67
864.09	227.69
864.40	227.66
864.71	227.65
865.02	227.65
865.33	227.61
865.64	227.59
865.95	227.58
866.27	227.64
866.58	227.59
866.89	227.63
867.20	227.64
867.51	227.66
867.82	227.64
868.13	227.65
868.44	227.62
868.75	227.63
869.06	227.66
869.37	227.68
869.68	227.67
869.99	227.67
870.30	227.68
870.61	227.69
870.92	227.72
871.23	227.70
871.54	227.71
871.85	227.76
872.16	227.78
872.47	227.77
872.78	227.73
873.09	227.77
873.40	227.76
873.71	227.75
874.02	227.76
874.33	227.78
874.64	227.78
874.95	227.79
875.26	227.73
875.56	227.71
875.87	227.70
876.18	227.67
876.49	227.78
876.80	227.75
877.11	227.74
877.42	227.73
877.73	227.75
878.04	227.76
878.35	227.74
878.66	227.75
878.96	227.76
879.27	227.75
879.58	227.74
879.89	227.70
880.20	227.76
880.51	227.72
880.82	227.73
881.12	227.70
881.43	227.70
881.74	227.71
882.05	227.72
882.36	227.70
882.67	227.73
882.97	227.61
883.28	227.61
883.59	227.61
883.90	227.59
884.21	227.58
884.51	227.56
884.82	227.55
885.13	227.54
885.44	227.53
885.74	227.49
886.05	227.45
886.36	227.47
886.67	227.41
886.98	227.49
887.28	227.48
887.59	227.51
887.90	227.49
888.20	227.47
888.51	227.44
888.82	227.43
889.13	227.38
889.43	227.44
889.74	227.41
890.05	227.38
890.35	227.37
890.66	227.35
890.97	227.35
891.28	227.35
891.58	227.35
891.89	227.32
892.20	227.32
892.50	227.32
892.81	227.31
893.12	227.31
893.42	227.22
893.73	227.20
894.04	227.16
894.34	227.16
894.65	227.16
894.95	227.15
895.26	227.12
895.57	227.16
895.87	227.07
896.18	227.10
896.48	227.11
896.79	227.11
897.10	227.11
897.40	227.10
897.71	227.07
898.01	227.04
898.32	227.10
898.63	227.10
898.93	227.12
899.24	227.10
899.54	227.10
899.85	227.10
900.15	227.09
900.46	227.09
900.76	227.10
901.07	227.10
901.38	227.11
901.68	227.14
901.99	227.11
902.29	227.14
902.60	227.12
902.90	227.09
903.21	227.10
903.51	227.12
903.82	227.13
904.12	227.14
904.43	227.17
904.73	227.16
905.03	227.22
905.34	227.31
905.64	227.30
905.95	227.32
906.25	227.33
906.56	227.35
906.86	227.36
907.17	227.36
907.47	227.38
907.77	227.40
908.08	227.38
908.38	227.38
908.69	227.38
908.99	227.42
909.30	227.47
909.60	227.49
909.90	227.51
910.21	227.51
910.51	227.49
910.81	227.48
911.12	227.47
911.42	227.43
911.73	227.30
912.03	227.33
912.33	227.34
912.64	227.33
912.94	227.33
913.24	227.35
913.55	227.37
913.85	227.40
914.15	227.38
914.46	227.38
914.76	227.39
915.06	227.38
915.37	227.37
915.67	227.36
915.97	227.33
916.27	227.28
916.58	227.29
916.88	227.32
917.18	227.29
917.49	227.34
917.79	227.34
918.09	227.35
918.39	227.35
918.70	227.34
919.00	227.36
919.30	227.39
919.60	227.33
919.91	227.32
920.21	227.29
920.51	227.31
920.81	227.34
921.12	227.36
921.42	227.35
921.72	227.31
922.02	227.28
922.32	227.29
922.63	227.29
922.93	227.31
923.23	227.30
923.53	227.29
923.83	227.23
924.13	227.22
924.44	227.20
924.74	227.23
925.04	227.21
925.34	227.18
925.64	227.14
925.94	227.13
926.24	227.14
926.55	227.13
926.85	227.12
927.15	227.07
927.45	227.04
927.75	227.05
928.05	227.07
928.35	227.09
928.65	227.10
928.95	227.10
929.26	227.06
929.56	227.06
929.86	227.08
930.16	227.07
930.46	227.03
930.76	227.03
931.06	226.97
931.36	226.93
931.66	226.94
931.96	226.94
932.26	226.94
932.56	226.91
932.86	226.90
933.16	226.86
933.46	226.85
933.76	226.82
934.06	226.83
934.36	226.83
934.66	226.80
934.96	226.75
935.26	226.77
935.56	226.77
935.86	226.77
936.16	226.75
936.46	226.73
936.76	226.76
937.06	226.76
937.36	226.78
937.66	226.81
937.96	226.82
938.26	226.82
938.56	226.88
938.86	226.87
939.16	226.91
939.46	226.93
939.76	226.95
940.06	226.98
940.35	226.97
940.65	226.96
940.95	226.98
941.25	227.02
941.55	227.02
941.85	227.02
942.15	227.07
942.45	227.12
942.75	227.10
943.04	227.11
943.34	227.16
943.64	227.16
943.94	227.18
944.24	227.20
944.54	227.23
944.84	227.19
945.13	227.20
945.43	227.19
945.73	227.22
946.03	227.21
946.33	227.20
946.62	227.19
946.92	227.20
947.22	227.24
947.52	227.20
947.82	227.23
948.11	227.25
948.41	227.23
948.71	227.21
949.01	227.29
949.31	227.29
949.60	227.29
949.90	227.33
950.20	227.34
950.50	227.31
950.79	227.30
951.09	227.36
951.39	227.35
951.69	227.36
951.98	227.36
952.28	227.41
952.58	227.42
952.87	227.43
953.17	227.43
953.47	227.43
953.76	227.47
954.06	227.42
954.36	227.40
954.66	227.39
954.95	227.42
955.25	227.40
955.55	227.39
955.84	227.36
956.14	227.34
956.44	227.36
956.73	227.38
957.03	227.37
957.32	227.32
957.62	227.34
957.92	227.35
958.21	227.36
958.51	227.45
958.81	227.44
959.10	227.46
959.40	227.46
959.69	227.46
959.99	227.46
960.29	227.49
960.58	227.50
960.88	227.53
961.17	227.50
961.47	227.50
961.76	227.50
962.06	227.53
962.36	227.52
962.65	227.52
962.95	227.53
963.24	227.51
963.54	227.51
963.83	227.50
964.13	227.50
964.42	227.44
964.72	227.33
965.01	227.32
965.31	227.27
965.60	227.24
965.90	227.27
966.19	227.24
966.49	227.24
966.78	227.20
967.08	227.18
967.37	227.16
967.67	227.13
967.96	227.14
968.26	227.14
968.55	227.11
968.85	227.08
969.14	227.04
969.43	227.03
969.73	227.00
970.02	227.00
970.32	226.97
970.61	226.98
970.91	226.95
971.20	226.92
971.49	226.92
971.79	226.93
972.08	226.86
972.38	226.84
972.67	226.80
972.96	226.83
973.26	226.77
973.55	226.82
973.85	226.82
974.14	226.80
974.43	226.78
974.73	226.80
975.02	226.79
975.31	226.83
975.61	226.82
975.90	226.85
976.19	226.83
976.49	226.84
976.78	226.87
977.07	226.89
977.37	226.92
977.66	226.93
977.95	226.91
978.24	226.93
978.54	226.95
978.83	226.97
979.12	226.97
979.42	227.02
979.71	227.00
980.00	226.99
980.29	227.01
980.59	227.01
980.88	227.03
981.17	227.02
981.46	227.02
981.76	227.04
982.05	227.05
982.34	227.06
982.63	227.07
982.93	227.07
983.22	227.10
983.51	227.12
983.80	227.16
984.09	227.18
984.39	227.20
984.68	227.21
984.97	227.21
985.26	227.23
985.55	227.25
985.85	227.25
986.14	227.31
986.43	227.32
986.72	227.34
987.01	227.33
987.30	227.33
987.59	227.33
987.89	227.35
988.18	227.38
988.47	227.38
988.76	227.39
989.05	227.36
989.34	227.37
989.63	227.40
989.92	227.41
990.22	227.42
990.51	227.41
990.80	227.39
991.09	227.42
991.38	227.42
991.67	227.43
991.96	227.44
992.25	227.42
992.54	227.41
992.83	227.44
993.12	227.45
993.41	227.49
993.70	227.52
993.99	227.52
994.28	227.51
994.58	227.52
994.87	227.50
995.16	227.52
995.45	227.51
995.74	227.49
996.03	227.50
996.32	227.53
996.61	227.55
996.90	227.52
997.19	227.53
997.48	227.50
997.77	227.43
998.06	227.39
998.34	227.37
998.63	227.34
998.92	227.33
999.21	227.29
999.50	227.28
999.79	227.24
1000.08	227.23
1000.37	227.23
1000.66	227.22
1000.95	227.25
1001.24	227.25
1001.53	227.22
1001.82	227.21
1002.11	227.15
1002.40	227.11
1002.68	227.13
1002.97	227.19
1003.26	227.16
1003.55	227.13
1003.84	227.16
1004.13	227.17
1004.42	227.16
1004.71	227.16
1004.99	227.14
1005.28	227.16
1005.57	227.14
1005.86	227.16
1006.15	227.11
1006.44	227.07
1006.72	227.06
1007.01	227.04
1007.30	227.01
1007.59	227.01
1007.88	226.99
1008.17	226.97
1008.45	226.93
1008.74	226.86
1009.03	226.80
1009.32	226.84
1009.60	226.84
1009.89	226.82
1010.18	226.79
1010.47	226.79
1010.76	226.76
1011.04	226.74
1011.33	226.71
1011.62	226.73
1011.91	226.68
1012.19	226.70
1012.48	226.72
1012.77	226.72
1013.05	226.79
1013.34	226.79
1013.63	226.76
1013.92	226.74
1014.20	226.78
1014.49	226.79
1014.78	226.78
1015.06	226.76
1015.35	226.75
1015.64	226.75
1015.92	226.76
1016.21	226.80
1016.50	226.77
1016.78	226.83
1017.07	226.86
1017.36	226.88
1017.64	226.86
1017.93	226.87
1018.22	226.86
1018.50	226.82
1018.79	226.83
1019.08	226.77
1019.36	226.78
1019.65	226.78
1019.93	226.84
1020.22	226.88
1020.51	226.94
1020.79	226.97
1021.08	226.79
1021.36	226.22
1021.65	227.13
1021.94	227.17
1022.22	226.92
1022.51	226.50
1022.79	227.65
1023.08	227.74
1023.36	227.90
1023.65	226.94
>>>>>End Processed Spectral Data<<<<<
