SpectraSuite Data File
++++++++++++++++++++++++++++++++++++
Date: Fri Feb 01 15:41:55 EST 2013
User: group
Dark Spectrum Present: No
Reference Spectrum Present: No
Number of Sampled Component Spectra: 1
Spectrometers: USB2E7196
Integration Time (usec): 35000 (USB2E7196)
Spectra Averaged: 100 (USB2E7196)
Boxcar Smoothing: 10 (USB2E7196)
Correct for Electrical Dark: No (USB2E7196)
Strobe/Lamp Enabled: No (USB2E7196)
Correct for Detector Non-linearity: No (USB2E7196)
Correct for Stray Light: No (USB2E7196)
Number of Pixels in Processed Spectrum: 2048
>>>>>Begin Processed Spectral Data<<<<<
339.09	0.00
339.48	215.39
339.86	216.43
340.24	218.30
340.63	219.02
341.01	221.85
341.39	222.32
341.78	222.93
342.16	224.57
342.54	225.21
342.93	213.35
343.31	224.11
343.69	224.63
344.07	225.10
344.46	225.50
344.84	225.88
345.22	226.12
345.60	226.34
345.99	226.51
346.37	226.62
346.75	226.74
347.13	226.80
347.52	226.86
347.90	226.94
348.28	226.97
348.66	227.02
349.05	227.05
349.43	227.11
349.81	227.11
350.19	227.13
350.57	227.17
350.96	227.24
351.34	227.33
351.72	227.42
352.10	227.51
352.48	227.55
352.87	227.62
353.25	227.66
353.63	227.76
354.01	227.86
354.39	227.96
354.77	227.99
355.15	228.07
355.54	228.14
355.92	228.17
356.30	228.21
356.68	228.33
357.06	228.38
357.44	228.42
357.82	228.50
358.20	228.58
358.58	228.64
358.97	228.69
359.35	228.75
359.73	228.83
360.11	228.87
360.49	228.95
360.87	228.98
361.25	229.06
361.63	229.11
362.01	229.16
362.39	229.14
362.77	229.17
363.15	229.21
363.53	229.24
363.91	229.28
364.29	229.29
364.67	229.23
365.05	229.24
365.43	229.27
365.81	229.31
366.19	229.35
366.57	229.36
366.95	229.36
367.33	229.36
367.71	229.34
368.09	229.33
368.47	229.30
368.85	229.26
369.23	229.29
369.61	229.21
369.99	229.22
370.37	229.25
370.75	229.30
371.13	229.24
371.51	229.16
371.89	229.15
372.27	229.13
372.65	229.06
373.03	229.02
373.41	228.98
373.78	228.89
374.16	228.78
374.54	228.71
374.92	228.65
375.30	228.56
375.68	228.49
376.06	228.44
376.44	228.39
376.82	228.36
377.19	228.27
377.57	228.20
377.95	228.05
378.33	227.97
378.71	227.83
379.09	227.77
379.47	227.76
379.84	227.67
380.22	227.59
380.60	227.54
380.98	227.48
381.36	227.38
381.73	227.30
382.11	227.27
382.49	227.22
382.87	227.14
383.25	227.09
383.62	227.12
384.00	227.03
384.38	226.96
384.76	226.91
385.13	226.88
385.51	226.84
385.89	226.81
386.27	226.76
386.64	226.70
387.02	226.64
387.40	226.59
387.78	226.54
388.15	226.52
388.53	226.47
388.91	226.42
389.29	226.40
389.66	226.42
390.04	226.35
390.42	226.35
390.79	226.34
391.17	226.31
391.55	226.19
391.92	226.18
392.30	226.20
392.68	226.16
393.05	226.15
393.43	226.16
393.81	226.18
394.18	226.18
394.56	226.24
394.94	226.25
395.31	226.24
395.69	226.31
396.06	226.32
396.44	226.37
396.82	226.39
397.19	226.48
397.57	226.50
397.95	226.57
398.32	226.55
398.70	226.63
399.07	226.71
399.45	226.80
399.82	226.85
400.20	226.93
400.58	227.02
400.95	227.06
401.33	227.17
401.70	227.34
402.08	227.42
402.45	227.51
402.83	227.66
403.20	227.79
403.58	227.89
403.95	228.07
404.33	228.22
404.71	228.36
405.08	228.57
405.46	228.76
405.83	228.91
406.21	229.11
406.58	229.27
406.96	229.46
407.33	229.64
407.70	229.86
408.08	230.12
408.45	230.38
408.83	230.62
409.20	230.83
409.58	231.00
409.95	231.29
410.33	231.56
410.70	231.82
411.08	232.13
411.45	232.44
411.82	232.72
412.20	233.05
412.57	233.48
412.95	233.74
413.32	234.12
413.69	234.55
414.07	234.99
414.44	235.48
414.82	235.93
415.19	236.49
415.56	237.02
415.94	237.59
416.31	238.23
416.68	238.90
417.06	239.60
417.43	240.29
417.81	241.05
418.18	241.85
418.55	242.74
418.93	243.60
419.30	244.48
419.67	245.41
420.04	246.38
420.42	247.36
420.79	248.58
421.16	249.72
421.54	250.92
421.91	252.14
422.28	253.35
422.66	254.70
423.03	255.99
423.40	257.32
423.77	258.72
424.15	260.13
424.52	261.56
424.89	263.21
425.26	264.75
425.64	266.17
426.01	267.71
426.38	269.35
426.75	271.05
427.13	272.79
427.50	274.59
427.87	276.45
428.24	278.28
428.61	280.00
428.99	281.91
429.36	283.97
429.73	286.04
430.10	288.09
430.47	290.14
430.85	292.26
431.22	294.48
431.59	296.83
431.96	299.08
432.33	301.56
432.70	303.91
433.08	306.77
433.45	309.39
433.82	312.05
434.19	314.90
434.56	317.68
434.93	320.33
435.30	322.94
435.68	325.85
436.05	328.73
436.42	331.47
436.79	334.03
437.16	336.71
437.53	339.51
437.90	342.27
438.27	345.00
438.64	347.79
439.01	350.41
439.38	352.65
439.75	354.78
440.13	357.23
440.50	359.53
440.87	361.29
441.24	363.23
441.61	365.36
441.98	366.84
442.35	368.63
442.72	370.48
443.09	372.30
443.46	373.25
443.83	373.82
444.20	374.39
444.57	375.21
444.94	375.52
445.31	375.86
445.68	376.23
446.05	376.30
446.42	375.93
446.79	375.50
447.16	375.06
447.53	374.78
447.90	373.66
448.27	372.51
448.64	370.97
449.01	369.84
449.37	367.81
449.74	365.92
450.11	363.67
450.48	361.20
450.85	358.68
451.22	356.55
451.59	354.53
451.96	352.55
452.33	349.94
452.70	347.59
453.07	344.77
453.43	341.92
453.80	339.20
454.17	336.52
454.54	334.00
454.91	331.29
455.28	328.59
455.65	326.10
456.02	323.65
456.38	321.46
456.75	318.84
457.12	316.62
457.49	314.39
457.86	312.25
458.23	310.40
458.59	308.34
458.96	306.29
459.33	304.44
459.70	302.59
460.07	301.14
460.43	299.43
460.80	297.82
461.17	296.35
461.54	294.84
461.91	293.38
462.27	291.92
462.64	290.68
463.01	289.33
463.38	288.06
463.74	286.69
464.11	285.59
464.48	284.56
464.85	283.49
465.21	282.65
465.58	281.73
465.95	280.64
466.32	279.75
466.68	278.82
467.05	277.93
467.42	277.02
467.78	276.03
468.15	275.17
468.52	274.51
468.88	273.66
469.25	272.88
469.62	272.30
469.98	271.61
470.35	270.97
470.72	270.36
471.08	269.71
471.45	269.19
471.82	268.64
472.18	268.03
472.55	267.58
472.92	267.00
473.28	266.51
473.65	266.05
474.02	265.60
474.38	265.23
474.75	264.92
475.11	264.57
475.48	264.31
475.85	264.04
476.21	263.79
476.58	263.62
476.94	263.45
477.31	263.29
477.67	263.14
478.04	263.04
478.41	262.99
478.77	263.01
479.14	262.96
479.50	262.92
479.87	263.01
480.23	263.09
480.60	263.16
480.96	263.27
481.33	263.47
481.69	263.70
482.06	263.91
482.42	264.11
482.79	264.37
483.15	264.66
483.52	265.03
483.88	265.36
484.25	265.73
484.61	266.19
484.98	266.65
485.34	267.18
485.71	267.73
486.07	268.33
486.44	268.90
486.80	269.56
487.17	270.33
487.53	271.10
487.90	271.93
488.26	272.87
488.62	273.83
488.99	274.75
489.35	275.74
489.72	276.83
490.08	278.02
490.44	279.23
490.81	280.57
491.17	281.91
491.54	283.43
491.90	284.96
492.26	286.61
492.63	288.36
492.99	290.20
493.36	292.08
493.72	294.17
494.08	296.27
494.45	298.53
494.81	300.90
495.17	303.38
495.54	305.96
495.90	308.69
496.26	311.50
496.63	314.51
496.99	317.60
497.35	320.87
497.72	324.27
498.08	327.83
498.44	331.54
498.80	335.48
499.17	339.49
499.53	343.69
499.89	348.05
500.26	352.50
500.62	357.11
500.98	362.06
501.34	367.08
501.71	372.42
502.07	377.89
502.43	383.47
502.79	389.28
503.16	395.32
503.52	401.58
503.88	408.06
504.24	414.72
504.60	421.66
504.97	428.81
505.33	436.15
505.69	443.88
506.05	451.62
506.41	459.54
506.78	467.72
507.14	476.16
507.50	484.89
507.86	493.91
508.22	503.09
508.59	512.35
508.95	521.98
509.31	531.77
509.67	541.90
510.03	552.20
510.39	562.69
510.75	573.54
511.12	584.47
511.48	595.77
511.84	607.17
512.20	618.71
512.56	630.64
512.92	642.85
513.28	655.17
513.64	667.66
514.00	680.35
514.37	693.29
514.73	706.30
515.09	719.40
515.45	732.71
515.81	746.33
516.17	760.33
516.53	774.50
516.89	788.65
517.25	802.81
517.61	817.34
517.97	831.87
518.33	846.37
518.69	861.20
519.05	876.19
519.41	891.38
519.77	906.92
520.13	922.44
520.49	937.83
520.85	953.31
521.21	969.08
521.57	985.38
521.93	1001.07
522.29	1017.53
522.65	1033.72
523.01	1049.90
523.37	1065.98
523.73	1082.17
524.09	1098.26
524.45	1114.57
524.81	1131.20
525.17	1148.07
525.53	1164.92
525.89	1181.79
526.25	1198.58
526.61	1215.01
526.97	1231.74
527.33	1248.18
527.68	1264.71
528.04	1281.12
528.40	1297.70
528.76	1314.65
529.12	1331.12
529.48	1348.09
529.84	1364.12
530.20	1380.77
530.56	1397.97
530.91	1415.36
531.27	1432.12
531.63	1448.52
531.99	1465.14
532.35	1481.15
532.71	1496.93
533.07	1513.22
533.42	1529.02
533.78	1545.05
534.14	1561.32
534.50	1576.70
534.86	1592.62
535.21	1607.81
535.57	1623.89
535.93	1639.42
536.29	1654.24
536.65	1669.40
537.00	1684.18
537.36	1699.41
537.72	1714.01
538.08	1728.35
538.44	1742.07
538.79	1755.94
539.15	1769.74
539.51	1783.50
539.87	1797.85
540.22	1811.57
540.58	1825.42
540.94	1838.85
541.29	1851.76
541.65	1864.40
542.01	1877.67
542.37	1889.98
542.72	1902.44
543.08	1914.24
543.44	1926.58
543.79	1937.96
544.15	1948.96
544.51	1960.51
544.87	1971.63
545.22	1982.39
545.58	1992.58
545.94	2002.48
546.29	2012.42
546.65	2022.26
547.01	2031.54
547.36	2040.27
547.72	2048.78
548.07	2056.53
548.43	2064.69
548.79	2072.74
549.14	2080.30
549.50	2087.62
549.86	2095.43
550.21	2102.76
550.57	2109.84
550.92	2116.46
551.28	2123.59
551.64	2130.67
551.99	2137.17
552.35	2143.23
552.70	2149.40
553.06	2155.41
553.41	2161.79
553.77	2167.79
554.13	2173.83
554.48	2179.96
554.84	2185.24
555.19	2190.56
555.55	2195.76
555.90	2200.27
556.26	2205.05
556.61	2209.82
556.97	2214.08
557.32	2217.95
557.68	2222.15
558.03	2226.36
558.39	2230.07
558.74	2234.59
559.10	2238.37
559.45	2242.03
559.81	2246.40
560.16	2250.21
560.52	2253.44
560.87	2256.91
561.23	2259.54
561.58	2262.52
561.94	2265.07
562.29	2267.51
562.64	2270.05
563.00	2272.68
563.35	2276.10
563.71	2279.33
564.06	2282.51
564.42	2285.35
564.77	2287.99
565.12	2290.06
565.48	2292.07
565.83	2293.70
566.19	2294.82
566.54	2295.83
566.89	2296.96
567.25	2297.48
567.60	2298.77
567.96	2300.32
568.31	2301.02
568.66	2302.07
569.02	2302.46
569.37	2302.70
569.72	2303.59
570.08	2303.69
570.43	2303.69
570.78	2303.11
571.14	2301.57
571.49	2300.11
571.84	2299.77
572.20	2298.60
572.55	2297.74
572.90	2296.13
573.26	2294.91
573.61	2293.34
573.96	2291.52
574.31	2288.50
574.67	2285.51
575.02	2281.83
575.37	2278.51
575.72	2274.60
576.08	2271.30
576.43	2268.12
576.78	2264.41
577.13	2261.19
577.49	2258.26
577.84	2254.66
578.19	2250.93
578.54	2247.21
578.90	2243.07
579.25	2237.43
579.60	2232.36
579.95	2227.21
580.30	2222.24
580.66	2217.07
581.01	2212.08
581.36	2207.07
581.71	2202.89
582.06	2198.38
582.42	2193.90
582.77	2188.59
583.12	2184.02
583.47	2179.15
583.82	2174.00
584.17	2168.68
584.53	2163.15
584.88	2157.44
585.23	2151.68
585.58	2146.20
585.93	2140.70
586.28	2135.87
586.63	2130.86
586.98	2125.94
587.34	2121.31
587.69	2116.36
588.04	2110.98
588.39	2105.40
588.74	2099.00
589.09	2092.82
589.44	2085.97
589.79	2080.05
590.14	2074.47
590.49	2068.02
590.84	2061.72
591.19	2055.80
591.54	2049.39
591.89	2041.89
592.25	2035.00
592.60	2027.76
592.95	2020.10
593.30	2012.72
593.65	2005.10
594.00	1997.96
594.35	1990.57
594.70	1982.38
595.05	1975.02
595.40	1967.80
595.75	1960.21
596.10	1953.92
596.45	1947.28
596.80	1941.20
597.15	1934.44
597.50	1927.30
597.85	1920.87
598.19	1914.22
598.54	1906.93
598.89	1900.37
599.24	1894.56
599.59	1887.87
599.94	1881.74
600.29	1875.47
600.64	1869.01
600.99	1861.43
601.34	1854.66
601.69	1847.72
602.04	1840.84
602.39	1833.57
602.74	1826.69
603.08	1819.86
603.43	1813.18
603.78	1805.78
604.13	1798.55
604.48	1791.18
604.83	1784.30
605.18	1777.14
605.53	1769.06
605.87	1761.19
606.22	1753.78
606.57	1745.86
606.92	1738.62
607.27	1731.33
607.62	1724.32
607.96	1716.84
608.31	1710.26
608.66	1702.57
609.01	1694.92
609.36	1687.39
609.70	1679.32
610.05	1671.17
610.40	1663.43
610.75	1655.14
611.10	1647.37
611.44	1638.91
611.79	1630.88
612.14	1622.23
612.49	1613.14
612.83	1604.73
613.18	1596.56
613.53	1588.50
613.88	1579.90
614.22	1571.56
614.57	1563.00
614.92	1554.93
615.27	1547.42
615.61	1539.08
615.96	1531.00
616.31	1523.42
616.65	1516.01
617.00	1508.49
617.35	1500.95
617.70	1492.66
618.04	1483.96
618.39	1475.77
618.74	1468.21
619.08	1459.97
619.43	1452.35
619.78	1445.48
620.12	1438.26
620.47	1430.66
620.82	1422.61
621.16	1415.30
621.51	1407.68
621.85	1400.08
622.20	1391.60
622.55	1383.25
622.89	1375.58
623.24	1368.09
623.59	1360.74
623.93	1353.15
624.28	1345.87
624.62	1338.35
624.97	1331.15
625.32	1324.58
625.66	1317.55
626.01	1310.25
626.35	1302.72
626.70	1295.04
627.04	1287.28
627.39	1279.65
627.73	1272.22
628.08	1265.21
628.43	1257.87
628.77	1250.51
629.12	1242.81
629.46	1235.56
629.81	1228.21
630.15	1220.83
630.50	1213.42
630.84	1205.23
631.19	1197.39
631.53	1189.92
631.88	1182.34
632.22	1174.73
632.57	1167.34
632.91	1159.86
633.26	1152.50
633.60	1145.27
633.95	1138.21
634.29	1131.14
634.64	1124.41
634.98	1117.11
635.32	1109.99
635.67	1103.40
636.01	1096.78
636.36	1090.09
636.70	1083.64
637.05	1077.00
637.39	1070.54
637.73	1063.90
638.08	1058.02
638.42	1052.04
638.77	1045.57
639.11	1038.92
639.45	1032.56
639.80	1025.95
640.14	1019.44
640.49	1012.91
640.83	1006.61
641.17	1000.32
641.52	994.07
641.86	987.58
642.20	981.73
642.55	975.42
642.89	968.93
643.23	962.37
643.58	956.53
643.92	950.30
644.26	944.22
644.61	938.27
644.95	932.36
645.29	925.69
645.64	918.86
645.98	912.56
646.32	906.76
646.66	900.69
647.01	894.86
647.35	889.19
647.69	883.42
648.04	877.82
648.38	871.93
648.72	865.81
649.06	859.76
649.41	853.87
649.75	847.80
650.09	841.84
650.43	836.04
650.78	829.91
651.12	823.98
651.46	818.32
651.80	812.53
652.14	807.14
652.49	801.76
652.83	796.62
653.17	790.83
653.51	785.07
653.85	779.71
654.20	774.03
654.54	768.09
654.88	762.33
655.22	756.49
655.56	750.87
655.90	745.46
656.25	740.26
656.59	734.90
656.93	729.86
657.27	724.69
657.61	719.25
657.95	714.15
658.29	709.04
658.64	703.79
658.98	698.49
659.32	692.99
659.66	687.80
660.00	682.52
660.34	677.65
660.68	672.85
661.02	667.81
661.36	663.06
661.70	658.49
662.05	654.08
662.39	649.70
662.73	645.22
663.07	640.83
663.41	636.33
663.75	631.89
664.09	627.30
664.43	622.90
664.77	618.80
665.11	614.58
665.45	610.46
665.79	606.32
666.13	602.20
666.47	598.16
666.81	593.96
667.15	589.85
667.49	585.95
667.83	582.11
668.17	578.20
668.51	574.13
668.85	570.11
669.19	566.33
669.53	562.47
669.87	558.59
670.21	554.91
670.55	551.34
670.89	547.93
671.23	544.54
671.57	541.01
671.91	537.47
672.25	533.96
672.58	530.43
672.92	527.11
673.26	523.98
673.60	520.83
673.94	517.84
674.28	514.93
674.62	511.97
674.96	508.77
675.30	505.90
675.64	503.04
675.97	500.33
676.31	497.40
676.65	494.52
676.99	491.84
677.33	488.98
677.67	486.13
678.01	483.01
678.34	480.05
678.68	477.22
679.02	474.36
679.36	471.63
679.70	468.93
680.04	466.15
680.37	463.17
680.71	460.39
681.05	457.79
681.39	455.02
681.73	452.43
682.06	449.98
682.40	447.37
682.74	444.87
683.08	442.30
683.42	439.72
683.75	437.19
684.09	434.64
684.43	432.17
684.77	429.75
685.10	427.48
685.44	425.14
685.78	422.84
686.12	420.64
686.45	418.37
686.79	416.11
687.13	413.95
687.46	411.83
687.80	409.70
688.14	407.46
688.48	405.51
688.81	403.19
689.15	401.02
689.49	398.92
689.82	396.81
690.16	394.71
690.50	392.81
690.83	390.90
691.17	388.94
691.51	387.03
691.84	385.17
692.18	383.21
692.52	381.24
692.85	379.36
693.19	377.49
693.52	375.65
693.86	373.84
694.20	372.04
694.53	370.26
694.87	368.40
695.21	366.60
695.54	364.72
695.88	363.02
696.21	361.33
696.55	359.64
696.88	357.97
697.22	356.32
697.56	354.66
697.89	352.97
698.23	351.35
698.56	349.74
698.90	348.12
699.23	346.49
699.57	344.94
699.90	343.37
700.24	341.80
700.58	340.23
700.91	338.68
701.25	337.25
701.58	335.86
701.92	334.51
702.25	333.14
702.59	331.77
702.92	330.43
703.26	329.08
703.59	327.79
703.93	326.58
704.26	325.32
704.60	324.03
704.93	322.76
705.26	321.50
705.60	320.34
705.93	319.20
706.27	318.14
706.60	317.12
706.94	316.03
707.27	314.92
707.61	313.89
707.94	312.90
708.27	311.78
708.61	310.72
708.94	309.69
709.28	308.69
709.61	307.76
709.94	306.84
710.28	305.86
710.61	304.93
710.95	303.86
711.28	302.99
711.61	302.04
711.95	301.15
712.28	300.20
712.61	299.20
712.95	298.28
713.28	297.45
713.61	296.58
713.95	295.73
714.28	294.86
714.61	294.01
714.95	293.18
715.28	292.34
715.61	291.46
715.95	290.63
716.28	289.82
716.61	288.96
716.95	288.15
717.28	287.40
717.61	286.61
717.94	285.90
718.28	285.08
718.61	284.39
718.94	283.67
719.27	283.04
719.61	282.44
719.94	281.78
720.27	281.02
720.60	280.31
720.94	279.69
721.27	279.12
721.60	278.56
721.93	277.96
722.27	277.44
722.60	276.91
722.93	276.31
723.26	275.75
723.59	275.21
723.93	274.64
724.26	274.08
724.59	273.55
724.92	273.01
725.25	272.51
725.59	271.95
725.92	271.45
726.25	270.95
726.58	270.45
726.91	269.97
727.24	269.51
727.57	269.05
727.91	268.53
728.24	268.04
728.57	267.54
728.90	267.08
729.23	266.56
729.56	266.12
729.89	265.67
730.22	265.19
730.55	264.74
730.89	264.30
731.22	263.86
731.55	263.38
731.88	262.96
732.21	262.55
732.54	262.10
732.87	261.67
733.20	261.23
733.53	260.80
733.86	260.41
734.19	259.99
734.52	259.60
734.85	259.28
735.18	258.90
735.51	258.52
735.84	258.13
736.17	257.80
736.50	257.37
736.83	257.10
737.16	256.75
737.49	256.37
737.82	255.99
738.15	255.65
738.48	255.32
738.81	254.98
739.14	254.62
739.47	254.33
739.80	254.00
740.13	253.70
740.46	253.39
740.79	253.04
741.12	252.72
741.45	252.39
741.78	252.00
742.11	251.71
742.44	251.38
742.77	251.07
743.10	250.73
743.43	250.43
743.75	250.04
744.08	249.90
744.41	249.61
744.74	249.39
745.07	249.08
745.40	248.84
745.73	248.61
746.06	248.34
746.39	248.04
746.71	247.80
747.04	247.50
747.37	247.26
747.70	247.04
748.03	246.81
748.36	246.60
748.68	246.38
749.01	246.10
749.34	245.88
749.67	245.65
750.00	245.43
750.33	245.28
750.65	245.08
750.98	244.72
751.31	244.49
751.64	244.28
751.97	244.16
752.29	243.94
752.62	243.66
752.95	243.48
753.28	243.26
753.60	243.07
753.93	242.95
754.26	242.75
754.59	242.51
754.91	242.31
755.24	242.13
755.57	241.99
755.90	241.83
756.22	241.63
756.55	241.46
756.88	241.29
757.20	241.02
757.53	240.86
757.86	240.72
758.19	240.60
758.51	240.42
758.84	240.21
759.17	240.07
759.49	239.96
759.82	239.82
760.15	239.69
760.47	239.53
760.80	239.33
761.13	239.19
761.45	239.08
761.78	238.94
762.11	238.80
762.43	238.62
762.76	238.49
763.08	238.40
763.41	238.27
763.74	238.15
764.06	238.06
764.39	237.92
764.71	237.78
765.04	237.65
765.37	237.53
765.69	237.40
766.02	237.23
766.34	237.09
766.67	236.94
767.00	236.84
767.32	236.79
767.65	236.74
767.97	236.62
768.30	236.52
768.62	236.39
768.95	236.25
769.27	236.12
769.60	236.01
769.92	235.89
770.25	235.77
770.57	235.61
770.90	235.51
771.22	235.39
771.55	235.30
771.87	235.20
772.20	235.07
772.52	235.04
772.85	235.06
773.17	234.95
773.50	234.86
773.82	234.75
774.15	234.59
774.47	234.44
774.80	234.37
775.12	234.26
775.45	234.18
775.77	234.11
776.09	234.05
776.42	233.97
776.74	233.89
777.07	233.78
777.39	233.72
777.72	233.64
778.04	233.58
778.36	233.51
778.69	233.42
779.01	233.38
779.33	233.20
779.66	233.02
779.98	232.96
780.31	232.88
780.63	232.85
780.95	232.80
781.28	232.72
781.60	232.63
781.92	232.54
782.25	232.49
782.57	232.41
782.89	232.34
783.22	232.25
783.54	232.17
783.86	232.15
784.19	232.08
784.51	232.04
784.83	231.96
785.16	231.90
785.48	231.83
785.80	231.78
786.12	231.75
786.45	231.67
786.77	231.63
787.09	231.58
787.42	231.49
787.74	231.45
788.06	231.40
788.38	231.34
788.71	231.31
789.03	231.29
789.35	231.28
789.67	231.23
789.99	231.21
790.32	231.16
790.64	231.13
790.96	231.18
791.28	231.08
791.61	231.04
791.93	231.00
792.25	230.99
792.57	231.02
792.89	230.95
793.21	230.95
793.54	230.90
793.86	230.86
794.18	230.85
794.50	230.79
794.82	230.78
795.14	230.77
795.47	230.75
795.79	230.72
796.11	230.66
796.43	230.65
796.75	230.62
797.07	230.60
797.39	230.57
797.71	230.46
798.04	230.46
798.36	230.46
798.68	230.42
799.00	230.40
799.32	230.36
799.64	230.36
799.96	230.34
800.28	230.33
800.60	230.31
800.92	230.32
801.24	230.31
801.56	230.30
801.89	230.28
802.21	230.24
802.53	230.18
802.85	230.19
803.17	230.20
803.49	230.15
803.81	230.12
804.13	230.10
804.45	230.09
804.77	230.10
805.09	230.05
805.41	230.04
805.73	229.98
806.05	229.91
806.37	229.89
806.69	229.86
807.01	229.85
807.33	229.84
807.65	229.78
807.97	229.77
808.28	229.76
808.60	229.74
808.92	229.74
809.24	229.78
809.56	229.73
809.88	229.67
810.20	229.67
810.52	229.69
810.84	229.65
811.16	229.61
811.48	229.54
811.80	229.57
812.12	229.53
812.43	229.52
812.75	229.51
813.07	229.47
813.39	229.46
813.71	229.40
814.03	229.36
814.35	229.34
814.67	229.29
814.98	229.24
815.30	229.18
815.62	229.11
815.94	229.04
816.26	229.06
816.58	229.03
816.89	229.00
817.21	228.94
817.53	228.91
817.85	228.90
818.17	228.89
818.48	228.81
818.80	228.83
819.12	228.79
819.44	228.74
819.76	228.69
820.07	228.67
820.39	228.63
820.71	228.62
821.03	228.59
821.34	228.56
821.66	228.54
821.98	228.50
822.30	228.52
822.61	228.54
822.93	228.44
823.25	228.41
823.57	228.38
823.88	228.35
824.20	228.31
824.52	228.29
824.83	228.29
825.15	228.27
825.47	228.24
825.79	228.22
826.10	228.21
826.42	228.22
826.74	228.18
827.05	228.21
827.37	228.18
827.69	228.14
828.00	228.11
828.32	228.08
828.64	228.08
828.95	228.10
829.27	228.06
829.58	228.08
829.90	228.09
830.22	228.09
830.53	228.06
830.85	228.02
831.17	228.01
831.48	227.96
831.80	227.93
832.11	227.89
832.43	227.91
832.75	227.89
833.06	227.91
833.38	227.88
833.69	227.84
834.01	227.83
834.32	227.82
834.64	227.82
834.96	227.82
835.27	227.83
835.59	227.78
835.90	227.74
836.22	227.72
836.53	227.68
836.85	227.65
837.16	227.77
837.48	227.79
837.79	227.80
838.11	227.81
838.42	227.83
838.74	227.85
839.05	227.80
839.37	227.81
839.68	227.76
840.00	227.75
840.31	227.75
840.63	227.76
840.94	227.78
841.26	227.78
841.57	227.80
841.88	227.78
842.20	227.78
842.51	227.80
842.83	227.84
843.14	227.95
843.46	227.98
843.77	227.94
844.08	227.93
844.40	227.90
844.71	227.90
845.03	227.89
845.34	227.85
845.65	227.89
845.97	227.87
846.28	227.88
846.60	227.91
846.91	227.91
847.22	227.89
847.54	227.91
847.85	227.92
848.16	227.92
848.48	227.91
848.79	227.95
849.10	227.94
849.42	227.94
849.73	227.85
850.04	227.81
850.36	227.76
850.67	227.78
850.98	227.79
851.30	227.79
851.61	227.79
851.92	227.79
852.23	227.80
852.55	227.82
852.86	227.83
853.17	227.80
853.49	227.81
853.80	227.81
854.11	227.79
854.42	227.77
854.74	227.76
855.05	227.75
855.36	227.68
855.67	227.67
855.99	227.63
856.30	227.70
856.61	227.72
856.92	227.71
857.23	227.68
857.55	227.65
857.86	227.64
858.17	227.65
858.48	227.63
858.79	227.63
859.11	227.60
859.42	227.60
859.73	227.58
860.04	227.57
860.35	227.57
860.66	227.55
860.98	227.55
861.29	227.53
861.60	227.52
861.91	227.53
862.22	227.51
862.53	227.49
862.84	227.38
863.16	227.37
863.47	227.33
863.78	227.33
864.09	227.33
864.40	227.33
864.71	227.29
865.02	227.32
865.33	227.29
865.64	227.28
865.95	227.29
866.27	227.34
866.58	227.31
866.89	227.32
867.20	227.32
867.51	227.30
867.82	227.30
868.13	227.33
868.44	227.32
868.75	227.33
869.06	227.33
869.37	227.29
869.68	227.28
869.99	227.33
870.30	227.33
870.61	227.34
870.92	227.32
871.23	227.34
871.54	227.33
871.85	227.36
872.16	227.37
872.47	227.33
872.78	227.28
873.09	227.32
873.40	227.29
873.71	227.27
874.02	227.26
874.33	227.24
874.64	227.22
874.95	227.24
875.26	227.20
875.56	227.21
875.87	227.23
876.18	227.21
876.49	227.29
876.80	227.29
877.11	227.27
877.42	227.28
877.73	227.29
878.04	227.25
878.35	227.21
878.66	227.20
878.96	227.20
879.27	227.18
879.58	227.13
879.89	227.14
880.20	227.18
880.51	227.19
880.82	227.20
881.12	227.21
881.43	227.19
881.74	227.22
882.05	227.22
882.36	227.25
882.67	227.27
882.97	227.17
883.28	227.15
883.59	227.16
883.90	227.16
884.21	227.20
884.51	227.20
884.82	227.21
885.13	227.21
885.44	227.21
885.74	227.25
886.05	227.28
886.36	227.29
886.67	227.25
886.98	227.32
887.28	227.32
887.59	227.33
887.90	227.34
888.20	227.33
888.51	227.35
888.82	227.34
889.13	227.37
889.43	227.44
889.74	227.47
890.05	227.50
890.35	227.53
890.66	227.46
890.97	227.46
891.28	227.47
891.58	227.50
891.89	227.52
892.20	227.49
892.50	227.48
892.81	227.47
893.12	227.50
893.42	227.42
893.73	227.43
894.04	227.41
894.34	227.42
894.65	227.41
894.95	227.37
895.26	227.35
895.57	227.39
895.87	227.31
896.18	227.27
896.48	227.26
896.79	227.23
897.10	227.27
897.40	227.25
897.71	227.25
898.01	227.23
898.32	227.20
898.63	227.21
898.93	227.17
899.24	227.17
899.54	227.13
899.85	227.10
900.15	227.07
900.46	227.10
900.76	227.08
901.07	227.06
901.38	227.09
901.68	227.11
901.99	227.04
902.29	227.03
902.60	227.03
902.90	227.00
903.21	227.00
903.51	226.99
903.82	227.03
904.12	227.02
904.43	226.99
904.73	226.98
905.03	226.96
905.34	227.08
905.64	227.06
905.95	227.04
906.25	227.08
906.56	227.07
906.86	227.04
907.17	227.05
907.47	227.05
907.77	227.03
908.08	227.00
908.38	227.01
908.69	226.99
908.99	227.02
909.30	227.04
909.60	227.04
909.90	227.00
910.21	226.97
910.51	226.96
910.81	226.98
911.12	227.00
911.42	227.03
911.73	226.93
912.03	226.94
912.33	226.98
912.64	226.95
912.94	226.98
913.24	226.99
913.55	226.97
913.85	226.95
914.15	226.98
914.46	227.01
914.76	227.02
915.06	227.05
915.37	227.02
915.67	227.01
915.97	226.99
916.27	227.01
916.58	227.02
916.88	227.01
917.18	227.01
917.49	227.08
917.79	227.03
918.09	227.07
918.39	227.09
918.70	227.10
919.00	227.14
919.30	227.18
919.60	227.17
919.91	227.16
920.21	227.17
920.51	227.14
920.81	227.09
921.12	227.09
921.42	227.06
921.72	227.05
922.02	227.08
922.32	227.10
922.63	227.11
922.93	227.14
923.23	227.15
923.53	227.15
923.83	227.08
924.13	227.14
924.44	227.13
924.74	227.16
925.04	227.17
925.34	227.16
925.64	227.09
925.94	227.10
926.24	227.18
926.55	227.19
926.85	227.21
927.15	227.24
927.45	227.26
927.75	227.26
928.05	227.26
928.35	227.24
928.65	227.26
928.95	227.24
929.26	227.19
929.56	227.23
929.86	227.22
930.16	227.21
930.46	227.18
930.76	227.19
931.06	227.11
931.36	227.10
931.66	227.08
931.96	227.10
932.26	227.08
932.56	227.01
932.86	227.00
933.16	226.99
933.46	226.98
933.76	226.92
934.06	226.93
934.36	226.96
934.66	226.94
934.96	226.91
935.26	226.93
935.56	226.95
935.86	226.91
936.16	226.89
936.46	226.87
936.76	226.84
937.06	226.82
937.36	226.81
937.66	226.76
937.96	226.73
938.26	226.69
938.56	226.64
938.86	226.64
939.16	226.66
939.46	226.65
939.76	226.67
940.06	226.67
940.35	226.67
940.65	226.63
940.95	226.63
941.25	226.60
941.55	226.55
941.85	226.55
942.15	226.61
942.45	226.63
942.75	226.61
943.04	226.65
943.34	226.67
943.64	226.68
943.94	226.69
944.24	226.71
944.54	226.71
944.84	226.74
945.13	226.72
945.43	226.73
945.73	226.75
946.03	226.74
946.33	226.76
946.62	226.76
946.92	226.75
947.22	226.77
947.52	226.80
947.82	226.84
948.11	226.83
948.41	226.79
948.71	226.79
949.01	226.81
949.31	226.81
949.60	226.79
949.90	226.82
950.20	226.84
950.50	226.87
950.79	226.88
951.09	226.91
951.39	226.90
951.69	226.89
951.98	226.88
952.28	226.88
952.58	226.89
952.87	226.86
953.17	226.88
953.47	226.89
953.76	226.90
954.06	226.88
954.36	226.87
954.66	226.86
954.95	226.87
955.25	226.86
955.55	226.87
955.84	226.85
956.14	226.86
956.44	226.87
956.73	226.84
957.03	226.82
957.32	226.82
957.62	226.86
957.92	226.88
958.21	226.90
958.51	227.00
958.81	226.99
959.10	227.01
959.40	227.02
959.69	227.04
959.99	227.05
960.29	227.04
960.58	227.05
960.88	227.08
961.17	227.11
961.47	227.13
961.76	227.14
962.06	227.17
962.36	227.12
962.65	227.11
962.95	227.12
963.24	227.13
963.54	227.12
963.83	227.10
964.13	227.10
964.42	227.07
964.72	226.99
965.01	227.02
965.31	227.02
965.60	227.01
965.90	227.03
966.19	226.98
966.49	226.99
966.78	226.99
967.08	226.97
967.37	226.93
967.67	226.91
967.96	226.89
968.26	226.86
968.55	226.88
968.85	226.89
969.14	226.89
969.43	226.90
969.73	226.89
970.02	226.90
970.32	226.87
970.61	226.86
970.91	226.86
971.20	226.81
971.49	226.77
971.79	226.79
972.08	226.75
972.38	226.75
972.67	226.71
972.96	226.72
973.26	226.70
973.55	226.74
973.85	226.71
974.14	226.72
974.43	226.74
974.73	226.74
975.02	226.70
975.31	226.69
975.61	226.66
975.90	226.65
976.19	226.61
976.49	226.63
976.78	226.64
977.07	226.61
977.37	226.62
977.66	226.62
977.95	226.59
978.24	226.56
978.54	226.58
978.83	226.55
979.12	226.54
979.42	226.52
979.71	226.49
980.00	226.50
980.29	226.46
980.59	226.43
980.88	226.46
981.17	226.47
981.46	226.45
981.76	226.44
982.05	226.46
982.34	226.48
982.63	226.48
982.93	226.49
983.22	226.52
983.51	226.53
983.80	226.55
984.09	226.58
984.39	226.58
984.68	226.62
984.97	226.66
985.26	226.69
985.55	226.70
985.85	226.70
986.14	226.74
986.43	226.77
986.72	226.80
987.01	226.77
987.30	226.76
987.59	226.78
987.89	226.80
988.18	226.81
988.47	226.81
988.76	226.79
989.05	226.79
989.34	226.75
989.63	226.79
989.92	226.79
990.22	226.79
990.51	226.81
990.80	226.81
991.09	226.81
991.38	226.79
991.67	226.81
991.96	226.81
992.25	226.81
992.54	226.80
992.83	226.81
993.12	226.81
993.41	226.86
993.70	226.93
993.99	226.97
994.28	226.97
994.58	226.98
994.87	227.00
995.16	227.01
995.45	227.06
995.74	227.04
996.03	227.04
996.32	227.04
996.61	227.06
996.90	227.05
997.19	227.04
997.48	227.08
997.77	227.07
998.06	227.08
998.34	227.08
998.63	227.09
998.92	227.07
999.21	227.08
999.50	227.06
999.79	227.01
1000.08	227.00
1000.37	226.99
1000.66	226.98
1000.95	227.02
1001.24	226.99
1001.53	226.97
1001.82	226.93
1002.11	226.93
1002.40	226.92
1002.68	226.91
1002.97	226.97
1003.26	226.98
1003.55	226.92
1003.84	226.91
1004.13	226.91
1004.42	226.89
1004.71	226.89
1004.99	226.91
1005.28	226.90
1005.57	226.91
1005.86	226.90
1006.15	226.87
1006.44	226.85
1006.72	226.89
1007.01	226.85
1007.30	226.85
1007.59	226.83
1007.88	226.87
1008.17	226.84
1008.45	226.83
1008.74	226.81
1009.03	226.77
1009.32	226.74
1009.60	226.74
1009.89	226.73
1010.18	226.70
1010.47	226.70
1010.76	226.71
1011.04	226.68
1011.33	226.70
1011.62	226.66
1011.91	226.66
1012.19	226.66
1012.48	226.64
1012.77	226.59
1013.05	226.61
1013.34	226.59
1013.63	226.59
1013.92	226.56
1014.20	226.55
1014.49	226.55
1014.78	226.53
1015.06	226.50
1015.35	226.54
1015.64	226.56
1015.92	226.57
1016.21	226.58
1016.50	226.59
1016.78	226.57
1017.07	226.58
1017.36	226.59
1017.64	226.59
1017.93	226.60
1018.22	226.60
1018.50	226.63
1018.79	226.64
1019.08	226.62
1019.36	226.64
1019.65	226.63
1019.93	226.70
1020.22	226.74
1020.51	226.78
1020.79	226.80
1021.08	226.63
1021.36	226.78
1021.65	226.65
1021.94	226.79
1022.22	226.65
1022.51	226.49
1022.79	227.69
1023.08	226.89
1023.36	227.66
1023.65	226.56
>>>>>End Processed Spectral Data<<<<<
