SpectraSuite Data File
++++++++++++++++++++++++++++++++++++
Date: Fri Feb 01 15:12:44 EST 2013
User: group
Dark Spectrum Present: No
Reference Spectrum Present: No
Number of Sampled Component Spectra: 1
Spectrometers: USB2E7196
Integration Time (usec): 35000 (USB2E7196)
Spectra Averaged: 100 (USB2E7196)
Boxcar Smoothing: 10 (USB2E7196)
Correct for Electrical Dark: No (USB2E7196)
Strobe/Lamp Enabled: No (USB2E7196)
Correct for Detector Non-linearity: No (USB2E7196)
Correct for Stray Light: No (USB2E7196)
Number of Pixels in Processed Spectrum: 2048
>>>>>Begin Processed Spectral Data<<<<<
339.09	0.00
339.48	215.22
339.86	216.23
340.24	217.64
340.63	219.56
341.01	222.31
341.39	221.95
341.78	223.04
342.16	224.78
342.54	225.31
342.93	213.54
343.31	224.35
343.69	224.87
344.07	225.33
344.46	225.78
344.84	226.14
345.22	226.36
345.60	226.63
345.99	226.83
346.37	226.99
346.75	227.08
347.13	227.13
347.52	227.16
347.90	227.27
348.28	227.29
348.66	227.33
349.05	227.29
349.43	227.33
349.81	227.36
350.19	227.42
350.57	227.46
350.96	227.52
351.34	227.58
351.72	227.70
352.10	227.81
352.48	227.86
352.87	227.95
353.25	228.02
353.63	228.08
354.01	228.14
354.39	228.20
354.77	228.26
355.15	228.39
355.54	228.49
355.92	228.48
356.30	228.52
356.68	228.67
357.06	228.76
357.44	228.79
357.82	228.85
358.20	228.92
358.58	228.99
358.97	229.06
359.35	229.15
359.73	229.22
360.11	229.25
360.49	229.32
360.87	229.35
361.25	229.41
361.63	229.46
362.01	229.51
362.39	229.52
362.77	229.56
363.15	229.57
363.53	229.57
363.91	229.60
364.29	229.67
364.67	229.54
365.05	229.52
365.43	229.54
365.81	229.57
366.19	229.58
366.57	229.58
366.95	229.59
367.33	229.54
367.71	229.52
368.09	229.55
368.47	229.50
368.85	229.45
369.23	229.42
369.61	229.38
369.99	229.39
370.37	229.33
370.75	229.35
371.13	229.28
371.51	229.23
371.89	229.21
372.27	229.14
372.65	229.09
373.03	229.02
373.41	228.95
373.78	228.87
374.16	228.75
374.54	228.65
374.92	228.54
375.30	228.45
375.68	228.37
376.06	228.29
376.44	228.22
376.82	228.20
377.19	228.12
377.57	228.04
377.95	227.91
378.33	227.85
378.71	227.71
379.09	227.66
379.47	227.58
379.84	227.50
380.22	227.42
380.60	227.36
380.98	227.34
381.36	227.27
381.73	227.21
382.11	227.18
382.49	227.14
382.87	227.08
383.25	227.02
383.62	227.05
384.00	226.95
384.38	226.89
384.76	226.84
385.13	226.83
385.51	226.79
385.89	226.72
386.27	226.68
386.64	226.64
387.02	226.60
387.40	226.56
387.78	226.51
388.15	226.48
388.53	226.43
388.91	226.37
389.29	226.35
389.66	226.31
390.04	226.28
390.42	226.29
390.79	226.31
391.17	226.34
391.55	226.23
391.92	226.24
392.30	226.26
392.68	226.23
393.05	226.21
393.43	226.23
393.81	226.26
394.18	226.28
394.56	226.31
394.94	226.37
395.31	226.37
395.69	226.45
396.06	226.51
396.44	226.58
396.82	226.64
397.19	226.74
397.57	226.79
397.95	226.87
398.32	226.88
398.70	226.96
399.07	227.02
399.45	227.08
399.82	227.16
400.20	227.24
400.58	227.32
400.95	227.35
401.33	227.46
401.70	227.60
402.08	227.68
402.45	227.77
402.83	227.87
403.20	228.03
403.58	228.13
403.95	228.30
404.33	228.44
404.71	228.57
405.08	228.74
405.46	228.88
405.83	229.04
406.21	229.19
406.58	229.34
406.96	229.50
407.33	229.71
407.70	229.91
408.08	230.18
408.45	230.42
408.83	230.66
409.20	230.85
409.58	231.07
409.95	231.35
410.33	231.62
410.70	231.88
411.08	232.17
411.45	232.48
411.82	232.74
412.20	233.11
412.57	233.55
412.95	233.83
413.32	234.26
413.69	234.68
414.07	235.13
414.44	235.58
414.82	236.05
415.19	236.59
415.56	237.17
415.94	237.70
416.31	238.37
416.68	239.02
417.06	239.76
417.43	240.42
417.81	241.19
418.18	242.00
418.55	242.82
418.93	243.70
419.30	244.61
419.67	245.54
420.04	246.48
420.42	247.46
420.79	248.66
421.16	249.80
421.54	250.98
421.91	252.21
422.28	253.46
422.66	254.82
423.03	256.13
423.40	257.45
423.77	258.84
424.15	260.27
424.52	261.76
424.89	263.38
425.26	264.96
425.64	266.41
426.01	267.98
426.38	269.67
426.75	271.33
427.13	273.04
427.50	274.84
427.87	276.69
428.24	278.57
428.61	280.33
428.99	282.30
429.36	284.42
429.73	286.53
430.10	288.57
430.47	290.60
430.85	292.75
431.22	295.01
431.59	297.42
431.96	299.65
432.33	302.17
432.70	304.56
433.08	307.38
433.45	310.02
433.82	312.62
434.19	315.52
434.56	318.36
434.93	321.02
435.30	323.69
435.68	326.65
436.05	329.46
436.42	332.24
436.79	334.78
437.16	337.41
437.53	340.24
437.90	343.05
438.27	345.81
438.64	348.65
439.01	351.25
439.38	353.47
439.75	355.67
440.13	358.11
440.50	360.44
440.87	362.29
441.24	364.25
441.61	366.43
441.98	367.91
442.35	369.69
442.72	371.53
443.09	373.31
443.46	374.35
443.83	374.95
444.20	375.46
444.57	376.28
444.94	376.59
445.31	376.93
445.68	377.26
446.05	377.32
446.42	376.91
446.79	376.45
447.16	376.00
447.53	375.69
447.90	374.54
448.27	373.39
448.64	371.82
449.01	370.68
449.37	368.71
449.74	366.77
450.11	364.53
450.48	362.09
450.85	359.52
451.22	357.30
451.59	355.24
451.96	353.28
452.33	350.65
452.70	348.33
453.07	345.44
453.43	342.51
453.80	339.76
454.17	337.00
454.54	334.40
454.91	331.67
455.28	328.96
455.65	326.51
456.02	324.04
456.38	321.87
456.75	319.21
457.12	316.95
457.49	314.77
457.86	312.57
458.23	310.71
458.59	308.66
458.96	306.56
459.33	304.71
459.70	302.85
460.07	301.33
460.43	299.60
460.80	298.00
461.17	296.58
461.54	295.05
461.91	293.68
462.27	292.26
462.64	291.01
463.01	289.64
463.38	288.28
463.74	286.88
464.11	285.69
464.48	284.63
464.85	283.51
465.21	282.61
465.58	281.68
465.95	280.57
466.32	279.66
466.68	278.77
467.05	277.87
467.42	276.98
467.78	276.06
468.15	275.14
468.52	274.46
468.88	273.61
469.25	272.85
469.62	272.22
469.98	271.54
470.35	270.93
470.72	270.29
471.08	269.64
471.45	269.10
471.82	268.57
472.18	267.96
472.55	267.51
472.92	266.97
473.28	266.48
473.65	266.03
474.02	265.61
474.38	265.23
474.75	264.89
475.11	264.53
475.48	264.21
475.85	264.00
476.21	263.76
476.58	263.53
476.94	263.37
477.31	263.20
477.67	263.09
478.04	262.99
478.41	262.96
478.77	263.00
479.14	262.93
479.50	262.94
479.87	263.03
480.23	263.13
480.60	263.21
480.96	263.31
481.33	263.52
481.69	263.72
482.06	263.91
482.42	264.09
482.79	264.36
483.15	264.73
483.52	265.13
483.88	265.48
484.25	265.92
484.61	266.37
484.98	266.79
485.34	267.32
485.71	267.90
486.07	268.50
486.44	269.06
486.80	269.77
487.17	270.47
487.53	271.29
487.90	272.12
488.26	273.04
488.62	274.04
488.99	275.01
489.35	276.04
489.72	277.15
490.08	278.38
490.44	279.64
490.81	280.94
491.17	282.25
491.54	283.73
491.90	285.25
492.26	286.89
492.63	288.68
492.99	290.47
493.36	292.33
493.72	294.37
494.08	296.49
494.45	298.77
494.81	301.12
495.17	303.50
495.54	306.08
495.90	308.79
496.26	311.57
496.63	314.48
496.99	317.61
497.35	320.90
497.72	324.29
498.08	327.76
498.44	331.43
498.80	335.34
499.17	339.35
499.53	343.46
499.89	347.79
500.26	352.25
500.62	356.96
500.98	361.92
501.34	366.95
501.71	372.26
502.07	377.61
502.43	383.22
502.79	389.01
503.16	395.07
503.52	401.31
503.88	407.70
504.24	414.30
504.60	421.15
504.97	428.23
505.33	435.54
505.69	443.23
506.05	450.95
506.41	458.82
506.78	467.03
507.14	475.50
507.50	484.17
507.86	493.14
508.22	502.22
508.59	511.45
508.95	521.02
509.31	530.79
509.67	540.90
510.03	551.14
510.39	561.70
510.75	572.47
511.12	583.47
511.48	594.75
511.84	606.27
512.20	617.78
512.56	629.77
512.92	641.92
513.28	654.25
513.64	666.78
514.00	679.55
514.37	692.51
514.73	705.55
515.09	718.66
515.45	732.01
515.81	745.66
516.17	759.67
516.53	773.82
516.89	788.05
517.25	802.25
517.61	816.77
517.97	831.32
518.33	845.79
518.69	860.48
519.05	875.47
519.41	890.68
519.77	906.25
520.13	921.70
520.49	937.21
520.85	952.74
521.21	968.56
521.57	984.82
521.93	1000.72
522.29	1017.19
522.65	1033.51
523.01	1049.83
523.37	1065.91
523.73	1082.08
524.09	1098.17
524.45	1114.50
524.81	1131.19
525.17	1148.09
525.53	1165.14
525.89	1182.02
526.25	1198.86
526.61	1215.43
526.97	1232.15
527.33	1248.67
527.68	1265.40
528.04	1281.88
528.40	1298.55
528.76	1315.59
529.12	1332.24
529.48	1349.12
529.84	1365.27
530.20	1381.94
530.56	1399.04
530.91	1416.49
531.27	1433.30
531.63	1449.99
531.99	1466.66
532.35	1482.74
532.71	1498.67
533.07	1514.83
533.42	1530.85
533.78	1546.98
534.14	1563.28
534.50	1578.63
534.86	1594.67
535.21	1609.99
535.57	1626.00
535.93	1641.53
536.29	1656.49
536.65	1671.65
537.00	1686.53
537.36	1701.93
537.72	1716.54
538.08	1730.92
538.44	1744.88
538.79	1758.95
539.15	1772.66
539.51	1786.51
539.87	1801.03
540.22	1814.85
540.58	1828.73
540.94	1842.24
541.29	1855.39
541.65	1868.03
542.01	1881.45
542.37	1893.78
542.72	1906.23
543.08	1918.05
543.44	1930.57
543.79	1941.75
544.15	1952.86
544.51	1964.44
544.87	1975.34
545.22	1986.12
545.58	1996.41
545.94	2006.13
546.29	2015.99
546.65	2025.82
547.01	2035.09
547.36	2043.68
547.72	2052.24
548.07	2060.10
548.43	2068.26
548.79	2076.32
549.14	2084.08
549.50	2091.46
549.86	2099.28
550.21	2106.48
550.57	2113.69
550.92	2120.18
551.28	2127.26
551.64	2134.30
551.99	2140.79
552.35	2147.08
552.70	2153.26
553.06	2159.38
553.41	2165.81
553.77	2171.90
554.13	2178.06
554.48	2184.15
554.84	2189.63
555.19	2194.94
555.55	2200.14
555.90	2204.55
556.26	2209.26
556.61	2213.98
556.97	2218.22
557.32	2222.27
557.68	2226.42
558.03	2230.69
558.39	2234.52
558.74	2239.18
559.10	2242.99
559.45	2246.65
559.81	2250.88
560.16	2254.76
560.52	2257.91
560.87	2261.33
561.23	2263.90
561.58	2266.81
561.94	2269.38
562.29	2271.80
562.64	2274.37
563.00	2277.03
563.35	2280.58
563.71	2283.80
564.06	2286.91
564.42	2289.73
564.77	2292.14
565.12	2294.37
565.48	2296.18
565.83	2297.77
566.19	2299.01
566.54	2300.02
566.89	2301.07
567.25	2301.49
567.60	2302.81
567.96	2304.23
568.31	2304.93
568.66	2305.92
569.02	2306.30
569.37	2306.54
569.72	2307.29
570.08	2307.33
570.43	2307.21
570.78	2306.41
571.14	2304.75
571.49	2303.30
571.84	2302.94
572.20	2301.61
572.55	2300.57
572.90	2299.01
573.26	2297.58
573.61	2295.89
573.96	2293.82
574.31	2290.78
574.67	2287.80
575.02	2283.99
575.37	2280.69
575.72	2276.67
576.08	2273.30
576.43	2270.03
576.78	2266.24
577.13	2263.05
577.49	2260.05
577.84	2256.45
578.19	2252.61
578.54	2248.81
578.90	2244.45
579.25	2238.73
579.60	2233.77
579.95	2228.68
580.30	2223.51
580.66	2218.30
581.01	2213.20
581.36	2208.23
581.71	2203.99
582.06	2199.28
582.42	2194.66
582.77	2189.33
583.12	2184.67
583.47	2179.76
583.82	2174.49
584.17	2169.17
584.53	2163.51
584.88	2157.73
585.23	2151.87
585.58	2146.46
585.93	2140.88
586.28	2136.02
586.63	2130.79
586.98	2125.67
587.34	2120.83
587.69	2115.93
588.04	2110.50
588.39	2104.72
588.74	2098.18
589.09	2091.85
589.44	2085.09
589.79	2079.14
590.14	2073.37
590.49	2066.86
590.84	2060.34
591.19	2054.22
591.54	2047.64
591.89	2040.02
592.25	2032.98
592.60	2025.63
592.95	2017.78
593.30	2010.38
593.65	2002.67
594.00	1995.66
594.35	1988.22
594.70	1979.95
595.05	1972.48
595.40	1965.32
595.75	1957.69
596.10	1951.32
596.45	1944.46
596.80	1938.14
597.15	1931.32
597.50	1924.03
597.85	1917.57
598.19	1910.80
598.54	1903.66
598.89	1896.98
599.24	1891.11
599.59	1884.34
599.94	1878.08
600.29	1871.92
600.64	1865.34
600.99	1857.89
601.34	1850.97
601.69	1844.16
602.04	1837.18
602.39	1830.02
602.74	1823.01
603.08	1816.31
603.43	1809.59
603.78	1802.35
604.13	1795.15
604.48	1787.81
604.83	1781.10
605.18	1773.93
605.53	1766.06
605.87	1757.98
606.22	1750.73
606.57	1742.81
606.92	1735.50
607.27	1728.27
607.62	1721.27
607.96	1713.96
608.31	1707.36
608.66	1699.71
609.01	1692.05
609.36	1684.63
609.70	1676.50
610.05	1668.42
610.40	1660.71
610.75	1652.29
611.10	1644.57
611.44	1636.39
611.79	1628.44
612.14	1619.66
612.49	1610.68
612.83	1602.27
613.18	1594.32
613.53	1586.32
613.88	1577.79
614.22	1569.52
614.57	1560.95
614.92	1552.94
615.27	1545.23
615.61	1536.86
615.96	1528.90
616.31	1521.21
616.65	1513.85
617.00	1506.30
617.35	1498.68
617.70	1490.24
618.04	1481.74
618.39	1473.56
618.74	1465.71
619.08	1457.33
619.43	1449.74
619.78	1442.75
620.12	1435.59
620.47	1428.06
620.82	1419.90
621.16	1412.42
621.51	1404.84
621.85	1397.31
622.20	1388.68
622.55	1380.54
622.89	1372.75
623.24	1365.18
623.59	1357.85
623.93	1350.26
624.28	1343.03
624.62	1335.47
624.97	1328.32
625.32	1321.68
625.66	1314.68
626.01	1307.51
626.35	1299.98
626.70	1292.30
627.04	1284.54
627.39	1276.86
627.73	1269.42
628.08	1262.42
628.43	1255.20
628.77	1247.79
629.12	1240.14
629.46	1233.06
629.81	1225.60
630.15	1218.32
630.50	1210.85
630.84	1202.66
631.19	1194.78
631.53	1187.38
631.88	1179.93
632.22	1172.41
632.57	1165.08
632.91	1157.54
633.26	1150.07
633.60	1142.98
633.95	1135.93
634.29	1128.94
634.64	1122.25
634.98	1114.83
635.32	1107.70
635.67	1101.06
636.01	1094.46
636.36	1087.73
636.70	1081.16
637.05	1074.63
637.39	1068.18
637.73	1061.77
638.08	1055.91
638.42	1049.99
638.77	1043.41
639.11	1036.77
639.45	1030.40
639.80	1023.76
640.14	1017.32
640.49	1010.89
640.83	1004.54
641.17	998.33
641.52	992.03
641.86	985.62
642.20	979.96
642.55	973.64
642.89	967.16
643.23	960.64
643.58	954.82
643.92	948.58
644.26	942.42
644.61	936.38
644.95	930.28
645.29	923.64
645.64	916.83
645.98	910.59
646.32	904.82
646.66	898.76
647.01	893.04
647.35	887.40
647.69	881.59
648.04	876.03
648.38	870.29
648.72	864.29
649.06	858.21
649.41	852.24
649.75	846.32
650.09	840.42
650.43	834.61
650.78	828.49
651.12	822.59
651.46	816.93
651.80	811.20
652.14	805.85
652.49	800.51
652.83	795.35
653.17	789.60
653.51	783.79
653.85	778.46
654.20	772.76
654.54	766.76
654.88	761.02
655.22	755.17
655.56	749.47
655.90	744.02
656.25	738.78
656.59	733.48
656.93	728.37
657.27	723.25
657.61	717.89
657.95	712.80
658.29	707.76
658.64	702.61
658.98	697.39
659.32	691.93
659.66	686.76
660.00	681.48
660.34	676.50
660.68	671.67
661.02	666.63
661.36	661.90
661.70	657.39
662.05	653.11
662.39	648.71
662.73	644.27
663.07	639.94
663.41	635.45
663.75	630.88
664.09	626.34
664.43	622.00
664.77	617.87
665.11	613.60
665.45	609.52
665.79	605.42
666.13	601.28
666.47	597.19
666.81	593.02
667.15	588.92
667.49	585.11
667.83	581.32
668.17	577.43
668.51	573.31
668.85	569.35
669.19	565.47
669.53	561.65
669.87	557.77
670.21	554.05
670.55	550.48
670.89	547.08
671.23	543.62
671.57	540.09
671.91	536.53
672.25	533.14
672.58	529.63
672.92	526.26
673.26	523.14
673.60	520.00
673.94	516.91
674.28	514.08
674.62	511.14
674.96	508.04
675.30	505.11
675.64	502.22
675.97	499.46
676.31	496.59
676.65	493.72
676.99	490.98
677.33	488.13
677.67	485.30
678.01	482.24
678.34	479.26
678.68	476.39
679.02	473.60
679.36	470.81
679.70	468.06
680.04	465.24
680.37	462.35
680.71	459.59
681.05	457.01
681.39	454.29
681.73	451.64
682.06	449.13
682.40	446.59
682.74	444.10
683.08	441.58
683.42	439.05
683.75	436.52
684.09	434.03
684.43	431.55
684.77	429.18
685.10	426.89
685.44	424.61
685.78	422.35
686.12	420.10
686.45	417.82
686.79	415.52
687.13	413.40
687.46	411.24
687.80	409.10
688.14	406.88
688.48	404.84
688.81	402.66
689.15	400.49
689.49	398.35
689.82	396.33
690.16	394.30
690.50	392.35
690.83	390.47
691.17	388.50
691.51	386.64
691.84	384.73
692.18	382.76
692.52	380.81
692.85	378.87
693.19	377.03
693.52	375.22
693.86	373.44
694.20	371.63
694.53	369.84
694.87	368.00
695.21	366.18
695.54	364.35
695.88	362.58
696.21	360.87
696.55	359.21
696.88	357.48
697.22	355.80
697.56	354.19
697.89	352.53
698.23	350.95
698.56	349.36
698.90	347.80
699.23	346.16
699.57	344.64
699.90	343.09
700.24	341.53
700.58	339.99
700.91	338.52
701.25	337.10
701.58	335.72
701.92	334.33
702.25	332.99
702.59	331.61
702.92	330.35
703.26	329.05
703.59	327.75
703.93	326.56
704.26	325.31
704.60	323.98
704.93	322.69
705.26	321.41
705.60	320.23
705.93	319.06
706.27	318.09
706.60	317.06
706.94	316.01
707.27	314.91
707.61	313.87
707.94	312.86
708.27	311.72
708.61	310.68
708.94	309.71
709.28	308.74
709.61	307.80
709.94	306.85
710.28	305.86
710.61	304.88
710.95	303.83
711.28	302.92
711.61	301.97
711.95	301.07
712.28	300.14
712.61	299.14
712.95	298.20
713.28	297.29
713.61	296.36
713.95	295.44
714.28	294.59
714.61	293.71
714.95	292.87
715.28	292.04
715.61	291.18
715.95	290.29
716.28	289.43
716.61	288.61
716.95	287.75
717.28	287.00
717.61	286.27
717.94	285.50
718.28	284.71
718.61	284.02
718.94	283.33
719.27	282.67
719.61	282.04
719.94	281.38
720.27	280.65
720.60	280.02
720.94	279.43
721.27	278.85
721.60	278.25
721.93	277.60
722.27	277.08
722.60	276.51
722.93	275.94
723.26	275.41
723.59	274.83
723.93	274.28
724.26	273.67
724.59	273.08
724.92	272.59
725.25	272.07
725.59	271.52
725.92	271.01
726.25	270.50
726.58	270.01
726.91	269.54
727.24	269.13
727.57	268.64
727.91	268.10
728.24	267.64
728.57	267.16
728.90	266.75
729.23	266.23
729.56	265.84
729.89	265.41
730.22	264.92
730.55	264.46
730.89	264.06
731.22	263.64
731.55	263.23
731.88	262.77
732.21	262.36
732.54	261.97
732.87	261.54
733.20	261.15
733.53	260.77
733.86	260.39
734.19	259.97
734.52	259.59
734.85	259.36
735.18	258.93
735.51	258.59
735.84	258.19
736.17	257.84
736.50	257.44
736.83	257.22
737.16	256.87
737.49	256.57
737.82	256.22
738.15	255.91
738.48	255.62
738.81	255.30
739.14	254.97
739.47	254.61
739.80	254.32
740.13	254.02
740.46	253.69
740.79	253.36
741.12	253.08
741.45	252.74
741.78	252.36
742.11	252.11
742.44	251.78
742.77	251.56
743.10	251.28
743.43	250.96
743.75	250.60
744.08	250.47
744.41	250.21
744.74	249.95
745.07	249.66
745.40	249.39
745.73	249.18
746.06	248.94
746.39	248.66
746.71	248.41
747.04	248.11
747.37	247.87
747.70	247.61
748.03	247.33
748.36	247.12
748.68	246.88
749.01	246.60
749.34	246.37
749.67	246.09
750.00	245.86
750.33	245.71
750.65	245.46
750.98	245.13
751.31	244.89
751.64	244.64
751.97	244.50
752.29	244.27
752.62	243.99
752.95	243.75
753.28	243.54
753.60	243.36
753.93	243.21
754.26	242.99
754.59	242.76
754.91	242.54
755.24	242.35
755.57	242.16
755.90	241.98
756.22	241.78
756.55	241.58
756.88	241.39
757.20	241.14
757.53	240.96
757.86	240.74
758.19	240.56
758.51	240.40
758.84	240.14
759.17	239.95
759.49	239.81
759.82	239.68
760.15	239.55
760.47	239.35
760.80	239.14
761.13	239.00
761.45	238.83
761.78	238.70
762.11	238.54
762.43	238.38
762.76	238.24
763.08	238.10
763.41	237.96
763.74	237.84
764.06	237.69
764.39	237.54
764.71	237.41
765.04	237.28
765.37	237.14
765.69	237.06
766.02	236.93
766.34	236.81
766.67	236.65
767.00	236.53
767.32	236.50
767.65	236.46
767.97	236.35
768.30	236.25
768.62	236.14
768.95	236.05
769.27	235.97
769.60	235.87
769.92	235.78
770.25	235.70
770.57	235.56
770.90	235.49
771.22	235.39
771.55	235.32
771.87	235.22
772.20	235.10
772.52	235.07
772.85	235.12
773.17	235.00
773.50	234.94
773.82	234.85
774.15	234.69
774.47	234.53
774.80	234.44
775.12	234.36
775.45	234.29
775.77	234.21
776.09	234.13
776.42	234.07
776.74	234.00
777.07	233.94
777.39	233.84
777.72	233.75
778.04	233.71
778.36	233.67
778.69	233.60
779.01	233.58
779.33	233.43
779.66	233.26
779.98	233.24
780.31	233.18
780.63	233.16
780.95	233.15
781.28	233.11
781.60	233.03
781.92	233.00
782.25	232.96
782.57	232.91
782.89	232.83
783.22	232.76
783.54	232.71
783.86	232.65
784.19	232.62
784.51	232.61
784.83	232.54
785.16	232.46
785.48	232.44
785.80	232.38
786.12	232.35
786.45	232.33
786.77	232.27
787.09	232.22
787.42	232.14
787.74	232.08
788.06	232.05
788.38	232.01
788.71	231.97
789.03	231.94
789.35	231.93
789.67	231.86
789.99	231.84
790.32	231.77
790.64	231.74
790.96	231.77
791.28	231.70
791.61	231.68
791.93	231.65
792.25	231.61
792.57	231.66
792.89	231.59
793.21	231.56
793.54	231.50
793.86	231.46
794.18	231.41
794.50	231.37
794.82	231.29
795.14	231.25
795.47	231.21
795.79	231.14
796.11	231.05
796.43	231.00
796.75	230.94
797.07	230.91
797.39	230.84
797.71	230.74
798.04	230.70
798.36	230.65
798.68	230.62
799.00	230.57
799.32	230.44
799.64	230.41
799.96	230.35
800.28	230.34
800.60	230.28
800.92	230.23
801.24	230.17
801.56	230.14
801.89	230.12
802.21	230.09
802.53	230.02
802.85	229.99
803.17	230.04
803.49	229.97
803.81	229.94
804.13	229.92
804.45	229.86
804.77	229.81
805.09	229.80
805.41	229.72
805.73	229.68
806.05	229.67
806.37	229.65
806.69	229.60
807.01	229.55
807.33	229.53
807.65	229.49
807.97	229.50
808.28	229.50
808.60	229.44
808.92	229.42
809.24	229.51
809.56	229.48
809.88	229.38
810.20	229.38
810.52	229.38
810.84	229.37
811.16	229.33
811.48	229.30
811.80	229.28
812.12	229.27
812.43	229.26
812.75	229.22
813.07	229.18
813.39	229.16
813.71	229.15
814.03	229.12
814.35	229.11
814.67	229.04
814.98	228.98
815.30	228.98
815.62	228.94
815.94	228.83
816.26	228.87
816.58	228.85
816.89	228.83
817.21	228.81
817.53	228.79
817.85	228.80
818.17	228.80
818.48	228.76
818.80	228.76
819.12	228.72
819.44	228.70
819.76	228.69
820.07	228.72
820.39	228.71
820.71	228.71
821.03	228.73
821.34	228.74
821.66	228.76
821.98	228.78
822.30	228.77
822.61	228.83
822.93	228.77
823.25	228.81
823.57	228.80
823.88	228.84
824.20	228.82
824.52	228.82
824.83	228.83
825.15	228.83
825.47	228.86
825.79	228.89
826.10	228.88
826.42	228.89
826.74	228.81
827.05	228.84
827.37	228.80
827.69	228.76
828.00	228.74
828.32	228.73
828.64	228.72
828.95	228.77
829.27	228.71
829.58	228.71
829.90	228.70
830.22	228.70
830.53	228.64
830.85	228.65
831.17	228.62
831.48	228.58
831.80	228.58
832.11	228.54
832.43	228.53
832.75	228.52
833.06	228.59
833.38	228.60
833.69	228.55
834.01	228.60
834.32	228.60
834.64	228.59
834.96	228.60
835.27	228.56
835.59	228.49
835.90	228.44
836.22	228.42
836.53	228.42
836.85	228.38
837.16	228.46
837.48	228.42
837.79	228.46
838.11	228.48
838.42	228.48
838.74	228.47
839.05	228.41
839.37	228.39
839.68	228.31
840.00	228.29
840.31	228.30
840.63	228.26
840.94	228.23
841.26	228.20
841.57	228.17
841.88	228.18
842.20	228.18
842.51	228.17
842.83	228.14
843.14	228.18
843.46	228.17
843.77	228.11
844.08	228.07
844.40	228.01
844.71	227.99
845.03	227.93
845.34	227.90
845.65	227.93
845.97	227.93
846.28	227.90
846.60	227.91
846.91	227.89
847.22	227.88
847.54	227.91
847.85	227.92
848.16	227.91
848.48	227.90
848.79	227.92
849.10	227.91
849.42	227.91
849.73	227.80
850.04	227.81
850.36	227.76
850.67	227.82
850.98	227.83
851.30	227.82
851.61	227.82
851.92	227.82
852.23	227.84
852.55	227.84
852.86	227.84
853.17	227.86
853.49	227.89
853.80	227.92
854.11	227.90
854.42	227.92
854.74	227.94
855.05	227.91
855.36	227.88
855.67	227.90
855.99	227.92
856.30	228.02
856.61	228.03
856.92	228.04
857.23	228.01
857.55	227.99
857.86	228.01
858.17	228.06
858.48	228.05
858.79	228.03
859.11	228.02
859.42	228.02
859.73	227.96
860.04	227.98
860.35	227.93
860.66	227.94
860.98	227.92
861.29	227.90
861.60	227.91
861.91	227.94
862.22	227.94
862.53	227.93
862.84	227.85
863.16	227.86
863.47	227.83
863.78	227.84
864.09	227.86
864.40	227.84
864.71	227.83
865.02	227.82
865.33	227.79
865.64	227.76
865.95	227.75
866.27	227.88
866.58	227.84
866.89	227.85
867.20	227.84
867.51	227.81
867.82	227.83
868.13	227.89
868.44	227.85
868.75	227.84
869.06	227.86
869.37	227.88
869.68	227.87
869.99	227.91
870.30	227.90
870.61	227.89
870.92	227.87
871.23	227.87
871.54	227.88
871.85	227.91
872.16	227.95
872.47	227.96
872.78	227.85
873.09	227.86
873.40	227.84
873.71	227.82
874.02	227.84
874.33	227.80
874.64	227.75
874.95	227.75
875.26	227.71
875.56	227.69
875.87	227.65
876.18	227.64
876.49	227.71
876.80	227.70
877.11	227.69
877.42	227.67
877.73	227.65
878.04	227.62
878.35	227.60
878.66	227.58
878.96	227.58
879.27	227.56
879.58	227.55
879.89	227.56
880.20	227.56
880.51	227.54
880.82	227.53
881.12	227.55
881.43	227.55
881.74	227.57
882.05	227.57
882.36	227.58
882.67	227.56
882.97	227.45
883.28	227.45
883.59	227.45
883.90	227.48
884.21	227.45
884.51	227.44
884.82	227.45
885.13	227.42
885.44	227.40
885.74	227.43
886.05	227.42
886.36	227.40
886.67	227.37
886.98	227.41
887.28	227.40
887.59	227.37
887.90	227.35
888.20	227.31
888.51	227.28
888.82	227.26
889.13	227.28
889.43	227.32
889.74	227.30
890.05	227.27
890.35	227.26
890.66	227.27
890.97	227.26
891.28	227.23
891.58	227.26
891.89	227.23
892.20	227.18
892.50	227.21
892.81	227.20
893.12	227.20
893.42	227.13
893.73	227.15
894.04	227.15
894.34	227.17
894.65	227.20
894.95	227.20
895.26	227.22
895.57	227.25
895.87	227.19
896.18	227.22
896.48	227.22
896.79	227.22
897.10	227.24
897.40	227.27
897.71	227.29
898.01	227.28
898.32	227.37
898.63	227.40
898.93	227.40
899.24	227.44
899.54	227.43
899.85	227.47
900.15	227.50
900.46	227.51
900.76	227.51
901.07	227.50
901.38	227.53
901.68	227.57
901.99	227.53
902.29	227.51
902.60	227.49
902.90	227.52
903.21	227.53
903.51	227.52
903.82	227.53
904.12	227.53
904.43	227.56
904.73	227.54
905.03	227.56
905.34	227.65
905.64	227.64
905.95	227.68
906.25	227.69
906.56	227.67
906.86	227.69
907.17	227.72
907.47	227.76
907.77	227.76
908.08	227.73
908.38	227.74
908.69	227.77
908.99	227.82
909.30	227.82
909.60	227.78
909.90	227.81
910.21	227.79
910.51	227.78
910.81	227.77
911.12	227.75
911.42	227.73
911.73	227.62
912.03	227.64
912.33	227.64
912.64	227.62
912.94	227.61
913.24	227.57
913.55	227.52
913.85	227.49
914.15	227.51
914.46	227.49
914.76	227.47
915.06	227.44
915.37	227.41
915.67	227.39
915.97	227.43
916.27	227.39
916.58	227.37
916.88	227.37
917.18	227.34
917.49	227.38
917.79	227.36
918.09	227.37
918.39	227.35
918.70	227.31
919.00	227.29
919.30	227.35
919.60	227.32
919.91	227.30
920.21	227.28
920.51	227.24
920.81	227.21
921.12	227.22
921.42	227.21
921.72	227.20
922.02	227.20
922.32	227.18
922.63	227.16
922.93	227.20
923.23	227.19
923.53	227.17
923.83	227.13
924.13	227.15
924.44	227.10
924.74	227.12
925.04	227.14
925.34	227.13
925.64	227.06
925.94	227.05
926.24	227.11
926.55	227.08
926.85	227.07
927.15	227.08
927.45	227.08
927.75	227.10
928.05	227.06
928.35	227.03
928.65	227.04
928.95	227.08
929.26	227.03
929.56	227.05
929.86	227.07
930.16	227.07
930.46	227.07
930.76	227.12
931.06	227.04
931.36	227.02
931.66	227.06
931.96	227.07
932.26	227.11
932.56	227.07
932.86	227.10
933.16	227.12
933.46	227.10
933.76	227.08
934.06	227.10
934.36	227.19
934.66	227.23
934.96	227.21
935.26	227.21
935.56	227.26
935.86	227.25
936.16	227.26
936.46	227.22
936.76	227.23
937.06	227.19
937.36	227.23
937.66	227.24
937.96	227.22
938.26	227.24
938.56	227.22
938.86	227.26
939.16	227.26
939.46	227.29
939.76	227.35
940.06	227.38
940.35	227.35
940.65	227.30
940.95	227.33
941.25	227.37
941.55	227.39
941.85	227.37
942.15	227.40
942.45	227.41
942.75	227.42
943.04	227.42
943.34	227.42
943.64	227.43
943.94	227.43
944.24	227.44
944.54	227.42
944.84	227.41
945.13	227.39
945.43	227.42
945.73	227.43
946.03	227.42
946.33	227.39
946.62	227.38
946.92	227.36
947.22	227.35
947.52	227.32
947.82	227.32
948.11	227.32
948.41	227.31
948.71	227.30
949.01	227.30
949.31	227.30
949.60	227.34
949.90	227.34
950.20	227.35
950.50	227.34
950.79	227.32
951.09	227.36
951.39	227.35
951.69	227.34
951.98	227.32
952.28	227.31
952.58	227.31
952.87	227.33
953.17	227.31
953.47	227.29
953.76	227.27
954.06	227.22
954.36	227.20
954.66	227.17
954.95	227.19
955.25	227.19
955.55	227.20
955.84	227.19
956.14	227.17
956.44	227.18
956.73	227.15
957.03	227.18
957.32	227.17
957.62	227.13
957.92	227.12
958.21	227.11
958.51	227.18
958.81	227.21
959.10	227.17
959.40	227.20
959.69	227.22
959.99	227.22
960.29	227.20
960.58	227.16
960.88	227.19
961.17	227.13
961.47	227.11
961.76	227.10
962.06	227.07
962.36	227.09
962.65	227.09
962.95	227.10
963.24	227.08
963.54	227.06
963.83	227.08
964.13	227.05
964.42	227.02
964.72	226.95
965.01	226.91
965.31	226.93
965.60	226.89
965.90	226.94
966.19	226.92
966.49	226.94
966.78	226.95
967.08	226.96
967.37	226.99
967.67	226.99
967.96	227.00
968.26	226.98
968.55	226.98
968.85	226.97
969.14	226.96
969.43	226.98
969.73	226.99
970.02	227.00
970.32	227.03
970.61	227.02
970.91	227.01
971.20	227.02
971.49	227.00
971.79	227.03
972.08	226.94
972.38	226.95
972.67	226.99
972.96	227.03
973.26	227.01
973.55	227.06
973.85	227.05
974.14	227.05
974.43	227.09
974.73	227.10
975.02	227.09
975.31	227.12
975.61	227.13
975.90	227.12
976.19	227.15
976.49	227.15
976.78	227.20
977.07	227.17
977.37	227.21
977.66	227.27
977.95	227.29
978.24	227.35
978.54	227.38
978.83	227.38
979.12	227.36
979.42	227.36
979.71	227.34
980.00	227.37
980.29	227.39
980.59	227.38
980.88	227.40
981.17	227.39
981.46	227.39
981.76	227.42
982.05	227.46
982.34	227.46
982.63	227.46
982.93	227.43
983.22	227.52
983.51	227.49
983.80	227.49
984.09	227.47
984.39	227.47
984.68	227.45
984.97	227.46
985.26	227.46
985.55	227.49
985.85	227.48
986.14	227.44
986.43	227.46
986.72	227.44
987.01	227.39
987.30	227.42
987.59	227.39
987.89	227.35
988.18	227.29
988.47	227.25
988.76	227.24
989.05	227.26
989.34	227.20
989.63	227.24
989.92	227.22
990.22	227.20
990.51	227.17
990.80	227.16
991.09	227.13
991.38	227.14
991.67	227.10
991.96	227.08
992.25	227.10
992.54	227.08
992.83	227.06
993.12	227.07
993.41	227.03
993.70	227.08
993.99	227.09
994.28	227.10
994.58	227.13
994.87	227.12
995.16	227.06
995.45	227.03
995.74	226.97
996.03	226.98
996.32	226.98
996.61	226.98
996.90	226.95
997.19	226.95
997.48	226.93
997.77	226.92
998.06	226.90
998.34	226.90
998.63	226.87
998.92	226.89
999.21	226.90
999.50	226.87
999.79	226.84
1000.08	226.80
1000.37	226.79
1000.66	226.75
1000.95	226.76
1001.24	226.80
1001.53	226.80
1001.82	226.80
1002.11	226.76
1002.40	226.75
1002.68	226.79
1002.97	226.87
1003.26	226.88
1003.55	226.85
1003.84	226.86
1004.13	226.93
1004.42	226.91
1004.71	226.91
1004.99	226.86
1005.28	226.85
1005.57	226.86
1005.86	226.84
1006.15	226.89
1006.44	226.92
1006.72	226.94
1007.01	226.89
1007.30	226.88
1007.59	226.89
1007.88	226.87
1008.17	226.88
1008.45	226.90
1008.74	226.86
1009.03	226.82
1009.32	226.81
1009.60	226.84
1009.89	226.84
1010.18	226.77
1010.47	226.75
1010.76	226.75
1011.04	226.80
1011.33	226.85
1011.62	226.87
1011.91	226.87
1012.19	226.85
1012.48	226.83
1012.77	226.85
1013.05	226.93
1013.34	226.94
1013.63	226.95
1013.92	227.00
1014.20	227.01
1014.49	227.01
1014.78	227.03
1015.06	227.00
1015.35	227.03
1015.64	227.08
1015.92	227.11
1016.21	227.17
1016.50	227.22
1016.78	227.24
1017.07	227.23
1017.36	227.21
1017.64	227.27
1017.93	227.31
1018.22	227.33
1018.50	227.32
1018.79	227.31
1019.08	227.29
1019.36	227.29
1019.65	227.31
1019.93	227.34
1020.22	227.36
1020.51	227.41
1020.79	227.40
1021.08	227.25
1021.36	226.76
1021.65	227.16
1021.94	227.27
1022.22	227.12
1022.51	227.36
1022.79	227.85
1023.08	227.54
1023.36	228.25
1023.65	227.01
>>>>>End Processed Spectral Data<<<<<
