SpectraSuite Data File
++++++++++++++++++++++++++++++++++++
Date: Fri Feb 01 15:22:13 EST 2013
User: group
Dark Spectrum Present: No
Reference Spectrum Present: No
Number of Sampled Component Spectra: 1
Spectrometers: USB2E7196
Integration Time (usec): 35000 (USB2E7196)
Spectra Averaged: 100 (USB2E7196)
Boxcar Smoothing: 10 (USB2E7196)
Correct for Electrical Dark: No (USB2E7196)
Strobe/Lamp Enabled: No (USB2E7196)
Correct for Detector Non-linearity: No (USB2E7196)
Correct for Stray Light: No (USB2E7196)
Number of Pixels in Processed Spectrum: 2048
>>>>>Begin Processed Spectral Data<<<<<
339.09	0.00
339.48	215.46
339.86	216.49
340.24	218.07
340.63	220.41
341.01	222.25
341.39	222.35
341.78	223.43
342.16	224.95
342.54	225.38
342.93	213.70
343.31	224.49
343.69	225.03
344.07	225.50
344.46	225.94
344.84	226.28
345.22	226.58
345.60	226.83
345.99	227.01
346.37	227.14
346.75	227.23
347.13	227.29
347.52	227.34
347.90	227.39
348.28	227.42
348.66	227.46
349.05	227.45
349.43	227.48
349.81	227.49
350.19	227.55
350.57	227.59
350.96	227.68
351.34	227.77
351.72	227.86
352.10	227.95
352.48	227.99
352.87	228.05
353.25	228.05
353.63	228.10
354.01	228.19
354.39	228.26
354.77	228.33
355.15	228.42
355.54	228.48
355.92	228.51
356.30	228.60
356.68	228.76
357.06	228.82
357.44	228.84
357.82	228.91
358.20	228.97
358.58	229.04
358.97	229.08
359.35	229.13
359.73	229.19
360.11	229.22
360.49	229.30
360.87	229.32
361.25	229.35
361.63	229.43
362.01	229.45
362.39	229.46
362.77	229.48
363.15	229.49
363.53	229.51
363.91	229.54
364.29	229.53
364.67	229.43
365.05	229.43
365.43	229.43
365.81	229.42
366.19	229.42
366.57	229.45
366.95	229.43
367.33	229.40
367.71	229.36
368.09	229.35
368.47	229.32
368.85	229.32
369.23	229.31
369.61	229.22
369.99	229.22
370.37	229.20
370.75	229.24
371.13	229.19
371.51	229.10
371.89	229.06
372.27	229.01
372.65	228.95
373.03	228.89
373.41	228.83
373.78	228.76
374.16	228.69
374.54	228.58
374.92	228.53
375.30	228.47
375.68	228.41
376.06	228.35
376.44	228.26
376.82	228.19
377.19	228.09
377.57	228.04
377.95	227.93
378.33	227.83
378.71	227.67
379.09	227.58
379.47	227.55
379.84	227.49
380.22	227.43
380.60	227.34
380.98	227.29
381.36	227.26
381.73	227.20
382.11	227.16
382.49	227.10
382.87	227.02
383.25	226.96
383.62	227.01
384.00	226.95
384.38	226.90
384.76	226.83
385.13	226.81
385.51	226.74
385.89	226.69
386.27	226.63
386.64	226.58
387.02	226.56
387.40	226.49
387.78	226.45
388.15	226.42
388.53	226.41
388.91	226.37
389.29	226.31
389.66	226.30
390.04	226.26
390.42	226.29
390.79	226.29
391.17	226.27
391.55	226.15
391.92	226.14
392.30	226.16
392.68	226.18
393.05	226.19
393.43	226.24
393.81	226.26
394.18	226.30
394.56	226.32
394.94	226.40
395.31	226.40
395.69	226.47
396.06	226.50
396.44	226.51
396.82	226.55
397.19	226.66
397.57	226.71
397.95	226.77
398.32	226.77
398.70	226.84
399.07	226.92
399.45	226.96
399.82	227.04
400.20	227.11
400.58	227.21
400.95	227.28
401.33	227.37
401.70	227.50
402.08	227.56
402.45	227.71
402.83	227.82
403.20	227.95
403.58	228.03
403.95	228.16
404.33	228.30
404.71	228.46
405.08	228.62
405.46	228.73
405.83	228.90
406.21	229.05
406.58	229.22
406.96	229.40
407.33	229.61
407.70	229.80
408.08	230.07
408.45	230.28
408.83	230.54
409.20	230.74
409.58	230.96
409.95	231.25
410.33	231.49
410.70	231.77
411.08	232.08
411.45	232.39
411.82	232.71
412.20	233.08
412.57	233.49
412.95	233.79
413.32	234.22
413.69	234.61
414.07	235.07
414.44	235.52
414.82	236.00
415.19	236.56
415.56	237.11
415.94	237.67
416.31	238.29
416.68	238.89
417.06	239.63
417.43	240.30
417.81	241.11
418.18	241.90
418.55	242.72
418.93	243.62
419.30	244.54
419.67	245.47
420.04	246.42
420.42	247.42
420.79	248.58
421.16	249.70
421.54	250.92
421.91	252.17
422.28	253.45
422.66	254.77
423.03	256.04
423.40	257.38
423.77	258.77
424.15	260.19
424.52	261.67
424.89	263.25
425.26	264.83
425.64	266.23
426.01	267.83
426.38	269.51
426.75	271.17
427.13	272.88
427.50	274.70
427.87	276.58
428.24	278.46
428.61	280.25
428.99	282.23
429.36	284.35
429.73	286.38
430.10	288.39
430.47	290.45
430.85	292.60
431.22	294.86
431.59	297.27
431.96	299.56
432.33	302.08
432.70	304.46
433.08	307.27
433.45	309.95
433.82	312.55
434.19	315.42
434.56	318.22
434.93	320.89
435.30	323.52
435.68	326.41
436.05	329.25
436.42	332.04
436.79	334.54
437.16	337.24
437.53	340.10
437.90	342.91
438.27	345.66
438.64	348.47
439.01	351.07
439.38	353.25
439.75	355.42
440.13	357.89
440.50	360.26
440.87	362.07
441.24	364.01
441.61	366.15
441.98	367.64
442.35	369.44
442.72	371.31
443.09	373.09
443.46	374.05
443.83	374.60
444.20	375.10
444.57	375.95
444.94	376.22
445.31	376.57
445.68	376.92
446.05	376.99
446.42	376.62
446.79	376.19
447.16	375.73
447.53	375.42
447.90	374.26
448.27	373.08
448.64	371.52
449.01	370.36
449.37	368.41
449.74	366.50
450.11	364.23
450.48	361.73
450.85	359.21
451.22	357.11
451.59	355.10
451.96	353.16
452.33	350.51
452.70	348.16
453.07	345.24
453.43	342.31
453.80	339.53
454.17	336.84
454.54	334.26
454.91	331.53
455.28	328.79
455.65	326.26
456.02	323.80
456.38	321.62
456.75	318.94
457.12	316.64
457.49	314.42
457.86	312.27
458.23	310.40
458.59	308.36
458.96	306.26
459.33	304.38
459.70	302.51
460.07	301.01
460.43	299.29
460.80	297.71
461.17	296.31
461.54	294.83
461.91	293.39
462.27	291.93
462.64	290.70
463.01	289.36
463.38	288.08
463.74	286.70
464.11	285.53
464.48	284.50
464.85	283.40
465.21	282.53
465.58	281.60
465.95	280.50
466.32	279.59
466.68	278.67
467.05	277.79
467.42	276.88
467.78	276.00
468.15	275.08
468.52	274.40
468.88	273.53
469.25	272.74
469.62	272.14
469.98	271.49
470.35	270.85
470.72	270.24
471.08	269.57
471.45	269.07
471.82	268.53
472.18	267.94
472.55	267.53
472.92	267.00
473.28	266.56
473.65	266.12
474.02	265.67
474.38	265.29
474.75	264.95
475.11	264.60
475.48	264.31
475.85	264.10
476.21	263.87
476.58	263.68
476.94	263.55
477.31	263.35
477.67	263.23
478.04	263.15
478.41	263.12
478.77	263.17
479.14	263.04
479.50	263.07
479.87	263.14
480.23	263.18
480.60	263.24
480.96	263.37
481.33	263.54
481.69	263.74
482.06	263.93
482.42	264.15
482.79	264.42
483.15	264.73
483.52	265.12
483.88	265.47
484.25	265.87
484.61	266.31
484.98	266.76
485.34	267.32
485.71	267.90
486.07	268.54
486.44	269.10
486.80	269.80
487.17	270.51
487.53	271.36
487.90	272.20
488.26	273.10
488.62	274.04
488.99	275.06
489.35	276.11
489.72	277.27
490.08	278.49
490.44	279.69
490.81	281.05
491.17	282.39
491.54	283.87
491.90	285.38
492.26	286.98
492.63	288.69
492.99	290.44
493.36	292.29
493.72	294.27
494.08	296.38
494.45	298.67
494.81	301.03
495.17	303.47
495.54	306.05
495.90	308.77
496.26	311.55
496.63	314.45
496.99	317.55
497.35	320.85
497.72	324.21
498.08	327.72
498.44	331.38
498.80	335.27
499.17	339.29
499.53	343.48
499.89	347.90
500.26	352.44
500.62	357.11
500.98	362.07
501.34	367.19
501.71	372.46
502.07	377.87
502.43	383.48
502.79	389.26
503.16	395.34
503.52	401.58
503.88	408.01
504.24	414.67
504.60	421.56
504.97	428.63
505.33	435.97
505.69	443.72
506.05	451.51
506.41	459.50
506.78	467.66
507.14	476.09
507.50	484.72
507.86	493.71
508.22	502.97
508.59	512.26
508.95	521.85
509.31	531.72
509.67	541.85
510.03	552.10
510.39	562.59
510.75	573.38
511.12	584.32
511.48	595.59
511.84	607.06
512.20	618.56
512.56	630.53
512.92	642.73
513.28	655.01
513.64	667.49
514.00	680.13
514.37	693.08
514.73	706.21
515.09	719.40
515.45	732.72
515.81	746.22
516.17	760.14
516.53	774.25
516.89	788.43
517.25	802.58
517.61	817.16
517.97	831.79
518.33	846.33
518.69	861.21
519.05	876.32
519.41	891.57
519.77	907.18
520.13	922.70
520.49	938.13
520.85	953.64
521.21	969.42
521.57	985.66
521.93	1001.47
522.29	1018.00
522.65	1034.25
523.01	1050.57
523.37	1066.63
523.73	1082.85
524.09	1098.99
524.45	1115.40
524.81	1132.16
525.17	1148.96
525.53	1165.76
525.89	1182.55
526.25	1199.43
526.61	1215.80
526.97	1232.64
527.33	1249.12
527.68	1265.65
528.04	1282.20
528.40	1298.85
528.76	1315.95
529.12	1332.63
529.48	1349.54
529.84	1365.51
530.20	1382.18
530.56	1399.27
530.91	1416.72
531.27	1433.62
531.63	1450.09
531.99	1466.65
532.35	1482.65
532.71	1498.57
533.07	1514.97
533.42	1530.95
533.78	1547.00
534.14	1563.41
534.50	1578.69
534.86	1594.72
535.21	1609.99
535.57	1625.93
535.93	1641.40
536.29	1656.40
536.65	1671.58
537.00	1686.51
537.36	1701.97
537.72	1716.56
538.08	1731.04
538.44	1745.02
538.79	1759.00
539.15	1772.90
539.51	1786.68
539.87	1801.09
540.22	1814.95
540.58	1828.89
540.94	1842.45
541.29	1855.48
541.65	1868.14
542.01	1881.66
542.37	1894.07
542.72	1906.54
543.08	1918.30
543.44	1930.85
543.79	1941.97
544.15	1952.98
544.51	1964.51
544.87	1975.48
545.22	1986.24
545.58	1996.52
545.94	2006.24
546.29	2016.03
546.65	2025.83
547.01	2035.24
547.36	2044.04
547.72	2052.47
548.07	2060.15
548.43	2068.35
548.79	2076.38
549.14	2084.01
549.50	2091.25
549.86	2098.89
550.21	2106.27
550.57	2113.53
550.92	2120.19
551.28	2127.20
551.64	2134.29
551.99	2140.93
552.35	2147.06
552.70	2153.35
553.06	2159.31
553.41	2165.74
553.77	2171.74
554.13	2177.93
554.48	2184.03
554.84	2189.40
555.19	2194.78
555.55	2200.01
555.90	2204.43
556.26	2209.20
556.61	2213.98
556.97	2218.15
557.32	2222.31
557.68	2226.48
558.03	2230.82
558.39	2234.49
558.74	2239.27
559.10	2243.05
559.45	2246.58
559.81	2250.86
560.16	2254.65
560.52	2257.92
560.87	2261.32
561.23	2264.14
561.58	2267.01
561.94	2269.54
562.29	2271.97
562.64	2274.69
563.00	2277.35
563.35	2280.75
563.71	2283.98
564.06	2287.15
564.42	2289.98
564.77	2292.49
565.12	2294.60
565.48	2296.27
565.83	2298.18
566.19	2299.26
566.54	2300.38
566.89	2301.57
567.25	2302.08
567.60	2303.37
567.96	2304.97
568.31	2305.83
568.66	2306.88
569.02	2307.38
569.37	2307.61
569.72	2308.36
570.08	2308.34
570.43	2308.36
570.78	2307.68
571.14	2306.16
571.49	2304.63
571.84	2304.31
572.20	2302.84
572.55	2301.84
572.90	2300.30
573.26	2298.79
573.61	2297.10
573.96	2295.07
574.31	2291.99
574.67	2288.89
575.02	2285.12
575.37	2281.66
575.72	2277.59
576.08	2274.15
576.43	2270.83
576.78	2267.07
577.13	2263.93
577.49	2260.86
577.84	2257.07
578.19	2253.30
578.54	2249.43
578.90	2245.09
579.25	2239.44
579.60	2234.65
579.95	2229.56
580.30	2224.66
580.66	2219.31
581.01	2214.47
581.36	2209.42
581.71	2205.18
582.06	2200.74
582.42	2196.16
582.77	2190.77
583.12	2186.10
583.47	2181.22
583.82	2175.95
584.17	2170.52
584.53	2164.82
584.88	2159.02
585.23	2153.19
585.58	2147.71
585.93	2142.24
586.28	2137.60
586.63	2132.36
586.98	2127.16
587.34	2122.47
587.69	2117.40
588.04	2112.11
588.39	2106.09
588.74	2099.58
589.09	2093.32
589.44	2086.38
589.79	2080.36
590.14	2074.63
590.49	2068.12
590.84	2061.59
591.19	2055.54
591.54	2049.10
591.89	2041.58
592.25	2034.68
592.60	2027.43
592.95	2019.65
593.30	2012.17
593.65	2004.31
594.00	1997.28
594.35	1990.04
594.70	1981.81
595.05	1974.37
595.40	1966.95
595.75	1959.53
596.10	1953.26
596.45	1946.39
596.80	1940.02
597.15	1933.22
597.50	1925.95
597.85	1919.46
598.19	1912.76
598.54	1905.71
598.89	1899.02
599.24	1893.27
599.59	1886.53
599.94	1880.40
600.29	1874.15
600.64	1867.53
600.99	1860.09
601.34	1853.21
601.69	1846.17
602.04	1839.24
602.39	1832.00
602.74	1825.20
603.08	1818.40
603.43	1811.60
603.78	1804.27
604.13	1797.18
604.48	1789.84
604.83	1783.11
605.18	1775.91
605.53	1767.92
605.87	1759.90
606.22	1752.61
606.57	1744.46
606.92	1737.15
607.27	1729.95
607.62	1722.94
607.96	1715.61
608.31	1708.96
608.66	1701.29
609.01	1693.60
609.36	1686.02
609.70	1677.95
610.05	1669.83
610.40	1662.06
610.75	1653.74
611.10	1646.11
611.44	1637.69
611.79	1629.78
612.14	1620.99
612.49	1611.98
612.83	1603.60
613.18	1595.43
613.53	1587.42
613.88	1578.93
614.22	1570.68
614.57	1562.04
614.92	1553.93
615.27	1546.32
615.61	1538.10
615.96	1530.09
616.31	1522.63
616.65	1515.21
617.00	1507.61
617.35	1500.03
617.70	1491.71
618.04	1483.07
618.39	1474.77
618.74	1467.17
619.08	1458.86
619.43	1451.32
619.78	1444.37
620.12	1437.13
620.47	1429.57
620.82	1421.34
621.16	1413.90
621.51	1406.26
621.85	1398.53
622.20	1390.08
622.55	1381.76
622.89	1373.88
623.24	1366.24
623.59	1358.80
623.93	1351.31
624.28	1344.09
624.62	1336.43
624.97	1329.30
625.32	1322.71
625.66	1315.72
626.01	1308.48
626.35	1301.01
626.70	1293.17
627.04	1285.41
627.39	1277.68
627.73	1270.27
628.08	1263.34
628.43	1256.04
628.77	1248.72
629.12	1241.15
629.46	1233.96
629.81	1226.61
630.15	1219.29
630.50	1211.90
630.84	1203.56
631.19	1195.76
631.53	1188.21
631.88	1180.73
632.22	1173.05
632.57	1165.74
632.91	1158.25
633.26	1150.85
633.60	1143.53
633.95	1136.63
634.29	1129.70
634.64	1123.04
634.98	1115.67
635.32	1108.52
635.67	1102.00
636.01	1095.30
636.36	1088.61
636.70	1082.16
637.05	1075.66
637.39	1069.30
637.73	1062.71
638.08	1056.86
638.42	1050.83
638.77	1044.45
639.11	1037.83
639.45	1031.56
639.80	1024.85
640.14	1018.39
640.49	1011.90
640.83	1005.64
641.17	999.37
641.52	992.98
641.86	986.56
642.20	980.67
642.55	974.44
642.89	967.85
643.23	961.30
643.58	955.47
643.92	949.23
644.26	943.08
644.61	937.10
644.95	931.20
645.29	924.59
645.64	917.87
645.98	911.64
646.32	905.83
646.66	899.69
647.01	893.94
647.35	888.27
647.69	882.49
648.04	876.91
648.38	871.07
648.72	865.08
649.06	859.05
649.41	853.25
649.75	847.17
650.09	841.28
650.43	835.55
650.78	829.39
651.12	823.45
651.46	817.76
651.80	811.86
652.14	806.43
652.49	801.15
652.83	795.91
653.17	790.17
653.51	784.45
653.85	779.15
654.20	773.50
654.54	767.53
654.88	761.78
655.22	755.86
655.56	750.24
655.90	744.73
656.25	739.50
656.59	734.07
656.93	729.02
657.27	723.90
657.61	718.47
657.95	713.43
658.29	708.35
658.64	703.07
658.98	697.86
659.32	692.43
659.66	687.18
660.00	681.84
660.34	676.87
660.68	671.96
661.02	666.91
661.36	662.12
661.70	657.57
662.05	653.18
662.39	648.90
662.73	644.42
663.07	640.11
663.41	635.62
663.75	631.17
664.09	626.66
664.43	622.26
664.77	618.17
665.11	613.86
665.45	609.75
665.79	605.68
666.13	601.56
666.47	597.45
666.81	593.31
667.15	589.25
667.49	585.36
667.83	581.59
668.17	577.62
668.51	573.63
668.85	569.68
669.19	565.88
669.53	562.02
669.87	558.10
670.21	554.43
670.55	550.83
670.89	547.37
671.23	543.96
671.57	540.47
671.91	536.93
672.25	533.51
672.58	529.98
672.92	526.61
673.26	523.45
673.60	520.34
673.94	517.22
674.28	514.37
674.62	511.47
674.96	508.37
675.30	505.53
675.64	502.63
675.97	499.84
676.31	496.98
676.65	494.14
676.99	491.51
677.33	488.68
677.67	485.85
678.01	482.87
678.34	479.84
678.68	477.02
679.02	474.20
679.36	471.43
679.70	468.75
680.04	465.97
680.37	463.12
680.71	460.31
681.05	457.73
681.39	455.00
681.73	452.38
682.06	449.83
682.40	447.25
682.74	444.74
683.08	442.23
683.42	439.66
683.75	437.19
684.09	434.65
684.43	432.15
684.77	429.70
685.10	427.39
685.44	425.12
685.78	422.78
686.12	420.56
686.45	418.25
686.79	415.93
687.13	413.77
687.46	411.62
687.80	409.48
688.14	407.34
688.48	405.27
688.81	403.00
689.15	400.86
689.49	398.74
689.82	396.65
690.16	394.56
690.50	392.62
690.83	390.61
691.17	388.64
691.51	386.76
691.84	384.92
692.18	383.00
692.52	381.04
692.85	379.17
693.19	377.26
693.52	375.44
693.86	373.64
694.20	371.81
694.53	370.00
694.87	368.14
695.21	366.31
695.54	364.49
695.88	362.73
696.21	361.05
696.55	359.38
696.88	357.74
697.22	356.10
697.56	354.42
697.89	352.74
698.23	351.10
698.56	349.49
698.90	347.92
699.23	346.27
699.57	344.68
699.90	343.10
700.24	341.60
700.58	340.04
700.91	338.52
701.25	337.10
701.58	335.70
701.92	334.36
702.25	332.96
702.59	331.62
702.92	330.33
703.26	328.97
703.59	327.68
703.93	326.47
704.26	325.25
704.60	323.98
704.93	322.74
705.26	321.50
705.60	320.32
705.93	319.14
706.27	318.10
706.60	317.06
706.94	315.99
707.27	314.83
707.61	313.78
707.94	312.79
708.27	311.71
708.61	310.65
708.94	309.62
709.28	308.68
709.61	307.68
709.94	306.75
710.28	305.75
710.61	304.76
710.95	303.71
711.28	302.76
711.61	301.81
711.95	300.89
712.28	299.94
712.61	299.02
712.95	298.10
713.28	297.20
713.61	296.27
713.95	295.39
714.28	294.57
714.61	293.75
714.95	292.93
715.28	292.08
715.61	291.20
715.95	290.39
716.28	289.53
716.61	288.75
716.95	287.95
717.28	287.22
717.61	286.46
717.94	285.70
718.28	284.90
718.61	284.20
718.94	283.53
719.27	282.87
719.61	282.19
719.94	281.54
720.27	280.83
720.60	280.23
720.94	279.59
721.27	279.00
721.60	278.42
721.93	277.80
722.27	277.27
722.60	276.74
722.93	276.17
723.26	275.63
723.59	275.02
723.93	274.45
724.26	273.93
724.59	273.37
724.92	272.88
725.25	272.39
725.59	271.86
725.92	271.35
726.25	270.85
726.58	270.35
726.91	269.85
727.24	269.38
727.57	268.91
727.91	268.44
728.24	267.95
728.57	267.45
728.90	267.01
729.23	266.48
729.56	266.05
729.89	265.57
730.22	265.10
730.55	264.64
730.89	264.17
731.22	263.72
731.55	263.32
731.88	262.89
732.21	262.46
732.54	262.05
732.87	261.63
733.20	261.25
733.53	260.86
733.86	260.48
734.19	260.08
734.52	259.68
734.85	259.33
735.18	258.91
735.51	258.57
735.84	258.17
736.17	257.84
736.50	257.41
736.83	257.18
737.16	256.83
737.49	256.52
737.82	256.18
738.15	255.83
738.48	255.45
738.81	255.06
739.14	254.74
739.47	254.39
739.80	254.03
740.13	253.69
740.46	253.35
740.79	253.00
741.12	252.69
741.45	252.38
741.78	252.01
742.11	251.73
742.44	251.42
742.77	251.13
743.10	250.82
743.43	250.52
743.75	250.12
744.08	249.96
744.41	249.65
744.74	249.40
745.07	249.10
745.40	248.88
745.73	248.70
746.06	248.43
746.39	248.18
746.71	247.98
747.04	247.72
747.37	247.47
747.70	247.24
748.03	246.96
748.36	246.78
748.68	246.58
749.01	246.34
749.34	246.13
749.67	245.90
750.00	245.68
750.33	245.52
750.65	245.32
750.98	245.00
751.31	244.82
751.64	244.58
751.97	244.45
752.29	244.22
752.62	243.94
752.95	243.74
753.28	243.53
753.60	243.29
753.93	243.14
754.26	242.99
754.59	242.77
754.91	242.56
755.24	242.33
755.57	242.10
755.90	241.93
756.22	241.72
756.55	241.53
756.88	241.33
757.20	241.12
757.53	240.89
757.86	240.70
758.19	240.53
758.51	240.39
758.84	240.19
759.17	240.04
759.49	239.94
759.82	239.80
760.15	239.67
760.47	239.53
760.80	239.35
761.13	239.19
761.45	239.07
761.78	238.92
762.11	238.82
762.43	238.70
762.76	238.56
763.08	238.46
763.41	238.31
763.74	238.18
764.06	238.07
764.39	237.97
764.71	237.84
765.04	237.71
765.37	237.55
765.69	237.40
766.02	237.27
766.34	237.10
766.67	236.97
767.00	236.86
767.32	236.81
767.65	236.74
767.97	236.62
768.30	236.51
768.62	236.38
768.95	236.21
769.27	236.08
769.60	235.98
769.92	235.84
770.25	235.74
770.57	235.62
770.90	235.48
771.22	235.37
771.55	235.28
771.87	235.19
772.20	235.11
772.52	235.10
772.85	235.10
773.17	234.98
773.50	234.84
773.82	234.71
774.15	234.55
774.47	234.37
774.80	234.28
775.12	234.19
775.45	234.10
775.77	234.02
776.09	233.96
776.42	233.88
776.74	233.79
777.07	233.71
777.39	233.63
777.72	233.56
778.04	233.48
778.36	233.41
778.69	233.33
779.01	233.29
779.33	233.12
779.66	232.96
779.98	232.92
780.31	232.91
780.63	232.92
780.95	232.89
781.28	232.85
781.60	232.77
781.92	232.72
782.25	232.69
782.57	232.62
782.89	232.56
783.22	232.47
783.54	232.45
783.86	232.41
784.19	232.34
784.51	232.32
784.83	232.29
785.16	232.23
785.48	232.17
785.80	232.11
786.12	232.09
786.45	232.03
786.77	231.99
787.09	231.88
787.42	231.77
787.74	231.71
788.06	231.68
788.38	231.61
788.71	231.56
789.03	231.55
789.35	231.50
789.67	231.45
789.99	231.43
790.32	231.34
790.64	231.32
790.96	231.37
791.28	231.33
791.61	231.28
791.93	231.28
792.25	231.23
792.57	231.25
792.89	231.17
793.21	231.15
793.54	231.14
793.86	231.12
794.18	231.12
794.50	231.09
794.82	231.09
795.14	231.07
795.47	231.03
795.79	230.98
796.11	230.98
796.43	230.97
796.75	230.94
797.07	230.92
797.39	230.89
797.71	230.80
798.04	230.74
798.36	230.68
798.68	230.57
799.00	230.56
799.32	230.49
799.64	230.48
799.96	230.45
800.28	230.42
800.60	230.37
800.92	230.31
801.24	230.24
801.56	230.21
801.89	230.18
802.21	230.15
802.53	230.11
802.85	230.05
803.17	230.06
803.49	229.97
803.81	229.94
804.13	229.87
804.45	229.81
804.77	229.78
805.09	229.80
805.41	229.82
805.73	229.74
806.05	229.68
806.37	229.61
806.69	229.55
807.01	229.50
807.33	229.52
807.65	229.46
807.97	229.48
808.28	229.43
808.60	229.41
808.92	229.38
809.24	229.39
809.56	229.36
809.88	229.32
810.20	229.34
810.52	229.32
810.84	229.30
811.16	229.29
811.48	229.27
811.80	229.25
812.12	229.22
812.43	229.24
812.75	229.22
813.07	229.22
813.39	229.24
813.71	229.20
814.03	229.14
814.35	229.13
814.67	229.09
814.98	229.06
815.30	229.02
815.62	228.99
815.94	228.94
816.26	228.98
816.58	228.91
816.89	228.90
817.21	228.89
817.53	228.87
817.85	228.86
818.17	228.83
818.48	228.79
818.80	228.82
819.12	228.79
819.44	228.77
819.76	228.74
820.07	228.68
820.39	228.67
820.71	228.64
821.03	228.64
821.34	228.61
821.66	228.59
821.98	228.56
822.30	228.53
822.61	228.56
822.93	228.50
823.25	228.51
823.57	228.48
823.88	228.46
824.20	228.46
824.52	228.44
824.83	228.46
825.15	228.43
825.47	228.39
825.79	228.39
826.10	228.39
826.42	228.37
826.74	228.38
827.05	228.37
827.37	228.40
827.69	228.37
828.00	228.37
828.32	228.35
828.64	228.37
828.95	228.40
829.27	228.35
829.58	228.35
829.90	228.32
830.22	228.30
830.53	228.32
830.85	228.31
831.17	228.28
831.48	228.25
831.80	228.26
832.11	228.23
832.43	228.18
832.75	228.16
833.06	228.18
833.38	228.17
833.69	228.18
834.01	228.15
834.32	228.16
834.64	228.13
834.96	228.14
835.27	228.11
835.59	228.07
835.90	228.02
836.22	228.00
836.53	227.98
836.85	227.97
837.16	228.05
837.48	228.01
837.79	228.03
838.11	228.01
838.42	227.96
838.74	227.98
839.05	227.98
839.37	227.97
839.68	227.93
840.00	227.91
840.31	227.88
840.63	227.90
840.94	227.86
841.26	227.86
841.57	227.86
841.88	227.86
842.20	227.85
842.51	227.87
842.83	227.89
843.14	227.97
843.46	227.97
843.77	227.88
844.08	227.89
844.40	227.89
844.71	227.86
845.03	227.87
845.34	227.86
845.65	227.82
845.97	227.83
846.28	227.84
846.60	227.84
846.91	227.81
847.22	227.78
847.54	227.82
847.85	227.83
848.16	227.83
848.48	227.82
848.79	227.85
849.10	227.86
849.42	227.86
849.73	227.79
850.04	227.79
850.36	227.76
850.67	227.78
850.98	227.76
851.30	227.75
851.61	227.74
851.92	227.76
852.23	227.79
852.55	227.79
852.86	227.80
853.17	227.82
853.49	227.84
853.80	227.88
854.11	227.87
854.42	227.89
854.74	227.85
855.05	227.87
855.36	227.80
855.67	227.80
855.99	227.77
856.30	227.88
856.61	227.89
856.92	227.90
857.23	227.89
857.55	227.88
857.86	227.90
858.17	227.93
858.48	227.87
858.79	227.89
859.11	227.91
859.42	227.87
859.73	227.85
860.04	227.84
860.35	227.79
860.66	227.75
860.98	227.70
861.29	227.74
861.60	227.73
861.91	227.77
862.22	227.75
862.53	227.77
862.84	227.64
863.16	227.68
863.47	227.66
863.78	227.66
864.09	227.65
864.40	227.66
864.71	227.66
865.02	227.69
865.33	227.65
865.64	227.63
865.95	227.65
866.27	227.70
866.58	227.66
866.89	227.68
867.20	227.70
867.51	227.70
867.82	227.71
868.13	227.73
868.44	227.69
868.75	227.72
869.06	227.72
869.37	227.74
869.68	227.68
869.99	227.69
870.30	227.70
870.61	227.73
870.92	227.71
871.23	227.73
871.54	227.73
871.85	227.76
872.16	227.77
872.47	227.76
872.78	227.70
873.09	227.75
873.40	227.76
873.71	227.75
874.02	227.75
874.33	227.75
874.64	227.72
874.95	227.74
875.26	227.69
875.56	227.67
875.87	227.66
876.18	227.67
876.49	227.74
876.80	227.71
877.11	227.71
877.42	227.71
877.73	227.66
878.04	227.65
878.35	227.67
878.66	227.65
878.96	227.66
879.27	227.65
879.58	227.62
879.89	227.61
880.20	227.63
880.51	227.62
880.82	227.64
881.12	227.64
881.43	227.60
881.74	227.62
882.05	227.62
882.36	227.61
882.67	227.61
882.97	227.53
883.28	227.49
883.59	227.46
883.90	227.45
884.21	227.47
884.51	227.45
884.82	227.40
885.13	227.40
885.44	227.37
885.74	227.41
886.05	227.38
886.36	227.41
886.67	227.40
886.98	227.45
887.28	227.44
887.59	227.43
887.90	227.42
888.20	227.41
888.51	227.40
888.82	227.38
889.13	227.39
889.43	227.44
889.74	227.46
890.05	227.46
890.35	227.46
890.66	227.44
890.97	227.44
891.28	227.47
891.58	227.48
891.89	227.47
892.20	227.42
892.50	227.46
892.81	227.41
893.12	227.38
893.42	227.31
893.73	227.30
894.04	227.31
894.34	227.33
894.65	227.31
894.95	227.30
895.26	227.30
895.57	227.33
895.87	227.25
896.18	227.24
896.48	227.24
896.79	227.24
897.10	227.20
897.40	227.18
897.71	227.16
898.01	227.13
898.32	227.14
898.63	227.14
898.93	227.13
899.24	227.15
899.54	227.14
899.85	227.13
900.15	227.07
900.46	227.04
900.76	227.02
901.07	227.03
901.38	227.02
901.68	227.03
901.99	226.98
902.29	226.97
902.60	226.97
902.90	227.00
903.21	226.98
903.51	227.01
903.82	227.03
904.12	227.00
904.43	226.99
904.73	226.97
905.03	226.94
905.34	227.00
905.64	226.98
905.95	226.99
906.25	227.00
906.56	227.04
906.86	227.05
907.17	227.03
907.47	227.04
907.77	227.05
908.08	227.04
908.38	227.05
908.69	227.07
908.99	227.08
909.30	227.07
909.60	227.09
909.90	227.08
910.21	227.07
910.51	227.08
910.81	227.09
911.12	227.13
911.42	227.15
911.73	227.06
912.03	227.05
912.33	227.07
912.64	227.06
912.94	227.05
913.24	227.02
913.55	227.05
913.85	227.04
914.15	227.06
914.46	227.06
914.76	227.07
915.06	227.07
915.37	227.05
915.67	227.03
915.97	227.02
916.27	227.03
916.58	227.04
916.88	227.05
917.18	227.07
917.49	227.14
917.79	227.16
918.09	227.21
918.39	227.26
918.70	227.26
919.00	227.28
919.30	227.32
919.60	227.34
919.91	227.34
920.21	227.36
920.51	227.34
920.81	227.38
921.12	227.37
921.42	227.36
921.72	227.35
922.02	227.39
922.32	227.42
922.63	227.43
922.93	227.47
923.23	227.49
923.53	227.47
923.83	227.39
924.13	227.38
924.44	227.35
924.74	227.35
925.04	227.38
925.34	227.39
925.64	227.38
925.94	227.37
926.24	227.41
926.55	227.38
926.85	227.38
927.15	227.35
927.45	227.36
927.75	227.36
928.05	227.37
928.35	227.34
928.65	227.32
928.95	227.34
929.26	227.29
929.56	227.31
929.86	227.32
930.16	227.32
930.46	227.33
930.76	227.32
931.06	227.25
931.36	227.24
931.66	227.24
931.96	227.22
932.26	227.23
932.56	227.18
932.86	227.22
933.16	227.21
933.46	227.18
933.76	227.17
934.06	227.18
934.36	227.19
934.66	227.18
934.96	227.14
935.26	227.11
935.56	227.12
935.86	227.09
936.16	227.08
936.46	227.05
936.76	227.02
937.06	227.03
937.36	227.03
937.66	227.01
937.96	226.97
938.26	226.93
938.56	226.92
938.86	226.90
939.16	226.89
939.46	226.89
939.76	226.93
940.06	226.93
940.35	226.89
940.65	226.87
940.95	226.88
941.25	226.83
941.55	226.80
941.85	226.77
942.15	226.79
942.45	226.79
942.75	226.78
943.04	226.79
943.34	226.78
943.64	226.81
943.94	226.78
944.24	226.81
944.54	226.81
944.84	226.80
945.13	226.78
945.43	226.78
945.73	226.77
946.03	226.75
946.33	226.75
946.62	226.75
946.92	226.75
947.22	226.76
947.52	226.82
947.82	226.85
948.11	226.84
948.41	226.81
948.71	226.77
949.01	226.78
949.31	226.78
949.60	226.79
949.90	226.79
950.20	226.83
950.50	226.83
950.79	226.87
951.09	226.89
951.39	226.90
951.69	226.89
951.98	226.90
952.28	226.89
952.58	226.90
952.87	226.90
953.17	226.92
953.47	226.93
953.76	226.92
954.06	226.91
954.36	226.91
954.66	226.94
954.95	226.99
955.25	226.99
955.55	226.99
955.84	226.97
956.14	226.94
956.44	226.92
956.73	226.90
957.03	226.91
957.32	226.92
957.62	226.91
957.92	226.95
958.21	226.98
958.51	227.05
958.81	227.08
959.10	227.11
959.40	227.11
959.69	227.12
959.99	227.15
960.29	227.17
960.58	227.18
960.88	227.21
961.17	227.20
961.47	227.24
961.76	227.26
962.06	227.31
962.36	227.32
962.65	227.35
962.95	227.37
963.24	227.36
963.54	227.38
963.83	227.39
964.13	227.38
964.42	227.35
964.72	227.30
965.01	227.29
965.31	227.28
965.60	227.26
965.90	227.30
966.19	227.27
966.49	227.29
966.78	227.30
967.08	227.29
967.37	227.28
967.67	227.26
967.96	227.28
968.26	227.26
968.55	227.28
968.85	227.25
969.14	227.21
969.43	227.19
969.73	227.17
970.02	227.19
970.32	227.21
970.61	227.21
970.91	227.17
971.20	227.16
971.49	227.15
971.79	227.19
972.08	227.11
972.38	227.12
972.67	227.11
972.96	227.09
973.26	227.09
973.55	227.13
973.85	227.12
974.14	227.10
974.43	227.09
974.73	227.09
975.02	227.09
975.31	227.11
975.61	227.12
975.90	227.11
976.19	227.07
976.49	227.04
976.78	227.03
977.07	227.04
977.37	227.03
977.66	227.04
977.95	227.04
978.24	227.06
978.54	227.06
978.83	227.06
979.12	227.04
979.42	227.01
979.71	226.99
980.00	226.98
980.29	226.98
980.59	226.96
980.88	226.96
981.17	226.97
981.46	226.99
981.76	227.00
982.05	227.04
982.34	227.08
982.63	227.06
982.93	227.06
983.22	227.07
983.51	227.08
983.80	227.06
984.09	227.04
984.39	227.06
984.68	227.06
984.97	227.02
985.26	227.02
985.55	227.02
985.85	227.00
986.14	227.00
986.43	227.02
986.72	227.00
987.01	227.01
987.30	227.00
987.59	226.97
987.89	226.95
988.18	226.91
988.47	226.86
988.76	226.90
989.05	226.91
989.34	226.91
989.63	226.96
989.92	226.94
990.22	226.95
990.51	226.94
990.80	226.91
991.09	226.98
991.38	226.98
991.67	226.98
991.96	226.96
992.25	226.98
992.54	226.96
992.83	226.96
993.12	226.93
993.41	226.97
993.70	227.00
993.99	227.02
994.28	227.04
994.58	227.10
994.87	227.08
995.16	227.09
995.45	227.09
995.74	227.05
996.03	227.09
996.32	227.12
996.61	227.14
996.90	227.13
997.19	227.13
997.48	227.14
997.77	227.18
998.06	227.21
998.34	227.18
998.63	227.17
998.92	227.19
999.21	227.24
999.50	227.24
999.79	227.21
1000.08	227.23
1000.37	227.22
1000.66	227.21
1000.95	227.24
1001.24	227.24
1001.53	227.24
1001.82	227.22
1002.11	227.21
1002.40	227.19
1002.68	227.21
1002.97	227.30
1003.26	227.25
1003.55	227.26
1003.84	227.26
1004.13	227.27
1004.42	227.25
1004.71	227.26
1004.99	227.29
1005.28	227.29
1005.57	227.27
1005.86	227.26
1006.15	227.25
1006.44	227.24
1006.72	227.25
1007.01	227.23
1007.30	227.24
1007.59	227.23
1007.88	227.23
1008.17	227.20
1008.45	227.16
1008.74	227.13
1009.03	227.09
1009.32	227.12
1009.60	227.12
1009.89	227.08
1010.18	227.07
1010.47	227.09
1010.76	227.06
1011.04	227.02
1011.33	227.04
1011.62	227.05
1011.91	227.04
1012.19	227.03
1012.48	227.02
1012.77	226.99
1013.05	227.05
1013.34	227.00
1013.63	226.99
1013.92	226.98
1014.20	226.98
1014.49	226.96
1014.78	226.93
1015.06	226.87
1015.35	226.86
1015.64	226.85
1015.92	226.90
1016.21	226.89
1016.50	226.88
1016.78	226.91
1017.07	226.90
1017.36	226.88
1017.64	226.84
1017.93	226.84
1018.22	226.84
1018.50	226.84
1018.79	226.86
1019.08	226.79
1019.36	226.80
1019.65	226.78
1019.93	226.80
1020.22	226.80
1020.51	226.89
1020.79	226.90
1021.08	226.80
1021.36	226.91
1021.65	227.10
1021.94	226.62
1022.22	226.59
1022.51	226.30
1022.79	227.15
1023.08	226.50
1023.36	228.14
1023.65	226.46
>>>>>End Processed Spectral Data<<<<<
