SpectraSuite Data File
++++++++++++++++++++++++++++++++++++
Date: Fri Feb 01 15:11:31 EST 2013
User: group
Dark Spectrum Present: No
Reference Spectrum Present: No
Number of Sampled Component Spectra: 1
Spectrometers: USB2E7196
Integration Time (usec): 35000 (USB2E7196)
Spectra Averaged: 100 (USB2E7196)
Boxcar Smoothing: 10 (USB2E7196)
Correct for Electrical Dark: No (USB2E7196)
Strobe/Lamp Enabled: No (USB2E7196)
Correct for Detector Non-linearity: No (USB2E7196)
Correct for Stray Light: No (USB2E7196)
Number of Pixels in Processed Spectrum: 2048
>>>>>Begin Processed Spectral Data<<<<<
339.09	0.00
339.48	215.35
339.86	216.50
340.24	218.34
340.63	219.61
341.01	222.69
341.39	222.07
341.78	223.15
342.16	224.82
342.54	225.16
342.93	213.50
343.31	224.29
343.69	224.85
344.07	225.34
344.46	225.77
344.84	226.11
345.22	226.32
345.60	226.56
345.99	226.77
346.37	226.88
346.75	226.99
347.13	227.06
347.52	227.09
347.90	227.17
348.28	227.22
348.66	227.28
349.05	227.26
349.43	227.32
349.81	227.36
350.19	227.39
350.57	227.46
350.96	227.53
351.34	227.64
351.72	227.68
352.10	227.78
352.48	227.81
352.87	227.91
353.25	227.97
353.63	228.04
354.01	228.10
354.39	228.20
354.77	228.25
355.15	228.36
355.54	228.42
355.92	228.45
356.30	228.51
356.68	228.64
357.06	228.73
357.44	228.76
357.82	228.87
358.20	228.95
358.58	228.99
358.97	229.05
359.35	229.11
359.73	229.22
360.11	229.26
360.49	229.33
360.87	229.36
361.25	229.43
361.63	229.49
362.01	229.53
362.39	229.55
362.77	229.59
363.15	229.59
363.53	229.61
363.91	229.63
364.29	229.64
364.67	229.56
365.05	229.57
365.43	229.56
365.81	229.54
366.19	229.56
366.57	229.60
366.95	229.60
367.33	229.54
367.71	229.50
368.09	229.51
368.47	229.47
368.85	229.46
369.23	229.43
369.61	229.37
369.99	229.37
370.37	229.37
370.75	229.40
371.13	229.35
371.51	229.29
371.89	229.24
372.27	229.21
372.65	229.18
373.03	229.13
373.41	229.09
373.78	229.02
374.16	228.90
374.54	228.85
374.92	228.75
375.30	228.71
375.68	228.65
376.06	228.56
376.44	228.51
376.82	228.44
377.19	228.37
377.57	228.28
377.95	228.19
378.33	228.12
378.71	227.96
379.09	227.90
379.47	227.85
379.84	227.79
380.22	227.71
380.60	227.61
380.98	227.55
381.36	227.49
381.73	227.44
382.11	227.42
382.49	227.33
382.87	227.26
383.25	227.21
383.62	227.22
384.00	227.15
384.38	227.09
384.76	227.03
385.13	227.01
385.51	226.96
385.89	226.89
386.27	226.81
386.64	226.80
387.02	226.72
387.40	226.65
387.78	226.63
388.15	226.61
388.53	226.57
388.91	226.51
389.29	226.47
389.66	226.47
390.04	226.43
390.42	226.43
390.79	226.42
391.17	226.41
391.55	226.30
391.92	226.27
392.30	226.27
392.68	226.28
393.05	226.29
393.43	226.32
393.81	226.31
394.18	226.34
394.56	226.36
394.94	226.42
395.31	226.47
395.69	226.52
396.06	226.55
396.44	226.61
396.82	226.66
397.19	226.77
397.57	226.78
397.95	226.83
398.32	226.88
398.70	226.97
399.07	227.03
399.45	227.08
399.82	227.19
400.20	227.28
400.58	227.36
400.95	227.40
401.33	227.50
401.70	227.68
402.08	227.79
402.45	227.86
402.83	228.00
403.20	228.11
403.58	228.21
403.95	228.37
404.33	228.51
404.71	228.61
405.08	228.78
405.46	228.93
405.83	229.10
406.21	229.25
406.58	229.40
406.96	229.58
407.33	229.77
407.70	229.97
408.08	230.24
408.45	230.45
408.83	230.68
409.20	230.90
409.58	231.08
409.95	231.32
410.33	231.63
410.70	231.84
411.08	232.15
411.45	232.47
411.82	232.74
412.20	233.08
412.57	233.54
412.95	233.82
413.32	234.24
413.69	234.67
414.07	235.12
414.44	235.58
414.82	236.09
415.19	236.66
415.56	237.21
415.94	237.74
416.31	238.40
416.68	239.02
417.06	239.73
417.43	240.43
417.81	241.20
418.18	241.98
418.55	242.81
418.93	243.67
419.30	244.55
419.67	245.48
420.04	246.44
420.42	247.45
420.79	248.66
421.16	249.80
421.54	250.96
421.91	252.14
422.28	253.43
422.66	254.74
423.03	255.99
423.40	257.32
423.77	258.72
424.15	260.12
424.52	261.65
424.89	263.23
425.26	264.78
425.64	266.22
426.01	267.82
426.38	269.52
426.75	271.18
427.13	272.94
427.50	274.71
427.87	276.58
428.24	278.40
428.61	280.12
428.99	282.05
429.36	284.15
429.73	286.21
430.10	288.21
430.47	290.26
430.85	292.42
431.22	294.67
431.59	297.06
431.96	299.36
432.33	301.83
432.70	304.24
433.08	307.04
433.45	309.70
433.82	312.29
434.19	315.18
434.56	318.03
434.93	320.70
435.30	323.38
435.68	326.30
436.05	329.19
436.42	331.98
436.79	334.50
437.16	337.23
437.53	340.10
437.90	342.95
438.27	345.71
438.64	348.58
439.01	351.19
439.38	353.45
439.75	355.58
440.13	358.09
440.50	360.44
440.87	362.29
441.24	364.29
441.61	366.47
441.98	367.95
442.35	369.72
442.72	371.60
443.09	373.39
443.46	374.39
443.83	374.95
444.20	375.47
444.57	376.36
444.94	376.68
445.31	377.02
445.68	377.34
446.05	377.41
446.42	376.99
446.79	376.56
447.16	376.13
447.53	375.85
447.90	374.66
448.27	373.50
448.64	371.92
449.01	370.76
449.37	368.76
449.74	366.84
450.11	364.60
450.48	362.10
450.85	359.57
451.22	357.36
451.59	355.35
451.96	353.43
452.33	350.79
452.70	348.38
453.07	345.55
453.43	342.64
453.80	339.90
454.17	337.21
454.54	334.68
454.91	331.92
455.28	329.16
455.65	326.66
456.02	324.21
456.38	322.05
456.75	319.34
457.12	317.10
457.49	314.86
457.86	312.68
458.23	310.81
458.59	308.74
458.96	306.67
459.33	304.82
459.70	302.93
460.07	301.44
460.43	299.71
460.80	298.08
461.17	296.65
461.54	295.14
461.91	293.71
462.27	292.21
462.64	290.95
463.01	289.62
463.38	288.35
463.74	286.98
464.11	285.81
464.48	284.77
464.85	283.65
465.21	282.79
465.58	281.88
465.95	280.78
466.32	279.91
466.68	279.00
467.05	278.06
467.42	277.14
467.78	276.18
468.15	275.31
468.52	274.64
468.88	273.75
469.25	272.94
469.62	272.27
469.98	271.59
470.35	270.93
470.72	270.34
471.08	269.66
471.45	269.12
471.82	268.57
472.18	267.99
472.55	267.52
472.92	267.00
473.28	266.54
473.65	266.08
474.02	265.60
474.38	265.20
474.75	264.89
475.11	264.52
475.48	264.26
475.85	263.99
476.21	263.75
476.58	263.58
476.94	263.42
477.31	263.24
477.67	263.08
478.04	263.01
478.41	262.93
478.77	262.96
479.14	262.89
479.50	262.92
479.87	262.95
480.23	263.02
480.60	263.08
480.96	263.15
481.33	263.32
481.69	263.52
482.06	263.75
482.42	263.94
482.79	264.23
483.15	264.50
483.52	264.92
483.88	265.22
484.25	265.60
484.61	266.04
484.98	266.51
485.34	267.05
485.71	267.58
486.07	268.18
486.44	268.75
486.80	269.40
487.17	270.11
487.53	270.96
487.90	271.82
488.26	272.78
488.62	273.80
488.99	274.77
489.35	275.83
489.72	276.93
490.08	278.13
490.44	279.37
490.81	280.74
491.17	282.05
491.54	283.58
491.90	285.11
492.26	286.72
492.63	288.46
492.99	290.25
493.36	292.16
493.72	294.20
494.08	296.31
494.45	298.55
494.81	300.90
495.17	303.32
495.54	305.85
495.90	308.52
496.26	311.35
496.63	314.28
496.99	317.41
497.35	320.66
497.72	324.05
498.08	327.54
498.44	331.17
498.80	335.08
499.17	339.09
499.53	343.22
499.89	347.59
500.26	352.04
500.62	356.70
500.98	361.67
501.34	366.70
501.71	371.97
502.07	377.44
502.43	383.07
502.79	388.84
503.16	394.96
503.52	401.24
503.88	407.58
504.24	414.25
504.60	421.15
504.97	428.23
505.33	435.51
505.69	443.24
506.05	451.01
506.41	458.89
506.78	467.00
507.14	475.40
507.50	484.17
507.86	493.15
508.22	502.32
508.59	511.49
508.95	521.09
509.31	530.93
509.67	540.98
510.03	551.26
510.39	561.86
510.75	572.68
511.12	583.54
511.48	594.84
511.84	606.30
512.20	617.79
512.56	629.71
512.92	641.98
513.28	654.35
513.64	666.84
514.00	679.55
514.37	692.58
514.73	705.69
515.09	718.68
515.45	732.00
515.81	745.59
516.17	759.63
516.53	773.76
516.89	787.98
517.25	802.19
517.61	816.62
517.97	831.17
518.33	845.46
518.69	860.34
519.05	875.42
519.41	890.65
519.77	906.25
520.13	921.83
520.49	937.25
520.85	952.65
521.21	968.33
521.57	984.64
521.93	1000.41
522.29	1016.89
522.65	1033.23
523.01	1049.56
523.37	1065.66
523.73	1081.92
524.09	1098.11
524.45	1114.42
524.81	1131.05
525.17	1148.03
525.53	1164.99
525.89	1181.99
526.25	1198.84
526.61	1215.16
526.97	1231.91
527.33	1248.46
527.68	1265.19
528.04	1281.70
528.40	1298.36
528.76	1315.64
529.12	1332.28
529.48	1349.12
529.84	1365.19
530.20	1381.87
530.56	1399.03
530.91	1416.54
531.27	1433.40
531.63	1449.86
531.99	1466.57
532.35	1482.73
532.71	1498.57
533.07	1514.71
533.42	1530.63
533.78	1546.74
534.14	1563.16
534.50	1578.51
534.86	1594.45
535.21	1609.54
535.57	1625.59
535.93	1641.19
536.29	1656.04
536.65	1671.10
537.00	1686.19
537.36	1701.65
537.72	1716.29
538.08	1730.75
538.44	1744.58
538.79	1758.58
539.15	1772.44
539.51	1786.28
539.87	1800.77
540.22	1814.54
540.58	1828.66
540.94	1842.21
541.29	1855.30
541.65	1868.04
542.01	1881.56
542.37	1893.87
542.72	1906.43
543.08	1918.22
543.44	1930.69
543.79	1941.94
544.15	1952.98
544.51	1964.49
544.87	1975.47
545.22	1986.29
545.58	1996.56
545.94	2006.37
546.29	2016.08
546.65	2025.98
547.01	2035.16
547.36	2043.83
547.72	2052.54
548.07	2060.18
548.43	2068.32
548.79	2076.25
549.14	2083.83
549.50	2091.02
549.86	2098.83
550.21	2106.18
550.57	2113.48
550.92	2119.91
551.28	2127.09
551.64	2134.21
551.99	2140.79
552.35	2147.01
552.70	2153.18
553.06	2158.99
553.41	2165.40
553.77	2171.50
554.13	2177.47
554.48	2183.69
554.84	2189.00
555.19	2194.09
555.55	2199.33
555.90	2203.75
556.26	2208.60
556.61	2213.26
556.97	2217.40
557.32	2221.43
557.68	2225.63
558.03	2229.82
558.39	2233.70
558.74	2238.26
559.10	2242.16
559.45	2245.70
559.81	2249.95
560.16	2253.78
560.52	2257.06
560.87	2260.45
561.23	2262.98
561.58	2265.93
561.94	2268.45
562.29	2270.97
562.64	2273.69
563.00	2276.22
563.35	2279.82
563.71	2282.98
564.06	2286.23
564.42	2289.17
564.77	2291.48
565.12	2293.47
565.48	2295.17
565.83	2296.90
566.19	2298.05
566.54	2299.01
566.89	2300.06
567.25	2300.65
567.60	2301.89
567.96	2303.61
568.31	2304.35
568.66	2305.52
569.02	2305.97
569.37	2306.07
569.72	2306.76
570.08	2306.72
570.43	2306.66
570.78	2305.79
571.14	2304.06
571.49	2302.69
571.84	2302.33
572.20	2301.23
572.55	2300.28
572.90	2298.72
573.26	2297.29
573.61	2295.62
573.96	2293.65
574.31	2290.57
574.67	2287.26
575.02	2283.52
575.37	2280.07
575.72	2276.21
576.08	2272.91
576.43	2269.49
576.78	2265.83
577.13	2262.73
577.49	2259.69
577.84	2256.12
578.19	2252.48
578.54	2248.67
578.90	2244.21
579.25	2238.60
579.60	2233.53
579.95	2228.40
580.30	2223.35
580.66	2218.11
581.01	2212.89
581.36	2207.91
581.71	2203.70
582.06	2199.27
582.42	2194.62
582.77	2189.16
583.12	2184.33
583.47	2179.17
583.82	2174.07
584.17	2168.72
584.53	2163.11
584.88	2157.33
585.23	2151.35
585.58	2145.74
585.93	2140.48
586.28	2135.72
586.63	2130.37
586.98	2125.30
587.34	2120.52
587.69	2115.53
588.04	2110.18
588.39	2104.40
588.74	2097.85
589.09	2091.58
589.44	2084.62
589.79	2078.57
590.14	2072.84
590.49	2066.28
590.84	2059.93
591.19	2053.86
591.54	2047.37
591.89	2039.67
592.25	2032.71
592.60	2025.49
592.95	2017.76
593.30	2010.16
593.65	2002.39
594.00	1995.39
594.35	1988.00
594.70	1979.90
595.05	1972.43
595.40	1965.02
595.75	1957.55
596.10	1951.12
596.45	1944.28
596.80	1938.05
597.15	1931.27
597.50	1924.09
597.85	1917.60
598.19	1910.86
598.54	1903.63
598.89	1896.88
599.24	1891.06
599.59	1884.31
599.94	1878.13
600.29	1871.77
600.64	1865.11
600.99	1857.63
601.34	1850.74
601.69	1843.63
602.04	1836.60
602.39	1829.25
602.74	1822.41
603.08	1815.58
603.43	1808.86
603.78	1801.49
604.13	1794.18
604.48	1786.84
604.83	1780.10
605.18	1772.94
605.53	1764.90
605.87	1756.90
606.22	1749.65
606.57	1741.62
606.92	1734.37
607.27	1727.06
607.62	1720.17
607.96	1712.84
608.31	1706.15
608.66	1698.43
609.01	1690.95
609.36	1683.36
609.70	1675.52
610.05	1667.34
610.40	1659.67
610.75	1651.36
611.10	1643.76
611.44	1635.46
611.79	1627.53
612.14	1618.68
612.49	1609.75
612.83	1601.53
613.18	1593.44
613.53	1585.27
613.88	1576.77
614.22	1568.45
614.57	1559.80
614.92	1551.70
615.27	1544.18
615.61	1535.95
615.96	1528.01
616.31	1520.45
616.65	1513.16
617.00	1505.56
617.35	1497.90
617.70	1489.55
618.04	1481.07
618.39	1472.95
618.74	1465.32
619.08	1457.08
619.43	1449.62
619.78	1442.74
620.12	1435.55
620.47	1428.09
620.82	1420.00
621.16	1412.58
621.51	1404.92
621.85	1397.47
622.20	1389.02
622.55	1380.64
622.89	1372.83
623.24	1365.28
623.59	1357.85
623.93	1350.35
624.28	1343.04
624.62	1335.61
624.97	1328.44
625.32	1321.75
625.66	1314.60
626.01	1307.37
626.35	1299.88
626.70	1292.09
627.04	1284.29
627.39	1276.48
627.73	1268.96
628.08	1262.02
628.43	1254.71
628.77	1247.35
629.12	1239.74
629.46	1232.49
629.81	1225.21
630.15	1217.97
630.50	1210.54
630.84	1202.29
631.19	1194.46
631.53	1186.99
631.88	1179.45
632.22	1171.87
632.57	1164.56
632.91	1157.11
633.26	1149.77
633.60	1142.42
633.95	1135.36
634.29	1128.30
634.64	1121.69
634.98	1114.38
635.32	1107.31
635.67	1100.81
636.01	1094.19
636.36	1087.44
636.70	1080.96
637.05	1074.37
637.39	1067.98
637.73	1061.44
638.08	1055.69
638.42	1049.63
638.77	1043.20
639.11	1036.55
639.45	1030.26
639.80	1023.65
640.14	1017.16
640.49	1010.62
640.83	1004.41
641.17	998.18
641.52	991.92
641.86	985.41
642.20	979.67
642.55	973.41
642.89	966.85
643.23	960.37
643.58	954.60
643.92	948.40
644.26	942.25
644.61	936.16
644.95	930.18
645.29	923.51
645.64	916.74
645.98	910.42
646.32	904.67
646.66	898.60
647.01	892.72
647.35	887.02
647.69	881.17
648.04	875.61
648.38	869.80
648.72	863.77
649.06	857.76
649.41	851.79
649.75	845.76
650.09	839.85
650.43	834.13
650.78	828.00
651.12	822.11
651.46	816.38
651.80	810.61
652.14	805.20
652.49	799.94
652.83	794.79
653.17	789.07
653.51	783.31
653.85	777.93
654.20	772.29
654.54	766.35
654.88	760.67
655.22	754.86
655.56	749.26
655.90	743.91
656.25	738.68
656.59	733.43
656.93	728.34
657.27	723.15
657.61	717.64
657.95	712.52
658.29	707.48
658.64	702.32
658.98	697.10
659.32	691.62
659.66	686.43
660.00	681.13
660.34	676.25
660.68	671.46
661.02	666.43
661.36	661.80
661.70	657.35
662.05	653.01
662.39	648.64
662.73	644.14
663.07	639.75
663.41	635.25
663.75	630.66
664.09	626.16
664.43	621.84
664.77	617.81
665.11	613.62
665.45	609.49
665.79	605.40
666.13	601.32
666.47	597.27
666.81	593.07
667.15	589.00
667.49	585.14
667.83	581.31
668.17	577.39
668.51	573.27
668.85	569.26
669.19	565.45
669.53	561.58
669.87	557.69
670.21	554.04
670.55	550.47
670.89	547.08
671.23	543.64
671.57	540.10
671.91	536.52
672.25	533.00
672.58	529.52
672.92	526.24
673.26	523.08
673.60	519.98
673.94	516.85
674.28	513.97
674.62	511.03
674.96	507.89
675.30	505.03
675.64	502.11
675.97	499.38
676.31	496.57
676.65	493.70
676.99	491.03
677.33	488.13
677.67	485.30
678.01	482.32
678.34	479.36
678.68	476.54
679.02	473.77
679.36	471.08
679.70	468.37
680.04	465.50
680.37	462.57
680.71	459.77
681.05	457.22
681.39	454.43
681.73	451.80
682.06	449.39
682.40	446.85
682.74	444.38
683.08	441.81
683.42	439.21
683.75	436.71
684.09	434.22
684.43	431.78
684.77	429.35
685.10	427.05
685.44	424.76
685.78	422.54
686.12	420.32
686.45	418.02
686.79	415.70
687.13	413.55
687.46	411.45
687.80	409.27
688.14	407.07
688.48	405.04
688.81	402.76
689.15	400.51
689.49	398.37
689.82	396.26
690.16	394.16
690.50	392.16
690.83	390.21
691.17	388.25
691.51	386.33
691.84	384.49
692.18	382.48
692.52	380.47
692.85	378.52
693.19	376.64
693.52	374.80
693.86	373.02
694.20	371.23
694.53	369.44
694.87	367.69
695.21	365.91
695.54	364.14
695.88	362.40
696.21	360.68
696.55	359.03
696.88	357.33
697.22	355.68
697.56	354.11
697.89	352.46
698.23	350.86
698.56	349.27
698.90	347.67
699.23	346.05
699.57	344.54
699.90	343.00
700.24	341.45
700.58	339.92
700.91	338.38
701.25	336.99
701.58	335.63
701.92	334.25
702.25	332.87
702.59	331.52
702.92	330.23
703.26	328.98
703.59	327.71
703.93	326.54
704.26	325.32
704.60	324.04
704.93	322.78
705.26	321.49
705.60	320.30
705.93	319.17
706.27	318.15
706.60	317.06
706.94	315.98
707.27	314.89
707.61	313.81
707.94	312.77
708.27	311.65
708.61	310.55
708.94	309.54
709.28	308.58
709.61	307.62
709.94	306.71
710.28	305.68
710.61	304.64
710.95	303.60
711.28	302.73
711.61	301.78
711.95	300.88
712.28	299.93
712.61	298.97
712.95	298.04
713.28	297.15
713.61	296.29
713.95	295.40
714.28	294.51
714.61	293.67
714.95	292.91
715.28	292.09
715.61	291.20
715.95	290.35
716.28	289.48
716.61	288.65
716.95	287.83
717.28	287.08
717.61	286.34
717.94	285.63
718.28	284.80
718.61	284.07
718.94	283.39
719.27	282.80
719.61	282.18
719.94	281.52
720.27	280.84
720.60	280.21
720.94	279.62
721.27	279.05
721.60	278.49
721.93	277.88
722.27	277.35
722.60	276.82
722.93	276.23
723.26	275.72
723.59	275.14
723.93	274.60
724.26	274.09
724.59	273.54
724.92	272.99
725.25	272.51
725.59	272.02
725.92	271.50
726.25	270.98
726.58	270.52
726.91	270.05
727.24	269.56
727.57	269.06
727.91	268.54
728.24	268.06
728.57	267.58
728.90	267.08
729.23	266.56
729.56	266.13
729.89	265.67
730.22	265.20
730.55	264.75
730.89	264.28
731.22	263.82
731.55	263.40
731.88	262.94
732.21	262.50
732.54	262.03
732.87	261.61
733.20	261.21
733.53	260.81
733.86	260.40
734.19	260.00
734.52	259.65
734.85	259.35
735.18	258.94
735.51	258.62
735.84	258.28
736.17	257.92
736.50	257.50
736.83	257.26
737.16	256.90
737.49	256.55
737.82	256.22
738.15	255.90
738.48	255.54
738.81	255.22
739.14	254.87
739.47	254.54
739.80	254.25
740.13	253.93
740.46	253.58
740.79	253.23
741.12	252.90
741.45	252.56
741.78	252.17
742.11	251.87
742.44	251.50
742.77	251.23
743.10	250.94
743.43	250.66
743.75	250.25
744.08	250.09
744.41	249.84
744.74	249.54
745.07	249.24
745.40	248.99
745.73	248.77
746.06	248.50
746.39	248.25
746.71	247.96
747.04	247.69
747.37	247.43
747.70	247.20
748.03	246.97
748.36	246.77
748.68	246.59
749.01	246.37
749.34	246.17
749.67	245.89
750.00	245.63
750.33	245.49
750.65	245.32
750.98	244.99
751.31	244.77
751.64	244.58
751.97	244.42
752.29	244.21
752.62	243.96
752.95	243.76
753.28	243.54
753.60	243.34
753.93	243.16
754.26	242.97
754.59	242.76
754.91	242.57
755.24	242.38
755.57	242.17
755.90	241.99
756.22	241.77
756.55	241.64
756.88	241.48
757.20	241.24
757.53	241.05
757.86	240.92
758.19	240.76
758.51	240.62
758.84	240.43
759.17	240.31
759.49	240.16
759.82	240.06
760.15	239.94
760.47	239.78
760.80	239.62
761.13	239.46
761.45	239.34
761.78	239.21
762.11	239.07
762.43	238.92
762.76	238.76
763.08	238.66
763.41	238.50
763.74	238.38
764.06	238.23
764.39	238.11
764.71	237.95
765.04	237.82
765.37	237.70
765.69	237.57
766.02	237.41
766.34	237.27
766.67	237.12
767.00	237.01
767.32	236.94
767.65	236.90
767.97	236.79
768.30	236.69
768.62	236.55
768.95	236.41
769.27	236.30
769.60	236.18
769.92	236.04
770.25	235.91
770.57	235.80
770.90	235.73
771.22	235.62
771.55	235.52
771.87	235.43
772.20	235.30
772.52	235.29
772.85	235.32
773.17	235.24
773.50	235.13
773.82	235.01
774.15	234.89
774.47	234.75
774.80	234.66
775.12	234.54
775.45	234.45
775.77	234.39
776.09	234.32
776.42	234.26
776.74	234.20
777.07	234.13
777.39	234.04
777.72	233.94
778.04	233.86
778.36	233.79
778.69	233.73
779.01	233.66
779.33	233.50
779.66	233.32
779.98	233.25
780.31	233.20
780.63	233.18
780.95	233.13
781.28	233.05
781.60	232.94
781.92	232.89
782.25	232.83
782.57	232.77
782.89	232.71
783.22	232.65
783.54	232.57
783.86	232.49
784.19	232.40
784.51	232.38
784.83	232.30
785.16	232.24
785.48	232.15
785.80	232.11
786.12	232.07
786.45	232.00
786.77	231.95
787.09	231.87
787.42	231.81
787.74	231.79
788.06	231.74
788.38	231.74
788.71	231.68
789.03	231.65
789.35	231.58
789.67	231.51
789.99	231.45
790.32	231.39
790.64	231.38
790.96	231.43
791.28	231.34
791.61	231.32
791.93	231.26
792.25	231.22
792.57	231.25
792.89	231.16
793.21	231.13
793.54	231.10
793.86	231.08
794.18	231.02
794.50	230.98
794.82	230.97
795.14	230.93
795.47	230.93
795.79	230.86
796.11	230.84
796.43	230.80
796.75	230.79
797.07	230.81
797.39	230.77
797.71	230.70
798.04	230.66
798.36	230.62
798.68	230.62
799.00	230.62
799.32	230.55
799.64	230.53
799.96	230.50
800.28	230.47
800.60	230.43
800.92	230.41
801.24	230.33
801.56	230.30
801.89	230.29
802.21	230.22
802.53	230.25
802.85	230.20
803.17	230.21
803.49	230.17
803.81	230.13
804.13	230.10
804.45	230.04
804.77	230.05
805.09	230.04
805.41	230.01
805.73	229.96
806.05	229.91
806.37	229.90
806.69	229.89
807.01	229.88
807.33	229.87
807.65	229.82
807.97	229.84
808.28	229.82
808.60	229.77
808.92	229.76
809.24	229.77
809.56	229.77
809.88	229.74
810.20	229.74
810.52	229.73
810.84	229.68
811.16	229.63
811.48	229.61
811.80	229.60
812.12	229.56
812.43	229.55
812.75	229.52
813.07	229.50
813.39	229.45
813.71	229.40
814.03	229.36
814.35	229.35
814.67	229.31
814.98	229.28
815.30	229.25
815.62	229.23
815.94	229.13
816.26	229.17
816.58	229.13
816.89	229.10
817.21	229.05
817.53	229.04
817.85	229.02
818.17	228.98
818.48	228.95
818.80	228.93
819.12	228.89
819.44	228.84
819.76	228.83
820.07	228.81
820.39	228.81
820.71	228.82
821.03	228.79
821.34	228.75
821.66	228.72
821.98	228.67
822.30	228.64
822.61	228.67
822.93	228.57
823.25	228.55
823.57	228.54
823.88	228.53
824.20	228.54
824.52	228.53
824.83	228.53
825.15	228.49
825.47	228.50
825.79	228.50
826.10	228.51
826.42	228.48
826.74	228.48
827.05	228.45
827.37	228.42
827.69	228.39
828.00	228.40
828.32	228.39
828.64	228.40
828.95	228.46
829.27	228.45
829.58	228.45
829.90	228.44
830.22	228.42
830.53	228.39
830.85	228.34
831.17	228.30
831.48	228.28
831.80	228.28
832.11	228.24
832.43	228.20
832.75	228.20
833.06	228.22
833.38	228.16
833.69	228.16
834.01	228.12
834.32	228.08
834.64	228.07
834.96	228.07
835.27	228.06
835.59	228.00
835.90	227.96
836.22	227.95
836.53	227.93
836.85	227.93
837.16	228.02
837.48	228.05
837.79	228.12
838.11	228.11
838.42	228.09
838.74	228.09
839.05	228.10
839.37	228.04
839.68	227.98
840.00	227.99
840.31	227.99
840.63	228.01
840.94	228.04
841.26	228.02
841.57	228.03
841.88	228.05
842.20	228.02
842.51	228.00
842.83	228.00
843.14	228.09
843.46	228.09
843.77	228.04
844.08	228.03
844.40	227.96
844.71	227.96
845.03	227.97
845.34	227.99
845.65	227.99
845.97	228.02
846.28	228.04
846.60	228.08
846.91	228.07
847.22	228.07
847.54	228.10
847.85	228.10
848.16	228.07
848.48	228.02
848.79	228.11
849.10	228.11
849.42	228.12
849.73	228.02
850.04	227.98
850.36	227.95
850.67	227.98
850.98	227.99
851.30	228.00
851.61	228.01
851.92	228.00
852.23	228.04
852.55	228.04
852.86	228.04
853.17	228.02
853.49	228.04
853.80	228.02
854.11	228.01
854.42	228.01
854.74	228.02
855.05	228.03
855.36	227.93
855.67	227.94
855.99	227.91
856.30	228.00
856.61	228.04
856.92	228.04
857.23	228.00
857.55	227.97
857.86	227.95
858.17	227.95
858.48	227.93
858.79	227.88
859.11	227.91
859.42	227.91
859.73	227.91
860.04	227.91
860.35	227.92
860.66	227.89
860.98	227.92
861.29	227.88
861.60	227.86
861.91	227.91
862.22	227.86
862.53	227.91
862.84	227.80
863.16	227.77
863.47	227.74
863.78	227.72
864.09	227.72
864.40	227.72
864.71	227.70
865.02	227.70
865.33	227.69
865.64	227.67
865.95	227.64
866.27	227.67
866.58	227.63
866.89	227.62
867.20	227.61
867.51	227.53
867.82	227.54
868.13	227.56
868.44	227.51
868.75	227.53
869.06	227.51
869.37	227.52
869.68	227.49
869.99	227.47
870.30	227.50
870.61	227.51
870.92	227.47
871.23	227.45
871.54	227.45
871.85	227.46
872.16	227.44
872.47	227.42
872.78	227.39
873.09	227.41
873.40	227.41
873.71	227.41
874.02	227.44
874.33	227.45
874.64	227.43
874.95	227.43
875.26	227.42
875.56	227.40
875.87	227.40
876.18	227.40
876.49	227.50
876.80	227.46
877.11	227.46
877.42	227.47
877.73	227.46
878.04	227.43
878.35	227.42
878.66	227.41
878.96	227.41
879.27	227.37
879.58	227.34
879.89	227.32
880.20	227.36
880.51	227.33
880.82	227.32
881.12	227.33
881.43	227.31
881.74	227.31
882.05	227.29
882.36	227.26
882.67	227.27
882.97	227.18
883.28	227.17
883.59	227.17
883.90	227.18
884.21	227.20
884.51	227.21
884.82	227.20
885.13	227.18
885.44	227.20
885.74	227.23
886.05	227.26
886.36	227.27
886.67	227.22
886.98	227.29
887.28	227.27
887.59	227.28
887.90	227.27
888.20	227.25
888.51	227.28
888.82	227.26
889.13	227.30
889.43	227.37
889.74	227.34
890.05	227.33
890.35	227.32
890.66	227.31
890.97	227.31
891.28	227.30
891.58	227.32
891.89	227.30
892.20	227.29
892.50	227.28
892.81	227.27
893.12	227.27
893.42	227.22
893.73	227.22
894.04	227.21
894.34	227.26
894.65	227.26
894.95	227.26
895.26	227.27
895.57	227.29
895.87	227.22
896.18	227.26
896.48	227.26
896.79	227.27
897.10	227.25
897.40	227.27
897.71	227.30
898.01	227.29
898.32	227.31
898.63	227.26
898.93	227.26
899.24	227.26
899.54	227.26
899.85	227.26
900.15	227.25
900.46	227.27
900.76	227.27
901.07	227.27
901.38	227.27
901.68	227.28
901.99	227.23
902.29	227.24
902.60	227.24
902.90	227.25
903.21	227.22
903.51	227.23
903.82	227.24
904.12	227.23
904.43	227.25
904.73	227.26
905.03	227.31
905.34	227.41
905.64	227.40
905.95	227.38
906.25	227.38
906.56	227.38
906.86	227.33
907.17	227.31
907.47	227.29
907.77	227.29
908.08	227.29
908.38	227.30
908.69	227.28
908.99	227.29
909.30	227.28
909.60	227.29
909.90	227.28
910.21	227.23
910.51	227.20
910.81	227.18
911.12	227.15
911.42	227.13
911.73	227.03
912.03	227.04
912.33	227.06
912.64	227.05
912.94	227.03
913.24	227.06
913.55	227.04
913.85	227.05
914.15	227.08
914.46	227.10
914.76	227.09
915.06	227.10
915.37	227.06
915.67	227.08
915.97	227.07
916.27	227.10
916.58	227.13
916.88	227.16
917.18	227.16
917.49	227.23
917.79	227.23
918.09	227.23
918.39	227.24
918.70	227.26
919.00	227.28
919.30	227.36
919.60	227.34
919.91	227.34
920.21	227.31
920.51	227.28
920.81	227.27
921.12	227.28
921.42	227.26
921.72	227.30
922.02	227.29
922.32	227.32
922.63	227.32
922.93	227.37
923.23	227.36
923.53	227.36
923.83	227.31
924.13	227.32
924.44	227.29
924.74	227.32
925.04	227.35
925.34	227.33
925.64	227.25
925.94	227.28
926.24	227.34
926.55	227.33
926.85	227.33
927.15	227.32
927.45	227.32
927.75	227.31
928.05	227.32
928.35	227.33
928.65	227.34
928.95	227.32
929.26	227.27
929.56	227.32
929.86	227.32
930.16	227.30
930.46	227.30
930.76	227.36
931.06	227.29
931.36	227.28
931.66	227.35
931.96	227.39
932.26	227.39
932.56	227.36
932.86	227.38
933.16	227.41
933.46	227.40
933.76	227.37
934.06	227.38
934.36	227.42
934.66	227.41
934.96	227.40
935.26	227.41
935.56	227.44
935.86	227.41
936.16	227.40
936.46	227.38
936.76	227.38
937.06	227.34
937.36	227.34
937.66	227.36
937.96	227.36
938.26	227.33
938.56	227.32
938.86	227.32
939.16	227.36
939.46	227.33
939.76	227.35
940.06	227.34
940.35	227.33
940.65	227.23
940.95	227.25
941.25	227.23
941.55	227.19
941.85	227.17
942.15	227.18
942.45	227.20
942.75	227.21
943.04	227.24
943.34	227.24
943.64	227.23
943.94	227.19
944.24	227.14
944.54	227.14
944.84	227.15
945.13	227.14
945.43	227.09
945.73	227.09
946.03	227.07
946.33	227.10
946.62	227.13
946.92	227.15
947.22	227.11
947.52	227.12
947.82	227.14
948.11	227.12
948.41	227.09
948.71	227.07
949.01	227.07
949.31	227.04
949.60	227.03
949.90	227.08
950.20	227.07
950.50	227.08
950.79	227.07
951.09	227.09
951.39	227.08
951.69	227.09
951.98	227.13
952.28	227.12
952.58	227.09
952.87	227.08
953.17	227.08
953.47	227.10
953.76	227.09
954.06	227.09
954.36	227.10
954.66	227.11
954.95	227.12
955.25	227.11
955.55	227.10
955.84	227.07
956.14	227.03
956.44	227.06
956.73	227.06
957.03	227.10
957.32	227.09
957.62	227.11
957.92	227.11
958.21	227.08
958.51	227.18
958.81	227.19
959.10	227.18
959.40	227.22
959.69	227.20
959.99	227.25
960.29	227.23
960.58	227.21
960.88	227.30
961.17	227.30
961.47	227.32
961.76	227.35
962.06	227.42
962.36	227.41
962.65	227.41
962.95	227.40
963.24	227.37
963.54	227.36
963.83	227.37
964.13	227.39
964.42	227.36
964.72	227.30
965.01	227.31
965.31	227.31
965.60	227.29
965.90	227.37
966.19	227.32
966.49	227.34
966.78	227.32
967.08	227.29
967.37	227.28
967.67	227.25
967.96	227.20
968.26	227.19
968.55	227.21
968.85	227.21
969.14	227.22
969.43	227.21
969.73	227.23
970.02	227.20
970.32	227.18
970.61	227.16
970.91	227.14
971.20	227.14
971.49	227.15
971.79	227.15
972.08	227.08
972.38	227.09
972.67	227.08
972.96	227.13
973.26	227.10
973.55	227.14
973.85	227.14
974.14	227.16
974.43	227.17
974.73	227.16
975.02	227.17
975.31	227.13
975.61	227.15
975.90	227.14
976.19	227.13
976.49	227.10
976.78	227.18
977.07	227.19
977.37	227.21
977.66	227.21
977.95	227.18
978.24	227.18
978.54	227.19
978.83	227.19
979.12	227.18
979.42	227.19
979.71	227.17
980.00	227.15
980.29	227.19
980.59	227.14
980.88	227.16
981.17	227.15
981.46	227.17
981.76	227.15
982.05	227.15
982.34	227.19
982.63	227.20
982.93	227.16
983.22	227.18
983.51	227.18
983.80	227.19
984.09	227.24
984.39	227.25
984.68	227.22
984.97	227.22
985.26	227.19
985.55	227.18
985.85	227.17
986.14	227.21
986.43	227.21
986.72	227.23
987.01	227.19
987.30	227.20
987.59	227.19
987.89	227.19
988.18	227.16
988.47	227.15
988.76	227.14
989.05	227.15
989.34	227.10
989.63	227.14
989.92	227.12
990.22	227.10
990.51	227.09
990.80	227.11
991.09	227.12
991.38	227.16
991.67	227.15
991.96	227.11
992.25	227.10
992.54	227.06
992.83	227.03
993.12	227.04
993.41	227.05
993.70	227.08
993.99	227.06
994.28	227.07
994.58	227.07
994.87	227.05
995.16	227.02
995.45	227.00
995.74	226.96
996.03	226.96
996.32	226.98
996.61	226.99
996.90	226.98
997.19	226.97
997.48	226.96
997.77	226.96
998.06	226.97
998.34	226.98
998.63	227.00
998.92	227.00
999.21	227.00
999.50	227.01
999.79	226.98
1000.08	227.01
1000.37	227.02
1000.66	227.02
1000.95	227.06
1001.24	227.08
1001.53	227.12
1001.82	227.10
1002.11	227.09
1002.40	227.07
1002.68	227.12
1002.97	227.16
1003.26	227.14
1003.55	227.11
1003.84	227.10
1004.13	227.15
1004.42	227.12
1004.71	227.10
1004.99	227.09
1005.28	227.13
1005.57	227.09
1005.86	227.10
1006.15	227.07
1006.44	227.07
1006.72	227.07
1007.01	227.05
1007.30	227.02
1007.59	226.96
1007.88	226.97
1008.17	226.94
1008.45	226.92
1008.74	226.88
1009.03	226.88
1009.32	226.87
1009.60	226.88
1009.89	226.85
1010.18	226.82
1010.47	226.80
1010.76	226.78
1011.04	226.81
1011.33	226.78
1011.62	226.80
1011.91	226.80
1012.19	226.79
1012.48	226.78
1012.77	226.76
1013.05	226.81
1013.34	226.82
1013.63	226.81
1013.92	226.81
1014.20	226.84
1014.49	226.86
1014.78	226.84
1015.06	226.76
1015.35	226.77
1015.64	226.79
1015.92	226.84
1016.21	226.83
1016.50	226.84
1016.78	226.88
1017.07	226.88
1017.36	226.87
1017.64	226.86
1017.93	226.87
1018.22	226.88
1018.50	226.86
1018.79	226.85
1019.08	226.79
1019.36	226.80
1019.65	226.82
1019.93	226.81
1020.22	226.80
1020.51	226.85
1020.79	226.86
1021.08	226.88
1021.36	226.41
1021.65	226.11
1021.94	226.96
1022.22	226.66
1022.51	226.65
1022.79	226.73
1023.08	226.76
1023.36	228.31
1023.65	226.53
>>>>>End Processed Spectral Data<<<<<
