SpectraSuite Data File
++++++++++++++++++++++++++++++++++++
Date: Fri Feb 01 17:15:08 EST 2013
User: group
Dark Spectrum Present: No
Reference Spectrum Present: No
Number of Sampled Component Spectra: 1
Spectrometers: USB2E7196
Integration Time (usec): 35000 (USB2E7196)
Spectra Averaged: 100 (USB2E7196)
Boxcar Smoothing: 10 (USB2E7196)
Correct for Electrical Dark: No (USB2E7196)
Strobe/Lamp Enabled: No (USB2E7196)
Correct for Detector Non-linearity: No (USB2E7196)
Correct for Stray Light: No (USB2E7196)
Number of Pixels in Processed Spectrum: 2048
>>>>>Begin Processed Spectral Data<<<<<
339.09	0.00
339.48	213.14
339.86	214.26
340.24	215.42
340.63	216.96
341.01	219.83
341.39	220.14
341.78	220.59
342.16	222.66
342.54	223.76
342.93	211.51
343.31	222.20
343.69	222.75
344.07	223.23
344.46	223.68
344.84	224.10
345.22	224.36
345.60	224.57
345.99	224.81
346.37	224.94
346.75	225.01
347.13	225.08
347.52	225.12
347.90	225.21
348.28	225.23
348.66	225.29
349.05	225.27
349.43	225.32
349.81	225.41
350.19	225.43
350.57	225.51
350.96	225.56
351.34	225.65
351.72	225.76
352.10	225.87
352.48	225.96
352.87	225.98
353.25	226.07
353.63	226.18
354.01	226.22
354.39	226.32
354.77	226.41
355.15	226.50
355.54	226.58
355.92	226.59
356.30	226.65
356.68	226.77
357.06	226.82
357.44	226.82
357.82	226.87
358.20	226.96
358.58	227.04
358.97	227.12
359.35	227.19
359.73	227.26
360.11	227.29
360.49	227.30
360.87	227.36
361.25	227.37
361.63	227.44
362.01	227.51
362.39	227.52
362.77	227.55
363.15	227.58
363.53	227.61
363.91	227.65
364.29	227.67
364.67	227.60
365.05	227.62
365.43	227.65
365.81	227.68
366.19	227.71
366.57	227.70
366.95	227.70
367.33	227.69
367.71	227.65
368.09	227.66
368.47	227.68
368.85	227.66
369.23	227.69
369.61	227.62
369.99	227.63
370.37	227.62
370.75	227.63
371.13	227.58
371.51	227.54
371.89	227.50
372.27	227.47
372.65	227.43
373.03	227.39
373.41	227.30
373.78	227.23
374.16	227.14
374.54	227.05
374.92	226.96
375.30	226.90
375.68	226.83
376.06	226.79
376.44	226.72
376.82	226.70
377.19	226.62
377.57	226.55
377.95	226.46
378.33	226.40
378.71	226.29
379.09	226.22
379.47	226.14
379.84	226.09
380.22	225.99
380.60	225.94
380.98	225.88
381.36	225.84
381.73	225.76
382.11	225.68
382.49	225.64
382.87	225.57
383.25	225.50
383.62	225.57
384.00	225.47
384.38	225.41
384.76	225.36
385.13	225.31
385.51	225.25
385.89	225.18
386.27	225.11
386.64	225.08
387.02	225.02
387.40	225.00
387.78	224.96
388.15	224.94
388.53	224.91
388.91	224.88
389.29	224.84
389.66	224.82
390.04	224.83
390.42	224.79
390.79	224.78
391.17	224.76
391.55	224.62
391.92	224.61
392.30	224.61
392.68	224.59
393.05	224.61
393.43	224.63
393.81	224.62
394.18	224.60
394.56	224.60
394.94	224.63
395.31	224.66
395.69	224.72
396.06	224.75
396.44	224.76
396.82	224.79
397.19	224.89
397.57	224.93
397.95	224.99
398.32	225.02
398.70	225.09
399.07	225.17
399.45	225.25
399.82	225.33
400.20	225.38
400.58	225.41
400.95	225.41
401.33	225.51
401.70	225.62
402.08	225.71
402.45	225.76
402.83	225.90
403.20	225.95
403.58	225.99
403.95	226.09
404.33	226.22
404.71	226.33
405.08	226.48
405.46	226.61
405.83	226.72
406.21	226.86
406.58	227.01
406.96	227.13
407.33	227.27
407.70	227.46
408.08	227.76
408.45	227.97
408.83	228.21
409.20	228.41
409.58	228.61
409.95	228.87
410.33	229.17
410.70	229.41
411.08	229.71
411.45	230.03
411.82	230.34
412.20	230.67
412.57	231.06
412.95	231.39
413.32	231.77
413.69	232.17
414.07	232.62
414.44	233.11
414.82	233.61
415.19	234.19
415.56	234.69
415.94	235.20
416.31	235.87
416.68	236.50
417.06	237.24
417.43	237.94
417.81	238.73
418.18	239.50
418.55	240.36
418.93	241.25
419.30	242.16
419.67	243.12
420.04	244.07
420.42	245.09
420.79	246.28
421.16	247.48
421.54	248.73
421.91	250.00
422.28	251.29
422.66	252.67
423.03	253.99
423.40	255.35
423.77	256.79
424.15	258.26
424.52	259.80
424.89	261.44
425.26	263.04
425.64	264.56
426.01	266.22
426.38	267.94
426.75	269.67
427.13	271.42
427.50	273.29
427.87	275.24
428.24	277.13
428.61	278.91
428.99	280.90
429.36	283.06
429.73	285.16
430.10	287.20
430.47	289.25
430.85	291.46
431.22	293.79
431.59	296.23
431.96	298.54
432.33	301.08
432.70	303.49
433.08	306.40
433.45	309.04
433.82	311.67
434.19	314.59
434.56	317.48
434.93	320.21
435.30	322.93
435.68	325.90
436.05	328.83
436.42	331.68
436.79	334.24
437.16	337.00
437.53	339.92
437.90	342.76
438.27	345.56
438.64	348.41
439.01	351.04
439.38	353.37
439.75	355.56
440.13	358.10
440.50	360.51
440.87	362.41
441.24	364.42
441.61	366.64
441.98	368.20
442.35	370.07
442.72	371.95
443.09	373.79
443.46	374.82
443.83	375.41
444.20	375.98
444.57	376.89
444.94	377.18
445.31	377.54
445.68	377.98
446.05	378.18
446.42	377.83
446.79	377.40
447.16	376.93
447.53	376.63
447.90	375.46
448.27	374.29
448.64	372.68
449.01	371.54
449.37	369.56
449.74	367.61
450.11	365.28
450.48	362.81
450.85	360.24
451.22	358.08
451.59	356.04
451.96	354.09
452.33	351.41
452.70	349.03
453.07	346.13
453.43	343.17
453.80	340.30
454.17	337.59
454.54	335.03
454.91	332.27
455.28	329.54
455.65	327.00
456.02	324.49
456.38	322.25
456.75	319.51
457.12	317.18
457.49	314.95
457.86	312.74
458.23	310.87
458.59	308.73
458.96	306.57
459.33	304.65
459.70	302.69
460.07	301.12
460.43	299.37
460.80	297.71
461.17	296.22
461.54	294.65
461.91	293.19
462.27	291.69
462.64	290.41
463.01	289.02
463.38	287.72
463.74	286.31
464.11	285.10
464.48	284.08
464.85	282.96
465.21	282.05
465.58	281.12
465.95	279.95
466.32	279.06
466.68	278.18
467.05	277.28
467.42	276.37
467.78	275.47
468.15	274.58
468.52	273.89
468.88	273.00
469.25	272.24
469.62	271.58
469.98	270.95
470.35	270.30
470.72	269.66
471.08	269.02
471.45	268.50
471.82	267.99
472.18	267.34
472.55	266.94
472.92	266.40
473.28	265.95
473.65	265.55
474.02	265.11
474.38	264.72
474.75	264.37
475.11	264.01
475.48	263.73
475.85	263.47
476.21	263.24
476.58	263.08
476.94	262.93
477.31	262.74
477.67	262.54
478.04	262.45
478.41	262.40
478.77	262.45
479.14	262.38
479.50	262.40
479.87	262.47
480.23	262.56
480.60	262.62
480.96	262.72
481.33	262.90
481.69	263.07
482.06	263.24
482.42	263.45
482.79	263.74
483.15	264.04
483.52	264.43
483.88	264.82
484.25	265.18
484.61	265.63
484.98	266.12
485.34	266.71
485.71	267.28
486.07	267.92
486.44	268.45
486.80	269.13
487.17	269.88
487.53	270.69
487.90	271.52
488.26	272.48
488.62	273.44
488.99	274.41
489.35	275.48
489.72	276.63
490.08	277.85
490.44	279.09
490.81	280.43
491.17	281.78
491.54	283.25
491.90	284.85
492.26	286.50
492.63	288.18
492.99	289.95
493.36	291.81
493.72	293.84
494.08	295.92
494.45	298.16
494.81	300.50
495.17	302.93
495.54	305.50
495.90	308.17
496.26	310.96
496.63	313.89
496.99	316.98
497.35	320.21
497.72	323.60
498.08	327.13
498.44	330.76
498.80	334.66
499.17	338.69
499.53	342.80
499.89	347.15
500.26	351.63
500.62	356.23
500.98	361.21
501.34	366.27
501.71	371.59
502.07	376.99
502.43	382.63
502.79	388.40
503.16	394.35
503.52	400.53
503.88	406.89
504.24	413.47
504.60	420.28
504.97	427.40
505.33	434.58
505.69	442.24
506.05	449.99
506.41	457.81
506.78	465.75
507.14	474.16
507.50	482.74
507.86	491.66
508.22	500.76
508.59	509.82
508.95	519.25
509.31	528.93
509.67	538.91
510.03	548.98
510.39	559.43
510.75	570.09
511.12	580.89
511.48	592.06
511.84	603.38
512.20	614.80
512.56	626.51
512.92	638.50
513.28	650.63
513.64	662.80
514.00	675.31
514.37	688.18
514.73	700.91
515.09	713.78
515.45	726.77
515.81	740.17
516.17	753.94
516.53	767.88
516.89	781.85
517.25	795.79
517.61	810.02
517.97	824.22
518.33	838.38
518.69	852.88
519.05	867.51
519.41	882.39
519.77	897.56
520.13	912.69
520.49	927.87
520.85	942.95
521.21	958.42
521.57	974.31
521.93	989.77
522.29	1005.80
522.65	1021.71
523.01	1037.71
523.37	1053.49
523.73	1069.23
524.09	1084.84
524.45	1100.68
524.81	1117.00
525.17	1133.41
525.53	1149.87
525.89	1166.51
526.25	1183.01
526.61	1199.19
526.97	1215.65
527.33	1231.87
527.68	1248.11
528.04	1264.17
528.40	1280.33
528.76	1297.07
529.12	1313.39
529.48	1330.00
529.84	1345.68
530.20	1362.05
530.56	1378.66
530.91	1395.64
531.27	1412.30
531.63	1428.46
531.99	1444.83
532.35	1460.50
532.71	1476.12
533.07	1492.21
533.42	1507.85
533.78	1523.66
534.14	1539.54
534.50	1554.55
534.86	1570.10
535.21	1585.15
535.57	1600.86
535.93	1616.25
536.29	1630.69
536.65	1645.47
537.00	1659.87
537.36	1675.02
537.72	1689.27
538.08	1703.56
538.44	1717.11
538.79	1730.68
539.15	1744.21
539.51	1757.73
539.87	1771.95
540.22	1785.50
540.58	1798.82
540.94	1811.74
541.29	1824.20
541.65	1836.71
542.01	1849.70
542.37	1862.03
542.72	1874.27
543.08	1885.98
543.44	1898.19
543.79	1909.51
544.15	1920.44
544.51	1932.13
544.87	1943.02
545.22	1953.95
545.58	1964.10
545.94	1974.03
546.29	1983.90
546.65	1993.83
547.01	2003.23
547.36	2011.95
547.72	2020.50
548.07	2028.88
548.43	2037.22
548.79	2045.30
549.14	2053.17
549.50	2060.51
549.86	2067.88
550.21	2075.22
550.57	2082.53
550.92	2089.21
551.28	2096.40
551.64	2103.57
551.99	2110.13
552.35	2116.51
552.70	2122.79
553.06	2128.94
553.41	2135.35
553.77	2141.47
554.13	2147.58
554.48	2153.65
554.84	2159.41
555.19	2164.85
555.55	2170.04
555.90	2174.79
556.26	2180.15
556.61	2184.84
556.97	2189.66
557.32	2194.19
557.68	2198.54
558.03	2202.87
558.39	2206.76
558.74	2211.52
559.10	2215.63
559.45	2219.37
559.81	2223.79
560.16	2227.63
560.52	2231.02
560.87	2234.56
561.23	2237.53
561.58	2240.60
561.94	2243.46
562.29	2245.79
562.64	2248.83
563.00	2251.38
563.35	2255.15
563.71	2258.55
564.06	2262.01
564.42	2265.11
564.77	2268.22
565.12	2271.00
565.48	2273.45
565.83	2275.79
566.19	2277.60
566.54	2278.69
566.89	2280.32
567.25	2281.36
567.60	2282.88
567.96	2285.02
568.31	2286.34
568.66	2287.78
569.02	2288.75
569.37	2289.60
569.72	2290.92
570.08	2291.41
570.43	2291.84
570.78	2291.60
571.14	2290.34
571.49	2289.30
571.84	2289.12
572.20	2288.07
572.55	2287.13
572.90	2285.56
573.26	2284.41
573.61	2282.61
573.96	2281.40
574.31	2278.64
574.67	2275.86
575.02	2272.62
575.37	2269.29
575.72	2265.80
576.08	2262.57
576.43	2259.36
576.78	2256.02
577.13	2252.88
577.49	2249.81
577.84	2246.73
578.19	2243.09
578.54	2239.79
578.90	2236.01
579.25	2230.76
579.60	2226.23
579.95	2221.51
580.30	2216.88
580.66	2212.05
581.01	2207.40
581.36	2202.53
581.71	2198.72
582.06	2194.59
582.42	2190.54
582.77	2185.74
583.12	2181.49
583.47	2177.21
583.82	2172.79
584.17	2167.61
584.53	2162.48
584.88	2157.22
585.23	2151.81
585.58	2146.47
585.93	2141.17
586.28	2136.34
586.63	2131.52
586.98	2126.47
587.34	2122.03
587.69	2117.25
588.04	2112.13
588.39	2106.76
588.74	2100.50
589.09	2094.43
589.44	2087.97
589.79	2081.81
590.14	2076.32
590.49	2069.75
590.84	2063.44
591.19	2057.58
591.54	2051.30
591.89	2044.40
592.25	2037.84
592.60	2030.71
592.95	2023.59
593.30	2016.39
593.65	2008.99
594.00	2001.94
594.35	1994.96
594.70	1986.91
595.05	1980.10
595.40	1972.91
595.75	1965.57
596.10	1959.59
596.45	1953.19
596.80	1947.08
597.15	1940.77
597.50	1934.10
597.85	1927.74
598.19	1921.24
598.54	1914.43
598.89	1907.92
599.24	1901.99
599.59	1895.54
599.94	1889.36
600.29	1883.03
600.64	1876.40
600.99	1869.14
601.34	1862.69
601.69	1855.59
602.04	1848.97
602.39	1841.55
602.74	1834.88
603.08	1828.31
603.43	1821.52
603.78	1814.05
604.13	1806.76
604.48	1799.68
604.83	1792.77
605.18	1786.17
605.53	1778.27
605.87	1770.12
606.22	1762.83
606.57	1754.78
606.92	1747.24
607.27	1740.13
607.62	1733.41
607.96	1726.47
608.31	1720.20
608.66	1712.63
609.01	1705.24
609.36	1697.77
609.70	1689.89
610.05	1681.85
610.40	1674.20
610.75	1665.96
611.10	1658.45
611.44	1650.09
611.79	1641.93
612.14	1633.18
612.49	1623.77
612.83	1615.31
613.18	1607.17
613.53	1599.04
613.88	1590.51
614.22	1582.20
614.57	1573.51
614.92	1565.30
615.27	1557.59
615.61	1549.09
615.96	1540.82
616.31	1533.01
616.65	1525.57
617.00	1517.95
617.35	1510.09
617.70	1501.72
618.04	1493.25
618.39	1484.78
618.74	1477.21
619.08	1468.77
619.43	1461.04
619.78	1453.95
620.12	1446.82
620.47	1439.14
620.82	1430.88
621.16	1423.36
621.51	1415.61
621.85	1407.87
622.20	1399.26
622.55	1390.81
622.89	1382.73
623.24	1375.01
623.59	1367.52
623.93	1359.82
624.28	1352.45
624.62	1344.98
624.97	1337.69
625.32	1330.63
625.66	1323.66
626.01	1316.27
626.35	1309.03
626.70	1301.20
627.04	1293.55
627.39	1285.67
627.73	1278.28
628.08	1271.39
628.43	1264.21
628.77	1256.96
629.12	1249.49
629.46	1242.30
629.81	1234.67
630.15	1227.45
630.50	1220.03
630.84	1211.90
631.19	1203.76
631.53	1196.10
631.88	1188.51
632.22	1180.85
632.57	1173.53
632.91	1165.80
633.26	1158.40
633.60	1150.81
633.95	1143.56
634.29	1136.35
634.64	1129.46
634.98	1122.04
635.32	1114.75
635.67	1107.86
636.01	1101.13
636.36	1094.26
636.70	1087.61
637.05	1081.15
637.39	1074.62
637.73	1068.08
638.08	1062.07
638.42	1056.16
638.77	1049.77
639.11	1043.23
639.45	1036.84
639.80	1030.14
640.14	1023.72
640.49	1017.15
640.83	1010.81
641.17	1004.69
641.52	998.42
641.86	992.03
642.20	986.09
642.55	979.70
642.89	973.36
643.23	966.71
643.58	960.90
643.92	954.74
644.26	948.69
644.61	942.52
644.95	936.49
645.29	930.01
645.64	923.27
645.98	916.82
646.32	910.66
646.66	904.57
647.01	898.76
647.35	893.08
647.69	887.22
648.04	881.65
648.38	875.78
648.72	869.79
649.06	863.72
649.41	857.82
649.75	851.98
650.09	845.96
650.43	840.21
650.78	834.00
651.12	828.03
651.46	822.19
651.80	816.60
652.14	811.16
652.49	805.70
652.83	800.43
653.17	794.83
653.51	789.25
653.85	783.73
654.20	778.13
654.54	772.06
654.88	766.30
655.22	760.31
655.56	754.54
655.90	748.96
656.25	743.72
656.59	738.37
656.93	733.17
657.27	727.92
657.61	722.35
657.95	717.19
658.29	712.11
658.64	706.79
658.98	701.29
659.32	695.77
659.66	690.53
660.00	685.29
660.34	680.25
660.68	675.21
661.02	670.11
661.36	665.39
661.70	660.87
662.05	656.52
662.39	652.27
662.73	647.85
663.07	643.44
663.41	638.93
663.75	634.43
664.09	629.87
664.43	625.51
664.77	621.45
665.11	617.26
665.45	613.03
665.79	609.01
666.13	604.95
666.47	600.86
666.81	596.75
667.15	592.55
667.49	588.62
667.83	584.79
668.17	580.87
668.51	576.78
668.85	572.71
669.19	568.70
669.53	564.85
669.87	561.01
670.21	557.33
670.55	553.60
670.89	550.12
671.23	546.65
671.57	543.12
671.91	539.63
672.25	535.97
672.58	532.40
672.92	528.92
673.26	525.70
673.60	522.48
673.94	519.34
674.28	516.42
674.62	513.47
674.96	510.39
675.30	507.51
675.64	504.57
675.97	501.80
676.31	498.93
676.65	496.01
676.99	493.23
677.33	490.30
677.67	487.52
678.01	484.47
678.34	481.51
678.68	478.58
679.02	475.67
679.36	472.96
679.70	470.26
680.04	467.47
680.37	464.60
680.71	461.77
681.05	459.13
681.39	456.36
681.73	453.70
682.06	451.14
682.40	448.62
682.74	446.07
683.08	443.43
683.42	440.84
683.75	438.28
684.09	435.69
684.43	433.23
684.77	430.71
685.10	428.34
685.44	426.01
685.78	423.68
686.12	421.38
686.45	419.04
686.79	416.77
687.13	414.60
687.46	412.43
687.80	410.29
688.14	408.04
688.48	406.01
688.81	403.79
689.15	401.70
689.49	399.43
689.82	397.28
690.16	395.24
690.50	393.24
690.83	391.26
691.17	389.20
691.51	387.26
691.84	385.45
692.18	383.54
692.52	381.57
692.85	379.68
693.19	377.78
693.52	375.96
693.86	374.06
694.20	372.20
694.53	370.38
694.87	368.47
695.21	366.63
695.54	364.77
695.88	362.95
696.21	361.14
696.55	359.46
696.88	357.77
697.22	356.03
697.56	354.38
697.89	352.70
698.23	351.16
698.56	349.55
698.90	347.95
699.23	346.29
699.57	344.70
699.90	343.08
700.24	341.54
700.58	340.00
700.91	338.56
701.25	337.11
701.58	335.67
701.92	334.31
702.25	332.97
702.59	331.57
702.92	330.29
703.26	328.94
703.59	327.71
703.93	326.51
704.26	325.31
704.60	324.06
704.93	322.82
705.26	321.51
705.60	320.31
705.93	319.11
706.27	318.07
706.60	317.00
706.94	315.96
707.27	314.85
707.61	313.74
707.94	312.65
708.27	311.56
708.61	310.51
708.94	309.50
709.28	308.47
709.61	307.50
709.94	306.51
710.28	305.53
710.61	304.50
710.95	303.41
711.28	302.47
711.61	301.50
711.95	300.59
712.28	299.69
712.61	298.74
712.95	297.80
713.28	296.88
713.61	295.93
713.95	295.07
714.28	294.17
714.61	293.33
714.95	292.49
715.28	291.62
715.61	290.73
715.95	289.90
716.28	289.03
716.61	288.20
716.95	287.39
717.28	286.58
717.61	285.82
717.94	285.09
718.28	284.24
718.61	283.47
718.94	282.74
719.27	282.05
719.61	281.35
719.94	280.68
720.27	279.97
720.60	279.32
720.94	278.62
721.27	278.05
721.60	277.43
721.93	276.86
722.27	276.30
722.60	275.75
722.93	275.15
723.26	274.64
723.59	274.06
723.93	273.48
724.26	272.89
724.59	272.31
724.92	271.75
725.25	271.27
725.59	270.75
725.92	270.22
726.25	269.70
726.58	269.23
726.91	268.72
727.24	268.24
727.57	267.75
727.91	267.23
728.24	266.75
728.57	266.27
728.90	265.75
729.23	265.27
729.56	264.82
729.89	264.33
730.22	263.82
730.55	263.33
730.89	262.85
731.22	262.45
731.55	262.01
731.88	261.60
732.21	261.16
732.54	260.70
732.87	260.24
733.20	259.78
733.53	259.34
733.86	258.96
734.19	258.57
734.52	258.18
734.85	257.89
735.18	257.47
735.51	257.10
735.84	256.74
736.17	256.35
736.50	255.92
736.83	255.70
737.16	255.38
737.49	255.04
737.82	254.72
738.15	254.36
738.48	254.00
738.81	253.60
739.14	253.31
739.47	253.04
739.80	252.71
740.13	252.43
740.46	252.16
740.79	251.81
741.12	251.50
741.45	251.17
741.78	250.82
742.11	250.52
742.44	250.20
742.77	249.91
743.10	249.62
743.43	249.33
743.75	248.91
744.08	248.76
744.41	248.51
744.74	248.25
745.07	247.98
745.40	247.74
745.73	247.58
746.06	247.28
746.39	246.98
746.71	246.73
747.04	246.45
747.37	246.15
747.70	245.90
748.03	245.65
748.36	245.43
748.68	245.17
749.01	244.91
749.34	244.70
749.67	244.47
750.00	244.25
750.33	244.12
750.65	243.94
750.98	243.56
751.31	243.33
751.64	243.11
751.97	242.96
752.29	242.75
752.62	242.42
752.95	242.18
753.28	242.01
753.60	241.82
753.93	241.64
754.26	241.46
754.59	241.23
754.91	241.02
755.24	240.80
755.57	240.61
755.90	240.46
756.22	240.24
756.55	240.01
756.88	239.79
757.20	239.53
757.53	239.31
757.86	239.15
758.19	238.97
758.51	238.79
758.84	238.56
759.17	238.39
759.49	238.30
759.82	238.18
760.15	237.98
760.47	237.82
760.80	237.63
761.13	237.46
761.45	237.31
761.78	237.15
762.11	237.01
762.43	236.85
762.76	236.69
763.08	236.57
763.41	236.46
763.74	236.30
764.06	236.15
764.39	236.00
764.71	235.87
765.04	235.71
765.37	235.57
765.69	235.44
766.02	235.27
766.34	235.10
766.67	234.93
767.00	234.87
767.32	234.80
767.65	234.75
767.97	234.63
768.30	234.54
768.62	234.43
768.95	234.27
769.27	234.16
769.60	234.04
769.92	233.89
770.25	233.74
770.57	233.67
770.90	233.56
771.22	233.47
771.55	233.32
771.87	233.25
772.20	233.14
772.52	233.13
772.85	233.17
773.17	233.10
773.50	233.00
773.82	232.86
774.15	232.67
774.47	232.51
774.80	232.43
775.12	232.30
775.45	232.19
775.77	232.12
776.09	232.02
776.42	231.92
776.74	231.86
777.07	231.80
777.39	231.70
777.72	231.58
778.04	231.53
778.36	231.48
778.69	231.42
779.01	231.36
779.33	231.20
779.66	231.02
779.98	230.96
780.31	230.89
780.63	230.88
780.95	230.89
781.28	230.83
781.60	230.75
781.92	230.68
782.25	230.62
782.57	230.58
782.89	230.52
783.22	230.52
783.54	230.44
783.86	230.42
784.19	230.37
784.51	230.37
784.83	230.31
785.16	230.26
785.48	230.18
785.80	230.13
786.12	230.08
786.45	230.03
786.77	229.97
787.09	229.93
787.42	229.84
787.74	229.82
788.06	229.77
788.38	229.73
788.71	229.67
789.03	229.65
789.35	229.62
789.67	229.59
789.99	229.52
790.32	229.48
790.64	229.42
790.96	229.47
791.28	229.41
791.61	229.34
791.93	229.31
792.25	229.28
792.57	229.30
792.89	229.27
793.21	229.25
793.54	229.20
793.86	229.17
794.18	229.13
794.50	229.06
794.82	229.01
795.14	228.99
795.47	228.98
795.79	228.96
796.11	228.90
796.43	228.81
796.75	228.79
797.07	228.74
797.39	228.69
797.71	228.60
798.04	228.57
798.36	228.54
798.68	228.49
799.00	228.46
799.32	228.38
799.64	228.35
799.96	228.30
800.28	228.28
800.60	228.24
800.92	228.23
801.24	228.20
801.56	228.23
801.89	228.21
802.21	228.17
802.53	228.12
802.85	228.10
803.17	228.16
803.49	228.08
803.81	228.05
804.13	228.02
804.45	227.95
804.77	227.91
805.09	227.87
805.41	227.83
805.73	227.78
806.05	227.74
806.37	227.71
806.69	227.66
807.01	227.62
807.33	227.60
807.65	227.52
807.97	227.53
808.28	227.45
808.60	227.39
808.92	227.36
809.24	227.37
809.56	227.32
809.88	227.29
810.20	227.28
810.52	227.28
810.84	227.27
811.16	227.26
811.48	227.21
811.80	227.23
812.12	227.21
812.43	227.17
812.75	227.13
813.07	227.08
813.39	227.06
813.71	227.03
814.03	226.99
814.35	226.98
814.67	226.91
814.98	226.87
815.30	226.84
815.62	226.82
815.94	226.75
816.26	226.76
816.58	226.70
816.89	226.71
817.21	226.67
817.53	226.64
817.85	226.60
818.17	226.58
818.48	226.52
818.80	226.54
819.12	226.54
819.44	226.52
819.76	226.52
820.07	226.50
820.39	226.46
820.71	226.46
821.03	226.48
821.34	226.46
821.66	226.43
821.98	226.43
822.30	226.39
822.61	226.44
822.93	226.43
823.25	226.40
823.57	226.37
823.88	226.35
824.20	226.30
824.52	226.30
824.83	226.32
825.15	226.30
825.47	226.29
825.79	226.27
826.10	226.27
826.42	226.24
826.74	226.23
827.05	226.22
827.37	226.23
827.69	226.19
828.00	226.16
828.32	226.19
828.64	226.19
828.95	226.23
829.27	226.20
829.58	226.14
829.90	226.17
830.22	226.18
830.53	226.17
830.85	226.19
831.17	226.16
831.48	226.12
831.80	226.12
832.11	226.10
832.43	226.12
832.75	226.10
833.06	226.16
833.38	226.15
833.69	226.18
834.01	226.16
834.32	226.14
834.64	226.15
834.96	226.13
835.27	226.11
835.59	226.11
835.90	226.06
836.22	226.09
836.53	226.07
836.85	226.06
837.16	226.13
837.48	226.09
837.79	226.12
838.11	226.14
838.42	226.14
838.74	226.16
839.05	226.14
839.37	226.15
839.68	226.07
840.00	226.04
840.31	226.02
840.63	225.98
840.94	226.00
841.26	225.97
841.57	225.96
841.88	225.98
842.20	225.94
842.51	225.93
842.83	225.91
843.14	225.97
843.46	225.95
843.77	225.90
844.08	225.93
844.40	225.91
844.71	225.87
845.03	225.84
845.34	225.80
845.65	225.78
845.97	225.74
846.28	225.75
846.60	225.78
846.91	225.76
847.22	225.77
847.54	225.78
847.85	225.80
848.16	225.81
848.48	225.76
848.79	225.81
849.10	225.82
849.42	225.83
849.73	225.74
850.04	225.73
850.36	225.70
850.67	225.69
850.98	225.71
851.30	225.70
851.61	225.69
851.92	225.70
852.23	225.72
852.55	225.72
852.86	225.70
853.17	225.68
853.49	225.70
853.80	225.67
854.11	225.69
854.42	225.68
854.74	225.68
855.05	225.68
855.36	225.65
855.67	225.59
855.99	225.59
856.30	225.70
856.61	225.70
856.92	225.67
857.23	225.66
857.55	225.63
857.86	225.63
858.17	225.65
858.48	225.62
858.79	225.59
859.11	225.65
859.42	225.64
859.73	225.61
860.04	225.63
860.35	225.63
860.66	225.58
860.98	225.56
861.29	225.54
861.60	225.57
861.91	225.57
862.22	225.62
862.53	225.61
862.84	225.52
863.16	225.57
863.47	225.60
863.78	225.63
864.09	225.64
864.40	225.63
864.71	225.63
865.02	225.61
865.33	225.61
865.64	225.57
865.95	225.58
866.27	225.68
866.58	225.64
866.89	225.66
867.20	225.67
867.51	225.63
867.82	225.62
868.13	225.62
868.44	225.57
868.75	225.59
869.06	225.56
869.37	225.56
869.68	225.52
869.99	225.49
870.30	225.48
870.61	225.49
870.92	225.50
871.23	225.48
871.54	225.53
871.85	225.59
872.16	225.57
872.47	225.58
872.78	225.52
873.09	225.54
873.40	225.51
873.71	225.53
874.02	225.59
874.33	225.58
874.64	225.55
874.95	225.60
875.26	225.54
875.56	225.56
875.87	225.52
876.18	225.51
876.49	225.66
876.80	225.65
877.11	225.61
877.42	225.59
877.73	225.62
878.04	225.61
878.35	225.59
878.66	225.63
878.96	225.60
879.27	225.59
879.58	225.57
879.89	225.58
880.20	225.60
880.51	225.59
880.82	225.58
881.12	225.61
881.43	225.58
881.74	225.59
882.05	225.53
882.36	225.57
882.67	225.55
882.97	225.42
883.28	225.38
883.59	225.39
883.90	225.42
884.21	225.40
884.51	225.38
884.82	225.33
885.13	225.31
885.44	225.31
885.74	225.33
886.05	225.32
886.36	225.30
886.67	225.28
886.98	225.27
887.28	225.28
887.59	225.30
887.90	225.29
888.20	225.29
888.51	225.34
888.82	225.30
889.13	225.30
889.43	225.38
889.74	225.38
890.05	225.38
890.35	225.37
890.66	225.33
890.97	225.32
891.28	225.30
891.58	225.32
891.89	225.32
892.20	225.31
892.50	225.32
892.81	225.34
893.12	225.32
893.42	225.29
893.73	225.32
894.04	225.29
894.34	225.29
894.65	225.28
894.95	225.27
895.26	225.28
895.57	225.31
895.87	225.24
896.18	225.26
896.48	225.27
896.79	225.29
897.10	225.30
897.40	225.30
897.71	225.30
898.01	225.27
898.32	225.25
898.63	225.23
898.93	225.22
899.24	225.21
899.54	225.21
899.85	225.21
900.15	225.18
900.46	225.19
900.76	225.22
901.07	225.24
901.38	225.22
901.68	225.27
901.99	225.20
902.29	225.23
902.60	225.24
902.90	225.22
903.21	225.18
903.51	225.20
903.82	225.22
904.12	225.24
904.43	225.26
904.73	225.28
905.03	225.30
905.34	225.39
905.64	225.36
905.95	225.35
906.25	225.36
906.56	225.35
906.86	225.33
907.17	225.30
907.47	225.31
907.77	225.32
908.08	225.29
908.38	225.35
908.69	225.32
908.99	225.34
909.30	225.36
909.60	225.36
909.90	225.35
910.21	225.35
910.51	225.34
910.81	225.33
911.12	225.34
911.42	225.34
911.73	225.22
912.03	225.25
912.33	225.24
912.64	225.25
912.94	225.27
913.24	225.27
913.55	225.28
913.85	225.25
914.15	225.27
914.46	225.29
914.76	225.27
915.06	225.28
915.37	225.24
915.67	225.22
915.97	225.27
916.27	225.26
916.58	225.28
916.88	225.29
917.18	225.28
917.49	225.34
917.79	225.34
918.09	225.36
918.39	225.38
918.70	225.42
919.00	225.40
919.30	225.41
919.60	225.41
919.91	225.41
920.21	225.43
920.51	225.40
920.81	225.38
921.12	225.39
921.42	225.37
921.72	225.40
922.02	225.42
922.32	225.43
922.63	225.40
922.93	225.43
923.23	225.44
923.53	225.40
923.83	225.34
924.13	225.35
924.44	225.37
924.74	225.39
925.04	225.41
925.34	225.41
925.64	225.41
925.94	225.38
926.24	225.40
926.55	225.38
926.85	225.41
927.15	225.44
927.45	225.41
927.75	225.40
928.05	225.39
928.35	225.36
928.65	225.34
928.95	225.40
929.26	225.35
929.56	225.34
929.86	225.37
930.16	225.33
930.46	225.29
930.76	225.25
931.06	225.19
931.36	225.15
931.66	225.16
931.96	225.12
932.26	225.13
932.56	225.09
932.86	225.11
933.16	225.11
933.46	225.06
933.76	225.05
934.06	225.07
934.36	225.10
934.66	225.13
934.96	225.08
935.26	225.03
935.56	225.03
935.86	225.03
936.16	225.05
936.46	225.07
936.76	225.06
937.06	225.07
937.36	225.11
937.66	225.15
937.96	225.15
938.26	225.14
938.56	225.15
938.86	225.18
939.16	225.21
939.46	225.21
939.76	225.23
940.06	225.21
940.35	225.21
940.65	225.16
940.95	225.15
941.25	225.20
941.55	225.19
941.85	225.19
942.15	225.21
942.45	225.20
942.75	225.20
943.04	225.22
943.34	225.24
943.64	225.20
943.94	225.19
944.24	225.21
944.54	225.23
944.84	225.20
945.13	225.16
945.43	225.13
945.73	225.13
946.03	225.10
946.33	225.10
946.62	225.07
946.92	225.08
947.22	225.06
947.52	225.06
947.82	225.10
948.11	225.09
948.41	225.08
948.71	225.07
949.01	225.09
949.31	225.12
949.60	225.11
949.90	225.15
950.20	225.15
950.50	225.11
950.79	225.07
951.09	225.11
951.39	225.11
951.69	225.08
951.98	225.08
952.28	225.09
952.58	225.11
952.87	225.13
953.17	225.15
953.47	225.14
953.76	225.10
954.06	225.06
954.36	225.06
954.66	225.02
954.95	225.07
955.25	225.07
955.55	225.06
955.84	225.03
956.14	225.04
956.44	225.02
956.73	225.01
957.03	225.05
957.32	225.06
957.62	225.03
957.92	225.08
958.21	225.05
958.51	225.17
958.81	225.17
959.10	225.18
959.40	225.21
959.69	225.24
959.99	225.26
960.29	225.31
960.58	225.30
960.88	225.32
961.17	225.28
961.47	225.26
961.76	225.21
962.06	225.21
962.36	225.16
962.65	225.15
962.95	225.18
963.24	225.18
963.54	225.16
963.83	225.18
964.13	225.16
964.42	225.15
964.72	225.08
965.01	225.08
965.31	225.09
965.60	225.02
965.90	225.04
966.19	225.00
966.49	224.97
966.78	224.98
967.08	225.01
967.37	225.02
967.67	225.00
967.96	225.04
968.26	225.05
968.55	225.06
968.85	225.08
969.14	225.04
969.43	225.02
969.73	225.01
970.02	225.04
970.32	225.06
970.61	225.07
970.91	225.03
971.20	225.03
971.49	224.95
971.79	225.00
972.08	224.93
972.38	224.94
972.67	224.95
972.96	224.98
973.26	224.94
973.55	224.98
973.85	224.98
974.14	224.98
974.43	224.97
974.73	224.97
975.02	224.96
975.31	224.98
975.61	224.99
975.90	224.98
976.19	224.92
976.49	224.92
976.78	224.92
977.07	224.92
977.37	224.95
977.66	224.98
977.95	224.95
978.24	224.96
978.54	225.01
978.83	225.00
979.12	224.97
979.42	224.97
979.71	224.92
980.00	224.92
980.29	224.90
980.59	224.89
980.88	224.90
981.17	224.91
981.46	224.91
981.76	224.91
982.05	224.96
982.34	224.99
982.63	224.98
982.93	224.99
983.22	224.96
983.51	224.98
983.80	224.97
984.09	225.00
984.39	224.98
984.68	224.97
984.97	224.97
985.26	224.95
985.55	224.96
985.85	224.96
986.14	225.01
986.43	225.01
986.72	225.02
987.01	225.00
987.30	224.97
987.59	224.95
987.89	224.96
988.18	224.91
988.47	224.87
988.76	224.88
989.05	224.87
989.34	224.89
989.63	224.89
989.92	224.90
990.22	224.89
990.51	224.91
990.80	224.86
991.09	224.88
991.38	224.87
991.67	224.88
991.96	224.87
992.25	224.87
992.54	224.84
992.83	224.84
993.12	224.88
993.41	224.92
993.70	224.99
993.99	224.99
994.28	225.01
994.58	225.07
994.87	225.04
995.16	225.03
995.45	225.00
995.74	224.94
996.03	224.94
996.32	224.95
996.61	224.98
996.90	225.01
997.19	224.98
997.48	225.01
997.77	224.99
998.06	224.98
998.34	224.95
998.63	224.97
998.92	224.93
999.21	224.95
999.50	224.92
999.79	224.87
1000.08	224.88
1000.37	224.89
1000.66	224.85
1000.95	224.88
1001.24	224.87
1001.53	224.87
1001.82	224.87
1002.11	224.87
1002.40	224.89
1002.68	224.88
1002.97	224.95
1003.26	224.97
1003.55	224.96
1003.84	224.98
1004.13	225.01
1004.42	225.00
1004.71	225.00
1004.99	225.02
1005.28	225.01
1005.57	225.01
1005.86	225.00
1006.15	224.96
1006.44	224.92
1006.72	224.94
1007.01	224.91
1007.30	224.93
1007.59	224.93
1007.88	224.94
1008.17	224.95
1008.45	224.89
1008.74	224.85
1009.03	224.79
1009.32	224.77
1009.60	224.78
1009.89	224.78
1010.18	224.77
1010.47	224.76
1010.76	224.77
1011.04	224.76
1011.33	224.78
1011.62	224.78
1011.91	224.76
1012.19	224.79
1012.48	224.81
1012.77	224.80
1013.05	224.87
1013.34	224.86
1013.63	224.86
1013.92	224.87
1014.20	224.86
1014.49	224.88
1014.78	224.90
1015.06	224.85
1015.35	224.87
1015.64	224.87
1015.92	224.88
1016.21	224.86
1016.50	224.88
1016.78	224.90
1017.07	224.91
1017.36	224.88
1017.64	224.89
1017.93	224.93
1018.22	224.93
1018.50	224.94
1018.79	224.95
1019.08	224.87
1019.36	224.91
1019.65	224.89
1019.93	224.91
1020.22	224.91
1020.51	224.97
1020.79	224.96
1021.08	225.06
1021.36	224.88
1021.65	224.88
1021.94	224.67
1022.22	225.47
1022.51	224.28
1022.79	225.17
1023.08	224.80
1023.36	226.28
1023.65	224.62
>>>>>End Processed Spectral Data<<<<<
