SpectraSuite Data File
++++++++++++++++++++++++++++++++++++
Date: Fri Feb 01 15:14:44 EST 2013
User: group
Dark Spectrum Present: No
Reference Spectrum Present: No
Number of Sampled Component Spectra: 1
Spectrometers: USB2E7196
Integration Time (usec): 35000 (USB2E7196)
Spectra Averaged: 100 (USB2E7196)
Boxcar Smoothing: 10 (USB2E7196)
Correct for Electrical Dark: No (USB2E7196)
Strobe/Lamp Enabled: No (USB2E7196)
Correct for Detector Non-linearity: No (USB2E7196)
Correct for Stray Light: No (USB2E7196)
Number of Pixels in Processed Spectrum: 2048
>>>>>Begin Processed Spectral Data<<<<<
339.09	0.00
339.48	215.53
339.86	216.78
340.24	218.20
340.63	219.20
341.01	222.63
341.39	222.14
341.78	223.26
342.16	224.63
342.54	224.27
342.93	213.50
343.31	224.29
343.69	224.81
344.07	225.27
344.46	225.70
344.84	226.09
345.22	226.32
345.60	226.57
345.99	226.76
346.37	226.90
346.75	227.06
347.13	227.13
347.52	227.20
347.90	227.25
348.28	227.30
348.66	227.36
349.05	227.35
349.43	227.40
349.81	227.41
350.19	227.46
350.57	227.50
350.96	227.59
351.34	227.67
351.72	227.74
352.10	227.81
352.48	227.90
352.87	227.95
353.25	228.01
353.63	228.08
354.01	228.14
354.39	228.18
354.77	228.26
355.15	228.36
355.54	228.37
355.92	228.44
356.30	228.51
356.68	228.64
357.06	228.69
357.44	228.72
357.82	228.82
358.20	228.89
358.58	228.96
358.97	229.04
359.35	229.12
359.73	229.21
360.11	229.27
360.49	229.32
360.87	229.34
361.25	229.37
361.63	229.44
362.01	229.48
362.39	229.55
362.77	229.57
363.15	229.59
363.53	229.64
363.91	229.66
364.29	229.69
364.67	229.58
365.05	229.58
365.43	229.61
365.81	229.63
366.19	229.66
366.57	229.70
366.95	229.70
367.33	229.66
367.71	229.66
368.09	229.66
368.47	229.59
368.85	229.59
369.23	229.57
369.61	229.50
369.99	229.53
370.37	229.49
370.75	229.51
371.13	229.44
371.51	229.37
371.89	229.31
372.27	229.24
372.65	229.25
373.03	229.18
373.41	229.13
373.78	229.05
374.16	228.93
374.54	228.84
374.92	228.76
375.30	228.69
375.68	228.58
376.06	228.50
376.44	228.44
376.82	228.39
377.19	228.32
377.57	228.23
377.95	228.10
378.33	228.00
378.71	227.89
379.09	227.84
379.47	227.77
379.84	227.71
380.22	227.64
380.60	227.52
380.98	227.49
381.36	227.39
381.73	227.29
382.11	227.25
382.49	227.17
382.87	227.11
383.25	227.05
383.62	227.10
384.00	227.03
384.38	227.01
384.76	226.96
385.13	226.96
385.51	226.92
385.89	226.86
386.27	226.84
386.64	226.76
387.02	226.69
387.40	226.66
387.78	226.60
388.15	226.57
388.53	226.53
388.91	226.47
389.29	226.45
389.66	226.46
390.04	226.42
390.42	226.42
390.79	226.39
391.17	226.39
391.55	226.23
391.92	226.23
392.30	226.23
392.68	226.20
393.05	226.20
393.43	226.21
393.81	226.22
394.18	226.20
394.56	226.23
394.94	226.27
395.31	226.28
395.69	226.38
396.06	226.42
396.44	226.49
396.82	226.54
397.19	226.65
397.57	226.68
397.95	226.75
398.32	226.79
398.70	226.84
399.07	226.91
399.45	227.00
399.82	227.06
400.20	227.13
400.58	227.24
400.95	227.28
401.33	227.41
401.70	227.61
402.08	227.74
402.45	227.89
402.83	228.00
403.20	228.14
403.58	228.20
403.95	228.37
404.33	228.51
404.71	228.66
405.08	228.81
405.46	228.98
405.83	229.16
406.21	229.32
406.58	229.53
406.96	229.69
407.33	229.90
407.70	230.11
408.08	230.38
408.45	230.57
408.83	230.82
409.20	231.04
409.58	231.22
409.95	231.48
410.33	231.74
410.70	232.02
411.08	232.34
411.45	232.67
411.82	232.96
412.20	233.34
412.57	233.75
412.95	234.06
413.32	234.45
413.69	234.84
414.07	235.30
414.44	235.78
414.82	236.29
415.19	236.85
415.56	237.40
415.94	237.98
416.31	238.63
416.68	239.25
417.06	239.97
417.43	240.63
417.81	241.41
418.18	242.20
418.55	243.04
418.93	243.91
419.30	244.84
419.67	245.78
420.04	246.72
420.42	247.69
420.79	248.90
421.16	250.07
421.54	251.31
421.91	252.53
422.28	253.77
422.66	255.07
423.03	256.41
423.40	257.75
423.77	259.11
424.15	260.53
424.52	262.01
424.89	263.59
425.26	265.13
425.64	266.55
426.01	268.14
426.38	269.77
426.75	271.44
427.13	273.11
427.50	274.88
427.87	276.74
428.24	278.62
428.61	280.34
428.99	282.27
429.36	284.33
429.73	286.38
430.10	288.40
430.47	290.46
430.85	292.54
431.22	294.74
431.59	297.19
431.96	299.45
432.33	301.96
432.70	304.31
433.08	307.12
433.45	309.82
433.82	312.43
434.19	315.35
434.56	318.14
434.93	320.82
435.30	323.45
435.68	326.37
436.05	329.21
436.42	331.99
436.79	334.51
437.16	337.24
437.53	340.12
437.90	342.96
438.27	345.74
438.64	348.61
439.01	351.25
439.38	353.43
439.75	355.59
440.13	358.09
440.50	360.45
440.87	362.30
441.24	364.24
441.61	366.39
441.98	367.90
442.35	369.73
442.72	371.58
443.09	373.41
443.46	374.39
443.83	374.96
444.20	375.47
444.57	376.30
444.94	376.54
445.31	376.81
445.68	377.13
446.05	377.19
446.42	376.78
446.79	376.33
447.16	375.89
447.53	375.57
447.90	374.39
448.27	373.24
448.64	371.70
449.01	370.52
449.37	368.54
449.74	366.59
450.11	364.31
450.48	361.80
450.85	359.24
451.22	357.06
451.59	355.03
451.96	353.08
452.33	350.50
452.70	348.15
453.07	345.33
453.43	342.39
453.80	339.64
454.17	336.98
454.54	334.39
454.91	331.67
455.28	328.98
455.65	326.52
456.02	324.11
456.38	321.96
456.75	319.28
457.12	317.07
457.49	314.85
457.86	312.73
458.23	310.89
458.59	308.88
458.96	306.82
459.33	304.98
459.70	303.12
460.07	301.61
460.43	299.92
460.80	298.29
461.17	296.87
461.54	295.36
461.91	293.90
462.27	292.48
462.64	291.23
463.01	289.87
463.38	288.51
463.74	287.12
464.11	285.93
464.48	284.93
464.85	283.77
465.21	282.93
465.58	281.99
465.95	280.89
466.32	279.99
466.68	279.11
467.05	278.22
467.42	277.30
467.78	276.34
468.15	275.45
468.52	274.80
468.88	273.97
469.25	273.18
469.62	272.57
469.98	271.91
470.35	271.28
470.72	270.68
471.08	270.08
471.45	269.51
471.82	268.95
472.18	268.33
472.55	267.90
472.92	267.34
473.28	266.87
473.65	266.39
474.02	265.93
474.38	265.52
474.75	265.16
475.11	264.81
475.48	264.56
475.85	264.30
476.21	264.10
476.58	263.89
476.94	263.72
477.31	263.53
477.67	263.35
478.04	263.19
478.41	263.11
478.77	263.10
479.14	263.02
479.50	263.03
479.87	263.10
480.23	263.17
480.60	263.25
480.96	263.32
481.33	263.51
481.69	263.66
482.06	263.86
482.42	264.06
482.79	264.31
483.15	264.62
483.52	265.00
483.88	265.33
484.25	265.69
484.61	266.11
484.98	266.53
485.34	267.11
485.71	267.72
486.07	268.33
486.44	268.89
486.80	269.59
487.17	270.31
487.53	271.11
487.90	271.96
488.26	272.85
488.62	273.82
488.99	274.79
489.35	275.87
489.72	276.99
490.08	278.19
490.44	279.42
490.81	280.74
491.17	282.03
491.54	283.50
491.90	285.08
492.26	286.74
492.63	288.49
492.99	290.26
493.36	292.16
493.72	294.17
494.08	296.26
494.45	298.51
494.81	300.86
495.17	303.28
495.54	305.82
495.90	308.52
496.26	311.33
496.63	314.32
496.99	317.40
497.35	320.66
497.72	324.09
498.08	327.61
498.44	331.26
498.80	335.19
499.17	339.20
499.53	343.29
499.89	347.64
500.26	352.12
500.62	356.75
500.98	361.74
501.34	366.78
501.71	372.11
502.07	377.56
502.43	383.19
502.79	388.99
503.16	395.05
503.52	401.28
503.88	407.69
504.24	414.30
504.60	421.17
504.97	428.27
505.33	435.56
505.69	443.23
506.05	451.07
506.41	459.03
506.78	467.22
507.14	475.69
507.50	484.47
507.86	493.48
508.22	502.71
508.59	511.91
508.95	521.56
509.31	531.36
509.67	541.45
510.03	551.73
510.39	562.28
510.75	573.08
511.12	584.08
511.48	595.39
511.84	606.92
512.20	618.47
512.56	630.47
512.92	642.66
513.28	655.02
513.64	667.50
514.00	680.13
514.37	693.04
514.73	706.08
515.09	719.11
515.45	732.45
515.81	746.03
516.17	760.04
516.53	774.10
516.89	788.25
517.25	802.45
517.61	816.93
517.97	831.41
518.33	845.87
518.69	860.75
519.05	875.73
519.41	890.94
519.77	906.53
520.13	922.01
520.49	937.41
520.85	952.88
521.21	968.61
521.57	984.98
521.93	1000.77
522.29	1017.14
522.65	1033.46
523.01	1049.74
523.37	1065.86
523.73	1082.06
524.09	1098.26
524.45	1114.65
524.81	1131.30
525.17	1148.17
525.53	1165.14
525.89	1182.08
526.25	1198.74
526.61	1215.19
526.97	1231.96
527.33	1248.46
527.68	1265.19
528.04	1281.71
528.40	1298.51
528.76	1315.71
529.12	1332.19
529.48	1349.14
529.84	1365.33
530.20	1381.89
530.56	1399.09
530.91	1416.54
531.27	1433.40
531.63	1449.92
531.99	1466.59
532.35	1482.74
532.71	1498.70
533.07	1515.04
533.42	1530.97
533.78	1547.15
534.14	1563.52
534.50	1578.85
534.86	1594.79
535.21	1609.90
535.57	1625.99
535.93	1641.47
536.29	1656.24
536.65	1671.56
537.00	1686.58
537.36	1702.04
537.72	1716.69
538.08	1731.08
538.44	1744.86
538.79	1758.83
539.15	1772.62
539.51	1786.53
539.87	1800.89
540.22	1814.72
540.58	1828.52
540.94	1841.92
541.29	1855.04
541.65	1867.91
542.01	1881.28
542.37	1893.67
542.72	1906.17
543.08	1917.90
543.44	1930.36
543.79	1941.69
544.15	1952.70
544.51	1964.20
544.87	1975.16
545.22	1986.10
545.58	1996.30
545.94	2006.14
546.29	2015.94
546.65	2025.80
547.01	2034.95
547.36	2043.81
547.72	2052.32
548.07	2060.26
548.43	2068.46
548.79	2076.43
549.14	2084.03
549.50	2091.40
549.86	2099.16
550.21	2106.53
550.57	2113.86
550.92	2120.35
551.28	2127.37
551.64	2134.36
551.99	2140.86
552.35	2147.08
552.70	2153.21
553.06	2159.24
553.41	2165.73
553.77	2171.80
554.13	2177.91
554.48	2184.11
554.84	2189.38
555.19	2194.60
555.55	2199.70
555.90	2204.17
556.26	2209.00
556.61	2213.63
556.97	2217.75
557.32	2221.75
557.68	2225.89
558.03	2230.22
558.39	2233.97
558.74	2238.65
559.10	2242.58
559.45	2246.26
559.81	2250.61
560.16	2254.31
560.52	2257.53
560.87	2260.82
561.23	2263.39
561.58	2266.30
561.94	2268.72
562.29	2271.14
562.64	2273.74
563.00	2276.39
563.35	2280.04
563.71	2283.14
564.06	2286.31
564.42	2289.09
564.77	2291.69
565.12	2293.94
565.48	2295.60
565.83	2297.50
566.19	2298.82
566.54	2299.62
566.89	2300.69
567.25	2301.05
567.60	2302.38
567.96	2303.88
568.31	2304.64
568.66	2305.68
569.02	2306.15
569.37	2306.42
569.72	2307.02
570.08	2307.01
570.43	2306.89
570.78	2306.00
571.14	2304.51
571.49	2302.99
571.84	2302.69
572.20	2301.30
572.55	2300.16
572.90	2298.63
573.26	2297.03
573.61	2295.21
573.96	2293.30
574.31	2290.09
574.67	2286.96
575.02	2283.25
575.37	2279.85
575.72	2275.88
576.08	2272.45
576.43	2269.05
576.78	2265.27
577.13	2262.18
577.49	2259.15
577.84	2255.57
578.19	2251.85
578.54	2247.95
578.90	2243.58
579.25	2237.99
579.60	2232.99
579.95	2228.07
580.30	2222.97
580.66	2217.62
581.01	2212.46
581.36	2207.51
581.71	2203.39
582.06	2198.86
582.42	2194.28
582.77	2188.93
583.12	2184.30
583.47	2179.42
583.82	2174.26
584.17	2168.96
584.53	2163.31
584.88	2157.47
585.23	2151.58
585.58	2146.10
585.93	2140.62
586.28	2135.77
586.63	2130.56
586.98	2125.45
587.34	2120.40
587.69	2115.38
588.04	2110.09
588.39	2104.34
588.74	2097.83
589.09	2091.61
589.44	2084.81
589.79	2078.77
590.14	2073.15
590.49	2066.69
590.84	2060.31
591.19	2054.29
591.54	2047.67
591.89	2040.14
592.25	2033.35
592.60	2026.09
592.95	2018.35
593.30	2010.90
593.65	2003.33
594.00	1996.27
594.35	1988.95
594.70	1980.93
595.05	1973.60
595.40	1966.28
595.75	1958.78
596.10	1952.38
596.45	1945.57
596.80	1939.25
597.15	1932.46
597.50	1925.24
597.85	1918.63
598.19	1911.92
598.54	1904.74
598.89	1898.13
599.24	1892.34
599.59	1885.48
599.94	1879.18
600.29	1872.84
600.64	1866.32
600.99	1858.71
601.34	1851.74
601.69	1844.70
602.04	1837.78
602.39	1830.24
602.74	1823.37
603.08	1816.53
603.43	1809.83
603.78	1802.39
604.13	1795.02
604.48	1787.73
604.83	1780.90
605.18	1773.86
605.53	1765.87
605.87	1757.77
606.22	1750.60
606.57	1742.53
606.92	1735.26
607.27	1728.07
607.62	1721.02
607.96	1713.50
608.31	1706.93
608.66	1699.27
609.01	1691.71
609.36	1684.07
609.70	1676.18
610.05	1667.97
610.40	1660.20
610.75	1651.97
611.10	1644.27
611.44	1635.98
611.79	1627.93
612.14	1619.22
612.49	1610.07
612.83	1601.79
613.18	1593.86
613.53	1585.70
613.88	1577.19
614.22	1569.00
614.57	1560.46
614.92	1552.47
615.27	1544.97
615.61	1536.65
615.96	1528.70
616.31	1521.12
616.65	1513.74
617.00	1506.07
617.35	1498.49
617.70	1490.27
618.04	1481.61
618.39	1473.47
618.74	1465.91
619.08	1457.63
619.43	1450.11
619.78	1443.22
620.12	1435.94
620.47	1428.28
620.82	1420.10
621.16	1412.75
621.51	1405.24
621.85	1397.60
622.20	1389.21
622.55	1380.93
622.89	1373.13
623.24	1365.58
623.59	1358.10
623.93	1350.67
624.28	1343.61
624.62	1336.16
624.97	1328.95
625.32	1322.32
625.66	1315.35
626.01	1308.12
626.35	1300.67
626.70	1292.83
627.04	1285.13
627.39	1277.32
627.73	1269.92
628.08	1263.01
628.43	1255.52
628.77	1247.94
629.12	1240.38
629.46	1233.18
629.81	1225.71
630.15	1218.38
630.50	1210.89
630.84	1202.79
631.19	1194.77
631.53	1187.21
631.88	1179.69
632.22	1172.19
632.57	1164.84
632.91	1157.29
633.26	1149.92
633.60	1142.65
633.95	1135.68
634.29	1128.63
634.64	1122.00
634.98	1114.62
635.32	1107.54
635.67	1101.13
636.01	1094.57
636.36	1087.73
636.70	1081.23
637.05	1074.73
637.39	1068.33
637.73	1061.92
638.08	1056.07
638.42	1050.12
638.77	1043.72
639.11	1037.16
639.45	1030.81
639.80	1024.15
640.14	1017.69
640.49	1011.15
640.83	1004.73
641.17	998.36
641.52	992.02
641.86	985.64
642.20	979.91
642.55	973.61
642.89	967.04
643.23	960.55
643.58	954.86
643.92	948.61
644.26	942.52
644.61	936.56
644.95	930.50
645.29	923.86
645.64	917.18
645.98	910.84
646.32	904.97
646.66	898.93
647.01	893.21
647.35	887.60
647.69	881.77
648.04	876.34
648.38	870.67
648.72	864.64
649.06	858.62
649.41	852.66
649.75	846.61
650.09	840.70
650.43	834.91
650.78	828.71
651.12	822.76
651.46	817.11
651.80	811.30
652.14	805.95
652.49	800.61
652.83	795.44
653.17	789.71
653.51	784.02
653.85	778.57
654.20	772.91
654.54	766.86
654.88	761.16
655.22	755.37
655.56	749.65
655.90	744.21
656.25	738.94
656.59	733.63
656.93	728.55
657.27	723.39
657.61	717.95
657.95	712.93
658.29	707.86
658.64	702.58
658.98	697.38
659.32	691.93
659.66	686.78
660.00	681.44
660.34	676.50
660.68	671.53
661.02	666.58
661.36	661.83
661.70	657.38
662.05	653.01
662.39	648.64
662.73	644.24
663.07	639.93
663.41	635.40
663.75	630.92
664.09	626.43
664.43	622.14
664.77	618.02
665.11	613.73
665.45	609.64
665.79	605.55
666.13	601.41
666.47	597.29
666.81	593.04
667.15	588.97
667.49	585.16
667.83	581.44
668.17	577.45
668.51	573.41
668.85	569.38
669.19	565.59
669.53	561.71
669.87	557.81
670.21	554.06
670.55	550.48
670.89	547.09
671.23	543.65
671.57	540.11
671.91	536.58
672.25	533.15
672.58	529.62
672.92	526.27
673.26	523.06
673.60	519.92
673.94	516.83
674.28	513.97
674.62	511.03
674.96	507.90
675.30	505.04
675.64	502.14
675.97	499.38
676.31	496.54
676.65	493.65
676.99	490.95
677.33	488.20
677.67	485.39
678.01	482.33
678.34	479.35
678.68	476.48
679.02	473.70
679.36	470.93
679.70	468.26
680.04	465.47
680.37	462.65
680.71	459.91
681.05	457.34
681.39	454.60
681.73	451.95
682.06	449.47
682.40	446.92
682.74	444.40
683.08	441.85
683.42	439.31
683.75	436.79
684.09	434.26
684.43	431.79
684.77	429.34
685.10	427.02
685.44	424.78
685.78	422.53
686.12	420.27
686.45	418.01
686.79	415.70
687.13	413.52
687.46	411.40
687.80	409.22
688.14	407.05
688.48	405.01
688.81	402.74
689.15	400.57
689.49	398.41
689.82	396.35
690.16	394.30
690.50	392.30
690.83	390.38
691.17	388.44
691.51	386.53
691.84	384.67
692.18	382.75
692.52	380.75
692.85	378.85
693.19	377.00
693.52	375.21
693.86	373.41
694.20	371.65
694.53	369.83
694.87	368.02
695.21	366.24
695.54	364.42
695.88	362.77
696.21	361.06
696.55	359.42
696.88	357.75
697.22	356.08
697.56	354.50
697.89	352.87
698.23	351.22
698.56	349.65
698.90	348.05
699.23	346.39
699.57	344.88
699.90	343.31
700.24	341.78
700.58	340.21
700.91	338.73
701.25	337.30
701.58	335.95
701.92	334.61
702.25	333.21
702.59	331.79
702.92	330.44
703.26	329.16
703.59	327.88
703.93	326.73
704.26	325.49
704.60	324.17
704.93	322.90
705.26	321.68
705.60	320.51
705.93	319.40
706.27	318.40
706.60	317.32
706.94	316.26
707.27	315.12
707.61	314.11
707.94	313.09
708.27	311.99
708.61	310.94
708.94	309.89
709.28	308.90
709.61	307.97
709.94	307.00
710.28	305.97
710.61	304.98
710.95	303.90
711.28	303.00
711.61	302.05
711.95	301.12
712.28	300.15
712.61	299.15
712.95	298.19
713.28	297.32
713.61	296.45
713.95	295.59
714.28	294.77
714.61	293.87
714.95	293.03
715.28	292.18
715.61	291.26
715.95	290.40
716.28	289.57
716.61	288.78
716.95	287.97
717.28	287.24
717.61	286.46
717.94	285.70
718.28	284.90
718.61	284.21
718.94	283.53
719.27	282.90
719.61	282.25
719.94	281.60
720.27	280.87
720.60	280.17
720.94	279.52
721.27	278.93
721.60	278.38
721.93	277.77
722.27	277.23
722.60	276.69
722.93	276.16
723.26	275.63
723.59	275.06
723.93	274.54
724.26	273.96
724.59	273.41
724.92	272.90
725.25	272.41
725.59	271.83
725.92	271.36
726.25	270.82
726.58	270.37
726.91	269.91
727.24	269.46
727.57	269.05
727.91	268.50
728.24	268.02
728.57	267.46
728.90	267.04
729.23	266.56
729.56	266.15
729.89	265.67
730.22	265.18
730.55	264.73
730.89	264.28
731.22	263.84
731.55	263.46
731.88	263.02
732.21	262.54
732.54	262.15
732.87	261.65
733.20	261.27
733.53	260.83
733.86	260.40
734.19	259.97
734.52	259.53
734.85	259.24
735.18	258.81
735.51	258.51
735.84	258.10
736.17	257.74
736.50	257.33
736.83	257.09
737.16	256.75
737.49	256.38
737.82	256.02
738.15	255.71
738.48	255.38
738.81	255.07
739.14	254.79
739.47	254.45
739.80	254.17
740.13	253.84
740.46	253.54
740.79	253.22
741.12	252.94
741.45	252.67
741.78	252.34
742.11	252.06
742.44	251.74
742.77	251.48
743.10	251.15
743.43	250.86
743.75	250.48
744.08	250.32
744.41	250.06
744.74	249.81
745.07	249.50
745.40	249.25
745.73	248.97
746.06	248.70
746.39	248.43
746.71	248.15
747.04	247.91
747.37	247.62
747.70	247.37
748.03	247.11
748.36	246.90
748.68	246.66
749.01	246.40
749.34	246.18
749.67	245.93
750.00	245.71
750.33	245.54
750.65	245.34
750.98	245.03
751.31	244.80
751.64	244.62
751.97	244.48
752.29	244.21
752.62	243.98
752.95	243.78
753.28	243.58
753.60	243.37
753.93	243.19
754.26	243.03
754.59	242.82
754.91	242.60
755.24	242.38
755.57	242.15
755.90	241.99
756.22	241.78
756.55	241.61
756.88	241.42
757.20	241.15
757.53	240.94
757.86	240.77
758.19	240.62
758.51	240.40
758.84	240.20
759.17	240.04
759.49	239.89
759.82	239.77
760.15	239.63
760.47	239.49
760.80	239.32
761.13	239.18
761.45	239.05
761.78	238.93
762.11	238.82
762.43	238.70
762.76	238.60
763.08	238.46
763.41	238.33
763.74	238.20
764.06	238.11
764.39	237.99
764.71	237.84
765.04	237.70
765.37	237.59
765.69	237.46
766.02	237.35
766.34	237.21
766.67	237.06
767.00	236.98
767.32	236.93
767.65	236.85
767.97	236.72
768.30	236.61
768.62	236.46
768.95	236.31
769.27	236.20
769.60	236.07
769.92	235.96
770.25	235.85
770.57	235.74
770.90	235.62
771.22	235.51
771.55	235.47
771.87	235.38
772.20	235.27
772.52	235.23
772.85	235.24
773.17	235.17
773.50	235.06
773.82	234.94
774.15	234.82
774.47	234.68
774.80	234.59
775.12	234.49
775.45	234.41
775.77	234.36
776.09	234.27
776.42	234.19
776.74	234.17
777.07	234.05
777.39	233.96
777.72	233.89
778.04	233.83
778.36	233.73
778.69	233.65
779.01	233.59
779.33	233.50
779.66	233.34
779.98	233.26
780.31	233.21
780.63	233.19
780.95	233.11
781.28	233.05
781.60	232.98
781.92	232.92
782.25	232.87
782.57	232.79
782.89	232.73
783.22	232.66
783.54	232.53
783.86	232.52
784.19	232.47
784.51	232.45
784.83	232.39
785.16	232.29
785.48	232.24
785.80	232.17
786.12	232.09
786.45	232.01
786.77	232.00
787.09	231.96
787.42	231.85
787.74	231.83
788.06	231.77
788.38	231.73
788.71	231.69
789.03	231.67
789.35	231.65
789.67	231.60
789.99	231.57
790.32	231.55
790.64	231.49
790.96	231.49
791.28	231.44
791.61	231.43
791.93	231.43
792.25	231.41
792.57	231.45
792.89	231.39
793.21	231.41
793.54	231.35
793.86	231.32
794.18	231.32
794.50	231.22
794.82	231.22
795.14	231.21
795.47	231.23
795.79	231.18
796.11	231.13
796.43	231.09
796.75	231.05
797.07	231.04
797.39	231.00
797.71	230.95
798.04	230.92
798.36	230.86
798.68	230.82
799.00	230.81
799.32	230.73
799.64	230.71
799.96	230.66
800.28	230.62
800.60	230.60
800.92	230.57
801.24	230.57
801.56	230.54
801.89	230.50
802.21	230.47
802.53	230.44
802.85	230.46
803.17	230.49
803.49	230.48
803.81	230.44
804.13	230.41
804.45	230.34
804.77	230.29
805.09	230.27
805.41	230.23
805.73	230.13
806.05	230.10
806.37	230.09
806.69	230.06
807.01	230.02
807.33	230.00
807.65	229.95
807.97	229.98
808.28	229.93
808.60	229.91
808.92	229.87
809.24	229.88
809.56	229.81
809.88	229.75
810.20	229.70
810.52	229.70
810.84	229.68
811.16	229.67
811.48	229.65
811.80	229.66
812.12	229.66
812.43	229.69
812.75	229.67
813.07	229.64
813.39	229.64
813.71	229.61
814.03	229.54
814.35	229.54
814.67	229.48
814.98	229.46
815.30	229.41
815.62	229.37
815.94	229.30
816.26	229.32
816.58	229.27
816.89	229.26
817.21	229.20
817.53	229.17
817.85	229.15
818.17	229.15
818.48	229.08
818.80	229.08
819.12	229.02
819.44	228.98
819.76	228.93
820.07	228.89
820.39	228.85
820.71	228.88
821.03	228.84
821.34	228.79
821.66	228.76
821.98	228.77
822.30	228.73
822.61	228.75
822.93	228.70
823.25	228.69
823.57	228.65
823.88	228.64
824.20	228.65
824.52	228.65
824.83	228.61
825.15	228.62
825.47	228.59
825.79	228.60
826.10	228.59
826.42	228.57
826.74	228.57
827.05	228.55
827.37	228.52
827.69	228.49
828.00	228.47
828.32	228.45
828.64	228.41
828.95	228.44
829.27	228.40
829.58	228.35
829.90	228.34
830.22	228.33
830.53	228.32
830.85	228.29
831.17	228.24
831.48	228.22
831.80	228.19
832.11	228.17
832.43	228.12
832.75	228.11
833.06	228.18
833.38	228.10
833.69	228.10
834.01	228.10
834.32	228.09
834.64	228.11
834.96	228.11
835.27	228.13
835.59	228.09
835.90	228.12
836.22	228.11
836.53	228.10
836.85	228.10
837.16	228.18
837.48	228.17
837.79	228.21
838.11	228.20
838.42	228.21
838.74	228.19
839.05	228.19
839.37	228.18
839.68	228.12
840.00	228.14
840.31	228.16
840.63	228.12
840.94	228.09
841.26	228.07
841.57	228.08
841.88	228.05
842.20	228.08
842.51	228.02
842.83	228.05
843.14	228.14
843.46	228.15
843.77	228.10
844.08	228.12
844.40	228.11
844.71	228.12
845.03	228.11
845.34	228.13
845.65	228.13
845.97	228.13
846.28	228.13
846.60	228.12
846.91	228.12
847.22	228.14
847.54	228.19
847.85	228.16
848.16	228.14
848.48	228.11
848.79	228.09
849.10	228.12
849.42	228.12
849.73	228.01
850.04	227.98
850.36	227.93
850.67	227.92
850.98	227.93
851.30	227.90
851.61	227.91
851.92	227.90
852.23	227.92
852.55	227.94
852.86	227.97
853.17	227.99
853.49	227.99
853.80	228.01
854.11	228.02
854.42	228.06
854.74	228.06
855.05	228.10
855.36	228.08
855.67	228.09
855.99	228.08
856.30	228.19
856.61	228.21
856.92	228.20
857.23	228.18
857.55	228.16
857.86	228.18
858.17	228.15
858.48	228.12
858.79	228.10
859.11	228.09
859.42	228.03
859.73	228.00
860.04	227.98
860.35	227.92
860.66	227.86
860.98	227.85
861.29	227.83
861.60	227.79
861.91	227.82
862.22	227.77
862.53	227.74
862.84	227.64
863.16	227.62
863.47	227.63
863.78	227.62
864.09	227.59
864.40	227.58
864.71	227.59
865.02	227.61
865.33	227.58
865.64	227.55
865.95	227.56
866.27	227.60
866.58	227.57
866.89	227.59
867.20	227.62
867.51	227.58
867.82	227.56
868.13	227.60
868.44	227.55
868.75	227.59
869.06	227.59
869.37	227.61
869.68	227.58
869.99	227.59
870.30	227.61
870.61	227.62
870.92	227.60
871.23	227.56
871.54	227.54
871.85	227.55
872.16	227.59
872.47	227.58
872.78	227.52
873.09	227.53
873.40	227.52
873.71	227.53
874.02	227.54
874.33	227.52
874.64	227.48
874.95	227.49
875.26	227.48
875.56	227.50
875.87	227.47
876.18	227.46
876.49	227.55
876.80	227.53
877.11	227.54
877.42	227.55
877.73	227.56
878.04	227.58
878.35	227.59
878.66	227.56
878.96	227.55
879.27	227.57
879.58	227.56
879.89	227.57
880.20	227.58
880.51	227.59
880.82	227.61
881.12	227.64
881.43	227.62
881.74	227.59
882.05	227.58
882.36	227.58
882.67	227.60
882.97	227.47
883.28	227.47
883.59	227.47
883.90	227.48
884.21	227.51
884.51	227.49
884.82	227.49
885.13	227.50
885.44	227.54
885.74	227.55
886.05	227.52
886.36	227.52
886.67	227.48
886.98	227.51
887.28	227.53
887.59	227.51
887.90	227.51
888.20	227.54
888.51	227.54
888.82	227.52
889.13	227.54
889.43	227.65
889.74	227.64
890.05	227.64
890.35	227.65
890.66	227.61
890.97	227.59
891.28	227.54
891.58	227.53
891.89	227.50
892.20	227.48
892.50	227.50
892.81	227.50
893.12	227.51
893.42	227.50
893.73	227.48
894.04	227.52
894.34	227.58
894.65	227.56
894.95	227.54
895.26	227.57
895.57	227.57
895.87	227.51
896.18	227.50
896.48	227.49
896.79	227.47
897.10	227.47
897.40	227.50
897.71	227.54
898.01	227.52
898.32	227.56
898.63	227.55
898.93	227.56
899.24	227.54
899.54	227.54
899.85	227.50
900.15	227.51
900.46	227.50
900.76	227.45
901.07	227.43
901.38	227.42
901.68	227.39
901.99	227.34
902.29	227.28
902.60	227.28
902.90	227.28
903.21	227.30
903.51	227.31
903.82	227.30
904.12	227.31
904.43	227.34
904.73	227.30
905.03	227.28
905.34	227.34
905.64	227.32
905.95	227.33
906.25	227.32
906.56	227.30
906.86	227.28
907.17	227.27
907.47	227.30
907.77	227.29
908.08	227.27
908.38	227.29
908.69	227.31
908.99	227.28
909.30	227.27
909.60	227.24
909.90	227.22
910.21	227.22
910.51	227.21
910.81	227.20
911.12	227.20
911.42	227.23
911.73	227.17
912.03	227.16
912.33	227.15
912.64	227.18
912.94	227.18
913.24	227.17
913.55	227.17
913.85	227.16
914.15	227.18
914.46	227.19
914.76	227.18
915.06	227.19
915.37	227.23
915.67	227.22
915.97	227.25
916.27	227.23
916.58	227.22
916.88	227.21
917.18	227.20
917.49	227.25
917.79	227.28
918.09	227.27
918.39	227.30
918.70	227.33
919.00	227.31
919.30	227.37
919.60	227.37
919.91	227.39
920.21	227.39
920.51	227.38
920.81	227.41
921.12	227.43
921.42	227.43
921.72	227.46
922.02	227.50
922.32	227.51
922.63	227.53
922.93	227.58
923.23	227.58
923.53	227.60
923.83	227.56
924.13	227.57
924.44	227.58
924.74	227.59
925.04	227.63
925.34	227.63
925.64	227.60
925.94	227.61
926.24	227.63
926.55	227.63
926.85	227.65
927.15	227.64
927.45	227.66
927.75	227.65
928.05	227.63
928.35	227.59
928.65	227.60
928.95	227.62
929.26	227.60
929.56	227.64
929.86	227.66
930.16	227.65
930.46	227.61
930.76	227.66
931.06	227.62
931.36	227.57
931.66	227.57
931.96	227.58
932.26	227.58
932.56	227.56
932.86	227.57
933.16	227.56
933.46	227.54
933.76	227.52
934.06	227.55
934.36	227.56
934.66	227.60
934.96	227.59
935.26	227.58
935.56	227.57
935.86	227.53
936.16	227.48
936.46	227.48
936.76	227.47
937.06	227.43
937.36	227.44
937.66	227.44
937.96	227.46
938.26	227.41
938.56	227.38
938.86	227.35
939.16	227.37
939.46	227.37
939.76	227.37
940.06	227.36
940.35	227.34
940.65	227.32
940.95	227.29
941.25	227.22
941.55	227.21
941.85	227.19
942.15	227.21
942.45	227.22
942.75	227.20
943.04	227.19
943.34	227.21
943.64	227.18
943.94	227.17
944.24	227.15
944.54	227.17
944.84	227.15
945.13	227.15
945.43	227.10
945.73	227.09
946.03	227.08
946.33	227.08
946.62	227.05
946.92	227.04
947.22	227.05
947.52	227.07
947.82	227.07
948.11	227.06
948.41	227.02
948.71	226.98
949.01	227.01
949.31	226.99
949.60	226.94
949.90	226.95
950.20	226.97
950.50	226.97
950.79	226.98
951.09	227.02
951.39	227.03
951.69	227.02
951.98	227.05
952.28	227.06
952.58	227.04
952.87	227.05
953.17	227.05
953.47	227.03
953.76	227.03
954.06	227.04
954.36	227.05
954.66	227.05
954.95	227.10
955.25	227.11
955.55	227.16
955.84	227.16
956.14	227.20
956.44	227.17
956.73	227.15
957.03	227.15
957.32	227.17
957.62	227.20
957.92	227.24
958.21	227.24
958.51	227.35
958.81	227.37
959.10	227.38
959.40	227.44
959.69	227.45
959.99	227.50
960.29	227.53
960.58	227.53
960.88	227.58
961.17	227.58
961.47	227.58
961.76	227.57
962.06	227.62
962.36	227.59
962.65	227.61
962.95	227.64
963.24	227.66
963.54	227.64
963.83	227.63
964.13	227.62
964.42	227.60
964.72	227.49
965.01	227.49
965.31	227.53
965.60	227.51
965.90	227.59
966.19	227.56
966.49	227.53
966.78	227.56
967.08	227.57
967.37	227.57
967.67	227.57
967.96	227.62
968.26	227.59
968.55	227.62
968.85	227.59
969.14	227.56
969.43	227.57
969.73	227.56
970.02	227.53
970.32	227.54
970.61	227.54
970.91	227.55
971.20	227.53
971.49	227.47
971.79	227.47
972.08	227.38
972.38	227.39
972.67	227.37
972.96	227.34
973.26	227.28
973.55	227.28
973.85	227.24
974.14	227.18
974.43	227.16
974.73	227.11
975.02	227.09
975.31	227.09
975.61	227.05
975.90	227.02
976.19	227.00
976.49	226.95
976.78	226.93
977.07	226.91
977.37	226.92
977.66	226.91
977.95	226.92
978.24	226.92
978.54	226.92
978.83	226.90
979.12	226.91
979.42	226.91
979.71	226.88
980.00	226.90
980.29	226.87
980.59	226.86
980.88	226.91
981.17	226.93
981.46	226.93
981.76	226.91
982.05	226.96
982.34	226.98
982.63	227.02
982.93	227.05
983.22	227.04
983.51	227.04
983.80	227.06
984.09	227.03
984.39	227.01
984.68	227.00
984.97	227.00
985.26	227.00
985.55	227.01
985.85	226.99
986.14	226.98
986.43	227.04
986.72	227.04
987.01	226.98
987.30	226.99
987.59	226.98
987.89	227.01
988.18	226.97
988.47	226.97
988.76	226.97
989.05	226.94
989.34	226.97
989.63	227.00
989.92	227.01
990.22	227.01
990.51	227.01
990.80	227.00
991.09	227.05
991.38	227.04
991.67	227.07
991.96	227.08
992.25	227.08
992.54	227.07
992.83	227.08
993.12	227.11
993.41	227.14
993.70	227.20
993.99	227.25
994.28	227.29
994.58	227.33
994.87	227.33
995.16	227.33
995.45	227.30
995.74	227.26
996.03	227.28
996.32	227.30
996.61	227.35
996.90	227.35
997.19	227.31
997.48	227.32
997.77	227.27
998.06	227.29
998.34	227.29
998.63	227.28
998.92	227.26
999.21	227.28
999.50	227.27
999.79	227.23
1000.08	227.19
1000.37	227.18
1000.66	227.17
1000.95	227.18
1001.24	227.19
1001.53	227.24
1001.82	227.25
1002.11	227.22
1002.40	227.23
1002.68	227.26
1002.97	227.33
1003.26	227.33
1003.55	227.31
1003.84	227.35
1004.13	227.38
1004.42	227.37
1004.71	227.39
1004.99	227.39
1005.28	227.39
1005.57	227.38
1005.86	227.37
1006.15	227.35
1006.44	227.36
1006.72	227.37
1007.01	227.32
1007.30	227.34
1007.59	227.26
1007.88	227.23
1008.17	227.22
1008.45	227.19
1008.74	227.13
1009.03	227.12
1009.32	227.11
1009.60	227.12
1009.89	227.09
1010.18	227.05
1010.47	227.04
1010.76	227.03
1011.04	227.02
1011.33	227.02
1011.62	227.03
1011.91	227.04
1012.19	227.05
1012.48	227.03
1012.77	226.97
1013.05	227.04
1013.34	227.00
1013.63	227.02
1013.92	227.05
1014.20	227.07
1014.49	227.07
1014.78	227.08
1015.06	227.02
1015.35	227.05
1015.64	227.03
1015.92	227.03
1016.21	227.02
1016.50	227.03
1016.78	227.05
1017.07	227.06
1017.36	227.06
1017.64	227.03
1017.93	227.04
1018.22	227.03
1018.50	227.02
1018.79	227.08
1019.08	227.02
1019.36	227.03
1019.65	227.02
1019.93	227.01
1020.22	227.02
1020.51	227.06
1020.79	227.03
1021.08	227.25
1021.36	226.57
1021.65	227.68
1021.94	226.63
1022.22	226.95
1022.51	226.56
1022.79	227.24
1023.08	226.95
1023.36	228.01
1023.65	226.42
>>>>>End Processed Spectral Data<<<<<
