SpectraSuite Data File
++++++++++++++++++++++++++++++++++++
Date: Fri Feb 01 15:23:22 EST 2013
User: group
Dark Spectrum Present: No
Reference Spectrum Present: No
Number of Sampled Component Spectra: 1
Spectrometers: USB2E7196
Integration Time (usec): 35000 (USB2E7196)
Spectra Averaged: 100 (USB2E7196)
Boxcar Smoothing: 10 (USB2E7196)
Correct for Electrical Dark: No (USB2E7196)
Strobe/Lamp Enabled: No (USB2E7196)
Correct for Detector Non-linearity: No (USB2E7196)
Correct for Stray Light: No (USB2E7196)
Number of Pixels in Processed Spectrum: 2048
>>>>>Begin Processed Spectral Data<<<<<
339.09	0.00
339.48	215.10
339.86	216.67
340.24	217.64
340.63	218.80
341.01	222.06
341.39	222.29
341.78	222.88
342.16	224.19
342.54	224.86
342.93	213.35
343.31	224.14
343.69	224.67
344.07	225.13
344.46	225.56
344.84	225.97
345.22	226.19
345.60	226.42
345.99	226.64
346.37	226.78
346.75	226.91
347.13	226.96
347.52	227.05
347.90	227.12
348.28	227.16
348.66	227.21
349.05	227.18
349.43	227.22
349.81	227.31
350.19	227.34
350.57	227.39
350.96	227.45
351.34	227.55
351.72	227.65
352.10	227.74
352.48	227.83
352.87	227.85
353.25	227.95
353.63	228.01
354.01	228.08
354.39	228.18
354.77	228.20
355.15	228.29
355.54	228.35
355.92	228.40
356.30	228.50
356.68	228.63
357.06	228.70
357.44	228.76
357.82	228.77
358.20	228.84
358.58	228.89
358.97	228.94
359.35	229.01
359.73	229.05
360.11	229.12
360.49	229.17
360.87	229.21
361.25	229.26
361.63	229.34
362.01	229.39
362.39	229.38
362.77	229.46
363.15	229.51
363.53	229.54
363.91	229.55
364.29	229.56
364.67	229.46
365.05	229.48
365.43	229.51
365.81	229.54
366.19	229.57
366.57	229.63
366.95	229.64
367.33	229.61
367.71	229.64
368.09	229.62
368.47	229.59
368.85	229.57
369.23	229.55
369.61	229.51
369.99	229.51
370.37	229.50
370.75	229.52
371.13	229.40
371.51	229.33
371.89	229.29
372.27	229.26
372.65	229.23
373.03	229.13
373.41	229.07
373.78	229.00
374.16	228.92
374.54	228.82
374.92	228.75
375.30	228.69
375.68	228.58
376.06	228.52
376.44	228.42
376.82	228.37
377.19	228.28
377.57	228.19
377.95	228.04
378.33	227.97
378.71	227.82
379.09	227.79
379.47	227.72
379.84	227.63
380.22	227.53
380.60	227.45
380.98	227.40
381.36	227.31
381.73	227.24
382.11	227.21
382.49	227.14
382.87	227.05
383.25	226.98
383.62	227.05
384.00	226.97
384.38	226.95
384.76	226.90
385.13	226.89
385.51	226.83
385.89	226.80
386.27	226.74
386.64	226.71
387.02	226.66
387.40	226.62
387.78	226.57
388.15	226.54
388.53	226.48
388.91	226.45
389.29	226.41
389.66	226.40
390.04	226.34
390.42	226.34
390.79	226.31
391.17	226.30
391.55	226.17
391.92	226.18
392.30	226.17
392.68	226.16
393.05	226.17
393.43	226.16
393.81	226.18
394.18	226.20
394.56	226.23
394.94	226.27
395.31	226.30
395.69	226.39
396.06	226.44
396.44	226.50
396.82	226.53
397.19	226.63
397.57	226.68
397.95	226.78
398.32	226.80
398.70	226.89
399.07	226.96
399.45	227.04
399.82	227.09
400.20	227.16
400.58	227.26
400.95	227.30
401.33	227.44
401.70	227.60
402.08	227.67
402.45	227.75
402.83	227.86
403.20	227.97
403.58	228.07
403.95	228.21
404.33	228.37
404.71	228.55
405.08	228.75
405.46	228.90
405.83	229.04
406.21	229.19
406.58	229.37
406.96	229.57
407.33	229.75
407.70	230.00
408.08	230.29
408.45	230.50
408.83	230.74
409.20	230.92
409.58	231.12
409.95	231.40
410.33	231.70
410.70	231.96
411.08	232.28
411.45	232.58
411.82	232.88
412.20	233.24
412.57	233.65
412.95	233.95
413.32	234.34
413.69	234.74
414.07	235.23
414.44	235.69
414.82	236.18
415.19	236.73
415.56	237.26
415.94	237.81
416.31	238.42
416.68	239.02
417.06	239.77
417.43	240.45
417.81	241.22
418.18	242.02
418.55	242.90
418.93	243.76
419.30	244.64
419.67	245.59
420.04	246.48
420.42	247.44
420.79	248.59
421.16	249.71
421.54	250.89
421.91	252.07
422.28	253.30
422.66	254.59
423.03	255.91
423.40	257.23
423.77	258.61
424.15	260.06
424.52	261.60
424.89	263.18
425.26	264.71
425.64	266.17
426.01	267.73
426.38	269.33
426.75	271.03
427.13	272.78
427.50	274.56
427.87	276.50
428.24	278.39
428.61	280.10
428.99	282.06
429.36	284.14
429.73	286.20
430.10	288.24
430.47	290.33
430.85	292.42
431.22	294.65
431.59	297.04
431.96	299.29
432.33	301.75
432.70	304.17
433.08	307.01
433.45	309.64
433.82	312.26
434.19	315.22
434.56	317.98
434.93	320.61
435.30	323.26
435.68	326.14
436.05	328.92
436.42	331.77
436.79	334.31
437.16	337.06
437.53	339.92
437.90	342.73
438.27	345.46
438.64	348.28
439.01	350.88
439.38	353.16
439.75	355.31
440.13	357.86
440.50	360.15
440.87	362.02
441.24	363.96
441.61	366.12
441.98	367.60
442.35	369.44
442.72	371.28
443.09	373.08
443.46	374.05
443.83	374.67
444.20	375.17
444.57	376.02
444.94	376.27
445.31	376.57
445.68	376.94
446.05	377.01
446.42	376.63
446.79	376.24
447.16	375.77
447.53	375.48
447.90	374.31
448.27	373.14
448.64	371.53
449.01	370.36
449.37	368.42
449.74	366.51
450.11	364.24
450.48	361.78
450.85	359.25
451.22	357.15
451.59	355.16
451.96	353.24
452.33	350.64
452.70	348.26
453.07	345.41
453.43	342.49
453.80	339.72
454.17	337.05
454.54	334.50
454.91	331.71
455.28	329.01
455.65	326.45
456.02	324.03
456.38	321.90
456.75	319.26
457.12	316.97
457.49	314.75
457.86	312.61
458.23	310.73
458.59	308.69
458.96	306.59
459.33	304.74
459.70	302.85
460.07	301.31
460.43	299.63
460.80	298.08
461.17	296.66
461.54	295.17
461.91	293.74
462.27	292.27
462.64	291.05
463.01	289.74
463.38	288.47
463.74	287.08
464.11	285.89
464.48	284.84
464.85	283.74
465.21	282.85
465.58	281.93
465.95	280.84
466.32	279.94
466.68	279.04
467.05	278.08
467.42	277.15
467.78	276.25
468.15	275.36
468.52	274.63
468.88	273.78
469.25	273.01
469.62	272.36
469.98	271.69
470.35	271.05
470.72	270.41
471.08	269.75
471.45	269.20
471.82	268.69
472.18	268.10
472.55	267.67
472.92	267.15
473.28	266.65
473.65	266.22
474.02	265.79
474.38	265.44
474.75	265.12
475.11	264.79
475.48	264.49
475.85	264.24
476.21	264.03
476.58	263.84
476.94	263.65
477.31	263.45
477.67	263.30
478.04	263.17
478.41	263.12
478.77	263.16
479.14	263.13
479.50	263.06
479.87	263.14
480.23	263.20
480.60	263.23
480.96	263.32
481.33	263.53
481.69	263.68
482.06	263.81
482.42	264.04
482.79	264.29
483.15	264.59
483.52	264.97
483.88	265.27
484.25	265.64
484.61	266.07
484.98	266.56
485.34	267.10
485.71	267.71
486.07	268.29
486.44	268.88
486.80	269.54
487.17	270.30
487.53	271.10
487.90	271.93
488.26	272.88
488.62	273.85
488.99	274.80
489.35	275.81
489.72	276.92
490.08	278.12
490.44	279.34
490.81	280.68
491.17	282.01
491.54	283.50
491.90	285.04
492.26	286.67
492.63	288.32
492.99	290.10
493.36	291.99
493.72	294.02
494.08	296.06
494.45	298.36
494.81	300.72
495.17	303.15
495.54	305.69
495.90	308.36
496.26	311.14
496.63	314.05
496.99	317.21
497.35	320.51
497.72	323.90
498.08	327.45
498.44	331.13
498.80	335.04
499.17	339.10
499.53	343.24
499.89	347.62
500.26	352.16
500.62	356.87
500.98	361.81
501.34	366.87
501.71	372.25
502.07	377.68
502.43	383.30
502.79	389.11
503.16	395.26
503.52	401.53
503.88	407.95
504.24	414.66
504.60	421.55
504.97	428.69
505.33	436.01
505.69	443.71
506.05	451.47
506.41	459.38
506.78	467.56
507.14	476.00
507.50	484.74
507.86	493.78
508.22	502.95
508.59	512.20
508.95	521.82
509.31	531.59
509.67	541.72
510.03	552.03
510.39	562.61
510.75	573.44
511.12	584.44
511.48	595.80
511.84	607.22
512.20	618.75
512.56	630.77
512.92	642.97
513.28	655.24
513.64	667.85
514.00	680.60
514.37	693.61
514.73	706.70
515.09	719.80
515.45	733.18
515.81	746.84
516.17	760.85
516.53	775.00
516.89	789.15
517.25	803.29
517.61	817.74
517.97	832.24
518.33	846.65
518.69	861.50
519.05	876.53
519.41	891.69
519.77	907.27
520.13	922.68
520.49	938.15
520.85	953.65
521.21	969.35
521.57	985.64
521.93	1001.39
522.29	1017.86
522.65	1034.11
523.01	1050.28
523.37	1066.22
523.73	1082.44
524.09	1098.56
524.45	1115.00
524.81	1131.68
525.17	1148.55
525.53	1165.57
525.89	1182.43
526.25	1199.27
526.61	1215.61
526.97	1232.41
527.33	1248.94
527.68	1265.59
528.04	1282.14
528.40	1298.85
528.76	1315.93
529.12	1332.48
529.48	1349.41
529.84	1365.45
530.20	1382.14
530.56	1399.35
530.91	1416.86
531.27	1433.77
531.63	1450.32
531.99	1466.88
532.35	1482.95
532.71	1498.76
533.07	1514.92
533.42	1530.95
533.78	1546.88
534.14	1563.25
534.50	1578.82
534.86	1594.71
535.21	1610.09
535.57	1626.08
535.93	1641.53
536.29	1656.28
536.65	1671.51
537.00	1686.41
537.36	1701.78
537.72	1716.50
538.08	1730.98
538.44	1744.87
538.79	1758.69
539.15	1772.46
539.51	1786.30
539.87	1800.72
540.22	1814.74
540.58	1828.71
540.94	1842.21
541.29	1855.35
541.65	1868.16
542.01	1881.33
542.37	1893.68
542.72	1906.04
543.08	1917.83
543.44	1930.34
543.79	1941.78
544.15	1952.72
544.51	1964.15
544.87	1975.26
545.22	1986.00
545.58	1996.08
545.94	2005.98
546.29	2015.82
546.65	2025.56
547.01	2034.78
547.36	2043.62
547.72	2052.11
548.07	2059.79
548.43	2067.91
548.79	2075.89
549.14	2083.28
549.50	2090.68
549.86	2098.56
550.21	2105.95
550.57	2113.13
550.92	2119.79
551.28	2126.88
551.64	2134.08
551.99	2140.79
552.35	2146.92
552.70	2153.11
553.06	2159.15
553.41	2165.42
553.77	2171.58
554.13	2177.88
554.48	2184.00
554.84	2189.36
555.19	2194.64
555.55	2199.80
555.90	2204.20
556.26	2209.01
556.61	2213.85
556.97	2217.97
557.32	2222.05
557.68	2226.12
558.03	2230.48
558.39	2234.16
558.74	2238.65
559.10	2242.44
559.45	2245.98
559.81	2250.36
560.16	2254.22
560.52	2257.48
560.87	2260.90
561.23	2263.52
561.58	2266.40
561.94	2268.97
562.29	2271.38
562.64	2274.05
563.00	2276.87
563.35	2280.46
563.71	2283.59
564.06	2286.77
564.42	2289.70
564.77	2292.16
565.12	2294.28
565.48	2296.13
565.83	2298.03
566.19	2299.35
566.54	2300.34
566.89	2301.52
567.25	2301.94
567.60	2303.24
567.96	2304.87
568.31	2305.66
568.66	2306.62
569.02	2307.04
569.37	2307.36
569.72	2308.10
570.08	2308.09
570.43	2307.92
570.78	2307.20
571.14	2305.61
571.49	2304.36
571.84	2303.92
572.20	2302.60
572.55	2301.55
572.90	2300.03
573.26	2298.54
573.61	2296.88
573.96	2294.93
574.31	2291.76
574.67	2288.51
575.02	2284.80
575.37	2281.27
575.72	2277.37
576.08	2274.09
576.43	2270.82
576.78	2267.01
577.13	2263.79
577.49	2260.65
577.84	2257.16
578.19	2253.35
578.54	2249.56
578.90	2245.16
579.25	2239.56
579.60	2234.55
579.95	2229.48
580.30	2224.23
580.66	2218.85
581.01	2213.80
581.36	2208.81
581.71	2204.64
582.06	2200.29
582.42	2195.71
582.77	2190.51
583.12	2185.76
583.47	2180.87
583.82	2175.58
584.17	2170.16
584.53	2164.58
584.88	2158.87
585.23	2152.94
585.58	2147.50
585.93	2142.09
586.28	2137.27
586.63	2132.12
586.98	2127.08
587.34	2122.40
587.69	2117.43
588.04	2112.08
588.39	2106.23
588.74	2099.69
589.09	2093.36
589.44	2086.61
589.79	2080.56
590.14	2074.84
590.49	2068.37
590.84	2062.05
591.19	2056.04
591.54	2049.55
591.89	2042.03
592.25	2035.03
592.60	2027.76
592.95	2019.95
593.30	2012.49
593.65	2004.86
594.00	1997.88
594.35	1990.47
594.70	1982.34
595.05	1974.94
595.40	1967.71
595.75	1960.15
596.10	1953.73
596.45	1947.06
596.80	1940.63
597.15	1933.90
597.50	1926.65
597.85	1920.23
598.19	1913.40
598.54	1906.24
598.89	1899.66
599.24	1893.78
599.59	1887.24
599.94	1881.12
600.29	1874.85
600.64	1868.33
600.99	1860.74
601.34	1853.81
601.69	1846.86
602.04	1839.90
602.39	1832.54
602.74	1825.72
603.08	1819.02
603.43	1812.30
603.78	1804.94
604.13	1797.65
604.48	1790.13
604.83	1783.23
605.18	1775.90
605.53	1767.81
605.87	1759.77
606.22	1752.55
606.57	1744.54
606.92	1737.22
607.27	1729.93
607.62	1722.86
607.96	1715.58
608.31	1708.96
608.66	1701.23
609.01	1693.53
609.36	1685.93
609.70	1678.08
610.05	1669.85
610.40	1662.09
610.75	1653.82
611.10	1646.08
611.44	1637.80
611.79	1629.92
612.14	1621.30
612.49	1612.26
612.83	1604.03
613.18	1596.03
613.53	1587.94
613.88	1579.48
614.22	1571.10
614.57	1562.45
614.92	1554.43
615.27	1546.71
615.61	1538.28
615.96	1530.31
616.31	1522.76
616.65	1515.47
617.00	1507.89
617.35	1500.31
617.70	1491.89
618.04	1483.35
618.39	1475.12
618.74	1467.51
619.08	1459.31
619.43	1451.70
619.78	1444.84
620.12	1437.55
620.47	1429.88
620.82	1421.67
621.16	1414.21
621.51	1406.51
621.85	1398.91
622.20	1390.50
622.55	1382.21
622.89	1374.43
623.24	1366.82
623.59	1359.39
623.93	1351.72
624.28	1344.50
624.62	1336.90
624.97	1329.81
625.32	1323.04
625.66	1316.03
626.01	1308.85
626.35	1301.30
626.70	1293.53
627.04	1285.80
627.39	1278.11
627.73	1270.72
628.08	1263.85
628.43	1256.44
628.77	1249.12
629.12	1241.43
629.46	1234.20
629.81	1226.77
630.15	1219.54
630.50	1212.11
630.84	1204.06
631.19	1196.22
631.53	1188.59
631.88	1181.12
632.22	1173.49
632.57	1166.20
632.91	1158.63
633.26	1151.22
633.60	1143.91
633.95	1136.85
634.29	1129.92
634.64	1123.24
634.98	1115.94
635.32	1108.77
635.67	1102.26
636.01	1095.65
636.36	1088.92
636.70	1082.47
637.05	1075.89
637.39	1069.47
637.73	1062.97
638.08	1057.02
638.42	1051.00
638.77	1044.54
639.11	1037.91
639.45	1031.53
639.80	1024.90
640.14	1018.57
640.49	1011.95
640.83	1005.68
641.17	999.48
641.52	993.11
641.86	986.72
642.20	980.87
642.55	974.57
642.89	968.05
643.23	961.60
643.58	955.76
643.92	949.52
644.26	943.39
644.61	937.41
644.95	931.35
645.29	924.74
645.64	918.01
645.98	911.72
646.32	905.89
646.66	899.88
647.01	894.10
647.35	888.37
647.69	882.62
648.04	877.12
648.38	871.26
648.72	865.14
649.06	859.02
649.41	853.05
649.75	847.00
650.09	841.08
650.43	835.25
650.78	829.19
651.12	823.24
651.46	817.60
651.80	811.81
652.14	806.40
652.49	801.09
652.83	795.94
653.17	790.29
653.51	784.58
653.85	779.13
654.20	773.43
654.54	767.42
654.88	761.75
655.22	755.86
655.56	750.24
655.90	744.91
656.25	739.67
656.59	734.42
656.93	729.37
657.27	724.17
657.61	718.67
657.95	713.51
658.29	708.43
658.64	703.17
658.98	697.86
659.32	692.41
659.66	687.16
660.00	681.91
660.34	676.99
660.68	672.09
661.02	667.13
661.36	662.53
661.70	658.08
662.05	653.72
662.39	649.35
662.73	644.89
663.07	640.46
663.41	636.00
663.75	631.49
664.09	626.97
664.43	622.67
664.77	618.59
665.11	614.41
665.45	610.29
665.79	606.22
666.13	602.12
666.47	598.09
666.81	593.98
667.15	589.81
667.49	585.97
667.83	582.19
668.17	578.19
668.51	574.07
668.85	570.08
669.19	566.23
669.53	562.36
669.87	558.47
670.21	554.87
670.55	551.25
670.89	547.83
671.23	544.36
671.57	540.85
671.91	537.34
672.25	533.87
672.58	530.41
672.92	527.05
673.26	523.92
673.60	520.78
673.94	517.69
674.28	514.77
674.62	511.76
674.96	508.71
675.30	505.85
675.64	502.91
675.97	500.13
676.31	497.26
676.65	494.33
676.99	491.66
677.33	488.70
677.67	485.85
678.01	482.76
678.34	479.83
678.68	476.96
679.02	474.14
679.36	471.37
679.70	468.60
680.04	465.84
680.37	462.95
680.71	460.15
681.05	457.53
681.39	454.86
681.73	452.23
682.06	449.65
682.40	447.09
682.74	444.66
683.08	442.11
683.42	439.52
683.75	437.04
684.09	434.46
684.43	432.08
684.77	429.60
685.10	427.32
685.44	425.03
685.78	422.68
686.12	420.48
686.45	418.21
686.79	415.94
687.13	413.77
687.46	411.63
687.80	409.45
688.14	407.24
688.48	405.21
688.81	402.95
689.15	400.82
689.49	398.69
689.82	396.57
690.16	394.47
690.50	392.50
690.83	390.56
691.17	388.58
691.51	386.64
691.84	384.82
692.18	382.88
692.52	380.85
692.85	378.99
693.19	377.09
693.52	375.28
693.86	373.49
694.20	371.70
694.53	369.86
694.87	368.03
695.21	366.24
695.54	364.36
695.88	362.62
696.21	360.90
696.55	359.21
696.88	357.50
697.22	355.88
697.56	354.26
697.89	352.64
698.23	351.00
698.56	349.40
698.90	347.84
699.23	346.17
699.57	344.69
699.90	343.13
700.24	341.58
700.58	340.03
700.91	338.49
701.25	337.00
701.58	335.65
701.92	334.31
702.25	332.91
702.59	331.62
702.92	330.32
703.26	328.98
703.59	327.69
703.93	326.54
704.26	325.34
704.60	324.02
704.93	322.71
705.26	321.49
705.60	320.33
705.93	319.18
706.27	318.20
706.60	317.13
706.94	316.04
707.27	314.91
707.61	313.88
707.94	312.91
708.27	311.83
708.61	310.74
708.94	309.69
709.28	308.71
709.61	307.72
709.94	306.79
710.28	305.76
710.61	304.80
710.95	303.74
711.28	302.81
711.61	301.88
711.95	301.01
712.28	300.04
712.61	299.07
712.95	298.12
713.28	297.23
713.61	296.31
713.95	295.46
714.28	294.66
714.61	293.81
714.95	292.94
715.28	292.13
715.61	291.29
715.95	290.50
716.28	289.65
716.61	288.81
716.95	287.97
717.28	287.25
717.61	286.53
717.94	285.79
718.28	284.98
718.61	284.29
718.94	283.57
719.27	282.91
719.61	282.25
719.94	281.61
720.27	280.87
720.60	280.22
720.94	279.62
721.27	278.99
721.60	278.37
721.93	277.75
722.27	277.21
722.60	276.67
722.93	276.07
723.26	275.54
723.59	274.97
723.93	274.46
724.26	273.93
724.59	273.33
724.92	272.77
725.25	272.29
725.59	271.76
725.92	271.25
726.25	270.76
726.58	270.25
726.91	269.76
727.24	269.30
727.57	268.83
727.91	268.31
728.24	267.84
728.57	267.29
728.90	266.85
729.23	266.31
729.56	265.85
729.89	265.36
730.22	264.87
730.55	264.41
730.89	263.93
731.22	263.45
731.55	263.03
731.88	262.60
732.21	262.13
732.54	261.69
732.87	261.27
733.20	260.86
733.53	260.49
733.86	260.09
734.19	259.70
734.52	259.32
734.85	258.99
735.18	258.57
735.51	258.29
735.84	257.90
736.17	257.58
736.50	257.20
736.83	256.98
737.16	256.66
737.49	256.36
737.82	256.03
738.15	255.71
738.48	255.36
738.81	255.04
739.14	254.72
739.47	254.41
739.80	254.08
740.13	253.76
740.46	253.43
740.79	253.10
741.12	252.74
741.45	252.43
741.78	252.06
742.11	251.77
742.44	251.43
742.77	251.14
743.10	250.80
743.43	250.49
743.75	250.08
744.08	249.94
744.41	249.64
744.74	249.36
745.07	249.08
745.40	248.87
745.73	248.63
746.06	248.40
746.39	248.15
746.71	247.91
747.04	247.64
747.37	247.38
747.70	247.14
748.03	246.94
748.36	246.71
748.68	246.52
749.01	246.28
749.34	246.07
749.67	245.83
750.00	245.65
750.33	245.52
750.65	245.35
750.98	245.02
751.31	244.80
751.64	244.58
751.97	244.42
752.29	244.17
752.62	243.94
752.95	243.71
753.28	243.49
753.60	243.30
753.93	243.16
754.26	242.99
754.59	242.77
754.91	242.54
755.24	242.36
755.57	242.18
755.90	242.02
756.22	241.83
756.55	241.67
756.88	241.50
757.20	241.24
757.53	241.01
757.86	240.82
758.19	240.69
758.51	240.53
758.84	240.28
759.17	240.12
759.49	239.95
759.82	239.83
760.15	239.69
760.47	239.53
760.80	239.32
761.13	239.17
761.45	239.01
761.78	238.89
762.11	238.74
762.43	238.58
762.76	238.44
763.08	238.31
763.41	238.19
763.74	238.07
764.06	237.94
764.39	237.82
764.71	237.69
765.04	237.54
765.37	237.39
765.69	237.29
766.02	237.18
766.34	237.08
766.67	236.91
767.00	236.76
767.32	236.64
767.65	236.60
767.97	236.50
768.30	236.38
768.62	236.26
768.95	236.14
769.27	236.03
769.60	235.94
769.92	235.78
770.25	235.63
770.57	235.48
770.90	235.35
771.22	235.23
771.55	235.15
771.87	235.02
772.20	234.92
772.52	234.91
772.85	234.90
773.17	234.82
773.50	234.71
773.82	234.62
774.15	234.50
774.47	234.35
774.80	234.25
775.12	234.15
775.45	234.02
775.77	233.93
776.09	233.81
776.42	233.69
776.74	233.65
777.07	233.54
777.39	233.49
777.72	233.44
778.04	233.39
778.36	233.29
778.69	233.24
779.01	233.18
779.33	233.02
779.66	232.86
779.98	232.74
780.31	232.70
780.63	232.67
780.95	232.65
781.28	232.59
781.60	232.50
781.92	232.47
782.25	232.46
782.57	232.38
782.89	232.33
783.22	232.28
783.54	232.22
783.86	232.18
784.19	232.08
784.51	232.02
784.83	231.94
785.16	231.89
785.48	231.84
785.80	231.80
786.12	231.79
786.45	231.73
786.77	231.70
787.09	231.64
787.42	231.59
787.74	231.53
788.06	231.51
788.38	231.49
788.71	231.44
789.03	231.39
789.35	231.41
789.67	231.39
789.99	231.34
790.32	231.27
790.64	231.26
790.96	231.32
791.28	231.28
791.61	231.24
791.93	231.23
792.25	231.19
792.57	231.24
792.89	231.17
793.21	231.14
793.54	231.10
793.86	231.09
794.18	231.02
794.50	230.98
794.82	230.95
795.14	230.94
795.47	230.92
795.79	230.93
796.11	230.87
796.43	230.86
796.75	230.86
797.07	230.84
797.39	230.84
797.71	230.72
798.04	230.70
798.36	230.73
798.68	230.67
799.00	230.65
799.32	230.59
799.64	230.58
799.96	230.57
800.28	230.55
800.60	230.49
800.92	230.50
801.24	230.47
801.56	230.48
801.89	230.44
802.21	230.42
802.53	230.36
802.85	230.35
803.17	230.36
803.49	230.33
803.81	230.30
804.13	230.25
804.45	230.22
804.77	230.20
805.09	230.16
805.41	230.14
805.73	230.08
806.05	229.98
806.37	229.94
806.69	229.89
807.01	229.87
807.33	229.84
807.65	229.79
807.97	229.80
808.28	229.73
808.60	229.66
808.92	229.63
809.24	229.64
809.56	229.58
809.88	229.47
810.20	229.44
810.52	229.43
810.84	229.39
811.16	229.36
811.48	229.34
811.80	229.30
812.12	229.27
812.43	229.30
812.75	229.27
813.07	229.22
813.39	229.20
813.71	229.16
814.03	229.12
814.35	229.12
814.67	229.04
814.98	229.00
815.30	229.01
815.62	228.96
815.94	228.88
816.26	228.90
816.58	228.86
816.89	228.85
817.21	228.79
817.53	228.78
817.85	228.76
818.17	228.76
818.48	228.73
818.80	228.74
819.12	228.68
819.44	228.65
819.76	228.63
820.07	228.62
820.39	228.60
820.71	228.62
821.03	228.58
821.34	228.54
821.66	228.53
821.98	228.51
822.30	228.51
822.61	228.59
822.93	228.53
823.25	228.54
823.57	228.47
823.88	228.50
824.20	228.49
824.52	228.52
824.83	228.46
825.15	228.41
825.47	228.40
825.79	228.42
826.10	228.40
826.42	228.40
826.74	228.43
827.05	228.42
827.37	228.40
827.69	228.38
828.00	228.42
828.32	228.43
828.64	228.41
828.95	228.45
829.27	228.39
829.58	228.42
829.90	228.42
830.22	228.47
830.53	228.42
830.85	228.40
831.17	228.35
831.48	228.37
831.80	228.40
832.11	228.38
832.43	228.35
832.75	228.36
833.06	228.41
833.38	228.34
833.69	228.34
834.01	228.36
834.32	228.35
834.64	228.35
834.96	228.31
835.27	228.28
835.59	228.25
835.90	228.21
836.22	228.20
836.53	228.20
836.85	228.16
837.16	228.22
837.48	228.22
837.79	228.26
838.11	228.27
838.42	228.28
838.74	228.28
839.05	228.27
839.37	228.27
839.68	228.20
840.00	228.21
840.31	228.21
840.63	228.16
840.94	228.16
841.26	228.13
841.57	228.15
841.88	228.17
842.20	228.14
842.51	228.12
842.83	228.13
843.14	228.19
843.46	228.22
843.77	228.19
844.08	228.19
844.40	228.13
844.71	228.10
845.03	228.09
845.34	228.07
845.65	228.07
845.97	228.05
846.28	228.03
846.60	228.03
846.91	227.97
847.22	228.00
847.54	228.00
847.85	228.02
848.16	227.98
848.48	227.93
848.79	227.97
849.10	227.97
849.42	227.95
849.73	227.85
850.04	227.84
850.36	227.79
850.67	227.80
850.98	227.81
851.30	227.80
851.61	227.79
851.92	227.78
852.23	227.80
852.55	227.79
852.86	227.81
853.17	227.78
853.49	227.82
853.80	227.82
854.11	227.84
854.42	227.82
854.74	227.80
855.05	227.80
855.36	227.76
855.67	227.75
855.99	227.75
856.30	227.86
856.61	227.84
856.92	227.82
857.23	227.80
857.55	227.76
857.86	227.75
858.17	227.75
858.48	227.71
858.79	227.66
859.11	227.70
859.42	227.69
859.73	227.71
860.04	227.70
860.35	227.68
860.66	227.61
860.98	227.60
861.29	227.60
861.60	227.58
861.91	227.60
862.22	227.58
862.53	227.53
862.84	227.40
863.16	227.43
863.47	227.44
863.78	227.42
864.09	227.45
864.40	227.45
864.71	227.44
865.02	227.47
865.33	227.46
865.64	227.38
865.95	227.35
866.27	227.38
866.58	227.39
866.89	227.36
867.20	227.37
867.51	227.39
867.82	227.41
868.13	227.44
868.44	227.40
868.75	227.44
869.06	227.43
869.37	227.42
869.68	227.38
869.99	227.36
870.30	227.37
870.61	227.35
870.92	227.32
871.23	227.32
871.54	227.31
871.85	227.32
872.16	227.37
872.47	227.41
872.78	227.37
873.09	227.34
873.40	227.35
873.71	227.36
874.02	227.32
874.33	227.30
874.64	227.28
874.95	227.28
875.26	227.24
875.56	227.29
875.87	227.35
876.18	227.33
876.49	227.45
876.80	227.45
877.11	227.45
877.42	227.49
877.73	227.49
878.04	227.52
878.35	227.54
878.66	227.54
878.96	227.51
879.27	227.50
879.58	227.52
879.89	227.51
880.20	227.52
880.51	227.54
880.82	227.55
881.12	227.58
881.43	227.58
881.74	227.57
882.05	227.57
882.36	227.54
882.67	227.53
882.97	227.41
883.28	227.39
883.59	227.39
883.90	227.40
884.21	227.43
884.51	227.38
884.82	227.35
885.13	227.33
885.44	227.33
885.74	227.36
886.05	227.33
886.36	227.34
886.67	227.32
886.98	227.37
887.28	227.37
887.59	227.36
887.90	227.34
888.20	227.33
888.51	227.32
888.82	227.30
889.13	227.32
889.43	227.41
889.74	227.42
890.05	227.42
890.35	227.38
890.66	227.34
890.97	227.36
891.28	227.37
891.58	227.38
891.89	227.37
892.20	227.33
892.50	227.37
892.81	227.37
893.12	227.36
893.42	227.34
893.73	227.33
894.04	227.32
894.34	227.37
894.65	227.37
894.95	227.35
895.26	227.36
895.57	227.43
895.87	227.35
896.18	227.35
896.48	227.34
896.79	227.33
897.10	227.33
897.40	227.32
897.71	227.32
898.01	227.30
898.32	227.34
898.63	227.33
898.93	227.29
899.24	227.26
899.54	227.27
899.85	227.24
900.15	227.23
900.46	227.22
900.76	227.23
901.07	227.22
901.38	227.25
901.68	227.23
901.99	227.14
902.29	227.13
902.60	227.09
902.90	227.10
903.21	227.10
903.51	227.10
903.82	227.14
904.12	227.13
904.43	227.13
904.73	227.09
905.03	227.11
905.34	227.19
905.64	227.20
905.95	227.17
906.25	227.19
906.56	227.19
906.86	227.21
907.17	227.18
907.47	227.17
907.77	227.14
908.08	227.15
908.38	227.19
908.69	227.21
908.99	227.26
909.30	227.25
909.60	227.25
909.90	227.26
910.21	227.24
910.51	227.24
910.81	227.26
911.12	227.27
911.42	227.24
911.73	227.17
912.03	227.18
912.33	227.22
912.64	227.24
912.94	227.23
913.24	227.22
913.55	227.21
913.85	227.22
914.15	227.26
914.46	227.29
914.76	227.26
915.06	227.23
915.37	227.22
915.67	227.23
915.97	227.26
916.27	227.23
916.58	227.23
916.88	227.22
917.18	227.22
917.49	227.27
917.79	227.30
918.09	227.30
918.39	227.34
918.70	227.29
919.00	227.24
919.30	227.29
919.60	227.31
919.91	227.29
920.21	227.29
920.51	227.27
920.81	227.24
921.12	227.28
921.42	227.28
921.72	227.26
922.02	227.29
922.32	227.31
922.63	227.35
922.93	227.39
923.23	227.40
923.53	227.39
923.83	227.36
924.13	227.39
924.44	227.40
924.74	227.41
925.04	227.45
925.34	227.46
925.64	227.42
925.94	227.38
926.24	227.45
926.55	227.44
926.85	227.44
927.15	227.43
927.45	227.40
927.75	227.42
928.05	227.44
928.35	227.41
928.65	227.40
928.95	227.37
929.26	227.32
929.56	227.35
929.86	227.37
930.16	227.38
930.46	227.38
930.76	227.37
931.06	227.32
931.36	227.28
931.66	227.29
931.96	227.29
932.26	227.28
932.56	227.25
932.86	227.26
933.16	227.24
933.46	227.24
933.76	227.21
934.06	227.21
934.36	227.20
934.66	227.19
934.96	227.18
935.26	227.18
935.56	227.22
935.86	227.15
936.16	227.09
936.46	227.02
936.76	226.97
937.06	226.96
937.36	226.96
937.66	226.96
937.96	226.95
938.26	226.93
938.56	226.94
938.86	226.93
939.16	226.91
939.46	226.95
939.76	226.92
940.06	226.95
940.35	226.92
940.65	226.90
940.95	226.92
941.25	226.86
941.55	226.83
941.85	226.80
942.15	226.85
942.45	226.91
942.75	226.89
943.04	226.92
943.34	226.95
943.64	226.94
943.94	226.95
944.24	226.94
944.54	226.93
944.84	226.97
945.13	226.94
945.43	226.98
945.73	226.93
946.03	227.00
946.33	226.97
946.62	226.95
946.92	226.95
947.22	226.95
947.52	226.97
947.82	226.99
948.11	227.00
948.41	226.98
948.71	226.92
949.01	226.95
949.31	226.93
949.60	226.92
949.90	226.93
950.20	226.92
950.50	226.94
950.79	226.96
951.09	226.95
951.39	226.94
951.69	226.92
951.98	226.98
952.28	226.97
952.58	226.98
952.87	227.00
953.17	227.04
953.47	227.00
953.76	227.02
954.06	227.04
954.36	227.03
954.66	227.04
954.95	227.09
955.25	227.10
955.55	227.12
955.84	227.08
956.14	227.08
956.44	227.07
956.73	227.04
957.03	227.05
957.32	227.03
957.62	227.07
957.92	227.08
958.21	227.07
958.51	227.14
958.81	227.17
959.10	227.15
959.40	227.15
959.69	227.18
959.99	227.19
960.29	227.16
960.58	227.15
960.88	227.14
961.17	227.14
961.47	227.15
961.76	227.13
962.06	227.18
962.36	227.16
962.65	227.20
962.95	227.23
963.24	227.20
963.54	227.21
963.83	227.18
964.13	227.14
964.42	227.11
964.72	227.02
965.01	227.00
965.31	226.98
965.60	226.96
965.90	227.04
966.19	226.97
966.49	226.98
966.78	226.96
967.08	226.95
967.37	226.92
967.67	226.88
967.96	226.88
968.26	226.87
968.55	226.90
968.85	226.88
969.14	226.83
969.43	226.86
969.73	226.83
970.02	226.83
970.32	226.84
970.61	226.85
970.91	226.85
971.20	226.85
971.49	226.86
971.79	226.85
972.08	226.76
972.38	226.81
972.67	226.82
972.96	226.83
973.26	226.84
973.55	226.88
973.85	226.89
974.14	226.91
974.43	226.91
974.73	226.87
975.02	226.86
975.31	226.90
975.61	226.87
975.90	226.88
976.19	226.89
976.49	226.90
976.78	226.89
977.07	226.85
977.37	226.84
977.66	226.82
977.95	226.83
978.24	226.84
978.54	226.86
978.83	226.83
979.12	226.84
979.42	226.83
979.71	226.81
980.00	226.83
980.29	226.82
980.59	226.80
980.88	226.84
981.17	226.84
981.46	226.90
981.76	226.93
982.05	226.97
982.34	226.96
982.63	226.99
982.93	226.99
983.22	227.04
983.51	227.04
983.80	227.09
984.09	227.11
984.39	227.13
984.68	227.08
984.97	227.14
985.26	227.12
985.55	227.15
985.85	227.15
986.14	227.17
986.43	227.19
986.72	227.18
987.01	227.12
987.30	227.13
987.59	227.05
987.89	227.03
988.18	227.00
988.47	227.04
988.76	227.02
989.05	227.03
989.34	227.02
989.63	227.06
989.92	227.03
990.22	227.02
990.51	227.02
990.80	227.06
991.09	227.06
991.38	227.07
991.67	227.07
991.96	227.04
992.25	227.02
992.54	226.98
992.83	227.02
993.12	227.02
993.41	227.06
993.70	227.11
993.99	227.15
994.28	227.13
994.58	227.11
994.87	227.09
995.16	227.10
995.45	227.10
995.74	227.04
996.03	227.08
996.32	227.10
996.61	227.12
996.90	227.10
997.19	227.04
997.48	227.03
997.77	227.02
998.06	227.00
998.34	227.01
998.63	226.99
998.92	226.94
999.21	226.93
999.50	226.91
999.79	226.89
1000.08	226.82
1000.37	226.84
1000.66	226.82
1000.95	226.85
1001.24	226.83
1001.53	226.82
1001.82	226.84
1002.11	226.79
1002.40	226.80
1002.68	226.79
1002.97	226.86
1003.26	226.88
1003.55	226.89
1003.84	226.88
1004.13	226.95
1004.42	226.91
1004.71	226.94
1004.99	226.95
1005.28	226.99
1005.57	226.95
1005.86	226.91
1006.15	226.91
1006.44	226.89
1006.72	226.89
1007.01	226.84
1007.30	226.87
1007.59	226.85
1007.88	226.85
1008.17	226.88
1008.45	226.83
1008.74	226.78
1009.03	226.69
1009.32	226.71
1009.60	226.69
1009.89	226.67
1010.18	226.62
1010.47	226.61
1010.76	226.60
1011.04	226.60
1011.33	226.59
1011.62	226.61
1011.91	226.67
1012.19	226.70
1012.48	226.74
1012.77	226.76
1013.05	226.85
1013.34	226.82
1013.63	226.83
1013.92	226.81
1014.20	226.79
1014.49	226.82
1014.78	226.88
1015.06	226.90
1015.35	226.87
1015.64	226.86
1015.92	226.89
1016.21	226.91
1016.50	226.94
1016.78	226.98
1017.07	226.97
1017.36	226.97
1017.64	226.98
1017.93	226.97
1018.22	226.97
1018.50	226.95
1018.79	226.96
1019.08	226.90
1019.36	226.92
1019.65	226.89
1019.93	226.94
1020.22	226.95
1020.51	227.02
1020.79	227.01
1021.08	226.90
1021.36	227.04
1021.65	226.98
1021.94	227.03
1022.22	226.94
1022.51	226.51
1022.79	227.43
1023.08	227.11
1023.36	228.52
1023.65	227.46
>>>>>End Processed Spectral Data<<<<<
