SpectraSuite Data File
++++++++++++++++++++++++++++++++++++
Date: Fri Feb 01 15:04:11 EST 2013
User: group
Dark Spectrum Present: No
Reference Spectrum Present: No
Number of Sampled Component Spectra: 1
Spectrometers: USB2E7196
Integration Time (usec): 35000 (USB2E7196)
Spectra Averaged: 100 (USB2E7196)
Boxcar Smoothing: 10 (USB2E7196)
Correct for Electrical Dark: No (USB2E7196)
Strobe/Lamp Enabled: No (USB2E7196)
Correct for Detector Non-linearity: No (USB2E7196)
Correct for Stray Light: No (USB2E7196)
Number of Pixels in Processed Spectrum: 2048
>>>>>Begin Processed Spectral Data<<<<<
339.09	0.00
339.48	215.01
339.86	216.23
340.24	217.84
340.63	219.87
341.01	222.41
341.39	222.11
341.78	223.60
342.16	224.41
342.54	224.92
342.93	213.47
343.31	224.25
343.69	224.79
344.07	225.28
344.46	225.73
344.84	226.06
345.22	226.30
345.60	226.57
345.99	226.73
346.37	226.87
346.75	227.01
347.13	227.06
347.52	227.11
347.90	227.22
348.28	227.23
348.66	227.28
349.05	227.29
349.43	227.32
349.81	227.36
350.19	227.40
350.57	227.47
350.96	227.56
351.34	227.66
351.72	227.75
352.10	227.81
352.48	227.85
352.87	227.92
353.25	227.96
353.63	227.99
354.01	228.10
354.39	228.17
354.77	228.22
355.15	228.34
355.54	228.38
355.92	228.46
356.30	228.55
356.68	228.71
357.06	228.77
357.44	228.81
357.82	228.86
358.20	228.92
358.58	228.96
358.97	229.03
359.35	229.07
359.73	229.15
360.11	229.25
360.49	229.32
360.87	229.38
361.25	229.47
361.63	229.55
362.01	229.58
362.39	229.63
362.77	229.67
363.15	229.70
363.53	229.76
363.91	229.73
364.29	229.74
364.67	229.60
365.05	229.63
365.43	229.67
365.81	229.70
366.19	229.75
366.57	229.82
366.95	229.79
367.33	229.79
367.71	229.78
368.09	229.75
368.47	229.72
368.85	229.66
369.23	229.61
369.61	229.58
369.99	229.57
370.37	229.53
370.75	229.53
371.13	229.46
371.51	229.39
371.89	229.37
372.27	229.31
372.65	229.26
373.03	229.17
373.41	229.10
373.78	229.03
374.16	228.91
374.54	228.79
374.92	228.71
375.30	228.63
375.68	228.49
376.06	228.44
376.44	228.35
376.82	228.30
377.19	228.22
377.57	228.11
377.95	228.00
378.33	227.91
378.71	227.75
379.09	227.68
379.47	227.61
379.84	227.51
380.22	227.43
380.60	227.34
380.98	227.28
381.36	227.17
381.73	227.10
382.11	227.04
382.49	226.96
382.87	226.86
383.25	226.78
383.62	226.87
384.00	226.79
384.38	226.73
384.76	226.68
385.13	226.62
385.51	226.57
385.89	226.51
386.27	226.44
386.64	226.41
387.02	226.35
387.40	226.29
387.78	226.28
388.15	226.24
388.53	226.22
388.91	226.18
389.29	226.14
389.66	226.10
390.04	226.06
390.42	226.03
390.79	226.03
391.17	226.03
391.55	225.91
391.92	225.90
392.30	225.92
392.68	225.89
393.05	225.92
393.43	225.96
393.81	225.96
394.18	225.97
394.56	225.98
394.94	226.01
395.31	226.05
395.69	226.09
396.06	226.11
396.44	226.17
396.82	226.20
397.19	226.30
397.57	226.31
397.95	226.39
398.32	226.43
398.70	226.53
399.07	226.61
399.45	226.66
399.82	226.71
400.20	226.77
400.58	226.87
400.95	226.93
401.33	227.03
401.70	227.20
402.08	227.36
402.45	227.45
402.83	227.61
403.20	227.73
403.58	227.82
403.95	227.99
404.33	228.13
404.71	228.28
405.08	228.51
405.46	228.70
405.83	228.86
406.21	229.06
406.58	229.21
406.96	229.40
407.33	229.57
407.70	229.78
408.08	230.07
408.45	230.31
408.83	230.57
409.20	230.80
409.58	230.98
409.95	231.20
410.33	231.50
410.70	231.75
411.08	232.05
411.45	232.36
411.82	232.68
412.20	233.04
412.57	233.48
412.95	233.74
413.32	234.13
413.69	234.55
414.07	235.00
414.44	235.47
414.82	235.94
415.19	236.51
415.56	237.07
415.94	237.63
416.31	238.25
416.68	238.88
417.06	239.56
417.43	240.24
417.81	241.05
418.18	241.83
418.55	242.65
418.93	243.52
419.30	244.44
419.67	245.38
420.04	246.32
420.42	247.27
420.79	248.49
421.16	249.66
421.54	250.87
421.91	252.07
422.28	253.33
422.66	254.69
423.03	255.97
423.40	257.32
423.77	258.71
424.15	260.13
424.52	261.59
424.89	263.21
425.26	264.79
425.64	266.23
426.01	267.80
426.38	269.46
426.75	271.21
427.13	272.91
427.50	274.68
427.87	276.56
428.24	278.44
428.61	280.17
428.99	282.13
429.36	284.22
429.73	286.30
430.10	288.32
430.47	290.40
430.85	292.54
431.22	294.80
431.59	297.17
431.96	299.43
432.33	301.98
432.70	304.35
433.08	307.14
433.45	309.79
433.82	312.44
434.19	315.35
434.56	318.13
434.93	320.84
435.30	323.50
435.68	326.41
436.05	329.23
436.42	332.02
436.79	334.51
437.16	337.21
437.53	340.07
437.90	342.93
438.27	345.68
438.64	348.50
439.01	351.08
439.38	353.35
439.75	355.50
440.13	357.99
440.50	360.33
440.87	362.22
441.24	364.13
441.61	366.26
441.98	367.73
442.35	369.51
442.72	371.33
443.09	373.08
443.46	374.04
443.83	374.63
444.20	375.14
444.57	375.96
444.94	376.23
445.31	376.54
445.68	376.84
446.05	376.88
446.42	376.50
446.79	376.11
447.16	375.65
447.53	375.37
447.90	374.15
448.27	373.01
448.64	371.38
449.01	370.26
449.37	368.29
449.74	366.42
450.11	364.15
450.48	361.70
450.85	359.24
451.22	357.15
451.59	355.16
451.96	353.22
452.33	350.67
452.70	348.34
453.07	345.51
453.43	342.62
453.80	339.82
454.17	337.16
454.54	334.59
454.91	331.86
455.28	329.13
455.65	326.65
456.02	324.22
456.38	322.07
456.75	319.43
457.12	317.15
457.49	314.93
457.86	312.76
458.23	310.90
458.59	308.82
458.96	306.70
459.33	304.85
459.70	302.98
460.07	301.44
460.43	299.72
460.80	298.09
461.17	296.65
461.54	295.17
461.91	293.72
462.27	292.29
462.64	291.03
463.01	289.70
463.38	288.40
463.74	287.00
464.11	285.86
464.48	284.83
464.85	283.75
465.21	282.86
465.58	281.91
465.95	280.78
466.32	279.84
466.68	278.95
467.05	278.04
467.42	277.12
467.78	276.17
468.15	275.26
468.52	274.58
468.88	273.73
469.25	272.96
469.62	272.35
469.98	271.66
470.35	271.02
470.72	270.38
471.08	269.74
471.45	269.17
471.82	268.60
472.18	267.97
472.55	267.53
472.92	266.99
473.28	266.53
473.65	266.08
474.02	265.64
474.38	265.24
474.75	264.89
475.11	264.52
475.48	264.26
475.85	264.02
476.21	263.78
476.58	263.57
476.94	263.39
477.31	263.20
477.67	263.04
478.04	262.92
478.41	262.89
478.77	262.91
479.14	262.87
479.50	262.86
479.87	262.93
480.23	262.97
480.60	263.04
480.96	263.10
481.33	263.30
481.69	263.50
482.06	263.70
482.42	263.92
482.79	264.19
483.15	264.51
483.52	264.93
483.88	265.27
484.25	265.64
484.61	266.06
484.98	266.53
485.34	267.09
485.71	267.62
486.07	268.19
486.44	268.76
486.80	269.43
487.17	270.16
487.53	270.97
487.90	271.82
488.26	272.76
488.62	273.77
488.99	274.76
489.35	275.81
489.72	276.93
490.08	278.09
490.44	279.34
490.81	280.65
491.17	281.97
491.54	283.44
491.90	284.99
492.26	286.62
492.63	288.33
492.99	290.06
493.36	291.97
493.72	294.03
494.08	296.13
494.45	298.36
494.81	300.71
495.17	303.12
495.54	305.69
495.90	308.36
496.26	311.16
496.63	314.09
496.99	317.14
497.35	320.37
497.72	323.76
498.08	327.21
498.44	330.85
498.80	334.74
499.17	338.73
499.53	342.86
499.89	347.24
500.26	351.71
500.62	356.41
500.98	361.37
501.34	366.39
501.71	371.67
502.07	377.07
502.43	382.68
502.79	388.49
503.16	394.49
503.52	400.70
503.88	407.10
504.24	413.74
504.60	420.71
504.97	427.82
505.33	435.10
505.69	442.80
506.05	450.56
506.41	458.41
506.78	466.58
507.14	474.99
507.50	483.69
507.86	492.71
508.22	501.84
508.59	511.04
508.95	520.63
509.31	530.41
509.67	540.56
510.03	550.82
510.39	561.41
510.75	572.19
511.12	583.18
511.48	594.44
511.84	605.87
512.20	617.33
512.56	629.24
512.92	641.46
513.28	653.77
513.64	666.18
514.00	678.93
514.37	691.94
514.73	705.06
515.09	718.08
515.45	731.38
515.81	745.01
516.17	759.04
516.53	773.15
516.89	787.44
517.25	801.61
517.61	816.12
517.97	830.60
518.33	845.09
518.69	859.94
519.05	875.07
519.41	890.26
519.77	905.84
520.13	921.38
520.49	936.72
520.85	952.36
521.21	968.21
521.57	984.48
521.93	1000.24
522.29	1016.69
522.65	1033.04
523.01	1049.35
523.37	1065.52
523.73	1081.77
524.09	1097.83
524.45	1114.19
524.81	1130.94
525.17	1147.78
525.53	1164.74
525.89	1181.70
526.25	1198.45
526.61	1214.77
526.97	1231.64
527.33	1248.13
527.68	1264.82
528.04	1281.36
528.40	1297.91
528.76	1314.99
529.12	1331.59
529.48	1348.50
529.84	1364.53
530.20	1381.16
530.56	1398.16
530.91	1415.58
531.27	1432.35
531.63	1449.06
531.99	1465.66
532.35	1481.67
532.71	1497.56
533.07	1513.89
533.42	1529.77
533.78	1545.84
534.14	1562.29
534.50	1577.69
534.86	1593.66
535.21	1608.84
535.57	1625.01
535.93	1640.49
536.29	1655.43
536.65	1670.60
537.00	1685.47
537.36	1700.87
537.72	1715.61
538.08	1730.06
538.44	1743.92
538.79	1757.86
539.15	1771.62
539.51	1785.57
539.87	1800.00
540.22	1813.97
540.58	1827.82
540.94	1841.35
541.29	1854.53
541.65	1867.14
542.01	1880.45
542.37	1892.77
542.72	1905.37
543.08	1917.22
543.44	1929.76
543.79	1941.06
544.15	1952.08
544.51	1963.71
544.87	1974.66
545.22	1985.46
545.58	1995.75
545.94	2005.57
546.29	2015.50
546.65	2025.32
547.01	2034.52
547.36	2043.30
547.72	2051.62
548.07	2059.37
548.43	2067.54
548.79	2075.55
549.14	2083.16
549.50	2090.59
549.86	2098.46
550.21	2105.62
550.57	2112.77
550.92	2119.38
551.28	2126.44
551.64	2133.58
551.99	2140.18
552.35	2146.41
552.70	2152.51
553.06	2158.44
553.41	2164.73
553.77	2170.76
554.13	2176.88
554.48	2182.83
554.84	2188.09
555.19	2193.51
555.55	2198.59
555.90	2203.08
556.26	2207.85
556.61	2212.67
556.97	2216.82
557.32	2220.91
557.68	2225.03
558.03	2229.27
558.39	2233.00
558.74	2237.58
559.10	2241.46
559.45	2244.98
559.81	2249.25
560.16	2253.12
560.52	2256.33
560.87	2259.80
561.23	2262.41
561.58	2265.38
561.94	2267.99
562.29	2270.56
562.64	2273.16
563.00	2275.90
563.35	2279.28
563.71	2282.54
564.06	2285.60
564.42	2288.39
564.77	2290.73
565.12	2292.97
565.48	2294.74
565.83	2296.42
566.19	2297.51
566.54	2298.30
566.89	2299.34
567.25	2299.83
567.60	2300.92
567.96	2302.50
568.31	2303.20
568.66	2304.03
569.02	2304.30
569.37	2304.50
569.72	2305.08
570.08	2305.09
570.43	2304.95
570.78	2304.08
571.14	2302.24
571.49	2300.78
571.84	2300.23
572.20	2298.91
572.55	2297.81
572.90	2295.98
573.26	2294.49
573.61	2292.84
573.96	2290.93
574.31	2287.90
574.67	2284.63
575.02	2281.00
575.37	2277.35
575.72	2273.21
576.08	2269.92
576.43	2266.57
576.78	2262.82
577.13	2259.67
577.49	2256.45
577.84	2252.79
578.19	2249.18
578.54	2245.24
578.90	2240.73
579.25	2235.23
579.60	2230.14
579.95	2224.99
580.30	2219.91
580.66	2214.60
581.01	2209.50
581.36	2204.37
581.71	2199.93
582.06	2195.55
582.42	2190.91
582.77	2185.73
583.12	2181.07
583.47	2176.14
583.82	2170.92
584.17	2165.49
584.53	2159.86
584.88	2154.07
585.23	2148.21
585.58	2142.61
585.93	2137.30
586.28	2132.49
586.63	2127.28
586.98	2122.11
587.34	2117.30
587.69	2112.32
588.04	2106.97
588.39	2101.07
588.74	2094.43
589.09	2088.23
589.44	2081.20
589.79	2075.13
590.14	2069.23
590.49	2062.70
590.84	2056.27
591.19	2050.22
591.54	2043.77
591.89	2036.17
592.25	2029.20
592.60	2021.87
592.95	2014.07
593.30	2006.58
593.65	1998.97
594.00	1991.80
594.35	1984.53
594.70	1976.35
595.05	1969.12
595.40	1961.87
595.75	1954.38
596.10	1948.13
596.45	1941.17
596.80	1935.01
597.15	1928.21
597.50	1921.15
597.85	1914.57
598.19	1907.73
598.54	1900.51
598.89	1893.73
599.24	1887.88
599.59	1881.12
599.94	1874.93
600.29	1868.57
600.64	1861.91
600.99	1854.39
601.34	1847.48
601.69	1840.49
602.04	1833.54
602.39	1826.10
602.74	1819.07
603.08	1812.24
603.43	1805.55
603.78	1798.32
604.13	1790.97
604.48	1783.70
604.83	1776.81
605.18	1769.85
605.53	1761.93
605.87	1753.96
606.22	1746.75
606.57	1738.74
606.92	1731.57
607.27	1724.29
607.62	1717.42
607.96	1710.09
608.31	1703.46
608.66	1695.81
609.01	1688.08
609.36	1680.52
609.70	1672.58
610.05	1664.56
610.40	1656.80
610.75	1648.47
611.10	1640.85
611.44	1632.67
611.79	1624.65
612.14	1615.97
612.49	1606.95
612.83	1598.61
613.18	1590.51
613.53	1582.33
613.88	1573.80
614.22	1565.50
614.57	1557.02
614.92	1548.98
615.27	1541.38
615.61	1533.07
615.96	1525.10
616.31	1517.64
616.65	1510.32
617.00	1502.83
617.35	1495.25
617.70	1487.00
618.04	1478.54
618.39	1470.40
618.74	1462.77
619.08	1454.58
619.43	1447.15
619.78	1440.15
620.12	1432.99
620.47	1425.47
620.82	1417.39
621.16	1409.95
621.51	1402.35
621.85	1394.72
622.20	1386.19
622.55	1378.03
622.89	1370.36
623.24	1362.82
623.59	1355.61
623.93	1348.06
624.28	1340.79
624.62	1333.17
624.97	1326.00
625.32	1319.26
625.66	1312.28
626.01	1304.96
626.35	1297.40
626.70	1289.69
627.04	1282.03
627.39	1274.21
627.73	1266.79
628.08	1259.96
628.43	1252.73
628.77	1245.31
629.12	1237.77
629.46	1230.63
629.81	1223.21
630.15	1215.95
630.50	1208.53
630.84	1200.24
631.19	1192.42
631.53	1185.02
631.88	1177.49
632.22	1170.06
632.57	1162.87
632.91	1155.33
633.26	1148.07
633.60	1140.81
633.95	1133.79
634.29	1126.79
634.64	1120.23
634.98	1112.99
635.32	1105.83
635.67	1099.39
636.01	1092.94
636.36	1086.21
636.70	1079.75
637.05	1073.23
637.39	1066.78
637.73	1060.35
638.08	1054.52
638.42	1048.61
638.77	1042.12
639.11	1035.57
639.45	1029.05
639.80	1022.35
640.14	1015.87
640.49	1009.34
640.83	1003.06
641.17	996.76
641.52	990.53
641.86	984.17
642.20	978.36
642.55	972.04
642.89	965.49
643.23	958.93
643.58	953.17
643.92	946.96
644.26	940.87
644.61	934.83
644.95	928.80
645.29	922.26
645.64	915.52
645.98	909.25
646.32	903.54
646.66	897.64
647.01	891.88
647.35	886.30
647.69	880.64
648.04	875.17
648.38	869.34
648.72	863.28
649.06	857.20
649.41	851.30
649.75	845.42
650.09	839.50
650.43	833.72
650.78	827.56
651.12	821.62
651.46	815.94
651.80	810.15
652.14	804.81
652.49	799.36
652.83	794.19
653.17	788.50
653.51	782.68
653.85	777.26
654.20	771.59
654.54	765.59
654.88	759.78
655.22	753.89
655.56	748.26
655.90	742.83
656.25	737.56
656.59	732.24
656.93	727.19
657.27	721.98
657.61	716.51
657.95	711.41
658.29	706.35
658.64	701.14
658.98	695.91
659.32	690.42
659.66	685.28
660.00	679.91
660.34	674.97
660.68	670.12
661.02	665.20
661.36	660.48
661.70	656.00
662.05	651.62
662.39	647.30
662.73	642.84
663.07	638.51
663.41	634.10
663.75	629.58
664.09	625.01
664.43	620.72
664.77	616.64
665.11	612.41
665.45	608.38
665.79	604.32
666.13	600.27
666.47	596.16
666.81	591.97
667.15	587.92
667.49	584.10
667.83	580.41
668.17	576.40
668.51	572.44
668.85	568.46
669.19	564.61
669.53	560.81
669.87	557.02
670.21	553.35
670.55	549.82
670.89	546.43
671.23	542.98
671.57	539.46
671.91	535.95
672.25	532.50
672.58	528.95
672.92	525.58
673.26	522.42
673.60	519.28
673.94	516.23
674.28	513.36
674.62	510.38
674.96	507.22
675.30	504.37
675.64	501.46
675.97	498.69
676.31	495.88
676.65	492.96
676.99	490.24
677.33	487.35
677.67	484.51
678.01	481.49
678.34	478.55
678.68	475.70
679.02	472.87
679.36	470.12
679.70	467.47
680.04	464.69
680.37	461.80
680.71	459.11
681.05	456.53
681.39	453.83
681.73	451.22
682.06	448.76
682.40	446.19
682.74	443.69
683.08	441.16
683.42	438.58
683.75	436.10
684.09	433.60
684.43	431.22
684.77	428.82
685.10	426.51
685.44	424.29
685.78	422.00
686.12	419.79
686.45	417.55
686.79	415.17
687.13	413.06
687.46	410.92
687.80	408.78
688.14	406.57
688.48	404.58
688.81	402.33
689.15	400.19
689.49	398.10
689.82	396.01
690.16	393.94
690.50	392.01
690.83	390.08
691.17	388.09
691.51	386.20
691.84	384.32
692.18	382.34
692.52	380.34
692.85	378.47
693.19	376.58
693.52	374.73
693.86	372.98
694.20	371.17
694.53	369.40
694.87	367.52
695.21	365.76
695.54	363.95
695.88	362.24
696.21	360.51
696.55	358.81
696.88	357.14
697.22	355.55
697.56	353.94
697.89	352.30
698.23	350.69
698.56	349.09
698.90	347.53
699.23	345.95
699.57	344.37
699.90	342.87
700.24	341.38
700.58	339.85
700.91	338.39
701.25	336.97
701.58	335.62
701.92	334.29
702.25	332.92
702.59	331.53
702.92	330.22
703.26	328.93
703.59	327.65
703.93	326.49
704.26	325.21
704.60	323.90
704.93	322.63
705.26	321.40
705.60	320.23
705.93	319.05
706.27	318.03
706.60	316.97
706.94	315.89
707.27	314.77
707.61	313.73
707.94	312.72
708.27	311.63
708.61	310.52
708.94	309.53
709.28	308.53
709.61	307.57
709.94	306.67
710.28	305.61
710.61	304.65
710.95	303.57
711.28	302.68
711.61	301.76
711.95	300.84
712.28	299.90
712.61	298.87
712.95	297.92
713.28	297.07
713.61	296.16
713.95	295.24
714.28	294.38
714.61	293.51
714.95	292.61
715.28	291.78
715.61	290.92
715.95	290.07
716.28	289.22
716.61	288.41
716.95	287.57
717.28	286.89
717.61	286.16
717.94	285.42
718.28	284.63
718.61	283.91
718.94	283.24
719.27	282.57
719.61	281.97
719.94	281.35
720.27	280.62
720.60	280.01
720.94	279.42
721.27	278.86
721.60	278.28
721.93	277.72
722.27	277.20
722.60	276.65
722.93	276.09
723.26	275.56
723.59	275.01
723.93	274.43
724.26	273.84
724.59	273.29
724.92	272.78
725.25	272.27
725.59	271.79
725.92	271.28
726.25	270.84
726.58	270.35
726.91	269.84
727.24	269.40
727.57	268.91
727.91	268.39
728.24	267.93
728.57	267.48
728.90	267.07
729.23	266.55
729.56	266.15
729.89	265.69
730.22	265.24
730.55	264.80
730.89	264.41
731.22	264.00
731.55	263.58
731.88	263.15
732.21	262.75
732.54	262.31
732.87	261.89
733.20	261.45
733.53	261.03
733.86	260.69
734.19	260.26
734.52	259.91
734.85	259.61
735.18	259.19
735.51	258.82
735.84	258.41
736.17	258.05
736.50	257.62
736.83	257.40
737.16	257.06
737.49	256.71
737.82	256.31
738.15	255.98
738.48	255.61
738.81	255.28
739.14	254.93
739.47	254.61
739.80	254.28
740.13	253.97
740.46	253.68
740.79	253.30
741.12	253.02
741.45	252.63
741.78	252.27
742.11	251.98
742.44	251.64
742.77	251.34
743.10	251.06
743.43	250.76
743.75	250.32
744.08	250.16
744.41	249.88
744.74	249.63
745.07	249.34
745.40	249.10
745.73	248.84
746.06	248.53
746.39	248.21
746.71	247.95
747.04	247.68
747.37	247.39
747.70	247.17
748.03	246.92
748.36	246.70
748.68	246.47
749.01	246.17
749.34	245.95
749.67	245.72
750.00	245.48
750.33	245.33
750.65	245.15
750.98	244.78
751.31	244.57
751.64	244.35
751.97	244.17
752.29	243.95
752.62	243.70
752.95	243.54
753.28	243.33
753.60	243.12
753.93	242.91
754.26	242.72
754.59	242.51
754.91	242.24
755.24	242.05
755.57	241.87
755.90	241.73
756.22	241.54
756.55	241.34
756.88	241.11
757.20	240.90
757.53	240.71
757.86	240.53
758.19	240.34
758.51	240.18
758.84	239.98
759.17	239.81
759.49	239.70
759.82	239.59
760.15	239.47
760.47	239.33
760.80	239.20
761.13	239.11
761.45	238.93
761.78	238.84
762.11	238.75
762.43	238.56
762.76	238.41
763.08	238.31
763.41	238.19
763.74	238.07
764.06	237.91
764.39	237.81
764.71	237.71
765.04	237.61
765.37	237.49
765.69	237.38
766.02	237.29
766.34	237.15
766.67	236.99
767.00	236.92
767.32	236.87
767.65	236.81
767.97	236.67
768.30	236.58
768.62	236.46
768.95	236.33
769.27	236.27
769.60	236.19
769.92	236.06
770.25	235.94
770.57	235.86
770.90	235.76
771.22	235.60
771.55	235.52
771.87	235.42
772.20	235.32
772.52	235.32
772.85	235.30
773.17	235.22
773.50	235.13
773.82	235.00
774.15	234.87
774.47	234.69
774.80	234.61
775.12	234.54
775.45	234.48
775.77	234.40
776.09	234.35
776.42	234.25
776.74	234.23
777.07	234.16
777.39	234.07
777.72	234.02
778.04	234.01
778.36	233.90
778.69	233.85
779.01	233.77
779.33	233.60
779.66	233.43
779.98	233.34
780.31	233.24
780.63	233.22
780.95	233.17
781.28	233.12
781.60	233.03
781.92	232.93
782.25	232.85
782.57	232.79
782.89	232.68
783.22	232.64
783.54	232.50
783.86	232.44
784.19	232.38
784.51	232.32
784.83	232.23
785.16	232.17
785.48	232.10
785.80	232.03
786.12	232.00
786.45	231.93
786.77	231.89
787.09	231.83
787.42	231.74
787.74	231.67
788.06	231.61
788.38	231.54
788.71	231.47
789.03	231.41
789.35	231.38
789.67	231.31
789.99	231.23
790.32	231.22
790.64	231.17
790.96	231.17
791.28	231.12
791.61	231.08
791.93	231.05
792.25	231.00
792.57	231.02
792.89	230.90
793.21	230.86
793.54	230.79
793.86	230.76
794.18	230.70
794.50	230.63
794.82	230.61
795.14	230.59
795.47	230.58
795.79	230.54
796.11	230.47
796.43	230.45
796.75	230.44
797.07	230.36
797.39	230.31
797.71	230.24
798.04	230.22
798.36	230.18
798.68	230.13
799.00	230.09
799.32	230.04
799.64	230.07
799.96	230.05
800.28	230.07
800.60	230.03
800.92	230.05
801.24	230.07
801.56	230.05
801.89	230.02
802.21	230.02
802.53	230.00
802.85	230.00
803.17	230.04
803.49	229.96
803.81	229.96
804.13	229.97
804.45	229.95
804.77	229.93
805.09	229.90
805.41	229.90
805.73	229.91
806.05	229.85
806.37	229.84
806.69	229.83
807.01	229.82
807.33	229.81
807.65	229.73
807.97	229.76
808.28	229.76
808.60	229.77
808.92	229.75
809.24	229.80
809.56	229.77
809.88	229.72
810.20	229.74
810.52	229.73
810.84	229.68
811.16	229.65
811.48	229.63
811.80	229.65
812.12	229.64
812.43	229.62
812.75	229.62
813.07	229.59
813.39	229.56
813.71	229.51
814.03	229.45
814.35	229.44
814.67	229.33
814.98	229.26
815.30	229.24
815.62	229.15
815.94	229.06
816.26	229.07
816.58	229.01
816.89	229.00
817.21	228.99
817.53	228.98
817.85	228.95
818.17	228.90
818.48	228.86
818.80	228.84
819.12	228.79
819.44	228.75
819.76	228.76
820.07	228.75
820.39	228.73
820.71	228.76
821.03	228.75
821.34	228.76
821.66	228.76
821.98	228.73
822.30	228.73
822.61	228.79
822.93	228.77
823.25	228.75
823.57	228.70
823.88	228.68
824.20	228.68
824.52	228.67
824.83	228.68
825.15	228.62
825.47	228.61
825.79	228.61
826.10	228.56
826.42	228.51
826.74	228.44
827.05	228.43
827.37	228.40
827.69	228.37
828.00	228.33
828.32	228.32
828.64	228.30
828.95	228.36
829.27	228.29
829.58	228.23
829.90	228.23
830.22	228.20
830.53	228.16
830.85	228.14
831.17	228.12
831.48	228.08
831.80	228.07
832.11	228.05
832.43	228.05
832.75	228.05
833.06	228.12
833.38	228.11
833.69	228.09
834.01	228.09
834.32	228.08
834.64	228.09
834.96	228.10
835.27	228.07
835.59	228.02
835.90	228.00
836.22	227.99
836.53	227.99
836.85	228.01
837.16	228.10
837.48	228.08
837.79	228.09
838.11	228.08
838.42	228.08
838.74	228.09
839.05	228.07
839.37	228.03
839.68	227.96
840.00	227.96
840.31	227.97
840.63	227.94
840.94	227.94
841.26	227.90
841.57	227.88
841.88	227.88
842.20	227.84
842.51	227.85
842.83	227.83
843.14	227.90
843.46	227.91
843.77	227.85
844.08	227.84
844.40	227.83
844.71	227.83
845.03	227.81
845.34	227.80
845.65	227.79
845.97	227.82
846.28	227.82
846.60	227.86
846.91	227.86
847.22	227.87
847.54	227.89
847.85	227.87
848.16	227.91
848.48	227.90
848.79	227.93
849.10	227.96
849.42	227.98
849.73	227.91
850.04	227.87
850.36	227.87
850.67	227.89
850.98	227.89
851.30	227.90
851.61	227.92
851.92	227.94
852.23	227.98
852.55	227.97
852.86	228.00
853.17	227.99
853.49	228.00
853.80	228.00
854.11	227.96
854.42	228.02
854.74	228.00
855.05	228.01
855.36	227.96
855.67	227.94
855.99	227.95
856.30	228.03
856.61	228.04
856.92	228.01
857.23	228.02
857.55	228.02
857.86	228.03
858.17	228.02
858.48	227.98
858.79	227.93
859.11	227.94
859.42	227.92
859.73	227.88
860.04	227.86
860.35	227.81
860.66	227.84
860.98	227.81
861.29	227.80
861.60	227.77
861.91	227.81
862.22	227.78
862.53	227.76
862.84	227.63
863.16	227.65
863.47	227.63
863.78	227.60
864.09	227.58
864.40	227.58
864.71	227.60
865.02	227.61
865.33	227.62
865.64	227.57
865.95	227.53
866.27	227.58
866.58	227.57
866.89	227.61
867.20	227.60
867.51	227.57
867.82	227.55
868.13	227.60
868.44	227.56
868.75	227.58
869.06	227.58
869.37	227.60
869.68	227.57
869.99	227.57
870.30	227.58
870.61	227.56
870.92	227.52
871.23	227.48
871.54	227.49
871.85	227.49
872.16	227.54
872.47	227.56
872.78	227.49
873.09	227.54
873.40	227.49
873.71	227.48
874.02	227.47
874.33	227.51
874.64	227.48
874.95	227.49
875.26	227.46
875.56	227.44
875.87	227.47
876.18	227.45
876.49	227.57
876.80	227.54
877.11	227.56
877.42	227.57
877.73	227.57
878.04	227.57
878.35	227.55
878.66	227.50
878.96	227.51
879.27	227.53
879.58	227.49
879.89	227.53
880.20	227.53
880.51	227.55
880.82	227.53
881.12	227.54
881.43	227.54
881.74	227.52
882.05	227.52
882.36	227.49
882.67	227.52
882.97	227.41
883.28	227.43
883.59	227.41
883.90	227.41
884.21	227.43
884.51	227.43
884.82	227.45
885.13	227.51
885.44	227.48
885.74	227.50
886.05	227.48
886.36	227.47
886.67	227.44
886.98	227.46
887.28	227.47
887.59	227.44
887.90	227.44
888.20	227.46
888.51	227.50
888.82	227.50
889.13	227.52
889.43	227.60
889.74	227.59
890.05	227.57
890.35	227.58
890.66	227.58
890.97	227.56
891.28	227.51
891.58	227.50
891.89	227.51
892.20	227.49
892.50	227.50
892.81	227.50
893.12	227.51
893.42	227.49
893.73	227.50
894.04	227.51
894.34	227.52
894.65	227.53
894.95	227.53
895.26	227.56
895.57	227.57
895.87	227.49
896.18	227.52
896.48	227.55
896.79	227.55
897.10	227.56
897.40	227.56
897.71	227.62
898.01	227.57
898.32	227.58
898.63	227.57
898.93	227.56
899.24	227.57
899.54	227.56
899.85	227.54
900.15	227.51
900.46	227.50
900.76	227.49
901.07	227.44
901.38	227.41
901.68	227.38
901.99	227.32
902.29	227.31
902.60	227.28
902.90	227.29
903.21	227.27
903.51	227.26
903.82	227.24
904.12	227.21
904.43	227.22
904.73	227.21
905.03	227.22
905.34	227.32
905.64	227.29
905.95	227.31
906.25	227.33
906.56	227.33
906.86	227.33
907.17	227.30
907.47	227.37
907.77	227.34
908.08	227.31
908.38	227.31
908.69	227.33
908.99	227.35
909.30	227.34
909.60	227.35
909.90	227.36
910.21	227.37
910.51	227.33
910.81	227.31
911.12	227.31
911.42	227.33
911.73	227.24
912.03	227.24
912.33	227.26
912.64	227.25
912.94	227.24
913.24	227.19
913.55	227.21
913.85	227.17
914.15	227.20
914.46	227.21
914.76	227.21
915.06	227.20
915.37	227.19
915.67	227.17
915.97	227.18
916.27	227.14
916.58	227.13
916.88	227.16
917.18	227.22
917.49	227.27
917.79	227.28
918.09	227.27
918.39	227.29
918.70	227.30
919.00	227.31
919.30	227.37
919.60	227.41
919.91	227.38
920.21	227.41
920.51	227.38
920.81	227.36
921.12	227.39
921.42	227.37
921.72	227.35
922.02	227.37
922.32	227.35
922.63	227.35
922.93	227.38
923.23	227.39
923.53	227.36
923.83	227.29
924.13	227.27
924.44	227.27
924.74	227.28
925.04	227.27
925.34	227.21
925.64	227.17
925.94	227.17
926.24	227.23
926.55	227.23
926.85	227.26
927.15	227.27
927.45	227.27
927.75	227.27
928.05	227.29
928.35	227.28
928.65	227.29
928.95	227.30
929.26	227.26
929.56	227.29
929.86	227.28
930.16	227.28
930.46	227.27
930.76	227.30
931.06	227.24
931.36	227.20
931.66	227.23
931.96	227.25
932.26	227.27
932.56	227.23
932.86	227.21
933.16	227.19
933.46	227.22
933.76	227.21
934.06	227.24
934.36	227.28
934.66	227.29
934.96	227.27
935.26	227.27
935.56	227.29
935.86	227.26
936.16	227.25
936.46	227.24
936.76	227.22
937.06	227.18
937.36	227.17
937.66	227.18
937.96	227.18
938.26	227.12
938.56	227.06
938.86	227.05
939.16	227.02
939.46	227.04
939.76	226.99
940.06	226.95
940.35	226.92
940.65	226.87
940.95	226.88
941.25	226.85
941.55	226.87
941.85	226.84
942.15	226.87
942.45	226.88
942.75	226.87
943.04	226.90
943.34	226.91
943.64	226.92
943.94	226.89
944.24	226.90
944.54	226.93
944.84	226.96
945.13	226.95
945.43	226.99
945.73	226.99
946.03	226.98
946.33	226.97
946.62	226.93
946.92	226.93
947.22	226.92
947.52	226.94
947.82	226.91
948.11	226.88
948.41	226.86
948.71	226.82
949.01	226.83
949.31	226.81
949.60	226.82
949.90	226.85
950.20	226.87
950.50	226.88
950.79	226.88
951.09	226.87
951.39	226.87
951.69	226.87
951.98	226.90
952.28	226.94
952.58	226.95
952.87	226.96
953.17	226.98
953.47	226.95
953.76	226.96
954.06	226.97
954.36	226.99
954.66	226.96
954.95	227.02
955.25	227.05
955.55	227.04
955.84	227.03
956.14	227.02
956.44	227.03
956.73	227.02
957.03	227.05
957.32	227.05
957.62	227.03
957.92	227.04
958.21	227.03
958.51	227.15
958.81	227.15
959.10	227.21
959.40	227.24
959.69	227.28
959.99	227.30
960.29	227.30
960.58	227.30
960.88	227.34
961.17	227.35
961.47	227.35
961.76	227.36
962.06	227.37
962.36	227.38
962.65	227.40
962.95	227.39
963.24	227.38
963.54	227.38
963.83	227.41
964.13	227.37
964.42	227.32
964.72	227.24
965.01	227.26
965.31	227.19
965.60	227.14
965.90	227.22
966.19	227.19
966.49	227.20
966.78	227.20
967.08	227.20
967.37	227.14
967.67	227.11
967.96	227.11
968.26	227.11
968.55	227.13
968.85	227.11
969.14	227.08
969.43	227.09
969.73	227.08
970.02	227.06
970.32	227.06
970.61	227.06
970.91	227.02
971.20	226.98
971.49	227.01
971.79	227.01
972.08	226.93
972.38	226.91
972.67	226.90
972.96	226.93
973.26	226.88
973.55	226.92
973.85	226.92
974.14	226.91
974.43	226.93
974.73	226.89
975.02	226.87
975.31	226.89
975.61	226.85
975.90	226.84
976.19	226.83
976.49	226.86
976.78	226.89
977.07	226.86
977.37	226.88
977.66	226.88
977.95	226.85
978.24	226.83
978.54	226.85
978.83	226.82
979.12	226.80
979.42	226.79
979.71	226.77
980.00	226.78
980.29	226.76
980.59	226.74
980.88	226.76
981.17	226.76
981.46	226.76
981.76	226.79
982.05	226.83
982.34	226.84
982.63	226.84
982.93	226.83
983.22	226.88
983.51	226.87
983.80	226.87
984.09	226.93
984.39	226.91
984.68	226.89
984.97	226.91
985.26	226.93
985.55	226.95
985.85	226.94
986.14	226.99
986.43	227.03
986.72	227.02
987.01	226.99
987.30	227.00
987.59	226.98
987.89	226.96
988.18	226.93
988.47	226.97
988.76	226.96
989.05	226.95
989.34	226.93
989.63	226.98
989.92	226.98
990.22	226.98
990.51	227.03
990.80	227.04
991.09	227.06
991.38	227.09
991.67	227.10
991.96	227.11
992.25	227.09
992.54	227.07
992.83	227.08
993.12	227.10
993.41	227.10
993.70	227.15
993.99	227.17
994.28	227.20
994.58	227.20
994.87	227.17
995.16	227.18
995.45	227.19
995.74	227.11
996.03	227.12
996.32	227.13
996.61	227.13
996.90	227.12
997.19	227.10
997.48	227.10
997.77	227.09
998.06	227.14
998.34	227.13
998.63	227.15
998.92	227.17
999.21	227.19
999.50	227.16
999.79	227.13
1000.08	227.12
1000.37	227.13
1000.66	227.08
1000.95	227.13
1001.24	227.14
1001.53	227.14
1001.82	227.20
1002.11	227.16
1002.40	227.13
1002.68	227.16
1002.97	227.24
1003.26	227.25
1003.55	227.19
1003.84	227.22
1004.13	227.22
1004.42	227.18
1004.71	227.17
1004.99	227.12
1005.28	227.14
1005.57	227.19
1005.86	227.17
1006.15	227.19
1006.44	227.15
1006.72	227.22
1007.01	227.20
1007.30	227.16
1007.59	227.15
1007.88	227.09
1008.17	227.09
1008.45	227.10
1008.74	227.02
1009.03	226.94
1009.32	226.92
1009.60	226.95
1009.89	226.91
1010.18	226.84
1010.47	226.87
1010.76	226.83
1011.04	226.83
1011.33	226.81
1011.62	226.79
1011.91	226.78
1012.19	226.76
1012.48	226.75
1012.77	226.71
1013.05	226.78
1013.34	226.80
1013.63	226.80
1013.92	226.80
1014.20	226.81
1014.49	226.79
1014.78	226.81
1015.06	226.81
1015.35	226.81
1015.64	226.79
1015.92	226.79
1016.21	226.83
1016.50	226.82
1016.78	226.86
1017.07	226.86
1017.36	226.84
1017.64	226.83
1017.93	226.85
1018.22	226.81
1018.50	226.81
1018.79	226.83
1019.08	226.75
1019.36	226.74
1019.65	226.70
1019.93	226.75
1020.22	226.76
1020.51	226.83
1020.79	226.82
1021.08	226.20
1021.36	226.48
1021.65	227.33
1021.94	226.76
1022.22	226.58
1022.51	226.04
1022.79	227.44
1023.08	226.99
1023.36	228.01
1023.65	226.51
>>>>>End Processed Spectral Data<<<<<
