SpectraSuite Data File
++++++++++++++++++++++++++++++++++++
Date: Fri Feb 01 15:56:20 EST 2013
User: group
Dark Spectrum Present: No
Reference Spectrum Present: No
Number of Sampled Component Spectra: 1
Spectrometers: USB2E7196
Integration Time (usec): 35000 (USB2E7196)
Spectra Averaged: 100 (USB2E7196)
Boxcar Smoothing: 10 (USB2E7196)
Correct for Electrical Dark: No (USB2E7196)
Strobe/Lamp Enabled: No (USB2E7196)
Correct for Detector Non-linearity: No (USB2E7196)
Correct for Stray Light: No (USB2E7196)
Number of Pixels in Processed Spectrum: 2048
>>>>>Begin Processed Spectral Data<<<<<
339.09	0.00
339.48	214.40
339.86	216.91
340.24	217.76
340.63	219.09
341.01	221.87
341.39	221.78
341.78	222.83
342.16	224.12
342.54	224.18
342.93	213.15
343.31	223.93
343.69	224.49
344.07	224.96
344.46	225.38
344.84	225.76
345.22	225.98
345.60	226.25
345.99	226.45
346.37	226.61
346.75	226.75
347.13	226.80
347.52	226.86
347.90	226.87
348.28	226.91
348.66	226.97
349.05	226.99
349.43	227.02
349.81	227.07
350.19	227.13
350.57	227.18
350.96	227.25
351.34	227.32
351.72	227.44
352.10	227.52
352.48	227.58
352.87	227.65
353.25	227.73
353.63	227.78
354.01	227.85
354.39	227.93
354.77	227.99
355.15	228.09
355.54	228.17
355.92	228.21
356.30	228.29
356.68	228.45
357.06	228.49
357.44	228.55
357.82	228.61
358.20	228.63
358.58	228.68
358.97	228.76
359.35	228.85
359.73	228.89
360.11	228.90
360.49	228.96
360.87	228.98
361.25	229.05
361.63	229.15
362.01	229.17
362.39	229.12
362.77	229.17
363.15	229.18
363.53	229.18
363.91	229.21
364.29	229.19
364.67	229.12
365.05	229.13
365.43	229.16
365.81	229.21
366.19	229.25
366.57	229.30
366.95	229.27
367.33	229.23
367.71	229.20
368.09	229.22
368.47	229.21
368.85	229.18
369.23	229.15
369.61	229.05
369.99	229.10
370.37	229.13
370.75	229.15
371.13	229.09
371.51	229.07
371.89	229.05
372.27	229.00
372.65	228.97
373.03	228.95
373.41	228.86
373.78	228.76
374.16	228.70
374.54	228.65
374.92	228.57
375.30	228.50
375.68	228.44
376.06	228.37
376.44	228.27
376.82	228.20
377.19	228.12
377.57	228.05
377.95	227.92
378.33	227.85
378.71	227.72
379.09	227.69
379.47	227.61
379.84	227.51
380.22	227.47
380.60	227.36
380.98	227.29
381.36	227.24
381.73	227.17
382.11	227.11
382.49	227.01
382.87	226.95
383.25	226.87
383.62	226.90
384.00	226.86
384.38	226.81
384.76	226.81
385.13	226.80
385.51	226.73
385.89	226.68
386.27	226.63
386.64	226.56
387.02	226.50
387.40	226.43
387.78	226.41
388.15	226.37
388.53	226.32
388.91	226.27
389.29	226.24
389.66	226.22
390.04	226.20
390.42	226.17
390.79	226.17
391.17	226.17
391.55	226.03
391.92	226.00
392.30	226.03
392.68	226.00
393.05	225.98
393.43	226.05
393.81	226.06
394.18	226.08
394.56	226.12
394.94	226.17
395.31	226.20
395.69	226.23
396.06	226.28
396.44	226.32
396.82	226.34
397.19	226.42
397.57	226.45
397.95	226.51
398.32	226.57
398.70	226.65
399.07	226.71
399.45	226.81
399.82	226.85
400.20	226.88
400.58	226.94
400.95	226.98
401.33	227.06
401.70	227.20
402.08	227.29
402.45	227.38
402.83	227.50
403.20	227.61
403.58	227.73
403.95	227.83
404.33	227.98
404.71	228.11
405.08	228.28
405.46	228.45
405.83	228.58
406.21	228.76
406.58	228.91
406.96	229.09
407.33	229.26
407.70	229.48
408.08	229.79
408.45	230.01
408.83	230.25
409.20	230.45
409.58	230.64
409.95	230.88
410.33	231.16
410.70	231.40
411.08	231.70
411.45	232.02
411.82	232.35
412.20	232.70
412.57	233.12
412.95	233.40
413.32	233.78
413.69	234.17
414.07	234.60
414.44	235.06
414.82	235.55
415.19	236.09
415.56	236.64
415.94	237.12
416.31	237.80
416.68	238.46
417.06	239.20
417.43	239.89
417.81	240.65
418.18	241.41
418.55	242.23
418.93	243.11
419.30	243.99
419.67	244.91
420.04	245.87
420.42	246.84
420.79	248.07
421.16	249.23
421.54	250.42
421.91	251.62
422.28	252.85
422.66	254.16
423.03	255.49
423.40	256.85
423.77	258.28
424.15	259.66
424.52	261.10
424.89	262.67
425.26	264.19
425.64	265.61
426.01	267.22
426.38	268.87
426.75	270.52
427.13	272.24
427.50	274.02
427.87	275.89
428.24	277.79
428.61	279.54
428.99	281.47
429.36	283.57
429.73	285.61
430.10	287.67
430.47	289.72
430.85	291.80
431.22	294.00
431.59	296.41
431.96	298.62
432.33	301.09
432.70	303.49
433.08	306.28
433.45	308.97
433.82	311.55
434.19	314.42
434.56	317.20
434.93	319.86
435.30	322.52
435.68	325.40
436.05	328.19
436.42	330.93
436.79	333.49
437.16	336.18
437.53	339.02
437.90	341.80
438.27	344.53
438.64	347.35
439.01	349.94
439.38	352.14
439.75	354.32
440.13	356.78
440.50	359.10
440.87	360.99
441.24	362.91
441.61	365.11
441.98	366.60
442.35	368.44
442.72	370.27
443.09	372.06
443.46	373.03
443.83	373.64
444.20	374.18
444.57	374.96
444.94	375.25
445.31	375.60
445.68	375.97
446.05	376.07
446.42	375.69
446.79	375.27
447.16	374.84
447.53	374.55
447.90	373.45
448.27	372.27
448.64	370.68
449.01	369.54
449.37	367.54
449.74	365.67
450.11	363.43
450.48	360.98
450.85	358.50
451.22	356.38
451.59	354.36
451.96	352.38
452.33	349.79
452.70	347.40
453.07	344.59
453.43	341.69
453.80	338.93
454.17	336.30
454.54	333.77
454.91	331.07
455.28	328.41
455.65	325.91
456.02	323.51
456.38	321.38
456.75	318.70
457.12	316.46
457.49	314.22
457.86	312.03
458.23	310.17
458.59	308.13
458.96	306.06
459.33	304.20
459.70	302.38
460.07	300.87
460.43	299.20
460.80	297.56
461.17	296.11
461.54	294.61
461.91	293.18
462.27	291.68
462.64	290.42
463.01	289.05
463.38	287.75
463.74	286.35
464.11	285.18
464.48	284.22
464.85	283.14
465.21	282.29
465.58	281.39
465.95	280.28
466.32	279.33
466.68	278.40
467.05	277.50
467.42	276.57
467.78	275.61
468.15	274.72
468.52	274.10
468.88	273.29
469.25	272.54
469.62	271.91
469.98	271.27
470.35	270.62
470.72	270.00
471.08	269.37
471.45	268.86
471.82	268.31
472.18	267.65
472.55	267.21
472.92	266.67
473.28	266.20
473.65	265.79
474.02	265.36
474.38	265.02
474.75	264.74
475.11	264.39
475.48	264.16
475.85	263.94
476.21	263.71
476.58	263.46
476.94	263.31
477.31	263.15
477.67	263.03
478.04	262.94
478.41	262.90
478.77	262.95
479.14	262.90
479.50	262.91
479.87	262.98
480.23	263.04
480.60	263.15
480.96	263.24
481.33	263.45
481.69	263.65
482.06	263.84
482.42	264.04
482.79	264.33
483.15	264.64
483.52	265.04
483.88	265.35
484.25	265.76
484.61	266.20
484.98	266.63
485.34	267.17
485.71	267.76
486.07	268.37
486.44	268.93
486.80	269.63
487.17	270.33
487.53	271.17
487.90	272.04
488.26	272.94
488.62	273.92
488.99	274.90
489.35	275.97
489.72	277.11
490.08	278.29
490.44	279.52
490.81	280.84
491.17	282.18
491.54	283.65
491.90	285.21
492.26	286.81
492.63	288.52
492.99	290.31
493.36	292.21
493.72	294.24
494.08	296.39
494.45	298.66
494.81	301.07
495.17	303.50
495.54	306.09
495.90	308.81
496.26	311.63
496.63	314.55
496.99	317.64
497.35	320.88
497.72	324.30
498.08	327.80
498.44	331.53
498.80	335.48
499.17	339.56
499.53	343.71
499.89	348.18
500.26	352.74
500.62	357.44
500.98	362.40
501.34	367.52
501.71	372.82
502.07	378.28
502.43	383.95
502.79	389.75
503.16	395.78
503.52	402.02
503.88	408.47
504.24	415.13
504.60	422.04
504.97	429.22
505.33	436.55
505.69	444.27
506.05	452.06
506.41	459.91
506.78	468.10
507.14	476.55
507.50	485.22
507.86	494.25
508.22	503.43
508.59	512.64
508.95	522.21
509.31	531.99
509.67	542.10
510.03	552.35
510.39	562.91
510.75	573.73
511.12	584.69
511.48	596.00
511.84	607.47
512.20	618.93
512.56	630.86
512.92	643.04
513.28	655.41
513.64	667.87
514.00	680.61
514.37	693.54
514.73	706.61
515.09	719.59
515.45	732.84
515.81	746.46
516.17	760.45
516.53	774.52
516.89	788.63
517.25	802.76
517.61	817.13
517.97	831.56
518.33	845.97
518.69	860.79
519.05	875.72
519.41	890.83
519.77	906.46
520.13	921.91
520.49	937.25
520.85	952.69
521.21	968.33
521.57	984.51
521.93	1000.19
522.29	1016.54
522.65	1032.75
523.01	1048.91
523.37	1064.96
523.73	1081.13
524.09	1097.23
524.45	1113.62
524.81	1130.28
525.17	1147.11
525.53	1164.04
525.89	1180.90
526.25	1197.70
526.61	1214.15
526.97	1230.91
527.33	1247.21
527.68	1263.75
528.04	1280.25
528.40	1296.79
528.76	1313.85
529.12	1330.44
529.48	1347.29
529.84	1363.25
530.20	1380.00
530.56	1397.05
530.91	1414.35
531.27	1431.05
531.63	1447.47
531.99	1463.97
532.35	1479.78
532.71	1495.62
533.07	1511.74
533.42	1527.60
533.78	1543.46
534.14	1559.72
534.50	1575.01
534.86	1590.93
535.21	1606.06
535.57	1621.95
535.93	1637.39
536.29	1652.16
536.65	1667.29
537.00	1682.02
537.36	1697.35
537.72	1711.77
538.08	1726.18
538.44	1739.84
538.79	1753.66
539.15	1767.29
539.51	1780.99
539.87	1795.40
540.22	1809.08
540.58	1822.93
540.94	1836.30
541.29	1849.33
541.65	1861.91
542.01	1875.05
542.37	1887.41
542.72	1899.85
543.08	1911.58
543.44	1923.95
543.79	1935.23
544.15	1946.10
544.51	1957.72
544.87	1968.79
545.22	1979.60
545.58	1989.75
545.94	1999.53
546.29	2009.39
546.65	2019.25
547.01	2028.44
547.36	2037.11
547.72	2045.62
548.07	2053.43
548.43	2061.48
548.79	2069.41
549.14	2076.95
549.50	2084.35
549.86	2091.96
550.21	2099.31
550.57	2106.37
550.92	2112.99
551.28	2119.99
551.64	2127.00
551.99	2133.41
552.35	2139.47
552.70	2145.64
553.06	2151.49
553.41	2157.96
553.77	2164.06
554.13	2170.15
554.48	2176.38
554.84	2181.78
555.19	2187.13
555.55	2192.27
555.90	2196.73
556.26	2201.60
556.61	2206.30
556.97	2210.49
557.32	2214.54
557.68	2218.70
558.03	2223.07
558.39	2226.74
558.74	2231.40
559.10	2235.40
559.45	2239.01
559.81	2243.32
560.16	2247.07
560.52	2250.61
560.87	2253.81
561.23	2256.49
561.58	2259.41
561.94	2262.01
562.29	2264.42
562.64	2266.93
563.00	2269.53
563.35	2272.97
563.71	2276.22
564.06	2279.49
564.42	2282.32
564.77	2284.83
565.12	2287.05
565.48	2288.98
565.83	2290.74
566.19	2292.02
566.54	2292.81
566.89	2294.07
567.25	2294.59
567.60	2295.89
567.96	2297.31
568.31	2298.41
568.66	2299.32
569.02	2299.87
569.37	2300.01
569.72	2300.84
570.08	2301.03
570.43	2301.12
570.78	2300.67
571.14	2298.97
571.49	2297.61
571.84	2297.44
572.20	2296.36
572.55	2295.32
572.90	2293.76
573.26	2292.52
573.61	2290.71
573.96	2288.92
574.31	2285.94
574.67	2282.96
575.02	2279.39
575.37	2276.13
575.72	2272.25
576.08	2269.03
576.43	2265.79
576.78	2262.13
577.13	2259.07
577.49	2256.05
577.84	2252.45
578.19	2248.89
578.54	2245.25
578.90	2240.97
579.25	2235.41
579.60	2230.54
579.95	2225.45
580.30	2220.38
580.66	2215.17
581.01	2210.33
581.36	2205.39
581.71	2201.25
582.06	2196.78
582.42	2192.35
582.77	2187.12
583.12	2182.55
583.47	2177.85
583.82	2172.78
584.17	2167.54
584.53	2162.04
584.88	2156.26
585.23	2150.47
585.58	2144.75
585.93	2139.35
586.28	2134.63
586.63	2129.59
586.98	2124.42
587.34	2119.78
587.69	2115.01
588.04	2109.69
588.39	2104.05
588.74	2097.72
589.09	2091.62
589.44	2084.76
589.79	2078.66
590.14	2073.05
590.49	2066.44
590.84	2059.99
591.19	2054.09
591.54	2047.63
591.89	2040.14
592.25	2033.42
592.60	2026.32
592.95	2018.89
593.30	2011.46
593.65	2003.87
594.00	1996.79
594.35	1989.60
594.70	1981.56
595.05	1974.28
595.40	1967.20
595.75	1959.60
596.10	1953.44
596.45	1946.64
596.80	1940.61
597.15	1934.04
597.50	1926.84
597.85	1920.35
598.19	1913.70
598.54	1906.42
598.89	1899.82
599.24	1893.99
599.59	1887.31
599.94	1881.18
600.29	1874.82
600.64	1868.34
600.99	1860.89
601.34	1854.04
601.69	1847.13
602.04	1840.34
602.39	1832.97
602.74	1825.98
603.08	1819.27
603.43	1812.40
603.78	1805.06
604.13	1797.78
604.48	1790.49
604.83	1783.66
605.18	1776.70
605.53	1768.79
605.87	1760.86
606.22	1753.59
606.57	1745.65
606.92	1738.34
607.27	1731.00
607.62	1724.07
607.96	1716.77
608.31	1710.20
608.66	1702.52
609.01	1694.98
609.36	1687.35
609.70	1679.31
610.05	1671.34
610.40	1663.62
610.75	1655.33
611.10	1647.63
611.44	1639.20
611.79	1631.18
612.14	1622.49
612.49	1613.42
612.83	1605.01
613.18	1596.83
613.53	1588.83
613.88	1580.19
614.22	1571.95
614.57	1563.48
614.92	1555.27
615.27	1547.76
615.61	1539.24
615.96	1531.25
616.31	1523.52
616.65	1516.16
617.00	1508.65
617.35	1500.94
617.70	1492.63
618.04	1484.06
618.39	1475.90
618.74	1468.37
619.08	1460.03
619.43	1452.49
619.78	1445.49
620.12	1438.22
620.47	1430.79
620.82	1422.69
621.16	1415.45
621.51	1407.83
621.85	1400.11
622.20	1391.66
622.55	1383.40
622.89	1375.73
623.24	1368.16
623.59	1360.77
623.93	1353.28
624.28	1346.05
624.62	1338.59
624.97	1331.48
625.32	1324.87
625.66	1317.85
626.01	1310.69
626.35	1303.25
626.70	1295.45
627.04	1287.87
627.39	1280.24
627.73	1272.82
628.08	1265.78
628.43	1258.31
628.77	1250.89
629.12	1243.43
629.46	1236.24
629.81	1228.74
630.15	1221.39
630.50	1214.01
630.84	1205.84
631.19	1197.85
631.53	1190.24
631.88	1182.61
632.22	1174.93
632.57	1167.55
632.91	1159.96
633.26	1152.46
633.60	1145.12
633.95	1138.04
634.29	1130.95
634.64	1124.25
634.98	1116.92
635.32	1109.73
635.67	1103.31
636.01	1096.65
636.36	1089.75
636.70	1083.35
637.05	1076.73
637.39	1070.34
637.73	1063.77
638.08	1057.91
638.42	1051.92
638.77	1045.50
639.11	1038.90
639.45	1032.47
639.80	1025.80
640.14	1019.40
640.49	1012.99
640.83	1006.69
641.17	1000.43
641.52	994.04
641.86	987.66
642.20	981.72
642.55	975.52
642.89	968.94
643.23	962.40
643.58	956.63
643.92	950.30
644.26	944.18
644.61	938.11
644.95	931.99
645.29	925.40
645.64	918.64
645.98	912.40
646.32	906.55
646.66	900.59
647.01	894.77
647.35	889.07
647.69	883.08
648.04	877.51
648.38	871.76
648.72	865.77
649.06	859.66
649.41	853.85
649.75	847.84
650.09	841.99
650.43	836.25
650.78	830.18
651.12	824.25
651.46	818.58
651.80	812.86
652.14	807.56
652.49	802.18
652.83	797.03
653.17	791.29
653.51	785.57
653.85	780.17
654.20	774.54
654.54	768.57
654.88	762.94
655.22	757.08
655.56	751.37
655.90	745.90
656.25	740.59
656.59	735.18
656.93	730.08
657.27	724.89
657.61	719.46
657.95	714.36
658.29	709.35
658.64	704.12
658.98	698.86
659.32	693.33
659.66	688.11
660.00	682.80
660.34	677.89
660.68	672.98
661.02	667.91
661.36	663.17
661.70	658.61
662.05	654.21
662.39	649.89
662.73	645.54
663.07	641.16
663.41	636.72
663.75	632.23
664.09	627.71
664.43	623.33
664.77	619.21
665.11	614.92
665.45	610.78
665.79	606.69
666.13	602.56
666.47	598.53
666.81	594.41
667.15	590.24
667.49	586.38
667.83	582.64
668.17	578.71
668.51	574.63
668.85	570.65
669.19	566.83
669.53	563.02
669.87	559.00
670.21	555.32
670.55	551.72
670.89	548.27
671.23	544.87
671.57	541.31
671.91	537.76
672.25	534.27
672.58	530.73
672.92	527.33
673.26	524.11
673.60	520.95
673.94	517.82
674.28	514.95
674.62	511.99
674.96	508.86
675.30	505.99
675.64	503.06
675.97	500.28
676.31	497.37
676.65	494.37
676.99	491.73
677.33	488.87
677.67	486.04
678.01	483.00
678.34	479.96
678.68	477.11
679.02	474.27
679.36	471.50
679.70	468.84
680.04	466.03
680.37	463.13
680.71	460.35
681.05	457.77
681.39	455.09
681.73	452.36
682.06	449.80
682.40	447.21
682.74	444.70
683.08	442.15
683.42	439.56
683.75	437.10
684.09	434.49
684.43	432.01
684.77	429.52
685.10	427.18
685.44	424.85
685.78	422.52
686.12	420.30
686.45	418.01
686.79	415.69
687.13	413.55
687.46	411.40
687.80	409.25
688.14	407.00
688.48	404.88
688.81	402.63
689.15	400.51
689.49	398.37
689.82	396.32
690.16	394.24
690.50	392.28
690.83	390.38
691.17	388.44
691.51	386.48
691.84	384.65
692.18	382.73
692.52	380.75
692.85	378.85
693.19	376.98
693.52	375.15
693.86	373.33
694.20	371.54
694.53	369.76
694.87	367.88
695.21	366.08
695.54	364.29
695.88	362.62
696.21	360.89
696.55	359.22
696.88	357.53
697.22	355.89
697.56	354.30
697.89	352.64
698.23	351.02
698.56	349.46
698.90	347.89
699.23	346.29
699.57	344.75
699.90	343.21
700.24	341.68
700.58	340.16
700.91	338.68
701.25	337.22
701.58	335.87
701.92	334.53
702.25	333.17
702.59	331.79
702.92	330.47
703.26	329.17
703.59	327.91
703.93	326.73
704.26	325.46
704.60	324.17
704.93	322.91
705.26	321.71
705.60	320.54
705.93	319.37
706.27	318.32
706.60	317.25
706.94	316.18
707.27	315.06
707.61	314.02
707.94	312.98
708.27	311.89
708.61	310.81
708.94	309.83
709.28	308.85
709.61	307.90
709.94	306.92
710.28	305.88
710.61	304.85
710.95	303.79
711.28	302.90
711.61	301.95
711.95	301.03
712.28	300.01
712.61	298.97
712.95	298.06
713.28	297.19
713.61	296.31
713.95	295.41
714.28	294.55
714.61	293.65
714.95	292.84
715.28	291.98
715.61	291.08
715.95	290.20
716.28	289.32
716.61	288.48
716.95	287.67
717.28	286.95
717.61	286.23
717.94	285.49
718.28	284.69
718.61	283.95
718.94	283.24
719.27	282.62
719.61	282.03
719.94	281.37
720.27	280.63
720.60	279.99
720.94	279.37
721.27	278.78
721.60	278.18
721.93	277.53
722.27	277.00
722.60	276.46
722.93	275.89
723.26	275.33
723.59	274.82
723.93	274.24
724.26	273.66
724.59	273.09
724.92	272.55
725.25	272.05
725.59	271.53
725.92	271.03
726.25	270.52
726.58	270.05
726.91	269.52
727.24	269.05
727.57	268.56
727.91	268.03
728.24	267.55
728.57	267.09
728.90	266.66
729.23	266.15
729.56	265.70
729.89	265.23
730.22	264.78
730.55	264.27
730.89	263.83
731.22	263.39
731.55	262.93
731.88	262.50
732.21	262.05
732.54	261.59
732.87	261.17
733.20	260.74
733.53	260.32
733.86	259.98
734.19	259.55
734.52	259.14
734.85	258.83
735.18	258.43
735.51	258.08
735.84	257.69
736.17	257.35
736.50	256.97
736.83	256.75
737.16	256.43
737.49	256.10
737.82	255.79
738.15	255.48
738.48	255.19
738.81	254.86
739.14	254.55
739.47	254.26
739.80	253.96
740.13	253.64
740.46	253.31
740.79	252.98
741.12	252.74
741.45	252.47
741.78	252.17
742.11	251.91
742.44	251.60
742.77	251.31
743.10	250.99
743.43	250.68
743.75	250.32
744.08	250.18
744.41	249.92
744.74	249.65
745.07	249.38
745.40	249.13
745.73	248.90
746.06	248.64
746.39	248.39
746.71	248.10
747.04	247.85
747.37	247.60
747.70	247.37
748.03	247.10
748.36	246.86
748.68	246.61
749.01	246.36
749.34	246.13
749.67	245.90
750.00	245.67
750.33	245.51
750.65	245.23
750.98	244.88
751.31	244.67
751.64	244.45
751.97	244.30
752.29	244.04
752.62	243.80
752.95	243.58
753.28	243.36
753.60	243.17
753.93	243.03
754.26	242.84
754.59	242.63
754.91	242.42
755.24	242.22
755.57	242.02
755.90	241.85
756.22	241.68
756.55	241.50
756.88	241.30
757.20	241.11
757.53	240.95
757.86	240.78
758.19	240.63
758.51	240.46
758.84	240.23
759.17	240.10
759.49	239.98
759.82	239.84
760.15	239.69
760.47	239.57
760.80	239.38
761.13	239.21
761.45	239.05
761.78	238.90
762.11	238.77
762.43	238.60
762.76	238.45
763.08	238.30
763.41	238.17
763.74	238.07
764.06	237.92
764.39	237.78
764.71	237.60
765.04	237.43
765.37	237.28
765.69	237.16
766.02	237.00
766.34	236.85
766.67	236.71
767.00	236.60
767.32	236.50
767.65	236.43
767.97	236.30
768.30	236.19
768.62	236.09
768.95	235.98
769.27	235.85
769.60	235.76
769.92	235.61
770.25	235.47
770.57	235.36
770.90	235.24
771.22	235.13
771.55	235.08
771.87	234.98
772.20	234.86
772.52	234.83
772.85	234.86
773.17	234.77
773.50	234.67
773.82	234.58
774.15	234.46
774.47	234.29
774.80	234.23
775.12	234.15
775.45	234.03
775.77	233.94
776.09	233.84
776.42	233.73
776.74	233.70
777.07	233.67
777.39	233.60
777.72	233.50
778.04	233.45
778.36	233.35
778.69	233.29
779.01	233.25
779.33	233.09
779.66	232.90
779.98	232.81
780.31	232.76
780.63	232.73
780.95	232.71
781.28	232.66
781.60	232.56
781.92	232.50
782.25	232.45
782.57	232.42
782.89	232.37
783.22	232.34
783.54	232.24
783.86	232.19
784.19	232.11
784.51	232.08
784.83	232.05
785.16	232.02
785.48	231.99
785.80	231.92
786.12	231.87
786.45	231.86
786.77	231.85
787.09	231.76
787.42	231.66
787.74	231.59
788.06	231.55
788.38	231.53
788.71	231.47
789.03	231.46
789.35	231.41
789.67	231.38
789.99	231.33
790.32	231.29
790.64	231.23
790.96	231.28
791.28	231.22
791.61	231.15
791.93	231.13
792.25	231.09
792.57	231.12
792.89	231.07
793.21	231.01
793.54	230.92
793.86	230.89
794.18	230.85
794.50	230.80
794.82	230.74
795.14	230.73
795.47	230.71
795.79	230.68
796.11	230.60
796.43	230.56
796.75	230.56
797.07	230.52
797.39	230.48
797.71	230.37
798.04	230.34
798.36	230.31
798.68	230.25
799.00	230.21
799.32	230.13
799.64	230.16
799.96	230.12
800.28	230.12
800.60	230.09
800.92	230.08
801.24	230.03
801.56	230.02
801.89	229.95
802.21	229.94
802.53	229.86
802.85	229.88
803.17	229.88
803.49	229.78
803.81	229.70
804.13	229.67
804.45	229.65
804.77	229.65
805.09	229.60
805.41	229.56
805.73	229.50
806.05	229.43
806.37	229.37
806.69	229.34
807.01	229.29
807.33	229.28
807.65	229.17
807.97	229.20
808.28	229.22
808.60	229.19
808.92	229.13
809.24	229.17
809.56	229.12
809.88	229.05
810.20	229.02
810.52	229.02
810.84	228.98
811.16	228.92
811.48	228.87
811.80	228.89
812.12	228.83
812.43	228.84
812.75	228.82
813.07	228.79
813.39	228.78
813.71	228.76
814.03	228.72
814.35	228.74
814.67	228.67
814.98	228.60
815.30	228.55
815.62	228.50
815.94	228.39
816.26	228.40
816.58	228.36
816.89	228.42
817.21	228.40
817.53	228.37
817.85	228.36
818.17	228.36
818.48	228.32
818.80	228.36
819.12	228.34
819.44	228.33
819.76	228.33
820.07	228.31
820.39	228.30
820.71	228.29
821.03	228.27
821.34	228.26
821.66	228.27
821.98	228.30
822.30	228.33
822.61	228.41
822.93	228.38
823.25	228.40
823.57	228.34
823.88	228.36
824.20	228.37
824.52	228.39
824.83	228.38
825.15	228.34
825.47	228.30
825.79	228.28
826.10	228.29
826.42	228.25
826.74	228.29
827.05	228.31
827.37	228.33
827.69	228.36
828.00	228.35
828.32	228.33
828.64	228.34
828.95	228.38
829.27	228.34
829.58	228.32
829.90	228.33
830.22	228.33
830.53	228.31
830.85	228.31
831.17	228.28
831.48	228.27
831.80	228.27
832.11	228.25
832.43	228.23
832.75	228.21
833.06	228.26
833.38	228.19
833.69	228.12
834.01	228.13
834.32	228.11
834.64	228.10
834.96	228.11
835.27	228.06
835.59	227.99
835.90	227.95
836.22	227.94
836.53	227.92
836.85	227.90
837.16	228.00
837.48	227.97
837.79	228.00
838.11	227.99
838.42	227.99
838.74	228.01
839.05	228.00
839.37	228.01
839.68	227.98
840.00	227.99
840.31	228.03
840.63	227.96
840.94	227.93
841.26	227.92
841.57	227.91
841.88	227.90
842.20	227.89
842.51	227.85
842.83	227.83
843.14	227.87
843.46	227.87
843.77	227.75
844.08	227.73
844.40	227.68
844.71	227.64
845.03	227.62
845.34	227.62
845.65	227.61
845.97	227.58
846.28	227.52
846.60	227.50
846.91	227.46
847.22	227.47
847.54	227.46
847.85	227.46
848.16	227.41
848.48	227.38
848.79	227.43
849.10	227.44
849.42	227.44
849.73	227.37
850.04	227.33
850.36	227.31
850.67	227.35
850.98	227.33
851.30	227.32
851.61	227.31
851.92	227.28
852.23	227.27
852.55	227.27
852.86	227.33
853.17	227.31
853.49	227.33
853.80	227.31
854.11	227.34
854.42	227.31
854.74	227.30
855.05	227.31
855.36	227.24
855.67	227.25
855.99	227.26
856.30	227.38
856.61	227.41
856.92	227.40
857.23	227.40
857.55	227.41
857.86	227.43
858.17	227.43
858.48	227.40
858.79	227.40
859.11	227.39
859.42	227.36
859.73	227.36
860.04	227.34
860.35	227.34
860.66	227.27
860.98	227.31
861.29	227.36
861.60	227.37
861.91	227.43
862.22	227.40
862.53	227.38
862.84	227.22
863.16	227.25
863.47	227.24
863.78	227.22
864.09	227.24
864.40	227.27
864.71	227.29
865.02	227.31
865.33	227.31
865.64	227.29
865.95	227.29
866.27	227.34
866.58	227.36
866.89	227.37
867.20	227.39
867.51	227.35
867.82	227.31
868.13	227.32
868.44	227.29
868.75	227.28
869.06	227.26
869.37	227.30
869.68	227.26
869.99	227.31
870.30	227.32
870.61	227.32
870.92	227.28
871.23	227.23
871.54	227.24
871.85	227.27
872.16	227.28
872.47	227.30
872.78	227.22
873.09	227.21
873.40	227.22
873.71	227.21
874.02	227.26
874.33	227.24
874.64	227.22
874.95	227.23
875.26	227.24
875.56	227.27
875.87	227.25
876.18	227.24
876.49	227.32
876.80	227.29
877.11	227.28
877.42	227.29
877.73	227.32
878.04	227.32
878.35	227.29
878.66	227.27
878.96	227.27
879.27	227.28
879.58	227.25
879.89	227.22
880.20	227.24
880.51	227.22
880.82	227.23
881.12	227.25
881.43	227.23
881.74	227.20
882.05	227.15
882.36	227.15
882.67	227.13
882.97	227.03
883.28	227.02
883.59	226.98
883.90	226.98
884.21	226.99
884.51	226.95
884.82	226.93
885.13	226.96
885.44	226.98
885.74	226.97
886.05	226.97
886.36	226.99
886.67	226.97
886.98	227.00
887.28	227.01
887.59	227.00
887.90	226.98
888.20	227.00
888.51	227.00
888.82	227.01
889.13	227.03
889.43	227.07
889.74	227.06
890.05	227.05
890.35	227.03
890.66	227.01
890.97	227.04
891.28	227.05
891.58	227.04
891.89	226.98
892.20	227.00
892.50	226.99
892.81	227.00
893.12	226.98
893.42	226.91
893.73	226.92
894.04	226.96
894.34	226.97
894.65	226.98
894.95	226.99
895.26	226.97
895.57	226.98
895.87	226.92
896.18	226.95
896.48	226.97
896.79	226.99
897.10	227.01
897.40	226.99
897.71	227.01
898.01	226.99
898.32	227.01
898.63	226.99
898.93	226.98
899.24	226.94
899.54	226.95
899.85	226.97
900.15	226.96
900.46	226.95
900.76	226.96
901.07	226.95
901.38	226.96
901.68	226.97
901.99	226.94
902.29	226.94
902.60	226.93
902.90	226.93
903.21	226.91
903.51	226.89
903.82	226.90
904.12	226.86
904.43	226.89
904.73	226.90
905.03	226.89
905.34	226.98
905.64	227.03
905.95	227.02
906.25	227.03
906.56	226.99
906.86	226.96
907.17	226.93
907.47	226.92
907.77	226.92
908.08	226.88
908.38	226.90
908.69	226.91
908.99	226.94
909.30	226.94
909.60	226.95
909.90	226.94
910.21	226.94
910.51	226.95
910.81	226.94
911.12	226.92
911.42	226.96
911.73	226.88
912.03	226.87
912.33	226.89
912.64	226.91
912.94	226.92
913.24	226.92
913.55	226.95
913.85	226.97
914.15	226.98
914.46	227.01
914.76	227.00
915.06	226.99
915.37	227.01
915.67	227.00
915.97	226.98
916.27	226.97
916.58	226.94
916.88	226.94
917.18	226.94
917.49	227.03
917.79	227.02
918.09	227.05
918.39	227.07
918.70	227.05
919.00	227.02
919.30	227.06
919.60	227.05
919.91	227.04
920.21	227.03
920.51	227.01
920.81	226.99
921.12	227.01
921.42	227.01
921.72	226.97
922.02	226.98
922.32	227.02
922.63	227.02
922.93	227.08
923.23	227.09
923.53	227.08
923.83	227.01
924.13	226.99
924.44	226.96
924.74	226.98
925.04	227.00
925.34	226.99
925.64	226.95
925.94	226.97
926.24	227.02
926.55	227.01
926.85	227.00
927.15	227.00
927.45	226.97
927.75	226.96
928.05	226.99
928.35	226.94
928.65	226.96
928.95	226.97
929.26	226.94
929.56	226.96
929.86	226.95
930.16	226.97
930.46	226.95
930.76	226.95
931.06	226.91
931.36	226.87
931.66	226.89
931.96	226.89
932.26	226.90
932.56	226.82
932.86	226.83
933.16	226.85
933.46	226.86
933.76	226.88
934.06	226.92
934.36	226.92
934.66	226.95
934.96	226.92
935.26	226.90
935.56	226.91
935.86	226.88
936.16	226.87
936.46	226.84
936.76	226.84
937.06	226.83
937.36	226.82
937.66	226.83
937.96	226.82
938.26	226.81
938.56	226.80
938.86	226.83
939.16	226.83
939.46	226.85
939.76	226.88
940.06	226.84
940.35	226.79
940.65	226.78
940.95	226.79
941.25	226.78
941.55	226.79
941.85	226.76
942.15	226.77
942.45	226.81
942.75	226.82
943.04	226.82
943.34	226.87
943.64	226.88
943.94	226.90
944.24	226.90
944.54	226.93
944.84	226.94
945.13	226.96
945.43	226.93
945.73	226.93
946.03	226.91
946.33	226.95
946.62	226.96
946.92	226.96
947.22	226.98
947.52	226.97
947.82	226.99
948.11	226.97
948.41	226.97
948.71	226.94
949.01	226.95
949.31	226.94
949.60	226.91
949.90	226.90
950.20	226.85
950.50	226.87
950.79	226.82
951.09	226.86
951.39	226.83
951.69	226.84
951.98	226.87
952.28	226.86
952.58	226.83
952.87	226.82
953.17	226.81
953.47	226.75
953.76	226.75
954.06	226.75
954.36	226.75
954.66	226.73
954.95	226.73
955.25	226.74
955.55	226.76
955.84	226.74
956.14	226.77
956.44	226.79
956.73	226.75
957.03	226.77
957.32	226.71
957.62	226.71
957.92	226.73
958.21	226.69
958.51	226.78
958.81	226.80
959.10	226.78
959.40	226.79
959.69	226.83
959.99	226.84
960.29	226.82
960.58	226.81
960.88	226.87
961.17	226.86
961.47	226.85
961.76	226.86
962.06	226.88
962.36	226.84
962.65	226.82
962.95	226.85
963.24	226.80
963.54	226.80
963.83	226.79
964.13	226.79
964.42	226.74
964.72	226.67
965.01	226.66
965.31	226.66
965.60	226.65
965.90	226.72
966.19	226.67
966.49	226.69
966.78	226.72
967.08	226.69
967.37	226.66
967.67	226.67
967.96	226.68
968.26	226.66
968.55	226.69
968.85	226.72
969.14	226.74
969.43	226.74
969.73	226.75
970.02	226.73
970.32	226.74
970.61	226.77
970.91	226.72
971.20	226.73
971.49	226.73
971.79	226.72
972.08	226.64
972.38	226.66
972.67	226.62
972.96	226.63
973.26	226.62
973.55	226.67
973.85	226.65
974.14	226.64
974.43	226.65
974.73	226.62
975.02	226.59
975.31	226.58
975.61	226.61
975.90	226.60
976.19	226.62
976.49	226.61
976.78	226.61
977.07	226.63
977.37	226.60
977.66	226.65
977.95	226.65
978.24	226.67
978.54	226.69
978.83	226.68
979.12	226.66
979.42	226.66
979.71	226.68
980.00	226.70
980.29	226.70
980.59	226.68
980.88	226.72
981.17	226.72
981.46	226.70
981.76	226.71
982.05	226.75
982.34	226.76
982.63	226.78
982.93	226.79
983.22	226.81
983.51	226.82
983.80	226.81
984.09	226.83
984.39	226.81
984.68	226.80
984.97	226.82
985.26	226.80
985.55	226.80
985.85	226.75
986.14	226.75
986.43	226.77
986.72	226.75
987.01	226.70
987.30	226.75
987.59	226.77
987.89	226.74
988.18	226.70
988.47	226.69
988.76	226.66
989.05	226.68
989.34	226.67
989.63	226.71
989.92	226.71
990.22	226.70
990.51	226.70
990.80	226.66
991.09	226.68
991.38	226.69
991.67	226.67
991.96	226.67
992.25	226.65
992.54	226.64
992.83	226.65
993.12	226.66
993.41	226.64
993.70	226.65
993.99	226.69
994.28	226.69
994.58	226.69
994.87	226.68
995.16	226.68
995.45	226.69
995.74	226.64
996.03	226.63
996.32	226.60
996.61	226.64
996.90	226.65
997.19	226.64
997.48	226.67
997.77	226.68
998.06	226.69
998.34	226.67
998.63	226.64
998.92	226.66
999.21	226.66
999.50	226.66
999.79	226.64
1000.08	226.64
1000.37	226.64
1000.66	226.62
1000.95	226.63
1001.24	226.60
1001.53	226.63
1001.82	226.62
1002.11	226.63
1002.40	226.66
1002.68	226.66
1002.97	226.74
1003.26	226.71
1003.55	226.67
1003.84	226.65
1004.13	226.67
1004.42	226.66
1004.71	226.66
1004.99	226.61
1005.28	226.62
1005.57	226.59
1005.86	226.57
1006.15	226.56
1006.44	226.54
1006.72	226.57
1007.01	226.53
1007.30	226.54
1007.59	226.48
1007.88	226.46
1008.17	226.43
1008.45	226.40
1008.74	226.35
1009.03	226.28
1009.32	226.33
1009.60	226.33
1009.89	226.33
1010.18	226.31
1010.47	226.34
1010.76	226.34
1011.04	226.36
1011.33	226.38
1011.62	226.44
1011.91	226.42
1012.19	226.42
1012.48	226.44
1012.77	226.44
1013.05	226.46
1013.34	226.47
1013.63	226.48
1013.92	226.49
1014.20	226.48
1014.49	226.48
1014.78	226.48
1015.06	226.47
1015.35	226.44
1015.64	226.44
1015.92	226.46
1016.21	226.45
1016.50	226.46
1016.78	226.48
1017.07	226.49
1017.36	226.44
1017.64	226.40
1017.93	226.41
1018.22	226.40
1018.50	226.42
1018.79	226.40
1019.08	226.40
1019.36	226.40
1019.65	226.40
1019.93	226.42
1020.22	226.44
1020.51	226.50
1020.79	226.53
1021.08	226.54
1021.36	226.89
1021.65	226.38
1021.94	226.22
1022.22	226.58
1022.51	226.34
1022.79	226.59
1023.08	226.78
1023.36	227.80
1023.65	226.68
>>>>>End Processed Spectral Data<<<<<
