SpectraSuite Data File
++++++++++++++++++++++++++++++++++++
Date: Fri Feb 01 15:33:09 EST 2013
User: group
Dark Spectrum Present: No
Reference Spectrum Present: No
Number of Sampled Component Spectra: 1
Spectrometers: USB2E7196
Integration Time (usec): 35000 (USB2E7196)
Spectra Averaged: 100 (USB2E7196)
Boxcar Smoothing: 10 (USB2E7196)
Correct for Electrical Dark: No (USB2E7196)
Strobe/Lamp Enabled: No (USB2E7196)
Correct for Detector Non-linearity: No (USB2E7196)
Correct for Stray Light: No (USB2E7196)
Number of Pixels in Processed Spectrum: 2048
>>>>>Begin Processed Spectral Data<<<<<
339.09	0.00
339.48	215.15
339.86	216.09
340.24	218.12
340.63	219.36
341.01	222.01
341.39	221.62
341.78	223.04
342.16	224.12
342.54	224.90
342.93	213.30
343.31	224.09
343.69	224.61
344.07	225.09
344.46	225.50
344.84	225.87
345.22	226.09
345.60	226.34
345.99	226.53
346.37	226.67
346.75	226.77
347.13	226.85
347.52	226.91
347.90	226.99
348.28	226.98
348.66	227.06
349.05	227.05
349.43	227.07
349.81	227.09
350.19	227.16
350.57	227.20
350.96	227.26
351.34	227.34
351.72	227.44
352.10	227.53
352.48	227.61
352.87	227.65
353.25	227.74
353.63	227.84
354.01	227.91
354.39	227.99
354.77	228.09
355.15	228.17
355.54	228.22
355.92	228.23
356.30	228.32
356.68	228.44
357.06	228.55
357.44	228.59
357.82	228.69
358.20	228.78
358.58	228.85
358.97	228.94
359.35	229.00
359.73	229.05
360.11	229.11
360.49	229.18
360.87	229.26
361.25	229.30
361.63	229.36
362.01	229.42
362.39	229.45
362.77	229.47
363.15	229.51
363.53	229.54
363.91	229.57
364.29	229.59
364.67	229.52
365.05	229.50
365.43	229.55
365.81	229.57
366.19	229.58
366.57	229.61
366.95	229.60
367.33	229.57
367.71	229.60
368.09	229.59
368.47	229.55
368.85	229.51
369.23	229.50
369.61	229.44
369.99	229.45
370.37	229.44
370.75	229.44
371.13	229.38
371.51	229.34
371.89	229.31
372.27	229.29
372.65	229.27
373.03	229.22
373.41	229.14
373.78	229.06
374.16	228.94
374.54	228.85
374.92	228.78
375.30	228.71
375.68	228.61
376.06	228.54
376.44	228.46
376.82	228.41
377.19	228.36
377.57	228.29
377.95	228.16
378.33	228.04
378.71	227.92
379.09	227.87
379.47	227.82
379.84	227.72
380.22	227.61
380.60	227.50
380.98	227.39
381.36	227.32
381.73	227.25
382.11	227.22
382.49	227.16
382.87	227.07
383.25	226.99
383.62	227.05
384.00	226.96
384.38	226.92
384.76	226.87
385.13	226.84
385.51	226.78
385.89	226.73
386.27	226.75
386.64	226.73
387.02	226.66
387.40	226.60
387.78	226.56
388.15	226.53
388.53	226.50
388.91	226.49
389.29	226.45
389.66	226.46
390.04	226.39
390.42	226.38
390.79	226.37
391.17	226.36
391.55	226.20
391.92	226.18
392.30	226.14
392.68	226.10
393.05	226.08
393.43	226.09
393.81	226.07
394.18	226.02
394.56	226.06
394.94	226.11
395.31	226.12
395.69	226.19
396.06	226.25
396.44	226.28
396.82	226.35
397.19	226.44
397.57	226.46
397.95	226.53
398.32	226.55
398.70	226.61
399.07	226.69
399.45	226.77
399.82	226.86
400.20	226.93
400.58	227.04
400.95	227.09
401.33	227.17
401.70	227.40
402.08	227.52
402.45	227.61
402.83	227.69
403.20	227.81
403.58	227.90
403.95	228.03
404.33	228.16
404.71	228.26
405.08	228.42
405.46	228.56
405.83	228.72
406.21	228.89
406.58	229.05
406.96	229.24
407.33	229.43
407.70	229.65
408.08	229.95
408.45	230.18
408.83	230.41
409.20	230.64
409.58	230.80
409.95	231.05
410.33	231.30
410.70	231.56
411.08	231.89
411.45	232.24
411.82	232.56
412.20	232.92
412.57	233.34
412.95	233.62
413.32	234.06
413.69	234.48
414.07	234.94
414.44	235.42
414.82	235.91
415.19	236.47
415.56	237.04
415.94	237.58
416.31	238.19
416.68	238.84
417.06	239.58
417.43	240.28
417.81	241.07
418.18	241.85
418.55	242.72
418.93	243.58
419.30	244.48
419.67	245.42
420.04	246.39
420.42	247.38
420.79	248.60
421.16	249.72
421.54	250.91
421.91	252.14
422.28	253.38
422.66	254.73
423.03	256.01
423.40	257.33
423.77	258.75
424.15	260.15
424.52	261.62
424.89	263.19
425.26	264.71
425.64	266.14
426.01	267.72
426.38	269.35
426.75	271.02
427.13	272.77
427.50	274.58
427.87	276.46
428.24	278.32
428.61	280.07
428.99	282.05
429.36	284.12
429.73	286.14
430.10	288.19
430.47	290.27
430.85	292.38
431.22	294.61
431.59	297.00
431.96	299.32
432.33	301.82
432.70	304.18
433.08	307.03
433.45	309.64
433.82	312.28
434.19	315.14
434.56	317.97
434.93	320.58
435.30	323.17
435.68	326.03
436.05	328.87
436.42	331.64
436.79	334.17
437.16	336.92
437.53	339.77
437.90	342.55
438.27	345.23
438.64	348.09
439.01	350.72
439.38	352.93
439.75	355.07
440.13	357.58
440.50	359.96
440.87	361.81
441.24	363.74
441.61	365.84
441.98	367.37
442.35	369.18
442.72	371.01
443.09	372.83
443.46	373.84
443.83	374.42
444.20	374.93
444.57	375.79
444.94	376.04
445.31	376.38
445.68	376.75
446.05	376.85
446.42	376.45
446.79	375.98
447.16	375.51
447.53	375.18
447.90	374.03
448.27	372.83
448.64	371.24
449.01	370.13
449.37	368.24
449.74	366.32
450.11	364.06
450.48	361.61
450.85	359.09
451.22	356.97
451.59	354.93
451.96	352.97
452.33	350.34
452.70	348.00
453.07	345.16
453.43	342.26
453.80	339.49
454.17	336.85
454.54	334.32
454.91	331.61
455.28	328.92
455.65	326.41
456.02	323.98
456.38	321.81
456.75	319.15
457.12	316.91
457.49	314.67
457.86	312.47
458.23	310.64
458.59	308.59
458.96	306.47
459.33	304.59
459.70	302.76
460.07	301.22
460.43	299.47
460.80	297.85
461.17	296.42
461.54	294.96
461.91	293.52
462.27	292.07
462.64	290.83
463.01	289.46
463.38	288.18
463.74	286.81
464.11	285.66
464.48	284.60
464.85	283.48
465.21	282.61
465.58	281.69
465.95	280.56
466.32	279.66
466.68	278.78
467.05	277.90
467.42	277.01
467.78	276.10
468.15	275.24
468.52	274.58
468.88	273.72
469.25	272.94
469.62	272.30
469.98	271.62
470.35	270.97
470.72	270.41
471.08	269.72
471.45	269.21
471.82	268.65
472.18	268.05
472.55	267.62
472.92	267.11
473.28	266.67
473.65	266.22
474.02	265.75
474.38	265.36
474.75	264.99
475.11	264.65
475.48	264.38
475.85	264.14
476.21	263.88
476.58	263.66
476.94	263.51
477.31	263.36
477.67	263.19
478.04	263.05
478.41	262.99
478.77	263.00
479.14	262.91
479.50	262.90
479.87	262.94
480.23	263.00
480.60	263.10
480.96	263.19
481.33	263.38
481.69	263.60
482.06	263.81
482.42	264.00
482.79	264.22
483.15	264.53
483.52	264.88
483.88	265.25
484.25	265.67
484.61	266.05
484.98	266.52
485.34	267.07
485.71	267.72
486.07	268.32
486.44	268.90
486.80	269.63
487.17	270.37
487.53	271.22
487.90	272.06
488.26	272.94
488.62	273.88
488.99	274.88
489.35	275.91
489.72	277.04
490.08	278.28
490.44	279.55
490.81	280.89
491.17	282.23
491.54	283.71
491.90	285.22
492.26	286.87
492.63	288.60
492.99	290.40
493.36	292.24
493.72	294.28
494.08	296.37
494.45	298.62
494.81	301.02
495.17	303.43
495.54	306.00
495.90	308.72
496.26	311.54
496.63	314.51
496.99	317.64
497.35	320.89
497.72	324.30
498.08	327.80
498.44	331.43
498.80	335.34
499.17	339.32
499.53	343.51
499.89	347.91
500.26	352.44
500.62	357.15
500.98	362.16
501.34	367.26
501.71	372.63
502.07	378.09
502.43	383.69
502.79	389.50
503.16	395.58
503.52	401.86
503.88	408.25
504.24	414.89
504.60	421.79
504.97	428.96
505.33	436.26
505.69	443.98
506.05	451.84
506.41	459.77
506.78	467.98
507.14	476.41
507.50	485.08
507.86	494.07
508.22	503.23
508.59	512.43
508.95	521.95
509.31	531.72
509.67	541.84
510.03	552.15
510.39	562.73
510.75	573.51
511.12	584.38
511.48	595.70
511.84	607.17
512.20	618.64
512.56	630.58
512.92	642.87
513.28	655.18
513.64	667.68
514.00	680.38
514.37	693.39
514.73	706.49
515.09	719.56
515.45	732.82
515.81	746.38
516.17	760.41
516.53	774.52
516.89	788.72
517.25	802.85
517.61	817.33
517.97	831.84
518.33	846.31
518.69	861.15
519.05	876.13
519.41	891.28
519.77	906.92
520.13	922.38
520.49	937.64
520.85	953.11
521.21	968.79
521.57	985.10
521.93	1000.88
522.29	1017.31
522.65	1033.64
523.01	1049.90
523.37	1066.00
523.73	1082.12
524.09	1098.27
524.45	1114.70
524.81	1131.41
525.17	1148.24
525.53	1165.09
525.89	1182.00
526.25	1198.89
526.61	1215.30
526.97	1232.14
527.33	1248.68
527.68	1265.32
528.04	1281.87
528.40	1298.67
528.76	1315.84
529.12	1332.45
529.48	1349.38
529.84	1365.41
530.20	1382.05
530.56	1399.15
530.91	1416.61
531.27	1433.47
531.63	1449.99
531.99	1466.61
532.35	1482.66
532.71	1498.57
533.07	1514.86
533.42	1530.75
533.78	1546.77
534.14	1563.13
534.50	1578.40
534.86	1594.35
535.21	1609.52
535.57	1625.53
535.93	1640.90
536.29	1655.71
536.65	1670.79
537.00	1685.68
537.36	1701.12
537.72	1715.71
538.08	1730.20
538.44	1744.04
538.79	1758.02
539.15	1771.79
539.51	1785.46
539.87	1799.90
540.22	1813.64
540.58	1827.52
540.94	1841.00
541.29	1854.10
541.65	1866.89
542.01	1880.24
542.37	1892.52
542.72	1905.02
543.08	1916.93
543.44	1929.45
543.79	1940.69
544.15	1951.72
544.51	1963.09
544.87	1974.01
545.22	1984.89
545.58	1995.06
545.94	2004.86
546.29	2014.73
546.65	2024.64
547.01	2033.98
547.36	2042.75
547.72	2051.19
548.07	2059.07
548.43	2067.22
548.79	2075.18
549.14	2082.67
549.50	2090.04
549.86	2097.79
550.21	2105.13
550.57	2112.19
550.92	2118.72
551.28	2125.75
551.64	2132.94
551.99	2139.57
552.35	2145.65
552.70	2151.71
553.06	2157.73
553.41	2164.14
553.77	2170.25
554.13	2176.28
554.48	2182.43
554.84	2187.74
555.19	2193.16
555.55	2198.22
555.90	2202.55
556.26	2207.37
556.61	2212.08
556.97	2216.30
557.32	2220.36
557.68	2224.50
558.03	2228.84
558.39	2232.61
558.74	2237.21
559.10	2240.95
559.45	2244.49
559.81	2249.01
560.16	2253.00
560.52	2256.19
560.87	2259.62
561.23	2262.15
561.58	2265.09
561.94	2267.56
562.29	2270.00
562.64	2272.71
563.00	2275.35
563.35	2279.11
563.71	2282.32
564.06	2285.67
564.42	2288.53
564.77	2291.07
565.12	2293.24
565.48	2295.11
565.83	2296.91
566.19	2298.14
566.54	2299.21
566.89	2300.35
567.25	2300.85
567.60	2302.03
567.96	2303.72
568.31	2304.62
568.66	2305.67
569.02	2306.22
569.37	2306.50
569.72	2307.27
570.08	2307.32
570.43	2307.35
570.78	2306.51
571.14	2304.83
571.49	2303.41
571.84	2302.97
572.20	2301.66
572.55	2300.82
572.90	2299.31
573.26	2297.96
573.61	2296.33
573.96	2294.47
574.31	2291.56
574.67	2288.45
575.02	2284.77
575.37	2281.26
575.72	2277.41
576.08	2274.09
576.43	2270.78
576.78	2267.18
577.13	2264.02
577.49	2260.89
577.84	2257.39
578.19	2253.77
578.54	2250.15
578.90	2245.84
579.25	2240.34
579.60	2235.47
579.95	2230.30
580.30	2225.10
580.66	2219.86
581.01	2214.84
581.36	2209.78
581.71	2205.53
582.06	2201.04
582.42	2196.57
582.77	2191.42
583.12	2186.62
583.47	2181.77
583.82	2176.50
584.17	2171.18
584.53	2165.54
584.88	2159.75
585.23	2153.94
585.58	2148.27
585.93	2142.83
586.28	2138.09
586.63	2132.95
586.98	2127.72
587.34	2122.97
587.69	2118.03
588.04	2112.63
588.39	2106.84
588.74	2100.37
589.09	2094.16
589.44	2087.25
589.79	2081.08
590.14	2075.40
590.49	2068.83
590.84	2062.43
591.19	2056.50
591.54	2049.98
591.89	2042.52
592.25	2035.66
592.60	2028.37
592.95	2020.72
593.30	2013.22
593.65	2005.50
594.00	1998.40
594.35	1991.09
594.70	1982.85
595.05	1975.56
595.40	1968.18
595.75	1960.72
596.10	1954.35
596.45	1947.49
596.80	1941.37
597.15	1934.81
597.50	1927.52
597.85	1921.16
598.19	1914.46
598.54	1907.29
598.89	1900.53
599.24	1894.70
599.59	1888.01
599.94	1881.82
600.29	1875.52
600.64	1868.87
600.99	1861.39
601.34	1854.51
601.69	1847.63
602.04	1840.82
602.39	1833.50
602.74	1826.68
603.08	1819.92
603.43	1813.31
603.78	1806.16
604.13	1798.97
604.48	1791.50
604.83	1784.71
605.18	1777.57
605.53	1769.54
605.87	1761.49
606.22	1754.28
606.57	1746.13
606.92	1738.67
607.27	1731.32
607.62	1724.33
607.96	1716.93
608.31	1710.25
608.66	1702.60
609.01	1694.92
609.36	1687.30
609.70	1679.13
610.05	1671.05
610.40	1663.28
610.75	1654.92
611.10	1647.09
611.44	1638.49
611.79	1630.70
612.14	1621.94
612.49	1612.77
612.83	1604.35
613.18	1596.24
613.53	1588.18
613.88	1579.82
614.22	1571.60
614.57	1563.10
614.92	1555.06
615.27	1547.61
615.61	1539.32
615.96	1531.40
616.31	1523.79
616.65	1516.46
617.00	1509.01
617.35	1501.33
617.70	1492.92
618.04	1484.29
618.39	1476.11
618.74	1468.59
619.08	1460.19
619.43	1452.66
619.78	1445.75
620.12	1438.55
620.47	1430.91
620.82	1422.72
621.16	1415.35
621.51	1407.87
621.85	1400.19
622.20	1391.72
622.55	1383.36
622.89	1375.48
623.24	1367.79
623.59	1360.46
623.93	1352.77
624.28	1345.53
624.62	1338.02
624.97	1330.96
625.32	1324.31
625.66	1317.24
626.01	1310.07
626.35	1302.58
626.70	1294.86
627.04	1287.10
627.39	1279.45
627.73	1272.09
628.08	1265.13
628.43	1257.70
628.77	1250.29
629.12	1242.73
629.46	1235.48
629.81	1228.07
630.15	1220.93
630.50	1213.55
630.84	1205.33
631.19	1197.56
631.53	1190.13
631.88	1182.58
632.22	1174.89
632.57	1167.52
632.91	1160.04
633.26	1152.56
633.60	1145.23
633.95	1138.10
634.29	1131.11
634.64	1124.38
634.98	1117.03
635.32	1109.91
635.67	1103.39
636.01	1096.82
636.36	1090.03
636.70	1083.58
637.05	1077.05
637.39	1070.51
637.73	1063.96
638.08	1058.17
638.42	1052.20
638.77	1045.63
639.11	1039.08
639.45	1032.75
639.80	1026.09
640.14	1019.58
640.49	1013.08
640.83	1006.78
641.17	1000.55
641.52	994.21
641.86	987.77
642.20	981.90
642.55	975.56
642.89	969.01
643.23	962.39
643.58	956.63
643.92	950.36
644.26	944.23
644.61	938.26
644.95	932.22
645.29	925.55
645.64	918.72
645.98	912.48
646.32	906.59
646.66	900.50
647.01	894.63
647.35	889.00
647.69	883.21
648.04	877.70
648.38	871.90
648.72	865.90
649.06	859.78
649.41	853.95
649.75	848.01
650.09	842.06
650.43	836.24
650.78	830.08
651.12	824.13
651.46	818.46
651.80	812.64
652.14	807.22
652.49	801.84
652.83	796.70
653.17	790.93
653.51	785.14
653.85	779.86
654.20	774.26
654.54	768.26
654.88	762.48
655.22	756.52
655.56	750.81
655.90	745.37
656.25	740.16
656.59	734.77
656.93	729.67
657.27	724.53
657.61	719.11
657.95	713.99
658.29	708.97
658.64	703.65
658.98	698.31
659.32	692.84
659.66	687.60
660.00	682.28
660.34	677.41
660.68	672.56
661.02	667.49
661.36	662.75
661.70	658.21
662.05	653.87
662.39	649.53
662.73	645.08
663.07	640.68
663.41	636.29
663.75	631.86
664.09	627.28
664.43	622.83
664.77	618.70
665.11	614.46
665.45	610.35
665.79	606.27
666.13	602.20
666.47	598.12
666.81	594.00
667.15	589.89
667.49	585.98
667.83	582.18
668.17	578.25
668.51	574.19
668.85	570.19
669.19	566.31
669.53	562.48
669.87	558.60
670.21	554.89
670.55	551.20
670.89	547.71
671.23	544.34
671.57	540.85
671.91	537.31
672.25	533.84
672.58	530.33
672.92	526.94
673.26	523.79
673.60	520.62
673.94	517.47
674.28	514.58
674.62	511.61
674.96	508.50
675.30	505.58
675.64	502.63
675.97	499.86
676.31	497.01
676.65	494.09
676.99	491.45
677.33	488.57
677.67	485.76
678.01	482.71
678.34	479.65
678.68	476.83
679.02	474.05
679.36	471.24
679.70	468.52
680.04	465.79
680.37	462.86
680.71	460.14
681.05	457.57
681.39	454.82
681.73	452.19
682.06	449.66
682.40	447.10
682.74	444.60
683.08	442.08
683.42	439.46
683.75	436.96
684.09	434.31
684.43	431.86
684.77	429.37
685.10	427.01
685.44	424.74
685.78	422.40
686.12	420.10
686.45	417.87
686.79	415.59
687.13	413.38
687.46	411.23
687.80	409.07
688.14	406.86
688.48	404.81
688.81	402.56
689.15	400.40
689.49	398.30
689.82	396.25
690.16	394.18
690.50	392.25
690.83	390.27
691.17	388.35
691.51	386.44
691.84	384.63
692.18	382.73
692.52	380.75
692.85	378.88
693.19	377.05
693.52	375.21
693.86	373.43
694.20	371.66
694.53	369.86
694.87	368.00
695.21	366.21
695.54	364.38
695.88	362.65
696.21	360.98
696.55	359.26
696.88	357.58
697.22	355.93
697.56	354.34
697.89	352.75
698.23	351.17
698.56	349.58
698.90	347.98
699.23	346.34
699.57	344.83
699.90	343.32
700.24	341.78
700.58	340.25
700.91	338.73
701.25	337.28
701.58	335.93
701.92	334.59
702.25	333.24
702.59	331.94
702.92	330.62
703.26	329.30
703.59	327.99
703.93	326.80
704.26	325.57
704.60	324.23
704.93	322.92
705.26	321.63
705.60	320.47
705.93	319.33
706.27	318.34
706.60	317.27
706.94	316.19
707.27	315.08
707.61	314.06
707.94	313.02
708.27	311.93
708.61	310.87
708.94	309.85
709.28	308.86
709.61	307.90
709.94	306.98
710.28	305.97
710.61	305.04
710.95	303.99
711.28	303.09
711.61	302.16
711.95	301.29
712.28	300.38
712.61	299.40
712.95	298.48
713.28	297.57
713.61	296.68
713.95	295.79
714.28	294.95
714.61	294.10
714.95	293.27
715.28	292.40
715.61	291.52
715.95	290.69
716.28	289.84
716.61	288.98
716.95	288.18
717.28	287.45
717.61	286.64
717.94	285.90
718.28	285.09
718.61	284.34
718.94	283.64
719.27	283.01
719.61	282.36
719.94	281.70
720.27	280.98
720.60	280.29
720.94	279.65
721.27	278.99
721.60	278.35
721.93	277.74
722.27	277.21
722.60	276.67
722.93	276.10
723.26	275.54
723.59	275.00
723.93	274.45
724.26	273.91
724.59	273.38
724.92	272.84
725.25	272.32
725.59	271.78
725.92	271.27
726.25	270.75
726.58	270.24
726.91	269.74
727.24	269.28
727.57	268.80
727.91	268.31
728.24	267.87
728.57	267.38
728.90	266.91
729.23	266.39
729.56	265.95
729.89	265.47
730.22	264.95
730.55	264.49
730.89	263.97
731.22	263.49
731.55	263.06
731.88	262.64
732.21	262.19
732.54	261.79
732.87	261.36
733.20	260.97
733.53	260.60
733.86	260.22
734.19	259.82
734.52	259.46
734.85	259.15
735.18	258.74
735.51	258.40
735.84	258.03
736.17	257.70
736.50	257.27
736.83	257.07
737.16	256.75
737.49	256.40
737.82	256.10
738.15	255.78
738.48	255.44
738.81	255.12
739.14	254.83
739.47	254.52
739.80	254.18
740.13	253.81
740.46	253.47
740.79	253.12
741.12	252.84
741.45	252.49
741.78	252.12
742.11	251.87
742.44	251.55
742.77	251.25
743.10	250.99
743.43	250.71
743.75	250.30
744.08	250.18
744.41	249.90
744.74	249.62
745.07	249.34
745.40	249.11
745.73	248.90
746.06	248.62
746.39	248.38
746.71	248.12
747.04	247.89
747.37	247.65
747.70	247.42
748.03	247.14
748.36	246.99
748.68	246.75
749.01	246.47
749.34	246.26
749.67	246.03
750.00	245.79
750.33	245.66
750.65	245.45
750.98	245.14
751.31	244.91
751.64	244.73
751.97	244.59
752.29	244.34
752.62	244.07
752.95	243.86
753.28	243.64
753.60	243.45
753.93	243.28
754.26	243.08
754.59	242.84
754.91	242.65
755.24	242.44
755.57	242.24
755.90	242.08
756.22	241.86
756.55	241.69
756.88	241.46
757.20	241.24
757.53	241.02
757.86	240.84
758.19	240.70
758.51	240.52
758.84	240.26
759.17	240.11
759.49	239.95
759.82	239.82
760.15	239.69
760.47	239.56
760.80	239.37
761.13	239.25
761.45	239.07
761.78	238.91
762.11	238.77
762.43	238.62
762.76	238.50
763.08	238.39
763.41	238.25
763.74	238.17
764.06	237.99
764.39	237.85
764.71	237.70
765.04	237.55
765.37	237.39
765.69	237.23
766.02	237.11
766.34	237.00
766.67	236.84
767.00	236.73
767.32	236.63
767.65	236.56
767.97	236.41
768.30	236.35
768.62	236.22
768.95	236.05
769.27	235.92
769.60	235.79
769.92	235.64
770.25	235.51
770.57	235.34
770.90	235.26
771.22	235.14
771.55	235.05
771.87	234.95
772.20	234.84
772.52	234.86
772.85	234.88
773.17	234.74
773.50	234.60
773.82	234.47
774.15	234.31
774.47	234.19
774.80	234.09
775.12	233.95
775.45	233.88
775.77	233.80
776.09	233.75
776.42	233.69
776.74	233.65
777.07	233.58
777.39	233.50
777.72	233.42
778.04	233.39
778.36	233.30
778.69	233.23
779.01	233.22
779.33	233.05
779.66	232.86
779.98	232.81
780.31	232.80
780.63	232.76
780.95	232.74
781.28	232.63
781.60	232.55
781.92	232.53
782.25	232.46
782.57	232.42
782.89	232.35
783.22	232.27
783.54	232.18
783.86	232.13
784.19	232.05
784.51	232.02
784.83	231.95
785.16	231.90
785.48	231.83
785.80	231.77
786.12	231.72
786.45	231.69
786.77	231.65
787.09	231.58
787.42	231.50
787.74	231.46
788.06	231.48
788.38	231.45
788.71	231.41
789.03	231.36
789.35	231.31
789.67	231.27
789.99	231.22
790.32	231.17
790.64	231.13
790.96	231.17
791.28	231.11
791.61	231.06
791.93	231.02
792.25	230.99
792.57	231.03
792.89	230.98
793.21	230.95
793.54	230.89
793.86	230.85
794.18	230.86
794.50	230.78
794.82	230.73
795.14	230.71
795.47	230.68
795.79	230.68
796.11	230.67
796.43	230.65
796.75	230.63
797.07	230.64
797.39	230.59
797.71	230.52
798.04	230.47
798.36	230.44
798.68	230.42
799.00	230.42
799.32	230.31
799.64	230.28
799.96	230.24
800.28	230.25
800.60	230.21
800.92	230.15
801.24	230.13
801.56	230.08
801.89	230.08
802.21	230.04
802.53	229.98
802.85	229.93
803.17	229.91
803.49	229.87
803.81	229.80
804.13	229.78
804.45	229.76
804.77	229.77
805.09	229.75
805.41	229.71
805.73	229.65
806.05	229.63
806.37	229.61
806.69	229.60
807.01	229.55
807.33	229.53
807.65	229.48
807.97	229.51
808.28	229.52
808.60	229.46
808.92	229.42
809.24	229.44
809.56	229.42
809.88	229.38
810.20	229.35
810.52	229.38
810.84	229.33
811.16	229.31
811.48	229.25
811.80	229.24
812.12	229.24
812.43	229.21
812.75	229.18
813.07	229.16
813.39	229.12
813.71	229.08
814.03	229.06
814.35	229.02
814.67	228.94
814.98	228.90
815.30	228.89
815.62	228.87
815.94	228.77
816.26	228.81
816.58	228.76
816.89	228.75
817.21	228.67
817.53	228.64
817.85	228.61
818.17	228.63
818.48	228.58
818.80	228.56
819.12	228.55
819.44	228.52
819.76	228.49
820.07	228.49
820.39	228.51
820.71	228.51
821.03	228.52
821.34	228.50
821.66	228.49
821.98	228.49
822.30	228.47
822.61	228.52
822.93	228.44
823.25	228.42
823.57	228.41
823.88	228.41
824.20	228.42
824.52	228.43
824.83	228.38
825.15	228.35
825.47	228.35
825.79	228.34
826.10	228.34
826.42	228.33
826.74	228.32
827.05	228.28
827.37	228.24
827.69	228.23
828.00	228.23
828.32	228.18
828.64	228.14
828.95	228.16
829.27	228.13
829.58	228.12
829.90	228.14
830.22	228.14
830.53	228.14
830.85	228.12
831.17	228.09
831.48	228.08
831.80	228.11
832.11	228.09
832.43	228.06
832.75	228.02
833.06	228.10
833.38	228.05
833.69	228.05
834.01	228.07
834.32	228.04
834.64	228.02
834.96	228.04
835.27	228.03
835.59	228.00
835.90	227.96
836.22	227.94
836.53	227.93
836.85	227.87
837.16	227.98
837.48	227.97
837.79	227.97
838.11	227.97
838.42	227.95
838.74	227.94
839.05	227.93
839.37	227.92
839.68	227.82
840.00	227.82
840.31	227.81
840.63	227.80
840.94	227.77
841.26	227.78
841.57	227.76
841.88	227.80
842.20	227.81
842.51	227.80
842.83	227.81
843.14	227.88
843.46	227.92
843.77	227.83
844.08	227.81
844.40	227.80
844.71	227.77
845.03	227.77
845.34	227.77
845.65	227.78
845.97	227.76
846.28	227.74
846.60	227.74
846.91	227.76
847.22	227.73
847.54	227.75
847.85	227.77
848.16	227.77
848.48	227.71
848.79	227.75
849.10	227.76
849.42	227.80
849.73	227.71
850.04	227.72
850.36	227.70
850.67	227.74
850.98	227.76
851.30	227.78
851.61	227.77
851.92	227.77
852.23	227.82
852.55	227.82
852.86	227.85
853.17	227.84
853.49	227.86
853.80	227.89
854.11	227.89
854.42	227.88
854.74	227.85
855.05	227.88
855.36	227.78
855.67	227.76
855.99	227.75
856.30	227.86
856.61	227.82
856.92	227.80
857.23	227.76
857.55	227.73
857.86	227.71
858.17	227.72
858.48	227.69
858.79	227.66
859.11	227.65
859.42	227.63
859.73	227.62
860.04	227.58
860.35	227.55
860.66	227.55
860.98	227.53
861.29	227.54
861.60	227.51
861.91	227.56
862.22	227.55
862.53	227.52
862.84	227.43
863.16	227.45
863.47	227.44
863.78	227.47
864.09	227.45
864.40	227.48
864.71	227.48
865.02	227.51
865.33	227.50
865.64	227.50
865.95	227.52
866.27	227.60
866.58	227.58
866.89	227.60
867.20	227.59
867.51	227.57
867.82	227.59
868.13	227.62
868.44	227.58
868.75	227.57
869.06	227.56
869.37	227.53
869.68	227.49
869.99	227.51
870.30	227.49
870.61	227.52
870.92	227.49
871.23	227.45
871.54	227.46
871.85	227.47
872.16	227.48
872.47	227.48
872.78	227.38
873.09	227.40
873.40	227.37
873.71	227.36
874.02	227.36
874.33	227.33
874.64	227.28
874.95	227.31
875.26	227.30
875.56	227.30
875.87	227.32
876.18	227.32
876.49	227.37
876.80	227.36
877.11	227.34
877.42	227.33
877.73	227.35
878.04	227.32
878.35	227.30
878.66	227.30
878.96	227.29
879.27	227.30
879.58	227.29
879.89	227.27
880.20	227.30
880.51	227.29
880.82	227.31
881.12	227.32
881.43	227.30
881.74	227.29
882.05	227.28
882.36	227.24
882.67	227.29
882.97	227.22
883.28	227.22
883.59	227.23
883.90	227.24
884.21	227.23
884.51	227.20
884.82	227.22
885.13	227.22
885.44	227.20
885.74	227.22
886.05	227.20
886.36	227.24
886.67	227.22
886.98	227.27
887.28	227.27
887.59	227.29
887.90	227.30
888.20	227.32
888.51	227.37
888.82	227.39
889.13	227.35
889.43	227.44
889.74	227.41
890.05	227.37
890.35	227.36
890.66	227.36
890.97	227.38
891.28	227.38
891.58	227.37
891.89	227.38
892.20	227.35
892.50	227.36
892.81	227.33
893.12	227.33
893.42	227.26
893.73	227.29
894.04	227.27
894.34	227.28
894.65	227.23
894.95	227.22
895.26	227.21
895.57	227.27
895.87	227.19
896.18	227.22
896.48	227.28
896.79	227.31
897.10	227.31
897.40	227.28
897.71	227.27
898.01	227.24
898.32	227.26
898.63	227.25
898.93	227.26
899.24	227.26
899.54	227.26
899.85	227.27
900.15	227.24
900.46	227.23
900.76	227.22
901.07	227.23
901.38	227.22
901.68	227.23
901.99	227.15
902.29	227.14
902.60	227.09
902.90	227.03
903.21	227.01
903.51	227.02
903.82	227.06
904.12	227.07
904.43	227.08
904.73	227.06
905.03	227.06
905.34	227.14
905.64	227.11
905.95	227.11
906.25	227.15
906.56	227.15
906.86	227.17
907.17	227.14
907.47	227.16
907.77	227.14
908.08	227.11
908.38	227.12
908.69	227.11
908.99	227.16
909.30	227.16
909.60	227.17
909.90	227.16
910.21	227.14
910.51	227.11
910.81	227.12
911.12	227.11
911.42	227.16
911.73	227.04
912.03	227.08
912.33	227.07
912.64	227.03
912.94	227.01
913.24	226.98
913.55	227.00
913.85	227.00
914.15	227.00
914.46	227.01
914.76	227.02
915.06	227.03
915.37	227.02
915.67	227.01
915.97	227.04
916.27	226.99
916.58	227.01
916.88	227.01
917.18	227.02
917.49	227.10
917.79	227.06
918.09	227.09
918.39	227.11
918.70	227.10
919.00	227.09
919.30	227.17
919.60	227.15
919.91	227.13
920.21	227.12
920.51	227.15
920.81	227.14
921.12	227.16
921.42	227.16
921.72	227.16
922.02	227.18
922.32	227.17
922.63	227.22
922.93	227.27
923.23	227.28
923.53	227.27
923.83	227.20
924.13	227.23
924.44	227.20
924.74	227.23
925.04	227.29
925.34	227.29
925.64	227.22
925.94	227.27
926.24	227.33
926.55	227.34
926.85	227.32
927.15	227.32
927.45	227.31
927.75	227.31
928.05	227.33
928.35	227.33
928.65	227.36
928.95	227.35
929.26	227.28
929.56	227.30
929.86	227.29
930.16	227.31
930.46	227.32
930.76	227.33
931.06	227.30
931.36	227.27
931.66	227.27
931.96	227.27
932.26	227.25
932.56	227.21
932.86	227.21
933.16	227.22
933.46	227.21
933.76	227.19
934.06	227.20
934.36	227.22
934.66	227.20
934.96	227.17
935.26	227.17
935.56	227.21
935.86	227.18
936.16	227.17
936.46	227.14
936.76	227.10
937.06	227.14
937.36	227.12
937.66	227.10
937.96	227.14
938.26	227.15
938.56	227.14
938.86	227.15
939.16	227.19
939.46	227.20
939.76	227.18
940.06	227.17
940.35	227.15
940.65	227.10
940.95	227.13
941.25	227.13
941.55	227.12
941.85	227.06
942.15	227.06
942.45	227.08
942.75	227.05
943.04	227.07
943.34	227.07
943.64	227.05
943.94	227.01
944.24	226.99
944.54	226.99
944.84	226.98
945.13	226.98
945.43	226.94
945.73	226.93
946.03	226.97
946.33	226.95
946.62	226.93
946.92	226.90
947.22	226.91
947.52	226.90
947.82	226.89
948.11	226.92
948.41	226.91
948.71	226.87
949.01	226.91
949.31	226.91
949.60	226.88
949.90	226.89
950.20	226.90
950.50	226.90
950.79	226.90
951.09	226.95
951.39	226.92
951.69	226.89
951.98	226.92
952.28	226.89
952.58	226.93
952.87	226.93
953.17	226.97
953.47	226.95
953.76	226.96
954.06	226.95
954.36	226.92
954.66	226.91
954.95	226.97
955.25	226.94
955.55	226.95
955.84	226.94
956.14	226.98
956.44	226.99
956.73	226.97
957.03	226.95
957.32	226.91
957.62	226.88
957.92	226.92
958.21	226.89
958.51	227.01
958.81	227.00
959.10	227.01
959.40	227.03
959.69	227.03
959.99	227.04
960.29	227.05
960.58	227.07
960.88	227.09
961.17	227.08
961.47	227.09
961.76	227.08
962.06	227.12
962.36	227.10
962.65	227.09
962.95	227.08
963.24	227.07
963.54	227.06
963.83	227.09
964.13	227.09
964.42	227.08
964.72	226.97
965.01	226.99
965.31	226.98
965.60	226.95
965.90	227.01
966.19	226.96
966.49	226.97
966.78	226.96
967.08	226.98
967.37	226.95
967.67	226.94
967.96	226.97
968.26	226.96
968.55	226.95
968.85	226.98
969.14	226.98
969.43	227.01
969.73	227.01
970.02	227.00
970.32	226.97
970.61	226.96
970.91	226.95
971.20	226.91
971.49	226.90
971.79	226.93
972.08	226.87
972.38	226.87
972.67	226.86
972.96	226.85
973.26	226.83
973.55	226.82
973.85	226.82
974.14	226.76
974.43	226.74
974.73	226.70
975.02	226.70
975.31	226.70
975.61	226.67
975.90	226.67
976.19	226.65
976.49	226.68
976.78	226.71
977.07	226.73
977.37	226.73
977.66	226.74
977.95	226.67
978.24	226.67
978.54	226.68
978.83	226.70
979.12	226.71
979.42	226.71
979.71	226.75
980.00	226.76
980.29	226.80
980.59	226.78
980.88	226.82
981.17	226.81
981.46	226.83
981.76	226.82
982.05	226.86
982.34	226.88
982.63	226.86
982.93	226.86
983.22	226.87
983.51	226.88
983.80	226.92
984.09	226.93
984.39	226.93
984.68	226.90
984.97	226.88
985.26	226.85
985.55	226.87
985.85	226.81
986.14	226.80
986.43	226.79
986.72	226.80
987.01	226.77
987.30	226.77
987.59	226.74
987.89	226.77
988.18	226.72
988.47	226.69
988.76	226.69
989.05	226.67
989.34	226.63
989.63	226.67
989.92	226.64
990.22	226.64
990.51	226.62
990.80	226.64
991.09	226.65
991.38	226.67
991.67	226.64
991.96	226.63
992.25	226.61
992.54	226.59
992.83	226.57
993.12	226.59
993.41	226.60
993.70	226.61
993.99	226.63
994.28	226.63
994.58	226.68
994.87	226.63
995.16	226.65
995.45	226.63
995.74	226.58
996.03	226.59
996.32	226.62
996.61	226.67
996.90	226.68
997.19	226.68
997.48	226.67
997.77	226.70
998.06	226.73
998.34	226.75
998.63	226.79
998.92	226.81
999.21	226.79
999.50	226.78
999.79	226.77
1000.08	226.77
1000.37	226.81
1000.66	226.80
1000.95	226.84
1001.24	226.84
1001.53	226.90
1001.82	226.91
1002.11	226.91
1002.40	226.92
1002.68	226.93
1002.97	226.98
1003.26	226.99
1003.55	226.98
1003.84	226.99
1004.13	227.03
1004.42	227.02
1004.71	226.99
1004.99	226.98
1005.28	227.04
1005.57	227.05
1005.86	227.07
1006.15	227.04
1006.44	226.99
1006.72	227.00
1007.01	226.99
1007.30	226.98
1007.59	226.96
1007.88	227.00
1008.17	226.98
1008.45	226.96
1008.74	226.93
1009.03	226.92
1009.32	226.90
1009.60	226.95
1009.89	226.94
1010.18	226.87
1010.47	226.88
1010.76	226.90
1011.04	226.92
1011.33	226.90
1011.62	226.92
1011.91	226.94
1012.19	226.94
1012.48	226.95
1012.77	226.94
1013.05	226.99
1013.34	226.99
1013.63	226.96
1013.92	226.92
1014.20	226.92
1014.49	226.91
1014.78	226.94
1015.06	226.89
1015.35	226.89
1015.64	226.86
1015.92	226.88
1016.21	226.89
1016.50	226.85
1016.78	226.85
1017.07	226.84
1017.36	226.84
1017.64	226.80
1017.93	226.78
1018.22	226.76
1018.50	226.77
1018.79	226.75
1019.08	226.69
1019.36	226.71
1019.65	226.72
1019.93	226.77
1020.22	226.80
1020.51	226.85
1020.79	226.80
1021.08	226.02
1021.36	226.69
1021.65	226.43
1021.94	226.54
1022.22	227.06
1022.51	226.57
1022.79	227.60
1023.08	227.09
1023.36	227.89
1023.65	226.47
>>>>>End Processed Spectral Data<<<<<
