SpectraSuite Data File
++++++++++++++++++++++++++++++++++++
Date: Fri Feb 01 15:53:54 EST 2013
User: group
Dark Spectrum Present: No
Reference Spectrum Present: No
Number of Sampled Component Spectra: 1
Spectrometers: USB2E7196
Integration Time (usec): 35000 (USB2E7196)
Spectra Averaged: 100 (USB2E7196)
Boxcar Smoothing: 10 (USB2E7196)
Correct for Electrical Dark: No (USB2E7196)
Strobe/Lamp Enabled: No (USB2E7196)
Correct for Detector Non-linearity: No (USB2E7196)
Correct for Stray Light: No (USB2E7196)
Number of Pixels in Processed Spectrum: 2048
>>>>>Begin Processed Spectral Data<<<<<
339.09	0.00
339.48	213.96
339.86	216.08
340.24	217.39
340.63	218.53
341.01	221.70
341.39	221.93
341.78	222.45
342.16	224.17
342.54	224.64
342.93	212.98
343.31	223.72
343.69	224.26
344.07	224.74
344.46	225.16
344.84	225.55
345.22	225.76
345.60	225.99
345.99	226.19
346.37	226.32
346.75	226.45
347.13	226.50
347.52	226.56
347.90	226.64
348.28	226.65
348.66	226.69
349.05	226.69
349.43	226.71
349.81	226.73
350.19	226.78
350.57	226.83
350.96	226.94
351.34	227.02
351.72	227.15
352.10	227.27
352.48	227.36
352.87	227.44
353.25	227.56
353.63	227.65
354.01	227.74
354.39	227.81
354.77	227.85
355.15	227.99
355.54	228.05
355.92	228.08
356.30	228.17
356.68	228.32
357.06	228.40
357.44	228.47
357.82	228.54
358.20	228.64
358.58	228.72
358.97	228.79
359.35	228.88
359.73	228.94
360.11	229.00
360.49	229.07
360.87	229.13
361.25	229.16
361.63	229.21
362.01	229.27
362.39	229.32
362.77	229.36
363.15	229.39
363.53	229.43
363.91	229.49
364.29	229.53
364.67	229.45
365.05	229.44
365.43	229.46
365.81	229.53
366.19	229.55
366.57	229.57
366.95	229.54
367.33	229.53
367.71	229.52
368.09	229.51
368.47	229.47
368.85	229.43
369.23	229.41
369.61	229.36
369.99	229.36
370.37	229.34
370.75	229.37
371.13	229.32
371.51	229.29
371.89	229.26
372.27	229.22
372.65	229.20
373.03	229.16
373.41	229.08
373.78	229.00
374.16	228.87
374.54	228.77
374.92	228.75
375.30	228.67
375.68	228.60
376.06	228.52
376.44	228.45
376.82	228.40
377.19	228.33
377.57	228.28
377.95	228.19
378.33	228.10
378.71	227.95
379.09	227.84
379.47	227.76
379.84	227.63
380.22	227.53
380.60	227.44
380.98	227.33
381.36	227.28
381.73	227.21
382.11	227.17
382.49	227.10
382.87	227.00
383.25	226.97
383.62	227.00
384.00	226.92
384.38	226.83
384.76	226.76
385.13	226.76
385.51	226.68
385.89	226.58
386.27	226.54
386.64	226.49
387.02	226.47
387.40	226.41
387.78	226.36
388.15	226.36
388.53	226.31
388.91	226.29
389.29	226.26
389.66	226.23
390.04	226.18
390.42	226.15
390.79	226.15
391.17	226.13
391.55	226.03
391.92	226.02
392.30	226.04
392.68	226.02
393.05	226.00
393.43	226.01
393.81	226.01
394.18	225.99
394.56	226.03
394.94	226.03
395.31	226.09
395.69	226.16
396.06	226.15
396.44	226.19
396.82	226.22
397.19	226.30
397.57	226.33
397.95	226.41
398.32	226.44
398.70	226.48
399.07	226.55
399.45	226.57
399.82	226.64
400.20	226.72
400.58	226.80
400.95	226.84
401.33	226.95
401.70	227.10
402.08	227.22
402.45	227.28
402.83	227.41
403.20	227.48
403.58	227.58
403.95	227.74
404.33	227.85
404.71	227.98
405.08	228.13
405.46	228.29
405.83	228.46
406.21	228.64
406.58	228.84
406.96	229.02
407.33	229.25
407.70	229.44
408.08	229.70
408.45	229.93
408.83	230.18
409.20	230.39
409.58	230.59
409.95	230.85
410.33	231.15
410.70	231.41
411.08	231.75
411.45	232.04
411.82	232.32
412.20	232.72
412.57	233.14
412.95	233.44
413.32	233.88
413.69	234.28
414.07	234.73
414.44	235.17
414.82	235.63
415.19	236.16
415.56	236.71
415.94	237.26
416.31	237.89
416.68	238.51
417.06	239.22
417.43	239.90
417.81	240.66
418.18	241.43
418.55	242.28
418.93	243.11
419.30	244.03
419.67	244.99
420.04	245.90
420.42	246.90
420.79	248.09
421.16	249.18
421.54	250.35
421.91	251.54
422.28	252.78
422.66	254.11
423.03	255.43
423.40	256.75
423.77	258.15
424.15	259.53
424.52	261.04
424.89	262.63
425.26	264.20
425.64	265.63
426.01	267.20
426.38	268.80
426.75	270.50
427.13	272.21
427.50	273.97
427.87	275.86
428.24	277.69
428.61	279.39
428.99	281.35
429.36	283.46
429.73	285.53
430.10	287.56
430.47	289.58
430.85	291.68
431.22	293.91
431.59	296.32
431.96	298.60
432.33	301.03
432.70	303.43
433.08	306.23
433.45	308.84
433.82	311.46
434.19	314.37
434.56	317.18
434.93	319.82
435.30	322.46
435.68	325.35
436.05	328.19
436.42	331.02
436.79	333.54
437.16	336.20
437.53	339.07
437.90	341.85
438.27	344.60
438.64	347.42
439.01	350.01
439.38	352.22
439.75	354.35
440.13	356.86
440.50	359.16
440.87	361.02
441.24	363.01
441.61	365.19
441.98	366.70
442.35	368.50
442.72	370.38
443.09	372.20
443.46	373.20
443.83	373.75
444.20	374.26
444.57	375.07
444.94	375.40
445.31	375.72
445.68	376.08
446.05	376.16
446.42	375.79
446.79	375.37
447.16	374.90
447.53	374.59
447.90	373.42
448.27	372.27
448.64	370.67
449.01	369.52
449.37	367.55
449.74	365.64
450.11	363.42
450.48	360.92
450.85	358.37
451.22	356.24
451.59	354.28
451.96	352.35
452.33	349.78
452.70	347.41
453.07	344.55
453.43	341.69
453.80	338.92
454.17	336.25
454.54	333.76
454.91	331.10
455.28	328.48
455.65	325.99
456.02	323.60
456.38	321.47
456.75	318.83
457.12	316.57
457.49	314.33
457.86	312.14
458.23	310.31
458.59	308.28
458.96	306.22
459.33	304.39
459.70	302.51
460.07	301.03
460.43	299.31
460.80	297.70
461.17	296.23
461.54	294.76
461.91	293.31
462.27	291.83
462.64	290.54
463.01	289.20
463.38	287.93
463.74	286.51
464.11	285.36
464.48	284.31
464.85	283.19
465.21	282.32
465.58	281.41
465.95	280.31
466.32	279.42
466.68	278.49
467.05	277.56
467.42	276.66
467.78	275.70
468.15	274.80
468.52	274.13
468.88	273.31
469.25	272.53
469.62	271.96
469.98	271.26
470.35	270.67
470.72	270.03
471.08	269.36
471.45	268.85
471.82	268.27
472.18	267.67
472.55	267.26
472.92	266.75
473.28	266.28
473.65	265.83
474.02	265.37
474.38	264.98
474.75	264.63
475.11	264.27
475.48	264.00
475.85	263.78
476.21	263.58
476.58	263.36
476.94	263.20
477.31	262.98
477.67	262.82
478.04	262.67
478.41	262.60
478.77	262.66
479.14	262.61
479.50	262.65
479.87	262.68
480.23	262.75
480.60	262.82
480.96	262.95
481.33	263.11
481.69	263.33
482.06	263.53
482.42	263.74
482.79	264.06
483.15	264.38
483.52	264.79
483.88	265.11
484.25	265.48
484.61	265.93
484.98	266.37
485.34	266.97
485.71	267.58
486.07	268.20
486.44	268.78
486.80	269.48
487.17	270.18
487.53	271.03
487.90	271.87
488.26	272.81
488.62	273.76
488.99	274.77
489.35	275.83
489.72	276.97
490.08	278.20
490.44	279.41
490.81	280.77
491.17	282.09
491.54	283.58
491.90	285.13
492.26	286.76
492.63	288.56
492.99	290.32
493.36	292.22
493.72	294.24
494.08	296.33
494.45	298.57
494.81	300.95
495.17	303.38
495.54	305.94
495.90	308.64
496.26	311.47
496.63	314.42
496.99	317.52
497.35	320.78
497.72	324.20
498.08	327.74
498.44	331.37
498.80	335.33
499.17	339.37
499.53	343.62
499.89	348.04
500.26	352.53
500.62	357.26
500.98	362.19
501.34	367.30
501.71	372.67
502.07	378.09
502.43	383.70
502.79	389.49
503.16	395.55
503.52	401.81
503.88	408.21
504.24	414.93
504.60	421.84
504.97	428.96
505.33	436.28
505.69	444.01
506.05	451.85
506.41	459.71
506.78	467.87
507.14	476.26
507.50	484.96
507.86	493.96
508.22	503.13
508.59	512.35
508.95	521.94
509.31	531.74
509.67	541.83
510.03	552.14
510.39	562.76
510.75	573.59
511.12	584.54
511.48	595.89
511.84	607.25
512.20	618.69
512.56	630.66
512.92	642.83
513.28	655.11
513.64	667.57
514.00	680.31
514.37	693.23
514.73	706.29
515.09	719.32
515.45	732.70
515.81	746.20
516.17	760.19
516.53	774.27
516.89	788.44
517.25	802.70
517.61	817.13
517.97	831.58
518.33	845.99
518.69	860.78
519.05	875.71
519.41	890.90
519.77	906.46
520.13	921.84
520.49	937.21
520.85	952.72
521.21	968.34
521.57	984.54
521.93	1000.36
522.29	1016.83
522.65	1033.14
523.01	1049.25
523.37	1065.31
523.73	1081.46
524.09	1097.52
524.45	1113.70
524.81	1130.26
525.17	1147.07
525.53	1163.92
525.89	1180.79
526.25	1197.45
526.61	1213.85
526.97	1230.52
527.33	1246.98
527.68	1263.54
528.04	1280.01
528.40	1296.62
528.76	1313.82
529.12	1330.37
529.48	1347.16
529.84	1363.04
530.20	1379.65
530.56	1396.77
530.91	1414.20
531.27	1430.95
531.63	1447.39
531.99	1464.02
532.35	1479.93
532.71	1495.72
533.07	1511.99
533.42	1527.74
533.78	1543.79
534.14	1559.94
534.50	1575.29
534.86	1591.15
535.21	1606.35
535.57	1622.29
535.93	1637.76
536.29	1652.55
536.65	1667.49
537.00	1682.25
537.36	1697.48
537.72	1711.98
538.08	1726.25
538.44	1739.88
538.79	1753.73
539.15	1767.43
539.51	1781.17
539.87	1795.49
540.22	1809.30
540.58	1823.15
540.94	1836.61
541.29	1849.53
541.65	1862.22
542.01	1875.48
542.37	1887.61
542.72	1900.07
543.08	1911.78
543.44	1924.08
543.79	1935.12
544.15	1946.21
544.51	1957.82
544.87	1968.78
545.22	1979.53
545.58	1989.70
545.94	1999.58
546.29	2009.32
546.65	2019.23
547.01	2028.44
547.36	2037.27
547.72	2045.72
548.07	2053.26
548.43	2061.33
548.79	2069.42
549.14	2076.94
549.50	2084.29
549.86	2092.25
550.21	2099.63
550.57	2106.84
550.92	2113.29
551.28	2120.38
551.64	2127.53
551.99	2134.03
552.35	2140.28
552.70	2146.41
553.06	2152.31
553.41	2158.68
553.77	2164.73
554.13	2170.78
554.48	2176.86
554.84	2182.18
555.19	2187.49
555.55	2192.74
555.90	2197.21
556.26	2202.02
556.61	2206.73
556.97	2210.91
557.32	2214.86
557.68	2218.83
558.03	2223.13
558.39	2226.88
558.74	2231.59
559.10	2235.38
559.45	2238.99
559.81	2243.18
560.16	2247.02
560.52	2250.31
560.87	2253.63
561.23	2256.49
561.58	2259.35
561.94	2261.93
562.29	2264.42
562.64	2267.00
563.00	2269.65
563.35	2273.17
563.71	2276.28
564.06	2279.58
564.42	2282.50
564.77	2285.03
565.12	2287.44
565.48	2289.24
565.83	2291.09
566.19	2292.30
566.54	2293.20
566.89	2294.37
567.25	2294.82
567.60	2295.99
567.96	2297.62
568.31	2298.51
568.66	2299.44
569.02	2300.02
569.37	2300.33
569.72	2301.03
570.08	2301.10
570.43	2301.14
570.78	2300.46
571.14	2298.83
571.49	2297.42
571.84	2297.09
572.20	2295.89
572.55	2294.70
572.90	2293.13
573.26	2291.78
573.61	2290.03
573.96	2288.31
574.31	2285.20
574.67	2282.32
575.02	2278.88
575.37	2275.49
575.72	2271.67
576.08	2268.40
576.43	2264.99
576.78	2261.25
577.13	2258.12
577.49	2255.16
577.84	2251.59
578.19	2248.15
578.54	2244.53
578.90	2240.18
579.25	2234.64
579.60	2229.65
579.95	2224.68
580.30	2219.70
580.66	2214.57
581.01	2209.51
581.36	2204.56
581.71	2200.52
582.06	2196.01
582.42	2191.55
582.77	2186.26
583.12	2181.69
583.47	2176.95
583.82	2172.10
584.17	2166.93
584.53	2161.54
584.88	2155.90
585.23	2150.21
585.58	2144.63
585.93	2139.21
586.28	2134.57
586.63	2129.44
586.98	2124.46
587.34	2119.75
587.69	2114.88
588.04	2109.49
588.39	2103.94
588.74	2097.51
589.09	2091.28
589.44	2084.69
589.79	2078.66
590.14	2073.24
590.49	2066.60
590.84	2060.24
591.19	2054.22
591.54	2047.66
591.89	2040.25
592.25	2033.43
592.60	2026.32
592.95	2018.69
593.30	2011.42
593.65	2003.86
594.00	1996.93
594.35	1989.77
594.70	1981.73
595.05	1974.43
595.40	1967.34
595.75	1960.03
596.10	1953.76
596.45	1947.02
596.80	1940.79
597.15	1934.06
597.50	1926.90
597.85	1920.58
598.19	1914.08
598.54	1906.85
598.89	1900.35
599.24	1894.53
599.59	1887.75
599.94	1881.50
600.29	1875.22
600.64	1868.66
600.99	1861.23
601.34	1854.39
601.69	1847.42
602.04	1840.51
602.39	1833.30
602.74	1826.30
603.08	1819.45
603.43	1812.68
603.78	1805.42
604.13	1798.30
604.48	1790.96
604.83	1784.10
605.18	1777.06
605.53	1768.87
605.87	1760.77
606.22	1753.45
606.57	1745.51
606.92	1738.21
607.27	1730.90
607.62	1723.92
607.96	1716.60
608.31	1709.98
608.66	1702.28
609.01	1694.67
609.36	1687.05
609.70	1678.90
610.05	1670.90
610.40	1663.07
610.75	1654.82
611.10	1647.19
611.44	1638.59
611.79	1630.72
612.14	1621.91
612.49	1612.79
612.83	1604.40
613.18	1596.40
613.53	1588.30
613.88	1579.68
614.22	1571.47
614.57	1562.77
614.92	1554.69
615.27	1547.05
615.61	1538.68
615.96	1530.70
616.31	1523.12
616.65	1515.86
617.00	1508.40
617.35	1500.73
617.70	1492.50
618.04	1483.86
618.39	1475.56
618.74	1468.12
619.08	1459.75
619.43	1452.28
619.78	1445.41
620.12	1438.22
620.47	1430.73
620.82	1422.65
621.16	1415.33
621.51	1407.82
621.85	1400.37
622.20	1391.93
622.55	1383.65
622.89	1375.85
623.24	1368.22
623.59	1360.78
623.93	1353.23
624.28	1345.97
624.62	1338.51
624.97	1331.33
625.32	1324.70
625.66	1317.69
626.01	1310.41
626.35	1303.00
626.70	1295.25
627.04	1287.49
627.39	1279.69
627.73	1272.35
628.08	1265.35
628.43	1257.94
628.77	1250.46
629.12	1242.78
629.46	1235.63
629.81	1228.31
630.15	1221.12
630.50	1213.70
630.84	1205.60
631.19	1197.77
631.53	1190.22
631.88	1182.63
632.22	1175.02
632.57	1167.62
632.91	1160.08
633.26	1152.67
633.60	1145.30
633.95	1138.29
634.29	1131.30
634.64	1124.72
634.98	1117.34
635.32	1110.24
635.67	1103.75
636.01	1097.15
636.36	1090.44
636.70	1083.89
637.05	1077.22
637.39	1070.65
637.73	1064.14
638.08	1058.16
638.42	1051.94
638.77	1045.65
639.11	1039.01
639.45	1032.65
639.80	1026.04
640.14	1019.62
640.49	1013.11
640.83	1006.78
641.17	1000.47
641.52	994.10
641.86	987.62
642.20	981.71
642.55	975.38
642.89	968.81
643.23	962.26
643.58	956.54
643.92	950.30
644.26	944.30
644.61	938.34
644.95	932.30
645.29	925.66
645.64	918.99
645.98	912.53
646.32	906.75
646.66	900.72
647.01	894.95
647.35	889.28
647.69	883.45
648.04	877.91
648.38	872.10
648.72	866.10
649.06	860.07
649.41	854.28
649.75	848.31
650.09	842.36
650.43	836.56
650.78	830.24
651.12	824.25
651.46	818.48
651.80	812.71
652.14	807.27
652.49	801.98
652.83	796.89
653.17	791.27
653.51	785.54
653.85	780.19
654.20	774.44
654.54	768.37
654.88	762.62
655.22	756.79
655.56	751.03
655.90	745.58
656.25	740.25
656.59	734.78
656.93	729.65
657.27	724.42
657.61	718.94
657.95	713.98
658.29	708.94
658.64	703.64
658.98	698.38
659.32	692.94
659.66	687.70
660.00	682.29
660.34	677.27
660.68	672.33
661.02	667.26
661.36	662.58
661.70	658.10
662.05	653.69
662.39	649.38
662.73	644.99
663.07	640.53
663.41	636.09
663.75	631.60
664.09	627.10
664.43	622.81
664.77	618.65
665.11	614.37
665.45	610.26
665.79	606.15
666.13	602.00
666.47	597.92
666.81	593.76
667.15	589.69
667.49	585.80
667.83	582.01
668.17	578.07
668.51	574.05
668.85	570.03
669.19	566.24
669.53	562.33
669.87	558.47
670.21	554.81
670.55	551.18
670.89	547.75
671.23	544.31
671.57	540.74
671.91	537.27
672.25	533.75
672.58	530.24
672.92	526.86
673.26	523.62
673.60	520.46
673.94	517.39
674.28	514.56
674.62	511.64
674.96	508.49
675.30	505.62
675.64	502.64
675.97	499.91
676.31	497.02
676.65	494.12
676.99	491.41
677.33	488.59
677.67	485.79
678.01	482.76
678.34	479.78
678.68	476.92
679.02	474.06
679.36	471.34
679.70	468.61
680.04	465.96
680.37	463.15
680.71	460.36
681.05	457.73
681.39	454.94
681.73	452.23
682.06	449.72
682.40	447.14
682.74	444.61
683.08	442.05
683.42	439.49
683.75	437.00
684.09	434.45
684.43	431.93
684.77	429.48
685.10	427.18
685.44	424.92
685.78	422.66
686.12	420.42
686.45	418.13
686.79	415.83
687.13	413.58
687.46	411.40
687.80	409.28
688.14	407.06
688.48	405.03
688.81	402.78
689.15	400.67
689.49	398.50
689.82	396.44
690.16	394.36
690.50	392.40
690.83	390.46
691.17	388.50
691.51	386.61
691.84	384.77
692.18	382.80
692.52	380.77
692.85	378.83
693.19	376.98
693.52	375.14
693.86	373.33
694.20	371.53
694.53	369.78
694.87	367.91
695.21	366.07
695.54	364.22
695.88	362.51
696.21	360.75
696.55	359.10
696.88	357.40
697.22	355.74
697.56	354.13
697.89	352.45
698.23	350.82
698.56	349.19
698.90	347.58
699.23	345.93
699.57	344.39
699.90	342.84
700.24	341.27
700.58	339.73
700.91	338.19
701.25	336.73
701.58	335.33
701.92	334.00
702.25	332.67
702.59	331.34
702.92	330.04
703.26	328.74
703.59	327.45
703.93	326.28
704.26	325.04
704.60	323.68
704.93	322.40
705.26	321.17
705.60	320.00
705.93	318.85
706.27	317.81
706.60	316.72
706.94	315.64
707.27	314.54
707.61	313.47
707.94	312.51
708.27	311.45
708.61	310.40
708.94	309.36
709.28	308.35
709.61	307.36
709.94	306.41
710.28	305.43
710.61	304.46
710.95	303.38
711.28	302.49
711.61	301.59
711.95	300.70
712.28	299.77
712.61	298.79
712.95	297.87
713.28	297.02
713.61	296.23
713.95	295.36
714.28	294.53
714.61	293.72
714.95	292.84
715.28	291.97
715.61	291.06
715.95	290.19
716.28	289.36
716.61	288.54
716.95	287.74
717.28	286.98
717.61	286.22
717.94	285.50
718.28	284.70
718.61	283.96
718.94	283.27
719.27	282.65
719.61	282.01
719.94	281.37
720.27	280.64
720.60	279.93
720.94	279.30
721.27	278.69
721.60	278.10
721.93	277.53
722.27	277.02
722.60	276.44
722.93	275.91
723.26	275.38
723.59	274.83
723.93	274.27
724.26	273.75
724.59	273.18
724.92	272.63
725.25	272.12
725.59	271.63
725.92	271.13
726.25	270.62
726.58	270.14
726.91	269.64
727.24	269.17
727.57	268.74
727.91	268.23
728.24	267.78
728.57	267.31
728.90	266.85
729.23	266.36
729.56	265.96
729.89	265.48
730.22	264.98
730.55	264.50
730.89	264.06
731.22	263.59
731.55	263.19
731.88	262.79
732.21	262.37
732.54	261.94
732.87	261.51
733.20	261.10
733.53	260.69
733.86	260.31
734.19	259.92
734.52	259.48
734.85	259.15
735.18	258.72
735.51	258.35
735.84	258.00
736.17	257.61
736.50	257.21
736.83	256.98
737.16	256.64
737.49	256.32
737.82	255.95
738.15	255.59
738.48	255.27
738.81	254.90
739.14	254.57
739.47	254.23
739.80	253.90
740.13	253.60
740.46	253.28
740.79	252.96
741.12	252.62
741.45	252.33
741.78	252.00
742.11	251.70
742.44	251.38
742.77	251.06
743.10	250.77
743.43	250.45
743.75	250.08
744.08	249.95
744.41	249.66
744.74	249.45
745.07	249.20
745.40	248.92
745.73	248.70
746.06	248.42
746.39	248.17
746.71	247.88
747.04	247.58
747.37	247.33
747.70	247.07
748.03	246.83
748.36	246.59
748.68	246.34
749.01	246.10
749.34	245.87
749.67	245.61
750.00	245.37
750.33	245.26
750.65	245.06
750.98	244.72
751.31	244.47
751.64	244.22
751.97	244.04
752.29	243.82
752.62	243.55
752.95	243.34
753.28	243.12
753.60	242.90
753.93	242.73
754.26	242.52
754.59	242.31
754.91	242.07
755.24	241.87
755.57	241.69
755.90	241.48
756.22	241.27
756.55	241.08
756.88	240.91
757.20	240.62
757.53	240.40
757.86	240.23
758.19	240.10
758.51	239.90
758.84	239.70
759.17	239.53
759.49	239.40
759.82	239.29
760.15	239.15
760.47	239.01
760.80	238.85
761.13	238.71
761.45	238.59
761.78	238.47
762.11	238.33
762.43	238.21
762.76	238.09
763.08	237.98
763.41	237.84
763.74	237.73
764.06	237.63
764.39	237.50
764.71	237.36
765.04	237.21
765.37	237.10
765.69	236.98
766.02	236.86
766.34	236.72
766.67	236.56
767.00	236.46
767.32	236.43
767.65	236.36
767.97	236.28
768.30	236.15
768.62	236.04
768.95	235.90
769.27	235.80
769.60	235.75
769.92	235.64
770.25	235.56
770.57	235.43
770.90	235.34
771.22	235.22
771.55	235.12
771.87	235.05
772.20	234.94
772.52	234.94
772.85	234.97
773.17	234.90
773.50	234.82
773.82	234.73
774.15	234.59
774.47	234.43
774.80	234.35
775.12	234.28
775.45	234.21
775.77	234.18
776.09	234.07
776.42	233.96
776.74	233.92
777.07	233.81
777.39	233.76
777.72	233.70
778.04	233.68
778.36	233.63
778.69	233.56
779.01	233.52
779.33	233.37
779.66	233.21
779.98	233.10
780.31	233.00
780.63	232.96
780.95	232.87
781.28	232.83
781.60	232.71
781.92	232.63
782.25	232.56
782.57	232.45
782.89	232.38
783.22	232.29
783.54	232.19
783.86	232.14
784.19	232.05
784.51	232.00
784.83	231.89
785.16	231.81
785.48	231.75
785.80	231.67
786.12	231.60
786.45	231.50
786.77	231.45
787.09	231.40
787.42	231.31
787.74	231.27
788.06	231.19
788.38	231.16
788.71	231.10
789.03	231.09
789.35	231.08
789.67	231.03
789.99	230.98
790.32	230.91
790.64	230.88
790.96	230.89
791.28	230.79
791.61	230.71
791.93	230.64
792.25	230.57
792.57	230.56
792.89	230.55
793.21	230.55
793.54	230.50
793.86	230.46
794.18	230.39
794.50	230.34
794.82	230.33
795.14	230.32
795.47	230.27
795.79	230.18
796.11	230.13
796.43	230.06
796.75	230.06
797.07	230.03
797.39	229.98
797.71	229.88
798.04	229.88
798.36	229.88
798.68	229.87
799.00	229.86
799.32	229.81
799.64	229.78
799.96	229.69
800.28	229.68
800.60	229.64
800.92	229.68
801.24	229.65
801.56	229.61
801.89	229.56
802.21	229.53
802.53	229.54
802.85	229.51
803.17	229.54
803.49	229.46
803.81	229.42
804.13	229.46
804.45	229.44
804.77	229.43
805.09	229.41
805.41	229.38
805.73	229.35
806.05	229.33
806.37	229.31
806.69	229.32
807.01	229.33
807.33	229.36
807.65	229.30
807.97	229.34
808.28	229.30
808.60	229.29
808.92	229.28
809.24	229.32
809.56	229.31
809.88	229.29
810.20	229.31
810.52	229.33
810.84	229.27
811.16	229.27
811.48	229.22
811.80	229.27
812.12	229.28
812.43	229.31
812.75	229.30
813.07	229.30
813.39	229.32
813.71	229.25
814.03	229.20
814.35	229.19
814.67	229.14
814.98	229.14
815.30	229.14
815.62	229.14
815.94	229.05
816.26	229.09
816.58	229.09
816.89	229.09
817.21	229.05
817.53	229.03
817.85	229.01
818.17	229.01
818.48	228.94
818.80	228.93
819.12	228.89
819.44	228.86
819.76	228.83
820.07	228.83
820.39	228.83
820.71	228.82
821.03	228.78
821.34	228.73
821.66	228.72
821.98	228.70
822.30	228.66
822.61	228.70
822.93	228.62
823.25	228.54
823.57	228.48
823.88	228.47
824.20	228.46
824.52	228.44
824.83	228.43
825.15	228.38
825.47	228.32
825.79	228.30
826.10	228.27
826.42	228.23
826.74	228.16
827.05	228.14
827.37	228.18
827.69	228.19
828.00	228.21
828.32	228.16
828.64	228.12
828.95	228.14
829.27	228.07
829.58	228.03
829.90	228.03
830.22	228.02
830.53	227.99
830.85	227.97
831.17	227.94
831.48	227.91
831.80	227.91
832.11	227.92
832.43	227.89
832.75	227.85
833.06	227.90
833.38	227.87
833.69	227.84
834.01	227.77
834.32	227.71
834.64	227.65
834.96	227.63
835.27	227.63
835.59	227.60
835.90	227.59
836.22	227.59
836.53	227.58
836.85	227.55
837.16	227.60
837.48	227.58
837.79	227.63
838.11	227.62
838.42	227.61
838.74	227.60
839.05	227.57
839.37	227.55
839.68	227.48
840.00	227.47
840.31	227.50
840.63	227.50
840.94	227.52
841.26	227.53
841.57	227.56
841.88	227.57
842.20	227.54
842.51	227.51
842.83	227.47
843.14	227.58
843.46	227.58
843.77	227.53
844.08	227.51
844.40	227.46
844.71	227.45
845.03	227.44
845.34	227.44
845.65	227.45
845.97	227.48
846.28	227.49
846.60	227.50
846.91	227.46
847.22	227.46
847.54	227.48
847.85	227.49
848.16	227.47
848.48	227.48
848.79	227.54
849.10	227.58
849.42	227.63
849.73	227.54
850.04	227.55
850.36	227.57
850.67	227.61
850.98	227.64
851.30	227.67
851.61	227.69
851.92	227.70
852.23	227.75
852.55	227.76
852.86	227.78
853.17	227.81
853.49	227.85
853.80	227.91
854.11	227.95
854.42	227.96
854.74	227.96
855.05	227.96
855.36	227.90
855.67	227.88
855.99	227.87
856.30	227.97
856.61	227.98
856.92	227.99
857.23	227.98
857.55	227.95
857.86	227.96
858.17	227.96
858.48	227.96
858.79	227.93
859.11	227.94
859.42	227.92
859.73	227.87
860.04	227.84
860.35	227.76
860.66	227.68
860.98	227.65
861.29	227.68
861.60	227.66
861.91	227.67
862.22	227.67
862.53	227.63
862.84	227.50
863.16	227.51
863.47	227.47
863.78	227.46
864.09	227.46
864.40	227.44
864.71	227.41
865.02	227.40
865.33	227.39
865.64	227.36
865.95	227.37
866.27	227.44
866.58	227.42
866.89	227.43
867.20	227.44
867.51	227.43
867.82	227.42
868.13	227.45
868.44	227.39
868.75	227.39
869.06	227.39
869.37	227.39
869.68	227.32
869.99	227.35
870.30	227.35
870.61	227.32
870.92	227.27
871.23	227.25
871.54	227.20
871.85	227.20
872.16	227.19
872.47	227.15
872.78	227.09
873.09	227.11
873.40	227.10
873.71	227.06
874.02	227.06
874.33	227.00
874.64	226.96
874.95	226.98
875.26	226.96
875.56	226.96
875.87	226.94
876.18	226.95
876.49	227.02
876.80	226.97
877.11	226.96
877.42	226.98
877.73	226.97
878.04	226.99
878.35	226.98
878.66	227.00
878.96	226.97
879.27	226.95
879.58	226.94
879.89	226.95
880.20	227.01
880.51	227.02
880.82	227.03
881.12	227.05
881.43	227.00
881.74	226.96
882.05	226.97
882.36	226.99
882.67	226.97
882.97	226.85
883.28	226.87
883.59	226.90
883.90	226.88
884.21	226.91
884.51	226.89
884.82	226.89
885.13	226.86
885.44	226.90
885.74	226.89
886.05	226.86
886.36	226.85
886.67	226.81
886.98	226.85
887.28	226.86
887.59	226.81
887.90	226.84
888.20	226.87
888.51	226.87
888.82	226.89
889.13	226.93
889.43	227.00
889.74	227.00
890.05	226.99
890.35	226.98
890.66	226.99
890.97	226.99
891.28	226.97
891.58	226.99
891.89	226.97
892.20	226.99
892.50	226.99
892.81	226.99
893.12	226.97
893.42	226.92
893.73	226.92
894.04	226.95
894.34	226.95
894.65	226.94
894.95	226.95
895.26	226.97
895.57	227.00
895.87	226.95
896.18	226.97
896.48	226.98
896.79	227.01
897.10	226.97
897.40	226.99
897.71	227.02
898.01	227.00
898.32	227.02
898.63	227.00
898.93	226.99
899.24	226.96
899.54	226.94
899.85	226.92
900.15	226.92
900.46	226.93
900.76	226.94
901.07	226.96
901.38	226.93
901.68	226.93
901.99	226.89
902.29	226.87
902.60	226.83
902.90	226.79
903.21	226.80
903.51	226.81
903.82	226.86
904.12	226.84
904.43	226.87
904.73	226.85
905.03	226.86
905.34	226.96
905.64	226.97
905.95	227.01
906.25	227.03
906.56	227.01
906.86	227.01
907.17	226.99
907.47	226.98
907.77	226.97
908.08	226.92
908.38	226.93
908.69	226.92
908.99	226.95
909.30	226.96
909.60	226.94
909.90	226.93
910.21	226.89
910.51	226.89
910.81	226.89
911.12	226.91
911.42	226.90
911.73	226.79
912.03	226.78
912.33	226.81
912.64	226.79
912.94	226.78
913.24	226.74
913.55	226.73
913.85	226.69
914.15	226.72
914.46	226.73
914.76	226.68
915.06	226.67
915.37	226.67
915.67	226.68
915.97	226.71
916.27	226.69
916.58	226.67
916.88	226.66
917.18	226.63
917.49	226.67
917.79	226.66
918.09	226.68
918.39	226.72
918.70	226.70
919.00	226.71
919.30	226.77
919.60	226.80
919.91	226.79
920.21	226.82
920.51	226.80
920.81	226.80
921.12	226.83
921.42	226.88
921.72	226.84
922.02	226.85
922.32	226.83
922.63	226.84
922.93	226.88
923.23	226.89
923.53	226.94
923.83	226.89
924.13	226.92
924.44	226.93
924.74	226.94
925.04	226.98
925.34	227.00
925.64	226.92
925.94	226.92
926.24	227.01
926.55	226.99
926.85	227.04
927.15	227.03
927.45	227.03
927.75	226.99
928.05	227.04
928.35	227.01
928.65	227.05
928.95	227.06
929.26	227.03
929.56	227.07
929.86	227.05
930.16	227.07
930.46	227.09
930.76	227.10
931.06	227.06
931.36	227.00
931.66	227.00
931.96	227.03
932.26	227.05
932.56	226.99
932.86	227.02
933.16	226.99
933.46	226.99
933.76	226.99
934.06	227.00
934.36	227.02
934.66	227.04
934.96	226.99
935.26	226.95
935.56	226.97
935.86	226.90
936.16	226.87
936.46	226.86
936.76	226.82
937.06	226.79
937.36	226.81
937.66	226.83
937.96	226.79
938.26	226.74
938.56	226.71
938.86	226.71
939.16	226.73
939.46	226.73
939.76	226.74
940.06	226.71
940.35	226.70
940.65	226.64
940.95	226.66
941.25	226.62
941.55	226.64
941.85	226.62
942.15	226.62
942.45	226.66
942.75	226.61
943.04	226.62
943.34	226.63
943.64	226.63
943.94	226.59
944.24	226.60
944.54	226.63
944.84	226.63
945.13	226.61
945.43	226.57
945.73	226.56
946.03	226.51
946.33	226.52
946.62	226.52
946.92	226.52
947.22	226.52
947.52	226.53
947.82	226.55
948.11	226.55
948.41	226.55
948.71	226.52
949.01	226.57
949.31	226.54
949.60	226.54
949.90	226.50
950.20	226.53
950.50	226.51
950.79	226.51
951.09	226.53
951.39	226.52
951.69	226.50
951.98	226.50
952.28	226.54
952.58	226.53
952.87	226.50
953.17	226.50
953.47	226.48
953.76	226.49
954.06	226.46
954.36	226.43
954.66	226.42
954.95	226.46
955.25	226.43
955.55	226.43
955.84	226.41
956.14	226.43
956.44	226.44
956.73	226.48
957.03	226.46
957.32	226.46
957.62	226.46
957.92	226.48
958.21	226.49
958.51	226.57
958.81	226.57
959.10	226.59
959.40	226.65
959.69	226.65
959.99	226.68
960.29	226.70
960.58	226.71
960.88	226.75
961.17	226.75
961.47	226.77
961.76	226.76
962.06	226.76
962.36	226.75
962.65	226.72
962.95	226.69
963.24	226.70
963.54	226.71
963.83	226.73
964.13	226.73
964.42	226.70
964.72	226.62
965.01	226.59
965.31	226.59
965.60	226.55
965.90	226.59
966.19	226.56
966.49	226.55
966.78	226.55
967.08	226.55
967.37	226.55
967.67	226.53
967.96	226.53
968.26	226.52
968.55	226.55
968.85	226.56
969.14	226.55
969.43	226.54
969.73	226.51
970.02	226.49
970.32	226.50
970.61	226.50
970.91	226.49
971.20	226.51
971.49	226.50
971.79	226.48
972.08	226.44
972.38	226.44
972.67	226.42
972.96	226.42
973.26	226.39
973.55	226.41
973.85	226.41
974.14	226.46
974.43	226.49
974.73	226.44
975.02	226.46
975.31	226.48
975.61	226.49
975.90	226.51
976.19	226.49
976.49	226.48
976.78	226.49
977.07	226.49
977.37	226.50
977.66	226.53
977.95	226.53
978.24	226.55
978.54	226.56
978.83	226.59
979.12	226.61
979.42	226.61
979.71	226.61
980.00	226.57
980.29	226.56
980.59	226.54
980.88	226.61
981.17	226.61
981.46	226.62
981.76	226.60
982.05	226.62
982.34	226.63
982.63	226.64
982.93	226.66
983.22	226.71
983.51	226.72
983.80	226.74
984.09	226.75
984.39	226.77
984.68	226.78
984.97	226.77
985.26	226.76
985.55	226.78
985.85	226.74
986.14	226.81
986.43	226.83
986.72	226.81
987.01	226.78
987.30	226.78
987.59	226.76
987.89	226.77
988.18	226.76
988.47	226.79
988.76	226.80
989.05	226.79
989.34	226.75
989.63	226.80
989.92	226.80
990.22	226.79
990.51	226.75
990.80	226.77
991.09	226.79
991.38	226.82
991.67	226.82
991.96	226.80
992.25	226.79
992.54	226.79
992.83	226.81
993.12	226.81
993.41	226.79
993.70	226.86
993.99	226.91
994.28	226.92
994.58	226.94
994.87	226.91
995.16	226.87
995.45	226.88
995.74	226.82
996.03	226.81
996.32	226.86
996.61	226.87
996.90	226.85
997.19	226.84
997.48	226.83
997.77	226.82
998.06	226.85
998.34	226.82
998.63	226.81
998.92	226.79
999.21	226.78
999.50	226.79
999.79	226.73
1000.08	226.68
1000.37	226.68
1000.66	226.65
1000.95	226.65
1001.24	226.68
1001.53	226.71
1001.82	226.68
1002.11	226.66
1002.40	226.63
1002.68	226.65
1002.97	226.71
1003.26	226.69
1003.55	226.65
1003.84	226.66
1004.13	226.69
1004.42	226.69
1004.71	226.67
1004.99	226.66
1005.28	226.69
1005.57	226.66
1005.86	226.61
1006.15	226.61
1006.44	226.55
1006.72	226.54
1007.01	226.55
1007.30	226.55
1007.59	226.54
1007.88	226.59
1008.17	226.61
1008.45	226.62
1008.74	226.57
1009.03	226.51
1009.32	226.48
1009.60	226.47
1009.89	226.44
1010.18	226.40
1010.47	226.39
1010.76	226.38
1011.04	226.38
1011.33	226.38
1011.62	226.39
1011.91	226.45
1012.19	226.44
1012.48	226.47
1012.77	226.47
1013.05	226.52
1013.34	226.49
1013.63	226.49
1013.92	226.49
1014.20	226.48
1014.49	226.46
1014.78	226.45
1015.06	226.43
1015.35	226.43
1015.64	226.47
1015.92	226.49
1016.21	226.52
1016.50	226.54
1016.78	226.54
1017.07	226.54
1017.36	226.54
1017.64	226.55
1017.93	226.54
1018.22	226.55
1018.50	226.53
1018.79	226.54
1019.08	226.47
1019.36	226.47
1019.65	226.43
1019.93	226.43
1020.22	226.46
1020.51	226.52
1020.79	226.53
1021.08	226.39
1021.36	225.95
1021.65	226.27
1021.94	226.22
1022.22	226.21
1022.51	226.01
1022.79	227.25
1023.08	227.24
1023.36	227.62
1023.65	226.19
>>>>>End Processed Spectral Data<<<<<
