SpectraSuite Data File
++++++++++++++++++++++++++++++++++++
Date: Fri Feb 01 14:58:58 EST 2013
User: group
Dark Spectrum Present: No
Reference Spectrum Present: No
Number of Sampled Component Spectra: 1
Spectrometers: USB2E7196
Integration Time (usec): 35000 (USB2E7196)
Spectra Averaged: 100 (USB2E7196)
Boxcar Smoothing: 10 (USB2E7196)
Correct for Electrical Dark: No (USB2E7196)
Strobe/Lamp Enabled: No (USB2E7196)
Correct for Detector Non-linearity: No (USB2E7196)
Correct for Stray Light: No (USB2E7196)
Number of Pixels in Processed Spectrum: 2048
>>>>>Begin Processed Spectral Data<<<<<
339.09	0.00
339.48	215.86
339.86	216.59
340.24	218.03
340.63	219.50
341.01	221.78
341.39	221.93
341.78	223.74
342.16	224.68
342.54	225.33
342.93	213.52
343.31	224.31
343.69	224.82
344.07	225.28
344.46	225.71
344.84	226.09
345.22	226.33
345.60	226.59
345.99	226.77
346.37	226.88
346.75	226.96
347.13	227.03
347.52	227.06
347.90	227.18
348.28	227.20
348.66	227.25
349.05	227.28
349.43	227.25
349.81	227.26
350.19	227.30
350.57	227.34
350.96	227.40
351.34	227.50
351.72	227.57
352.10	227.67
352.48	227.75
352.87	227.78
353.25	227.85
353.63	227.90
354.01	227.95
354.39	228.01
354.77	228.10
355.15	228.21
355.54	228.26
355.92	228.23
356.30	228.31
356.68	228.43
357.06	228.50
357.44	228.58
357.82	228.67
358.20	228.72
358.58	228.79
358.97	228.84
359.35	228.89
359.73	228.93
360.11	228.99
360.49	229.03
360.87	229.08
361.25	229.11
361.63	229.18
362.01	229.20
362.39	229.23
362.77	229.26
363.15	229.30
363.53	229.32
363.91	229.36
364.29	229.40
364.67	229.31
365.05	229.29
365.43	229.31
365.81	229.33
366.19	229.33
366.57	229.38
366.95	229.39
367.33	229.34
367.71	229.36
368.09	229.34
368.47	229.30
368.85	229.29
369.23	229.28
369.61	229.21
369.99	229.22
370.37	229.23
370.75	229.23
371.13	229.14
371.51	229.10
371.89	229.06
372.27	228.99
372.65	228.94
373.03	228.94
373.41	228.85
373.78	228.76
374.16	228.72
374.54	228.63
374.92	228.57
375.30	228.52
375.68	228.42
376.06	228.33
376.44	228.26
376.82	228.21
377.19	228.15
377.57	228.06
377.95	227.93
378.33	227.85
378.71	227.71
379.09	227.67
379.47	227.59
379.84	227.53
380.22	227.46
380.60	227.40
380.98	227.34
381.36	227.27
381.73	227.21
382.11	227.16
382.49	227.09
382.87	227.00
383.25	226.96
383.62	227.02
384.00	226.97
384.38	226.91
384.76	226.86
385.13	226.85
385.51	226.83
385.89	226.79
386.27	226.75
386.64	226.70
387.02	226.66
387.40	226.62
387.78	226.59
388.15	226.56
388.53	226.53
388.91	226.47
389.29	226.46
389.66	226.42
390.04	226.41
390.42	226.42
390.79	226.40
391.17	226.38
391.55	226.26
391.92	226.29
392.30	226.33
392.68	226.30
393.05	226.28
393.43	226.28
393.81	226.28
394.18	226.31
394.56	226.35
394.94	226.39
395.31	226.41
395.69	226.44
396.06	226.48
396.44	226.51
396.82	226.54
397.19	226.61
397.57	226.70
397.95	226.74
398.32	226.76
398.70	226.85
399.07	226.90
399.45	226.96
399.82	227.03
400.20	227.10
400.58	227.21
400.95	227.25
401.33	227.37
401.70	227.55
402.08	227.64
402.45	227.73
402.83	227.83
403.20	227.96
403.58	228.09
403.95	228.22
404.33	228.35
404.71	228.50
405.08	228.71
405.46	228.85
405.83	228.98
406.21	229.13
406.58	229.31
406.96	229.53
407.33	229.72
407.70	229.92
408.08	230.20
408.45	230.42
408.83	230.67
409.20	230.86
409.58	231.05
409.95	231.34
410.33	231.61
410.70	231.89
411.08	232.20
411.45	232.49
411.82	232.80
412.20	233.19
412.57	233.60
412.95	233.87
413.32	234.27
413.69	234.71
414.07	235.17
414.44	235.63
414.82	236.10
415.19	236.65
415.56	237.20
415.94	237.75
416.31	238.34
416.68	238.97
417.06	239.69
417.43	240.40
417.81	241.18
418.18	242.00
418.55	242.82
418.93	243.70
419.30	244.61
419.67	245.52
420.04	246.45
420.42	247.44
420.79	248.62
421.16	249.78
421.54	250.94
421.91	252.16
422.28	253.42
422.66	254.76
423.03	256.05
423.40	257.40
423.77	258.82
424.15	260.24
424.52	261.73
424.89	263.38
425.26	264.93
425.64	266.36
426.01	267.95
426.38	269.65
426.75	271.34
427.13	273.05
427.50	274.86
427.87	276.76
428.24	278.67
428.61	280.42
428.99	282.36
429.36	284.50
429.73	286.61
430.10	288.63
430.47	290.71
430.85	292.85
431.22	295.10
431.59	297.47
431.96	299.78
432.33	302.28
432.70	304.66
433.08	307.49
433.45	310.10
433.82	312.71
434.19	315.60
434.56	318.43
434.93	321.12
435.30	323.79
435.68	326.70
436.05	329.48
436.42	332.29
436.79	334.79
437.16	337.49
437.53	340.29
437.90	343.11
438.27	345.83
438.64	348.67
439.01	351.28
439.38	353.50
439.75	355.66
440.13	358.10
440.50	360.37
440.87	362.21
441.24	364.14
441.61	366.28
441.98	367.71
442.35	369.50
442.72	371.34
443.09	373.11
443.46	374.12
443.83	374.73
444.20	375.24
444.57	376.05
444.94	376.31
445.31	376.62
445.68	376.92
446.05	377.02
446.42	376.61
446.79	376.16
447.16	375.72
447.53	375.39
447.90	374.29
448.27	373.19
448.64	371.59
449.01	370.47
449.37	368.51
449.74	366.67
450.11	364.41
450.48	361.91
450.85	359.37
451.22	357.19
451.59	355.15
451.96	353.21
452.33	350.63
452.70	348.28
453.07	345.45
453.43	342.59
453.80	339.81
454.17	337.13
454.54	334.59
454.91	331.86
455.28	329.18
455.65	326.67
456.02	324.20
456.38	322.06
456.75	319.37
457.12	317.09
457.49	314.83
457.86	312.66
458.23	310.80
458.59	308.73
458.96	306.64
459.33	304.79
459.70	302.89
460.07	301.39
460.43	299.63
460.80	298.00
461.17	296.58
461.54	295.07
461.91	293.66
462.27	292.22
462.64	290.95
463.01	289.63
463.38	288.32
463.74	286.91
464.11	285.74
464.48	284.71
464.85	283.59
465.21	282.70
465.58	281.81
465.95	280.68
466.32	279.81
466.68	278.92
467.05	277.98
467.42	277.09
467.78	276.13
468.15	275.28
468.52	274.61
468.88	273.70
469.25	272.91
469.62	272.26
469.98	271.55
470.35	270.89
470.72	270.22
471.08	269.56
471.45	269.04
471.82	268.47
472.18	267.85
472.55	267.43
472.92	266.91
473.28	266.40
473.65	265.96
474.02	265.53
474.38	265.14
474.75	264.84
475.11	264.50
475.48	264.26
475.85	264.03
476.21	263.78
476.58	263.61
476.94	263.46
477.31	263.30
477.67	263.13
478.04	263.02
478.41	262.99
478.77	263.06
479.14	262.98
479.50	262.96
479.87	263.04
480.23	263.07
480.60	263.15
480.96	263.25
481.33	263.47
481.69	263.66
482.06	263.89
482.42	264.05
482.79	264.30
483.15	264.61
483.52	264.98
483.88	265.33
484.25	265.71
484.61	266.13
484.98	266.55
485.34	267.09
485.71	267.66
486.07	268.27
486.44	268.82
486.80	269.52
487.17	270.26
487.53	271.04
487.90	271.93
488.26	272.84
488.62	273.83
488.99	274.77
489.35	275.77
489.72	276.88
490.08	278.09
490.44	279.32
490.81	280.62
491.17	281.95
491.54	283.44
491.90	284.95
492.26	286.55
492.63	288.30
492.99	290.06
493.36	291.94
493.72	293.93
494.08	295.99
494.45	298.20
494.81	300.55
495.17	302.97
495.54	305.54
495.90	308.16
496.26	310.95
496.63	313.86
496.99	316.91
497.35	320.10
497.72	323.50
498.08	326.97
498.44	330.65
498.80	334.54
499.17	338.50
499.53	342.69
499.89	347.05
500.26	351.54
500.62	356.23
500.98	361.21
501.34	366.19
501.71	371.52
502.07	376.95
502.43	382.55
502.79	388.35
503.16	394.38
503.52	400.66
503.88	406.99
504.24	413.61
504.60	420.51
504.97	427.66
505.33	434.93
505.69	442.60
506.05	450.30
506.41	458.22
506.78	466.37
507.14	474.82
507.50	483.54
507.86	492.50
508.22	501.64
508.59	510.79
508.95	520.44
509.31	530.24
509.67	540.31
510.03	550.58
510.39	561.16
510.75	571.94
511.12	582.89
511.48	594.28
511.84	605.67
512.20	617.23
512.56	629.17
512.92	641.42
513.28	653.77
513.64	666.34
514.00	679.06
514.37	692.01
514.73	705.02
515.09	718.06
515.45	731.40
515.81	745.05
516.17	759.11
516.53	773.23
516.89	787.34
517.25	801.51
517.61	815.96
517.97	830.43
518.33	844.90
518.69	859.72
519.05	874.68
519.41	889.88
519.77	905.41
520.13	920.86
520.49	936.23
520.85	951.75
521.21	967.47
521.57	983.71
521.93	999.57
522.29	1016.05
522.65	1032.35
523.01	1048.68
523.37	1064.77
523.73	1080.96
524.09	1097.10
524.45	1113.55
524.81	1130.36
525.17	1147.32
525.53	1164.27
525.89	1181.16
526.25	1197.98
526.61	1214.45
526.97	1231.34
527.33	1247.78
527.68	1264.57
528.04	1281.12
528.40	1297.83
528.76	1314.93
529.12	1331.62
529.48	1348.47
529.84	1364.61
530.20	1381.33
530.56	1398.36
530.91	1415.78
531.27	1432.64
531.63	1449.26
531.99	1465.86
532.35	1481.84
532.71	1497.73
533.07	1514.03
533.42	1529.99
533.78	1546.09
534.14	1562.31
534.50	1577.71
534.86	1593.73
535.21	1608.78
535.57	1624.88
535.93	1640.50
536.29	1655.39
536.65	1670.54
537.00	1685.60
537.36	1701.02
537.72	1715.72
538.08	1730.13
538.44	1744.25
538.79	1758.26
539.15	1772.09
539.51	1786.07
539.87	1800.54
540.22	1814.29
540.58	1828.26
540.94	1841.79
541.29	1854.84
541.65	1867.94
542.01	1881.20
542.37	1893.59
542.72	1906.24
543.08	1918.13
543.44	1930.56
543.79	1941.84
544.15	1952.85
544.51	1964.32
544.87	1975.31
545.22	1986.21
545.58	1996.63
545.94	2006.29
546.29	2016.08
546.65	2025.82
547.01	2035.04
547.36	2043.78
547.72	2052.36
548.07	2060.12
548.43	2068.34
548.79	2076.47
549.14	2083.75
549.50	2091.22
549.86	2099.03
550.21	2106.27
550.57	2113.39
550.92	2119.98
551.28	2127.09
551.64	2134.11
551.99	2140.78
552.35	2147.00
552.70	2153.01
553.06	2158.85
553.41	2165.15
553.77	2171.22
554.13	2177.27
554.48	2183.41
554.84	2188.73
555.19	2193.99
555.55	2199.10
555.90	2203.51
556.26	2208.35
556.61	2213.11
556.97	2217.11
557.32	2221.15
557.68	2225.29
558.03	2229.48
558.39	2233.13
558.74	2237.65
559.10	2241.54
559.45	2245.03
559.81	2249.15
560.16	2252.80
560.52	2255.83
560.87	2259.31
561.23	2261.82
561.58	2264.77
561.94	2267.25
562.29	2269.71
562.64	2272.38
563.00	2274.96
563.35	2278.42
563.71	2281.38
564.06	2284.45
564.42	2287.28
564.77	2289.56
565.12	2291.79
565.48	2293.46
565.83	2295.01
566.19	2296.22
566.54	2297.12
566.89	2298.07
567.25	2298.53
567.60	2299.93
567.96	2301.69
568.31	2302.30
568.66	2303.31
569.02	2303.73
569.37	2303.82
569.72	2304.40
570.08	2304.26
570.43	2304.05
570.78	2303.09
571.14	2301.35
571.49	2299.96
571.84	2299.58
572.20	2298.25
572.55	2296.98
572.90	2295.50
573.26	2293.97
573.61	2292.08
573.96	2290.02
574.31	2287.09
574.67	2283.98
575.02	2280.10
575.37	2276.45
575.72	2272.46
576.08	2269.00
576.43	2265.65
576.78	2261.87
577.13	2258.59
577.49	2255.50
577.84	2251.87
578.19	2248.21
578.54	2244.37
578.90	2239.92
579.25	2234.25
579.60	2229.13
579.95	2224.01
580.30	2218.77
580.66	2213.58
581.01	2208.61
581.36	2203.62
581.71	2199.18
582.06	2194.55
582.42	2190.04
582.77	2184.83
583.12	2180.11
583.47	2175.15
583.82	2169.82
584.17	2164.45
584.53	2158.93
584.88	2152.99
585.23	2147.16
585.58	2141.61
585.93	2136.09
586.28	2131.24
586.63	2125.90
586.98	2120.79
587.34	2116.03
587.69	2111.01
588.04	2105.44
588.39	2099.48
588.74	2092.97
589.09	2086.62
589.44	2079.63
589.79	2073.40
590.14	2067.60
590.49	2060.95
590.84	2054.59
591.19	2048.42
591.54	2041.82
591.89	2034.09
592.25	2027.19
592.60	2019.78
592.95	2011.97
593.30	2004.60
593.65	1996.89
594.00	1989.91
594.35	1982.58
594.70	1974.38
595.05	1966.95
595.40	1959.73
595.75	1952.30
596.10	1945.78
596.45	1938.91
596.80	1932.68
597.15	1925.90
597.50	1918.65
597.85	1912.19
598.19	1905.38
598.54	1898.32
598.89	1891.56
599.24	1885.58
599.59	1878.90
599.94	1872.62
600.29	1866.19
600.64	1859.59
600.99	1852.03
601.34	1845.18
601.69	1838.32
602.04	1831.40
602.39	1824.06
602.74	1817.23
603.08	1810.53
603.43	1803.92
603.78	1796.61
604.13	1789.38
604.48	1782.01
604.83	1775.35
605.18	1768.20
605.53	1760.24
605.87	1752.16
606.22	1744.96
606.57	1737.14
606.92	1729.82
607.27	1722.72
607.62	1715.82
607.96	1708.40
608.31	1701.90
608.66	1694.14
609.01	1686.57
609.36	1678.97
609.70	1671.04
610.05	1662.94
610.40	1655.15
610.75	1646.71
611.10	1639.16
611.44	1630.75
611.79	1622.98
612.14	1614.16
612.49	1605.24
612.83	1596.98
613.18	1589.08
613.53	1580.98
613.88	1572.57
614.22	1564.28
614.57	1555.83
614.92	1547.82
615.27	1540.39
615.61	1532.14
615.96	1524.19
616.31	1516.55
616.65	1509.29
617.00	1501.73
617.35	1494.15
617.70	1485.87
618.04	1477.45
618.39	1469.17
618.74	1461.75
619.08	1453.44
619.43	1445.90
619.78	1439.05
620.12	1431.76
620.47	1424.13
620.82	1416.10
621.16	1408.70
621.51	1401.18
621.85	1393.50
622.20	1384.94
622.55	1376.58
622.89	1368.63
623.24	1361.15
623.59	1353.83
623.93	1346.25
624.28	1339.08
624.62	1331.59
624.97	1324.49
625.32	1317.84
625.66	1310.91
626.01	1303.66
626.35	1296.22
626.70	1288.55
627.04	1280.74
627.39	1273.13
627.73	1265.81
628.08	1258.85
628.43	1251.44
628.77	1244.06
629.12	1236.57
629.46	1229.50
629.81	1222.18
630.15	1215.06
630.50	1207.60
630.84	1199.36
631.19	1191.64
631.53	1184.12
631.88	1176.62
632.22	1169.02
632.57	1161.65
632.91	1154.21
633.26	1146.83
633.60	1139.53
633.95	1132.52
634.29	1125.52
634.64	1118.78
634.98	1111.38
635.32	1104.36
635.67	1097.88
636.01	1091.25
636.36	1084.57
636.70	1078.15
637.05	1071.55
637.39	1065.07
637.73	1058.69
638.08	1052.97
638.42	1046.91
638.77	1040.62
639.11	1034.06
639.45	1027.77
639.80	1021.22
640.14	1014.69
640.49	1008.17
640.83	1001.99
641.17	995.68
641.52	989.38
641.86	983.10
642.20	977.35
642.55	971.07
642.89	964.62
643.23	958.28
643.58	952.39
643.92	946.14
644.26	940.15
644.61	934.22
644.95	928.23
645.29	921.54
645.64	914.83
645.98	908.47
646.32	902.73
646.66	896.66
647.01	890.83
647.35	885.23
647.69	879.46
648.04	873.88
648.38	868.10
648.72	862.11
649.06	856.00
649.41	850.06
649.75	844.04
650.09	838.09
650.43	832.24
650.78	826.15
651.12	820.26
651.46	814.54
651.80	808.74
652.14	803.29
652.49	798.06
652.83	792.93
653.17	787.24
653.51	781.49
653.85	776.11
654.20	770.52
654.54	764.51
654.88	758.93
655.22	753.05
655.56	747.42
655.90	742.00
656.25	736.79
656.59	731.60
656.93	726.62
657.27	721.51
657.61	716.04
657.95	711.00
658.29	705.99
658.64	700.80
658.98	695.63
659.32	690.24
659.66	684.93
660.00	679.58
660.34	674.66
660.68	669.81
661.02	664.78
661.36	660.06
661.70	655.68
662.05	651.28
662.39	647.03
662.73	642.67
663.07	638.32
663.41	633.92
663.75	629.36
664.09	624.85
664.43	620.58
664.77	616.59
665.11	612.37
665.45	608.27
665.79	604.21
666.13	600.04
666.47	595.99
666.81	591.88
667.15	587.90
667.49	584.09
667.83	580.30
668.17	576.44
668.51	572.44
668.85	568.39
669.19	564.59
669.53	560.77
669.87	556.86
670.21	553.19
670.55	549.58
670.89	546.20
671.23	542.75
671.57	539.21
671.91	535.68
672.25	532.24
672.58	528.70
672.92	525.33
673.26	522.22
673.60	519.09
673.94	516.05
674.28	513.14
674.62	510.16
674.96	507.06
675.30	504.16
675.64	501.23
675.97	498.54
676.31	495.67
676.65	492.71
676.99	489.98
677.33	487.13
677.67	484.32
678.01	481.30
678.34	478.33
678.68	475.52
679.02	472.72
679.36	469.91
679.70	467.31
680.04	464.55
680.37	461.67
680.71	458.96
681.05	456.34
681.39	453.68
681.73	451.07
682.06	448.54
682.40	445.99
682.74	443.47
683.08	440.97
683.42	438.37
683.75	435.94
684.09	433.49
684.43	431.07
684.77	428.64
685.10	426.32
685.44	424.01
685.78	421.77
686.12	419.62
686.45	417.43
686.79	415.14
687.13	412.97
687.46	410.85
687.80	408.67
688.14	406.49
688.48	404.40
688.81	402.21
689.15	400.13
689.49	398.00
689.82	395.96
690.16	393.83
690.50	391.95
690.83	390.02
691.17	388.03
691.51	386.13
691.84	384.29
692.18	382.40
692.52	380.48
692.85	378.54
693.19	376.57
693.52	374.74
693.86	372.95
694.20	371.19
694.53	369.43
694.87	367.56
695.21	365.82
695.54	364.01
695.88	362.27
696.21	360.52
696.55	358.87
696.88	357.22
697.22	355.58
697.56	353.93
697.89	352.29
698.23	350.69
698.56	349.08
698.90	347.49
699.23	345.82
699.57	344.27
699.90	342.80
700.24	341.30
700.58	339.75
700.91	338.24
701.25	336.81
701.58	335.42
701.92	334.11
702.25	332.75
702.59	331.40
702.92	330.09
703.26	328.78
703.59	327.52
703.93	326.34
704.26	325.16
704.60	323.85
704.93	322.56
705.26	321.34
705.60	320.22
705.93	319.06
706.27	318.04
706.60	316.97
706.94	315.86
707.27	314.75
707.61	313.70
707.94	312.68
708.27	311.57
708.61	310.51
708.94	309.52
709.28	308.52
709.61	307.57
709.94	306.64
710.28	305.66
710.61	304.68
710.95	303.57
711.28	302.65
711.61	301.78
711.95	300.89
712.28	299.93
712.61	298.93
712.95	297.99
713.28	297.09
713.61	296.23
713.95	295.35
714.28	294.52
714.61	293.64
714.95	292.80
715.28	291.93
715.61	291.08
715.95	290.20
716.28	289.36
716.61	288.52
716.95	287.71
717.28	286.97
717.61	286.25
717.94	285.52
718.28	284.71
718.61	283.94
718.94	283.26
719.27	282.58
719.61	281.95
719.94	281.33
720.27	280.66
720.60	279.96
720.94	279.32
721.27	278.68
721.60	278.11
721.93	277.53
722.27	277.01
722.60	276.44
722.93	275.85
723.26	275.31
723.59	274.77
723.93	274.23
724.26	273.70
724.59	273.13
724.92	272.65
725.25	272.14
725.59	271.62
725.92	271.13
726.25	270.64
726.58	270.15
726.91	269.64
727.24	269.17
727.57	268.73
727.91	268.24
728.24	267.81
728.57	267.35
728.90	266.88
729.23	266.40
729.56	266.02
729.89	265.57
730.22	265.12
730.55	264.66
730.89	264.23
731.22	263.75
731.55	263.33
731.88	262.87
732.21	262.47
732.54	262.05
732.87	261.60
733.20	261.22
733.53	260.82
733.86	260.47
734.19	260.04
734.52	259.65
734.85	259.29
735.18	258.84
735.51	258.47
735.84	258.11
736.17	257.76
736.50	257.37
736.83	257.15
737.16	256.83
737.49	256.50
737.82	256.16
738.15	255.84
738.48	255.48
738.81	255.18
739.14	254.85
739.47	254.52
739.80	254.25
740.13	253.95
740.46	253.64
740.79	253.29
741.12	253.00
741.45	252.70
741.78	252.36
742.11	252.10
742.44	251.74
742.77	251.45
743.10	251.12
743.43	250.79
743.75	250.39
744.08	250.24
744.41	249.95
744.74	249.61
745.07	249.35
745.40	249.10
745.73	248.86
746.06	248.58
746.39	248.34
746.71	248.05
747.04	247.78
747.37	247.50
747.70	247.26
748.03	246.97
748.36	246.74
748.68	246.53
749.01	246.30
749.34	246.12
749.67	245.89
750.00	245.70
750.33	245.53
750.65	245.30
750.98	244.94
751.31	244.73
751.64	244.55
751.97	244.35
752.29	244.15
752.62	243.92
752.95	243.72
753.28	243.49
753.60	243.28
753.93	243.10
754.26	242.92
754.59	242.72
754.91	242.55
755.24	242.35
755.57	242.16
755.90	241.96
756.22	241.77
756.55	241.58
756.88	241.40
757.20	241.20
757.53	241.02
757.86	240.89
758.19	240.77
758.51	240.61
758.84	240.44
759.17	240.27
759.49	240.11
759.82	240.00
760.15	239.85
760.47	239.71
760.80	239.56
761.13	239.44
761.45	239.29
761.78	239.13
762.11	238.97
762.43	238.81
762.76	238.67
763.08	238.54
763.41	238.42
763.74	238.29
764.06	238.17
764.39	238.04
764.71	237.87
765.04	237.70
765.37	237.55
765.69	237.42
766.02	237.29
766.34	237.15
766.67	236.99
767.00	236.87
767.32	236.82
767.65	236.73
767.97	236.59
768.30	236.46
768.62	236.35
768.95	236.24
769.27	236.12
769.60	236.04
769.92	235.92
770.25	235.78
770.57	235.67
770.90	235.53
771.22	235.42
771.55	235.31
771.87	235.22
772.20	235.14
772.52	235.11
772.85	235.12
773.17	235.02
773.50	234.93
773.82	234.85
774.15	234.67
774.47	234.53
774.80	234.47
775.12	234.38
775.45	234.30
775.77	234.23
776.09	234.17
776.42	234.08
776.74	234.01
777.07	233.91
777.39	233.80
777.72	233.75
778.04	233.70
778.36	233.64
778.69	233.56
779.01	233.48
779.33	233.36
779.66	233.19
779.98	233.14
780.31	233.11
780.63	233.08
780.95	233.02
781.28	232.95
781.60	232.82
781.92	232.78
782.25	232.73
782.57	232.67
782.89	232.60
783.22	232.52
783.54	232.47
783.86	232.43
784.19	232.38
784.51	232.34
784.83	232.27
785.16	232.20
785.48	232.13
785.80	232.09
786.12	232.02
786.45	231.94
786.77	231.90
787.09	231.78
787.42	231.72
787.74	231.73
788.06	231.70
788.38	231.69
788.71	231.64
789.03	231.59
789.35	231.56
789.67	231.55
789.99	231.52
790.32	231.49
790.64	231.47
790.96	231.50
791.28	231.44
791.61	231.41
791.93	231.35
792.25	231.32
792.57	231.35
792.89	231.29
793.21	231.30
793.54	231.27
793.86	231.27
794.18	231.22
794.50	231.12
794.82	231.08
795.14	231.06
795.47	231.03
795.79	231.00
796.11	230.97
796.43	230.91
796.75	230.87
797.07	230.83
797.39	230.76
797.71	230.69
798.04	230.67
798.36	230.63
798.68	230.63
799.00	230.61
799.32	230.51
799.64	230.51
799.96	230.45
800.28	230.42
800.60	230.37
800.92	230.37
801.24	230.33
801.56	230.30
801.89	230.25
802.21	230.24
802.53	230.21
802.85	230.19
803.17	230.22
803.49	230.18
803.81	230.14
804.13	230.12
804.45	230.06
804.77	230.08
805.09	230.04
805.41	229.99
805.73	229.98
806.05	229.96
806.37	229.95
806.69	229.95
807.01	229.92
807.33	229.92
807.65	229.87
807.97	229.89
808.28	229.84
808.60	229.83
808.92	229.78
809.24	229.82
809.56	229.79
809.88	229.71
810.20	229.69
810.52	229.69
810.84	229.68
811.16	229.64
811.48	229.57
811.80	229.59
812.12	229.58
812.43	229.56
812.75	229.51
813.07	229.43
813.39	229.39
813.71	229.35
814.03	229.28
814.35	229.24
814.67	229.21
814.98	229.20
815.30	229.14
815.62	229.11
815.94	229.01
816.26	229.03
816.58	228.97
816.89	228.95
817.21	228.91
817.53	228.88
817.85	228.88
818.17	228.84
818.48	228.77
818.80	228.74
819.12	228.70
819.44	228.65
819.76	228.67
820.07	228.65
820.39	228.63
820.71	228.63
821.03	228.60
821.34	228.54
821.66	228.55
821.98	228.58
822.30	228.58
822.61	228.57
822.93	228.50
823.25	228.48
823.57	228.47
823.88	228.47
824.20	228.43
824.52	228.42
824.83	228.41
825.15	228.38
825.47	228.40
825.79	228.39
826.10	228.44
826.42	228.37
826.74	228.38
827.05	228.37
827.37	228.38
827.69	228.37
828.00	228.39
828.32	228.34
828.64	228.30
828.95	228.32
829.27	228.31
829.58	228.32
829.90	228.35
830.22	228.34
830.53	228.30
830.85	228.35
831.17	228.33
831.48	228.35
831.80	228.35
832.11	228.32
832.43	228.34
832.75	228.32
833.06	228.42
833.38	228.40
833.69	228.42
834.01	228.43
834.32	228.44
834.64	228.45
834.96	228.46
835.27	228.48
835.59	228.48
835.90	228.47
836.22	228.48
836.53	228.46
836.85	228.46
837.16	228.54
837.48	228.49
837.79	228.54
838.11	228.52
838.42	228.50
838.74	228.51
839.05	228.47
839.37	228.41
839.68	228.35
840.00	228.31
840.31	228.31
840.63	228.28
840.94	228.25
841.26	228.22
841.57	228.22
841.88	228.23
842.20	228.20
842.51	228.16
842.83	228.15
843.14	228.22
843.46	228.22
843.77	228.18
844.08	228.15
844.40	228.09
844.71	228.06
845.03	228.04
845.34	228.04
845.65	228.02
845.97	228.04
846.28	228.04
846.60	228.09
846.91	228.06
847.22	228.05
847.54	228.09
847.85	228.05
848.16	228.04
848.48	228.00
848.79	228.02
849.10	227.99
849.42	227.96
849.73	227.86
850.04	227.82
850.36	227.76
850.67	227.79
850.98	227.79
851.30	227.78
851.61	227.77
851.92	227.73
852.23	227.74
852.55	227.73
852.86	227.69
853.17	227.64
853.49	227.63
853.80	227.61
854.11	227.54
854.42	227.55
854.74	227.54
855.05	227.51
855.36	227.44
855.67	227.48
855.99	227.50
856.30	227.58
856.61	227.58
856.92	227.60
857.23	227.59
857.55	227.58
857.86	227.60
858.17	227.62
858.48	227.59
858.79	227.55
859.11	227.54
859.42	227.54
859.73	227.51
860.04	227.52
860.35	227.51
860.66	227.53
860.98	227.51
861.29	227.50
861.60	227.50
861.91	227.54
862.22	227.51
862.53	227.49
862.84	227.39
863.16	227.43
863.47	227.39
863.78	227.39
864.09	227.36
864.40	227.35
864.71	227.34
865.02	227.36
865.33	227.38
865.64	227.37
865.95	227.39
866.27	227.48
866.58	227.46
866.89	227.49
867.20	227.46
867.51	227.51
867.82	227.53
868.13	227.56
868.44	227.52
868.75	227.55
869.06	227.54
869.37	227.55
869.68	227.55
869.99	227.58
870.30	227.59
870.61	227.63
870.92	227.67
871.23	227.66
871.54	227.73
871.85	227.76
872.16	227.76
872.47	227.77
872.78	227.73
873.09	227.75
873.40	227.73
873.71	227.76
874.02	227.73
874.33	227.69
874.64	227.69
874.95	227.73
875.26	227.72
875.56	227.75
875.87	227.77
876.18	227.75
876.49	227.85
876.80	227.85
877.11	227.84
877.42	227.84
877.73	227.82
878.04	227.79
878.35	227.78
878.66	227.81
878.96	227.80
879.27	227.80
879.58	227.76
879.89	227.77
880.20	227.82
880.51	227.80
880.82	227.85
881.12	227.84
881.43	227.79
881.74	227.80
882.05	227.79
882.36	227.79
882.67	227.78
882.97	227.65
883.28	227.62
883.59	227.62
883.90	227.59
884.21	227.63
884.51	227.64
884.82	227.60
885.13	227.60
885.44	227.57
885.74	227.53
886.05	227.55
886.36	227.54
886.67	227.48
886.98	227.52
887.28	227.52
887.59	227.53
887.90	227.54
888.20	227.50
888.51	227.49
888.82	227.46
889.13	227.48
889.43	227.54
889.74	227.55
890.05	227.53
890.35	227.53
890.66	227.47
890.97	227.41
891.28	227.39
891.58	227.37
891.89	227.38
892.20	227.39
892.50	227.35
892.81	227.36
893.12	227.33
893.42	227.29
893.73	227.28
894.04	227.24
894.34	227.24
894.65	227.22
894.95	227.22
895.26	227.23
895.57	227.27
895.87	227.18
896.18	227.20
896.48	227.23
896.79	227.20
897.10	227.22
897.40	227.24
897.71	227.24
898.01	227.25
898.32	227.24
898.63	227.24
898.93	227.25
899.24	227.22
899.54	227.25
899.85	227.25
900.15	227.24
900.46	227.26
900.76	227.26
901.07	227.30
901.38	227.28
901.68	227.28
901.99	227.25
902.29	227.27
902.60	227.21
902.90	227.20
903.21	227.18
903.51	227.15
903.82	227.18
904.12	227.21
904.43	227.19
904.73	227.17
905.03	227.17
905.34	227.25
905.64	227.25
905.95	227.23
906.25	227.25
906.56	227.25
906.86	227.24
907.17	227.24
907.47	227.19
907.77	227.22
908.08	227.20
908.38	227.22
908.69	227.21
908.99	227.27
909.30	227.27
909.60	227.30
909.90	227.40
910.21	227.37
910.51	227.34
910.81	227.36
911.12	227.41
911.42	227.43
911.73	227.33
912.03	227.37
912.33	227.40
912.64	227.38
912.94	227.37
913.24	227.37
913.55	227.36
913.85	227.40
914.15	227.39
914.46	227.41
914.76	227.37
915.06	227.36
915.37	227.33
915.67	227.31
915.97	227.34
916.27	227.33
916.58	227.35
916.88	227.39
917.18	227.37
917.49	227.39
917.79	227.37
918.09	227.45
918.39	227.46
918.70	227.45
919.00	227.43
919.30	227.47
919.60	227.49
919.91	227.49
920.21	227.47
920.51	227.49
920.81	227.50
921.12	227.53
921.42	227.57
921.72	227.62
922.02	227.64
922.32	227.62
922.63	227.58
922.93	227.64
923.23	227.63
923.53	227.62
923.83	227.57
924.13	227.59
924.44	227.52
924.74	227.50
925.04	227.49
925.34	227.53
925.64	227.50
925.94	227.47
926.24	227.52
926.55	227.53
926.85	227.50
927.15	227.50
927.45	227.49
927.75	227.46
928.05	227.42
928.35	227.42
928.65	227.45
928.95	227.43
929.26	227.34
929.56	227.37
929.86	227.39
930.16	227.37
930.46	227.39
930.76	227.41
931.06	227.38
931.36	227.37
931.66	227.35
931.96	227.35
932.26	227.36
932.56	227.31
932.86	227.29
933.16	227.30
933.46	227.28
933.76	227.28
934.06	227.29
934.36	227.32
934.66	227.29
934.96	227.26
935.26	227.29
935.56	227.30
935.86	227.24
936.16	227.23
936.46	227.22
936.76	227.16
937.06	227.17
937.36	227.17
937.66	227.20
937.96	227.21
938.26	227.18
938.56	227.18
938.86	227.18
939.16	227.23
939.46	227.24
939.76	227.23
940.06	227.23
940.35	227.21
940.65	227.14
940.95	227.16
941.25	227.10
941.55	227.06
941.85	227.06
942.15	227.11
942.45	227.12
942.75	227.14
943.04	227.17
943.34	227.19
943.64	227.15
943.94	227.12
944.24	227.09
944.54	227.09
944.84	227.11
945.13	227.06
945.43	227.00
945.73	227.01
946.03	227.01
946.33	227.00
946.62	227.03
946.92	227.05
947.22	227.03
947.52	227.10
947.82	227.13
948.11	227.15
948.41	227.10
948.71	227.07
949.01	227.08
949.31	227.07
949.60	227.03
949.90	227.07
950.20	227.10
950.50	227.09
950.79	227.07
951.09	227.05
951.39	227.07
951.69	227.09
951.98	227.06
952.28	227.06
952.58	227.07
952.87	227.07
953.17	227.10
953.47	227.11
953.76	227.09
954.06	227.07
954.36	227.07
954.66	227.09
954.95	227.11
955.25	227.11
955.55	227.10
955.84	227.11
956.14	227.14
956.44	227.15
956.73	227.12
957.03	227.14
957.32	227.18
957.62	227.16
957.92	227.19
958.21	227.21
958.51	227.31
958.81	227.32
959.10	227.27
959.40	227.27
959.69	227.30
959.99	227.29
960.29	227.29
960.58	227.29
960.88	227.33
961.17	227.33
961.47	227.34
961.76	227.37
962.06	227.40
962.36	227.36
962.65	227.35
962.95	227.39
963.24	227.39
963.54	227.38
963.83	227.40
964.13	227.38
964.42	227.34
964.72	227.27
965.01	227.28
965.31	227.29
965.60	227.25
965.90	227.28
966.19	227.29
966.49	227.29
966.78	227.30
967.08	227.28
967.37	227.28
967.67	227.27
967.96	227.27
968.26	227.24
968.55	227.27
968.85	227.26
969.14	227.23
969.43	227.24
969.73	227.21
970.02	227.22
970.32	227.20
970.61	227.20
970.91	227.17
971.20	227.15
971.49	227.14
971.79	227.19
972.08	227.15
972.38	227.15
972.67	227.17
972.96	227.14
973.26	227.12
973.55	227.13
973.85	227.12
974.14	227.08
974.43	227.09
974.73	227.06
975.02	227.07
975.31	227.11
975.61	227.08
975.90	227.05
976.19	227.01
976.49	227.03
976.78	227.05
977.07	227.04
977.37	227.03
977.66	227.03
977.95	226.96
978.24	226.93
978.54	226.94
978.83	226.89
979.12	226.85
979.42	226.85
979.71	226.81
980.00	226.82
980.29	226.84
980.59	226.79
980.88	226.82
981.17	226.79
981.46	226.75
981.76	226.74
982.05	226.78
982.34	226.76
982.63	226.75
982.93	226.74
983.22	226.75
983.51	226.76
983.80	226.76
984.09	226.79
984.39	226.84
984.68	226.82
984.97	226.82
985.26	226.83
985.55	226.80
985.85	226.82
986.14	226.81
986.43	226.82
986.72	226.85
987.01	226.82
987.30	226.83
987.59	226.86
987.89	226.86
988.18	226.85
988.47	226.90
988.76	226.89
989.05	226.90
989.34	226.90
989.63	226.94
989.92	226.94
990.22	226.96
990.51	226.89
990.80	226.88
991.09	226.93
991.38	226.97
991.67	227.01
991.96	226.97
992.25	226.99
992.54	226.98
992.83	226.98
993.12	226.98
993.41	226.99
993.70	227.03
993.99	227.10
994.28	227.13
994.58	227.15
994.87	227.14
995.16	227.12
995.45	227.14
995.74	227.10
996.03	227.12
996.32	227.09
996.61	227.15
996.90	227.19
997.19	227.19
997.48	227.19
997.77	227.17
998.06	227.19
998.34	227.21
998.63	227.21
998.92	227.24
999.21	227.26
999.50	227.29
999.79	227.25
1000.08	227.23
1000.37	227.25
1000.66	227.23
1000.95	227.24
1001.24	227.26
1001.53	227.26
1001.82	227.25
1002.11	227.25
1002.40	227.28
1002.68	227.32
1002.97	227.37
1003.26	227.37
1003.55	227.35
1003.84	227.36
1004.13	227.36
1004.42	227.38
1004.71	227.38
1004.99	227.33
1005.28	227.36
1005.57	227.33
1005.86	227.30
1006.15	227.29
1006.44	227.23
1006.72	227.28
1007.01	227.26
1007.30	227.26
1007.59	227.22
1007.88	227.26
1008.17	227.25
1008.45	227.22
1008.74	227.18
1009.03	227.11
1009.32	227.09
1009.60	227.10
1009.89	227.10
1010.18	227.08
1010.47	227.01
1010.76	226.99
1011.04	226.98
1011.33	226.93
1011.62	226.94
1011.91	226.94
1012.19	226.93
1012.48	226.95
1012.77	226.90
1013.05	226.98
1013.34	227.00
1013.63	226.99
1013.92	226.94
1014.20	226.92
1014.49	226.94
1014.78	226.93
1015.06	226.90
1015.35	226.86
1015.64	226.84
1015.92	226.83
1016.21	226.84
1016.50	226.85
1016.78	226.86
1017.07	226.86
1017.36	226.88
1017.64	226.88
1017.93	226.88
1018.22	226.87
1018.50	226.86
1018.79	226.85
1019.08	226.76
1019.36	226.74
1019.65	226.74
1019.93	226.79
1020.22	226.80
1020.51	226.81
1020.79	226.78
1021.08	226.81
1021.36	226.59
1021.65	226.63
1021.94	226.50
1022.22	226.62
1022.51	226.72
1022.79	227.49
1023.08	227.03
1023.36	227.65
1023.65	226.53
>>>>>End Processed Spectral Data<<<<<
