SpectraSuite Data File
++++++++++++++++++++++++++++++++++++
Date: Fri Feb 01 15:49:47 EST 2013
User: group
Dark Spectrum Present: No
Reference Spectrum Present: No
Number of Sampled Component Spectra: 1
Spectrometers: USB2E7196
Integration Time (usec): 35000 (USB2E7196)
Spectra Averaged: 100 (USB2E7196)
Boxcar Smoothing: 10 (USB2E7196)
Correct for Electrical Dark: No (USB2E7196)
Strobe/Lamp Enabled: No (USB2E7196)
Correct for Detector Non-linearity: No (USB2E7196)
Correct for Stray Light: No (USB2E7196)
Number of Pixels in Processed Spectrum: 2048
>>>>>Begin Processed Spectral Data<<<<<
339.09	0.00
339.48	215.08
339.86	216.51
340.24	218.16
340.63	218.79
341.01	222.04
341.39	221.06
341.78	223.11
342.16	224.38
342.54	224.83
342.93	213.25
343.31	224.03
343.69	224.59
344.07	225.04
344.46	225.41
344.84	225.80
345.22	226.04
345.60	226.32
345.99	226.49
346.37	226.64
346.75	226.76
347.13	226.84
347.52	226.90
347.90	227.00
348.28	227.04
348.66	227.08
349.05	227.09
349.43	227.12
349.81	227.16
350.19	227.26
350.57	227.29
350.96	227.33
351.34	227.44
351.72	227.50
352.10	227.63
352.48	227.72
352.87	227.78
353.25	227.84
353.63	227.90
354.01	228.00
354.39	228.06
354.77	228.11
355.15	228.21
355.54	228.27
355.92	228.29
356.30	228.35
356.68	228.50
357.06	228.55
357.44	228.59
357.82	228.60
358.20	228.64
358.58	228.72
358.97	228.78
359.35	228.83
359.73	228.89
360.11	228.92
360.49	228.99
360.87	229.05
361.25	229.13
361.63	229.20
362.01	229.21
362.39	229.24
362.77	229.29
363.15	229.30
363.53	229.31
363.91	229.34
364.29	229.38
364.67	229.29
365.05	229.31
365.43	229.35
365.81	229.39
366.19	229.44
366.57	229.46
366.95	229.44
367.33	229.39
367.71	229.39
368.09	229.37
368.47	229.32
368.85	229.29
369.23	229.27
369.61	229.21
369.99	229.20
370.37	229.19
370.75	229.16
371.13	229.08
371.51	229.05
371.89	228.99
372.27	228.91
372.65	228.86
373.03	228.80
373.41	228.72
373.78	228.67
374.16	228.53
374.54	228.45
374.92	228.38
375.30	228.35
375.68	228.28
376.06	228.21
376.44	228.13
376.82	228.08
377.19	227.99
377.57	227.92
377.95	227.83
378.33	227.73
378.71	227.64
379.09	227.60
379.47	227.53
379.84	227.46
380.22	227.38
380.60	227.28
380.98	227.20
381.36	227.17
381.73	227.07
382.11	227.04
382.49	226.98
382.87	226.90
383.25	226.81
383.62	226.86
384.00	226.82
384.38	226.79
384.76	226.75
385.13	226.76
385.51	226.70
385.89	226.68
386.27	226.66
386.64	226.62
387.02	226.58
387.40	226.54
387.78	226.51
388.15	226.49
388.53	226.52
388.91	226.50
389.29	226.45
389.66	226.45
390.04	226.42
390.42	226.41
390.79	226.41
391.17	226.41
391.55	226.27
391.92	226.24
392.30	226.24
392.68	226.20
393.05	226.18
393.43	226.23
393.81	226.25
394.18	226.26
394.56	226.28
394.94	226.34
395.31	226.38
395.69	226.46
396.06	226.51
396.44	226.52
396.82	226.56
397.19	226.67
397.57	226.75
397.95	226.83
398.32	226.86
398.70	226.92
399.07	226.98
399.45	227.07
399.82	227.16
400.20	227.23
400.58	227.32
400.95	227.35
401.33	227.42
401.70	227.55
402.08	227.64
402.45	227.72
402.83	227.82
403.20	227.89
403.58	228.00
403.95	228.11
404.33	228.27
404.71	228.40
405.08	228.55
405.46	228.69
405.83	228.83
406.21	228.98
406.58	229.17
406.96	229.35
407.33	229.55
407.70	229.73
408.08	230.02
408.45	230.24
408.83	230.49
409.20	230.70
409.58	230.86
409.95	231.09
410.33	231.37
410.70	231.60
411.08	231.92
411.45	232.22
411.82	232.52
412.20	232.83
412.57	233.26
412.95	233.54
413.32	233.94
413.69	234.35
414.07	234.81
414.44	235.26
414.82	235.72
415.19	236.25
415.56	236.76
415.94	237.27
416.31	237.90
416.68	238.53
417.06	239.25
417.43	239.97
417.81	240.73
418.18	241.53
418.55	242.38
418.93	243.22
419.30	244.08
419.67	245.01
420.04	245.99
420.42	246.95
420.79	248.13
421.16	249.25
421.54	250.45
421.91	251.65
422.28	252.87
422.66	254.19
423.03	255.46
423.40	256.78
423.77	258.18
424.15	259.59
424.52	261.06
424.89	262.65
425.26	264.16
425.64	265.62
426.01	267.23
426.38	268.84
426.75	270.50
427.13	272.24
427.50	274.04
427.87	275.88
428.24	277.74
428.61	279.46
428.99	281.40
429.36	283.50
429.73	285.54
430.10	287.55
430.47	289.62
430.85	291.73
431.22	293.95
431.59	296.33
431.96	298.59
432.33	301.05
432.70	303.42
433.08	306.26
433.45	308.89
433.82	311.47
434.19	314.39
434.56	317.24
434.93	319.90
435.30	322.51
435.68	325.42
436.05	328.22
436.42	331.06
436.79	333.57
437.16	336.20
437.53	339.06
437.90	341.93
438.27	344.69
438.64	347.57
439.01	350.20
439.38	352.43
439.75	354.58
440.13	357.13
440.50	359.44
440.87	361.27
441.24	363.22
441.61	365.40
441.98	366.87
442.35	368.63
442.72	370.51
443.09	372.35
443.46	373.36
443.83	373.99
444.20	374.44
444.57	375.24
444.94	375.55
445.31	375.85
445.68	376.20
446.05	376.28
446.42	375.86
446.79	375.45
447.16	375.00
447.53	374.67
447.90	373.50
448.27	372.36
448.64	370.79
449.01	369.62
449.37	367.66
449.74	365.79
450.11	363.59
450.48	361.09
450.85	358.55
451.22	356.42
451.59	354.41
451.96	352.50
452.33	349.95
452.70	347.63
453.07	344.81
453.43	341.90
453.80	339.11
454.17	336.43
454.54	333.90
454.91	331.22
455.28	328.53
455.65	326.01
456.02	323.53
456.38	321.38
456.75	318.74
457.12	316.45
457.49	314.24
457.86	312.01
458.23	310.17
458.59	308.14
458.96	306.03
459.33	304.17
459.70	302.32
460.07	300.84
460.43	299.15
460.80	297.54
461.17	296.13
461.54	294.67
461.91	293.28
462.27	291.79
462.64	290.53
463.01	289.22
463.38	287.95
463.74	286.59
464.11	285.45
464.48	284.44
464.85	283.35
465.21	282.46
465.58	281.59
465.95	280.52
466.32	279.61
466.68	278.69
467.05	277.78
467.42	276.88
467.78	275.96
468.15	275.09
468.52	274.42
468.88	273.52
469.25	272.74
469.62	272.10
469.98	271.46
470.35	270.83
470.72	270.20
471.08	269.53
471.45	268.98
471.82	268.44
472.18	267.83
472.55	267.37
472.92	266.87
473.28	266.36
473.65	265.91
474.02	265.44
474.38	265.08
474.75	264.75
475.11	264.38
475.48	264.09
475.85	263.84
476.21	263.60
476.58	263.42
476.94	263.29
477.31	263.14
477.67	262.98
478.04	262.85
478.41	262.83
478.77	262.85
479.14	262.80
479.50	262.79
479.87	262.88
480.23	262.96
480.60	263.01
480.96	263.14
481.33	263.31
481.69	263.49
482.06	263.72
482.42	263.91
482.79	264.18
483.15	264.51
483.52	264.84
483.88	265.22
484.25	265.60
484.61	265.99
484.98	266.40
485.34	266.98
485.71	267.58
486.07	268.17
486.44	268.76
486.80	269.44
487.17	270.16
487.53	270.98
487.90	271.79
488.26	272.74
488.62	273.70
488.99	274.70
489.35	275.78
489.72	276.91
490.08	278.12
490.44	279.37
490.81	280.65
491.17	281.99
491.54	283.45
491.90	284.99
492.26	286.65
492.63	288.40
492.99	290.17
493.36	292.08
493.72	294.11
494.08	296.23
494.45	298.52
494.81	300.92
495.17	303.35
495.54	306.02
495.90	308.70
496.26	311.52
496.63	314.50
496.99	317.65
497.35	320.89
497.72	324.28
498.08	327.78
498.44	331.49
498.80	335.45
499.17	339.54
499.53	343.75
499.89	348.09
500.26	352.61
500.62	357.31
500.98	362.28
501.34	367.40
501.71	372.81
502.07	378.26
502.43	383.93
502.79	389.69
503.16	395.72
503.52	402.00
503.88	408.41
504.24	415.03
504.60	421.88
504.97	429.02
505.33	436.35
505.69	444.11
506.05	451.85
506.41	459.74
506.78	467.88
507.14	476.30
507.50	485.10
507.86	494.13
508.22	503.25
508.59	512.48
508.95	522.08
509.31	531.80
509.67	541.89
510.03	552.17
510.39	562.78
510.75	573.59
511.12	584.57
511.48	595.92
511.84	607.40
512.20	618.91
512.56	630.89
512.92	643.16
513.28	655.43
513.64	667.95
514.00	680.68
514.37	693.61
514.73	706.68
515.09	719.68
515.45	732.96
515.81	746.63
516.17	760.66
516.53	774.77
516.89	789.01
517.25	803.21
517.61	817.59
517.97	832.06
518.33	846.47
518.69	861.20
519.05	876.18
519.41	891.32
519.77	906.85
520.13	922.19
520.49	937.51
520.85	953.05
521.21	968.66
521.57	984.89
521.93	1000.73
522.29	1017.19
522.65	1033.37
523.01	1049.60
523.37	1065.62
523.73	1081.69
524.09	1097.75
524.45	1113.99
524.81	1130.60
525.17	1147.31
525.53	1164.17
525.89	1181.03
526.25	1197.86
526.61	1214.27
526.97	1231.02
527.33	1247.42
527.68	1264.05
528.04	1280.55
528.40	1297.11
528.76	1314.22
529.12	1330.83
529.48	1347.56
529.84	1363.56
530.20	1380.30
530.56	1397.29
530.91	1414.73
531.27	1431.50
531.63	1447.93
531.99	1464.60
532.35	1480.59
532.71	1496.53
533.07	1512.85
533.42	1528.77
533.78	1544.80
534.14	1560.98
534.50	1576.23
534.86	1592.12
535.21	1607.27
535.57	1623.24
535.93	1638.76
536.29	1653.48
536.65	1668.49
537.00	1683.31
537.36	1698.49
537.72	1712.91
538.08	1727.25
538.44	1740.95
538.79	1754.82
539.15	1768.54
539.51	1782.11
539.87	1796.41
540.22	1810.04
540.58	1823.79
540.94	1837.03
541.29	1849.96
541.65	1862.75
542.01	1876.06
542.37	1888.41
542.72	1900.88
543.08	1912.54
543.44	1924.80
543.79	1936.04
544.15	1947.10
544.51	1958.70
544.87	1969.78
545.22	1980.60
545.58	1990.81
545.94	2000.54
546.29	2010.40
546.65	2020.17
547.01	2029.60
547.36	2038.29
547.72	2046.81
548.07	2054.55
548.43	2062.81
548.79	2070.77
549.14	2078.17
549.50	2085.53
549.86	2093.26
550.21	2100.70
550.57	2107.86
550.92	2114.49
551.28	2121.63
551.64	2128.52
551.99	2134.96
552.35	2141.01
552.70	2147.22
553.06	2153.32
553.41	2159.70
553.77	2165.72
554.13	2171.79
554.48	2177.86
554.84	2183.27
555.19	2188.62
555.55	2193.81
555.90	2198.21
556.26	2203.05
556.61	2207.84
556.97	2212.15
557.32	2216.19
557.68	2220.31
558.03	2224.63
558.39	2228.34
558.74	2232.96
559.10	2236.97
559.45	2240.62
559.81	2244.84
560.16	2248.62
560.52	2251.70
560.87	2255.16
561.23	2257.78
561.58	2260.72
561.94	2263.11
562.29	2265.63
562.64	2268.22
563.00	2270.87
563.35	2274.40
563.71	2277.43
564.06	2280.73
564.42	2283.45
564.77	2285.94
565.12	2288.04
565.48	2289.92
565.83	2291.67
566.19	2292.80
566.54	2293.51
566.89	2294.51
567.25	2295.21
567.60	2296.52
567.96	2298.22
568.31	2299.07
568.66	2300.03
569.02	2300.60
569.37	2300.97
569.72	2301.70
570.08	2301.89
570.43	2301.87
570.78	2301.16
571.14	2299.65
571.49	2298.17
571.84	2297.89
572.20	2296.74
572.55	2295.73
572.90	2294.19
573.26	2292.85
573.61	2291.39
573.96	2289.82
574.31	2287.02
574.67	2283.98
575.02	2280.33
575.37	2277.05
575.72	2273.06
576.08	2269.93
576.43	2266.55
576.78	2262.75
577.13	2259.67
577.49	2256.61
577.84	2253.14
578.19	2249.54
578.54	2245.97
578.90	2241.83
579.25	2236.33
579.60	2231.42
579.95	2226.37
580.30	2221.19
580.66	2216.15
581.01	2211.09
581.36	2206.05
581.71	2201.77
582.06	2197.27
582.42	2192.75
582.77	2187.49
583.12	2182.91
583.47	2177.98
583.82	2173.09
584.17	2167.90
584.53	2162.27
584.88	2156.68
585.23	2150.83
585.58	2145.33
585.93	2139.77
586.28	2134.97
586.63	2129.84
586.98	2124.73
587.34	2120.06
587.69	2115.38
588.04	2109.99
588.39	2104.39
588.74	2097.93
589.09	2091.94
589.44	2085.26
589.79	2079.40
590.14	2073.66
590.49	2067.13
590.84	2060.97
591.19	2054.99
591.54	2048.50
591.89	2041.12
592.25	2034.18
592.60	2027.01
592.95	2019.43
593.30	2012.05
593.65	2004.42
594.00	1997.31
594.35	1990.07
594.70	1982.00
595.05	1974.63
595.40	1967.40
595.75	1959.83
596.10	1953.64
596.45	1946.73
596.80	1940.39
597.15	1933.69
597.50	1926.67
597.85	1920.21
598.19	1913.41
598.54	1906.10
598.89	1899.60
599.24	1893.81
599.59	1887.14
599.94	1881.00
600.29	1874.75
600.64	1868.22
600.99	1860.72
601.34	1853.88
601.69	1846.86
602.04	1839.92
602.39	1832.50
602.74	1825.61
603.08	1818.89
603.43	1812.26
603.78	1805.11
604.13	1798.02
604.48	1790.62
604.83	1783.87
605.18	1776.99
605.53	1769.12
605.87	1761.11
606.22	1753.84
606.57	1745.78
606.92	1738.57
607.27	1731.26
607.62	1724.25
607.96	1716.99
608.31	1710.39
608.66	1702.78
609.01	1695.25
609.36	1687.74
609.70	1679.84
610.05	1671.75
610.40	1663.90
610.75	1655.41
611.10	1647.65
611.44	1639.15
611.79	1631.27
612.14	1622.41
612.49	1613.24
612.83	1604.82
613.18	1596.80
613.53	1588.72
613.88	1580.18
614.22	1571.78
614.57	1563.24
614.92	1555.17
615.27	1547.75
615.61	1539.34
615.96	1531.39
616.31	1523.78
616.65	1516.56
617.00	1509.06
617.35	1501.40
617.70	1493.17
618.04	1484.72
618.39	1476.55
618.74	1468.91
619.08	1460.54
619.43	1452.98
619.78	1446.04
620.12	1438.73
620.47	1431.13
620.82	1422.97
621.16	1415.61
621.51	1408.10
621.85	1400.50
622.20	1391.96
622.55	1383.49
622.89	1375.72
623.24	1368.17
623.59	1360.87
623.93	1353.16
624.28	1345.87
624.62	1338.35
624.97	1331.21
625.32	1324.51
625.66	1317.42
626.01	1310.30
626.35	1302.84
626.70	1295.01
627.04	1287.21
627.39	1279.55
627.73	1272.23
628.08	1265.21
628.43	1257.90
628.77	1250.43
629.12	1242.84
629.46	1235.75
629.81	1228.44
630.15	1221.18
630.50	1213.70
630.84	1205.40
631.19	1197.56
631.53	1190.05
631.88	1182.52
632.22	1174.94
632.57	1167.63
632.91	1160.07
633.26	1152.68
633.60	1145.34
633.95	1138.37
634.29	1131.46
634.64	1124.83
634.98	1117.36
635.32	1110.24
635.67	1103.67
636.01	1097.08
636.36	1090.23
636.70	1083.67
637.05	1077.07
637.39	1070.62
637.73	1064.10
638.08	1058.27
638.42	1052.27
638.77	1045.85
639.11	1039.25
639.45	1032.86
639.80	1026.13
640.14	1019.68
640.49	1013.15
640.83	1006.87
641.17	1000.57
641.52	994.15
641.86	987.63
642.20	981.77
642.55	975.52
642.89	969.00
643.23	962.42
643.58	956.72
643.92	950.50
644.26	944.37
644.61	938.35
644.95	932.26
645.29	925.62
645.64	918.86
645.98	912.48
646.32	906.64
646.66	900.53
647.01	894.79
647.35	889.16
647.69	883.29
648.04	877.80
648.38	872.08
648.72	866.12
649.06	860.12
649.41	854.31
649.75	848.36
650.09	842.37
650.43	836.66
650.78	830.44
651.12	824.45
651.46	818.73
651.80	812.94
652.14	807.57
652.49	802.20
652.83	797.07
653.17	791.36
653.51	785.65
653.85	780.27
654.20	774.60
654.54	768.57
654.88	762.85
655.22	756.86
655.56	751.11
655.90	745.71
656.25	740.48
656.59	735.06
656.93	729.96
657.27	724.90
657.61	719.52
657.95	714.44
658.29	709.43
658.64	704.16
658.98	698.89
659.32	693.47
659.66	688.32
660.00	682.91
660.34	678.01
660.68	673.08
661.02	668.05
661.36	663.27
661.70	658.69
662.05	654.30
662.39	650.02
662.73	645.64
663.07	641.22
663.41	636.70
663.75	632.26
664.09	627.67
664.43	623.27
664.77	619.12
665.11	614.88
665.45	610.68
665.79	606.62
666.13	602.42
666.47	598.34
666.81	594.12
667.15	590.09
667.49	586.20
667.83	582.45
668.17	578.50
668.51	574.45
668.85	570.46
669.19	566.69
669.53	562.73
669.87	558.85
670.21	555.17
670.55	551.53
670.89	548.05
671.23	544.59
671.57	541.05
671.91	537.41
672.25	533.91
672.58	530.48
672.92	527.09
673.26	523.96
673.60	520.76
673.94	517.67
674.28	514.76
674.62	511.79
674.96	508.68
675.30	505.83
675.64	502.98
675.97	500.25
676.31	497.33
676.65	494.47
676.99	491.73
677.33	488.87
677.67	486.04
678.01	483.04
678.34	480.05
678.68	477.16
679.02	474.39
679.36	471.60
679.70	468.84
680.04	466.07
680.37	463.20
680.71	460.40
681.05	457.79
681.39	455.03
681.73	452.35
682.06	449.76
682.40	447.19
682.74	444.64
683.08	442.10
683.42	439.55
683.75	437.06
684.09	434.45
684.43	431.94
684.77	429.50
685.10	427.16
685.44	424.88
685.78	422.64
686.12	420.39
686.45	418.14
686.79	415.82
687.13	413.63
687.46	411.50
687.80	409.38
688.14	407.18
688.48	405.16
688.81	402.92
689.15	400.77
689.49	398.62
689.82	396.48
690.16	394.42
690.50	392.43
690.83	390.48
691.17	388.57
691.51	386.70
691.84	384.85
692.18	382.94
692.52	380.95
692.85	378.97
693.19	377.08
693.52	375.22
693.86	373.43
694.20	371.65
694.53	369.86
694.87	368.00
695.21	366.21
695.54	364.36
695.88	362.66
696.21	360.99
696.55	359.31
696.88	357.71
697.22	356.00
697.56	354.40
697.89	352.75
698.23	351.12
698.56	349.51
698.90	347.89
699.23	346.24
699.57	344.71
699.90	343.17
700.24	341.63
700.58	340.11
700.91	338.60
701.25	337.17
701.58	335.79
701.92	334.41
702.25	333.04
702.59	331.66
702.92	330.33
703.26	329.02
703.59	327.73
703.93	326.52
704.26	325.29
704.60	323.95
704.93	322.71
705.26	321.47
705.60	320.33
705.93	319.19
706.27	318.18
706.60	317.08
706.94	315.99
707.27	314.83
707.61	313.75
707.94	312.79
708.27	311.71
708.61	310.63
708.94	309.63
709.28	308.62
709.61	307.65
709.94	306.71
710.28	305.70
710.61	304.72
710.95	303.63
711.28	302.70
711.61	301.82
711.95	300.89
712.28	299.92
712.61	298.89
712.95	297.96
713.28	297.08
713.61	296.21
713.95	295.32
714.28	294.51
714.61	293.65
714.95	292.80
715.28	291.93
715.61	291.01
715.95	290.16
716.28	289.34
716.61	288.52
716.95	287.70
717.28	286.95
717.61	286.18
717.94	285.44
718.28	284.68
718.61	283.90
718.94	283.18
719.27	282.50
719.61	281.87
719.94	281.17
720.27	280.47
720.60	279.79
720.94	279.17
721.27	278.58
721.60	278.02
721.93	277.36
722.27	276.82
722.60	276.30
722.93	275.72
723.26	275.15
723.59	274.58
723.93	274.01
724.26	273.42
724.59	272.87
724.92	272.33
725.25	271.80
725.59	271.28
725.92	270.78
726.25	270.32
726.58	269.85
726.91	269.39
727.24	268.90
727.57	268.42
727.91	267.92
728.24	267.43
728.57	266.95
728.90	266.51
729.23	265.99
729.56	265.60
729.89	265.11
730.22	264.61
730.55	264.17
730.89	263.76
731.22	263.34
731.55	262.88
731.88	262.46
732.21	262.09
732.54	261.68
732.87	261.23
733.20	260.82
733.53	260.41
733.86	260.05
734.19	259.65
734.52	259.27
734.85	258.97
735.18	258.60
735.51	258.23
735.84	257.85
736.17	257.52
736.50	257.06
736.83	256.86
737.16	256.52
737.49	256.19
737.82	255.80
738.15	255.49
738.48	255.19
738.81	254.88
739.14	254.49
739.47	254.15
739.80	253.92
740.13	253.62
740.46	253.29
740.79	252.96
741.12	252.67
741.45	252.38
741.78	252.01
742.11	251.75
742.44	251.41
742.77	251.13
743.10	250.81
743.43	250.56
743.75	250.18
744.08	250.07
744.41	249.78
744.74	249.52
745.07	249.22
745.40	248.99
745.73	248.76
746.06	248.54
746.39	248.29
746.71	247.95
747.04	247.70
747.37	247.45
747.70	247.19
748.03	246.92
748.36	246.67
748.68	246.44
749.01	246.16
749.34	245.93
749.67	245.68
750.00	245.44
750.33	245.29
750.65	245.09
750.98	244.74
751.31	244.52
751.64	244.34
751.97	244.17
752.29	243.95
752.62	243.67
752.95	243.43
753.28	243.20
753.60	243.06
753.93	242.88
754.26	242.67
754.59	242.43
754.91	242.23
755.24	242.05
755.57	241.84
755.90	241.64
756.22	241.44
756.55	241.24
756.88	241.06
757.20	240.81
757.53	240.58
757.86	240.38
758.19	240.22
758.51	240.02
758.84	239.80
759.17	239.59
759.49	239.44
759.82	239.31
760.15	239.16
760.47	238.96
760.80	238.78
761.13	238.66
761.45	238.53
761.78	238.42
762.11	238.30
762.43	238.14
762.76	238.00
763.08	237.90
763.41	237.77
763.74	237.62
764.06	237.48
764.39	237.37
764.71	237.23
765.04	237.12
765.37	236.99
765.69	236.90
766.02	236.78
766.34	236.66
766.67	236.54
767.00	236.45
767.32	236.39
767.65	236.32
767.97	236.20
768.30	236.10
768.62	235.99
768.95	235.85
769.27	235.78
769.60	235.70
769.92	235.59
770.25	235.49
770.57	235.41
770.90	235.33
771.22	235.21
771.55	235.14
771.87	235.03
772.20	234.96
772.52	234.96
772.85	234.99
773.17	234.91
773.50	234.79
773.82	234.70
774.15	234.59
774.47	234.47
774.80	234.37
775.12	234.27
775.45	234.16
775.77	234.12
776.09	234.02
776.42	233.92
776.74	233.88
777.07	233.80
777.39	233.73
777.72	233.64
778.04	233.62
778.36	233.53
778.69	233.46
779.01	233.39
779.33	233.23
779.66	233.04
779.98	232.98
780.31	232.96
780.63	232.92
780.95	232.85
781.28	232.77
781.60	232.73
781.92	232.71
782.25	232.65
782.57	232.58
782.89	232.51
783.22	232.47
783.54	232.41
783.86	232.37
784.19	232.29
784.51	232.31
784.83	232.21
785.16	232.19
785.48	232.13
785.80	232.07
786.12	232.05
786.45	232.01
786.77	231.93
787.09	231.88
787.42	231.81
787.74	231.78
788.06	231.73
788.38	231.68
788.71	231.58
789.03	231.53
789.35	231.49
789.67	231.49
789.99	231.45
790.32	231.38
790.64	231.34
790.96	231.38
791.28	231.25
791.61	231.18
791.93	231.11
792.25	231.03
792.57	231.05
792.89	230.96
793.21	230.90
793.54	230.88
793.86	230.81
794.18	230.78
794.50	230.72
794.82	230.67
795.14	230.64
795.47	230.62
795.79	230.58
796.11	230.50
796.43	230.40
796.75	230.37
797.07	230.33
797.39	230.29
797.71	230.19
798.04	230.21
798.36	230.17
798.68	230.16
799.00	230.16
799.32	230.09
799.64	230.09
799.96	230.08
800.28	230.06
800.60	230.02
800.92	230.00
801.24	229.95
801.56	229.90
801.89	229.86
802.21	229.84
802.53	229.80
802.85	229.81
803.17	229.85
803.49	229.81
803.81	229.75
804.13	229.69
804.45	229.67
804.77	229.61
805.09	229.63
805.41	229.60
805.73	229.56
806.05	229.49
806.37	229.46
806.69	229.43
807.01	229.41
807.33	229.40
807.65	229.34
807.97	229.37
808.28	229.39
808.60	229.37
808.92	229.33
809.24	229.34
809.56	229.33
809.88	229.30
810.20	229.26
810.52	229.27
810.84	229.27
811.16	229.24
811.48	229.23
811.80	229.25
812.12	229.22
812.43	229.22
812.75	229.22
813.07	229.18
813.39	229.14
813.71	229.11
814.03	229.11
814.35	229.09
814.67	229.04
814.98	229.01
815.30	228.96
815.62	228.94
815.94	228.87
816.26	228.88
816.58	228.83
816.89	228.86
817.21	228.81
817.53	228.80
817.85	228.80
818.17	228.78
818.48	228.69
818.80	228.68
819.12	228.67
819.44	228.67
819.76	228.69
820.07	228.66
820.39	228.65
820.71	228.63
821.03	228.62
821.34	228.58
821.66	228.61
821.98	228.62
822.30	228.60
822.61	228.66
822.93	228.59
823.25	228.55
823.57	228.51
823.88	228.54
824.20	228.52
824.52	228.47
824.83	228.46
825.15	228.45
825.47	228.46
825.79	228.44
826.10	228.38
826.42	228.35
826.74	228.34
827.05	228.32
827.37	228.32
827.69	228.29
828.00	228.28
828.32	228.23
828.64	228.22
828.95	228.27
829.27	228.21
829.58	228.20
829.90	228.21
830.22	228.18
830.53	228.15
830.85	228.12
831.17	228.11
831.48	228.07
831.80	228.07
832.11	228.04
832.43	228.03
832.75	227.99
833.06	228.05
833.38	228.02
833.69	227.99
834.01	227.98
834.32	227.97
834.64	227.97
834.96	227.97
835.27	227.96
835.59	227.92
835.90	227.88
836.22	227.86
836.53	227.84
836.85	227.83
837.16	227.89
837.48	227.87
837.79	227.87
838.11	227.88
838.42	227.86
838.74	227.84
839.05	227.80
839.37	227.83
839.68	227.73
840.00	227.71
840.31	227.71
840.63	227.71
840.94	227.66
841.26	227.64
841.57	227.62
841.88	227.60
842.20	227.58
842.51	227.55
842.83	227.55
843.14	227.63
843.46	227.61
843.77	227.55
844.08	227.55
844.40	227.54
844.71	227.53
845.03	227.52
845.34	227.49
845.65	227.45
845.97	227.40
846.28	227.40
846.60	227.41
846.91	227.43
847.22	227.39
847.54	227.43
847.85	227.41
848.16	227.41
848.48	227.38
848.79	227.42
849.10	227.43
849.42	227.42
849.73	227.32
850.04	227.32
850.36	227.28
850.67	227.27
850.98	227.27
851.30	227.29
851.61	227.30
851.92	227.35
852.23	227.42
852.55	227.44
852.86	227.44
853.17	227.46
853.49	227.43
853.80	227.49
854.11	227.50
854.42	227.52
854.74	227.54
855.05	227.55
855.36	227.51
855.67	227.53
855.99	227.54
856.30	227.67
856.61	227.68
856.92	227.65
857.23	227.67
857.55	227.64
857.86	227.65
858.17	227.67
858.48	227.66
858.79	227.63
859.11	227.65
859.42	227.65
859.73	227.66
860.04	227.71
860.35	227.68
860.66	227.65
860.98	227.68
861.29	227.67
861.60	227.63
861.91	227.65
862.22	227.65
862.53	227.66
862.84	227.57
863.16	227.63
863.47	227.62
863.78	227.62
864.09	227.64
864.40	227.64
864.71	227.62
865.02	227.60
865.33	227.59
865.64	227.57
865.95	227.58
866.27	227.62
866.58	227.54
866.89	227.50
867.20	227.50
867.51	227.45
867.82	227.45
868.13	227.50
868.44	227.47
868.75	227.48
869.06	227.45
869.37	227.42
869.68	227.33
869.99	227.35
870.30	227.35
870.61	227.34
870.92	227.31
871.23	227.31
871.54	227.32
871.85	227.35
872.16	227.33
872.47	227.28
872.78	227.23
873.09	227.23
873.40	227.23
873.71	227.19
874.02	227.20
874.33	227.16
874.64	227.13
874.95	227.13
875.26	227.10
875.56	227.09
875.87	227.07
876.18	227.08
876.49	227.19
876.80	227.17
877.11	227.17
877.42	227.18
877.73	227.15
878.04	227.12
878.35	227.10
878.66	227.11
878.96	227.12
879.27	227.10
879.58	227.10
879.89	227.08
880.20	227.13
880.51	227.10
880.82	227.11
881.12	227.11
881.43	227.09
881.74	227.05
882.05	227.10
882.36	227.14
882.67	227.13
882.97	227.01
883.28	227.00
883.59	226.97
883.90	226.97
884.21	226.99
884.51	227.00
884.82	226.98
885.13	226.97
885.44	226.99
885.74	227.03
886.05	227.04
886.36	227.04
886.67	226.98
886.98	227.05
887.28	227.04
887.59	227.04
887.90	227.04
888.20	227.07
888.51	227.04
888.82	227.01
889.13	227.03
889.43	227.13
889.74	227.12
890.05	227.14
890.35	227.13
890.66	227.10
890.97	227.11
891.28	227.11
891.58	227.11
891.89	227.12
892.20	227.07
892.50	227.05
892.81	227.11
893.12	227.13
893.42	227.08
893.73	227.10
894.04	227.13
894.34	227.14
894.65	227.15
894.95	227.15
895.26	227.12
895.57	227.17
895.87	227.07
896.18	227.11
896.48	227.10
896.79	227.12
897.10	227.15
897.40	227.17
897.71	227.17
898.01	227.21
898.32	227.23
898.63	227.22
898.93	227.24
899.24	227.21
899.54	227.20
899.85	227.17
900.15	227.16
900.46	227.15
900.76	227.15
901.07	227.14
901.38	227.14
901.68	227.21
901.99	227.11
902.29	227.11
902.60	227.08
902.90	227.06
903.21	227.02
903.51	227.02
903.82	227.03
904.12	227.04
904.43	227.00
904.73	226.96
905.03	226.98
905.34	227.04
905.64	227.04
905.95	227.04
906.25	227.08
906.56	227.05
906.86	227.08
907.17	227.07
907.47	227.05
907.77	227.03
908.08	227.01
908.38	227.07
908.69	227.10
908.99	227.14
909.30	227.17
909.60	227.19
909.90	227.18
910.21	227.14
910.51	227.11
910.81	227.11
911.12	227.13
911.42	227.14
911.73	227.05
912.03	227.08
912.33	227.09
912.64	227.07
912.94	227.07
913.24	227.02
913.55	227.03
913.85	227.02
914.15	227.05
914.46	227.04
914.76	227.00
915.06	226.97
915.37	226.91
915.67	226.88
915.97	226.86
916.27	226.84
916.58	226.83
916.88	226.80
917.18	226.79
917.49	226.84
917.79	226.82
918.09	226.82
918.39	226.81
918.70	226.78
919.00	226.76
919.30	226.82
919.60	226.78
919.91	226.75
920.21	226.78
920.51	226.74
920.81	226.71
921.12	226.75
921.42	226.73
921.72	226.77
922.02	226.78
922.32	226.80
922.63	226.82
922.93	226.89
923.23	226.90
923.53	226.92
923.83	226.85
924.13	226.84
924.44	226.82
924.74	226.83
925.04	226.87
925.34	226.89
925.64	226.83
925.94	226.86
926.24	226.91
926.55	226.87
926.85	226.88
927.15	226.91
927.45	226.91
927.75	226.93
928.05	226.89
928.35	226.91
928.65	226.92
928.95	226.94
929.26	226.89
929.56	226.92
929.86	226.92
930.16	226.91
930.46	226.92
930.76	226.95
931.06	226.91
931.36	226.89
931.66	226.91
931.96	226.93
932.26	226.96
932.56	226.95
932.86	226.98
933.16	227.01
933.46	226.96
933.76	226.95
934.06	226.98
934.36	227.04
934.66	227.03
934.96	227.01
935.26	226.99
935.56	226.99
935.86	226.98
936.16	226.98
936.46	226.99
936.76	226.99
937.06	226.96
937.36	226.98
937.66	226.98
937.96	226.95
938.26	226.93
938.56	226.92
938.86	226.93
939.16	226.94
939.46	226.94
939.76	226.98
940.06	226.96
940.35	226.93
940.65	226.90
940.95	226.92
941.25	226.89
941.55	226.89
941.85	226.91
942.15	226.90
942.45	226.96
942.75	226.97
943.04	226.97
943.34	226.99
943.64	226.97
943.94	226.97
944.24	226.97
944.54	226.99
944.84	226.97
945.13	226.94
945.43	226.94
945.73	226.92
946.03	226.90
946.33	226.90
946.62	226.92
946.92	226.90
947.22	226.90
947.52	226.92
947.82	226.93
948.11	226.92
948.41	226.89
948.71	226.83
949.01	226.82
949.31	226.79
949.60	226.79
949.90	226.81
950.20	226.82
950.50	226.82
950.79	226.78
951.09	226.82
951.39	226.81
951.69	226.82
951.98	226.83
952.28	226.83
952.58	226.84
952.87	226.83
953.17	226.83
953.47	226.80
953.76	226.83
954.06	226.80
954.36	226.78
954.66	226.78
954.95	226.80
955.25	226.79
955.55	226.81
955.84	226.81
956.14	226.82
956.44	226.83
956.73	226.83
957.03	226.83
957.32	226.82
957.62	226.81
957.92	226.84
958.21	226.84
958.51	226.96
958.81	226.95
959.10	226.98
959.40	227.03
959.69	227.04
959.99	227.04
960.29	227.02
960.58	227.02
960.88	227.07
961.17	227.08
961.47	227.10
961.76	227.09
962.06	227.08
962.36	227.04
962.65	227.01
962.95	227.00
963.24	227.02
963.54	227.02
963.83	227.04
964.13	227.01
964.42	226.93
964.72	226.88
965.01	226.88
965.31	226.85
965.60	226.80
965.90	226.88
966.19	226.85
966.49	226.88
966.78	226.89
967.08	226.87
967.37	226.86
967.67	226.85
967.96	226.86
968.26	226.84
968.55	226.87
968.85	226.88
969.14	226.88
969.43	226.90
969.73	226.90
970.02	226.88
970.32	226.87
970.61	226.87
970.91	226.80
971.20	226.79
971.49	226.79
971.79	226.81
972.08	226.71
972.38	226.70
972.67	226.67
972.96	226.68
973.26	226.67
973.55	226.69
973.85	226.67
974.14	226.68
974.43	226.70
974.73	226.68
975.02	226.66
975.31	226.69
975.61	226.69
975.90	226.69
976.19	226.69
976.49	226.71
976.78	226.75
977.07	226.75
977.37	226.74
977.66	226.73
977.95	226.71
978.24	226.74
978.54	226.77
978.83	226.78
979.12	226.78
979.42	226.77
979.71	226.78
980.00	226.81
980.29	226.84
980.59	226.84
980.88	226.89
981.17	226.91
981.46	226.91
981.76	226.89
982.05	226.93
982.34	226.94
982.63	226.97
982.93	226.96
983.22	227.01
983.51	227.04
983.80	227.07
984.09	227.13
984.39	227.11
984.68	227.09
984.97	227.08
985.26	227.09
985.55	227.11
985.85	227.05
986.14	227.04
986.43	227.03
986.72	227.04
987.01	227.02
987.30	227.02
987.59	227.00
987.89	227.00
988.18	226.95
988.47	226.95
988.76	226.92
989.05	226.90
989.34	226.89
989.63	226.92
989.92	226.90
990.22	226.86
990.51	226.86
990.80	226.86
991.09	226.89
991.38	226.88
991.67	226.86
991.96	226.86
992.25	226.85
992.54	226.82
992.83	226.79
993.12	226.75
993.41	226.78
993.70	226.81
993.99	226.85
994.28	226.84
994.58	226.85
994.87	226.84
995.16	226.79
995.45	226.77
995.74	226.73
996.03	226.72
996.32	226.73
996.61	226.76
996.90	226.75
997.19	226.73
997.48	226.73
997.77	226.71
998.06	226.72
998.34	226.69
998.63	226.70
998.92	226.74
999.21	226.78
999.50	226.75
999.79	226.71
1000.08	226.67
1000.37	226.68
1000.66	226.67
1000.95	226.69
1001.24	226.73
1001.53	226.77
1001.82	226.74
1002.11	226.75
1002.40	226.77
1002.68	226.76
1002.97	226.85
1003.26	226.86
1003.55	226.82
1003.84	226.84
1004.13	226.89
1004.42	226.92
1004.71	226.88
1004.99	226.84
1005.28	226.84
1005.57	226.84
1005.86	226.84
1006.15	226.87
1006.44	226.86
1006.72	226.84
1007.01	226.84
1007.30	226.85
1007.59	226.80
1007.88	226.80
1008.17	226.79
1008.45	226.75
1008.74	226.72
1009.03	226.69
1009.32	226.68
1009.60	226.68
1009.89	226.70
1010.18	226.64
1010.47	226.63
1010.76	226.63
1011.04	226.65
1011.33	226.66
1011.62	226.68
1011.91	226.69
1012.19	226.67
1012.48	226.70
1012.77	226.69
1013.05	226.75
1013.34	226.73
1013.63	226.75
1013.92	226.78
1014.20	226.78
1014.49	226.80
1014.78	226.80
1015.06	226.75
1015.35	226.76
1015.64	226.81
1015.92	226.85
1016.21	226.85
1016.50	226.85
1016.78	226.92
1017.07	226.91
1017.36	226.89
1017.64	226.87
1017.93	226.86
1018.22	226.86
1018.50	226.82
1018.79	226.85
1019.08	226.77
1019.36	226.83
1019.65	226.82
1019.93	226.85
1020.22	226.90
1020.51	226.92
1020.79	226.93
1021.08	226.61
1021.36	226.46
1021.65	226.63
1021.94	226.68
1022.22	227.53
1022.51	226.66
1022.79	227.56
1023.08	227.42
1023.36	227.78
1023.65	226.86
>>>>>End Processed Spectral Data<<<<<
