SpectraSuite Data File
++++++++++++++++++++++++++++++++++++
Date: Fri Feb 01 15:07:56 EST 2013
User: group
Dark Spectrum Present: No
Reference Spectrum Present: No
Number of Sampled Component Spectra: 1
Spectrometers: USB2E7196
Integration Time (usec): 35000 (USB2E7196)
Spectra Averaged: 100 (USB2E7196)
Boxcar Smoothing: 10 (USB2E7196)
Correct for Electrical Dark: No (USB2E7196)
Strobe/Lamp Enabled: No (USB2E7196)
Correct for Detector Non-linearity: No (USB2E7196)
Correct for Stray Light: No (USB2E7196)
Number of Pixels in Processed Spectrum: 2048
>>>>>Begin Processed Spectral Data<<<<<
339.09	0.00
339.48	215.50
339.86	217.03
340.24	218.57
340.63	220.15
341.01	222.48
341.39	222.25
341.78	223.25
342.16	224.46
342.54	225.38
342.93	213.79
343.31	224.63
343.69	225.16
344.07	225.63
344.46	226.03
344.84	226.40
345.22	226.63
345.60	226.88
345.99	227.08
346.37	227.25
346.75	227.35
347.13	227.42
347.52	227.47
347.90	227.53
348.28	227.54
348.66	227.57
349.05	227.51
349.43	227.52
349.81	227.55
350.19	227.56
350.57	227.61
350.96	227.70
351.34	227.75
351.72	227.85
352.10	227.93
352.48	228.01
352.87	228.05
353.25	228.14
353.63	228.20
354.01	228.26
354.39	228.32
354.77	228.41
355.15	228.50
355.54	228.54
355.92	228.58
356.30	228.68
356.68	228.81
357.06	228.88
357.44	228.95
357.82	229.02
358.20	229.12
358.58	229.17
358.97	229.22
359.35	229.29
359.73	229.35
360.11	229.36
360.49	229.43
360.87	229.46
361.25	229.47
361.63	229.55
362.01	229.59
362.39	229.59
362.77	229.60
363.15	229.60
363.53	229.62
363.91	229.65
364.29	229.67
364.67	229.59
365.05	229.59
365.43	229.59
365.81	229.58
366.19	229.61
366.57	229.62
366.95	229.59
367.33	229.54
367.71	229.51
368.09	229.51
368.47	229.47
368.85	229.45
369.23	229.42
369.61	229.31
369.99	229.30
370.37	229.29
370.75	229.26
371.13	229.19
371.51	229.15
371.89	229.10
372.27	229.02
372.65	229.01
373.03	228.94
373.41	228.87
373.78	228.81
374.16	228.68
374.54	228.61
374.92	228.54
375.30	228.47
375.68	228.38
376.06	228.30
376.44	228.22
376.82	228.13
377.19	228.10
377.57	228.05
377.95	227.93
378.33	227.80
378.71	227.67
379.09	227.63
379.47	227.55
379.84	227.41
380.22	227.34
380.60	227.23
380.98	227.18
381.36	227.11
381.73	227.03
382.11	227.00
382.49	226.92
382.87	226.84
383.25	226.80
383.62	226.86
384.00	226.79
384.38	226.72
384.76	226.67
385.13	226.63
385.51	226.55
385.89	226.52
386.27	226.50
386.64	226.47
387.02	226.43
387.40	226.39
387.78	226.41
388.15	226.38
388.53	226.33
388.91	226.26
389.29	226.26
389.66	226.27
390.04	226.24
390.42	226.25
390.79	226.26
391.17	226.23
391.55	226.11
391.92	226.14
392.30	226.18
392.68	226.18
393.05	226.19
393.43	226.21
393.81	226.21
394.18	226.24
394.56	226.29
394.94	226.34
395.31	226.36
395.69	226.44
396.06	226.49
396.44	226.57
396.82	226.64
397.19	226.74
397.57	226.78
397.95	226.84
398.32	226.90
398.70	226.95
399.07	227.07
399.45	227.11
399.82	227.19
400.20	227.27
400.58	227.39
400.95	227.42
401.33	227.55
401.70	227.76
402.08	227.89
402.45	228.00
402.83	228.14
403.20	228.26
403.58	228.36
403.95	228.52
404.33	228.66
404.71	228.78
405.08	228.97
405.46	229.07
405.83	229.24
406.21	229.39
406.58	229.58
406.96	229.77
407.33	230.00
407.70	230.23
408.08	230.50
408.45	230.70
408.83	230.97
409.20	231.20
409.58	231.35
409.95	231.60
410.33	231.87
410.70	232.11
411.08	232.41
411.45	232.69
411.82	232.95
412.20	233.31
412.57	233.74
412.95	234.04
413.32	234.46
413.69	234.88
414.07	235.31
414.44	235.76
414.82	236.17
415.19	236.68
415.56	237.21
415.94	237.71
416.31	238.33
416.68	238.95
417.06	239.67
417.43	240.38
417.81	241.14
418.18	241.92
418.55	242.75
418.93	243.63
419.30	244.53
419.67	245.47
420.04	246.41
420.42	247.35
420.79	248.51
421.16	249.68
421.54	250.83
421.91	252.03
422.28	253.27
422.66	254.65
423.03	255.95
423.40	257.28
423.77	258.70
424.15	260.17
424.52	261.65
424.89	263.25
425.26	264.79
425.64	266.20
426.01	267.79
426.38	269.44
426.75	271.10
427.13	272.82
427.50	274.64
427.87	276.49
428.24	278.39
428.61	280.10
428.99	282.03
429.36	284.16
429.73	286.23
430.10	288.25
430.47	290.27
430.85	292.44
431.22	294.62
431.59	297.02
431.96	299.24
432.33	301.71
432.70	304.12
433.08	306.89
433.45	309.59
433.82	312.21
434.19	315.14
434.56	317.96
434.93	320.62
435.30	323.24
435.68	326.16
436.05	328.97
436.42	331.82
436.79	334.40
437.16	337.10
437.53	339.97
437.90	342.77
438.27	345.60
438.64	348.40
439.01	351.06
439.38	353.28
439.75	355.46
440.13	357.98
440.50	360.30
440.87	362.19
441.24	364.10
441.61	366.28
441.98	367.76
442.35	369.60
442.72	371.53
443.09	373.38
443.46	374.42
443.83	375.06
444.20	375.59
444.57	376.38
444.94	376.69
445.31	377.05
445.68	377.47
446.05	377.52
446.42	377.15
446.79	376.73
447.16	376.34
447.53	376.02
447.90	374.86
448.27	373.68
448.64	372.06
449.01	370.95
449.37	369.00
449.74	367.11
450.11	364.82
450.48	362.29
450.85	359.76
451.22	357.55
451.59	355.52
451.96	353.59
452.33	351.00
452.70	348.65
453.07	345.80
453.43	342.85
453.80	340.07
454.17	337.41
454.54	334.87
454.91	332.10
455.28	329.41
455.65	326.95
456.02	324.46
456.38	322.33
456.75	319.66
457.12	317.38
457.49	315.14
457.86	312.99
458.23	311.14
458.59	309.02
458.96	306.95
459.33	305.10
459.70	303.18
460.07	301.66
460.43	299.94
460.80	298.28
461.17	296.82
461.54	295.29
461.91	293.82
462.27	292.34
462.64	291.13
463.01	289.78
463.38	288.45
463.74	287.10
464.11	285.94
464.48	284.88
464.85	283.74
465.21	282.83
465.58	281.86
465.95	280.75
466.32	279.85
466.68	278.92
467.05	277.99
467.42	277.06
467.78	276.09
468.15	275.20
468.52	274.55
468.88	273.71
469.25	272.93
469.62	272.30
469.98	271.63
470.35	270.96
470.72	270.33
471.08	269.61
471.45	269.04
471.82	268.47
472.18	267.87
472.55	267.41
472.92	266.86
473.28	266.43
473.65	265.96
474.02	265.52
474.38	265.17
474.75	264.82
475.11	264.46
475.48	264.20
475.85	263.94
476.21	263.69
476.58	263.46
476.94	263.29
477.31	263.11
477.67	262.97
478.04	262.86
478.41	262.76
478.77	262.86
479.14	262.77
479.50	262.80
479.87	262.88
480.23	262.97
480.60	263.04
480.96	263.09
481.33	263.30
481.69	263.45
482.06	263.62
482.42	263.82
482.79	264.07
483.15	264.43
483.52	264.83
483.88	265.18
484.25	265.58
484.61	266.01
484.98	266.46
485.34	267.00
485.71	267.57
486.07	268.20
486.44	268.74
486.80	269.49
487.17	270.20
487.53	271.00
487.90	271.87
488.26	272.83
488.62	273.83
488.99	274.80
489.35	275.87
489.72	277.01
490.08	278.24
490.44	279.52
490.81	280.79
491.17	282.11
491.54	283.61
491.90	285.17
492.26	286.77
492.63	288.52
492.99	290.29
493.36	292.19
493.72	294.23
494.08	296.36
494.45	298.57
494.81	300.95
495.17	303.38
495.54	305.94
495.90	308.57
496.26	311.38
496.63	314.35
496.99	317.48
497.35	320.73
497.72	324.13
498.08	327.59
498.44	331.27
498.80	335.16
499.17	339.11
499.53	343.27
499.89	347.68
500.26	352.17
500.62	356.85
500.98	361.78
501.34	366.88
501.71	372.20
502.07	377.60
502.43	383.17
502.79	388.95
503.16	394.99
503.52	401.27
503.88	407.62
504.24	414.19
504.60	421.05
504.97	428.17
505.33	435.48
505.69	443.13
506.05	450.90
506.41	458.74
506.78	466.90
507.14	475.34
507.50	484.07
507.86	493.03
508.22	502.20
508.59	511.43
508.95	520.93
509.31	530.67
509.67	540.76
510.03	550.97
510.39	561.52
510.75	572.25
511.12	583.18
511.48	594.49
511.84	605.96
512.20	617.56
512.56	629.55
512.92	641.66
513.28	654.04
513.64	666.50
514.00	679.24
514.37	692.16
514.73	705.15
515.09	718.17
515.45	731.56
515.81	745.12
516.17	759.10
516.53	773.25
516.89	787.40
517.25	801.58
517.61	816.10
517.97	830.60
518.33	845.12
518.69	859.96
519.05	875.00
519.41	890.15
519.77	905.56
520.13	920.99
520.49	936.41
520.85	951.84
521.21	967.60
521.57	983.77
521.93	999.63
522.29	1016.23
522.65	1032.49
523.01	1048.73
523.37	1064.82
523.73	1081.02
524.09	1097.11
524.45	1113.61
524.81	1130.38
525.17	1147.25
525.53	1164.08
525.89	1180.92
526.25	1197.72
526.61	1214.09
526.97	1230.89
527.33	1247.46
527.68	1264.13
528.04	1280.73
528.40	1297.55
528.76	1314.69
529.12	1331.47
529.48	1348.43
529.84	1364.47
530.20	1381.22
530.56	1398.29
530.91	1415.77
531.27	1432.59
531.63	1449.19
531.99	1465.78
532.35	1481.88
532.71	1497.80
533.07	1514.17
533.42	1530.21
533.78	1546.37
534.14	1562.79
534.50	1578.16
534.86	1594.19
535.21	1609.46
535.57	1625.57
535.93	1641.10
536.29	1655.96
536.65	1671.12
537.00	1686.06
537.36	1701.43
537.72	1716.08
538.08	1730.56
538.44	1744.48
538.79	1758.53
539.15	1772.35
539.51	1786.19
539.87	1800.61
540.22	1814.49
540.58	1828.50
540.94	1841.92
541.29	1855.01
541.65	1867.85
542.01	1881.34
542.37	1893.64
542.72	1906.25
543.08	1918.01
543.44	1930.50
543.79	1941.77
544.15	1952.83
544.51	1964.29
544.87	1975.38
545.22	1986.23
545.58	1996.52
545.94	2006.29
546.29	2016.22
546.65	2026.08
547.01	2035.43
547.36	2044.14
547.72	2052.63
548.07	2060.36
548.43	2068.50
548.79	2076.48
549.14	2084.03
549.50	2091.39
549.86	2099.15
550.21	2106.33
550.57	2113.44
550.92	2119.92
551.28	2127.16
551.64	2134.30
551.99	2140.92
552.35	2146.92
552.70	2152.98
553.06	2158.99
553.41	2165.26
553.77	2171.26
554.13	2177.28
554.48	2183.36
554.84	2188.74
555.19	2194.04
555.55	2199.18
555.90	2203.57
556.26	2208.38
556.61	2213.03
556.97	2217.17
557.32	2221.32
557.68	2225.52
558.03	2229.84
558.39	2233.70
558.74	2238.19
559.10	2241.88
559.45	2245.44
559.81	2249.75
560.16	2253.46
560.52	2256.61
560.87	2260.11
561.23	2262.64
561.58	2265.55
561.94	2267.94
562.29	2270.36
562.64	2272.97
563.00	2275.56
563.35	2279.23
563.71	2282.24
564.06	2285.34
564.42	2288.20
564.77	2290.51
565.12	2292.56
565.48	2294.29
565.83	2295.82
566.19	2296.97
566.54	2297.90
566.89	2299.04
567.25	2299.54
567.60	2300.94
567.96	2302.43
568.31	2303.09
568.66	2304.08
569.02	2304.61
569.37	2304.86
569.72	2305.43
570.08	2305.40
570.43	2305.39
570.78	2304.45
571.14	2302.99
571.49	2301.61
571.84	2301.09
572.20	2299.86
572.55	2298.88
572.90	2297.32
573.26	2296.02
573.61	2294.22
573.96	2292.25
574.31	2288.94
574.67	2285.88
575.02	2282.06
575.37	2278.71
575.72	2274.74
576.08	2271.53
576.43	2268.17
576.78	2264.48
577.13	2261.37
577.49	2258.29
577.84	2254.67
578.19	2250.98
578.54	2247.05
578.90	2242.65
579.25	2237.05
579.60	2231.97
579.95	2226.74
580.30	2221.59
580.66	2216.20
581.01	2211.15
581.36	2206.07
581.71	2202.00
582.06	2197.31
582.42	2192.87
582.77	2187.41
583.12	2182.80
583.47	2177.75
583.82	2172.32
584.17	2166.89
584.53	2161.24
584.88	2155.31
585.23	2149.41
585.58	2143.82
585.93	2138.44
586.28	2133.73
586.63	2128.53
586.98	2123.26
587.34	2118.52
587.69	2113.53
588.04	2108.07
588.39	2102.40
588.74	2096.06
589.09	2089.79
589.44	2082.87
589.79	2076.78
590.14	2071.14
590.49	2064.46
590.84	2058.05
591.19	2052.04
591.54	2045.39
591.89	2037.87
592.25	2031.03
592.60	2023.75
592.95	2015.99
593.30	2008.50
593.65	2000.72
594.00	1993.66
594.35	1986.39
594.70	1978.23
595.05	1970.91
595.40	1963.75
595.75	1956.19
596.10	1949.69
596.45	1942.86
596.80	1936.71
597.15	1929.80
597.50	1922.53
597.85	1916.02
598.19	1909.26
598.54	1902.11
598.89	1895.59
599.24	1889.69
599.59	1883.00
599.94	1876.66
600.29	1870.44
600.64	1863.76
600.99	1856.19
601.34	1849.22
601.69	1842.37
602.04	1835.45
602.39	1828.07
602.74	1821.16
603.08	1814.36
603.43	1807.61
603.78	1800.29
604.13	1793.06
604.48	1785.75
604.83	1779.02
605.18	1771.83
605.53	1763.75
605.87	1755.70
606.22	1748.35
606.57	1740.37
606.92	1733.07
607.27	1725.94
607.62	1718.88
607.96	1711.52
608.31	1704.94
608.66	1697.38
609.01	1689.68
609.36	1682.03
609.70	1673.88
610.05	1665.71
610.40	1657.92
610.75	1649.60
611.10	1641.87
611.44	1633.63
611.79	1625.71
612.14	1616.95
612.49	1608.05
612.83	1599.90
613.18	1591.87
613.53	1583.82
613.88	1575.27
614.22	1566.92
614.57	1558.34
614.92	1550.21
615.27	1542.65
615.61	1534.32
615.96	1526.30
616.31	1518.79
616.65	1511.46
617.00	1504.06
617.35	1496.47
617.70	1488.11
618.04	1479.67
618.39	1471.46
618.74	1463.82
619.08	1455.55
619.43	1447.99
619.78	1441.00
620.12	1433.71
620.47	1426.22
620.82	1418.12
621.16	1410.78
621.51	1403.28
621.85	1395.71
622.20	1387.33
622.55	1379.21
622.89	1371.42
623.24	1363.85
623.59	1356.49
623.93	1349.03
624.28	1341.83
624.62	1334.28
624.97	1327.15
625.32	1320.41
625.66	1313.41
626.01	1306.07
626.35	1298.48
626.70	1290.85
627.04	1283.11
627.39	1275.37
627.73	1267.88
628.08	1260.94
628.43	1253.59
628.77	1246.18
629.12	1238.57
629.46	1231.44
629.81	1223.94
630.15	1216.61
630.50	1209.21
630.84	1201.04
631.19	1193.19
631.53	1185.63
631.88	1178.13
632.22	1170.53
632.57	1163.21
632.91	1155.71
633.26	1148.34
633.60	1141.10
633.95	1133.99
634.29	1127.07
634.64	1120.42
634.98	1113.05
635.32	1105.90
635.67	1099.47
636.01	1092.77
636.36	1086.07
636.70	1079.59
637.05	1073.04
637.39	1066.72
637.73	1060.25
638.08	1054.44
638.42	1048.40
638.77	1041.96
639.11	1035.42
639.45	1029.12
639.80	1022.53
640.14	1016.13
640.49	1009.70
640.83	1003.41
641.17	997.19
641.52	990.83
641.86	984.53
642.20	978.85
642.55	972.68
642.89	966.10
643.23	959.69
643.58	953.89
643.92	947.70
644.26	941.60
644.61	935.73
644.95	929.68
645.29	923.03
645.64	916.33
645.98	910.08
646.32	904.30
646.66	898.27
647.01	892.46
647.35	886.84
647.69	881.04
648.04	875.59
648.38	869.75
648.72	863.85
649.06	857.72
649.41	851.84
649.75	845.84
650.09	839.89
650.43	834.10
650.78	828.00
651.12	822.09
651.46	816.44
651.80	810.47
652.14	805.06
652.49	799.65
652.83	794.52
653.17	788.80
653.51	783.01
653.85	777.64
654.20	772.02
654.54	766.02
654.88	760.36
655.22	754.49
655.56	748.86
655.90	743.46
656.25	738.23
656.59	732.86
656.93	727.74
657.27	722.65
657.61	717.27
657.95	712.18
658.29	707.08
658.64	701.86
658.98	696.71
659.32	691.35
659.66	686.20
660.00	680.86
660.34	675.99
660.68	671.16
661.02	666.18
661.36	661.53
661.70	657.03
662.05	652.65
662.39	648.37
662.73	643.91
663.07	639.45
663.41	634.99
663.75	630.54
664.09	625.95
664.43	621.61
664.77	617.46
665.11	613.23
665.45	609.10
665.79	605.00
666.13	600.84
666.47	596.78
666.81	592.62
667.15	588.54
667.49	584.69
667.83	580.88
668.17	576.93
668.51	572.86
668.85	568.86
669.19	564.99
669.53	561.15
669.87	557.28
670.21	553.66
670.55	550.05
670.89	546.61
671.23	543.20
671.57	539.69
671.91	536.16
672.25	532.69
672.58	529.27
672.92	525.92
673.26	522.83
673.60	519.66
673.94	516.58
674.28	513.70
674.62	510.75
674.96	507.71
675.30	504.79
675.64	501.88
675.97	499.12
676.31	496.32
676.65	493.42
676.99	490.72
677.33	487.85
677.67	485.08
678.01	482.10
678.34	479.13
678.68	476.26
679.02	473.50
679.36	470.72
679.70	467.94
680.04	465.17
680.37	462.25
680.71	459.47
681.05	456.94
681.39	454.22
681.73	451.58
682.06	449.05
682.40	446.52
682.74	444.00
683.08	441.46
683.42	438.85
683.75	436.37
684.09	433.89
684.43	431.43
684.77	428.97
685.10	426.66
685.44	424.40
685.78	422.13
686.12	419.87
686.45	417.63
686.79	415.41
687.13	413.22
687.46	411.10
687.80	409.01
688.14	406.73
688.48	404.70
688.81	402.48
689.15	400.29
689.49	398.16
689.82	396.13
690.16	394.07
690.50	392.10
690.83	390.16
691.17	388.17
691.51	386.29
691.84	384.47
692.18	382.51
692.52	380.52
692.85	378.61
693.19	376.80
693.52	374.99
693.86	373.17
694.20	371.40
694.53	369.62
694.87	367.74
695.21	365.99
695.54	364.20
695.88	362.53
696.21	360.87
696.55	359.21
696.88	357.50
697.22	355.90
697.56	354.27
697.89	352.59
698.23	350.98
698.56	349.42
698.90	347.82
699.23	346.22
699.57	344.72
699.90	343.22
700.24	341.66
700.58	340.15
700.91	338.64
701.25	337.23
701.58	335.82
701.92	334.51
702.25	333.13
702.59	331.74
702.92	330.39
703.26	329.03
703.59	327.75
703.93	326.58
704.26	325.29
704.60	324.09
704.93	322.88
705.26	321.61
705.60	320.43
705.93	319.27
706.27	318.24
706.60	317.21
706.94	316.10
707.27	314.96
707.61	313.91
707.94	312.95
708.27	311.84
708.61	310.76
708.94	309.73
709.28	308.79
709.61	307.87
709.94	306.91
710.28	305.86
710.61	304.87
710.95	303.81
711.28	302.91
711.61	301.90
711.95	300.93
712.28	300.00
712.61	299.02
712.95	298.14
713.28	297.24
713.61	296.28
713.95	295.39
714.28	294.58
714.61	293.65
714.95	292.76
715.28	291.90
715.61	291.05
715.95	290.20
716.28	289.32
716.61	288.47
716.95	287.66
717.28	286.97
717.61	286.22
717.94	285.47
718.28	284.65
718.61	283.97
718.94	283.33
719.27	282.67
719.61	281.99
719.94	281.29
720.27	280.57
720.60	279.92
720.94	279.26
721.27	278.67
721.60	278.16
721.93	277.56
722.27	277.04
722.60	276.50
722.93	275.90
723.26	275.34
723.59	274.79
723.93	274.22
724.26	273.67
724.59	273.10
724.92	272.57
725.25	272.09
725.59	271.55
725.92	271.03
726.25	270.50
726.58	270.00
726.91	269.51
727.24	269.07
727.57	268.63
727.91	268.17
728.24	267.69
728.57	267.18
728.90	266.72
729.23	266.20
729.56	265.76
729.89	265.32
730.22	264.89
730.55	264.41
730.89	264.02
731.22	263.59
731.55	263.20
731.88	262.82
732.21	262.37
732.54	261.95
732.87	261.52
733.20	261.18
733.53	260.79
733.86	260.41
734.19	260.01
734.52	259.65
734.85	259.33
735.18	258.88
735.51	258.53
735.84	258.20
736.17	257.88
736.50	257.49
736.83	257.28
737.16	256.92
737.49	256.62
737.82	256.24
738.15	255.93
738.48	255.58
738.81	255.23
739.14	254.94
739.47	254.65
739.80	254.36
740.13	254.04
740.46	253.75
740.79	253.43
741.12	253.13
741.45	252.79
741.78	252.43
742.11	252.20
742.44	251.89
742.77	251.59
743.10	251.27
743.43	250.97
743.75	250.58
744.08	250.44
744.41	250.18
744.74	249.92
745.07	249.63
745.40	249.42
745.73	249.20
746.06	248.94
746.39	248.70
746.71	248.42
747.04	248.13
747.37	247.88
747.70	247.63
748.03	247.36
748.36	247.15
748.68	246.94
749.01	246.68
749.34	246.46
749.67	246.22
750.00	246.01
750.33	245.85
750.65	245.64
750.98	245.32
751.31	245.08
751.64	244.87
751.97	244.72
752.29	244.47
752.62	244.23
752.95	243.97
753.28	243.74
753.60	243.52
753.93	243.37
754.26	243.14
754.59	242.90
754.91	242.70
755.24	242.51
755.57	242.29
755.90	242.11
756.22	241.91
756.55	241.71
756.88	241.52
757.20	241.28
757.53	241.07
757.86	240.87
758.19	240.68
758.51	240.52
758.84	240.27
759.17	240.06
759.49	239.88
759.82	239.78
760.15	239.60
760.47	239.46
760.80	239.23
761.13	239.13
761.45	239.00
761.78	238.85
762.11	238.69
762.43	238.55
762.76	238.41
763.08	238.30
763.41	238.16
763.74	238.04
764.06	237.90
764.39	237.77
764.71	237.62
765.04	237.50
765.37	237.34
765.69	237.23
766.02	237.12
766.34	236.99
766.67	236.84
767.00	236.77
767.32	236.69
767.65	236.63
767.97	236.47
768.30	236.35
768.62	236.25
768.95	236.11
769.27	236.01
769.60	235.91
769.92	235.76
770.25	235.64
770.57	235.51
770.90	235.39
771.22	235.31
771.55	235.22
771.87	235.12
772.20	235.03
772.52	234.99
772.85	235.03
773.17	234.95
773.50	234.83
773.82	234.70
774.15	234.56
774.47	234.43
774.80	234.33
775.12	234.26
775.45	234.15
775.77	234.09
776.09	234.02
776.42	233.97
776.74	233.92
777.07	233.85
777.39	233.78
777.72	233.75
778.04	233.67
778.36	233.62
778.69	233.56
779.01	233.51
779.33	233.36
779.66	233.20
779.98	233.11
780.31	233.10
780.63	233.09
780.95	233.07
781.28	233.04
781.60	233.01
781.92	232.95
782.25	232.88
782.57	232.82
782.89	232.77
783.22	232.68
783.54	232.62
783.86	232.60
784.19	232.51
784.51	232.47
784.83	232.40
785.16	232.33
785.48	232.31
785.80	232.25
786.12	232.24
786.45	232.20
786.77	232.17
787.09	232.09
787.42	232.03
787.74	231.98
788.06	231.92
788.38	231.86
788.71	231.81
789.03	231.82
789.35	231.80
789.67	231.72
789.99	231.67
790.32	231.60
790.64	231.57
790.96	231.61
791.28	231.54
791.61	231.49
791.93	231.47
792.25	231.36
792.57	231.41
792.89	231.32
793.21	231.27
793.54	231.22
793.86	231.14
794.18	231.09
794.50	231.04
794.82	230.99
795.14	230.98
795.47	230.96
795.79	230.86
796.11	230.80
796.43	230.78
796.75	230.73
797.07	230.68
797.39	230.62
797.71	230.52
798.04	230.47
798.36	230.44
798.68	230.37
799.00	230.38
799.32	230.26
799.64	230.23
799.96	230.20
800.28	230.19
800.60	230.17
800.92	230.13
801.24	230.09
801.56	230.05
801.89	229.99
802.21	229.99
802.53	229.98
802.85	229.98
803.17	229.99
803.49	229.95
803.81	229.95
804.13	229.94
804.45	229.92
804.77	229.89
805.09	229.88
805.41	229.88
805.73	229.84
806.05	229.81
806.37	229.81
806.69	229.77
807.01	229.71
807.33	229.74
807.65	229.65
807.97	229.66
808.28	229.65
808.60	229.62
808.92	229.57
809.24	229.63
809.56	229.57
809.88	229.52
810.20	229.49
810.52	229.47
810.84	229.45
811.16	229.41
811.48	229.41
811.80	229.43
812.12	229.40
812.43	229.38
812.75	229.36
813.07	229.32
813.39	229.29
813.71	229.27
814.03	229.24
814.35	229.26
814.67	229.22
814.98	229.19
815.30	229.22
815.62	229.17
815.94	229.07
816.26	229.11
816.58	229.07
816.89	229.08
817.21	229.02
817.53	229.00
817.85	229.00
818.17	228.98
818.48	228.92
818.80	228.92
819.12	228.93
819.44	228.89
819.76	228.90
820.07	228.92
820.39	228.95
820.71	228.91
821.03	228.91
821.34	228.86
821.66	228.90
821.98	228.83
822.30	228.83
822.61	228.90
822.93	228.82
823.25	228.83
823.57	228.79
823.88	228.83
824.20	228.84
824.52	228.86
824.83	228.84
825.15	228.83
825.47	228.82
825.79	228.82
826.10	228.81
826.42	228.79
826.74	228.78
827.05	228.71
827.37	228.68
827.69	228.66
828.00	228.66
828.32	228.64
828.64	228.63
828.95	228.66
829.27	228.63
829.58	228.64
829.90	228.63
830.22	228.63
830.53	228.61
830.85	228.56
831.17	228.50
831.48	228.49
831.80	228.45
832.11	228.43
832.43	228.37
832.75	228.36
833.06	228.42
833.38	228.36
833.69	228.39
834.01	228.41
834.32	228.40
834.64	228.36
834.96	228.35
835.27	228.34
835.59	228.29
835.90	228.23
836.22	228.22
836.53	228.16
836.85	228.13
837.16	228.21
837.48	228.20
837.79	228.24
838.11	228.22
838.42	228.22
838.74	228.24
839.05	228.24
839.37	228.21
839.68	228.13
840.00	228.14
840.31	228.13
840.63	228.12
840.94	228.08
841.26	228.09
841.57	228.05
841.88	228.07
842.20	228.02
842.51	227.99
842.83	227.96
843.14	228.09
843.46	228.10
843.77	228.05
844.08	228.03
844.40	227.96
844.71	227.94
845.03	227.93
845.34	227.89
845.65	227.89
845.97	227.87
846.28	227.86
846.60	227.85
846.91	227.81
847.22	227.78
847.54	227.81
847.85	227.81
848.16	227.81
848.48	227.77
848.79	227.81
849.10	227.86
849.42	227.87
849.73	227.75
850.04	227.70
850.36	227.66
850.67	227.67
850.98	227.69
851.30	227.72
851.61	227.69
851.92	227.67
852.23	227.68
852.55	227.69
852.86	227.70
853.17	227.68
853.49	227.71
853.80	227.70
854.11	227.72
854.42	227.71
854.74	227.71
855.05	227.73
855.36	227.68
855.67	227.65
855.99	227.62
856.30	227.73
856.61	227.76
856.92	227.77
857.23	227.77
857.55	227.74
857.86	227.72
858.17	227.76
858.48	227.75
858.79	227.74
859.11	227.75
859.42	227.76
859.73	227.76
860.04	227.74
860.35	227.75
860.66	227.71
860.98	227.72
861.29	227.72
861.60	227.70
861.91	227.71
862.22	227.72
862.53	227.71
862.84	227.61
863.16	227.65
863.47	227.62
863.78	227.63
864.09	227.65
864.40	227.67
864.71	227.65
865.02	227.70
865.33	227.65
865.64	227.63
865.95	227.60
866.27	227.70
866.58	227.70
866.89	227.69
867.20	227.70
867.51	227.67
867.82	227.66
868.13	227.69
868.44	227.70
868.75	227.69
869.06	227.72
869.37	227.72
869.68	227.67
869.99	227.69
870.30	227.67
870.61	227.69
870.92	227.69
871.23	227.69
871.54	227.65
871.85	227.67
872.16	227.66
872.47	227.65
872.78	227.58
873.09	227.56
873.40	227.56
873.71	227.57
874.02	227.57
874.33	227.56
874.64	227.53
874.95	227.52
875.26	227.49
875.56	227.49
875.87	227.48
876.18	227.47
876.49	227.56
876.80	227.53
877.11	227.49
877.42	227.47
877.73	227.45
878.04	227.43
878.35	227.46
878.66	227.49
878.96	227.47
879.27	227.46
879.58	227.47
879.89	227.46
880.20	227.48
880.51	227.46
880.82	227.47
881.12	227.47
881.43	227.44
881.74	227.42
882.05	227.42
882.36	227.41
882.67	227.42
882.97	227.28
883.28	227.30
883.59	227.28
883.90	227.30
884.21	227.31
884.51	227.31
884.82	227.31
885.13	227.30
885.44	227.29
885.74	227.26
886.05	227.25
886.36	227.26
886.67	227.22
886.98	227.26
887.28	227.27
887.59	227.25
887.90	227.26
888.20	227.26
888.51	227.28
888.82	227.25
889.13	227.25
889.43	227.36
889.74	227.35
890.05	227.37
890.35	227.34
890.66	227.32
890.97	227.33
891.28	227.33
891.58	227.31
891.89	227.34
892.20	227.35
892.50	227.33
892.81	227.30
893.12	227.29
893.42	227.28
893.73	227.27
894.04	227.28
894.34	227.30
894.65	227.31
894.95	227.30
895.26	227.31
895.57	227.37
895.87	227.28
896.18	227.27
896.48	227.28
896.79	227.29
897.10	227.32
897.40	227.32
897.71	227.34
898.01	227.34
898.32	227.35
898.63	227.35
898.93	227.38
899.24	227.39
899.54	227.38
899.85	227.38
900.15	227.37
900.46	227.36
900.76	227.38
901.07	227.38
901.38	227.38
901.68	227.41
901.99	227.34
902.29	227.34
902.60	227.35
902.90	227.36
903.21	227.36
903.51	227.35
903.82	227.38
904.12	227.37
904.43	227.37
904.73	227.36
905.03	227.36
905.34	227.44
905.64	227.44
905.95	227.43
906.25	227.45
906.56	227.47
906.86	227.48
907.17	227.46
907.47	227.47
907.77	227.48
908.08	227.44
908.38	227.49
908.69	227.50
908.99	227.53
909.30	227.53
909.60	227.55
909.90	227.57
910.21	227.52
910.51	227.47
910.81	227.47
911.12	227.47
911.42	227.49
911.73	227.40
912.03	227.40
912.33	227.43
912.64	227.40
912.94	227.38
913.24	227.32
913.55	227.34
913.85	227.35
914.15	227.34
914.46	227.41
914.76	227.37
915.06	227.33
915.37	227.31
915.67	227.31
915.97	227.30
916.27	227.26
916.58	227.29
916.88	227.30
917.18	227.31
917.49	227.38
917.79	227.36
918.09	227.36
918.39	227.41
918.70	227.41
919.00	227.44
919.30	227.48
919.60	227.51
919.91	227.48
920.21	227.43
920.51	227.42
920.81	227.37
921.12	227.41
921.42	227.45
921.72	227.45
922.02	227.43
922.32	227.45
922.63	227.47
922.93	227.50
923.23	227.54
923.53	227.54
923.83	227.49
924.13	227.52
924.44	227.53
924.74	227.54
925.04	227.53
925.34	227.51
925.64	227.50
925.94	227.55
926.24	227.60
926.55	227.63
926.85	227.65
927.15	227.69
927.45	227.68
927.75	227.65
928.05	227.66
928.35	227.66
928.65	227.66
928.95	227.65
929.26	227.63
929.56	227.63
929.86	227.64
930.16	227.64
930.46	227.64
930.76	227.67
931.06	227.66
931.36	227.70
931.66	227.73
931.96	227.73
932.26	227.69
932.56	227.64
932.86	227.65
933.16	227.65
933.46	227.61
933.76	227.61
934.06	227.68
934.36	227.72
934.66	227.71
934.96	227.69
935.26	227.72
935.56	227.72
935.86	227.68
936.16	227.64
936.46	227.62
936.76	227.60
937.06	227.55
937.36	227.52
937.66	227.52
937.96	227.49
938.26	227.44
938.56	227.45
938.86	227.50
939.16	227.54
939.46	227.53
939.76	227.55
940.06	227.54
940.35	227.47
940.65	227.43
940.95	227.42
941.25	227.40
941.55	227.37
941.85	227.35
942.15	227.35
942.45	227.36
942.75	227.34
943.04	227.30
943.34	227.32
943.64	227.30
943.94	227.27
944.24	227.27
944.54	227.29
944.84	227.28
945.13	227.22
945.43	227.19
945.73	227.20
946.03	227.18
946.33	227.17
946.62	227.19
946.92	227.16
947.22	227.16
947.52	227.15
947.82	227.15
948.11	227.15
948.41	227.14
948.71	227.12
949.01	227.13
949.31	227.12
949.60	227.12
949.90	227.12
950.20	227.07
950.50	227.05
950.79	227.04
951.09	227.05
951.39	227.06
951.69	227.02
951.98	226.97
952.28	226.96
952.58	226.95
952.87	226.89
953.17	226.92
953.47	226.91
953.76	226.92
954.06	226.90
954.36	226.86
954.66	226.85
954.95	226.89
955.25	226.87
955.55	226.85
955.84	226.81
956.14	226.82
956.44	226.85
956.73	226.87
957.03	226.85
957.32	226.83
957.62	226.79
957.92	226.80
958.21	226.81
958.51	226.89
958.81	226.88
959.10	226.92
959.40	226.94
959.69	226.94
959.99	226.97
960.29	226.97
960.58	226.97
960.88	227.01
961.17	227.01
961.47	227.02
961.76	227.03
962.06	227.06
962.36	227.04
962.65	227.04
962.95	227.00
963.24	226.98
963.54	226.98
963.83	226.99
964.13	227.01
964.42	226.97
964.72	226.91
965.01	226.94
965.31	226.95
965.60	226.91
965.90	226.98
966.19	226.95
966.49	226.97
966.78	226.99
967.08	226.97
967.37	226.95
967.67	226.96
967.96	227.00
968.26	226.99
968.55	227.04
968.85	227.06
969.14	227.09
969.43	227.13
969.73	227.13
970.02	227.14
970.32	227.14
970.61	227.18
970.91	227.19
971.20	227.17
971.49	227.16
971.79	227.18
972.08	227.08
972.38	227.09
972.67	227.08
972.96	227.11
973.26	227.12
973.55	227.17
973.85	227.17
974.14	227.19
974.43	227.19
974.73	227.16
975.02	227.16
975.31	227.17
975.61	227.16
975.90	227.18
976.19	227.20
976.49	227.20
976.78	227.22
977.07	227.22
977.37	227.23
977.66	227.23
977.95	227.22
978.24	227.25
978.54	227.27
978.83	227.26
979.12	227.23
979.42	227.25
979.71	227.23
980.00	227.25
980.29	227.24
980.59	227.22
980.88	227.28
981.17	227.25
981.46	227.23
981.76	227.22
982.05	227.24
982.34	227.24
982.63	227.23
982.93	227.23
983.22	227.26
983.51	227.26
983.80	227.27
984.09	227.26
984.39	227.26
984.68	227.23
984.97	227.25
985.26	227.23
985.55	227.23
985.85	227.21
986.14	227.21
986.43	227.20
986.72	227.21
987.01	227.15
987.30	227.16
987.59	227.17
987.89	227.21
988.18	227.14
988.47	227.14
988.76	227.16
989.05	227.09
989.34	227.07
989.63	227.10
989.92	227.09
990.22	227.08
990.51	227.05
990.80	227.05
991.09	227.02
991.38	227.01
991.67	226.99
991.96	226.98
992.25	226.99
992.54	226.98
992.83	226.98
993.12	226.98
993.41	226.98
993.70	227.03
993.99	227.02
994.28	227.02
994.58	227.02
994.87	226.99
995.16	227.01
995.45	227.01
995.74	226.97
996.03	227.01
996.32	227.02
996.61	227.06
996.90	227.05
997.19	227.10
997.48	227.13
997.77	227.11
998.06	227.10
998.34	227.05
998.63	227.04
998.92	227.02
999.21	227.03
999.50	227.05
999.79	227.01
1000.08	227.01
1000.37	227.07
1000.66	227.06
1000.95	227.07
1001.24	227.11
1001.53	227.13
1001.82	227.13
1002.11	227.09
1002.40	227.10
1002.68	227.13
1002.97	227.20
1003.26	227.18
1003.55	227.17
1003.84	227.20
1004.13	227.28
1004.42	227.30
1004.71	227.33
1004.99	227.32
1005.28	227.35
1005.57	227.35
1005.86	227.34
1006.15	227.34
1006.44	227.28
1006.72	227.28
1007.01	227.29
1007.30	227.27
1007.59	227.23
1007.88	227.26
1008.17	227.30
1008.45	227.29
1008.74	227.26
1009.03	227.22
1009.32	227.25
1009.60	227.27
1009.89	227.26
1010.18	227.19
1010.47	227.18
1010.76	227.19
1011.04	227.22
1011.33	227.22
1011.62	227.22
1011.91	227.23
1012.19	227.23
1012.48	227.25
1012.77	227.28
1013.05	227.34
1013.34	227.37
1013.63	227.35
1013.92	227.34
1014.20	227.29
1014.49	227.31
1014.78	227.31
1015.06	227.29
1015.35	227.26
1015.64	227.26
1015.92	227.28
1016.21	227.30
1016.50	227.32
1016.78	227.31
1017.07	227.32
1017.36	227.27
1017.64	227.26
1017.93	227.28
1018.22	227.30
1018.50	227.30
1018.79	227.29
1019.08	227.21
1019.36	227.20
1019.65	227.22
1019.93	227.23
1020.22	227.22
1020.51	227.24
1020.79	227.22
1021.08	227.45
1021.36	226.93
1021.65	227.24
1021.94	226.81
1022.22	227.09
1022.51	227.22
1022.79	227.59
1023.08	226.57
1023.36	227.96
1023.65	227.05
>>>>>End Processed Spectral Data<<<<<
