SpectraSuite Data File
++++++++++++++++++++++++++++++++++++
Date: Fri Feb 01 15:18:23 EST 2013
User: group
Dark Spectrum Present: No
Reference Spectrum Present: No
Number of Sampled Component Spectra: 1
Spectrometers: USB2E7196
Integration Time (usec): 35000 (USB2E7196)
Spectra Averaged: 100 (USB2E7196)
Boxcar Smoothing: 10 (USB2E7196)
Correct for Electrical Dark: No (USB2E7196)
Strobe/Lamp Enabled: No (USB2E7196)
Correct for Detector Non-linearity: No (USB2E7196)
Correct for Stray Light: No (USB2E7196)
Number of Pixels in Processed Spectrum: 2048
>>>>>Begin Processed Spectral Data<<<<<
339.09	0.00
339.48	215.15
339.86	216.88
340.24	218.14
340.63	218.73
341.01	222.24
341.39	222.00
341.78	223.08
342.16	224.24
342.54	224.78
342.93	213.39
343.31	224.17
343.69	224.71
344.07	225.15
344.46	225.56
344.84	225.96
345.22	226.18
345.60	226.45
345.99	226.64
346.37	226.77
346.75	226.88
347.13	226.93
347.52	226.94
347.90	227.02
348.28	227.07
348.66	227.14
349.05	227.12
349.43	227.17
349.81	227.24
350.19	227.24
350.57	227.28
350.96	227.37
351.34	227.42
351.72	227.48
352.10	227.58
352.48	227.65
352.87	227.67
353.25	227.75
353.63	227.79
354.01	227.86
354.39	227.94
354.77	228.02
355.15	228.13
355.54	228.18
355.92	228.20
356.30	228.25
356.68	228.36
357.06	228.46
357.44	228.50
357.82	228.54
358.20	228.65
358.58	228.75
358.97	228.79
359.35	228.89
359.73	228.97
360.11	229.04
360.49	229.10
360.87	229.17
361.25	229.22
361.63	229.31
362.01	229.36
362.39	229.38
362.77	229.40
363.15	229.42
363.53	229.51
363.91	229.52
364.29	229.53
364.67	229.48
365.05	229.44
365.43	229.49
365.81	229.51
366.19	229.54
366.57	229.54
366.95	229.52
367.33	229.49
367.71	229.48
368.09	229.48
368.47	229.43
368.85	229.39
369.23	229.38
369.61	229.32
369.99	229.30
370.37	229.29
370.75	229.32
371.13	229.26
371.51	229.18
371.89	229.15
372.27	229.13
372.65	229.09
373.03	229.09
373.41	229.00
373.78	228.93
374.16	228.84
374.54	228.76
374.92	228.70
375.30	228.63
375.68	228.54
376.06	228.50
376.44	228.45
376.82	228.39
377.19	228.28
377.57	228.18
377.95	228.06
378.33	228.00
378.71	227.86
379.09	227.81
379.47	227.74
379.84	227.61
380.22	227.52
380.60	227.40
380.98	227.28
381.36	227.20
381.73	227.09
382.11	227.05
382.49	226.97
382.87	226.91
383.25	226.83
383.62	226.87
384.00	226.76
384.38	226.69
384.76	226.67
385.13	226.67
385.51	226.62
385.89	226.62
386.27	226.57
386.64	226.54
387.02	226.46
387.40	226.39
387.78	226.40
388.15	226.38
388.53	226.35
388.91	226.34
389.29	226.32
389.66	226.37
390.04	226.30
390.42	226.29
390.79	226.28
391.17	226.28
391.55	226.18
391.92	226.19
392.30	226.23
392.68	226.21
393.05	226.23
393.43	226.24
393.81	226.25
394.18	226.27
394.56	226.29
394.94	226.36
395.31	226.41
395.69	226.49
396.06	226.53
396.44	226.59
396.82	226.62
397.19	226.74
397.57	226.73
397.95	226.83
398.32	226.86
398.70	226.93
399.07	227.04
399.45	227.09
399.82	227.18
400.20	227.21
400.58	227.33
400.95	227.37
401.33	227.48
401.70	227.61
402.08	227.69
402.45	227.78
402.83	227.91
403.20	228.04
403.58	228.13
403.95	228.26
404.33	228.40
404.71	228.54
405.08	228.72
405.46	228.87
405.83	229.02
406.21	229.21
406.58	229.38
406.96	229.55
407.33	229.73
407.70	229.93
408.08	230.21
408.45	230.42
408.83	230.64
409.20	230.91
409.58	231.10
409.95	231.35
410.33	231.64
410.70	231.85
411.08	232.15
411.45	232.46
411.82	232.78
412.20	233.14
412.57	233.52
412.95	233.78
413.32	234.19
413.69	234.58
414.07	235.01
414.44	235.45
414.82	235.90
415.19	236.46
415.56	236.98
415.94	237.52
416.31	238.17
416.68	238.82
417.06	239.51
417.43	240.20
417.81	240.99
418.18	241.74
418.55	242.58
418.93	243.44
419.30	244.31
419.67	245.23
420.04	246.13
420.42	247.16
420.79	248.35
421.16	249.51
421.54	250.72
421.91	251.93
422.28	253.17
422.66	254.53
423.03	255.81
423.40	257.15
423.77	258.58
424.15	259.98
424.52	261.45
424.89	263.03
425.26	264.53
425.64	265.97
426.01	267.55
426.38	269.23
426.75	270.88
427.13	272.61
427.50	274.45
427.87	276.36
428.24	278.23
428.61	280.02
428.99	281.96
429.36	284.06
429.73	286.14
430.10	288.18
430.47	290.24
430.85	292.36
431.22	294.58
431.59	296.96
431.96	299.16
432.33	301.68
432.70	304.13
433.08	306.95
433.45	309.64
433.82	312.28
434.19	315.21
434.56	318.09
434.93	320.76
435.30	323.35
435.68	326.22
436.05	329.05
436.42	331.83
436.79	334.37
437.16	337.10
437.53	339.96
437.90	342.82
438.27	345.58
438.64	348.41
439.01	351.02
439.38	353.30
439.75	355.52
440.13	358.01
440.50	360.30
440.87	362.23
441.24	364.17
441.61	366.31
441.98	367.82
442.35	369.62
442.72	371.50
443.09	373.31
443.46	374.32
443.83	374.90
444.20	375.39
444.57	376.19
444.94	376.43
445.31	376.73
445.68	377.09
446.05	377.15
446.42	376.80
446.79	376.45
447.16	375.98
447.53	375.67
447.90	374.51
448.27	373.34
448.64	371.72
449.01	370.56
449.37	368.60
449.74	366.68
450.11	364.37
450.48	361.87
450.85	359.38
451.22	357.26
451.59	355.20
451.96	353.26
452.33	350.68
452.70	348.35
453.07	345.52
453.43	342.59
453.80	339.81
454.17	337.12
454.54	334.52
454.91	331.77
455.28	329.06
455.65	326.56
456.02	324.10
456.38	321.96
456.75	319.27
457.12	317.01
457.49	314.79
457.86	312.62
458.23	310.74
458.59	308.66
458.96	306.58
459.33	304.75
459.70	302.88
460.07	301.38
460.43	299.65
460.80	298.01
461.17	296.57
461.54	295.11
461.91	293.66
462.27	292.22
462.64	290.99
463.01	289.67
463.38	288.35
463.74	286.97
464.11	285.80
464.48	284.79
464.85	283.69
465.21	282.78
465.58	281.87
465.95	280.79
466.32	279.88
466.68	278.97
467.05	278.05
467.42	277.16
467.78	276.23
468.15	275.34
468.52	274.70
468.88	273.81
469.25	272.98
469.62	272.37
469.98	271.68
470.35	271.07
470.72	270.45
471.08	269.78
471.45	269.22
471.82	268.63
472.18	267.97
472.55	267.52
472.92	267.03
473.28	266.57
473.65	266.11
474.02	265.67
474.38	265.25
474.75	264.96
475.11	264.56
475.48	264.26
475.85	264.03
476.21	263.71
476.58	263.55
476.94	263.41
477.31	263.21
477.67	263.05
478.04	262.88
478.41	262.81
478.77	262.85
479.14	262.80
479.50	262.81
479.87	262.93
480.23	263.04
480.60	263.11
480.96	263.17
481.33	263.37
481.69	263.54
482.06	263.74
482.42	263.90
482.79	264.20
483.15	264.51
483.52	264.89
483.88	265.29
484.25	265.66
484.61	266.11
484.98	266.56
485.34	267.12
485.71	267.72
486.07	268.32
486.44	268.88
486.80	269.59
487.17	270.35
487.53	271.13
487.90	271.94
488.26	272.85
488.62	273.84
488.99	274.81
489.35	275.86
489.72	277.00
490.08	278.21
490.44	279.46
490.81	280.80
491.17	282.17
491.54	283.68
491.90	285.21
492.26	286.81
492.63	288.52
492.99	290.29
493.36	292.20
493.72	294.27
494.08	296.38
494.45	298.61
494.81	300.91
495.17	303.34
495.54	305.94
495.90	308.62
496.26	311.42
496.63	314.41
496.99	317.52
497.35	320.76
497.72	324.13
498.08	327.67
498.44	331.32
498.80	335.23
499.17	339.22
499.53	343.39
499.89	347.81
500.26	352.31
500.62	357.00
500.98	361.91
501.34	366.96
501.71	372.26
502.07	377.68
502.43	383.32
502.79	389.15
503.16	395.18
503.52	401.52
503.88	407.92
504.24	414.58
504.60	421.52
504.97	428.69
505.33	436.05
505.69	443.75
506.05	451.58
506.41	459.45
506.78	467.61
507.14	476.08
507.50	484.81
507.86	493.85
508.22	502.99
508.59	512.22
508.95	521.82
509.31	531.65
509.67	541.75
510.03	552.05
510.39	562.57
510.75	573.42
511.12	584.29
511.48	595.66
511.84	607.03
512.20	618.50
512.56	630.40
512.92	642.63
513.28	654.87
513.64	667.29
514.00	680.02
514.37	693.02
514.73	705.99
515.09	719.00
515.45	732.28
515.81	745.92
516.17	759.97
516.53	773.98
516.89	788.17
517.25	802.42
517.61	816.90
517.97	831.43
518.33	845.84
518.69	860.63
519.05	875.60
519.41	890.83
519.77	906.39
520.13	921.89
520.49	937.25
520.85	952.72
521.21	968.50
521.57	984.77
521.93	1000.52
522.29	1017.08
522.65	1033.36
523.01	1049.64
523.37	1065.68
523.73	1081.92
524.09	1098.18
524.45	1114.52
524.81	1131.20
525.17	1148.04
525.53	1164.96
525.89	1181.89
526.25	1198.71
526.61	1215.11
526.97	1231.94
527.33	1248.44
527.68	1265.07
528.04	1281.56
528.40	1298.35
528.76	1315.40
529.12	1331.92
529.48	1348.92
529.84	1364.98
530.20	1381.59
530.56	1398.69
530.91	1416.18
531.27	1432.86
531.63	1449.32
531.99	1465.99
532.35	1481.91
532.71	1497.88
533.07	1514.11
533.42	1530.03
533.78	1546.12
534.14	1562.49
534.50	1577.86
534.86	1593.95
535.21	1609.20
535.57	1625.37
535.93	1640.84
536.29	1655.79
536.65	1670.96
537.00	1685.80
537.36	1701.17
537.72	1715.96
538.08	1730.49
538.44	1744.39
538.79	1758.46
539.15	1772.26
539.51	1786.23
539.87	1800.75
540.22	1814.59
540.58	1828.51
540.94	1842.01
541.29	1855.13
541.65	1867.90
542.01	1881.34
542.37	1893.63
542.72	1906.07
543.08	1917.81
543.44	1930.36
543.79	1941.47
544.15	1952.57
544.51	1964.16
544.87	1975.19
545.22	1985.93
545.58	1996.16
545.94	2005.96
546.29	2015.76
546.65	2025.60
547.01	2034.70
547.36	2043.53
547.72	2052.06
548.07	2059.90
548.43	2068.09
548.79	2076.11
549.14	2083.63
549.50	2090.93
549.86	2098.66
550.21	2106.08
550.57	2113.25
550.92	2119.77
551.28	2127.14
551.64	2134.18
551.99	2140.83
552.35	2146.99
552.70	2153.21
553.06	2159.11
553.41	2165.46
553.77	2171.63
554.13	2177.80
554.48	2183.98
554.84	2189.38
555.19	2194.54
555.55	2199.71
555.90	2204.12
556.26	2208.96
556.61	2213.72
556.97	2217.85
557.32	2221.92
557.68	2226.07
558.03	2230.29
558.39	2234.01
558.74	2238.45
559.10	2242.29
559.45	2245.89
559.81	2250.22
560.16	2253.99
560.52	2257.15
560.87	2260.58
561.23	2263.05
561.58	2265.96
561.94	2268.36
562.29	2270.69
562.64	2273.47
563.00	2276.17
563.35	2279.66
563.71	2282.63
564.06	2285.92
564.42	2288.92
564.77	2291.32
565.12	2293.44
565.48	2295.47
565.83	2297.28
566.19	2298.50
566.54	2299.53
566.89	2300.54
567.25	2300.96
567.60	2302.23
567.96	2303.81
568.31	2304.64
568.66	2305.87
569.02	2306.39
569.37	2306.70
569.72	2307.48
570.08	2307.40
570.43	2307.36
570.78	2306.70
571.14	2305.17
571.49	2303.68
571.84	2303.27
572.20	2302.02
572.55	2301.01
572.90	2299.27
573.26	2297.75
573.61	2296.08
573.96	2294.13
574.31	2290.95
574.67	2287.71
575.02	2284.08
575.37	2280.82
575.72	2276.78
576.08	2273.43
576.43	2270.00
576.78	2266.36
577.13	2263.10
577.49	2259.98
577.84	2256.44
578.19	2252.65
578.54	2248.94
578.90	2244.56
579.25	2238.84
579.60	2233.89
579.95	2228.74
580.30	2223.61
580.66	2218.33
581.01	2213.34
581.36	2208.36
581.71	2204.21
582.06	2199.81
582.42	2195.21
582.77	2189.81
583.12	2185.13
583.47	2180.16
583.82	2175.03
584.17	2169.56
584.53	2164.00
584.88	2158.25
585.23	2152.18
585.58	2146.60
585.93	2141.11
586.28	2136.31
586.63	2131.12
586.98	2125.80
587.34	2121.10
587.69	2116.09
588.04	2110.78
588.39	2104.88
588.74	2098.36
589.09	2092.16
589.44	2085.29
589.79	2079.10
590.14	2073.22
590.49	2066.73
590.84	2060.28
591.19	2054.20
591.54	2047.67
591.89	2040.10
592.25	2033.20
592.60	2026.08
592.95	2018.35
593.30	2010.90
593.65	2003.29
594.00	1996.38
594.35	1989.27
594.70	1981.13
595.05	1973.84
595.40	1966.48
595.75	1958.92
596.10	1952.56
596.45	1945.79
596.80	1939.69
597.15	1932.92
597.50	1925.93
597.85	1919.38
598.19	1912.77
598.54	1905.72
598.89	1899.18
599.24	1893.23
599.59	1886.56
599.94	1880.29
600.29	1874.00
600.64	1867.40
600.99	1859.77
601.34	1852.70
601.69	1845.71
602.04	1838.70
602.39	1831.47
602.74	1824.69
603.08	1818.02
603.43	1811.29
603.78	1804.04
604.13	1796.69
604.48	1789.40
604.83	1782.53
605.18	1775.49
605.53	1767.32
605.87	1759.10
606.22	1751.84
606.57	1743.83
606.92	1736.47
607.27	1729.27
607.62	1722.23
607.96	1714.95
608.31	1708.32
608.66	1700.58
609.01	1692.94
609.36	1685.46
609.70	1677.34
610.05	1669.19
610.40	1661.48
610.75	1653.08
611.10	1645.32
611.44	1636.98
611.79	1629.08
612.14	1620.41
612.49	1611.20
612.83	1602.91
613.18	1594.86
613.53	1586.71
613.88	1578.32
614.22	1570.06
614.57	1561.41
614.92	1553.44
615.27	1545.90
615.61	1537.68
615.96	1529.82
616.31	1522.27
616.65	1514.90
617.00	1507.35
617.35	1499.67
617.70	1491.22
618.04	1482.66
618.39	1474.39
618.74	1466.73
619.08	1458.43
619.43	1450.78
619.78	1443.88
620.12	1436.63
620.47	1429.06
620.82	1420.92
621.16	1413.44
621.51	1405.75
621.85	1398.22
622.20	1389.70
622.55	1381.34
622.89	1373.43
623.24	1365.77
623.59	1358.35
623.93	1350.76
624.28	1343.38
624.62	1335.86
624.97	1328.68
625.32	1322.01
625.66	1315.04
626.01	1307.79
626.35	1300.27
626.70	1292.65
627.04	1284.96
627.39	1277.22
627.73	1269.77
628.08	1262.84
628.43	1255.61
628.77	1248.25
629.12	1240.61
629.46	1233.41
629.81	1225.98
630.15	1218.75
630.50	1211.35
630.84	1203.16
631.19	1195.24
631.53	1187.86
631.88	1180.30
632.22	1172.75
632.57	1165.38
632.91	1157.83
633.26	1150.46
633.60	1143.21
633.95	1136.10
634.29	1129.14
634.64	1122.48
634.98	1115.21
635.32	1108.02
635.67	1101.47
636.01	1094.87
636.36	1088.12
636.70	1081.69
637.05	1075.12
637.39	1068.65
637.73	1062.14
638.08	1056.24
638.42	1050.30
638.77	1043.85
639.11	1037.32
639.45	1030.96
639.80	1024.33
640.14	1017.95
640.49	1011.52
640.83	1005.21
641.17	998.96
641.52	992.60
641.86	986.26
642.20	980.42
642.55	974.21
642.89	967.59
643.23	961.03
643.58	955.23
643.92	949.06
644.26	942.97
644.61	937.09
644.95	931.06
645.29	924.43
645.64	917.70
645.98	911.34
646.32	905.51
646.66	899.53
647.01	893.72
647.35	888.02
647.69	882.10
648.04	876.63
648.38	870.92
648.72	864.82
649.06	858.71
649.41	852.89
649.75	846.85
650.09	840.98
650.43	835.22
650.78	829.09
651.12	822.98
651.46	817.25
651.80	811.33
652.14	805.93
652.49	800.64
652.83	795.50
653.17	789.88
653.51	784.12
653.85	778.70
654.20	773.09
654.54	767.07
654.88	761.40
655.22	755.43
655.56	749.62
655.90	744.20
656.25	738.90
656.59	733.52
656.93	728.41
657.27	723.27
657.61	717.87
657.95	712.76
658.29	707.74
658.64	702.59
658.98	697.29
659.32	691.86
659.66	686.61
660.00	681.28
660.34	676.36
660.68	671.45
661.02	666.43
661.36	661.73
661.70	657.28
662.05	652.89
662.39	648.59
662.73	644.25
663.07	639.93
663.41	635.54
663.75	631.05
664.09	626.52
664.43	622.18
664.77	618.06
665.11	613.84
665.45	609.83
665.79	605.65
666.13	601.58
666.47	597.55
666.81	593.43
667.15	589.32
667.49	585.47
667.83	581.69
668.17	577.82
668.51	573.80
668.85	569.76
669.19	565.94
669.53	562.08
669.87	558.13
670.21	554.43
670.55	550.81
670.89	547.39
671.23	543.96
671.57	540.43
671.91	536.90
672.25	533.44
672.58	529.91
672.92	526.58
673.26	523.48
673.60	520.33
673.94	517.25
674.28	514.34
674.62	511.32
674.96	508.22
675.30	505.26
675.64	502.36
675.97	499.59
676.31	496.74
676.65	493.84
676.99	491.16
677.33	488.32
677.67	485.53
678.01	482.44
678.34	479.47
678.68	476.56
679.02	473.74
679.36	470.97
679.70	468.25
680.04	465.50
680.37	462.59
680.71	459.79
681.05	457.15
681.39	454.48
681.73	451.85
682.06	449.39
682.40	446.90
682.74	444.37
683.08	441.84
683.42	439.25
683.75	436.76
684.09	434.20
684.43	431.76
684.77	429.28
685.10	427.00
685.44	424.69
685.78	422.51
686.12	420.27
686.45	417.99
686.79	415.69
687.13	413.47
687.46	411.34
687.80	409.21
688.14	407.00
688.48	404.90
688.81	402.70
689.15	400.51
689.49	398.36
689.82	396.28
690.16	394.21
690.50	392.26
690.83	390.31
691.17	388.35
691.51	386.46
691.84	384.60
692.18	382.67
692.52	380.72
692.85	378.75
693.19	376.88
693.52	375.07
693.86	373.26
694.20	371.45
694.53	369.64
694.87	367.83
695.21	366.08
695.54	364.28
695.88	362.53
696.21	360.83
696.55	359.13
696.88	357.46
697.22	355.82
697.56	354.22
697.89	352.57
698.23	351.01
698.56	349.40
698.90	347.83
699.23	346.21
699.57	344.68
699.90	343.14
700.24	341.63
700.58	340.05
700.91	338.56
701.25	337.16
701.58	335.81
701.92	334.44
702.25	333.02
702.59	331.66
702.92	330.35
703.26	329.05
703.59	327.82
703.93	326.62
704.26	325.38
704.60	324.08
704.93	322.80
705.26	321.55
705.60	320.40
705.93	319.23
706.27	318.18
706.60	317.15
706.94	316.05
707.27	314.89
707.61	313.86
707.94	312.83
708.27	311.71
708.61	310.60
708.94	309.61
709.28	308.66
709.61	307.71
709.94	306.77
710.28	305.72
710.61	304.74
710.95	303.69
711.28	302.78
711.61	301.81
711.95	300.91
712.28	299.95
712.61	298.94
712.95	298.00
713.28	297.15
713.61	296.21
713.95	295.34
714.28	294.54
714.61	293.71
714.95	292.86
715.28	292.04
715.61	291.17
715.95	290.31
716.28	289.44
716.61	288.65
716.95	287.85
717.28	287.13
717.61	286.36
717.94	285.60
718.28	284.76
718.61	284.08
718.94	283.40
719.27	282.72
719.61	282.12
719.94	281.50
720.27	280.77
720.60	280.12
720.94	279.47
721.27	278.91
721.60	278.34
721.93	277.73
722.27	277.19
722.60	276.70
722.93	276.14
723.26	275.63
723.59	275.03
723.93	274.46
724.26	273.94
724.59	273.36
724.92	272.85
725.25	272.37
725.59	271.83
725.92	271.30
726.25	270.81
726.58	270.32
726.91	269.81
727.24	269.35
727.57	268.92
727.91	268.44
728.24	267.96
728.57	267.47
728.90	267.06
729.23	266.59
729.56	266.13
729.89	265.66
730.22	265.17
730.55	264.72
730.89	264.26
731.22	263.79
731.55	263.37
731.88	262.95
732.21	262.51
732.54	262.11
732.87	261.70
733.20	261.33
733.53	260.93
733.86	260.55
734.19	260.18
734.52	259.78
734.85	259.50
735.18	259.08
735.51	258.69
735.84	258.33
736.17	257.94
736.50	257.54
736.83	257.29
737.16	256.92
737.49	256.57
737.82	256.25
738.15	255.92
738.48	255.59
738.81	255.28
739.14	254.95
739.47	254.63
739.80	254.34
740.13	253.99
740.46	253.65
740.79	253.30
741.12	252.96
741.45	252.64
741.78	252.27
742.11	251.98
742.44	251.66
742.77	251.35
743.10	251.08
743.43	250.74
743.75	250.36
744.08	250.25
744.41	249.98
744.74	249.68
745.07	249.41
745.40	249.13
745.73	248.87
746.06	248.61
746.39	248.32
746.71	248.01
747.04	247.72
747.37	247.44
747.70	247.19
748.03	246.93
748.36	246.73
748.68	246.44
749.01	246.18
749.34	245.93
749.67	245.66
750.00	245.41
750.33	245.25
750.65	245.01
750.98	244.66
751.31	244.45
751.64	244.29
751.97	244.13
752.29	243.93
752.62	243.67
752.95	243.46
753.28	243.26
753.60	243.07
753.93	242.92
754.26	242.73
754.59	242.48
754.91	242.29
755.24	242.07
755.57	241.90
755.90	241.71
756.22	241.53
756.55	241.37
756.88	241.20
757.20	240.99
757.53	240.82
757.86	240.65
758.19	240.49
758.51	240.32
758.84	240.11
759.17	239.93
759.49	239.79
759.82	239.70
760.15	239.57
760.47	239.43
760.80	239.28
761.13	239.17
761.45	239.05
761.78	238.90
762.11	238.75
762.43	238.59
762.76	238.48
763.08	238.40
763.41	238.28
763.74	238.13
764.06	237.99
764.39	237.88
764.71	237.74
765.04	237.60
765.37	237.45
765.69	237.34
766.02	237.20
766.34	237.05
766.67	236.86
767.00	236.76
767.32	236.70
767.65	236.66
767.97	236.52
768.30	236.44
768.62	236.32
768.95	236.23
769.27	236.16
769.60	236.07
769.92	235.94
770.25	235.79
770.57	235.69
770.90	235.61
771.22	235.48
771.55	235.40
771.87	235.33
772.20	235.21
772.52	235.19
772.85	235.26
773.17	235.18
773.50	235.10
773.82	234.99
774.15	234.87
774.47	234.73
774.80	234.63
775.12	234.53
775.45	234.44
775.77	234.34
776.09	234.24
776.42	234.14
776.74	234.07
777.07	233.99
777.39	233.91
777.72	233.82
778.04	233.76
778.36	233.67
778.69	233.59
779.01	233.55
779.33	233.38
779.66	233.16
779.98	233.07
780.31	233.04
780.63	233.02
780.95	232.93
781.28	232.83
781.60	232.78
781.92	232.70
782.25	232.65
782.57	232.57
782.89	232.50
783.22	232.43
783.54	232.31
783.86	232.27
784.19	232.22
784.51	232.17
784.83	232.09
785.16	232.02
785.48	231.94
785.80	231.87
786.12	231.82
786.45	231.78
786.77	231.74
787.09	231.63
787.42	231.57
787.74	231.55
788.06	231.52
788.38	231.45
788.71	231.42
789.03	231.37
789.35	231.36
789.67	231.32
789.99	231.28
790.32	231.23
790.64	231.20
790.96	231.22
791.28	231.16
791.61	231.11
791.93	231.09
792.25	231.06
792.57	231.08
792.89	231.02
793.21	231.02
793.54	230.98
793.86	230.94
794.18	230.84
794.50	230.77
794.82	230.74
795.14	230.74
795.47	230.73
795.79	230.71
796.11	230.63
796.43	230.56
796.75	230.54
797.07	230.53
797.39	230.49
797.71	230.41
798.04	230.36
798.36	230.34
798.68	230.31
799.00	230.29
799.32	230.17
799.64	230.16
799.96	230.10
800.28	230.09
800.60	230.06
800.92	230.07
801.24	230.01
801.56	229.97
801.89	229.91
802.21	229.88
802.53	229.83
802.85	229.84
803.17	229.88
803.49	229.83
803.81	229.83
804.13	229.80
804.45	229.75
804.77	229.76
805.09	229.73
805.41	229.69
805.73	229.66
806.05	229.66
806.37	229.64
806.69	229.61
807.01	229.58
807.33	229.59
807.65	229.58
807.97	229.67
808.28	229.66
808.60	229.64
808.92	229.61
809.24	229.64
809.56	229.62
809.88	229.57
810.20	229.57
810.52	229.51
810.84	229.50
811.16	229.48
811.48	229.45
811.80	229.46
812.12	229.46
812.43	229.46
812.75	229.46
813.07	229.44
813.39	229.45
813.71	229.39
814.03	229.35
814.35	229.31
814.67	229.23
814.98	229.18
815.30	229.19
815.62	229.16
815.94	229.11
816.26	229.12
816.58	229.07
816.89	229.06
817.21	229.04
817.53	229.01
817.85	228.96
818.17	228.97
818.48	228.90
818.80	228.88
819.12	228.85
819.44	228.81
819.76	228.79
820.07	228.75
820.39	228.73
820.71	228.75
821.03	228.74
821.34	228.70
821.66	228.72
821.98	228.70
822.30	228.67
822.61	228.69
822.93	228.67
823.25	228.65
823.57	228.63
823.88	228.64
824.20	228.64
824.52	228.68
824.83	228.64
825.15	228.63
825.47	228.63
825.79	228.59
826.10	228.58
826.42	228.55
826.74	228.53
827.05	228.51
827.37	228.47
827.69	228.44
828.00	228.44
828.32	228.42
828.64	228.39
828.95	228.43
829.27	228.37
829.58	228.29
829.90	228.27
830.22	228.25
830.53	228.22
830.85	228.16
831.17	228.08
831.48	228.05
831.80	228.05
832.11	228.00
832.43	227.99
832.75	227.99
833.06	228.04
833.38	228.01
833.69	228.02
834.01	228.02
834.32	228.02
834.64	227.98
834.96	227.98
835.27	227.95
835.59	227.93
835.90	227.92
836.22	227.94
836.53	227.91
836.85	227.88
837.16	227.96
837.48	227.97
837.79	228.04
838.11	228.04
838.42	228.06
838.74	228.07
839.05	228.07
839.37	228.07
839.68	228.03
840.00	228.02
840.31	228.02
840.63	228.01
840.94	227.99
841.26	228.00
841.57	227.96
841.88	227.99
842.20	227.97
842.51	227.97
842.83	227.96
843.14	228.04
843.46	228.06
843.77	228.02
844.08	228.01
844.40	227.92
844.71	227.91
845.03	227.88
845.34	227.87
845.65	227.86
845.97	227.84
846.28	227.82
846.60	227.83
846.91	227.84
847.22	227.84
847.54	227.85
847.85	227.84
848.16	227.84
848.48	227.81
848.79	227.81
849.10	227.80
849.42	227.82
849.73	227.69
850.04	227.68
850.36	227.62
850.67	227.63
850.98	227.66
851.30	227.69
851.61	227.70
851.92	227.68
852.23	227.69
852.55	227.67
852.86	227.64
853.17	227.65
853.49	227.66
853.80	227.68
854.11	227.67
854.42	227.73
854.74	227.71
855.05	227.71
855.36	227.69
855.67	227.71
855.99	227.69
856.30	227.83
856.61	227.83
856.92	227.83
857.23	227.82
857.55	227.80
857.86	227.77
858.17	227.74
858.48	227.74
858.79	227.72
859.11	227.73
859.42	227.72
859.73	227.68
860.04	227.66
860.35	227.58
860.66	227.53
860.98	227.49
861.29	227.48
861.60	227.47
861.91	227.49
862.22	227.47
862.53	227.44
862.84	227.35
863.16	227.35
863.47	227.31
863.78	227.32
864.09	227.31
864.40	227.31
864.71	227.34
865.02	227.34
865.33	227.34
865.64	227.30
865.95	227.32
866.27	227.39
866.58	227.36
866.89	227.40
867.20	227.43
867.51	227.40
867.82	227.38
868.13	227.40
868.44	227.36
868.75	227.35
869.06	227.36
869.37	227.35
869.68	227.34
869.99	227.41
870.30	227.40
870.61	227.44
870.92	227.38
871.23	227.33
871.54	227.36
871.85	227.38
872.16	227.41
872.47	227.41
872.78	227.37
873.09	227.38
873.40	227.37
873.71	227.38
874.02	227.38
874.33	227.38
874.64	227.38
874.95	227.41
875.26	227.39
875.56	227.41
875.87	227.41
876.18	227.40
876.49	227.49
876.80	227.47
877.11	227.43
877.42	227.49
877.73	227.52
878.04	227.48
878.35	227.49
878.66	227.49
878.96	227.48
879.27	227.47
879.58	227.49
879.89	227.49
880.20	227.51
880.51	227.53
880.82	227.54
881.12	227.54
881.43	227.53
881.74	227.55
882.05	227.53
882.36	227.54
882.67	227.54
882.97	227.46
883.28	227.50
883.59	227.50
883.90	227.52
884.21	227.55
884.51	227.59
884.82	227.56
885.13	227.57
885.44	227.58
885.74	227.59
886.05	227.59
886.36	227.59
886.67	227.55
886.98	227.56
887.28	227.60
887.59	227.60
887.90	227.61
888.20	227.56
888.51	227.59
888.82	227.58
889.13	227.60
889.43	227.66
889.74	227.62
890.05	227.62
890.35	227.61
890.66	227.57
890.97	227.53
891.28	227.51
891.58	227.53
891.89	227.51
892.20	227.51
892.50	227.46
892.81	227.45
893.12	227.41
893.42	227.35
893.73	227.34
894.04	227.35
894.34	227.34
894.65	227.36
894.95	227.33
895.26	227.33
895.57	227.36
895.87	227.24
896.18	227.26
896.48	227.24
896.79	227.21
897.10	227.23
897.40	227.21
897.71	227.23
898.01	227.20
898.32	227.19
898.63	227.17
898.93	227.20
899.24	227.18
899.54	227.20
899.85	227.23
900.15	227.21
900.46	227.15
900.76	227.15
901.07	227.14
901.38	227.13
901.68	227.13
901.99	227.05
902.29	227.08
902.60	227.04
902.90	227.05
903.21	227.03
903.51	226.99
903.82	227.02
904.12	226.98
904.43	226.97
904.73	226.98
905.03	226.98
905.34	227.05
905.64	227.08
905.95	227.07
906.25	227.05
906.56	227.04
906.86	227.06
907.17	227.03
907.47	227.03
907.77	227.02
908.08	227.02
908.38	227.06
908.69	227.03
908.99	227.06
909.30	227.07
909.60	227.10
909.90	227.12
910.21	227.10
910.51	227.12
910.81	227.12
911.12	227.10
911.42	227.08
911.73	226.98
912.03	226.99
912.33	227.04
912.64	227.07
912.94	227.04
913.24	227.04
913.55	227.04
913.85	227.04
914.15	227.10
914.46	227.10
914.76	227.08
915.06	227.10
915.37	227.09
915.67	227.09
915.97	227.08
916.27	227.08
916.58	227.10
916.88	227.08
917.18	227.10
917.49	227.21
917.79	227.24
918.09	227.28
918.39	227.30
918.70	227.31
919.00	227.30
919.30	227.36
919.60	227.36
919.91	227.36
920.21	227.36
920.51	227.32
920.81	227.33
921.12	227.36
921.42	227.35
921.72	227.38
922.02	227.42
922.32	227.44
922.63	227.43
922.93	227.48
923.23	227.49
923.53	227.50
923.83	227.45
924.13	227.47
924.44	227.46
924.74	227.44
925.04	227.45
925.34	227.47
925.64	227.44
925.94	227.48
926.24	227.53
926.55	227.53
926.85	227.55
927.15	227.53
927.45	227.52
927.75	227.54
928.05	227.50
928.35	227.46
928.65	227.50
928.95	227.51
929.26	227.46
929.56	227.48
929.86	227.48
930.16	227.42
930.46	227.38
930.76	227.40
931.06	227.39
931.36	227.38
931.66	227.37
931.96	227.37
932.26	227.34
932.56	227.31
932.86	227.30
933.16	227.28
933.46	227.27
933.76	227.27
934.06	227.29
934.36	227.33
934.66	227.34
934.96	227.31
935.26	227.32
935.56	227.36
935.86	227.33
936.16	227.31
936.46	227.30
936.76	227.31
937.06	227.26
937.36	227.23
937.66	227.21
937.96	227.19
938.26	227.17
938.56	227.13
938.86	227.11
939.16	227.12
939.46	227.16
939.76	227.16
940.06	227.15
940.35	227.09
940.65	227.05
940.95	227.06
941.25	227.00
941.55	226.97
941.85	226.96
942.15	226.99
942.45	226.98
942.75	227.01
943.04	226.98
943.34	227.01
943.64	226.99
943.94	226.96
944.24	226.98
944.54	227.00
944.84	227.00
945.13	226.99
945.43	226.98
945.73	226.96
946.03	226.93
946.33	226.92
946.62	226.91
946.92	226.89
947.22	226.85
947.52	226.85
947.82	226.88
948.11	226.83
948.41	226.79
948.71	226.76
949.01	226.74
949.31	226.73
949.60	226.72
949.90	226.72
950.20	226.69
950.50	226.67
950.79	226.66
951.09	226.68
951.39	226.67
951.69	226.65
951.98	226.64
952.28	226.65
952.58	226.67
952.87	226.71
953.17	226.73
953.47	226.75
953.76	226.76
954.06	226.74
954.36	226.73
954.66	226.74
954.95	226.79
955.25	226.77
955.55	226.79
955.84	226.78
956.14	226.82
956.44	226.85
956.73	226.86
957.03	226.86
957.32	226.89
957.62	226.89
957.92	226.93
958.21	226.92
958.51	227.00
958.81	227.01
959.10	226.99
959.40	227.02
959.69	227.04
959.99	227.04
960.29	227.04
960.58	227.06
960.88	227.11
961.17	227.11
961.47	227.15
961.76	227.15
962.06	227.15
962.36	227.14
962.65	227.17
962.95	227.19
963.24	227.18
963.54	227.18
963.83	227.21
964.13	227.21
964.42	227.22
964.72	227.15
965.01	227.17
965.31	227.17
965.60	227.13
965.90	227.22
966.19	227.21
966.49	227.18
966.78	227.19
967.08	227.17
967.37	227.13
967.67	227.11
967.96	227.15
968.26	227.18
968.55	227.17
968.85	227.17
969.14	227.15
969.43	227.16
969.73	227.14
970.02	227.13
970.32	227.11
970.61	227.10
970.91	227.10
971.20	227.08
971.49	227.07
971.79	227.09
972.08	226.97
972.38	226.99
972.67	227.02
972.96	227.03
973.26	227.01
973.55	227.04
973.85	227.03
974.14	226.97
974.43	226.93
974.73	226.94
975.02	226.90
975.31	226.86
975.61	226.86
975.90	226.84
976.19	226.81
976.49	226.79
976.78	226.78
977.07	226.75
977.37	226.73
977.66	226.74
977.95	226.71
978.24	226.71
978.54	226.70
978.83	226.68
979.12	226.61
979.42	226.62
979.71	226.60
980.00	226.61
980.29	226.61
980.59	226.60
980.88	226.60
981.17	226.59
981.46	226.61
981.76	226.58
982.05	226.59
982.34	226.58
982.63	226.60
982.93	226.61
983.22	226.62
983.51	226.63
983.80	226.61
984.09	226.67
984.39	226.66
984.68	226.64
984.97	226.63
985.26	226.67
985.55	226.67
985.85	226.63
986.14	226.65
986.43	226.66
986.72	226.69
987.01	226.66
987.30	226.64
987.59	226.65
987.89	226.64
988.18	226.64
988.47	226.65
988.76	226.64
989.05	226.62
989.34	226.62
989.63	226.65
989.92	226.68
990.22	226.62
990.51	226.64
990.80	226.65
991.09	226.69
991.38	226.67
991.67	226.66
991.96	226.66
992.25	226.66
992.54	226.68
992.83	226.69
993.12	226.69
993.41	226.74
993.70	226.78
993.99	226.82
994.28	226.84
994.58	226.86
994.87	226.87
995.16	226.88
995.45	226.88
995.74	226.84
996.03	226.85
996.32	226.91
996.61	226.94
996.90	226.94
997.19	226.93
997.48	226.96
997.77	226.99
998.06	227.01
998.34	227.02
998.63	227.04
998.92	227.04
999.21	227.07
999.50	227.10
999.79	227.07
1000.08	227.09
1000.37	227.10
1000.66	227.10
1000.95	227.13
1001.24	227.16
1001.53	227.21
1001.82	227.24
1002.11	227.22
1002.40	227.21
1002.68	227.25
1002.97	227.36
1003.26	227.36
1003.55	227.39
1003.84	227.37
1004.13	227.42
1004.42	227.43
1004.71	227.41
1004.99	227.39
1005.28	227.41
1005.57	227.39
1005.86	227.39
1006.15	227.37
1006.44	227.36
1006.72	227.38
1007.01	227.40
1007.30	227.38
1007.59	227.36
1007.88	227.35
1008.17	227.36
1008.45	227.34
1008.74	227.27
1009.03	227.20
1009.32	227.20
1009.60	227.17
1009.89	227.17
1010.18	227.09
1010.47	227.06
1010.76	227.06
1011.04	227.03
1011.33	227.06
1011.62	227.06
1011.91	227.03
1012.19	227.02
1012.48	227.05
1012.77	227.03
1013.05	227.03
1013.34	227.03
1013.63	227.01
1013.92	227.00
1014.20	226.99
1014.49	226.94
1014.78	226.92
1015.06	226.86
1015.35	226.84
1015.64	226.84
1015.92	226.81
1016.21	226.82
1016.50	226.79
1016.78	226.81
1017.07	226.82
1017.36	226.76
1017.64	226.71
1017.93	226.73
1018.22	226.73
1018.50	226.67
1018.79	226.69
1019.08	226.60
1019.36	226.60
1019.65	226.58
1019.93	226.57
1020.22	226.57
1020.51	226.63
1020.79	226.61
1021.08	226.83
1021.36	226.42
1021.65	227.22
1021.94	226.02
1022.22	226.55
1022.51	226.59
1022.79	226.57
1023.08	226.82
1023.36	227.58
1023.65	225.99
>>>>>End Processed Spectral Data<<<<<
