SpectraSuite Data File
++++++++++++++++++++++++++++++++++++
Date: Fri Feb 01 18:01:26 EST 2013
User: group
Dark Spectrum Present: No
Reference Spectrum Present: No
Number of Sampled Component Spectra: 1
Spectrometers: USB2E7196
Integration Time (usec): 35000 (USB2E7196)
Spectra Averaged: 100 (USB2E7196)
Boxcar Smoothing: 10 (USB2E7196)
Correct for Electrical Dark: No (USB2E7196)
Strobe/Lamp Enabled: No (USB2E7196)
Correct for Detector Non-linearity: No (USB2E7196)
Correct for Stray Light: No (USB2E7196)
Number of Pixels in Processed Spectrum: 2048
>>>>>Begin Processed Spectral Data<<<<<
339.09	0.00
339.48	212.79
339.86	214.46
340.24	215.68
340.63	216.88
341.01	219.95
341.39	219.62
341.78	220.91
342.16	222.32
342.54	222.96
342.93	211.35
343.31	222.03
343.69	222.57
344.07	223.03
344.46	223.46
344.84	223.89
345.22	224.12
345.60	224.39
345.99	224.60
346.37	224.75
346.75	224.86
347.13	224.95
347.52	225.01
347.90	225.06
348.28	225.08
348.66	225.14
349.05	225.15
349.43	225.22
349.81	225.25
350.19	225.26
350.57	225.33
350.96	225.40
351.34	225.49
351.72	225.59
352.10	225.69
352.48	225.77
352.87	225.78
353.25	225.86
353.63	225.88
354.01	225.95
354.39	225.98
354.77	226.02
355.15	226.11
355.54	226.14
355.92	226.17
356.30	226.27
356.68	226.43
357.06	226.49
357.44	226.52
357.82	226.57
358.20	226.66
358.58	226.72
358.97	226.78
359.35	226.84
359.73	226.91
360.11	226.97
360.49	227.04
360.87	227.09
361.25	227.12
361.63	227.22
362.01	227.27
362.39	227.32
362.77	227.38
363.15	227.41
363.53	227.44
363.91	227.46
364.29	227.43
364.67	227.33
365.05	227.35
365.43	227.36
365.81	227.43
366.19	227.48
366.57	227.53
366.95	227.56
367.33	227.55
367.71	227.58
368.09	227.59
368.47	227.55
368.85	227.52
369.23	227.51
369.61	227.47
369.99	227.47
370.37	227.47
370.75	227.49
371.13	227.43
371.51	227.38
371.89	227.36
372.27	227.38
372.65	227.36
373.03	227.32
373.41	227.27
373.78	227.20
374.16	227.09
374.54	227.00
374.92	226.90
375.30	226.89
375.68	226.77
376.06	226.70
376.44	226.66
376.82	226.61
377.19	226.59
377.57	226.52
377.95	226.40
378.33	226.35
378.71	226.26
379.09	226.22
379.47	226.18
379.84	226.13
380.22	226.05
380.60	225.98
380.98	225.89
381.36	225.84
381.73	225.77
382.11	225.74
382.49	225.68
382.87	225.63
383.25	225.51
383.62	225.63
384.00	225.55
384.38	225.52
384.76	225.53
385.13	225.50
385.51	225.49
385.89	225.46
386.27	225.39
386.64	225.36
387.02	225.32
387.40	225.28
387.78	225.22
388.15	225.20
388.53	225.17
388.91	225.15
389.29	225.10
389.66	225.07
390.04	225.01
390.42	225.01
390.79	224.98
391.17	224.99
391.55	224.86
391.92	224.85
392.30	224.83
392.68	224.77
393.05	224.76
393.43	224.74
393.81	224.73
394.18	224.74
394.56	224.71
394.94	224.73
395.31	224.75
395.69	224.79
396.06	224.83
396.44	224.85
396.82	224.88
397.19	225.01
397.57	225.05
397.95	225.11
398.32	225.15
398.70	225.20
399.07	225.27
399.45	225.31
399.82	225.39
400.20	225.43
400.58	225.51
400.95	225.54
401.33	225.66
401.70	225.82
402.08	225.91
402.45	226.03
402.83	226.17
403.20	226.28
403.58	226.37
403.95	226.49
404.33	226.66
404.71	226.81
405.08	226.97
405.46	227.13
405.83	227.30
406.21	227.46
406.58	227.67
406.96	227.84
407.33	228.03
407.70	228.26
408.08	228.57
408.45	228.86
408.83	229.15
409.20	229.39
409.58	229.59
409.95	229.92
410.33	230.23
410.70	230.53
411.08	230.91
411.45	231.34
411.82	231.70
412.20	232.16
412.57	232.67
412.95	233.07
413.32	233.63
413.69	234.18
414.07	234.74
414.44	235.35
414.82	235.97
415.19	236.71
415.56	237.43
415.94	238.16
416.31	238.99
416.68	239.81
417.06	240.79
417.43	241.73
417.81	242.77
418.18	243.82
418.55	244.94
418.93	246.13
419.30	247.28
419.67	248.57
420.04	249.84
420.42	251.19
420.79	252.75
421.16	254.28
421.54	255.84
421.91	257.49
422.28	259.22
422.66	261.04
423.03	262.77
423.40	264.52
423.77	266.44
424.15	268.35
424.52	270.39
424.89	272.57
425.26	274.70
425.64	276.62
426.01	278.79
426.38	281.03
426.75	283.27
427.13	285.67
427.50	288.09
427.87	290.64
428.24	293.15
428.61	295.56
428.99	298.19
429.36	301.06
429.73	303.87
430.10	306.59
430.47	309.35
430.85	312.29
431.22	315.38
431.59	318.57
431.96	321.66
432.33	324.99
432.70	328.19
433.08	331.95
433.45	335.50
433.82	339.05
434.19	342.94
434.56	346.71
434.93	350.26
435.30	353.83
435.68	357.70
436.05	361.56
436.42	365.30
436.79	368.67
437.16	372.33
437.53	376.18
437.90	379.93
438.27	383.69
438.64	387.51
439.01	390.99
439.38	394.05
439.75	396.93
440.13	400.37
440.50	403.51
440.87	405.99
441.24	408.68
441.61	411.63
441.98	413.68
442.35	416.17
442.72	418.73
443.09	421.20
443.46	422.63
443.83	423.39
444.20	424.11
444.57	425.27
444.94	425.68
445.31	426.15
445.68	426.66
446.05	426.74
446.42	426.21
446.79	425.67
447.16	425.08
447.53	424.70
447.90	423.10
448.27	421.54
448.64	419.45
449.01	417.92
449.37	415.20
449.74	412.68
450.11	409.61
450.48	406.23
450.85	402.80
451.22	399.86
451.59	397.09
451.96	394.50
452.33	391.03
452.70	387.84
453.07	383.99
453.43	380.10
453.80	376.35
454.17	372.74
454.54	369.29
454.91	365.60
455.28	361.93
455.65	358.57
456.02	355.23
456.38	352.27
456.75	348.63
457.12	345.60
457.49	342.52
457.86	339.58
458.23	337.01
458.59	334.19
458.96	331.33
459.33	328.86
459.70	326.28
460.07	324.18
460.43	321.77
460.80	319.49
461.17	317.48
461.54	315.43
461.91	313.47
462.27	311.48
462.64	309.76
463.01	307.92
463.38	306.08
463.74	304.21
464.11	302.63
464.48	301.21
464.85	299.69
465.21	298.51
465.58	297.24
465.95	295.78
466.32	294.56
466.68	293.39
467.05	292.16
467.42	290.94
467.78	289.64
468.15	288.50
468.52	287.62
468.88	286.50
469.25	285.45
469.62	284.57
469.98	283.67
470.35	282.80
470.72	281.98
471.08	281.09
471.45	280.38
471.82	279.64
472.18	278.82
472.55	278.23
472.92	277.51
473.28	276.90
473.65	276.28
474.02	275.64
474.38	275.08
474.75	274.60
475.11	274.10
475.48	273.75
475.85	273.38
476.21	273.08
476.58	272.74
476.94	272.52
477.31	272.26
477.67	271.99
478.04	271.81
478.41	271.69
478.77	271.68
479.14	271.55
479.50	271.49
479.87	271.54
480.23	271.54
480.60	271.55
480.96	271.51
481.33	271.71
481.69	271.87
482.06	272.01
482.42	272.14
482.79	272.34
483.15	272.64
483.52	273.01
483.88	273.29
484.25	273.68
484.61	274.07
484.98	274.47
485.34	275.06
485.71	275.61
486.07	276.17
486.44	276.74
486.80	277.43
487.17	278.18
487.53	279.00
487.90	279.88
488.26	280.85
488.62	281.90
488.99	282.90
489.35	284.02
489.72	285.19
490.08	286.46
490.44	287.78
490.81	289.18
491.17	290.59
491.54	292.15
491.90	293.74
492.26	295.46
492.63	297.27
492.99	299.12
493.36	301.11
493.72	303.27
494.08	305.48
494.45	307.85
494.81	310.35
495.17	312.95
495.54	315.67
495.90	318.46
496.26	321.43
496.63	324.52
496.99	327.76
497.35	331.23
497.72	334.83
498.08	338.54
498.44	342.38
498.80	346.53
499.17	350.78
499.53	355.20
499.89	359.87
500.26	364.60
500.62	369.53
500.98	374.80
501.34	380.19
501.71	385.87
502.07	391.64
502.43	397.61
502.79	403.72
503.16	410.14
503.52	416.79
503.88	423.67
504.24	430.71
504.60	438.02
504.97	445.59
505.33	453.34
505.69	461.51
506.05	469.79
506.41	478.12
506.78	486.81
507.14	495.85
507.50	505.12
507.86	514.78
508.22	524.56
508.59	534.35
508.95	544.55
509.31	554.97
509.67	565.76
510.03	576.70
510.39	588.02
510.75	599.58
511.12	611.34
511.48	623.36
511.84	635.63
512.20	647.92
512.56	660.76
512.92	673.87
513.28	687.15
513.64	700.56
514.00	714.38
514.37	728.35
514.73	742.42
515.09	756.43
515.45	770.75
515.81	785.42
516.17	800.60
516.53	815.89
516.89	831.24
517.25	846.53
517.61	862.18
517.97	877.90
518.33	893.50
518.69	909.45
519.05	925.75
519.41	942.30
519.77	959.26
520.13	976.03
520.49	992.76
520.85	1009.52
521.21	1026.70
521.57	1044.36
521.93	1061.53
522.29	1079.38
522.65	1097.19
523.01	1114.93
523.37	1132.61
523.73	1150.33
524.09	1168.05
524.45	1185.94
524.81	1204.36
525.17	1222.83
525.53	1241.36
525.89	1260.01
526.25	1278.73
526.61	1296.77
526.97	1315.30
527.33	1333.56
527.68	1352.01
528.04	1370.30
528.40	1388.80
528.76	1407.77
529.12	1426.23
529.48	1445.12
529.84	1462.93
530.20	1481.57
530.56	1500.55
530.91	1520.02
531.27	1538.73
531.63	1557.19
531.99	1575.92
532.35	1593.81
532.71	1611.85
533.07	1630.24
533.42	1648.20
533.78	1666.34
534.14	1684.82
534.50	1702.16
534.86	1720.10
535.21	1737.44
535.57	1755.53
535.93	1773.33
536.29	1790.20
536.65	1807.38
537.00	1824.18
537.36	1841.72
537.72	1858.32
538.08	1875.04
538.44	1890.95
538.79	1907.14
539.15	1922.85
539.51	1938.73
539.87	1955.33
540.22	1971.15
540.58	1987.07
540.94	2002.57
541.29	2017.54
541.65	2032.39
542.01	2047.90
542.37	2062.52
542.72	2077.20
543.08	2091.19
543.44	2105.75
543.79	2119.18
544.15	2132.29
544.51	2146.20
544.87	2159.52
545.22	2172.58
545.58	2184.84
545.94	2196.70
546.29	2208.71
546.65	2220.90
547.01	2232.31
547.36	2243.19
547.72	2253.75
548.07	2263.76
548.43	2273.96
548.79	2284.09
549.14	2293.74
549.50	2302.96
549.86	2312.60
550.21	2321.77
550.57	2331.05
550.92	2339.55
551.28	2348.71
551.64	2357.96
551.99	2366.38
552.35	2374.46
552.70	2382.44
553.06	2390.40
553.41	2398.70
553.77	2406.60
554.13	2414.50
554.48	2422.69
554.84	2430.22
555.19	2437.31
555.55	2444.27
555.90	2450.57
556.26	2457.29
556.61	2463.76
556.97	2470.06
557.32	2475.82
557.68	2481.62
558.03	2487.51
558.39	2492.62
558.74	2498.90
559.10	2504.33
559.45	2509.63
559.81	2515.48
560.16	2520.95
560.52	2525.77
560.87	2530.75
561.23	2534.69
561.58	2539.02
561.94	2542.72
562.29	2546.14
562.64	2550.33
563.00	2554.18
563.35	2559.19
563.71	2563.70
564.06	2568.13
564.42	2572.30
564.77	2576.29
565.12	2580.14
565.48	2583.32
565.83	2586.65
566.19	2589.19
566.54	2591.08
566.89	2593.35
567.25	2594.84
567.60	2597.21
567.96	2599.95
568.31	2601.71
568.66	2603.98
569.02	2605.47
569.37	2606.80
569.72	2608.70
570.08	2609.56
570.43	2610.40
570.78	2610.56
571.14	2609.47
571.49	2608.69
571.84	2608.92
572.20	2608.39
572.55	2607.74
572.90	2606.52
573.26	2605.59
573.61	2604.20
573.96	2602.99
574.31	2600.20
574.67	2597.76
575.02	2594.25
575.37	2591.04
575.72	2587.50
576.08	2584.23
576.43	2581.05
576.78	2577.49
577.13	2574.27
577.49	2571.24
577.84	2567.82
578.19	2564.04
578.54	2560.53
578.90	2556.41
579.25	2550.54
579.60	2545.47
579.95	2540.23
580.30	2535.01
580.66	2529.49
581.01	2524.06
581.36	2518.81
581.71	2514.47
582.06	2509.69
582.42	2505.05
582.77	2499.37
583.12	2494.38
583.47	2489.35
583.82	2484.04
584.17	2478.43
584.53	2472.47
584.88	2466.35
585.23	2460.11
585.58	2453.94
585.93	2448.02
586.28	2442.79
586.63	2437.38
586.98	2431.54
587.34	2426.33
587.69	2421.03
588.04	2415.39
588.39	2409.35
588.74	2402.12
589.09	2395.27
589.44	2387.72
589.79	2380.81
590.14	2374.53
590.49	2367.03
590.84	2359.84
591.19	2353.17
591.54	2345.67
591.89	2337.46
592.25	2329.91
592.60	2321.76
592.95	2313.40
593.30	2305.05
593.65	2296.28
594.00	2288.23
594.35	2280.07
594.70	2270.95
595.05	2262.80
595.40	2254.39
595.75	2245.75
596.10	2238.72
596.45	2231.11
596.80	2224.04
597.15	2216.72
597.50	2208.84
597.85	2201.48
598.19	2193.81
598.54	2185.57
598.89	2178.07
599.24	2171.27
599.59	2163.67
599.94	2156.50
600.29	2149.21
600.64	2141.50
600.99	2133.01
601.34	2125.06
601.69	2116.92
602.04	2109.04
602.39	2100.42
602.74	2092.60
603.08	2084.75
603.43	2076.93
603.78	2068.45
604.13	2059.94
604.48	2051.35
604.83	2043.24
605.18	2035.35
605.53	2026.32
605.87	2017.00
606.22	2008.49
606.57	1999.20
606.92	1990.43
607.27	1982.05
607.62	1973.81
607.96	1965.45
608.31	1957.83
608.66	1948.99
609.01	1940.26
609.36	1931.39
609.70	1922.06
610.05	1912.59
610.40	1903.58
610.75	1893.76
611.10	1884.77
611.44	1874.91
611.79	1865.57
612.14	1855.47
612.49	1844.57
612.83	1834.50
613.18	1824.94
613.53	1815.32
613.88	1805.38
614.22	1795.62
614.57	1785.44
614.92	1776.02
615.27	1767.19
615.61	1757.25
615.96	1747.80
616.31	1738.78
616.65	1730.04
617.00	1721.13
617.35	1712.00
617.70	1702.31
618.04	1692.36
618.39	1682.63
618.74	1673.68
619.08	1663.88
619.43	1654.85
619.78	1646.61
620.12	1638.16
620.47	1629.25
620.82	1619.68
621.16	1610.78
621.51	1601.82
621.85	1592.87
622.20	1582.95
622.55	1573.04
622.89	1563.86
623.24	1554.78
623.59	1546.01
623.93	1537.22
624.28	1528.71
624.62	1519.77
624.97	1511.25
625.32	1503.22
625.66	1494.85
626.01	1486.57
626.35	1477.79
626.70	1468.64
627.04	1459.74
627.39	1450.50
627.73	1441.88
628.08	1433.79
628.43	1425.29
628.77	1416.77
629.12	1407.87
629.46	1399.50
629.81	1390.61
630.15	1382.09
630.50	1373.39
630.84	1363.88
631.19	1354.51
631.53	1345.59
631.88	1336.83
632.22	1327.92
632.57	1319.32
632.91	1310.48
633.26	1301.59
633.60	1292.87
633.95	1284.46
634.29	1276.07
634.64	1268.39
634.98	1259.72
635.32	1251.32
635.67	1243.58
636.01	1235.71
636.36	1227.79
636.70	1220.03
637.05	1212.33
637.39	1204.72
637.73	1197.11
638.08	1190.13
638.42	1183.06
638.77	1175.58
639.11	1167.82
639.45	1160.33
639.80	1152.58
640.14	1145.13
640.49	1137.56
640.83	1130.26
641.17	1122.91
641.52	1115.46
641.86	1107.70
642.20	1100.78
642.55	1093.29
642.89	1085.67
643.23	1078.00
643.58	1071.20
643.92	1063.86
644.26	1056.83
644.61	1049.81
644.95	1042.85
645.29	1035.13
645.64	1027.27
645.98	1019.80
646.32	1012.95
646.66	1005.93
647.01	999.13
647.35	992.46
647.69	985.54
648.04	979.09
648.38	972.46
648.72	965.66
649.06	958.78
649.41	951.94
649.75	945.12
650.09	938.32
650.43	931.61
650.78	924.45
651.12	917.67
651.46	911.05
651.80	904.37
652.14	898.08
652.49	891.92
652.83	885.96
653.17	879.43
653.51	872.86
653.85	866.56
654.20	860.04
654.54	853.04
654.88	846.44
655.22	839.59
655.56	832.98
655.90	826.63
656.25	820.52
656.59	814.36
656.93	808.39
657.27	802.40
657.61	796.13
657.95	790.29
658.29	784.38
658.64	778.33
658.98	772.15
659.32	765.84
659.66	759.80
660.00	753.65
660.34	747.89
660.68	742.20
661.02	736.33
661.36	730.86
661.70	725.65
662.05	720.66
662.39	715.67
662.73	710.51
663.07	705.43
663.41	700.35
663.75	695.20
664.09	690.02
664.43	684.88
664.77	680.14
665.11	675.24
665.45	670.39
665.79	665.61
666.13	660.91
666.47	656.23
666.81	651.43
667.15	646.66
667.49	642.21
667.83	637.72
668.17	633.19
668.51	628.51
668.85	623.87
669.19	619.42
669.53	615.01
669.87	610.53
670.21	606.15
670.55	601.93
670.89	597.86
671.23	593.90
671.57	589.93
671.91	585.87
672.25	581.80
672.58	577.77
672.92	573.86
673.26	570.15
673.60	566.44
673.94	562.85
674.28	559.49
674.62	556.06
674.96	552.56
675.30	549.22
675.64	545.83
675.97	542.58
676.31	539.29
676.65	535.94
676.99	532.85
677.33	529.62
677.67	526.35
678.01	522.94
678.34	519.49
678.68	516.12
679.02	512.84
679.36	509.67
679.70	506.58
680.04	503.39
680.37	500.17
680.71	496.93
681.05	493.97
681.39	490.86
681.73	487.76
682.06	484.85
682.40	481.87
682.74	478.97
683.08	476.00
683.42	472.92
683.75	469.98
684.09	466.96
684.43	464.07
684.77	461.24
685.10	458.49
685.44	455.78
685.78	453.13
686.12	450.50
686.45	447.77
686.79	445.10
687.13	442.52
687.46	439.95
687.80	437.48
688.14	434.86
688.48	432.42
688.81	429.83
689.15	427.30
689.49	424.82
689.82	422.40
690.16	419.99
690.50	417.75
690.83	415.49
691.17	413.22
691.51	410.97
691.84	408.78
692.18	406.53
692.52	404.27
692.85	401.95
693.19	399.80
693.52	397.66
693.86	395.54
694.20	393.48
694.53	391.38
694.87	389.23
695.21	387.10
695.54	385.00
695.88	383.02
696.21	381.00
696.55	379.07
696.88	377.08
697.22	375.16
697.56	373.25
697.89	371.31
698.23	369.43
698.56	367.55
698.90	365.72
699.23	363.84
699.57	362.01
699.90	360.28
700.24	358.45
700.58	356.72
700.91	354.97
701.25	353.33
701.58	351.73
701.92	350.15
702.25	348.62
702.59	347.04
702.92	345.54
703.26	344.04
703.59	342.58
703.93	341.25
704.26	339.81
704.60	338.32
704.93	336.86
705.26	335.39
705.60	334.06
705.93	332.69
706.27	331.45
706.60	330.22
706.94	328.91
707.27	327.58
707.61	326.30
707.94	325.09
708.27	323.79
708.61	322.54
708.94	321.33
709.28	320.17
709.61	319.03
709.94	317.89
710.28	316.70
710.61	315.51
710.95	314.23
711.28	313.16
711.61	312.03
711.95	310.94
712.28	309.89
712.61	308.74
712.95	307.63
713.28	306.60
713.61	305.56
713.95	304.52
714.28	303.60
714.61	302.63
714.95	301.64
715.28	300.65
715.61	299.60
715.95	298.64
716.28	297.63
716.61	296.63
716.95	295.66
717.28	294.78
717.61	293.92
717.94	293.07
718.28	292.15
718.61	291.34
718.94	290.55
719.27	289.78
719.61	289.07
719.94	288.35
720.27	287.52
720.60	286.78
720.94	286.12
721.27	285.38
721.60	284.70
721.93	284.00
722.27	283.34
722.60	282.69
722.93	282.04
723.26	281.40
723.59	280.80
723.93	280.13
724.26	279.47
724.59	278.80
724.92	278.19
725.25	277.58
725.59	276.92
725.92	276.35
726.25	275.72
726.58	275.13
726.91	274.56
727.24	274.03
727.57	273.47
727.91	272.85
728.24	272.31
728.57	271.73
728.90	271.18
729.23	270.63
729.56	270.15
729.89	269.59
730.22	268.99
730.55	268.45
730.89	267.93
731.22	267.43
731.55	266.90
731.88	266.37
732.21	265.86
732.54	265.43
732.87	264.95
733.20	264.46
733.53	263.98
733.86	263.53
734.19	263.06
734.52	262.62
734.85	262.25
735.18	261.77
735.51	261.38
735.84	260.96
736.17	260.54
736.50	260.08
736.83	259.79
737.16	259.42
737.49	259.01
737.82	258.62
738.15	258.27
738.48	257.92
738.81	257.54
739.14	257.15
739.47	256.75
739.80	256.36
740.13	255.99
740.46	255.59
740.79	255.20
741.12	254.85
741.45	254.47
741.78	254.06
742.11	253.73
742.44	253.32
742.77	252.99
743.10	252.64
743.43	252.31
743.75	251.89
744.08	251.69
744.41	251.35
744.74	251.05
745.07	250.70
745.40	250.42
745.73	250.14
746.06	249.84
746.39	249.51
746.71	249.20
747.04	248.92
747.37	248.63
747.70	248.32
748.03	247.99
748.36	247.70
748.68	247.44
749.01	247.15
749.34	246.92
749.67	246.66
750.00	246.40
750.33	246.20
750.65	245.93
750.98	245.57
751.31	245.31
751.64	245.05
751.97	244.82
752.29	244.55
752.62	244.27
752.95	244.04
753.28	243.80
753.60	243.55
753.93	243.34
754.26	243.12
754.59	242.88
754.91	242.62
755.24	242.38
755.57	242.13
755.90	241.87
756.22	241.65
756.55	241.39
756.88	241.13
757.20	240.87
757.53	240.63
757.86	240.43
758.19	240.22
758.51	240.06
758.84	239.84
759.17	239.65
759.49	239.43
759.82	239.32
760.15	239.17
760.47	238.97
760.80	238.74
761.13	238.58
761.45	238.42
761.78	238.29
762.11	238.17
762.43	238.03
762.76	237.90
763.08	237.72
763.41	237.56
763.74	237.39
764.06	237.23
764.39	237.08
764.71	236.91
765.04	236.78
765.37	236.63
765.69	236.50
766.02	236.33
766.34	236.24
766.67	236.03
767.00	235.90
767.32	235.85
767.65	235.76
767.97	235.60
768.30	235.48
768.62	235.35
768.95	235.21
769.27	235.08
769.60	235.00
769.92	234.92
770.25	234.79
770.57	234.70
770.90	234.57
771.22	234.48
771.55	234.38
771.87	234.29
772.20	234.17
772.52	234.11
772.85	234.11
773.17	233.99
773.50	233.85
773.82	233.71
774.15	233.59
774.47	233.46
774.80	233.37
775.12	233.28
775.45	233.17
775.77	233.09
776.09	232.99
776.42	232.88
776.74	232.78
777.07	232.69
777.39	232.61
777.72	232.53
778.04	232.44
778.36	232.37
778.69	232.29
779.01	232.19
779.33	232.04
779.66	231.87
779.98	231.80
780.31	231.75
780.63	231.76
780.95	231.67
781.28	231.58
781.60	231.50
781.92	231.39
782.25	231.34
782.57	231.25
782.89	231.20
783.22	231.14
783.54	231.01
783.86	230.97
784.19	230.88
784.51	230.86
784.83	230.79
785.16	230.71
785.48	230.64
785.80	230.57
786.12	230.52
786.45	230.47
786.77	230.42
787.09	230.39
787.42	230.29
787.74	230.22
788.06	230.23
788.38	230.19
788.71	230.16
789.03	230.12
789.35	230.09
789.67	230.01
789.99	229.93
790.32	229.90
790.64	229.89
790.96	229.92
791.28	229.82
791.61	229.77
791.93	229.73
792.25	229.69
792.57	229.71
792.89	229.65
793.21	229.60
793.54	229.55
793.86	229.49
794.18	229.44
794.50	229.39
794.82	229.28
795.14	229.26
795.47	229.21
795.79	229.14
796.11	229.07
796.43	229.01
796.75	228.98
797.07	228.96
797.39	228.87
797.71	228.79
798.04	228.77
798.36	228.73
798.68	228.69
799.00	228.66
799.32	228.57
799.64	228.56
799.96	228.51
800.28	228.52
800.60	228.46
800.92	228.41
801.24	228.37
801.56	228.36
801.89	228.29
802.21	228.27
802.53	228.22
802.85	228.23
803.17	228.26
803.49	228.23
803.81	228.15
804.13	228.15
804.45	228.09
804.77	228.05
805.09	228.01
805.41	227.98
805.73	227.92
806.05	227.87
806.37	227.86
806.69	227.86
807.01	227.79
807.33	227.77
807.65	227.76
807.97	227.78
808.28	227.72
808.60	227.70
808.92	227.67
809.24	227.71
809.56	227.65
809.88	227.56
810.20	227.54
810.52	227.55
810.84	227.52
811.16	227.49
811.48	227.47
811.80	227.48
812.12	227.46
812.43	227.47
812.75	227.48
813.07	227.43
813.39	227.40
813.71	227.34
814.03	227.35
814.35	227.28
814.67	227.21
814.98	227.20
815.30	227.15
815.62	227.08
815.94	227.02
816.26	227.04
816.58	227.02
816.89	227.00
817.21	226.97
817.53	226.93
817.85	226.90
818.17	226.89
818.48	226.81
818.80	226.80
819.12	226.73
819.44	226.70
819.76	226.66
820.07	226.59
820.39	226.59
820.71	226.55
821.03	226.56
821.34	226.53
821.66	226.53
821.98	226.55
822.30	226.52
822.61	226.57
822.93	226.53
823.25	226.54
823.57	226.49
823.88	226.50
824.20	226.47
824.52	226.51
824.83	226.47
825.15	226.46
825.47	226.45
825.79	226.44
826.10	226.41
826.42	226.37
826.74	226.40
827.05	226.39
827.37	226.37
827.69	226.34
828.00	226.33
828.32	226.33
828.64	226.30
828.95	226.38
829.27	226.34
829.58	226.27
829.90	226.27
830.22	226.31
830.53	226.27
830.85	226.28
831.17	226.20
831.48	226.19
831.80	226.19
832.11	226.20
832.43	226.20
832.75	226.19
833.06	226.27
833.38	226.26
833.69	226.23
834.01	226.24
834.32	226.24
834.64	226.24
834.96	226.21
835.27	226.21
835.59	226.15
835.90	226.10
836.22	226.08
836.53	226.01
836.85	225.98
837.16	226.07
837.48	226.03
837.79	226.08
838.11	226.08
838.42	226.08
838.74	226.07
839.05	226.04
839.37	226.00
839.68	225.90
840.00	225.88
840.31	225.84
840.63	225.80
840.94	225.77
841.26	225.78
841.57	225.77
841.88	225.77
842.20	225.74
842.51	225.73
842.83	225.75
843.14	225.86
843.46	225.83
843.77	225.75
844.08	225.74
844.40	225.70
844.71	225.68
845.03	225.64
845.34	225.60
845.65	225.60
845.97	225.63
846.28	225.61
846.60	225.58
846.91	225.57
847.22	225.58
847.54	225.57
847.85	225.53
848.16	225.51
848.48	225.49
848.79	225.52
849.10	225.52
849.42	225.49
849.73	225.37
850.04	225.35
850.36	225.30
850.67	225.31
850.98	225.28
851.30	225.27
851.61	225.25
851.92	225.24
852.23	225.25
852.55	225.23
852.86	225.24
853.17	225.23
853.49	225.25
853.80	225.26
854.11	225.33
854.42	225.33
854.74	225.28
855.05	225.25
855.36	225.20
855.67	225.21
855.99	225.22
856.30	225.32
856.61	225.30
856.92	225.32
857.23	225.30
857.55	225.28
857.86	225.27
858.17	225.30
858.48	225.31
858.79	225.26
859.11	225.26
859.42	225.25
859.73	225.24
860.04	225.24
860.35	225.19
860.66	225.12
860.98	225.11
861.29	225.15
861.60	225.17
861.91	225.19
862.22	225.17
862.53	225.18
862.84	225.07
863.16	225.11
863.47	225.09
863.78	225.08
864.09	225.12
864.40	225.15
864.71	225.14
865.02	225.17
865.33	225.18
865.64	225.20
865.95	225.22
866.27	225.31
866.58	225.33
866.89	225.39
867.20	225.40
867.51	225.41
867.82	225.40
868.13	225.43
868.44	225.43
868.75	225.46
869.06	225.49
869.37	225.55
869.68	225.57
869.99	225.63
870.30	225.66
870.61	225.67
870.92	225.66
871.23	225.67
871.54	225.67
871.85	225.71
872.16	225.72
872.47	225.71
872.78	225.66
873.09	225.67
873.40	225.63
873.71	225.66
874.02	225.68
874.33	225.70
874.64	225.69
874.95	225.72
875.26	225.70
875.56	225.69
875.87	225.67
876.18	225.65
876.49	225.71
876.80	225.74
877.11	225.71
877.42	225.73
877.73	225.76
878.04	225.75
878.35	225.75
878.66	225.74
878.96	225.74
879.27	225.73
879.58	225.72
879.89	225.74
880.20	225.70
880.51	225.70
880.82	225.68
881.12	225.65
881.43	225.64
881.74	225.64
882.05	225.63
882.36	225.61
882.67	225.59
882.97	225.47
883.28	225.45
883.59	225.44
883.90	225.43
884.21	225.41
884.51	225.40
884.82	225.38
885.13	225.39
885.44	225.37
885.74	225.40
886.05	225.40
886.36	225.38
886.67	225.40
886.98	225.42
887.28	225.41
887.59	225.42
887.90	225.40
888.20	225.38
888.51	225.38
888.82	225.41
889.13	225.41
889.43	225.54
889.74	225.52
890.05	225.51
890.35	225.47
890.66	225.45
890.97	225.42
891.28	225.40
891.58	225.37
891.89	225.37
892.20	225.30
892.50	225.27
892.81	225.24
893.12	225.22
893.42	225.16
893.73	225.17
894.04	225.15
894.34	225.14
894.65	225.12
894.95	225.09
895.26	225.02
895.57	225.04
895.87	224.92
896.18	224.90
896.48	224.91
896.79	224.97
897.10	224.97
897.40	224.97
897.71	224.98
898.01	224.98
898.32	224.98
898.63	224.99
898.93	225.00
899.24	224.99
899.54	225.01
899.85	225.01
900.15	225.00
900.46	224.99
900.76	224.99
901.07	225.00
901.38	225.01
901.68	225.09
901.99	225.03
902.29	225.04
902.60	225.06
902.90	225.03
903.21	224.99
903.51	224.97
903.82	225.02
904.12	225.00
904.43	224.99
904.73	225.00
905.03	225.03
905.34	225.07
905.64	225.09
905.95	225.06
906.25	225.06
906.56	225.06
906.86	225.09
907.17	225.09
907.47	225.11
907.77	225.10
908.08	225.05
908.38	225.13
908.69	225.12
908.99	225.13
909.30	225.18
909.60	225.19
909.90	225.20
910.21	225.15
910.51	225.15
910.81	225.17
911.12	225.15
911.42	225.14
911.73	225.08
912.03	225.09
912.33	225.10
912.64	225.11
912.94	225.11
913.24	225.07
913.55	225.09
913.85	225.07
914.15	225.11
914.46	225.15
914.76	225.08
915.06	225.05
915.37	225.04
915.67	225.02
915.97	225.02
916.27	224.99
916.58	224.97
916.88	225.00
917.18	224.98
917.49	225.07
917.79	225.06
918.09	225.10
918.39	225.13
918.70	225.16
919.00	225.16
919.30	225.21
919.60	225.19
919.91	225.17
920.21	225.19
920.51	225.13
920.81	225.11
921.12	225.12
921.42	225.15
921.72	225.15
922.02	225.15
922.32	225.18
922.63	225.17
922.93	225.24
923.23	225.22
923.53	225.23
923.83	225.16
924.13	225.18
924.44	225.17
924.74	225.19
925.04	225.19
925.34	225.16
925.64	225.13
925.94	225.13
926.24	225.17
926.55	225.12
926.85	225.11
927.15	225.08
927.45	225.06
927.75	225.04
928.05	225.03
928.35	224.99
928.65	224.97
928.95	224.98
929.26	224.92
929.56	224.94
929.86	224.91
930.16	224.87
930.46	224.86
930.76	224.88
931.06	224.83
931.36	224.79
931.66	224.81
931.96	224.78
932.26	224.80
932.56	224.75
932.86	224.76
933.16	224.79
933.46	224.80
933.76	224.83
934.06	224.83
934.36	224.85
934.66	224.88
934.96	224.85
935.26	224.84
935.56	224.85
935.86	224.84
936.16	224.84
936.46	224.89
936.76	224.88
937.06	224.81
937.36	224.81
937.66	224.83
937.96	224.81
938.26	224.81
938.56	224.82
938.86	224.84
939.16	224.87
939.46	224.90
939.76	224.92
940.06	224.93
940.35	224.94
940.65	224.92
940.95	224.89
941.25	224.87
941.55	224.86
941.85	224.87
942.15	224.86
942.45	224.92
942.75	224.89
943.04	224.88
943.34	224.94
943.64	224.94
943.94	224.92
944.24	224.95
944.54	224.98
944.84	224.99
945.13	224.97
945.43	224.95
945.73	224.93
946.03	224.88
946.33	224.88
946.62	224.88
946.92	224.87
947.22	224.90
947.52	224.93
947.82	224.99
948.11	224.97
948.41	224.98
948.71	224.92
949.01	224.92
949.31	224.95
949.60	224.95
949.90	224.97
950.20	224.96
950.50	224.98
950.79	224.94
951.09	224.96
951.39	224.95
951.69	224.93
951.98	224.95
952.28	225.01
952.58	224.99
952.87	224.99
953.17	225.03
953.47	225.03
953.76	225.04
954.06	225.02
954.36	224.99
954.66	224.99
954.95	225.06
955.25	225.07
955.55	225.07
955.84	225.01
956.14	225.01
956.44	225.01
956.73	224.99
957.03	225.03
957.32	225.04
957.62	225.04
957.92	225.07
958.21	225.09
958.51	225.16
958.81	225.17
959.10	225.19
959.40	225.21
959.69	225.22
959.99	225.22
960.29	225.22
960.58	225.25
960.88	225.30
961.17	225.29
961.47	225.32
961.76	225.29
962.06	225.33
962.36	225.34
962.65	225.35
962.95	225.36
963.24	225.32
963.54	225.30
963.83	225.26
964.13	225.27
964.42	225.20
964.72	225.15
965.01	225.14
965.31	225.11
965.60	225.05
965.90	225.12
966.19	225.09
966.49	225.08
966.78	225.07
967.08	225.04
967.37	225.01
967.67	224.94
967.96	224.96
968.26	224.95
968.55	224.96
968.85	224.93
969.14	224.91
969.43	224.94
969.73	224.94
970.02	224.99
970.32	224.96
970.61	224.92
970.91	224.83
971.20	224.78
971.49	224.78
971.79	224.78
972.08	224.71
972.38	224.68
972.67	224.65
972.96	224.65
973.26	224.61
973.55	224.63
973.85	224.64
974.14	224.65
974.43	224.67
974.73	224.62
975.02	224.62
975.31	224.63
975.61	224.61
975.90	224.60
976.19	224.59
976.49	224.57
976.78	224.62
977.07	224.65
977.37	224.67
977.66	224.66
977.95	224.62
978.24	224.61
978.54	224.66
978.83	224.64
979.12	224.63
979.42	224.62
979.71	224.59
980.00	224.58
980.29	224.56
980.59	224.52
980.88	224.54
981.17	224.55
981.46	224.50
981.76	224.49
982.05	224.48
982.34	224.50
982.63	224.49
982.93	224.49
983.22	224.52
983.51	224.56
983.80	224.57
984.09	224.63
984.39	224.63
984.68	224.62
984.97	224.63
985.26	224.63
985.55	224.65
985.85	224.62
986.14	224.67
986.43	224.69
986.72	224.69
987.01	224.68
987.30	224.66
987.59	224.66
987.89	224.70
988.18	224.68
988.47	224.66
988.76	224.71
989.05	224.72
989.34	224.72
989.63	224.73
989.92	224.76
990.22	224.73
990.51	224.72
990.80	224.70
991.09	224.74
991.38	224.79
991.67	224.78
991.96	224.80
992.25	224.80
992.54	224.80
992.83	224.80
993.12	224.76
993.41	224.82
993.70	224.88
993.99	224.92
994.28	224.97
994.58	225.00
994.87	224.99
995.16	224.98
995.45	224.96
995.74	224.95
996.03	224.93
996.32	224.97
996.61	224.98
996.90	225.02
997.19	225.02
997.48	224.99
997.77	224.98
998.06	225.01
998.34	225.00
998.63	225.02
998.92	225.06
999.21	225.10
999.50	225.09
999.79	225.06
1000.08	225.04
1000.37	225.02
1000.66	225.02
1000.95	225.04
1001.24	225.03
1001.53	225.04
1001.82	225.02
1002.11	225.00
1002.40	224.97
1002.68	225.01
1002.97	225.07
1003.26	225.03
1003.55	225.02
1003.84	225.03
1004.13	225.05
1004.42	225.04
1004.71	225.03
1004.99	225.02
1005.28	225.03
1005.57	225.01
1005.86	225.02
1006.15	225.02
1006.44	225.00
1006.72	224.98
1007.01	224.92
1007.30	224.92
1007.59	224.91
1007.88	224.90
1008.17	224.90
1008.45	224.87
1008.74	224.81
1009.03	224.74
1009.32	224.75
1009.60	224.75
1009.89	224.75
1010.18	224.69
1010.47	224.65
1010.76	224.62
1011.04	224.61
1011.33	224.65
1011.62	224.64
1011.91	224.60
1012.19	224.58
1012.48	224.58
1012.77	224.59
1013.05	224.66
1013.34	224.67
1013.63	224.64
1013.92	224.66
1014.20	224.64
1014.49	224.65
1014.78	224.67
1015.06	224.66
1015.35	224.65
1015.64	224.64
1015.92	224.64
1016.21	224.63
1016.50	224.66
1016.78	224.66
1017.07	224.63
1017.36	224.56
1017.64	224.56
1017.93	224.56
1018.22	224.54
1018.50	224.53
1018.79	224.49
1019.08	224.42
1019.36	224.41
1019.65	224.42
1019.93	224.39
1020.22	224.43
1020.51	224.49
1020.79	224.48
1021.08	224.17
1021.36	224.56
1021.65	224.28
1021.94	223.99
1022.22	224.45
1022.51	224.51
1022.79	224.55
1023.08	224.66
1023.36	225.97
1023.65	224.18
>>>>>End Processed Spectral Data<<<<<
