SpectraSuite Data File
++++++++++++++++++++++++++++++++++++
Date: Fri Feb 01 15:36:58 EST 2013
User: group
Dark Spectrum Present: No
Reference Spectrum Present: No
Number of Sampled Component Spectra: 1
Spectrometers: USB2E7196
Integration Time (usec): 35000 (USB2E7196)
Spectra Averaged: 100 (USB2E7196)
Boxcar Smoothing: 10 (USB2E7196)
Correct for Electrical Dark: No (USB2E7196)
Strobe/Lamp Enabled: No (USB2E7196)
Correct for Detector Non-linearity: No (USB2E7196)
Correct for Stray Light: No (USB2E7196)
Number of Pixels in Processed Spectrum: 2048
>>>>>Begin Processed Spectral Data<<<<<
339.09	0.00
339.48	214.81
339.86	216.60
340.24	217.92
340.63	219.15
341.01	221.99
341.39	221.71
341.78	223.10
342.16	224.14
342.54	225.17
342.93	213.21
343.31	223.99
343.69	224.53
344.07	224.97
344.46	225.36
344.84	225.74
345.22	225.98
345.60	226.20
345.99	226.38
346.37	226.50
346.75	226.59
347.13	226.69
347.52	226.76
347.90	226.79
348.28	226.83
348.66	226.84
349.05	226.85
349.43	226.87
349.81	226.90
350.19	226.97
350.57	227.02
350.96	227.06
351.34	227.14
351.72	227.24
352.10	227.33
352.48	227.42
352.87	227.45
353.25	227.53
353.63	227.59
354.01	227.67
354.39	227.77
354.77	227.87
355.15	227.96
355.54	228.03
355.92	228.10
356.30	228.18
356.68	228.31
357.06	228.37
357.44	228.42
357.82	228.46
358.20	228.52
358.58	228.59
358.97	228.68
359.35	228.75
359.73	228.82
360.11	228.88
360.49	228.95
360.87	228.99
361.25	229.04
361.63	229.14
362.01	229.19
362.39	229.19
362.77	229.20
363.15	229.24
363.53	229.22
363.91	229.22
364.29	229.23
364.67	229.16
365.05	229.18
365.43	229.21
365.81	229.25
366.19	229.31
366.57	229.33
366.95	229.35
367.33	229.32
367.71	229.30
368.09	229.28
368.47	229.25
368.85	229.26
369.23	229.27
369.61	229.19
369.99	229.16
370.37	229.16
370.75	229.16
371.13	229.07
371.51	229.06
371.89	229.06
372.27	229.06
372.65	229.00
373.03	228.93
373.41	228.86
373.78	228.80
374.16	228.67
374.54	228.63
374.92	228.58
375.30	228.50
375.68	228.42
376.06	228.37
376.44	228.32
376.82	228.27
377.19	228.17
377.57	228.11
377.95	228.05
378.33	227.96
378.71	227.85
379.09	227.80
379.47	227.75
379.84	227.64
380.22	227.55
380.60	227.50
380.98	227.46
381.36	227.39
381.73	227.33
382.11	227.29
382.49	227.19
382.87	227.08
383.25	227.04
383.62	227.09
384.00	227.02
384.38	226.95
384.76	226.88
385.13	226.85
385.51	226.78
385.89	226.70
386.27	226.66
386.64	226.65
387.02	226.59
387.40	226.55
387.78	226.54
388.15	226.49
388.53	226.45
388.91	226.39
389.29	226.34
389.66	226.31
390.04	226.25
390.42	226.28
390.79	226.26
391.17	226.22
391.55	226.13
391.92	226.11
392.30	226.12
392.68	226.11
393.05	226.12
393.43	226.15
393.81	226.17
394.18	226.18
394.56	226.20
394.94	226.25
395.31	226.25
395.69	226.27
396.06	226.30
396.44	226.34
396.82	226.40
397.19	226.49
397.57	226.53
397.95	226.62
398.32	226.63
398.70	226.71
399.07	226.82
399.45	226.89
399.82	226.94
400.20	227.01
400.58	227.08
400.95	227.13
401.33	227.22
401.70	227.37
402.08	227.44
402.45	227.53
402.83	227.65
403.20	227.79
403.58	227.91
403.95	228.06
404.33	228.22
404.71	228.36
405.08	228.57
405.46	228.72
405.83	228.87
406.21	229.05
406.58	229.23
406.96	229.40
407.33	229.57
407.70	229.78
408.08	230.07
408.45	230.28
408.83	230.52
409.20	230.76
409.58	230.96
409.95	231.25
410.33	231.53
410.70	231.77
411.08	232.06
411.45	232.39
411.82	232.70
412.20	233.04
412.57	233.46
412.95	233.74
413.32	234.18
413.69	234.58
414.07	235.02
414.44	235.49
414.82	235.98
415.19	236.53
415.56	237.09
415.94	237.61
416.31	238.26
416.68	238.88
417.06	239.59
417.43	240.29
417.81	241.07
418.18	241.83
418.55	242.68
418.93	243.56
419.30	244.44
419.67	245.39
420.04	246.34
420.42	247.29
420.79	248.47
421.16	249.63
421.54	250.80
421.91	252.00
422.28	253.27
422.66	254.59
423.03	255.90
423.40	257.19
423.77	258.59
424.15	259.99
424.52	261.46
424.89	263.02
425.26	264.53
425.64	265.94
426.01	267.55
426.38	269.21
426.75	270.83
427.13	272.54
427.50	274.32
427.87	276.19
428.24	278.10
428.61	279.83
428.99	281.75
429.36	283.87
429.73	285.92
430.10	287.94
430.47	289.99
430.85	292.10
431.22	294.37
431.59	296.77
431.96	299.07
432.33	301.61
432.70	303.99
433.08	306.80
433.45	309.46
433.82	312.02
434.19	314.87
434.56	317.73
434.93	320.39
435.30	323.03
435.68	325.91
436.05	328.71
436.42	331.47
436.79	334.00
437.16	336.68
437.53	339.54
437.90	342.34
438.27	345.03
438.64	347.84
439.01	350.45
439.38	352.70
439.75	354.81
440.13	357.30
440.50	359.63
440.87	361.53
441.24	363.48
441.61	365.71
441.98	367.21
442.35	369.03
442.72	370.90
443.09	372.72
443.46	373.71
443.83	374.30
444.20	374.85
444.57	375.69
444.94	376.01
445.31	376.33
445.68	376.67
446.05	376.82
446.42	376.45
446.79	376.03
447.16	375.57
447.53	375.29
447.90	374.12
448.27	373.00
448.64	371.40
449.01	370.26
449.37	368.27
449.74	366.37
450.11	364.10
450.48	361.64
450.85	359.09
451.22	356.95
451.59	354.91
451.96	352.96
452.33	350.34
452.70	347.97
453.07	345.13
453.43	342.24
453.80	339.43
454.17	336.74
454.54	334.18
454.91	331.44
455.28	328.77
455.65	326.28
456.02	323.81
456.38	321.64
456.75	318.99
457.12	316.75
457.49	314.53
457.86	312.39
458.23	310.51
458.59	308.44
458.96	306.37
459.33	304.51
459.70	302.66
460.07	301.17
460.43	299.44
460.80	297.84
461.17	296.38
461.54	294.91
461.91	293.50
462.27	292.05
462.64	290.82
463.01	289.42
463.38	288.16
463.74	286.80
464.11	285.63
464.48	284.60
464.85	283.45
465.21	282.58
465.58	281.60
465.95	280.52
466.32	279.63
466.68	278.72
467.05	277.82
467.42	276.88
467.78	275.91
468.15	275.05
468.52	274.36
468.88	273.51
469.25	272.70
469.62	272.02
469.98	271.34
470.35	270.66
470.72	270.05
471.08	269.34
471.45	268.80
471.82	268.25
472.18	267.62
472.55	267.23
472.92	266.71
473.28	266.27
473.65	265.78
474.02	265.35
474.38	265.01
474.75	264.71
475.11	264.41
475.48	264.14
475.85	263.88
476.21	263.64
476.58	263.48
476.94	263.36
477.31	263.20
477.67	263.03
478.04	262.97
478.41	262.94
478.77	262.96
479.14	262.89
479.50	262.89
479.87	262.97
480.23	263.02
480.60	263.10
480.96	263.17
481.33	263.38
481.69	263.55
482.06	263.70
482.42	263.90
482.79	264.13
483.15	264.44
483.52	264.85
483.88	265.22
484.25	265.58
484.61	266.00
484.98	266.51
485.34	267.10
485.71	267.68
486.07	268.29
486.44	268.85
486.80	269.59
487.17	270.30
487.53	271.12
487.90	271.96
488.26	272.86
488.62	273.87
488.99	274.87
489.35	275.88
489.72	277.04
490.08	278.27
490.44	279.54
490.81	280.90
491.17	282.22
491.54	283.69
491.90	285.22
492.26	286.85
492.63	288.52
492.99	290.29
493.36	292.20
493.72	294.25
494.08	296.37
494.45	298.58
494.81	300.96
495.17	303.37
495.54	305.94
495.90	308.64
496.26	311.43
496.63	314.35
496.99	317.50
497.35	320.71
497.72	324.13
498.08	327.66
498.44	331.28
498.80	335.23
499.17	339.22
499.53	343.35
499.89	347.74
500.26	352.22
500.62	356.88
500.98	361.85
501.34	366.90
501.71	372.22
502.07	377.65
502.43	383.25
502.79	389.10
503.16	395.11
503.52	401.42
503.88	407.84
504.24	414.52
504.60	421.42
504.97	428.57
505.33	435.82
505.69	443.48
506.05	451.28
506.41	459.12
506.78	467.33
507.14	475.89
507.50	484.62
507.86	493.71
508.22	502.98
508.59	512.17
508.95	521.78
509.31	531.61
509.67	541.73
510.03	552.05
510.39	562.56
510.75	573.41
511.12	584.33
511.48	595.69
511.84	607.12
512.20	618.61
512.56	630.54
512.92	642.70
513.28	655.03
513.64	667.53
514.00	680.35
514.37	693.28
514.73	706.29
515.09	719.29
515.45	732.58
515.81	746.13
516.17	760.11
516.53	774.24
516.89	788.48
517.25	802.64
517.61	817.13
517.97	831.65
518.33	846.14
518.69	860.95
519.05	875.89
519.41	891.08
519.77	906.72
520.13	922.23
520.49	937.60
520.85	953.05
521.21	968.77
521.57	985.02
521.93	1000.81
522.29	1017.23
522.65	1033.55
523.01	1049.65
523.37	1065.71
523.73	1081.82
524.09	1097.87
524.45	1114.22
524.81	1130.89
525.17	1147.72
525.53	1164.54
525.89	1181.41
526.25	1198.19
526.61	1214.57
526.97	1231.38
527.33	1247.81
527.68	1264.34
528.04	1280.95
528.40	1297.61
528.76	1314.67
529.12	1331.17
529.48	1348.07
529.84	1364.13
530.20	1380.82
530.56	1397.97
530.91	1415.44
531.27	1432.40
531.63	1448.84
531.99	1465.41
532.35	1481.42
532.71	1497.34
533.07	1513.62
533.42	1529.50
533.78	1545.62
534.14	1561.99
534.50	1577.29
534.86	1593.24
535.21	1608.42
535.57	1624.37
535.93	1639.93
536.29	1654.77
536.65	1669.92
537.00	1684.73
537.36	1700.03
537.72	1714.51
538.08	1728.85
538.44	1742.70
538.79	1756.51
539.15	1770.29
539.51	1784.04
539.87	1798.36
540.22	1812.08
540.58	1825.98
540.94	1839.41
541.29	1852.37
541.65	1864.99
542.01	1878.29
542.37	1890.48
542.72	1902.99
543.08	1914.79
543.44	1927.14
543.79	1938.44
544.15	1949.45
544.51	1961.00
544.87	1971.92
545.22	1982.67
545.58	1992.98
545.94	2002.68
546.29	2012.59
546.65	2022.32
547.01	2031.52
547.36	2040.28
547.72	2048.66
548.07	2056.57
548.43	2064.65
548.79	2072.76
549.14	2080.37
549.50	2087.83
549.86	2095.62
550.21	2102.96
550.57	2110.05
550.92	2116.65
551.28	2123.59
551.64	2130.63
551.99	2137.16
552.35	2143.35
552.70	2149.61
553.06	2155.56
553.41	2161.88
553.77	2167.85
554.13	2174.09
554.48	2180.32
554.84	2185.68
555.19	2191.11
555.55	2196.14
555.90	2200.56
556.26	2205.25
556.61	2210.06
556.97	2214.19
557.32	2218.28
557.68	2222.37
558.03	2226.68
558.39	2230.31
558.74	2234.94
559.10	2238.79
559.45	2242.45
559.81	2246.87
560.16	2250.68
560.52	2253.97
560.87	2257.45
561.23	2260.23
561.58	2263.12
561.94	2265.60
562.29	2268.14
562.64	2270.70
563.00	2273.33
563.35	2276.94
563.71	2280.15
564.06	2283.17
564.42	2285.86
564.77	2288.42
565.12	2290.78
565.48	2292.69
565.83	2294.51
566.19	2295.74
566.54	2296.65
566.89	2297.70
567.25	2298.18
567.60	2299.45
567.96	2301.11
568.31	2301.95
568.66	2302.88
569.02	2303.49
569.37	2303.81
569.72	2304.60
570.08	2304.66
570.43	2304.63
570.78	2303.99
571.14	2302.46
571.49	2301.09
571.84	2300.89
572.20	2299.53
572.55	2298.44
572.90	2296.97
573.26	2295.68
573.61	2294.09
573.96	2292.33
574.31	2289.39
574.67	2286.36
575.02	2282.79
575.37	2279.42
575.72	2275.54
576.08	2272.29
576.43	2268.89
576.78	2265.29
577.13	2262.10
577.49	2258.97
577.84	2255.43
578.19	2251.64
578.54	2247.89
578.90	2243.74
579.25	2238.09
579.60	2233.26
579.95	2228.14
580.30	2222.97
580.66	2217.72
581.01	2212.66
581.36	2207.58
581.71	2203.42
582.06	2198.88
582.42	2194.35
582.77	2188.98
583.12	2184.27
583.47	2179.40
583.82	2174.33
584.17	2168.80
584.53	2163.19
584.88	2157.70
585.23	2151.83
585.58	2146.32
585.93	2140.82
586.28	2136.08
586.63	2131.07
586.98	2125.88
587.34	2121.06
587.69	2116.08
588.04	2110.78
588.39	2105.06
588.74	2098.57
589.09	2092.40
589.44	2085.56
589.79	2079.49
590.14	2073.90
590.49	2067.33
590.84	2060.92
591.19	2054.87
591.54	2048.52
591.89	2041.14
592.25	2034.15
592.60	2026.98
592.95	2019.23
593.30	2011.88
593.65	2004.09
594.00	1996.96
594.35	1989.78
594.70	1981.87
595.05	1974.71
595.40	1967.20
595.75	1959.71
596.10	1953.46
596.45	1946.56
596.80	1940.43
597.15	1933.72
597.50	1926.53
597.85	1920.07
598.19	1913.34
598.54	1906.26
598.89	1899.53
599.24	1893.64
599.59	1886.98
599.94	1880.85
600.29	1874.65
600.64	1868.00
600.99	1860.51
601.34	1853.61
601.69	1846.52
602.04	1839.52
602.39	1832.04
602.74	1825.26
603.08	1818.50
603.43	1811.88
603.78	1804.67
604.13	1797.47
604.48	1790.12
604.83	1783.22
605.18	1776.21
605.53	1768.15
605.87	1760.02
606.22	1752.75
606.57	1744.72
606.92	1737.47
607.27	1730.24
607.62	1723.19
607.96	1715.86
608.31	1709.28
608.66	1701.69
609.01	1694.19
609.36	1686.61
609.70	1678.65
610.05	1670.63
610.40	1662.89
610.75	1654.45
611.10	1646.70
611.44	1638.20
611.79	1630.27
612.14	1621.60
612.49	1612.45
612.83	1604.21
613.18	1596.13
613.53	1588.09
613.88	1579.58
614.22	1571.19
614.57	1562.64
614.92	1554.65
615.27	1547.12
615.61	1538.86
615.96	1530.85
616.31	1523.18
616.65	1515.81
617.00	1508.29
617.35	1500.72
617.70	1492.36
618.04	1483.90
618.39	1475.67
618.74	1468.10
619.08	1459.69
619.43	1452.12
619.78	1445.30
620.12	1437.96
620.47	1430.41
620.82	1422.29
621.16	1414.88
621.51	1407.27
621.85	1399.58
622.20	1391.03
622.55	1382.72
622.89	1374.70
623.24	1367.13
623.59	1359.76
623.93	1352.27
624.28	1344.99
624.62	1337.44
624.97	1330.24
625.32	1323.44
625.66	1316.37
626.01	1309.17
626.35	1301.63
626.70	1293.78
627.04	1285.88
627.39	1278.20
627.73	1270.81
628.08	1263.76
628.43	1256.48
628.77	1249.12
629.12	1241.50
629.46	1234.43
629.81	1226.95
630.15	1219.75
630.50	1212.27
630.84	1204.13
631.19	1196.24
631.53	1188.72
631.88	1181.16
632.22	1173.62
632.57	1166.39
632.91	1158.98
633.26	1151.66
633.60	1144.46
633.95	1137.55
634.29	1130.63
634.64	1123.96
634.98	1116.64
635.32	1109.59
635.67	1103.01
636.01	1096.32
636.36	1089.57
636.70	1082.99
637.05	1076.56
637.39	1070.14
637.73	1063.74
638.08	1057.80
638.42	1051.79
638.77	1045.37
639.11	1038.74
639.45	1032.44
639.80	1025.72
640.14	1019.20
640.49	1012.57
640.83	1006.31
641.17	999.99
641.52	993.57
641.86	987.17
642.20	981.23
642.55	974.89
642.89	968.39
643.23	961.91
643.58	956.15
643.92	949.99
644.26	943.85
644.61	937.87
644.95	931.76
645.29	925.18
645.64	918.43
645.98	912.10
646.32	906.35
646.66	900.28
647.01	894.40
647.35	888.75
647.69	882.97
648.04	877.43
648.38	871.57
648.72	865.64
649.06	859.58
649.41	853.77
649.75	847.85
650.09	841.89
650.43	836.14
650.78	829.98
651.12	823.94
651.46	818.16
651.80	812.36
652.14	806.94
652.49	801.57
652.83	796.38
653.17	790.68
653.51	784.81
653.85	779.37
654.20	773.78
654.54	767.72
654.88	761.95
655.22	755.98
655.56	750.37
655.90	744.98
656.25	739.67
656.59	734.31
656.93	729.16
657.27	724.08
657.61	718.61
657.95	713.54
658.29	708.55
658.64	703.34
658.98	698.08
659.32	692.65
659.66	687.41
660.00	682.12
660.34	677.21
660.68	672.42
661.02	667.38
661.36	662.73
661.70	658.30
662.05	653.96
662.39	649.68
662.73	645.19
663.07	640.82
663.41	636.40
663.75	631.89
664.09	627.35
664.43	622.94
664.77	618.82
665.11	614.55
665.45	610.46
665.79	606.40
666.13	602.28
666.47	598.23
666.81	594.14
667.15	590.03
667.49	586.13
667.83	582.33
668.17	578.44
668.51	574.39
668.85	570.37
669.19	566.59
669.53	562.76
669.87	558.88
670.21	555.17
670.55	551.57
670.89	548.15
671.23	544.68
671.57	541.15
671.91	537.61
672.25	534.10
672.58	530.55
672.92	527.14
673.26	523.95
673.60	520.75
673.94	517.64
674.28	514.72
674.62	511.75
674.96	508.60
675.30	505.68
675.64	502.75
675.97	499.99
676.31	497.06
676.65	494.11
676.99	491.46
677.33	488.54
677.67	485.73
678.01	482.66
678.34	479.68
678.68	476.78
679.02	473.92
679.36	471.21
679.70	468.52
680.04	465.74
680.37	462.83
680.71	460.08
681.05	457.46
681.39	454.78
681.73	452.14
682.06	449.59
682.40	447.04
682.74	444.47
683.08	441.85
683.42	439.28
683.75	436.82
684.09	434.21
684.43	431.75
684.77	429.26
685.10	426.93
685.44	424.65
685.78	422.40
686.12	420.19
686.45	417.86
686.79	415.53
687.13	413.37
687.46	411.22
687.80	409.06
688.14	406.84
688.48	404.73
688.81	402.49
689.15	400.40
689.49	398.27
689.82	396.21
690.16	394.11
690.50	392.11
690.83	390.14
691.17	388.22
691.51	386.32
691.84	384.48
692.18	382.59
692.52	380.62
692.85	378.66
693.19	376.77
693.52	374.94
693.86	373.13
694.20	371.34
694.53	369.57
694.87	367.75
695.21	365.98
695.54	364.22
695.88	362.47
696.21	360.72
696.55	359.03
696.88	357.37
697.22	355.76
697.56	354.19
697.89	352.55
698.23	350.96
698.56	349.36
698.90	347.81
699.23	346.10
699.57	344.54
699.90	343.01
700.24	341.49
700.58	339.94
700.91	338.46
701.25	337.01
701.58	335.62
701.92	334.27
702.25	332.90
702.59	331.47
702.92	330.16
703.26	328.88
703.59	327.56
703.93	326.37
704.26	325.09
704.60	323.80
704.93	322.57
705.26	321.29
705.60	320.12
705.93	318.98
706.27	318.01
706.60	316.97
706.94	315.90
707.27	314.77
707.61	313.72
707.94	312.66
708.27	311.61
708.61	310.53
708.94	309.52
709.28	308.53
709.61	307.62
709.94	306.71
710.28	305.70
710.61	304.79
710.95	303.72
711.28	302.89
711.61	301.94
711.95	301.01
712.28	300.05
712.61	299.09
712.95	298.13
713.28	297.25
713.61	296.38
713.95	295.47
714.28	294.62
714.61	293.75
714.95	292.89
715.28	292.04
715.61	291.14
715.95	290.25
716.28	289.40
716.61	288.54
716.95	287.69
717.28	286.92
717.61	286.19
717.94	285.45
718.28	284.58
718.61	283.83
718.94	283.12
719.27	282.47
719.61	281.80
719.94	281.13
720.27	280.41
720.60	279.73
720.94	279.08
721.27	278.49
721.60	277.93
721.93	277.36
722.27	276.81
722.60	276.29
722.93	275.74
723.26	275.20
723.59	274.65
723.93	274.11
724.26	273.57
724.59	272.96
724.92	272.46
725.25	271.99
725.59	271.45
725.92	270.96
726.25	270.46
726.58	269.96
726.91	269.47
727.24	269.00
727.57	268.52
727.91	268.05
728.24	267.57
728.57	267.08
728.90	266.63
729.23	266.11
729.56	265.67
729.89	265.23
730.22	264.76
730.55	264.31
730.89	263.85
731.22	263.40
731.55	262.96
731.88	262.50
732.21	262.10
732.54	261.67
732.87	261.23
733.20	260.83
733.53	260.45
733.86	260.03
734.19	259.63
734.52	259.24
734.85	258.96
735.18	258.56
735.51	258.18
735.84	257.82
736.17	257.47
736.50	257.07
736.83	256.80
737.16	256.46
737.49	256.10
737.82	255.76
738.15	255.44
738.48	255.12
738.81	254.81
739.14	254.48
739.47	254.19
739.80	253.91
740.13	253.58
740.46	253.22
740.79	252.91
741.12	252.60
741.45	252.30
741.78	251.97
742.11	251.71
742.44	251.42
742.77	251.12
743.10	250.81
743.43	250.55
743.75	250.16
744.08	250.02
744.41	249.74
744.74	249.48
745.07	249.20
745.40	248.93
745.73	248.69
746.06	248.39
746.39	248.12
746.71	247.87
747.04	247.61
747.37	247.38
747.70	247.15
748.03	246.91
748.36	246.69
748.68	246.41
749.01	246.17
749.34	245.95
749.67	245.71
750.00	245.49
750.33	245.34
750.65	245.13
750.98	244.81
751.31	244.59
751.64	244.38
751.97	244.20
752.29	243.98
752.62	243.76
752.95	243.56
753.28	243.37
753.60	243.13
753.93	242.94
754.26	242.75
754.59	242.56
754.91	242.31
755.24	242.12
755.57	241.96
755.90	241.77
756.22	241.53
756.55	241.35
756.88	241.15
757.20	240.89
757.53	240.73
757.86	240.52
758.19	240.36
758.51	240.15
758.84	239.95
759.17	239.80
759.49	239.61
759.82	239.46
760.15	239.29
760.47	239.15
760.80	239.02
761.13	238.88
761.45	238.70
761.78	238.59
762.11	238.42
762.43	238.24
762.76	238.10
763.08	237.99
763.41	237.86
763.74	237.73
764.06	237.59
764.39	237.43
764.71	237.29
765.04	237.18
765.37	237.06
765.69	236.94
766.02	236.81
766.34	236.68
766.67	236.58
767.00	236.46
767.32	236.39
767.65	236.32
767.97	236.22
768.30	236.15
768.62	236.02
768.95	235.89
769.27	235.77
769.60	235.66
769.92	235.56
770.25	235.44
770.57	235.35
770.90	235.27
771.22	235.17
771.55	235.10
771.87	234.98
772.20	234.88
772.52	234.87
772.85	234.89
773.17	234.82
773.50	234.68
773.82	234.60
774.15	234.44
774.47	234.27
774.80	234.18
775.12	234.08
775.45	234.01
775.77	233.97
776.09	233.91
776.42	233.84
776.74	233.78
777.07	233.69
777.39	233.63
777.72	233.55
778.04	233.48
778.36	233.41
778.69	233.36
779.01	233.31
779.33	233.15
779.66	232.97
779.98	232.91
780.31	232.87
780.63	232.85
780.95	232.85
781.28	232.79
781.60	232.71
781.92	232.64
782.25	232.57
782.57	232.49
782.89	232.42
783.22	232.36
783.54	232.29
783.86	232.23
784.19	232.16
784.51	232.14
784.83	232.07
785.16	232.04
785.48	231.99
785.80	231.95
786.12	231.93
786.45	231.89
786.77	231.83
787.09	231.81
787.42	231.72
787.74	231.68
788.06	231.64
788.38	231.63
788.71	231.60
789.03	231.60
789.35	231.59
789.67	231.55
789.99	231.50
790.32	231.43
790.64	231.42
790.96	231.47
791.28	231.39
791.61	231.35
791.93	231.32
792.25	231.23
792.57	231.24
792.89	231.16
793.21	231.13
793.54	231.08
793.86	230.99
794.18	230.96
794.50	230.88
794.82	230.85
795.14	230.82
795.47	230.74
795.79	230.68
796.11	230.59
796.43	230.54
796.75	230.52
797.07	230.53
797.39	230.48
797.71	230.36
798.04	230.34
798.36	230.31
798.68	230.25
799.00	230.27
799.32	230.21
799.64	230.18
799.96	230.13
800.28	230.12
800.60	230.11
800.92	230.09
801.24	230.05
801.56	230.05
801.89	229.97
802.21	230.01
802.53	229.98
802.85	229.99
803.17	230.01
803.49	229.97
803.81	229.89
804.13	229.86
804.45	229.83
804.77	229.80
805.09	229.76
805.41	229.71
805.73	229.65
806.05	229.59
806.37	229.55
806.69	229.53
807.01	229.51
807.33	229.50
807.65	229.43
807.97	229.45
808.28	229.38
808.60	229.37
808.92	229.29
809.24	229.36
809.56	229.28
809.88	229.21
810.20	229.18
810.52	229.20
810.84	229.15
811.16	229.09
811.48	229.04
811.80	229.07
812.12	229.03
812.43	229.02
812.75	228.99
813.07	228.96
813.39	228.92
813.71	228.87
814.03	228.82
814.35	228.80
814.67	228.76
814.98	228.74
815.30	228.71
815.62	228.66
815.94	228.55
816.26	228.61
816.58	228.58
816.89	228.58
817.21	228.52
817.53	228.50
817.85	228.50
818.17	228.49
818.48	228.43
818.80	228.43
819.12	228.38
819.44	228.35
819.76	228.32
820.07	228.34
820.39	228.32
820.71	228.30
821.03	228.28
821.34	228.25
821.66	228.24
821.98	228.23
822.30	228.25
822.61	228.28
822.93	228.20
823.25	228.20
823.57	228.19
823.88	228.21
824.20	228.20
824.52	228.21
824.83	228.21
825.15	228.19
825.47	228.21
825.79	228.21
826.10	228.20
826.42	228.21
826.74	228.19
827.05	228.17
827.37	228.19
827.69	228.22
828.00	228.19
828.32	228.17
828.64	228.13
828.95	228.15
829.27	228.14
829.58	228.15
829.90	228.14
830.22	228.12
830.53	228.08
830.85	228.08
831.17	228.07
831.48	228.06
831.80	228.05
832.11	228.02
832.43	228.02
832.75	228.00
833.06	228.04
833.38	228.02
833.69	228.01
834.01	227.99
834.32	227.92
834.64	227.91
834.96	227.92
835.27	227.91
835.59	227.89
835.90	227.81
836.22	227.79
836.53	227.74
836.85	227.72
837.16	227.83
837.48	227.82
837.79	227.82
838.11	227.80
838.42	227.81
838.74	227.80
839.05	227.76
839.37	227.78
839.68	227.72
840.00	227.68
840.31	227.68
840.63	227.67
840.94	227.69
841.26	227.65
841.57	227.65
841.88	227.69
842.20	227.65
842.51	227.69
842.83	227.69
843.14	227.78
843.46	227.78
843.77	227.68
844.08	227.67
844.40	227.64
844.71	227.62
845.03	227.59
845.34	227.57
845.65	227.58
845.97	227.56
846.28	227.55
846.60	227.59
846.91	227.57
847.22	227.59
847.54	227.59
847.85	227.63
848.16	227.60
848.48	227.57
848.79	227.59
849.10	227.57
849.42	227.61
849.73	227.50
850.04	227.49
850.36	227.49
850.67	227.48
850.98	227.47
851.30	227.49
851.61	227.50
851.92	227.48
852.23	227.50
852.55	227.51
852.86	227.50
853.17	227.47
853.49	227.51
853.80	227.51
854.11	227.54
854.42	227.56
854.74	227.53
855.05	227.54
855.36	227.51
855.67	227.52
855.99	227.51
856.30	227.64
856.61	227.62
856.92	227.61
857.23	227.63
857.55	227.60
857.86	227.57
858.17	227.58
858.48	227.58
858.79	227.54
859.11	227.53
859.42	227.54
859.73	227.53
860.04	227.54
860.35	227.50
860.66	227.46
860.98	227.41
861.29	227.44
861.60	227.42
861.91	227.44
862.22	227.41
862.53	227.36
862.84	227.25
863.16	227.27
863.47	227.22
863.78	227.22
864.09	227.22
864.40	227.25
864.71	227.25
865.02	227.27
865.33	227.28
865.64	227.27
865.95	227.25
866.27	227.29
866.58	227.30
866.89	227.32
867.20	227.30
867.51	227.30
867.82	227.27
868.13	227.33
868.44	227.28
868.75	227.31
869.06	227.33
869.37	227.30
869.68	227.28
869.99	227.33
870.30	227.32
870.61	227.37
870.92	227.32
871.23	227.33
871.54	227.33
871.85	227.34
872.16	227.34
872.47	227.36
872.78	227.32
873.09	227.29
873.40	227.24
873.71	227.26
874.02	227.27
874.33	227.26
874.64	227.22
874.95	227.22
875.26	227.17
875.56	227.16
875.87	227.18
876.18	227.15
876.49	227.22
876.80	227.21
877.11	227.17
877.42	227.19
877.73	227.17
878.04	227.15
878.35	227.13
878.66	227.10
878.96	227.09
879.27	227.10
879.58	227.06
879.89	227.08
880.20	227.07
880.51	227.04
880.82	227.06
881.12	227.05
881.43	227.04
881.74	227.07
882.05	227.09
882.36	227.07
882.67	227.09
882.97	226.99
883.28	226.97
883.59	226.97
883.90	226.96
884.21	226.98
884.51	226.99
884.82	227.01
885.13	227.06
885.44	227.06
885.74	227.03
886.05	227.02
886.36	227.03
886.67	227.02
886.98	227.05
887.28	227.05
887.59	227.05
887.90	227.07
888.20	227.07
888.51	227.05
888.82	227.06
889.13	227.05
889.43	227.11
889.74	227.09
890.05	227.08
890.35	227.07
890.66	227.03
890.97	227.00
891.28	226.98
891.58	226.96
891.89	226.98
892.20	227.00
892.50	227.04
892.81	227.04
893.12	227.04
893.42	227.01
893.73	227.04
894.04	227.05
894.34	227.05
894.65	227.02
894.95	226.99
895.26	227.00
895.57	227.05
895.87	226.98
896.18	227.02
896.48	227.05
896.79	227.08
897.10	227.13
897.40	227.14
897.71	227.16
898.01	227.14
898.32	227.13
898.63	227.14
898.93	227.11
899.24	227.12
899.54	227.13
899.85	227.17
900.15	227.18
900.46	227.16
900.76	227.16
901.07	227.18
901.38	227.22
901.68	227.24
901.99	227.19
902.29	227.19
902.60	227.19
902.90	227.14
903.21	227.15
903.51	227.16
903.82	227.15
904.12	227.14
904.43	227.17
904.73	227.16
905.03	227.14
905.34	227.25
905.64	227.21
905.95	227.21
906.25	227.15
906.56	227.15
906.86	227.14
907.17	227.12
907.47	227.13
907.77	227.12
908.08	227.10
908.38	227.13
908.69	227.16
908.99	227.15
909.30	227.20
909.60	227.18
909.90	227.16
910.21	227.15
910.51	227.13
910.81	227.10
911.12	227.12
911.42	227.13
911.73	226.99
912.03	227.01
912.33	227.02
912.64	227.04
912.94	227.03
913.24	227.03
913.55	227.06
913.85	227.04
914.15	227.05
914.46	227.09
914.76	227.07
915.06	227.04
915.37	227.01
915.67	226.98
915.97	226.96
916.27	226.96
916.58	226.97
916.88	226.97
917.18	226.95
917.49	227.00
917.79	226.99
918.09	227.00
918.39	227.02
918.70	227.00
919.00	227.01
919.30	227.05
919.60	227.05
919.91	227.00
920.21	226.99
920.51	226.95
920.81	226.92
921.12	226.91
921.42	226.91
921.72	226.91
922.02	226.95
922.32	226.99
922.63	226.97
922.93	227.02
923.23	227.03
923.53	227.04
923.83	226.97
924.13	226.97
924.44	226.98
924.74	226.98
925.04	226.99
925.34	226.97
925.64	226.89
925.94	226.87
926.24	226.91
926.55	226.91
926.85	226.93
927.15	226.93
927.45	226.91
927.75	226.92
928.05	226.95
928.35	226.91
928.65	226.88
928.95	226.87
929.26	226.84
929.56	226.87
929.86	226.87
930.16	226.85
930.46	226.86
930.76	226.85
931.06	226.83
931.36	226.82
931.66	226.83
931.96	226.84
932.26	226.88
932.56	226.86
932.86	226.87
933.16	226.88
933.46	226.89
933.76	226.88
934.06	226.91
934.36	226.90
934.66	226.88
934.96	226.89
935.26	226.91
935.56	226.90
935.86	226.87
936.16	226.87
936.46	226.89
936.76	226.87
937.06	226.87
937.36	226.89
937.66	226.88
937.96	226.89
938.26	226.89
938.56	226.85
938.86	226.85
939.16	226.85
939.46	226.85
939.76	226.85
940.06	226.88
940.35	226.84
940.65	226.83
940.95	226.87
941.25	226.86
941.55	226.83
941.85	226.84
942.15	226.85
942.45	226.86
942.75	226.86
943.04	226.89
943.34	226.93
943.64	226.89
943.94	226.90
944.24	226.88
944.54	226.88
944.84	226.89
945.13	226.87
945.43	226.86
945.73	226.83
946.03	226.82
946.33	226.79
946.62	226.81
946.92	226.79
947.22	226.76
947.52	226.75
947.82	226.74
948.11	226.74
948.41	226.72
948.71	226.71
949.01	226.71
949.31	226.68
949.60	226.62
949.90	226.63
950.20	226.63
950.50	226.65
950.79	226.65
951.09	226.65
951.39	226.65
951.69	226.66
951.98	226.71
952.28	226.72
952.58	226.69
952.87	226.71
953.17	226.71
953.47	226.69
953.76	226.69
954.06	226.69
954.36	226.66
954.66	226.65
954.95	226.63
955.25	226.65
955.55	226.64
955.84	226.61
956.14	226.67
956.44	226.64
956.73	226.59
957.03	226.58
957.32	226.59
957.62	226.56
957.92	226.58
958.21	226.53
958.51	226.62
958.81	226.65
959.10	226.62
959.40	226.65
959.69	226.68
959.99	226.66
960.29	226.68
960.58	226.69
960.88	226.70
961.17	226.71
961.47	226.70
961.76	226.69
962.06	226.75
962.36	226.66
962.65	226.65
962.95	226.71
963.24	226.70
963.54	226.69
963.83	226.70
964.13	226.67
964.42	226.66
964.72	226.61
965.01	226.60
965.31	226.59
965.60	226.54
965.90	226.59
966.19	226.60
966.49	226.60
966.78	226.57
967.08	226.61
967.37	226.62
967.67	226.61
967.96	226.63
968.26	226.63
968.55	226.72
968.85	226.73
969.14	226.69
969.43	226.71
969.73	226.72
970.02	226.72
970.32	226.75
970.61	226.71
970.91	226.67
971.20	226.68
971.49	226.69
971.79	226.72
972.08	226.68
972.38	226.70
972.67	226.68
972.96	226.72
973.26	226.70
973.55	226.74
973.85	226.76
974.14	226.76
974.43	226.78
974.73	226.74
975.02	226.75
975.31	226.76
975.61	226.75
975.90	226.74
976.19	226.74
976.49	226.74
976.78	226.83
977.07	226.84
977.37	226.84
977.66	226.85
977.95	226.85
978.24	226.85
978.54	226.85
978.83	226.88
979.12	226.89
979.42	226.91
979.71	226.91
980.00	226.91
980.29	226.93
980.59	226.91
980.88	226.93
981.17	226.92
981.46	226.97
981.76	226.98
982.05	227.02
982.34	227.05
982.63	227.07
982.93	227.01
983.22	227.03
983.51	227.04
983.80	227.07
984.09	227.07
984.39	227.05
984.68	227.05
984.97	227.07
985.26	227.05
985.55	227.02
985.85	226.97
986.14	227.00
986.43	227.00
986.72	226.99
987.01	226.96
987.30	226.94
987.59	226.91
987.89	226.93
988.18	226.89
988.47	226.85
988.76	226.84
989.05	226.86
989.34	226.86
989.63	226.89
989.92	226.90
990.22	226.88
990.51	226.90
990.80	226.91
991.09	226.89
991.38	226.87
991.67	226.87
991.96	226.84
992.25	226.86
992.54	226.83
992.83	226.82
993.12	226.84
993.41	226.86
993.70	226.89
993.99	226.88
994.28	226.90
994.58	226.95
994.87	226.92
995.16	226.92
995.45	226.92
995.74	226.85
996.03	226.83
996.32	226.87
996.61	226.87
996.90	226.83
997.19	226.84
997.48	226.82
997.77	226.84
998.06	226.87
998.34	226.81
998.63	226.82
998.92	226.84
999.21	226.83
999.50	226.84
999.79	226.80
1000.08	226.80
1000.37	226.81
1000.66	226.79
1000.95	226.80
1001.24	226.80
1001.53	226.77
1001.82	226.76
1002.11	226.73
1002.40	226.70
1002.68	226.70
1002.97	226.79
1003.26	226.73
1003.55	226.76
1003.84	226.73
1004.13	226.76
1004.42	226.77
1004.71	226.76
1004.99	226.72
1005.28	226.72
1005.57	226.68
1005.86	226.68
1006.15	226.65
1006.44	226.60
1006.72	226.59
1007.01	226.59
1007.30	226.58
1007.59	226.54
1007.88	226.55
1008.17	226.56
1008.45	226.56
1008.74	226.53
1009.03	226.49
1009.32	226.51
1009.60	226.48
1009.89	226.50
1010.18	226.46
1010.47	226.47
1010.76	226.44
1011.04	226.46
1011.33	226.46
1011.62	226.51
1011.91	226.53
1012.19	226.54
1012.48	226.54
1012.77	226.55
1013.05	226.58
1013.34	226.55
1013.63	226.58
1013.92	226.57
1014.20	226.56
1014.49	226.55
1014.78	226.58
1015.06	226.55
1015.35	226.55
1015.64	226.58
1015.92	226.56
1016.21	226.55
1016.50	226.56
1016.78	226.58
1017.07	226.61
1017.36	226.62
1017.64	226.59
1017.93	226.58
1018.22	226.60
1018.50	226.61
1018.79	226.62
1019.08	226.58
1019.36	226.63
1019.65	226.63
1019.93	226.67
1020.22	226.71
1020.51	226.80
1020.79	226.79
1021.08	226.93
1021.36	226.28
1021.65	226.75
1021.94	226.70
1022.22	226.75
1022.51	226.47
1022.79	227.04
1023.08	227.04
1023.36	228.43
1023.65	226.69
>>>>>End Processed Spectral Data<<<<<
