SpectraSuite Data File
++++++++++++++++++++++++++++++++++++
Date: Fri Feb 01 16:05:25 EST 2013
User: group
Dark Spectrum Present: No
Reference Spectrum Present: No
Number of Sampled Component Spectra: 1
Spectrometers: USB2E7196
Integration Time (usec): 35000 (USB2E7196)
Spectra Averaged: 100 (USB2E7196)
Boxcar Smoothing: 10 (USB2E7196)
Correct for Electrical Dark: No (USB2E7196)
Strobe/Lamp Enabled: No (USB2E7196)
Correct for Detector Non-linearity: No (USB2E7196)
Correct for Stray Light: No (USB2E7196)
Number of Pixels in Processed Spectrum: 2048
>>>>>Begin Processed Spectral Data<<<<<
339.09	0.00
339.48	214.83
339.86	216.90
340.24	217.30
340.63	219.74
341.01	221.95
341.39	222.09
341.78	222.99
342.16	224.53
342.54	224.74
342.93	213.19
343.31	223.96
343.69	224.49
344.07	224.90
344.46	225.32
344.84	225.65
345.22	225.85
345.60	226.06
345.99	226.23
346.37	226.34
346.75	226.44
347.13	226.50
347.52	226.58
347.90	226.65
348.28	226.67
348.66	226.74
349.05	226.71
349.43	226.76
349.81	226.78
350.19	226.82
350.57	226.88
350.96	226.94
351.34	227.00
351.72	227.11
352.10	227.20
352.48	227.28
352.87	227.34
353.25	227.42
353.63	227.49
354.01	227.59
354.39	227.64
354.77	227.69
355.15	227.79
355.54	227.83
355.92	227.87
356.30	227.93
356.68	228.00
357.06	228.10
357.44	228.12
357.82	228.17
358.20	228.24
358.58	228.29
358.97	228.34
359.35	228.45
359.73	228.52
360.11	228.58
360.49	228.62
360.87	228.65
361.25	228.71
361.63	228.81
362.01	228.81
362.39	228.87
362.77	228.91
363.15	228.92
363.53	228.99
363.91	228.99
364.29	229.01
364.67	229.01
365.05	229.01
365.43	229.05
365.81	229.08
366.19	229.12
366.57	229.14
366.95	229.15
367.33	229.10
367.71	229.10
368.09	229.10
368.47	229.12
368.85	229.09
369.23	229.09
369.61	229.02
369.99	229.05
370.37	229.02
370.75	229.05
371.13	228.98
371.51	228.90
371.89	228.87
372.27	228.83
372.65	228.77
373.03	228.75
373.41	228.71
373.78	228.62
374.16	228.50
374.54	228.41
374.92	228.34
375.30	228.25
375.68	228.15
376.06	228.11
376.44	228.00
376.82	227.95
377.19	227.88
377.57	227.78
377.95	227.68
378.33	227.59
378.71	227.44
379.09	227.42
379.47	227.38
379.84	227.31
380.22	227.24
380.60	227.12
380.98	227.05
381.36	226.97
381.73	226.90
382.11	226.86
382.49	226.80
382.87	226.73
383.25	226.69
383.62	226.74
384.00	226.64
384.38	226.57
384.76	226.54
385.13	226.49
385.51	226.45
385.89	226.37
386.27	226.32
386.64	226.28
387.02	226.22
387.40	226.15
387.78	226.10
388.15	226.04
388.53	226.01
388.91	225.97
389.29	225.93
389.66	225.92
390.04	225.88
390.42	225.89
390.79	225.84
391.17	225.82
391.55	225.70
391.92	225.70
392.30	225.74
392.68	225.71
393.05	225.75
393.43	225.74
393.81	225.77
394.18	225.77
394.56	225.80
394.94	225.84
395.31	225.85
395.69	225.94
396.06	226.02
396.44	226.08
396.82	226.12
397.19	226.19
397.57	226.27
397.95	226.32
398.32	226.34
398.70	226.43
399.07	226.51
399.45	226.55
399.82	226.61
400.20	226.67
400.58	226.79
400.95	226.81
401.33	226.91
401.70	227.06
402.08	227.16
402.45	227.26
402.83	227.37
403.20	227.49
403.58	227.53
403.95	227.62
404.33	227.78
404.71	227.89
405.08	228.10
405.46	228.24
405.83	228.38
406.21	228.54
406.58	228.72
406.96	228.89
407.33	229.07
407.70	229.29
408.08	229.55
408.45	229.77
408.83	229.99
409.20	230.24
409.58	230.45
409.95	230.73
410.33	231.02
410.70	231.27
411.08	231.62
411.45	231.97
411.82	232.27
412.20	232.60
412.57	233.02
412.95	233.32
413.32	233.75
413.69	234.20
414.07	234.66
414.44	235.12
414.82	235.59
415.19	236.14
415.56	236.70
415.94	237.26
416.31	237.90
416.68	238.57
417.06	239.28
417.43	239.97
417.81	240.73
418.18	241.52
418.55	242.38
418.93	243.21
419.30	244.10
419.67	245.08
420.04	246.05
420.42	247.04
420.79	248.24
421.16	249.37
421.54	250.56
421.91	251.78
422.28	253.02
422.66	254.38
423.03	255.73
423.40	257.06
423.77	258.50
424.15	259.88
424.52	261.34
424.89	262.96
425.26	264.51
425.64	265.94
426.01	267.52
426.38	269.18
426.75	270.85
427.13	272.53
427.50	274.31
427.87	276.20
428.24	278.05
428.61	279.76
428.99	281.70
429.36	283.81
429.73	285.87
430.10	287.89
430.47	289.90
430.85	292.02
431.22	294.25
431.59	296.55
431.96	298.82
432.33	301.31
432.70	303.67
433.08	306.47
433.45	309.12
433.82	311.73
434.19	314.65
434.56	317.46
434.93	320.16
435.30	322.81
435.68	325.68
436.05	328.47
436.42	331.26
436.79	333.76
437.16	336.42
437.53	339.24
437.90	342.08
438.27	344.80
438.64	347.57
439.01	350.16
439.38	352.40
439.75	354.51
440.13	356.99
440.50	359.36
440.87	361.17
441.24	363.08
441.61	365.20
441.98	366.61
442.35	368.39
442.72	370.23
443.09	372.03
443.46	373.01
443.83	373.59
444.20	374.04
444.57	374.88
444.94	375.16
445.31	375.47
445.68	375.79
446.05	375.90
446.42	375.51
446.79	375.03
447.16	374.58
447.53	374.30
447.90	373.12
448.27	371.88
448.64	370.30
449.01	369.17
449.37	367.18
449.74	365.31
450.11	363.05
450.48	360.57
450.85	358.02
451.22	355.90
451.59	353.90
451.96	352.01
452.33	349.38
452.70	347.01
453.07	344.17
453.43	341.27
453.80	338.48
454.17	335.79
454.54	333.29
454.91	330.58
455.28	327.91
455.65	325.44
456.02	323.02
456.38	320.84
456.75	318.21
457.12	315.98
457.49	313.75
457.86	311.56
458.23	309.70
458.59	307.64
458.96	305.54
459.33	303.67
459.70	301.84
460.07	300.37
460.43	298.69
460.80	297.09
461.17	295.69
461.54	294.20
461.91	292.81
462.27	291.38
462.64	290.15
463.01	288.82
463.38	287.49
463.74	286.13
464.11	284.97
464.48	283.93
464.85	282.85
465.21	282.00
465.58	281.11
465.95	280.05
466.32	279.16
466.68	278.27
467.05	277.43
467.42	276.53
467.78	275.59
468.15	274.73
468.52	274.07
468.88	273.18
469.25	272.45
469.62	271.82
469.98	271.12
470.35	270.48
470.72	269.88
471.08	269.28
471.45	268.76
471.82	268.27
472.18	267.67
472.55	267.21
472.92	266.69
473.28	266.24
473.65	265.79
474.02	265.35
474.38	264.98
474.75	264.67
475.11	264.33
475.48	264.06
475.85	263.83
476.21	263.60
476.58	263.44
476.94	263.28
477.31	263.11
477.67	262.97
478.04	262.84
478.41	262.77
478.77	262.78
479.14	262.71
479.50	262.70
479.87	262.76
480.23	262.86
480.60	262.94
480.96	263.02
481.33	263.21
481.69	263.41
482.06	263.62
482.42	263.76
482.79	264.02
483.15	264.31
483.52	264.68
483.88	265.01
484.25	265.41
484.61	265.82
484.98	266.30
485.34	266.93
485.71	267.55
486.07	268.16
486.44	268.73
486.80	269.44
487.17	270.18
487.53	271.02
487.90	271.88
488.26	272.83
488.62	273.85
488.99	274.82
489.35	275.86
489.72	276.97
490.08	278.20
490.44	279.47
490.81	280.84
491.17	282.20
491.54	283.70
491.90	285.24
492.26	286.89
492.63	288.63
492.99	290.35
493.36	292.23
493.72	294.28
494.08	296.38
494.45	298.63
494.81	301.00
495.17	303.42
495.54	305.95
495.90	308.63
496.26	311.41
496.63	314.39
496.99	317.54
497.35	320.79
497.72	324.22
498.08	327.70
498.44	331.39
498.80	335.32
499.17	339.37
499.53	343.57
499.89	347.94
500.26	352.46
500.62	357.13
500.98	362.11
501.34	367.23
501.71	372.57
502.07	378.03
502.43	383.67
502.79	389.55
503.16	395.71
503.52	401.99
503.88	408.38
504.24	414.99
504.60	421.90
504.97	429.07
505.33	436.38
505.69	444.10
506.05	451.86
506.41	459.70
506.78	467.91
507.14	476.34
507.50	485.06
507.86	494.10
508.22	503.36
508.59	512.65
508.95	522.24
509.31	532.11
509.67	542.18
510.03	552.48
510.39	563.04
510.75	573.76
511.12	584.67
511.48	596.03
511.84	607.42
512.20	618.95
512.56	630.88
512.92	643.08
513.28	655.39
513.64	667.85
514.00	680.65
514.37	693.54
514.73	706.63
515.09	719.72
515.45	732.94
515.81	746.55
516.17	760.47
516.53	774.59
516.89	788.76
517.25	802.89
517.61	817.31
517.97	831.80
518.33	846.27
518.69	861.03
519.05	875.95
519.41	891.17
519.77	906.71
520.13	922.16
520.49	937.50
520.85	953.01
521.21	968.84
521.57	985.05
521.93	1000.84
522.29	1017.17
522.65	1033.46
523.01	1049.73
523.37	1065.66
523.73	1081.81
524.09	1097.86
524.45	1114.09
524.81	1130.86
525.17	1147.61
525.53	1164.47
525.89	1181.28
526.25	1198.17
526.61	1214.58
526.97	1231.35
527.33	1247.73
527.68	1264.26
528.04	1280.74
528.40	1297.31
528.76	1314.23
529.12	1330.77
529.48	1347.56
529.84	1363.56
530.20	1380.10
530.56	1396.95
530.91	1414.25
531.27	1430.90
531.63	1447.29
531.99	1463.89
532.35	1479.82
532.71	1495.67
533.07	1511.76
533.42	1527.69
533.78	1543.65
534.14	1559.84
534.50	1575.08
534.86	1590.80
535.21	1606.04
535.57	1621.91
535.93	1637.26
536.29	1652.06
536.65	1667.07
537.00	1681.84
537.36	1697.04
537.72	1711.47
538.08	1725.88
538.44	1739.72
538.79	1753.66
539.15	1767.30
539.51	1780.97
539.87	1795.14
540.22	1808.87
540.58	1822.70
540.94	1835.95
541.29	1848.76
541.65	1861.45
542.01	1874.63
542.37	1887.05
542.72	1899.35
543.08	1911.04
543.44	1923.43
543.79	1934.64
544.15	1945.47
544.51	1956.93
544.87	1967.91
545.22	1978.70
545.58	1989.01
545.94	1998.76
546.29	2008.54
546.65	2018.45
547.01	2027.80
547.36	2036.45
547.72	2044.83
548.07	2052.60
548.43	2060.66
548.79	2068.59
549.14	2076.23
549.50	2083.59
549.86	2091.21
550.21	2098.56
550.57	2105.87
550.92	2112.46
551.28	2119.51
551.64	2126.75
551.99	2133.35
552.35	2139.51
552.70	2145.68
553.06	2151.68
553.41	2157.96
553.77	2164.04
554.13	2170.02
554.48	2175.94
554.84	2181.48
555.19	2186.73
555.55	2192.06
555.90	2196.63
556.26	2201.54
556.61	2206.24
556.97	2210.49
557.32	2214.62
557.68	2218.80
558.03	2222.99
558.39	2226.63
558.74	2231.23
559.10	2235.10
559.45	2238.68
559.81	2242.95
560.16	2246.76
560.52	2249.98
560.87	2253.48
561.23	2256.05
561.58	2258.99
561.94	2261.66
562.29	2264.04
562.64	2266.82
563.00	2269.29
563.35	2272.84
563.71	2275.97
564.06	2279.15
564.42	2282.14
564.77	2284.75
565.12	2286.95
565.48	2288.96
565.83	2290.81
566.19	2292.09
566.54	2293.02
566.89	2294.27
567.25	2294.85
567.60	2296.28
567.96	2297.88
568.31	2298.61
568.66	2299.76
569.02	2300.36
569.37	2300.68
569.72	2301.54
570.08	2301.85
570.43	2301.90
570.78	2301.32
571.14	2299.81
571.49	2298.37
571.84	2297.96
572.20	2296.87
572.55	2295.76
572.90	2294.10
573.26	2292.80
573.61	2291.04
573.96	2289.29
574.31	2286.32
574.67	2283.30
575.02	2279.42
575.37	2276.12
575.72	2272.32
576.08	2268.92
576.43	2265.62
576.78	2261.96
577.13	2258.84
577.49	2255.42
577.84	2251.86
578.19	2247.99
578.54	2244.34
578.90	2240.24
579.25	2234.76
579.60	2229.73
579.95	2224.82
580.30	2219.67
580.66	2214.58
581.01	2209.73
581.36	2204.91
581.71	2200.72
582.06	2196.42
582.42	2192.26
582.77	2187.03
583.12	2182.57
583.47	2178.07
583.82	2173.14
584.17	2167.96
584.53	2162.47
584.88	2157.00
585.23	2151.36
585.58	2146.04
585.93	2140.63
586.28	2135.73
586.63	2130.66
586.98	2125.62
587.34	2120.87
587.69	2116.10
588.04	2110.84
588.39	2105.24
588.74	2098.56
589.09	2092.45
589.44	2085.66
589.79	2079.48
590.14	2073.98
590.49	2067.39
590.84	2060.87
591.19	2054.92
591.54	2048.42
591.89	2041.12
592.25	2034.34
592.60	2027.11
592.95	2019.50
593.30	2012.24
593.65	2004.68
594.00	1997.59
594.35	1990.28
594.70	1982.37
595.05	1975.29
595.40	1968.00
595.75	1960.48
596.10	1954.42
596.45	1947.65
596.80	1941.59
597.15	1935.03
597.50	1927.94
597.85	1921.43
598.19	1914.85
598.54	1907.64
598.89	1900.94
599.24	1895.05
599.59	1888.46
599.94	1882.24
600.29	1876.11
600.64	1869.44
600.99	1862.11
601.34	1855.32
601.69	1848.33
602.04	1841.48
602.39	1834.18
602.74	1827.34
603.08	1820.68
603.43	1813.82
603.78	1806.49
604.13	1799.21
604.48	1791.93
604.83	1784.92
605.18	1778.11
605.53	1770.17
605.87	1762.13
606.22	1754.99
606.57	1746.85
606.92	1739.46
607.27	1732.41
607.62	1725.26
607.96	1718.07
608.31	1711.49
608.66	1703.89
609.01	1696.47
609.36	1688.86
609.70	1680.83
610.05	1672.89
610.40	1665.19
610.75	1656.94
611.10	1649.33
611.44	1640.86
611.79	1632.86
612.14	1624.19
612.49	1615.02
612.83	1606.68
613.18	1598.64
613.53	1590.40
613.88	1581.98
614.22	1573.75
614.57	1565.01
614.92	1557.08
615.27	1549.52
615.61	1541.24
615.96	1533.25
616.31	1525.50
616.65	1518.13
617.00	1510.51
617.35	1502.67
617.70	1494.10
618.04	1485.63
618.39	1477.52
618.74	1469.93
619.08	1461.62
619.43	1454.11
619.78	1447.21
620.12	1439.88
620.47	1432.39
620.82	1424.24
621.16	1416.82
621.51	1409.13
621.85	1401.46
622.20	1392.90
622.55	1384.45
622.89	1376.54
623.24	1368.83
623.59	1361.48
623.93	1353.87
624.28	1346.61
624.62	1339.17
624.97	1332.22
625.32	1325.35
625.66	1318.08
626.01	1310.90
626.35	1303.44
626.70	1295.62
627.04	1287.91
627.39	1280.05
627.73	1272.58
628.08	1265.76
628.43	1258.55
628.77	1251.21
629.12	1243.72
629.46	1236.63
629.81	1229.22
630.15	1221.97
630.50	1214.57
630.84	1206.41
631.19	1198.51
631.53	1191.02
631.88	1183.36
632.22	1175.67
632.57	1168.40
632.91	1161.00
633.26	1153.66
633.60	1146.23
633.95	1139.13
634.29	1132.02
634.64	1125.43
634.98	1118.09
635.32	1110.83
635.67	1104.24
636.01	1097.58
636.36	1090.78
636.70	1084.19
637.05	1077.65
637.39	1071.26
637.73	1064.84
638.08	1059.02
638.42	1053.08
638.77	1046.60
639.11	1040.13
639.45	1033.75
639.80	1027.17
640.14	1020.75
640.49	1014.09
640.83	1007.88
641.17	1001.66
641.52	995.31
641.86	988.82
642.20	982.98
642.55	976.66
642.89	970.11
643.23	963.56
643.58	957.83
643.92	951.64
644.26	945.60
644.61	939.51
644.95	933.44
645.29	926.81
645.64	920.05
645.98	913.76
646.32	907.85
646.66	901.78
647.01	895.90
647.35	890.17
647.69	884.37
648.04	878.69
648.38	872.83
648.72	866.86
649.06	860.86
649.41	855.01
649.75	849.09
650.09	843.16
650.43	837.40
650.78	831.22
651.12	825.18
651.46	819.48
651.80	813.74
652.14	808.35
652.49	802.93
652.83	797.69
653.17	791.95
653.51	786.24
653.85	780.83
654.20	775.21
654.54	769.18
654.88	763.37
655.22	757.57
655.56	751.92
655.90	746.48
656.25	741.22
656.59	735.71
656.93	730.60
657.27	725.42
657.61	719.90
657.95	714.79
658.29	709.70
658.64	704.36
658.98	698.93
659.32	693.44
659.66	688.26
660.00	682.99
660.34	678.00
660.68	673.04
661.02	667.98
661.36	663.29
661.70	658.76
662.05	654.41
662.39	650.09
662.73	645.57
663.07	641.10
663.41	636.67
663.75	632.23
664.09	627.63
664.43	623.22
664.77	619.12
665.11	614.82
665.45	610.67
665.79	606.69
666.13	602.57
666.47	598.46
666.81	594.27
667.15	590.17
667.49	586.27
667.83	582.45
668.17	578.56
668.51	574.49
668.85	570.46
669.19	566.65
669.53	562.80
669.87	559.00
670.21	555.36
670.55	551.65
670.89	548.18
671.23	544.84
671.57	541.30
671.91	537.75
672.25	534.33
672.58	530.80
672.92	527.33
673.26	524.16
673.60	520.98
673.94	517.90
674.28	514.98
674.62	512.00
674.96	508.88
675.30	505.98
675.64	503.00
675.97	500.28
676.31	497.41
676.65	494.49
676.99	491.78
677.33	488.90
677.67	486.16
678.01	483.19
678.34	480.17
678.68	477.34
679.02	474.56
679.36	471.75
679.70	469.06
680.04	466.37
680.37	463.52
680.71	460.76
681.05	458.12
681.39	455.42
681.73	452.79
682.06	450.29
682.40	447.78
682.74	445.26
683.08	442.68
683.42	440.11
683.75	437.59
684.09	434.98
684.43	432.50
684.77	430.00
685.10	427.58
685.44	425.33
685.78	423.06
686.12	420.83
686.45	418.55
686.79	416.27
687.13	414.01
687.46	411.83
687.80	409.64
688.14	407.44
688.48	405.39
688.81	403.14
689.15	401.01
689.49	398.81
689.82	396.71
690.16	394.64
690.50	392.71
690.83	390.81
691.17	388.86
691.51	386.98
691.84	385.10
692.18	383.17
692.52	381.15
692.85	379.14
693.19	377.25
693.52	375.38
693.86	373.56
694.20	371.79
694.53	369.99
694.87	368.17
695.21	366.33
695.54	364.48
695.88	362.77
696.21	360.99
696.55	359.29
696.88	357.64
697.22	355.94
697.56	354.28
697.89	352.56
698.23	350.95
698.56	349.30
698.90	347.76
699.23	346.17
699.57	344.62
699.90	343.07
700.24	341.49
700.58	340.00
700.91	338.50
701.25	337.04
701.58	335.66
701.92	334.28
702.25	332.92
702.59	331.51
702.92	330.21
703.26	328.93
703.59	327.64
703.93	326.41
704.26	325.21
704.60	323.89
704.93	322.65
705.26	321.37
705.60	320.18
705.93	318.99
706.27	317.94
706.60	316.83
706.94	315.78
707.27	314.66
707.61	313.60
707.94	312.54
708.27	311.48
708.61	310.43
708.94	309.46
709.28	308.49
709.61	307.58
709.94	306.59
710.28	305.53
710.61	304.53
710.95	303.46
711.28	302.55
711.61	301.56
711.95	300.65
712.28	299.74
712.61	298.82
712.95	297.90
713.28	296.99
713.61	296.12
713.95	295.22
714.28	294.39
714.61	293.46
714.95	292.64
715.28	291.78
715.61	290.87
715.95	289.98
716.28	289.09
716.61	288.22
716.95	287.45
717.28	286.76
717.61	286.01
717.94	285.24
718.28	284.46
718.61	283.75
718.94	283.08
719.27	282.43
719.61	281.78
719.94	281.13
720.27	280.40
720.60	279.80
720.94	279.20
721.27	278.62
721.60	278.09
721.93	277.47
722.27	276.94
722.60	276.42
722.93	275.86
723.26	275.38
723.59	274.86
723.93	274.31
724.26	273.74
724.59	273.15
724.92	272.66
725.25	272.16
725.59	271.66
725.92	271.14
726.25	270.62
726.58	270.13
726.91	269.62
727.24	269.13
727.57	268.65
727.91	268.15
728.24	267.69
728.57	267.20
728.90	266.76
729.23	266.28
729.56	265.84
729.89	265.42
730.22	264.90
730.55	264.42
730.89	263.98
731.22	263.56
731.55	263.16
731.88	262.76
732.21	262.32
732.54	261.89
732.87	261.49
733.20	261.11
733.53	260.69
733.86	260.31
734.19	259.97
734.52	259.57
734.85	259.23
735.18	258.79
735.51	258.43
735.84	258.03
736.17	257.65
736.50	257.24
736.83	256.95
737.16	256.61
737.49	256.26
737.82	255.89
738.15	255.53
738.48	255.19
738.81	254.84
739.14	254.52
739.47	254.18
739.80	253.88
740.13	253.53
740.46	253.19
740.79	252.86
741.12	252.55
741.45	252.22
741.78	251.89
742.11	251.60
742.44	251.29
742.77	251.04
743.10	250.78
743.43	250.47
743.75	250.08
744.08	249.93
744.41	249.67
744.74	249.37
745.07	249.05
745.40	248.79
745.73	248.54
746.06	248.23
746.39	247.96
746.71	247.66
747.04	247.40
747.37	247.14
747.70	246.89
748.03	246.64
748.36	246.41
748.68	246.17
749.01	245.92
749.34	245.68
749.67	245.42
750.00	245.19
750.33	245.05
750.65	244.85
750.98	244.51
751.31	244.28
751.64	244.10
751.97	244.01
752.29	243.79
752.62	243.54
752.95	243.34
753.28	243.14
753.60	242.97
753.93	242.80
754.26	242.59
754.59	242.39
754.91	242.16
755.24	241.97
755.57	241.77
755.90	241.60
756.22	241.42
756.55	241.21
756.88	241.01
757.20	240.80
757.53	240.61
757.86	240.43
758.19	240.31
758.51	240.14
758.84	239.92
759.17	239.79
759.49	239.67
759.82	239.56
760.15	239.43
760.47	239.28
760.80	239.06
761.13	238.99
761.45	238.81
761.78	238.68
762.11	238.53
762.43	238.41
762.76	238.28
763.08	238.14
763.41	238.03
763.74	237.91
764.06	237.77
764.39	237.66
764.71	237.56
765.04	237.43
765.37	237.30
765.69	237.19
766.02	237.06
766.34	236.94
766.67	236.80
767.00	236.70
767.32	236.62
767.65	236.62
767.97	236.49
768.30	236.43
768.62	236.33
768.95	236.20
769.27	236.07
769.60	235.99
769.92	235.85
770.25	235.74
770.57	235.58
770.90	235.48
771.22	235.37
771.55	235.26
771.87	235.15
772.20	235.08
772.52	235.03
772.85	235.08
773.17	234.99
773.50	234.89
773.82	234.75
774.15	234.59
774.47	234.44
774.80	234.34
775.12	234.25
775.45	234.15
775.77	234.10
776.09	234.03
776.42	233.90
776.74	233.86
777.07	233.75
777.39	233.68
777.72	233.59
778.04	233.53
778.36	233.45
778.69	233.37
779.01	233.29
779.33	233.13
779.66	232.91
779.98	232.80
780.31	232.72
780.63	232.74
780.95	232.69
781.28	232.61
781.60	232.53
781.92	232.46
782.25	232.36
782.57	232.28
782.89	232.22
783.22	232.17
783.54	232.06
783.86	232.01
784.19	231.93
784.51	231.86
784.83	231.75
785.16	231.65
785.48	231.57
785.80	231.47
786.12	231.41
786.45	231.34
786.77	231.30
787.09	231.25
787.42	231.11
787.74	231.07
788.06	231.01
788.38	230.95
788.71	230.87
789.03	230.86
789.35	230.81
789.67	230.78
789.99	230.69
790.32	230.66
790.64	230.65
790.96	230.71
791.28	230.66
791.61	230.63
791.93	230.61
792.25	230.61
792.57	230.66
792.89	230.63
793.21	230.61
793.54	230.54
793.86	230.48
794.18	230.48
794.50	230.41
794.82	230.41
795.14	230.40
795.47	230.37
795.79	230.36
796.11	230.29
796.43	230.24
796.75	230.28
797.07	230.25
797.39	230.22
797.71	230.12
798.04	230.10
798.36	230.12
798.68	230.10
799.00	230.08
799.32	230.00
799.64	229.97
799.96	229.97
800.28	229.98
800.60	229.95
800.92	229.93
801.24	229.93
801.56	229.90
801.89	229.86
802.21	229.88
802.53	229.79
802.85	229.84
803.17	229.84
803.49	229.79
803.81	229.76
804.13	229.69
804.45	229.66
804.77	229.65
805.09	229.63
805.41	229.59
805.73	229.51
806.05	229.50
806.37	229.51
806.69	229.48
807.01	229.48
807.33	229.48
807.65	229.39
807.97	229.43
808.28	229.41
808.60	229.39
808.92	229.36
809.24	229.40
809.56	229.36
809.88	229.34
810.20	229.33
810.52	229.31
810.84	229.31
811.16	229.27
811.48	229.24
811.80	229.24
812.12	229.20
812.43	229.22
812.75	229.18
813.07	229.12
813.39	229.09
813.71	229.03
814.03	229.00
814.35	229.00
814.67	228.91
814.98	228.85
815.30	228.81
815.62	228.75
815.94	228.65
816.26	228.60
816.58	228.55
816.89	228.53
817.21	228.52
817.53	228.49
817.85	228.49
818.17	228.44
818.48	228.38
818.80	228.40
819.12	228.35
819.44	228.32
819.76	228.31
820.07	228.27
820.39	228.23
820.71	228.21
821.03	228.20
821.34	228.19
821.66	228.19
821.98	228.18
822.30	228.17
822.61	228.22
822.93	228.18
823.25	228.16
823.57	228.10
823.88	228.08
824.20	228.07
824.52	228.02
824.83	228.03
825.15	228.00
825.47	227.96
825.79	227.95
826.10	227.92
826.42	227.89
826.74	227.88
827.05	227.90
827.37	227.88
827.69	227.86
828.00	227.80
828.32	227.78
828.64	227.75
828.95	227.77
829.27	227.73
829.58	227.73
829.90	227.72
830.22	227.73
830.53	227.69
830.85	227.64
831.17	227.63
831.48	227.58
831.80	227.55
832.11	227.56
832.43	227.56
832.75	227.55
833.06	227.58
833.38	227.55
833.69	227.54
834.01	227.52
834.32	227.52
834.64	227.53
834.96	227.51
835.27	227.51
835.59	227.49
835.90	227.45
836.22	227.47
836.53	227.47
836.85	227.46
837.16	227.54
837.48	227.57
837.79	227.62
838.11	227.63
838.42	227.64
838.74	227.61
839.05	227.59
839.37	227.59
839.68	227.53
840.00	227.53
840.31	227.53
840.63	227.56
840.94	227.54
841.26	227.54
841.57	227.54
841.88	227.56
842.20	227.55
842.51	227.57
842.83	227.58
843.14	227.68
843.46	227.68
843.77	227.62
844.08	227.62
844.40	227.57
844.71	227.60
845.03	227.59
845.34	227.59
845.65	227.57
845.97	227.57
846.28	227.59
846.60	227.61
846.91	227.59
847.22	227.55
847.54	227.57
847.85	227.58
848.16	227.59
848.48	227.56
848.79	227.58
849.10	227.61
849.42	227.61
849.73	227.53
850.04	227.52
850.36	227.52
850.67	227.53
850.98	227.56
851.30	227.55
851.61	227.55
851.92	227.58
852.23	227.62
852.55	227.63
852.86	227.61
853.17	227.62
853.49	227.67
853.80	227.70
854.11	227.69
854.42	227.68
854.74	227.66
855.05	227.67
855.36	227.60
855.67	227.58
855.99	227.56
856.30	227.64
856.61	227.64
856.92	227.62
857.23	227.60
857.55	227.54
857.86	227.51
858.17	227.49
858.48	227.46
858.79	227.45
859.11	227.47
859.42	227.48
859.73	227.44
860.04	227.38
860.35	227.35
860.66	227.32
860.98	227.33
861.29	227.33
861.60	227.32
861.91	227.33
862.22	227.31
862.53	227.28
862.84	227.15
863.16	227.17
863.47	227.15
863.78	227.15
864.09	227.19
864.40	227.20
864.71	227.17
865.02	227.16
865.33	227.14
865.64	227.08
865.95	227.05
866.27	227.10
866.58	227.11
866.89	227.12
867.20	227.13
867.51	227.13
867.82	227.10
868.13	227.13
868.44	227.14
868.75	227.13
869.06	227.13
869.37	227.14
869.68	227.09
869.99	227.11
870.30	227.12
870.61	227.10
870.92	227.09
871.23	227.09
871.54	227.12
871.85	227.14
872.16	227.18
872.47	227.21
872.78	227.16
873.09	227.15
873.40	227.15
873.71	227.11
874.02	227.11
874.33	227.11
874.64	227.07
874.95	227.06
875.26	227.05
875.56	227.04
875.87	227.04
876.18	227.06
876.49	227.14
876.80	227.13
877.11	227.13
877.42	227.13
877.73	227.19
878.04	227.15
878.35	227.15
878.66	227.15
878.96	227.14
879.27	227.15
879.58	227.14
879.89	227.14
880.20	227.21
880.51	227.21
880.82	227.21
881.12	227.19
881.43	227.21
881.74	227.22
882.05	227.23
882.36	227.23
882.67	227.23
882.97	227.13
883.28	227.12
883.59	227.10
883.90	227.11
884.21	227.11
884.51	227.11
884.82	227.11
885.13	227.07
885.44	227.08
885.74	227.09
886.05	227.12
886.36	227.10
886.67	227.07
886.98	227.11
887.28	227.12
887.59	227.12
887.90	227.09
888.20	227.09
888.51	227.12
888.82	227.11
889.13	227.10
889.43	227.18
889.74	227.16
890.05	227.18
890.35	227.18
890.66	227.19
890.97	227.20
891.28	227.22
891.58	227.21
891.89	227.21
892.20	227.18
892.50	227.19
892.81	227.19
893.12	227.17
893.42	227.12
893.73	227.13
894.04	227.17
894.34	227.20
894.65	227.19
894.95	227.16
895.26	227.16
895.57	227.21
895.87	227.12
896.18	227.17
896.48	227.14
896.79	227.11
897.10	227.09
897.40	227.07
897.71	227.01
898.01	227.03
898.32	227.04
898.63	227.04
898.93	226.99
899.24	227.01
899.54	226.99
899.85	226.98
900.15	226.95
900.46	226.90
900.76	226.87
901.07	226.85
901.38	226.84
901.68	226.85
901.99	226.80
902.29	226.80
902.60	226.76
902.90	226.78
903.21	226.76
903.51	226.75
903.82	226.72
904.12	226.71
904.43	226.68
904.73	226.67
905.03	226.63
905.34	226.74
905.64	226.67
905.95	226.67
906.25	226.66
906.56	226.68
906.86	226.68
907.17	226.66
907.47	226.67
907.77	226.65
908.08	226.60
908.38	226.58
908.69	226.57
908.99	226.58
909.30	226.56
909.60	226.57
909.90	226.57
910.21	226.56
910.51	226.55
910.81	226.56
911.12	226.53
911.42	226.56
911.73	226.44
912.03	226.47
912.33	226.48
912.64	226.48
912.94	226.46
913.24	226.49
913.55	226.50
913.85	226.47
914.15	226.50
914.46	226.52
914.76	226.55
915.06	226.57
915.37	226.55
915.67	226.57
915.97	226.58
916.27	226.61
916.58	226.63
916.88	226.65
917.18	226.67
917.49	226.76
917.79	226.75
918.09	226.81
918.39	226.85
918.70	226.86
919.00	226.83
919.30	226.88
919.60	226.87
919.91	226.86
920.21	226.87
920.51	226.88
920.81	226.88
921.12	226.89
921.42	226.87
921.72	226.88
922.02	226.90
922.32	226.92
922.63	226.90
922.93	226.94
923.23	226.95
923.53	226.91
923.83	226.85
924.13	226.85
924.44	226.84
924.74	226.86
925.04	226.89
925.34	226.91
925.64	226.90
925.94	226.91
926.24	226.97
926.55	226.99
926.85	226.99
927.15	227.00
927.45	226.99
927.75	227.00
928.05	227.02
928.35	226.96
928.65	226.95
928.95	226.95
929.26	226.91
929.56	226.93
929.86	226.93
930.16	226.91
930.46	226.91
930.76	226.90
931.06	226.84
931.36	226.84
931.66	226.84
931.96	226.83
932.26	226.81
932.56	226.76
932.86	226.79
933.16	226.78
933.46	226.75
933.76	226.74
934.06	226.74
934.36	226.78
934.66	226.81
934.96	226.82
935.26	226.80
935.56	226.84
935.86	226.82
936.16	226.82
936.46	226.78
936.76	226.79
937.06	226.79
937.36	226.79
937.66	226.75
937.96	226.76
938.26	226.73
938.56	226.70
938.86	226.71
939.16	226.68
939.46	226.67
939.76	226.67
940.06	226.65
940.35	226.63
940.65	226.57
940.95	226.57
941.25	226.51
941.55	226.54
941.85	226.50
942.15	226.50
942.45	226.51
942.75	226.56
943.04	226.54
943.34	226.56
943.64	226.58
943.94	226.58
944.24	226.60
944.54	226.59
944.84	226.60
945.13	226.57
945.43	226.58
945.73	226.57
946.03	226.61
946.33	226.61
946.62	226.62
946.92	226.61
947.22	226.59
947.52	226.61
947.82	226.63
948.11	226.63
948.41	226.61
948.71	226.58
949.01	226.59
949.31	226.58
949.60	226.55
949.90	226.55
950.20	226.55
950.50	226.53
950.79	226.54
951.09	226.57
951.39	226.60
951.69	226.60
951.98	226.65
952.28	226.62
952.58	226.60
952.87	226.64
953.17	226.66
953.47	226.67
953.76	226.69
954.06	226.66
954.36	226.62
954.66	226.64
954.95	226.70
955.25	226.69
955.55	226.72
955.84	226.72
956.14	226.72
956.44	226.74
956.73	226.73
957.03	226.75
957.32	226.76
957.62	226.77
957.92	226.75
958.21	226.74
958.51	226.83
958.81	226.86
959.10	226.83
959.40	226.86
959.69	226.86
959.99	226.86
960.29	226.87
960.58	226.90
960.88	226.92
961.17	226.88
961.47	226.87
961.76	226.87
962.06	226.89
962.36	226.87
962.65	226.85
962.95	226.85
963.24	226.83
963.54	226.82
963.83	226.79
964.13	226.78
964.42	226.75
964.72	226.69
965.01	226.68
965.31	226.68
965.60	226.65
965.90	226.73
966.19	226.71
966.49	226.70
966.78	226.69
967.08	226.67
967.37	226.69
967.67	226.68
967.96	226.67
968.26	226.65
968.55	226.70
968.85	226.70
969.14	226.67
969.43	226.64
969.73	226.64
970.02	226.64
970.32	226.63
970.61	226.63
970.91	226.62
971.20	226.62
971.49	226.58
971.79	226.59
972.08	226.50
972.38	226.54
972.67	226.51
972.96	226.52
973.26	226.53
973.55	226.54
973.85	226.53
974.14	226.57
974.43	226.57
974.73	226.53
975.02	226.52
975.31	226.51
975.61	226.54
975.90	226.54
976.19	226.54
976.49	226.56
976.78	226.58
977.07	226.53
977.37	226.51
977.66	226.53
977.95	226.51
978.24	226.49
978.54	226.50
978.83	226.51
979.12	226.49
979.42	226.46
979.71	226.42
980.00	226.44
980.29	226.42
980.59	226.40
980.88	226.42
981.17	226.45
981.46	226.47
981.76	226.46
982.05	226.48
982.34	226.49
982.63	226.45
982.93	226.45
983.22	226.48
983.51	226.52
983.80	226.56
984.09	226.57
984.39	226.60
984.68	226.56
984.97	226.55
985.26	226.58
985.55	226.63
985.85	226.63
986.14	226.65
986.43	226.62
986.72	226.63
987.01	226.59
987.30	226.58
987.59	226.62
987.89	226.64
988.18	226.62
988.47	226.61
988.76	226.63
989.05	226.63
989.34	226.65
989.63	226.63
989.92	226.57
990.22	226.59
990.51	226.61
990.80	226.59
991.09	226.63
991.38	226.64
991.67	226.64
991.96	226.67
992.25	226.69
992.54	226.69
992.83	226.69
993.12	226.74
993.41	226.73
993.70	226.73
993.99	226.75
994.28	226.76
994.58	226.78
994.87	226.76
995.16	226.74
995.45	226.71
995.74	226.71
996.03	226.73
996.32	226.73
996.61	226.74
996.90	226.78
997.19	226.74
997.48	226.71
997.77	226.68
998.06	226.66
998.34	226.64
998.63	226.63
998.92	226.62
999.21	226.61
999.50	226.64
999.79	226.62
1000.08	226.60
1000.37	226.63
1000.66	226.59
1000.95	226.65
1001.24	226.68
1001.53	226.72
1001.82	226.73
1002.11	226.73
1002.40	226.75
1002.68	226.72
1002.97	226.77
1003.26	226.77
1003.55	226.78
1003.84	226.77
1004.13	226.79
1004.42	226.76
1004.71	226.79
1004.99	226.79
1005.28	226.80
1005.57	226.77
1005.86	226.78
1006.15	226.77
1006.44	226.69
1006.72	226.72
1007.01	226.68
1007.30	226.65
1007.59	226.62
1007.88	226.61
1008.17	226.61
1008.45	226.57
1008.74	226.58
1009.03	226.54
1009.32	226.53
1009.60	226.55
1009.89	226.56
1010.18	226.54
1010.47	226.56
1010.76	226.54
1011.04	226.57
1011.33	226.58
1011.62	226.60
1011.91	226.61
1012.19	226.60
1012.48	226.64
1012.77	226.66
1013.05	226.72
1013.34	226.74
1013.63	226.73
1013.92	226.77
1014.20	226.76
1014.49	226.77
1014.78	226.76
1015.06	226.75
1015.35	226.81
1015.64	226.76
1015.92	226.79
1016.21	226.80
1016.50	226.81
1016.78	226.83
1017.07	226.81
1017.36	226.76
1017.64	226.74
1017.93	226.71
1018.22	226.72
1018.50	226.74
1018.79	226.72
1019.08	226.65
1019.36	226.67
1019.65	226.67
1019.93	226.69
1020.22	226.71
1020.51	226.76
1020.79	226.76
1021.08	226.36
1021.36	226.80
1021.65	226.78
1021.94	226.51
1022.22	227.07
1022.51	226.72
1022.79	227.28
1023.08	226.79
1023.36	227.65
1023.65	226.65
>>>>>End Processed Spectral Data<<<<<
