SpectraSuite Data File
++++++++++++++++++++++++++++++++++++
Date: Fri Feb 01 15:59:39 EST 2013
User: group
Dark Spectrum Present: No
Reference Spectrum Present: No
Number of Sampled Component Spectra: 1
Spectrometers: USB2E7196
Integration Time (usec): 35000 (USB2E7196)
Spectra Averaged: 100 (USB2E7196)
Boxcar Smoothing: 10 (USB2E7196)
Correct for Electrical Dark: No (USB2E7196)
Strobe/Lamp Enabled: No (USB2E7196)
Correct for Detector Non-linearity: No (USB2E7196)
Correct for Stray Light: No (USB2E7196)
Number of Pixels in Processed Spectrum: 2048
>>>>>Begin Processed Spectral Data<<<<<
339.09	0.00
339.48	214.87
339.86	216.12
340.24	217.67
340.63	219.04
341.01	222.01
341.39	221.33
341.78	223.00
342.16	224.12
342.54	224.57
342.93	213.00
343.31	223.76
343.69	224.32
344.07	224.77
344.46	225.18
344.84	225.54
345.22	225.76
345.60	226.05
345.99	226.22
346.37	226.36
346.75	226.45
347.13	226.53
347.52	226.57
347.90	226.63
348.28	226.69
348.66	226.74
349.05	226.74
349.43	226.82
349.81	226.85
350.19	226.83
350.57	226.90
350.96	226.98
351.34	227.07
351.72	227.10
352.10	227.19
352.48	227.27
352.87	227.33
353.25	227.39
353.63	227.43
354.01	227.53
354.39	227.59
354.77	227.69
355.15	227.80
355.54	227.85
355.92	227.92
356.30	227.98
356.68	228.12
357.06	228.19
357.44	228.23
357.82	228.35
358.20	228.48
358.58	228.56
358.97	228.57
359.35	228.64
359.73	228.75
360.11	228.81
360.49	228.88
360.87	228.94
361.25	229.02
361.63	229.10
362.01	229.14
362.39	229.18
362.77	229.23
363.15	229.26
363.53	229.30
363.91	229.32
364.29	229.32
364.67	229.23
365.05	229.27
365.43	229.26
365.81	229.28
366.19	229.30
366.57	229.31
366.95	229.31
367.33	229.30
367.71	229.27
368.09	229.26
368.47	229.22
368.85	229.17
369.23	229.17
369.61	229.10
369.99	229.09
370.37	229.06
370.75	229.05
371.13	228.98
371.51	228.95
371.89	228.92
372.27	228.88
372.65	228.86
373.03	228.81
373.41	228.77
373.78	228.71
374.16	228.61
374.54	228.53
374.92	228.46
375.30	228.39
375.68	228.35
376.06	228.30
376.44	228.25
376.82	228.22
377.19	228.15
377.57	228.06
377.95	227.99
378.33	227.91
378.71	227.77
379.09	227.73
379.47	227.65
379.84	227.56
380.22	227.50
380.60	227.40
380.98	227.30
381.36	227.22
381.73	227.13
382.11	227.07
382.49	226.98
382.87	226.94
383.25	226.86
383.62	226.88
384.00	226.82
384.38	226.75
384.76	226.67
385.13	226.64
385.51	226.60
385.89	226.53
386.27	226.50
386.64	226.50
387.02	226.43
387.40	226.39
387.78	226.38
388.15	226.34
388.53	226.31
388.91	226.28
389.29	226.27
389.66	226.26
390.04	226.20
390.42	226.20
390.79	226.16
391.17	226.18
391.55	226.07
391.92	226.07
392.30	226.07
392.68	226.09
393.05	226.14
393.43	226.12
393.81	226.14
394.18	226.11
394.56	226.10
394.94	226.13
395.31	226.16
395.69	226.19
396.06	226.23
396.44	226.27
396.82	226.29
397.19	226.36
397.57	226.43
397.95	226.51
398.32	226.55
398.70	226.63
399.07	226.69
399.45	226.73
399.82	226.79
400.20	226.86
400.58	226.90
400.95	226.90
401.33	227.03
401.70	227.21
402.08	227.32
402.45	227.41
402.83	227.54
403.20	227.63
403.58	227.69
403.95	227.83
404.33	227.97
404.71	228.14
405.08	228.31
405.46	228.41
405.83	228.56
406.21	228.69
406.58	228.84
406.96	229.01
407.33	229.19
407.70	229.37
408.08	229.65
408.45	229.88
408.83	230.11
409.20	230.35
409.58	230.47
409.95	230.73
410.33	231.03
410.70	231.26
411.08	231.55
411.45	231.86
411.82	232.20
412.20	232.54
412.57	232.97
412.95	233.27
413.32	233.68
413.69	234.12
414.07	234.56
414.44	235.05
414.82	235.49
415.19	236.03
415.56	236.60
415.94	237.13
416.31	237.76
416.68	238.42
417.06	239.11
417.43	239.79
417.81	240.55
418.18	241.31
418.55	242.16
418.93	243.01
419.30	243.92
419.67	244.83
420.04	245.79
420.42	246.75
420.79	247.95
421.16	249.10
421.54	250.30
421.91	251.51
422.28	252.75
422.66	254.10
423.03	255.41
423.40	256.73
423.77	258.14
424.15	259.57
424.52	260.98
424.89	262.59
425.26	264.16
425.64	265.61
426.01	267.21
426.38	268.89
426.75	270.60
427.13	272.32
427.50	274.11
427.87	275.97
428.24	277.84
428.61	279.55
428.99	281.50
429.36	283.56
429.73	285.63
430.10	287.65
430.47	289.73
430.85	291.82
431.22	294.07
431.59	296.48
431.96	298.69
432.33	301.19
432.70	303.59
433.08	306.41
433.45	309.08
433.82	311.67
434.19	314.48
434.56	317.27
434.93	319.95
435.30	322.60
435.68	325.53
436.05	328.34
436.42	331.15
436.79	333.67
437.16	336.39
437.53	339.25
437.90	342.05
438.27	344.82
438.64	347.67
439.01	350.24
439.38	352.43
439.75	354.64
440.13	357.17
440.50	359.47
440.87	361.25
441.24	363.17
441.61	365.37
441.98	366.88
442.35	368.68
442.72	370.53
443.09	372.29
443.46	373.23
443.83	373.82
444.20	374.32
444.57	375.11
444.94	375.35
445.31	375.67
445.68	376.05
446.05	376.08
446.42	375.70
446.79	375.30
447.16	374.84
447.53	374.50
447.90	373.26
448.27	372.09
448.64	370.56
449.01	369.42
449.37	367.38
449.74	365.52
450.11	363.25
450.48	360.76
450.85	358.23
451.22	356.09
451.59	354.07
451.96	352.14
452.33	349.55
452.70	347.20
453.07	344.35
453.43	341.44
453.80	338.67
454.17	336.00
454.54	333.46
454.91	330.74
455.28	328.10
455.65	325.65
456.02	323.20
456.38	321.04
456.75	318.36
457.12	316.14
457.49	313.93
457.86	311.78
458.23	309.94
458.59	307.92
458.96	305.85
459.33	303.98
459.70	302.12
460.07	300.63
460.43	298.97
460.80	297.33
461.17	295.86
461.54	294.36
461.91	292.93
462.27	291.52
462.64	290.29
463.01	288.95
463.38	287.66
463.74	286.29
464.11	285.14
464.48	284.17
464.85	283.07
465.21	282.21
465.58	281.32
465.95	280.23
466.32	279.32
466.68	278.44
467.05	277.56
467.42	276.70
467.78	275.78
468.15	274.89
468.52	274.25
468.88	273.43
469.25	272.66
469.62	272.02
469.98	271.32
470.35	270.66
470.72	270.04
471.08	269.43
471.45	268.94
471.82	268.43
472.18	267.82
472.55	267.40
472.92	266.87
473.28	266.38
473.65	265.96
474.02	265.56
474.38	265.20
474.75	264.88
475.11	264.51
475.48	264.27
475.85	264.05
476.21	263.86
476.58	263.68
476.94	263.57
477.31	263.42
477.67	263.31
478.04	263.21
478.41	263.17
478.77	263.22
479.14	263.11
479.50	263.08
479.87	263.15
480.23	263.20
480.60	263.28
480.96	263.38
481.33	263.58
481.69	263.78
482.06	263.99
482.42	264.20
482.79	264.48
483.15	264.79
483.52	265.17
483.88	265.49
484.25	265.89
484.61	266.29
484.98	266.77
485.34	267.30
485.71	267.90
486.07	268.53
486.44	269.09
486.80	269.79
487.17	270.53
487.53	271.36
487.90	272.26
488.26	273.19
488.62	274.18
488.99	275.14
489.35	276.14
489.72	277.26
490.08	278.46
490.44	279.67
490.81	280.98
491.17	282.32
491.54	283.83
491.90	285.42
492.26	287.07
492.63	288.80
492.99	290.63
493.36	292.54
493.72	294.61
494.08	296.70
494.45	298.95
494.81	301.33
495.17	303.75
495.54	306.30
495.90	308.97
496.26	311.77
496.63	314.74
496.99	317.86
497.35	321.12
497.72	324.54
498.08	328.09
498.44	331.80
498.80	335.73
499.17	339.75
499.53	343.86
499.89	348.22
500.26	352.72
500.62	357.36
500.98	362.35
501.34	367.39
501.71	372.70
502.07	378.12
502.43	383.74
502.79	389.55
503.16	395.63
503.52	401.92
503.88	408.35
504.24	414.99
504.60	421.87
504.97	428.97
505.33	436.29
505.69	443.93
506.05	451.71
506.41	459.59
506.78	467.79
507.14	476.30
507.50	485.00
507.86	494.00
508.22	503.19
508.59	512.40
508.95	521.96
509.31	531.80
509.67	541.98
510.03	552.23
510.39	562.83
510.75	573.60
511.12	584.58
511.48	595.85
511.84	607.24
512.20	618.77
512.56	630.75
512.92	642.95
513.28	655.26
513.64	667.69
514.00	680.43
514.37	693.32
514.73	706.32
515.09	719.37
515.45	732.75
515.81	746.36
516.17	760.30
516.53	774.47
516.89	788.62
517.25	802.71
517.61	817.16
517.97	831.56
518.33	846.01
518.69	860.77
519.05	875.70
519.41	890.93
519.77	906.52
520.13	921.93
520.49	937.20
520.85	952.73
521.21	968.52
521.57	984.72
521.93	1000.43
522.29	1016.78
522.65	1033.00
523.01	1049.14
523.37	1065.17
523.73	1081.33
524.09	1097.30
524.45	1113.55
524.81	1130.12
525.17	1146.95
525.53	1163.91
525.89	1180.77
526.25	1197.59
526.61	1214.08
526.97	1230.83
527.33	1247.21
527.68	1263.77
528.04	1280.21
528.40	1296.65
528.76	1313.55
529.12	1330.03
529.48	1346.89
529.84	1362.86
530.20	1379.44
530.56	1396.34
530.91	1413.72
531.27	1430.39
531.63	1446.91
531.99	1463.46
532.35	1479.44
532.71	1495.21
533.07	1511.35
533.42	1527.27
533.78	1543.25
534.14	1559.47
534.50	1574.73
534.86	1590.61
535.21	1605.88
535.57	1621.88
535.93	1637.41
536.29	1652.25
536.65	1667.28
537.00	1682.06
537.36	1697.33
537.72	1711.90
538.08	1726.35
538.44	1740.03
538.79	1753.92
539.15	1767.66
539.51	1781.32
539.87	1795.63
540.22	1809.44
540.58	1823.12
540.94	1836.43
541.29	1849.26
541.65	1861.85
542.01	1875.10
542.37	1887.33
542.72	1899.72
543.08	1911.35
543.44	1923.71
543.79	1934.92
544.15	1945.97
544.51	1957.59
544.87	1968.66
545.22	1979.43
545.58	1989.56
545.94	1999.24
546.29	2009.04
546.65	2018.75
547.01	2028.07
547.36	2036.75
547.72	2045.10
548.07	2052.94
548.43	2061.03
548.79	2069.08
549.14	2076.57
549.50	2083.75
549.86	2091.40
550.21	2098.67
550.57	2105.82
550.92	2112.35
551.28	2119.43
551.64	2126.41
551.99	2132.82
552.35	2138.91
552.70	2144.99
553.06	2151.08
553.41	2157.55
553.77	2163.58
554.13	2169.66
554.48	2175.76
554.84	2181.11
555.19	2186.51
555.55	2191.78
555.90	2196.20
556.26	2201.02
556.61	2205.77
556.97	2210.10
557.32	2214.29
557.68	2218.36
558.03	2222.72
558.39	2226.44
558.74	2231.01
559.10	2234.99
559.45	2238.65
559.81	2242.92
560.16	2246.84
560.52	2249.92
560.87	2253.26
561.23	2256.04
561.58	2259.06
561.94	2261.54
562.29	2264.17
562.64	2266.74
563.00	2269.30
563.35	2272.85
563.71	2276.10
564.06	2279.46
564.42	2282.32
564.77	2284.85
565.12	2287.07
565.48	2288.95
565.83	2290.80
566.19	2291.97
566.54	2292.82
566.89	2293.86
567.25	2294.42
567.60	2295.59
567.96	2297.41
568.31	2298.28
568.66	2299.28
569.02	2299.73
569.37	2300.19
569.72	2300.95
570.08	2301.13
570.43	2301.19
570.78	2300.47
571.14	2298.79
571.49	2297.41
571.84	2297.16
572.20	2295.97
572.55	2295.07
572.90	2293.63
573.26	2292.26
573.61	2290.79
573.96	2289.03
574.31	2286.29
574.67	2283.32
575.02	2279.80
575.37	2276.42
575.72	2272.61
576.08	2269.35
576.43	2266.00
576.78	2262.30
577.13	2259.11
577.49	2256.01
577.84	2252.31
578.19	2248.78
578.54	2245.16
578.90	2240.93
579.25	2235.41
579.60	2230.48
579.95	2225.39
580.30	2220.23
580.66	2215.17
581.01	2210.11
581.36	2205.27
581.71	2200.96
582.06	2196.51
582.42	2192.02
582.77	2186.80
583.12	2182.24
583.47	2177.51
583.82	2172.59
584.17	2167.24
584.53	2161.81
584.88	2156.16
585.23	2150.55
585.58	2145.05
585.93	2139.65
586.28	2134.73
586.63	2129.65
586.98	2124.54
587.34	2120.03
587.69	2115.34
588.04	2109.86
588.39	2104.29
588.74	2097.85
589.09	2091.66
589.44	2085.00
589.79	2079.11
590.14	2073.49
590.49	2066.88
590.84	2060.50
591.19	2054.52
591.54	2048.08
591.89	2040.71
592.25	2033.87
592.60	2026.65
592.95	2019.11
593.30	2011.78
593.65	2004.30
594.00	1997.26
594.35	1990.12
594.70	1981.93
595.05	1974.62
595.40	1967.49
595.75	1959.87
596.10	1953.50
596.45	1946.77
596.80	1940.49
597.15	1933.81
597.50	1926.71
597.85	1920.29
598.19	1913.66
598.54	1906.51
598.89	1899.84
599.24	1893.91
599.59	1887.32
599.94	1881.20
600.29	1874.74
600.64	1868.19
600.99	1860.75
601.34	1853.84
601.69	1846.83
602.04	1840.05
602.39	1832.67
602.74	1825.74
603.08	1819.06
603.43	1812.43
603.78	1805.18
604.13	1798.04
604.48	1790.68
604.83	1783.74
605.18	1776.68
605.53	1768.63
605.87	1760.67
606.22	1753.52
606.57	1745.54
606.92	1738.25
607.27	1731.05
607.62	1724.13
607.96	1716.76
608.31	1710.04
608.66	1702.48
609.01	1694.92
609.36	1687.31
609.70	1679.28
610.05	1671.24
610.40	1663.58
610.75	1655.29
611.10	1647.63
611.44	1639.17
611.79	1631.20
612.14	1622.54
612.49	1613.58
612.83	1605.16
613.18	1597.10
613.53	1589.05
613.88	1580.53
614.22	1572.16
614.57	1563.60
614.92	1555.65
615.27	1548.14
615.61	1539.81
615.96	1531.77
616.31	1524.22
616.65	1516.81
617.00	1509.33
617.35	1501.77
617.70	1493.41
618.04	1484.86
618.39	1476.65
618.74	1468.98
619.08	1460.67
619.43	1453.03
619.78	1446.05
620.12	1438.89
620.47	1431.29
620.82	1423.10
621.16	1415.75
621.51	1408.13
621.85	1400.44
622.20	1391.90
622.55	1383.56
622.89	1375.85
623.24	1368.26
623.59	1360.80
623.93	1353.25
624.28	1346.00
624.62	1338.42
624.97	1331.22
625.32	1324.46
625.66	1317.50
626.01	1310.41
626.35	1302.96
626.70	1295.42
627.04	1287.71
627.39	1279.96
627.73	1272.56
628.08	1265.62
628.43	1258.32
628.77	1251.04
629.12	1243.48
629.46	1236.27
629.81	1228.88
630.15	1221.58
630.50	1214.17
630.84	1205.95
631.19	1198.07
631.53	1190.47
631.88	1182.97
632.22	1175.41
632.57	1168.14
632.91	1160.55
633.26	1153.06
633.60	1145.66
633.95	1138.43
634.29	1131.39
634.64	1124.73
634.98	1117.34
635.32	1110.23
635.67	1103.62
636.01	1096.90
636.36	1090.07
636.70	1083.60
637.05	1076.96
637.39	1070.49
637.73	1063.94
638.08	1058.03
638.42	1052.00
638.77	1045.61
639.11	1038.96
639.45	1032.49
639.80	1025.76
640.14	1019.30
640.49	1012.84
640.83	1006.59
641.17	1000.31
641.52	993.94
641.86	987.47
642.20	981.64
642.55	975.26
642.89	968.75
643.23	962.28
643.58	956.60
643.92	950.35
644.26	944.29
644.61	938.23
644.95	932.18
645.29	925.59
645.64	918.90
645.98	912.61
646.32	906.82
646.66	900.77
647.01	895.02
647.35	889.31
647.69	883.46
648.04	877.97
648.38	872.19
648.72	866.15
649.06	860.09
649.41	854.20
649.75	848.23
650.09	842.25
650.43	836.48
650.78	830.28
651.12	824.31
651.46	818.55
651.80	812.88
652.14	807.48
652.49	802.11
652.83	796.94
653.17	791.20
653.51	785.44
653.85	780.14
654.20	774.44
654.54	768.48
654.88	762.71
655.22	756.75
655.56	751.10
655.90	745.69
656.25	740.44
656.59	735.09
656.93	730.03
657.27	724.87
657.61	719.39
657.95	714.27
658.29	709.24
658.64	704.08
658.98	698.71
659.32	693.31
659.66	688.12
660.00	682.74
660.34	677.86
660.68	673.00
661.02	667.95
661.36	663.26
661.70	658.76
662.05	654.41
662.39	650.11
662.73	645.70
663.07	641.33
663.41	636.93
663.75	632.45
664.09	627.92
664.43	623.57
664.77	619.47
665.11	615.24
665.45	611.13
665.79	607.04
666.13	602.96
666.47	598.86
666.81	594.75
667.15	590.66
667.49	586.72
667.83	582.87
668.17	578.90
668.51	574.83
668.85	570.79
669.19	566.95
669.53	563.08
669.87	559.21
670.21	555.54
670.55	551.83
670.89	548.37
671.23	544.91
671.57	541.38
671.91	537.77
672.25	534.29
672.58	530.77
672.92	527.36
673.26	524.23
673.60	521.05
673.94	517.90
674.28	515.00
674.62	512.02
674.96	508.92
675.30	506.06
675.64	503.10
675.97	500.31
676.31	497.48
676.65	494.57
676.99	491.88
677.33	488.98
677.67	486.15
678.01	483.10
678.34	480.16
678.68	477.31
679.02	474.55
679.36	471.80
679.70	469.03
680.04	466.24
680.37	463.36
680.71	460.57
681.05	457.98
681.39	455.24
681.73	452.59
682.06	450.09
682.40	447.54
682.74	445.02
683.08	442.47
683.42	439.81
683.75	437.31
684.09	434.68
684.43	432.22
684.77	429.77
685.10	427.44
685.44	425.08
685.78	422.79
686.12	420.51
686.45	418.20
686.79	415.91
687.13	413.66
687.46	411.46
687.80	409.31
688.14	407.05
688.48	405.03
688.81	402.80
689.15	400.62
689.49	398.45
689.82	396.38
690.16	394.35
690.50	392.43
690.83	390.49
691.17	388.58
691.51	386.66
691.84	384.83
692.18	382.85
692.52	380.88
692.85	378.92
693.19	377.05
693.52	375.24
693.86	373.41
694.20	371.68
694.53	369.87
694.87	368.03
695.21	366.25
695.54	364.36
695.88	362.66
696.21	360.92
696.55	359.25
696.88	357.58
697.22	355.90
697.56	354.29
697.89	352.61
698.23	350.98
698.56	349.40
698.90	347.81
699.23	346.17
699.57	344.67
699.90	343.18
700.24	341.60
700.58	340.08
700.91	338.65
701.25	337.21
701.58	335.87
701.92	334.53
702.25	333.18
702.59	331.85
702.92	330.50
703.26	329.19
703.59	327.85
703.93	326.67
704.26	325.46
704.60	324.15
704.93	322.90
705.26	321.63
705.60	320.45
705.93	319.31
706.27	318.29
706.60	317.23
706.94	316.12
707.27	315.02
707.61	313.95
707.94	312.90
708.27	311.79
708.61	310.71
708.94	309.72
709.28	308.72
709.61	307.76
709.94	306.79
710.28	305.80
710.61	304.85
710.95	303.74
711.28	302.80
711.61	301.88
711.95	300.96
712.28	300.06
712.61	299.07
712.95	298.15
713.28	297.32
713.61	296.38
713.95	295.50
714.28	294.66
714.61	293.80
714.95	292.91
715.28	292.08
715.61	291.17
715.95	290.31
716.28	289.49
716.61	288.64
716.95	287.87
717.28	287.14
717.61	286.39
717.94	285.64
718.28	284.82
718.61	284.07
718.94	283.33
719.27	282.65
719.61	282.01
719.94	281.33
720.27	280.58
720.60	279.93
720.94	279.29
721.27	278.70
721.60	278.12
721.93	277.49
722.27	276.94
722.60	276.40
722.93	275.79
723.26	275.21
723.59	274.66
723.93	274.08
724.26	273.54
724.59	272.99
724.92	272.49
725.25	271.99
725.59	271.44
725.92	270.98
726.25	270.46
726.58	269.95
726.91	269.43
727.24	268.95
727.57	268.47
727.91	267.95
728.24	267.46
728.57	266.96
728.90	266.53
729.23	266.04
729.56	265.62
729.89	265.15
730.22	264.70
730.55	264.22
730.89	263.78
731.22	263.34
731.55	262.87
731.88	262.47
732.21	262.05
732.54	261.65
732.87	261.25
733.20	260.87
733.53	260.50
733.86	260.13
734.19	259.72
734.52	259.35
734.85	259.08
735.18	258.69
735.51	258.34
735.84	258.01
736.17	257.66
736.50	257.25
736.83	257.05
737.16	256.72
737.49	256.41
737.82	256.07
738.15	255.74
738.48	255.46
738.81	255.12
739.14	254.81
739.47	254.49
739.80	254.17
740.13	253.87
740.46	253.54
740.79	253.23
741.12	252.95
741.45	252.66
741.78	252.30
742.11	252.03
742.44	251.70
742.77	251.40
743.10	251.11
743.43	250.81
743.75	250.39
744.08	250.20
744.41	249.92
744.74	249.63
745.07	249.30
745.40	249.03
745.73	248.82
746.06	248.54
746.39	248.28
746.71	248.03
747.04	247.75
747.37	247.45
747.70	247.20
748.03	246.93
748.36	246.67
748.68	246.44
749.01	246.16
749.34	245.94
749.67	245.71
750.00	245.47
750.33	245.31
750.65	245.13
750.98	244.80
751.31	244.57
751.64	244.37
751.97	244.22
752.29	243.98
752.62	243.71
752.95	243.49
753.28	243.29
753.60	243.08
753.93	242.92
754.26	242.73
754.59	242.55
754.91	242.36
755.24	242.17
755.57	241.99
755.90	241.82
756.22	241.62
756.55	241.39
756.88	241.20
757.20	240.96
757.53	240.78
757.86	240.63
758.19	240.51
758.51	240.33
758.84	240.13
759.17	239.93
759.49	239.76
759.82	239.63
760.15	239.46
760.47	239.26
760.80	239.04
761.13	238.92
761.45	238.75
761.78	238.58
762.11	238.45
762.43	238.27
762.76	238.12
763.08	237.99
763.41	237.85
763.74	237.72
764.06	237.59
764.39	237.42
764.71	237.27
765.04	237.08
765.37	236.92
765.69	236.80
766.02	236.70
766.34	236.54
766.67	236.36
767.00	236.24
767.32	236.20
767.65	236.18
767.97	236.04
768.30	235.91
768.62	235.84
768.95	235.69
769.27	235.60
769.60	235.48
769.92	235.37
770.25	235.28
770.57	235.19
770.90	235.08
771.22	234.99
771.55	234.89
771.87	234.80
772.20	234.73
772.52	234.72
772.85	234.72
773.17	234.65
773.50	234.58
773.82	234.49
774.15	234.34
774.47	234.22
774.80	234.12
775.12	234.06
775.45	233.95
775.77	233.87
776.09	233.77
776.42	233.72
776.74	233.68
777.07	233.59
777.39	233.51
777.72	233.43
778.04	233.38
778.36	233.29
778.69	233.27
779.01	233.21
779.33	233.06
779.66	232.91
779.98	232.84
780.31	232.83
780.63	232.83
780.95	232.79
781.28	232.71
781.60	232.68
781.92	232.62
782.25	232.56
782.57	232.52
782.89	232.46
783.22	232.39
783.54	232.32
783.86	232.27
784.19	232.22
784.51	232.19
784.83	232.12
785.16	232.11
785.48	232.03
785.80	231.99
786.12	231.93
786.45	231.90
786.77	231.87
787.09	231.79
787.42	231.67
787.74	231.65
788.06	231.61
788.38	231.53
788.71	231.47
789.03	231.47
789.35	231.45
789.67	231.38
789.99	231.34
790.32	231.28
790.64	231.24
790.96	231.26
791.28	231.20
791.61	231.18
791.93	231.12
792.25	231.06
792.57	231.06
792.89	231.03
793.21	230.97
793.54	230.93
793.86	230.86
794.18	230.81
794.50	230.73
794.82	230.69
795.14	230.64
795.47	230.64
795.79	230.56
796.11	230.49
796.43	230.47
796.75	230.43
797.07	230.40
797.39	230.35
797.71	230.26
798.04	230.21
798.36	230.16
798.68	230.14
799.00	230.12
799.32	230.06
799.64	229.99
799.96	229.94
800.28	229.90
800.60	229.89
800.92	229.89
801.24	229.85
801.56	229.80
801.89	229.79
802.21	229.75
802.53	229.75
802.85	229.75
803.17	229.76
803.49	229.74
803.81	229.73
804.13	229.70
804.45	229.64
804.77	229.63
805.09	229.59
805.41	229.55
805.73	229.51
806.05	229.45
806.37	229.44
806.69	229.42
807.01	229.42
807.33	229.38
807.65	229.31
807.97	229.33
808.28	229.31
808.60	229.29
808.92	229.22
809.24	229.23
809.56	229.19
809.88	229.13
810.20	229.12
810.52	229.12
810.84	229.09
811.16	229.08
811.48	229.09
811.80	229.10
812.12	229.07
812.43	229.05
812.75	229.05
813.07	229.02
813.39	229.02
813.71	229.00
814.03	228.98
814.35	228.98
814.67	228.93
814.98	228.91
815.30	228.89
815.62	228.89
815.94	228.81
816.26	228.83
816.58	228.82
816.89	228.78
817.21	228.71
817.53	228.72
817.85	228.71
818.17	228.66
818.48	228.61
818.80	228.61
819.12	228.59
819.44	228.58
819.76	228.56
820.07	228.54
820.39	228.51
820.71	228.52
821.03	228.51
821.34	228.49
821.66	228.51
821.98	228.52
822.30	228.49
822.61	228.51
822.93	228.46
823.25	228.43
823.57	228.43
823.88	228.45
824.20	228.43
824.52	228.43
824.83	228.44
825.15	228.41
825.47	228.37
825.79	228.40
826.10	228.38
826.42	228.36
826.74	228.33
827.05	228.33
827.37	228.32
827.69	228.30
828.00	228.30
828.32	228.28
828.64	228.25
828.95	228.29
829.27	228.28
829.58	228.25
829.90	228.24
830.22	228.22
830.53	228.17
830.85	228.13
831.17	228.06
831.48	228.03
831.80	228.03
832.11	228.02
832.43	227.96
832.75	227.96
833.06	228.00
833.38	227.97
833.69	227.95
834.01	227.93
834.32	227.91
834.64	227.88
834.96	227.86
835.27	227.82
835.59	227.77
835.90	227.73
836.22	227.73
836.53	227.74
836.85	227.71
837.16	227.79
837.48	227.77
837.79	227.83
838.11	227.80
838.42	227.82
838.74	227.86
839.05	227.87
839.37	227.85
839.68	227.77
840.00	227.75
840.31	227.73
840.63	227.73
840.94	227.72
841.26	227.71
841.57	227.71
841.88	227.73
842.20	227.75
842.51	227.71
842.83	227.71
843.14	227.77
843.46	227.79
843.77	227.74
844.08	227.74
844.40	227.69
844.71	227.67
845.03	227.65
845.34	227.60
845.65	227.55
845.97	227.54
846.28	227.52
846.60	227.52
846.91	227.50
847.22	227.48
847.54	227.51
847.85	227.52
848.16	227.49
848.48	227.43
848.79	227.42
849.10	227.46
849.42	227.48
849.73	227.37
850.04	227.36
850.36	227.32
850.67	227.33
850.98	227.31
851.30	227.34
851.61	227.33
851.92	227.36
852.23	227.41
852.55	227.41
852.86	227.41
853.17	227.45
853.49	227.50
853.80	227.51
854.11	227.49
854.42	227.51
854.74	227.50
855.05	227.55
855.36	227.52
855.67	227.51
855.99	227.48
856.30	227.61
856.61	227.59
856.92	227.61
857.23	227.63
857.55	227.64
857.86	227.65
858.17	227.65
858.48	227.63
858.79	227.59
859.11	227.61
859.42	227.63
859.73	227.61
860.04	227.60
860.35	227.55
860.66	227.51
860.98	227.48
861.29	227.51
861.60	227.50
861.91	227.48
862.22	227.48
862.53	227.47
862.84	227.35
863.16	227.38
863.47	227.35
863.78	227.38
864.09	227.39
864.40	227.37
864.71	227.40
865.02	227.41
865.33	227.42
865.64	227.38
865.95	227.38
866.27	227.46
866.58	227.43
866.89	227.45
867.20	227.47
867.51	227.48
867.82	227.45
868.13	227.50
868.44	227.52
868.75	227.53
869.06	227.54
869.37	227.55
869.68	227.52
869.99	227.53
870.30	227.48
870.61	227.49
870.92	227.47
871.23	227.44
871.54	227.44
871.85	227.45
872.16	227.45
872.47	227.41
872.78	227.34
873.09	227.34
873.40	227.30
873.71	227.32
874.02	227.28
874.33	227.25
874.64	227.19
874.95	227.18
875.26	227.11
875.56	227.09
875.87	227.05
876.18	227.02
876.49	227.10
876.80	227.09
877.11	227.04
877.42	227.05
877.73	227.01
878.04	226.97
878.35	226.97
878.66	226.99
878.96	227.00
879.27	226.98
879.58	226.97
879.89	226.97
880.20	227.00
880.51	226.99
880.82	226.98
881.12	226.99
881.43	226.97
881.74	226.96
882.05	226.95
882.36	226.96
882.67	226.99
882.97	226.88
883.28	226.85
883.59	226.84
883.90	226.86
884.21	226.86
884.51	226.84
884.82	226.81
885.13	226.80
885.44	226.78
885.74	226.79
886.05	226.80
886.36	226.79
886.67	226.74
886.98	226.81
887.28	226.81
887.59	226.81
887.90	226.81
888.20	226.84
888.51	226.85
888.82	226.83
889.13	226.85
889.43	226.91
889.74	226.93
890.05	226.94
890.35	226.90
890.66	226.90
890.97	226.88
891.28	226.85
891.58	226.84
891.89	226.87
892.20	226.87
892.50	226.85
892.81	226.86
893.12	226.86
893.42	226.79
893.73	226.80
894.04	226.79
894.34	226.85
894.65	226.84
894.95	226.83
895.26	226.89
895.57	226.92
895.87	226.86
896.18	226.87
896.48	226.89
896.79	226.92
897.10	226.95
897.40	226.99
897.71	227.03
898.01	227.05
898.32	227.06
898.63	227.05
898.93	227.04
899.24	227.07
899.54	227.07
899.85	227.08
900.15	227.07
900.46	227.08
900.76	227.05
901.07	227.04
901.38	227.06
901.68	227.07
901.99	227.01
902.29	227.04
902.60	227.03
902.90	227.05
903.21	227.06
903.51	227.06
903.82	227.10
904.12	227.07
904.43	227.07
904.73	227.04
905.03	227.07
905.34	227.14
905.64	227.11
905.95	227.10
906.25	227.09
906.56	227.12
906.86	227.11
907.17	227.09
907.47	227.08
907.77	227.09
908.08	227.05
908.38	227.07
908.69	227.05
908.99	227.07
909.30	227.06
909.60	227.00
909.90	226.97
910.21	226.94
910.51	226.93
910.81	226.93
911.12	226.93
911.42	226.91
911.73	226.86
912.03	226.88
912.33	226.89
912.64	226.88
912.94	226.85
913.24	226.84
913.55	226.81
913.85	226.83
914.15	226.84
914.46	226.83
914.76	226.81
915.06	226.77
915.37	226.75
915.67	226.72
915.97	226.73
916.27	226.70
916.58	226.69
916.88	226.70
917.18	226.68
917.49	226.75
917.79	226.71
918.09	226.70
918.39	226.68
918.70	226.67
919.00	226.68
919.30	226.69
919.60	226.67
919.91	226.66
920.21	226.65
920.51	226.59
920.81	226.61
921.12	226.61
921.42	226.64
921.72	226.62
922.02	226.60
922.32	226.66
922.63	226.63
922.93	226.70
923.23	226.69
923.53	226.68
923.83	226.62
924.13	226.66
924.44	226.67
924.74	226.73
925.04	226.77
925.34	226.75
925.64	226.75
925.94	226.76
926.24	226.87
926.55	226.87
926.85	226.91
927.15	226.89
927.45	226.88
927.75	226.88
928.05	226.85
928.35	226.88
928.65	226.88
928.95	226.92
929.26	226.88
929.56	226.92
929.86	226.92
930.16	226.89
930.46	226.88
930.76	226.86
931.06	226.81
931.36	226.79
931.66	226.84
931.96	226.85
932.26	226.87
932.56	226.78
932.86	226.79
933.16	226.79
933.46	226.76
933.76	226.78
934.06	226.82
934.36	226.88
934.66	226.88
934.96	226.85
935.26	226.87
935.56	226.87
935.86	226.84
936.16	226.86
936.46	226.86
936.76	226.87
937.06	226.89
937.36	226.85
937.66	226.86
937.96	226.83
938.26	226.81
938.56	226.79
938.86	226.81
939.16	226.79
939.46	226.79
939.76	226.82
940.06	226.81
940.35	226.77
940.65	226.74
940.95	226.73
941.25	226.68
941.55	226.67
941.85	226.67
942.15	226.67
942.45	226.67
942.75	226.68
943.04	226.68
943.34	226.67
943.64	226.68
943.94	226.66
944.24	226.67
944.54	226.67
944.84	226.67
945.13	226.66
945.43	226.69
945.73	226.65
946.03	226.66
946.33	226.64
946.62	226.64
946.92	226.63
947.22	226.66
947.52	226.68
947.82	226.66
948.11	226.65
948.41	226.65
948.71	226.64
949.01	226.62
949.31	226.63
949.60	226.66
949.90	226.67
950.20	226.65
950.50	226.65
950.79	226.67
951.09	226.71
951.39	226.70
951.69	226.69
951.98	226.74
952.28	226.77
952.58	226.76
952.87	226.78
953.17	226.79
953.47	226.81
953.76	226.84
954.06	226.86
954.36	226.87
954.66	226.89
954.95	226.95
955.25	226.95
955.55	226.94
955.84	226.90
956.14	226.93
956.44	226.92
956.73	226.94
957.03	226.92
957.32	226.90
957.62	226.91
957.92	226.92
958.21	226.93
958.51	227.00
958.81	227.03
959.10	227.02
959.40	227.03
959.69	226.98
959.99	227.02
960.29	227.01
960.58	227.00
960.88	227.02
961.17	227.00
961.47	227.03
961.76	226.99
962.06	227.05
962.36	227.01
962.65	227.04
962.95	227.02
963.24	227.00
963.54	226.97
963.83	226.95
964.13	226.93
964.42	226.90
964.72	226.82
965.01	226.80
965.31	226.76
965.60	226.76
965.90	226.85
966.19	226.80
966.49	226.79
966.78	226.78
967.08	226.77
967.37	226.72
967.67	226.70
967.96	226.71
968.26	226.69
968.55	226.71
968.85	226.73
969.14	226.70
969.43	226.74
969.73	226.76
970.02	226.74
970.32	226.74
970.61	226.73
970.91	226.70
971.20	226.69
971.49	226.69
971.79	226.66
972.08	226.57
972.38	226.57
972.67	226.55
972.96	226.55
973.26	226.53
973.55	226.58
973.85	226.55
974.14	226.54
974.43	226.52
974.73	226.51
975.02	226.45
975.31	226.46
975.61	226.43
975.90	226.44
976.19	226.46
976.49	226.46
976.78	226.48
977.07	226.49
977.37	226.49
977.66	226.50
977.95	226.50
978.24	226.49
978.54	226.52
978.83	226.52
979.12	226.52
979.42	226.55
979.71	226.53
980.00	226.57
980.29	226.57
980.59	226.58
980.88	226.61
981.17	226.64
981.46	226.64
981.76	226.60
982.05	226.64
982.34	226.65
982.63	226.68
982.93	226.66
983.22	226.70
983.51	226.73
983.80	226.75
984.09	226.80
984.39	226.81
984.68	226.85
984.97	226.83
985.26	226.84
985.55	226.82
985.85	226.81
986.14	226.84
986.43	226.86
986.72	226.83
987.01	226.79
987.30	226.81
987.59	226.80
987.89	226.89
988.18	226.84
988.47	226.82
988.76	226.81
989.05	226.80
989.34	226.76
989.63	226.76
989.92	226.74
990.22	226.73
990.51	226.71
990.80	226.67
991.09	226.70
991.38	226.71
991.67	226.73
991.96	226.75
992.25	226.75
992.54	226.72
992.83	226.72
993.12	226.74
993.41	226.73
993.70	226.79
993.99	226.77
994.28	226.80
994.58	226.81
994.87	226.80
995.16	226.80
995.45	226.79
995.74	226.76
996.03	226.78
996.32	226.76
996.61	226.78
996.90	226.79
997.19	226.74
997.48	226.74
997.77	226.71
998.06	226.67
998.34	226.66
998.63	226.67
998.92	226.66
999.21	226.66
999.50	226.68
999.79	226.63
1000.08	226.61
1000.37	226.60
1000.66	226.60
1000.95	226.60
1001.24	226.61
1001.53	226.63
1001.82	226.66
1002.11	226.64
1002.40	226.69
1002.68	226.73
1002.97	226.79
1003.26	226.80
1003.55	226.79
1003.84	226.77
1004.13	226.82
1004.42	226.80
1004.71	226.80
1004.99	226.81
1005.28	226.81
1005.57	226.80
1005.86	226.77
1006.15	226.76
1006.44	226.73
1006.72	226.72
1007.01	226.72
1007.30	226.76
1007.59	226.75
1007.88	226.74
1008.17	226.75
1008.45	226.70
1008.74	226.65
1009.03	226.59
1009.32	226.60
1009.60	226.62
1009.89	226.62
1010.18	226.55
1010.47	226.58
1010.76	226.57
1011.04	226.58
1011.33	226.62
1011.62	226.62
1011.91	226.64
1012.19	226.65
1012.48	226.64
1012.77	226.67
1013.05	226.72
1013.34	226.68
1013.63	226.66
1013.92	226.67
1014.20	226.66
1014.49	226.70
1014.78	226.68
1015.06	226.67
1015.35	226.65
1015.64	226.63
1015.92	226.62
1016.21	226.62
1016.50	226.59
1016.78	226.60
1017.07	226.62
1017.36	226.58
1017.64	226.56
1017.93	226.56
1018.22	226.54
1018.50	226.57
1018.79	226.55
1019.08	226.48
1019.36	226.49
1019.65	226.51
1019.93	226.55
1020.22	226.54
1020.51	226.58
1020.79	226.59
1021.08	226.14
1021.36	226.43
1021.65	226.64
1021.94	226.18
1022.22	226.79
1022.51	226.76
1022.79	227.39
1023.08	226.41
1023.36	228.05
1023.65	226.46
>>>>>End Processed Spectral Data<<<<<
