SpectraSuite Data File
++++++++++++++++++++++++++++++++++++
Date: Fri Feb 01 14:57:16 EST 2013
User: group
Dark Spectrum Present: No
Reference Spectrum Present: No
Number of Sampled Component Spectra: 1
Spectrometers: USB2E7196
Integration Time (usec): 35000 (USB2E7196)
Spectra Averaged: 100 (USB2E7196)
Boxcar Smoothing: 10 (USB2E7196)
Correct for Electrical Dark: No (USB2E7196)
Strobe/Lamp Enabled: No (USB2E7196)
Correct for Detector Non-linearity: No (USB2E7196)
Correct for Stray Light: No (USB2E7196)
Number of Pixels in Processed Spectrum: 2048
>>>>>Begin Processed Spectral Data<<<<<
339.09	0.00
339.48	215.73
339.86	216.90
340.24	217.79
340.63	219.86
341.01	222.61
341.39	222.28
341.78	223.50
342.16	224.40
342.54	225.26
342.93	213.55
343.31	224.32
343.69	224.83
344.07	225.28
344.46	225.71
344.84	226.08
345.22	226.30
345.60	226.53
345.99	226.70
346.37	226.86
346.75	226.96
347.13	227.06
347.52	227.10
347.90	227.17
348.28	227.23
348.66	227.29
349.05	227.32
349.43	227.32
349.81	227.36
350.19	227.37
350.57	227.42
350.96	227.49
351.34	227.57
351.72	227.64
352.10	227.73
352.48	227.80
352.87	227.82
353.25	227.88
353.63	227.94
354.01	228.01
354.39	228.06
354.77	228.16
355.15	228.20
355.54	228.25
355.92	228.28
356.30	228.34
356.68	228.45
357.06	228.51
357.44	228.57
357.82	228.66
358.20	228.73
358.58	228.79
358.97	228.88
359.35	228.96
359.73	229.03
360.11	229.09
360.49	229.17
360.87	229.24
361.25	229.29
361.63	229.37
362.01	229.41
362.39	229.43
362.77	229.44
363.15	229.49
363.53	229.53
363.91	229.56
364.29	229.60
364.67	229.57
365.05	229.58
365.43	229.61
365.81	229.62
366.19	229.66
366.57	229.73
366.95	229.71
367.33	229.68
367.71	229.67
368.09	229.66
368.47	229.62
368.85	229.55
369.23	229.57
369.61	229.47
369.99	229.50
370.37	229.45
370.75	229.47
371.13	229.39
371.51	229.33
371.89	229.27
372.27	229.17
372.65	229.07
373.03	229.00
373.41	228.95
373.78	228.86
374.16	228.75
374.54	228.63
374.92	228.55
375.30	228.48
375.68	228.40
376.06	228.35
376.44	228.27
376.82	228.22
377.19	228.14
377.57	228.10
377.95	227.97
378.33	227.91
378.71	227.78
379.09	227.73
379.47	227.66
379.84	227.58
380.22	227.51
380.60	227.45
380.98	227.39
381.36	227.29
381.73	227.21
382.11	227.13
382.49	227.07
382.87	226.99
383.25	226.94
383.62	226.99
384.00	226.86
384.38	226.82
384.76	226.79
385.13	226.76
385.51	226.69
385.89	226.64
386.27	226.57
386.64	226.53
387.02	226.46
387.40	226.40
387.78	226.38
388.15	226.36
388.53	226.30
388.91	226.24
389.29	226.20
389.66	226.22
390.04	226.20
390.42	226.20
390.79	226.18
391.17	226.17
391.55	226.06
391.92	226.05
392.30	226.06
392.68	226.03
393.05	226.04
393.43	226.05
393.81	226.07
394.18	226.08
394.56	226.08
394.94	226.15
395.31	226.17
395.69	226.23
396.06	226.30
396.44	226.32
396.82	226.36
397.19	226.49
397.57	226.54
397.95	226.59
398.32	226.58
398.70	226.68
399.07	226.78
399.45	226.82
399.82	226.92
400.20	226.99
400.58	227.10
400.95	227.14
401.33	227.27
401.70	227.43
402.08	227.56
402.45	227.69
402.83	227.81
403.20	227.98
403.58	228.12
403.95	228.24
404.33	228.41
404.71	228.59
405.08	228.74
405.46	228.87
405.83	229.05
406.21	229.28
406.58	229.45
406.96	229.60
407.33	229.81
407.70	230.02
408.08	230.28
408.45	230.49
408.83	230.74
409.20	230.93
409.58	231.10
409.95	231.36
410.33	231.63
410.70	231.87
411.08	232.19
411.45	232.52
411.82	232.80
412.20	233.19
412.57	233.63
412.95	233.95
413.32	234.37
413.69	234.79
414.07	235.18
414.44	235.66
414.82	236.14
415.19	236.70
415.56	237.22
415.94	237.76
416.31	238.41
416.68	239.03
417.06	239.78
417.43	240.46
417.81	241.21
418.18	241.99
418.55	242.82
418.93	243.66
419.30	244.52
419.67	245.47
420.04	246.43
420.42	247.37
420.79	248.56
421.16	249.70
421.54	250.90
421.91	252.16
422.28	253.39
422.66	254.72
423.03	256.02
423.40	257.35
423.77	258.78
424.15	260.20
424.52	261.69
424.89	263.24
425.26	264.81
425.64	266.28
426.01	267.85
426.38	269.52
426.75	271.19
427.13	272.93
427.50	274.70
427.87	276.55
428.24	278.43
428.61	280.14
428.99	282.06
429.36	284.10
429.73	286.17
430.10	288.20
430.47	290.26
430.85	292.37
431.22	294.66
431.59	297.04
431.96	299.28
432.33	301.78
432.70	304.23
433.08	307.05
433.45	309.70
433.82	312.32
434.19	315.20
434.56	318.00
434.93	320.65
435.30	323.31
435.68	326.23
436.05	329.08
436.42	331.89
436.79	334.47
437.16	337.25
437.53	340.08
437.90	342.90
438.27	345.66
438.64	348.51
439.01	351.07
439.38	353.29
439.75	355.50
440.13	358.05
440.50	360.36
440.87	362.21
441.24	364.16
441.61	366.33
441.98	367.84
442.35	369.66
442.72	371.53
443.09	373.33
443.46	374.31
443.83	374.89
444.20	375.43
444.57	376.25
444.94	376.53
445.31	376.88
445.68	377.22
446.05	377.33
446.42	376.97
446.79	376.60
447.16	376.20
447.53	375.85
447.90	374.64
448.27	373.54
448.64	371.98
449.01	370.85
449.37	368.90
449.74	366.98
450.11	364.77
450.48	362.28
450.85	359.81
451.22	357.67
451.59	355.63
451.96	353.66
452.33	351.05
452.70	348.71
453.07	345.85
453.43	342.95
453.80	340.15
454.17	337.42
454.54	334.83
454.91	332.11
455.28	329.41
455.65	326.88
456.02	324.37
456.38	322.18
456.75	319.47
457.12	317.21
457.49	314.99
457.86	312.79
458.23	310.91
458.59	308.84
458.96	306.77
459.33	304.94
459.70	303.09
460.07	301.57
460.43	299.80
460.80	298.16
461.17	296.76
461.54	295.26
461.91	293.83
462.27	292.39
462.64	291.13
463.01	289.76
463.38	288.47
463.74	287.09
464.11	285.92
464.48	284.92
464.85	283.76
465.21	282.89
465.58	281.92
465.95	280.81
466.32	279.86
466.68	278.93
467.05	278.00
467.42	277.03
467.78	276.07
468.15	275.20
468.52	274.53
468.88	273.64
469.25	272.84
469.62	272.18
469.98	271.52
470.35	270.83
470.72	270.24
471.08	269.58
471.45	268.99
471.82	268.40
472.18	267.78
472.55	267.38
472.92	266.83
473.28	266.37
473.65	265.91
474.02	265.47
474.38	265.08
474.75	264.74
475.11	264.42
475.48	264.13
475.85	263.90
476.21	263.62
476.58	263.42
476.94	263.28
477.31	263.11
477.67	262.92
478.04	262.84
478.41	262.78
478.77	262.80
479.14	262.74
479.50	262.79
479.87	262.83
480.23	262.87
480.60	262.89
480.96	262.97
481.33	263.16
481.69	263.34
482.06	263.53
482.42	263.72
482.79	263.99
483.15	264.33
483.52	264.71
483.88	265.06
484.25	265.46
484.61	265.85
484.98	266.30
485.34	266.86
485.71	267.42
486.07	267.98
486.44	268.55
486.80	269.27
487.17	269.99
487.53	270.84
487.90	271.68
488.26	272.67
488.62	273.63
488.99	274.61
489.35	275.67
489.72	276.78
490.08	277.99
490.44	279.20
490.81	280.49
491.17	281.84
491.54	283.32
491.90	284.82
492.26	286.49
492.63	288.21
492.99	289.96
493.36	291.87
493.72	293.90
494.08	296.01
494.45	298.22
494.81	300.58
495.17	302.97
495.54	305.55
495.90	308.19
496.26	311.01
496.63	313.92
496.99	316.99
497.35	320.22
497.72	323.60
498.08	327.16
498.44	330.84
498.80	334.75
499.17	338.71
499.53	342.89
499.89	347.22
500.26	351.64
500.62	356.28
500.98	361.18
501.34	366.17
501.71	371.49
502.07	376.87
502.43	382.46
502.79	388.27
503.16	394.26
503.52	400.51
503.88	406.85
504.24	413.50
504.60	420.35
504.97	427.51
505.33	434.84
505.69	442.46
506.05	450.17
506.41	458.02
506.78	466.17
507.14	474.57
507.50	483.28
507.86	492.33
508.22	501.46
508.59	510.71
508.95	520.31
509.31	530.13
509.67	540.18
510.03	550.46
510.39	561.05
510.75	571.91
511.12	582.80
511.48	594.16
511.84	605.57
512.20	617.08
512.56	629.03
512.92	641.15
513.28	653.45
513.64	666.01
514.00	678.71
514.37	691.65
514.73	704.71
515.09	717.76
515.45	731.08
515.81	744.77
516.17	758.77
516.53	772.90
516.89	787.02
517.25	801.27
517.61	815.76
517.97	830.14
518.33	844.53
518.69	859.38
519.05	874.33
519.41	889.49
519.77	905.10
520.13	920.47
520.49	935.90
520.85	951.36
521.21	967.16
521.57	983.49
521.93	999.35
522.29	1015.76
522.65	1032.08
523.01	1048.36
523.37	1064.48
523.73	1080.61
524.09	1096.77
524.45	1113.13
524.81	1129.88
525.17	1146.68
525.53	1163.71
525.89	1180.60
526.25	1197.52
526.61	1213.98
526.97	1230.86
527.33	1247.38
527.68	1263.99
528.04	1280.57
528.40	1297.33
528.76	1314.56
529.12	1331.15
529.48	1348.15
529.84	1364.37
530.20	1381.06
530.56	1398.17
530.91	1415.60
531.27	1432.43
531.63	1449.03
531.99	1465.72
532.35	1481.70
532.71	1497.72
533.07	1514.12
533.42	1530.14
533.78	1546.18
534.14	1562.59
534.50	1577.96
534.86	1594.01
535.21	1609.25
535.57	1625.36
535.93	1640.94
536.29	1655.73
536.65	1670.95
537.00	1685.77
537.36	1701.06
537.72	1715.84
538.08	1730.35
538.44	1744.27
538.79	1758.47
539.15	1772.26
539.51	1786.14
539.87	1800.60
540.22	1814.45
540.58	1828.23
540.94	1841.89
541.29	1854.93
541.65	1867.67
542.01	1880.99
542.37	1893.27
542.72	1905.98
543.08	1917.76
543.44	1930.14
543.79	1941.36
544.15	1952.26
544.51	1963.83
544.87	1974.96
545.22	1985.58
545.58	1995.85
545.94	2005.67
546.29	2015.38
546.65	2025.07
547.01	2034.22
547.36	2042.84
547.72	2051.23
548.07	2059.13
548.43	2067.23
548.79	2075.27
549.14	2082.83
549.50	2090.29
549.86	2098.10
550.21	2105.36
550.57	2112.46
550.92	2119.07
551.28	2126.13
551.64	2133.20
551.99	2139.82
552.35	2145.89
552.70	2152.00
553.06	2157.94
553.41	2164.25
553.77	2170.36
554.13	2176.55
554.48	2182.68
554.84	2188.18
555.19	2193.49
555.55	2198.49
555.90	2202.68
556.26	2207.45
556.61	2212.25
556.97	2216.29
557.32	2220.25
557.68	2224.41
558.03	2228.72
558.39	2232.48
558.74	2236.97
559.10	2240.86
559.45	2244.35
559.81	2248.62
560.16	2252.43
560.52	2255.55
560.87	2258.83
561.23	2261.28
561.58	2264.08
561.94	2266.63
562.29	2268.98
562.64	2271.66
563.00	2274.24
563.35	2277.83
563.71	2280.86
564.06	2283.86
564.42	2286.71
564.77	2289.05
565.12	2291.00
565.48	2292.80
565.83	2294.47
566.19	2295.72
566.54	2296.56
566.89	2297.74
567.25	2298.08
567.60	2299.14
567.96	2300.58
568.31	2301.21
568.66	2302.13
569.02	2302.66
569.37	2302.86
569.72	2303.51
570.08	2303.26
570.43	2302.99
570.78	2302.02
571.14	2300.27
571.49	2298.79
571.84	2298.34
572.20	2297.04
572.55	2295.92
572.90	2294.07
573.26	2292.40
573.61	2290.46
573.96	2288.40
574.31	2285.06
574.67	2281.79
575.02	2278.19
575.37	2274.82
575.72	2270.89
576.08	2267.56
576.43	2263.93
576.78	2260.11
577.13	2256.88
577.49	2253.73
577.84	2250.36
578.19	2246.71
578.54	2242.89
578.90	2238.41
579.25	2232.70
579.60	2227.56
579.95	2222.42
580.30	2217.27
580.66	2211.98
581.01	2207.03
581.36	2201.96
581.71	2197.64
582.06	2193.29
582.42	2188.53
582.77	2182.91
583.12	2178.26
583.47	2173.26
583.82	2168.17
584.17	2162.73
584.53	2157.04
584.88	2151.23
585.23	2145.09
585.58	2139.41
585.93	2133.94
586.28	2129.24
586.63	2124.04
586.98	2119.01
587.34	2114.20
587.69	2109.18
588.04	2103.75
588.39	2097.78
588.74	2091.35
589.09	2085.18
589.44	2078.13
589.79	2072.03
590.14	2066.39
590.49	2059.66
590.84	2053.17
591.19	2046.94
591.54	2040.28
591.89	2032.68
592.25	2025.82
592.60	2018.60
592.95	2010.87
593.30	2003.42
593.65	1995.56
594.00	1988.31
594.35	1980.85
594.70	1972.74
595.05	1965.36
595.40	1958.02
595.75	1950.61
596.10	1944.22
596.45	1937.23
596.80	1930.99
597.15	1924.20
597.50	1917.03
597.85	1910.61
598.19	1904.00
598.54	1896.98
598.89	1890.42
599.24	1884.52
599.59	1877.66
599.94	1871.41
600.29	1865.10
600.64	1858.55
600.99	1851.03
601.34	1844.24
601.69	1837.30
602.04	1830.26
602.39	1823.02
602.74	1816.18
603.08	1809.37
603.43	1802.60
603.78	1795.33
604.13	1788.04
604.48	1780.84
604.83	1773.97
605.18	1766.95
605.53	1758.77
605.87	1750.70
606.22	1743.40
606.57	1735.43
606.92	1728.17
607.27	1720.92
607.62	1713.99
607.96	1706.66
608.31	1700.07
608.66	1692.34
609.01	1684.78
609.36	1677.33
609.70	1669.27
610.05	1661.18
610.40	1653.46
610.75	1645.16
611.10	1637.58
611.44	1629.39
611.79	1621.41
612.14	1612.83
612.49	1603.68
612.83	1595.47
613.18	1587.43
613.53	1579.27
613.88	1570.84
614.22	1562.69
614.57	1554.10
614.92	1546.05
615.27	1538.39
615.61	1530.11
615.96	1522.19
616.31	1514.56
616.65	1507.21
617.00	1499.74
617.35	1492.08
617.70	1483.69
618.04	1475.13
618.39	1466.90
618.74	1459.34
619.08	1451.07
619.43	1443.57
619.78	1436.73
620.12	1429.60
620.47	1422.11
620.82	1414.15
621.16	1406.75
621.51	1399.17
621.85	1391.65
622.20	1383.36
622.55	1375.17
622.89	1367.41
623.24	1359.96
623.59	1352.77
623.93	1345.27
624.28	1338.10
624.62	1330.70
624.97	1323.74
625.32	1317.18
625.66	1310.19
626.01	1302.96
626.35	1295.57
626.70	1287.82
627.04	1280.03
627.39	1272.30
627.73	1264.90
628.08	1257.92
628.43	1250.68
628.77	1243.24
629.12	1235.66
629.46	1228.38
629.81	1221.01
630.15	1213.80
630.50	1206.35
630.84	1198.07
631.19	1190.27
631.53	1182.85
631.88	1175.44
632.22	1167.88
632.57	1160.58
632.91	1153.11
633.26	1145.72
633.60	1138.49
633.95	1131.47
634.29	1124.57
634.64	1117.93
634.98	1110.65
635.32	1103.66
635.67	1097.16
636.01	1090.75
636.36	1084.08
636.70	1077.67
637.05	1071.16
637.39	1064.71
637.73	1058.27
638.08	1052.52
638.42	1046.57
638.77	1040.23
639.11	1033.57
639.45	1027.26
639.80	1020.65
640.14	1014.23
640.49	1007.78
640.83	1001.47
641.17	995.28
641.52	989.04
641.86	982.76
642.20	976.93
642.55	970.75
642.89	964.22
643.23	957.74
643.58	951.94
643.92	945.75
644.26	939.66
644.61	933.72
644.95	927.70
645.29	921.12
645.64	914.44
645.98	908.06
646.32	902.36
646.66	896.30
647.01	890.59
647.35	884.99
647.69	879.19
648.04	873.75
648.38	867.99
648.72	861.93
649.06	855.72
649.41	849.85
649.75	843.78
650.09	837.84
650.43	831.97
650.78	825.91
651.12	819.96
651.46	814.28
651.80	808.48
652.14	803.13
652.49	797.80
652.83	792.61
653.17	786.85
653.51	781.09
653.85	775.74
654.20	770.03
654.54	764.04
654.88	758.38
655.22	752.44
655.56	746.75
655.90	741.34
656.25	736.18
656.59	730.89
656.93	725.84
657.27	720.74
657.61	715.35
657.95	710.21
658.29	705.18
658.64	699.94
658.98	694.80
659.32	689.31
659.66	684.17
660.00	678.87
660.34	674.05
660.68	669.22
661.02	664.20
661.36	659.60
661.70	655.16
662.05	650.82
662.39	646.57
662.73	642.15
663.07	637.88
663.41	633.51
663.75	629.03
664.09	624.54
664.43	620.28
664.77	616.25
665.11	612.17
665.45	608.08
665.79	604.14
666.13	599.98
666.47	596.00
666.81	591.76
667.15	587.70
667.49	583.86
667.83	580.10
668.17	576.18
668.51	572.06
668.85	568.09
669.19	564.30
669.53	560.45
669.87	556.63
670.21	552.95
670.55	549.34
670.89	545.91
671.23	542.47
671.57	538.92
671.91	535.41
672.25	531.91
672.58	528.48
672.92	525.11
673.26	522.03
673.60	518.91
673.94	515.90
674.28	513.01
674.62	510.00
674.96	506.91
675.30	504.02
675.64	501.22
675.97	498.49
676.31	495.60
676.65	492.75
676.99	490.01
677.33	487.21
677.67	484.38
678.01	481.36
678.34	478.40
678.68	475.53
679.02	472.74
679.36	469.96
679.70	467.21
680.04	464.41
680.37	461.48
680.71	458.73
681.05	456.12
681.39	453.43
681.73	450.82
682.06	448.32
682.40	445.78
682.74	443.23
683.08	440.65
683.42	438.11
683.75	435.64
684.09	433.20
684.43	430.70
684.77	428.28
685.10	426.00
685.44	423.74
685.78	421.48
686.12	419.24
686.45	417.05
686.79	414.74
687.13	412.60
687.46	410.53
687.80	408.38
688.14	406.21
688.48	404.21
688.81	401.96
689.15	399.79
689.49	397.73
689.82	395.67
690.16	393.59
690.50	391.68
690.83	389.74
691.17	387.74
691.51	385.84
691.84	383.98
692.18	382.07
692.52	380.05
692.85	378.22
693.19	376.32
693.52	374.52
693.86	372.76
694.20	370.99
694.53	369.14
694.87	367.30
695.21	365.54
695.54	363.69
695.88	362.03
696.21	360.31
696.55	358.62
696.88	356.95
697.22	355.34
697.56	353.72
697.89	352.06
698.23	350.44
698.56	348.86
698.90	347.29
699.23	345.62
699.57	344.11
699.90	342.55
700.24	341.03
700.58	339.47
700.91	337.98
701.25	336.54
701.58	335.25
701.92	333.91
702.25	332.51
702.59	331.17
702.92	329.84
703.26	328.53
703.59	327.27
703.93	326.12
704.26	324.85
704.60	323.57
704.93	322.33
705.26	321.10
705.60	319.95
705.93	318.81
706.27	317.80
706.60	316.75
706.94	315.65
707.27	314.59
707.61	313.59
707.94	312.61
708.27	311.51
708.61	310.42
708.94	309.42
709.28	308.48
709.61	307.50
709.94	306.56
710.28	305.59
710.61	304.63
710.95	303.54
711.28	302.64
711.61	301.64
711.95	300.74
712.28	299.79
712.61	298.81
712.95	297.91
713.28	297.06
713.61	296.14
713.95	295.29
714.28	294.43
714.61	293.54
714.95	292.66
715.28	291.83
715.61	290.93
715.95	290.07
716.28	289.19
716.61	288.41
716.95	287.61
717.28	286.91
717.61	286.12
717.94	285.38
718.28	284.59
718.61	283.94
718.94	283.28
719.27	282.63
719.61	282.00
719.94	281.31
720.27	280.58
720.60	279.95
720.94	279.32
721.27	278.74
721.60	278.18
721.93	277.60
722.27	277.04
722.60	276.53
722.93	275.96
723.26	275.47
723.59	274.91
723.93	274.38
724.26	273.80
724.59	273.23
724.92	272.75
725.25	272.26
725.59	271.72
725.92	271.21
726.25	270.69
726.58	270.18
726.91	269.69
727.24	269.23
727.57	268.76
727.91	268.23
728.24	267.75
728.57	267.24
728.90	266.79
729.23	266.34
729.56	265.89
729.89	265.43
730.22	264.94
730.55	264.45
730.89	264.00
731.22	263.55
731.55	263.13
731.88	262.70
732.21	262.27
732.54	261.84
732.87	261.41
733.20	261.07
733.53	260.70
733.86	260.37
734.19	259.97
734.52	259.61
734.85	259.31
735.18	258.90
735.51	258.52
735.84	258.14
736.17	257.81
736.50	257.41
736.83	257.20
737.16	256.88
737.49	256.59
737.82	256.23
738.15	255.91
738.48	255.58
738.81	255.26
739.14	254.93
739.47	254.59
739.80	254.27
740.13	253.93
740.46	253.59
740.79	253.22
741.12	252.91
741.45	252.62
741.78	252.26
742.11	252.02
742.44	251.73
742.77	251.50
743.10	251.18
743.43	250.87
743.75	250.51
744.08	250.34
744.41	250.05
744.74	249.79
745.07	249.51
745.40	249.29
745.73	249.07
746.06	248.81
746.39	248.55
746.71	248.29
747.04	248.01
747.37	247.75
747.70	247.52
748.03	247.27
748.36	247.02
748.68	246.80
749.01	246.50
749.34	246.31
749.67	246.03
750.00	245.81
750.33	245.71
750.65	245.48
750.98	245.17
751.31	244.96
751.64	244.71
751.97	244.58
752.29	244.34
752.62	244.08
752.95	243.85
753.28	243.65
753.60	243.44
753.93	243.30
754.26	243.13
754.59	242.90
754.91	242.73
755.24	242.50
755.57	242.33
755.90	242.20
756.22	241.97
756.55	241.76
756.88	241.57
757.20	241.31
757.53	241.10
757.86	240.94
758.19	240.78
758.51	240.66
758.84	240.41
759.17	240.26
759.49	240.10
759.82	240.00
760.15	239.87
760.47	239.73
760.80	239.54
761.13	239.38
761.45	239.26
761.78	239.08
762.11	238.98
762.43	238.81
762.76	238.65
763.08	238.49
763.41	238.38
763.74	238.25
764.06	238.11
764.39	237.95
764.71	237.78
765.04	237.63
765.37	237.47
765.69	237.35
766.02	237.19
766.34	237.04
766.67	236.90
767.00	236.76
767.32	236.69
767.65	236.63
767.97	236.48
768.30	236.33
768.62	236.22
768.95	236.12
769.27	236.00
769.60	235.91
769.92	235.81
770.25	235.66
770.57	235.54
770.90	235.43
771.22	235.33
771.55	235.26
771.87	235.19
772.20	235.09
772.52	235.07
772.85	235.10
773.17	235.02
773.50	234.90
773.82	234.79
774.15	234.65
774.47	234.47
774.80	234.38
775.12	234.33
775.45	234.25
775.77	234.15
776.09	234.09
776.42	233.98
776.74	233.91
777.07	233.83
777.39	233.77
777.72	233.67
778.04	233.59
778.36	233.49
778.69	233.40
779.01	233.34
779.33	233.16
779.66	232.96
779.98	232.83
780.31	232.80
780.63	232.80
780.95	232.76
781.28	232.72
781.60	232.67
781.92	232.61
782.25	232.54
782.57	232.45
782.89	232.38
783.22	232.32
783.54	232.26
783.86	232.23
784.19	232.14
784.51	232.17
784.83	232.11
785.16	232.08
785.48	232.04
785.80	232.02
786.12	232.00
786.45	231.97
786.77	232.00
787.09	231.92
787.42	231.83
787.74	231.78
788.06	231.77
788.38	231.73
788.71	231.69
789.03	231.65
789.35	231.67
789.67	231.62
789.99	231.59
790.32	231.54
790.64	231.49
790.96	231.57
791.28	231.48
791.61	231.46
791.93	231.42
792.25	231.36
792.57	231.38
792.89	231.34
793.21	231.33
793.54	231.31
793.86	231.27
794.18	231.25
794.50	231.20
794.82	231.15
795.14	231.14
795.47	231.11
795.79	231.13
796.11	231.06
796.43	231.04
796.75	231.04
797.07	231.00
797.39	230.99
797.71	230.87
798.04	230.86
798.36	230.85
798.68	230.82
799.00	230.79
799.32	230.70
799.64	230.69
799.96	230.65
800.28	230.61
800.60	230.60
800.92	230.58
801.24	230.55
801.56	230.50
801.89	230.44
802.21	230.40
802.53	230.35
802.85	230.34
803.17	230.33
803.49	230.26
803.81	230.23
804.13	230.20
804.45	230.14
804.77	230.14
805.09	230.10
805.41	230.09
805.73	230.05
806.05	230.02
806.37	229.98
806.69	229.95
807.01	229.92
807.33	229.88
807.65	229.81
807.97	229.85
808.28	229.80
808.60	229.79
808.92	229.76
809.24	229.81
809.56	229.76
809.88	229.68
810.20	229.68
810.52	229.66
810.84	229.64
811.16	229.63
811.48	229.56
811.80	229.56
812.12	229.50
812.43	229.52
812.75	229.50
813.07	229.47
813.39	229.44
813.71	229.37
814.03	229.34
814.35	229.31
814.67	229.24
814.98	229.23
815.30	229.16
815.62	229.10
815.94	229.00
816.26	229.01
816.58	229.00
816.89	228.96
817.21	228.92
817.53	228.85
817.85	228.82
818.17	228.80
818.48	228.75
818.80	228.72
819.12	228.65
819.44	228.61
819.76	228.57
820.07	228.54
820.39	228.55
820.71	228.55
821.03	228.54
821.34	228.52
821.66	228.54
821.98	228.60
822.30	228.58
822.61	228.63
822.93	228.59
823.25	228.58
823.57	228.56
823.88	228.61
824.20	228.61
824.52	228.59
824.83	228.59
825.15	228.59
825.47	228.60
825.79	228.61
826.10	228.60
826.42	228.59
826.74	228.60
827.05	228.60
827.37	228.59
827.69	228.60
828.00	228.60
828.32	228.59
828.64	228.55
828.95	228.62
829.27	228.54
829.58	228.55
829.90	228.58
830.22	228.60
830.53	228.58
830.85	228.55
831.17	228.54
831.48	228.51
831.80	228.52
832.11	228.50
832.43	228.50
832.75	228.50
833.06	228.59
833.38	228.57
833.69	228.55
834.01	228.53
834.32	228.55
834.64	228.58
834.96	228.55
835.27	228.56
835.59	228.52
835.90	228.52
836.22	228.47
836.53	228.45
836.85	228.41
837.16	228.45
837.48	228.46
837.79	228.52
838.11	228.54
838.42	228.53
838.74	228.56
839.05	228.51
839.37	228.49
839.68	228.37
840.00	228.35
840.31	228.35
840.63	228.33
840.94	228.27
841.26	228.24
841.57	228.22
841.88	228.21
842.20	228.18
842.51	228.17
842.83	228.18
843.14	228.24
843.46	228.22
843.77	228.17
844.08	228.15
844.40	228.12
844.71	228.06
845.03	228.04
845.34	228.01
845.65	228.02
845.97	228.05
846.28	228.07
846.60	228.06
846.91	228.04
847.22	228.06
847.54	228.08
847.85	228.05
848.16	228.02
848.48	227.98
848.79	228.01
849.10	228.01
849.42	227.99
849.73	227.87
850.04	227.87
850.36	227.80
850.67	227.82
850.98	227.78
851.30	227.78
851.61	227.76
851.92	227.75
852.23	227.73
852.55	227.69
852.86	227.70
853.17	227.72
853.49	227.72
853.80	227.73
854.11	227.70
854.42	227.70
854.74	227.71
855.05	227.70
855.36	227.63
855.67	227.59
855.99	227.60
856.30	227.71
856.61	227.71
856.92	227.72
857.23	227.72
857.55	227.69
857.86	227.70
858.17	227.70
858.48	227.70
858.79	227.70
859.11	227.72
859.42	227.69
859.73	227.62
860.04	227.62
860.35	227.56
860.66	227.53
860.98	227.50
861.29	227.50
861.60	227.50
861.91	227.57
862.22	227.60
862.53	227.59
862.84	227.46
863.16	227.49
863.47	227.49
863.78	227.49
864.09	227.54
864.40	227.54
864.71	227.53
865.02	227.54
865.33	227.54
865.64	227.52
865.95	227.52
866.27	227.58
866.58	227.60
866.89	227.61
867.20	227.64
867.51	227.65
867.82	227.64
868.13	227.70
868.44	227.65
868.75	227.65
869.06	227.67
869.37	227.73
869.68	227.67
869.99	227.67
870.30	227.67
870.61	227.67
870.92	227.67
871.23	227.69
871.54	227.70
871.85	227.74
872.16	227.76
872.47	227.77
872.78	227.73
873.09	227.72
873.40	227.77
873.71	227.79
874.02	227.82
874.33	227.82
874.64	227.75
874.95	227.78
875.26	227.76
875.56	227.76
875.87	227.73
876.18	227.73
876.49	227.83
876.80	227.84
877.11	227.82
877.42	227.81
877.73	227.78
878.04	227.76
878.35	227.72
878.66	227.71
878.96	227.67
879.27	227.63
879.58	227.59
879.89	227.56
880.20	227.56
880.51	227.55
880.82	227.52
881.12	227.54
881.43	227.52
881.74	227.51
882.05	227.49
882.36	227.49
882.67	227.52
882.97	227.41
883.28	227.37
883.59	227.39
883.90	227.35
884.21	227.37
884.51	227.35
884.82	227.34
885.13	227.32
885.44	227.31
885.74	227.34
886.05	227.38
886.36	227.35
886.67	227.30
886.98	227.33
887.28	227.35
887.59	227.33
887.90	227.33
888.20	227.29
888.51	227.29
888.82	227.26
889.13	227.22
889.43	227.31
889.74	227.33
890.05	227.30
890.35	227.33
890.66	227.30
890.97	227.31
891.28	227.29
891.58	227.30
891.89	227.31
892.20	227.28
892.50	227.26
892.81	227.23
893.12	227.21
893.42	227.16
893.73	227.15
894.04	227.15
894.34	227.16
894.65	227.16
894.95	227.13
895.26	227.15
895.57	227.22
895.87	227.10
896.18	227.08
896.48	227.07
896.79	227.06
897.10	227.09
897.40	227.06
897.71	227.08
898.01	227.08
898.32	227.07
898.63	227.10
898.93	227.08
899.24	227.09
899.54	227.13
899.85	227.10
900.15	227.12
900.46	227.11
900.76	227.11
901.07	227.12
901.38	227.14
901.68	227.14
901.99	227.08
902.29	227.15
902.60	227.19
902.90	227.20
903.21	227.20
903.51	227.19
903.82	227.23
904.12	227.28
904.43	227.30
904.73	227.32
905.03	227.33
905.34	227.46
905.64	227.47
905.95	227.45
906.25	227.47
906.56	227.46
906.86	227.48
907.17	227.45
907.47	227.46
907.77	227.46
908.08	227.43
908.38	227.44
908.69	227.42
908.99	227.43
909.30	227.44
909.60	227.45
909.90	227.48
910.21	227.46
910.51	227.45
910.81	227.48
911.12	227.49
911.42	227.50
911.73	227.37
912.03	227.36
912.33	227.39
912.64	227.44
912.94	227.44
913.24	227.42
913.55	227.44
913.85	227.47
914.15	227.50
914.46	227.52
914.76	227.51
915.06	227.56
915.37	227.53
915.67	227.51
915.97	227.50
916.27	227.45
916.58	227.47
916.88	227.46
917.18	227.44
917.49	227.49
917.79	227.50
918.09	227.54
918.39	227.57
918.70	227.60
919.00	227.60
919.30	227.65
919.60	227.63
919.91	227.61
920.21	227.59
920.51	227.55
920.81	227.57
921.12	227.54
921.42	227.45
921.72	227.45
922.02	227.45
922.32	227.45
922.63	227.47
922.93	227.48
923.23	227.45
923.53	227.40
923.83	227.34
924.13	227.31
924.44	227.28
924.74	227.29
925.04	227.27
925.34	227.24
925.64	227.16
925.94	227.17
926.24	227.20
926.55	227.18
926.85	227.21
927.15	227.18
927.45	227.20
927.75	227.24
928.05	227.24
928.35	227.21
928.65	227.17
928.95	227.17
929.26	227.13
929.56	227.12
929.86	227.14
930.16	227.10
930.46	227.10
930.76	227.10
931.06	227.05
931.36	227.00
931.66	227.01
931.96	227.03
932.26	227.03
932.56	226.99
932.86	227.01
933.16	227.00
933.46	227.01
933.76	227.01
934.06	227.00
934.36	227.01
934.66	227.05
934.96	227.09
935.26	227.09
935.56	227.08
935.86	227.08
936.16	227.06
936.46	227.05
936.76	227.02
937.06	227.01
937.36	226.99
937.66	227.01
937.96	227.02
938.26	227.03
938.56	227.06
938.86	227.08
939.16	227.10
939.46	227.11
939.76	227.15
940.06	227.15
940.35	227.15
940.65	227.13
940.95	227.13
941.25	227.10
941.55	227.09
941.85	227.11
942.15	227.13
942.45	227.19
942.75	227.21
943.04	227.26
943.34	227.29
943.64	227.33
943.94	227.33
944.24	227.35
944.54	227.34
944.84	227.32
945.13	227.32
945.43	227.31
945.73	227.32
946.03	227.30
946.33	227.29
946.62	227.29
946.92	227.31
947.22	227.33
947.52	227.37
947.82	227.43
948.11	227.44
948.41	227.45
948.71	227.43
949.01	227.47
949.31	227.43
949.60	227.44
949.90	227.45
950.20	227.45
950.50	227.43
950.79	227.41
951.09	227.45
951.39	227.45
951.69	227.43
951.98	227.46
952.28	227.45
952.58	227.46
952.87	227.45
953.17	227.45
953.47	227.44
953.76	227.44
954.06	227.42
954.36	227.40
954.66	227.39
954.95	227.38
955.25	227.35
955.55	227.40
955.84	227.37
956.14	227.35
956.44	227.35
956.73	227.31
957.03	227.34
957.32	227.32
957.62	227.30
957.92	227.28
958.21	227.24
958.51	227.32
958.81	227.33
959.10	227.31
959.40	227.31
959.69	227.30
959.99	227.28
960.29	227.25
960.58	227.25
960.88	227.25
961.17	227.23
961.47	227.25
961.76	227.22
962.06	227.22
962.36	227.21
962.65	227.20
962.95	227.21
963.24	227.18
963.54	227.16
963.83	227.15
964.13	227.14
964.42	227.14
964.72	227.07
965.01	227.04
965.31	227.05
965.60	227.02
965.90	227.06
966.19	227.01
966.49	227.02
966.78	227.01
967.08	227.02
967.37	227.02
967.67	226.97
967.96	226.99
968.26	226.99
968.55	226.98
968.85	226.96
969.14	226.95
969.43	226.93
969.73	226.94
970.02	226.94
970.32	226.92
970.61	226.89
970.91	226.86
971.20	226.86
971.49	226.84
971.79	226.87
972.08	226.81
972.38	226.83
972.67	226.83
972.96	226.82
973.26	226.78
973.55	226.81
973.85	226.80
974.14	226.78
974.43	226.80
974.73	226.80
975.02	226.81
975.31	226.84
975.61	226.83
975.90	226.85
976.19	226.88
976.49	226.92
976.78	226.94
977.07	226.95
977.37	226.97
977.66	227.00
977.95	227.00
978.24	227.02
978.54	227.05
978.83	227.07
979.12	227.07
979.42	227.11
979.71	227.08
980.00	227.11
980.29	227.12
980.59	227.14
980.88	227.19
981.17	227.20
981.46	227.20
981.76	227.23
982.05	227.25
982.34	227.26
982.63	227.29
982.93	227.32
983.22	227.35
983.51	227.36
983.80	227.39
984.09	227.39
984.39	227.39
984.68	227.38
984.97	227.38
985.26	227.37
985.55	227.38
985.85	227.35
986.14	227.37
986.43	227.38
986.72	227.36
987.01	227.32
987.30	227.30
987.59	227.29
987.89	227.30
988.18	227.28
988.47	227.27
988.76	227.26
989.05	227.25
989.34	227.22
989.63	227.25
989.92	227.22
990.22	227.20
990.51	227.21
990.80	227.24
991.09	227.26
991.38	227.29
991.67	227.27
991.96	227.30
992.25	227.32
992.54	227.31
992.83	227.31
993.12	227.28
993.41	227.30
993.70	227.32
993.99	227.31
994.28	227.31
994.58	227.31
994.87	227.26
995.16	227.25
995.45	227.24
995.74	227.18
996.03	227.20
996.32	227.21
996.61	227.22
996.90	227.16
997.19	227.12
997.48	227.11
997.77	227.08
998.06	227.06
998.34	227.02
998.63	227.03
998.92	226.99
999.21	227.00
999.50	226.96
999.79	226.92
1000.08	226.92
1000.37	226.89
1000.66	226.89
1000.95	226.90
1001.24	226.88
1001.53	226.90
1001.82	226.88
1002.11	226.84
1002.40	226.83
1002.68	226.86
1002.97	226.91
1003.26	226.91
1003.55	226.92
1003.84	226.95
1004.13	227.01
1004.42	227.00
1004.71	226.95
1004.99	226.99
1005.28	227.01
1005.57	227.04
1005.86	227.04
1006.15	227.02
1006.44	226.98
1006.72	226.96
1007.01	226.95
1007.30	226.95
1007.59	226.91
1007.88	226.89
1008.17	226.87
1008.45	226.85
1008.74	226.78
1009.03	226.78
1009.32	226.75
1009.60	226.73
1009.89	226.70
1010.18	226.64
1010.47	226.68
1010.76	226.68
1011.04	226.65
1011.33	226.67
1011.62	226.66
1011.91	226.69
1012.19	226.71
1012.48	226.74
1012.77	226.76
1013.05	226.82
1013.34	226.82
1013.63	226.84
1013.92	226.87
1014.20	226.90
1014.49	226.94
1014.78	226.93
1015.06	226.89
1015.35	226.91
1015.64	226.94
1015.92	226.97
1016.21	226.97
1016.50	226.94
1016.78	227.01
1017.07	227.04
1017.36	227.02
1017.64	227.03
1017.93	227.03
1018.22	227.03
1018.50	227.05
1018.79	227.04
1019.08	227.02
1019.36	227.05
1019.65	227.08
1019.93	227.14
1020.22	227.17
1020.51	227.20
1020.79	227.20
1021.08	227.00
1021.36	226.83
1021.65	227.11
1021.94	227.22
1022.22	227.22
1022.51	227.57
1022.79	227.80
1023.08	227.74
1023.36	227.78
1023.65	226.52
>>>>>End Processed Spectral Data<<<<<
