SpectraSuite Data File
++++++++++++++++++++++++++++++++++++
Date: Fri Feb 01 15:07:31 EST 2013
User: group
Dark Spectrum Present: No
Reference Spectrum Present: No
Number of Sampled Component Spectra: 1
Spectrometers: USB2E7196
Integration Time (usec): 35000 (USB2E7196)
Spectra Averaged: 100 (USB2E7196)
Boxcar Smoothing: 10 (USB2E7196)
Correct for Electrical Dark: No (USB2E7196)
Strobe/Lamp Enabled: No (USB2E7196)
Correct for Detector Non-linearity: No (USB2E7196)
Correct for Stray Light: No (USB2E7196)
Number of Pixels in Processed Spectrum: 2048
>>>>>Begin Processed Spectral Data<<<<<
339.09	0.00
339.48	214.96
339.86	216.34
340.24	218.23
340.63	219.27
341.01	222.40
341.39	222.52
341.78	223.24
342.16	224.43
342.54	225.62
342.93	213.56
343.31	224.34
343.69	224.90
344.07	225.35
344.46	225.75
344.84	226.14
345.22	226.39
345.60	226.63
345.99	226.83
346.37	226.96
346.75	227.05
347.13	227.13
347.52	227.15
347.90	227.20
348.28	227.19
348.66	227.24
349.05	227.22
349.43	227.27
349.81	227.36
350.19	227.40
350.57	227.45
350.96	227.53
351.34	227.64
351.72	227.71
352.10	227.85
352.48	227.94
352.87	227.98
353.25	228.03
353.63	228.05
354.01	228.11
354.39	228.19
354.77	228.23
355.15	228.32
355.54	228.41
355.92	228.48
356.30	228.58
356.68	228.71
357.06	228.78
357.44	228.85
357.82	228.92
358.20	229.00
358.58	229.05
358.97	229.11
359.35	229.16
359.73	229.21
360.11	229.22
360.49	229.30
360.87	229.36
361.25	229.43
361.63	229.54
362.01	229.62
362.39	229.66
362.77	229.75
363.15	229.76
363.53	229.79
363.91	229.77
364.29	229.78
364.67	229.69
365.05	229.70
365.43	229.70
365.81	229.69
366.19	229.72
366.57	229.77
366.95	229.76
367.33	229.75
367.71	229.76
368.09	229.78
368.47	229.74
368.85	229.73
369.23	229.70
369.61	229.65
369.99	229.63
370.37	229.61
370.75	229.60
371.13	229.58
371.51	229.52
371.89	229.50
372.27	229.47
372.65	229.42
373.03	229.38
373.41	229.29
373.78	229.21
374.16	229.12
374.54	229.01
374.92	228.93
375.30	228.86
375.68	228.76
376.06	228.70
376.44	228.65
376.82	228.58
377.19	228.49
377.57	228.38
377.95	228.27
378.33	228.14
378.71	227.98
379.09	227.90
379.47	227.81
379.84	227.69
380.22	227.60
380.60	227.49
380.98	227.37
381.36	227.30
381.73	227.25
382.11	227.17
382.49	227.11
382.87	227.03
383.25	226.96
383.62	227.00
384.00	226.90
384.38	226.85
384.76	226.78
385.13	226.76
385.51	226.75
385.89	226.67
386.27	226.64
386.64	226.64
387.02	226.55
387.40	226.52
387.78	226.53
388.15	226.50
388.53	226.47
388.91	226.46
389.29	226.43
389.66	226.39
390.04	226.36
390.42	226.36
390.79	226.38
391.17	226.36
391.55	226.25
391.92	226.23
392.30	226.24
392.68	226.23
393.05	226.23
393.43	226.23
393.81	226.25
394.18	226.26
394.56	226.27
394.94	226.35
395.31	226.38
395.69	226.44
396.06	226.50
396.44	226.58
396.82	226.60
397.19	226.72
397.57	226.77
397.95	226.83
398.32	226.87
398.70	226.96
399.07	227.04
399.45	227.14
399.82	227.22
400.20	227.27
400.58	227.35
400.95	227.40
401.33	227.52
401.70	227.71
402.08	227.81
402.45	227.95
402.83	228.08
403.20	228.23
403.58	228.32
403.95	228.46
404.33	228.60
404.71	228.74
405.08	228.93
405.46	229.07
405.83	229.24
406.21	229.40
406.58	229.55
406.96	229.74
407.33	229.91
407.70	230.12
408.08	230.40
408.45	230.62
408.83	230.86
409.20	231.06
409.58	231.24
409.95	231.53
410.33	231.80
410.70	232.04
411.08	232.34
411.45	232.64
411.82	232.92
412.20	233.25
412.57	233.68
412.95	233.94
413.32	234.38
413.69	234.78
414.07	235.20
414.44	235.65
414.82	236.12
415.19	236.69
415.56	237.26
415.94	237.81
416.31	238.46
416.68	239.06
417.06	239.77
417.43	240.45
417.81	241.19
418.18	241.95
418.55	242.78
418.93	243.63
419.30	244.55
419.67	245.49
420.04	246.45
420.42	247.46
420.79	248.65
421.16	249.74
421.54	250.91
421.91	252.11
422.28	253.36
422.66	254.66
423.03	255.92
423.40	257.23
423.77	258.61
424.15	260.02
424.52	261.55
424.89	263.15
425.26	264.70
425.64	266.16
426.01	267.74
426.38	269.38
426.75	271.05
427.13	272.79
427.50	274.61
427.87	276.54
428.24	278.39
428.61	280.14
428.99	282.14
429.36	284.24
429.73	286.34
430.10	288.39
430.47	290.46
430.85	292.58
431.22	294.81
431.59	297.21
431.96	299.47
432.33	301.95
432.70	304.32
433.08	307.10
433.45	309.75
433.82	312.37
434.19	315.28
434.56	318.09
434.93	320.71
435.30	323.31
435.68	326.18
436.05	329.02
436.42	331.86
436.79	334.35
437.16	337.06
437.53	339.90
437.90	342.73
438.27	345.51
438.64	348.38
439.01	351.02
439.38	353.28
439.75	355.48
440.13	357.94
440.50	360.30
440.87	362.21
441.24	364.16
441.61	366.32
441.98	367.82
442.35	369.65
442.72	371.54
443.09	373.35
443.46	374.38
443.83	375.00
444.20	375.50
444.57	376.36
444.94	376.73
445.31	377.02
445.68	377.38
446.05	377.41
446.42	377.05
446.79	376.60
447.16	376.17
447.53	375.85
447.90	374.70
448.27	373.56
448.64	371.96
449.01	370.79
449.37	368.85
449.74	366.93
450.11	364.66
450.48	362.15
450.85	359.61
451.22	357.44
451.59	355.40
451.96	353.46
452.33	350.83
452.70	348.42
453.07	345.62
453.43	342.72
453.80	339.98
454.17	337.27
454.54	334.73
454.91	331.97
455.28	329.29
455.65	326.85
456.02	324.36
456.38	322.18
456.75	319.53
457.12	317.26
457.49	315.06
457.86	312.90
458.23	311.05
458.59	309.00
458.96	306.92
459.33	305.02
459.70	303.10
460.07	301.56
460.43	299.85
460.80	298.22
461.17	296.76
461.54	295.25
461.91	293.79
462.27	292.36
462.64	291.14
463.01	289.78
463.38	288.44
463.74	287.08
464.11	285.93
464.48	284.88
464.85	283.78
465.21	282.86
465.58	281.95
465.95	280.86
466.32	279.97
466.68	279.04
467.05	278.16
467.42	277.29
467.78	276.36
468.15	275.45
468.52	274.76
468.88	273.92
469.25	273.11
469.62	272.47
469.98	271.76
470.35	271.08
470.72	270.45
471.08	269.79
471.45	269.24
471.82	268.65
472.18	268.07
472.55	267.61
472.92	267.11
473.28	266.59
473.65	266.14
474.02	265.70
474.38	265.30
474.75	264.97
475.11	264.59
475.48	264.33
475.85	264.10
476.21	263.85
476.58	263.64
476.94	263.50
477.31	263.36
477.67	263.20
478.04	263.10
478.41	263.03
478.77	263.08
479.14	263.01
479.50	263.06
479.87	263.15
480.23	263.23
480.60	263.27
480.96	263.37
481.33	263.59
481.69	263.78
482.06	263.98
482.42	264.18
482.79	264.45
483.15	264.76
483.52	265.17
483.88	265.54
484.25	265.90
484.61	266.33
484.98	266.78
485.34	267.35
485.71	267.89
486.07	268.49
486.44	269.02
486.80	269.72
487.17	270.44
487.53	271.21
487.90	272.01
488.26	272.96
488.62	273.93
488.99	274.87
489.35	275.90
489.72	277.00
490.08	278.22
490.44	279.44
490.81	280.77
491.17	282.07
491.54	283.54
491.90	285.08
492.26	286.70
492.63	288.42
492.99	290.20
493.36	292.13
493.72	294.20
494.08	296.33
494.45	298.59
494.81	300.94
495.17	303.38
495.54	305.98
495.90	308.63
496.26	311.44
496.63	314.41
496.99	317.52
497.35	320.81
497.72	324.20
498.08	327.72
498.44	331.39
498.80	335.32
499.17	339.36
499.53	343.50
499.89	347.90
500.26	352.44
500.62	357.06
500.98	362.01
501.34	367.00
501.71	372.30
502.07	377.64
502.43	383.23
502.79	389.06
503.16	395.07
503.52	401.34
503.88	407.71
504.24	414.30
504.60	421.09
504.97	428.16
505.33	435.40
505.69	443.08
506.05	450.80
506.41	458.71
506.78	466.86
507.14	475.32
507.50	483.96
507.86	492.92
508.22	502.15
508.59	511.26
508.95	520.82
509.31	530.55
509.67	540.69
510.03	550.99
510.39	561.45
510.75	572.28
511.12	583.27
511.48	594.57
511.84	606.02
512.20	617.61
512.56	629.60
512.92	641.85
513.28	654.26
513.64	666.77
514.00	679.42
514.37	692.32
514.73	705.42
515.09	718.52
515.45	731.78
515.81	745.33
516.17	759.34
516.53	773.54
516.89	787.78
517.25	802.08
517.61	816.61
517.97	831.08
518.33	845.45
518.69	860.19
519.05	875.23
519.41	890.45
519.77	905.94
520.13	921.35
520.49	936.65
520.85	952.01
521.21	967.77
521.57	984.12
521.93	1000.01
522.29	1016.39
522.65	1032.59
523.01	1048.96
523.37	1065.08
523.73	1081.30
524.09	1097.42
524.45	1113.81
524.81	1130.50
525.17	1147.23
525.53	1164.21
525.89	1181.26
526.25	1198.16
526.61	1214.62
526.97	1231.38
527.33	1247.93
527.68	1264.68
528.04	1281.38
528.40	1298.16
528.76	1315.21
529.12	1331.94
529.48	1348.84
529.84	1365.00
530.20	1381.76
530.56	1398.79
530.91	1416.32
531.27	1433.22
531.63	1449.73
531.99	1466.36
532.35	1482.28
532.71	1498.21
533.07	1514.54
533.42	1530.45
533.78	1546.60
534.14	1562.91
534.50	1578.31
534.86	1594.26
535.21	1609.49
535.57	1625.49
535.93	1641.09
536.29	1656.04
536.65	1671.07
537.00	1686.01
537.36	1701.28
537.72	1716.03
538.08	1730.58
538.44	1744.44
538.79	1758.41
539.15	1772.33
539.51	1786.22
539.87	1800.75
540.22	1814.63
540.58	1828.55
540.94	1842.12
541.29	1855.15
541.65	1867.95
542.01	1881.35
542.37	1893.76
542.72	1906.34
543.08	1918.09
543.44	1930.48
543.79	1941.81
544.15	1952.88
544.51	1964.44
544.87	1975.58
545.22	1986.29
545.58	1996.57
545.94	2006.34
546.29	2016.43
546.65	2026.20
547.01	2035.47
547.36	2044.22
547.72	2052.79
548.07	2060.74
548.43	2068.87
548.79	2076.90
549.14	2084.43
549.50	2091.87
549.86	2099.64
550.21	2106.87
550.57	2114.20
550.92	2120.82
551.28	2127.85
551.64	2134.89
551.99	2141.54
552.35	2147.59
552.70	2153.64
553.06	2159.51
553.41	2165.82
553.77	2171.67
554.13	2177.71
554.48	2183.82
554.84	2189.08
555.19	2194.32
555.55	2199.32
555.90	2203.76
556.26	2208.55
556.61	2213.24
556.97	2217.33
557.32	2221.42
557.68	2225.73
558.03	2230.01
558.39	2233.76
558.74	2238.43
559.10	2242.26
559.45	2245.76
559.81	2250.14
560.16	2253.94
560.52	2257.12
560.87	2260.53
561.23	2263.09
561.58	2265.97
561.94	2268.42
562.29	2270.93
562.64	2273.45
563.00	2276.07
563.35	2279.46
563.71	2282.51
564.06	2285.59
564.42	2288.43
564.77	2290.79
565.12	2292.86
565.48	2294.54
565.83	2296.18
566.19	2297.21
566.54	2298.17
566.89	2299.15
567.25	2299.57
567.60	2301.02
567.96	2302.59
568.31	2303.48
568.66	2304.54
569.02	2305.06
569.37	2305.28
569.72	2305.96
570.08	2306.02
570.43	2305.79
570.78	2304.97
571.14	2303.32
571.49	2301.95
571.84	2301.47
572.20	2300.26
572.55	2299.12
572.90	2297.61
573.26	2296.03
573.61	2294.24
573.96	2292.12
574.31	2289.06
574.67	2286.00
575.02	2282.10
575.37	2278.60
575.72	2274.44
576.08	2271.11
576.43	2267.60
576.78	2263.76
577.13	2260.48
577.49	2257.54
577.84	2254.07
578.19	2250.31
578.54	2246.54
578.90	2242.15
579.25	2236.52
579.60	2231.39
579.95	2226.02
580.30	2220.82
580.66	2215.61
581.01	2210.73
581.36	2205.84
581.71	2201.53
582.06	2196.84
582.42	2192.29
582.77	2187.03
583.12	2182.34
583.47	2177.33
583.82	2172.26
584.17	2166.89
584.53	2161.33
584.88	2155.35
585.23	2149.35
585.58	2143.92
585.93	2138.40
586.28	2133.56
586.63	2128.34
586.98	2123.17
587.34	2118.53
587.69	2113.56
588.04	2108.22
588.39	2102.27
588.74	2095.78
589.09	2089.55
589.44	2082.67
589.79	2076.63
590.14	2070.83
590.49	2064.27
590.84	2057.79
591.19	2051.74
591.54	2045.27
591.89	2037.76
592.25	2030.94
592.60	2023.67
592.95	2015.90
593.30	2008.46
593.65	2000.91
594.00	1993.89
594.35	1986.59
594.70	1978.61
595.05	1971.05
595.40	1963.62
595.75	1956.10
596.10	1949.55
596.45	1942.68
596.80	1936.38
597.15	1929.66
597.50	1922.49
597.85	1916.03
598.19	1909.34
598.54	1902.08
598.89	1895.33
599.24	1889.43
599.59	1882.55
599.94	1876.45
600.29	1870.17
600.64	1863.69
600.99	1856.05
601.34	1849.03
601.69	1841.93
602.04	1834.78
602.39	1827.49
602.74	1820.61
603.08	1813.92
603.43	1807.30
603.78	1799.99
604.13	1792.77
604.48	1785.33
604.83	1778.46
605.18	1771.35
605.53	1763.25
605.87	1755.34
606.22	1748.13
606.57	1740.09
606.92	1732.81
607.27	1725.39
607.62	1718.34
607.96	1710.80
608.31	1704.09
608.66	1696.62
609.01	1689.09
609.36	1681.60
609.70	1673.66
610.05	1665.65
610.40	1657.92
610.75	1649.48
611.10	1641.82
611.44	1633.54
611.79	1625.63
612.14	1616.91
612.49	1607.81
612.83	1599.53
613.18	1591.37
613.53	1583.21
613.88	1574.68
614.22	1566.51
614.57	1558.05
614.92	1550.06
615.27	1542.59
615.61	1534.31
615.96	1526.18
616.31	1518.64
616.65	1511.26
617.00	1503.77
617.35	1496.16
617.70	1487.77
618.04	1479.30
618.39	1471.09
618.74	1463.56
619.08	1455.35
619.43	1447.92
619.78	1440.92
620.12	1433.76
620.47	1426.21
620.82	1418.10
621.16	1410.81
621.51	1403.24
621.85	1395.74
622.20	1387.15
622.55	1378.86
622.89	1371.11
623.24	1363.66
623.59	1356.39
623.93	1348.89
624.28	1341.65
624.62	1334.21
624.97	1327.13
625.32	1320.51
625.66	1313.55
626.01	1306.32
626.35	1298.78
626.70	1291.03
627.04	1283.43
627.39	1275.70
627.73	1268.37
628.08	1261.57
628.43	1254.20
628.77	1246.76
629.12	1239.12
629.46	1231.98
629.81	1224.62
630.15	1217.39
630.50	1209.93
630.84	1201.68
631.19	1193.83
631.53	1186.35
631.88	1178.77
632.22	1171.14
632.57	1163.84
632.91	1156.30
633.26	1148.90
633.60	1141.73
633.95	1134.73
634.29	1127.82
634.64	1121.17
634.98	1113.84
635.32	1106.80
635.67	1100.26
636.01	1093.72
636.36	1086.99
636.70	1080.52
637.05	1074.04
637.39	1067.60
637.73	1061.18
638.08	1055.32
638.42	1049.35
638.77	1042.96
639.11	1036.28
639.45	1030.09
639.80	1023.48
640.14	1017.07
640.49	1010.55
640.83	1004.22
641.17	997.89
641.52	991.55
641.86	985.20
642.20	979.34
642.55	973.00
642.89	966.51
643.23	959.95
643.58	954.17
643.92	948.03
644.26	941.88
644.61	935.96
644.95	929.86
645.29	923.24
645.64	916.53
645.98	910.25
646.32	904.55
646.66	898.42
647.01	892.60
647.35	886.95
647.69	881.12
648.04	875.53
648.38	869.83
648.72	863.75
649.06	857.73
649.41	851.83
649.75	845.80
650.09	839.90
650.43	834.09
650.78	827.96
651.12	821.99
651.46	816.25
651.80	810.41
652.14	805.05
652.49	799.71
652.83	794.49
653.17	788.66
653.51	782.89
653.85	777.55
654.20	771.97
654.54	765.96
654.88	760.34
655.22	754.55
655.56	748.82
655.90	743.41
656.25	738.07
656.59	732.72
656.93	727.68
657.27	722.52
657.61	717.11
657.95	712.01
658.29	706.94
658.64	701.78
658.98	696.54
659.32	691.09
659.66	685.95
660.00	680.75
660.34	675.84
660.68	670.98
661.02	665.91
661.36	661.17
661.70	656.67
662.05	652.27
662.39	647.91
662.73	643.49
663.07	639.16
663.41	634.72
663.75	630.28
664.09	625.74
664.43	621.40
664.77	617.37
665.11	613.13
665.45	609.11
665.79	605.00
666.13	600.89
666.47	596.80
666.81	592.64
667.15	588.52
667.49	584.74
667.83	580.97
668.17	577.05
668.51	573.02
668.85	569.12
669.19	565.38
669.53	561.56
669.87	557.68
670.21	553.95
670.55	550.37
670.89	546.97
671.23	543.55
671.57	540.06
671.91	536.46
672.25	533.03
672.58	529.43
672.92	526.11
673.26	523.00
673.60	519.91
673.94	516.82
674.28	513.93
674.62	510.93
674.96	507.80
675.30	504.89
675.64	501.95
675.97	499.16
676.31	496.23
676.65	493.30
676.99	490.65
677.33	487.87
677.67	485.09
678.01	482.06
678.34	479.04
678.68	476.24
679.02	473.49
679.36	470.74
679.70	468.11
680.04	465.30
680.37	462.37
680.71	459.57
681.05	457.01
681.39	454.35
681.73	451.72
682.06	449.21
682.40	446.68
682.74	444.19
683.08	441.68
683.42	439.08
683.75	436.61
684.09	434.11
684.43	431.62
684.77	429.10
685.10	426.82
685.44	424.58
685.78	422.22
686.12	419.99
686.45	417.67
686.79	415.38
687.13	413.22
687.46	411.13
687.80	408.96
688.14	406.78
688.48	404.70
688.81	402.48
689.15	400.34
689.49	398.20
689.82	396.15
690.16	394.08
690.50	392.19
690.83	390.24
691.17	388.22
691.51	386.30
691.84	384.48
692.18	382.53
692.52	380.53
692.85	378.62
693.19	376.74
693.52	374.96
693.86	373.18
694.20	371.39
694.53	369.58
694.87	367.79
695.21	365.98
695.54	364.12
695.88	362.44
696.21	360.75
696.55	359.10
696.88	357.39
697.22	355.73
697.56	354.12
697.89	352.47
698.23	350.89
698.56	349.31
698.90	347.71
699.23	346.03
699.57	344.49
699.90	342.96
700.24	341.45
700.58	339.92
700.91	338.38
701.25	336.96
701.58	335.58
701.92	334.24
702.25	332.87
702.59	331.53
702.92	330.15
703.26	328.84
703.59	327.56
703.93	326.37
704.26	325.13
704.60	323.81
704.93	322.57
705.26	321.33
705.60	320.17
705.93	319.07
706.27	318.08
706.60	317.02
706.94	315.95
707.27	314.80
707.61	313.73
707.94	312.73
708.27	311.63
708.61	310.57
708.94	309.53
709.28	308.58
709.61	307.65
709.94	306.72
710.28	305.70
710.61	304.75
710.95	303.70
711.28	302.77
711.61	301.84
711.95	300.93
712.28	300.00
712.61	299.01
712.95	298.05
713.28	297.14
713.61	296.26
713.95	295.39
714.28	294.56
714.61	293.75
714.95	292.91
715.28	292.07
715.61	291.22
715.95	290.39
716.28	289.52
716.61	288.68
716.95	287.88
717.28	287.16
717.61	286.40
717.94	285.68
718.28	284.92
718.61	284.20
718.94	283.50
719.27	282.84
719.61	282.21
719.94	281.58
720.27	280.91
720.60	280.29
720.94	279.69
721.27	279.12
721.60	278.54
721.93	277.95
722.27	277.44
722.60	276.85
722.93	276.29
723.26	275.76
723.59	275.22
723.93	274.69
724.26	274.17
724.59	273.62
724.92	273.07
725.25	272.58
725.59	272.08
725.92	271.56
726.25	271.07
726.58	270.57
726.91	270.07
727.24	269.57
727.57	269.09
727.91	268.56
728.24	268.09
728.57	267.59
728.90	267.15
729.23	266.64
729.56	266.24
729.89	265.75
730.22	265.28
730.55	264.81
730.89	264.37
731.22	263.90
731.55	263.46
731.88	263.04
732.21	262.63
732.54	262.18
732.87	261.78
733.20	261.36
733.53	260.97
733.86	260.59
734.19	260.19
734.52	259.83
734.85	259.53
735.18	259.09
735.51	258.72
735.84	258.32
736.17	257.98
736.50	257.58
736.83	257.36
737.16	257.02
737.49	256.67
737.82	256.31
738.15	255.96
738.48	255.61
738.81	255.29
739.14	254.93
739.47	254.64
739.80	254.31
740.13	254.02
740.46	253.68
740.79	253.34
741.12	253.03
741.45	252.70
741.78	252.33
742.11	252.05
742.44	251.72
742.77	251.43
743.10	251.08
743.43	250.78
743.75	250.38
744.08	250.24
744.41	249.98
744.74	249.72
745.07	249.45
745.40	249.23
745.73	248.97
746.06	248.65
746.39	248.36
746.71	248.10
747.04	247.81
747.37	247.53
747.70	247.27
748.03	247.02
748.36	246.79
748.68	246.57
749.01	246.30
749.34	246.08
749.67	245.83
750.00	245.63
750.33	245.46
750.65	245.27
750.98	244.91
751.31	244.64
751.64	244.44
751.97	244.25
752.29	244.02
752.62	243.77
752.95	243.58
753.28	243.35
753.60	243.12
753.93	242.99
754.26	242.84
754.59	242.65
754.91	242.46
755.24	242.27
755.57	242.06
755.90	241.88
756.22	241.69
756.55	241.51
756.88	241.35
757.20	241.13
757.53	240.94
757.86	240.76
758.19	240.66
758.51	240.48
758.84	240.32
759.17	240.15
759.49	240.00
759.82	239.92
760.15	239.84
760.47	239.74
760.80	239.53
761.13	239.43
761.45	239.28
761.78	239.16
762.11	239.02
762.43	238.83
762.76	238.71
763.08	238.61
763.41	238.50
763.74	238.33
764.06	238.22
764.39	238.10
764.71	238.00
765.04	237.87
765.37	237.76
765.69	237.64
766.02	237.54
766.34	237.42
766.67	237.25
767.00	237.12
767.32	237.06
767.65	237.00
767.97	236.86
768.30	236.78
768.62	236.65
768.95	236.55
769.27	236.48
769.60	236.39
769.92	236.25
770.25	236.12
770.57	235.98
770.90	235.88
771.22	235.76
771.55	235.67
771.87	235.56
772.20	235.44
772.52	235.44
772.85	235.43
773.17	235.35
773.50	235.25
773.82	235.13
774.15	234.98
774.47	234.84
774.80	234.72
775.12	234.62
775.45	234.51
775.77	234.42
776.09	234.36
776.42	234.26
776.74	234.22
777.07	234.17
777.39	234.11
777.72	233.99
778.04	233.94
778.36	233.87
778.69	233.77
779.01	233.71
779.33	233.51
779.66	233.35
779.98	233.28
780.31	233.23
780.63	233.18
780.95	233.11
781.28	233.04
781.60	232.98
781.92	232.89
782.25	232.86
782.57	232.79
782.89	232.70
783.22	232.60
783.54	232.51
783.86	232.41
784.19	232.37
784.51	232.34
784.83	232.25
785.16	232.16
785.48	232.11
785.80	232.03
786.12	232.00
786.45	231.93
786.77	231.86
787.09	231.83
787.42	231.74
787.74	231.67
788.06	231.62
788.38	231.55
788.71	231.50
789.03	231.47
789.35	231.41
789.67	231.36
789.99	231.33
790.32	231.27
790.64	231.25
790.96	231.25
791.28	231.17
791.61	231.09
791.93	231.07
792.25	231.03
792.57	231.08
792.89	231.01
793.21	230.97
793.54	230.93
793.86	230.85
794.18	230.81
794.50	230.76
794.82	230.73
795.14	230.73
795.47	230.69
795.79	230.64
796.11	230.58
796.43	230.59
796.75	230.62
797.07	230.58
797.39	230.53
797.71	230.44
798.04	230.43
798.36	230.45
798.68	230.39
799.00	230.37
799.32	230.29
799.64	230.31
799.96	230.33
800.28	230.33
800.60	230.34
800.92	230.37
801.24	230.37
801.56	230.35
801.89	230.32
802.21	230.30
802.53	230.27
802.85	230.29
803.17	230.29
803.49	230.17
803.81	230.17
804.13	230.17
804.45	230.18
804.77	230.18
805.09	230.16
805.41	230.15
805.73	230.11
806.05	230.08
806.37	230.03
806.69	229.97
807.01	229.92
807.33	229.88
807.65	229.81
807.97	229.84
808.28	229.81
808.60	229.77
808.92	229.76
809.24	229.82
809.56	229.81
809.88	229.74
810.20	229.77
810.52	229.74
810.84	229.70
811.16	229.66
811.48	229.61
811.80	229.64
812.12	229.61
812.43	229.61
812.75	229.60
813.07	229.58
813.39	229.56
813.71	229.55
814.03	229.54
814.35	229.53
814.67	229.44
814.98	229.38
815.30	229.35
815.62	229.29
815.94	229.20
816.26	229.17
816.58	229.15
816.89	229.14
817.21	229.08
817.53	229.05
817.85	229.01
818.17	229.00
818.48	228.89
818.80	228.88
819.12	228.82
819.44	228.77
819.76	228.72
820.07	228.71
820.39	228.68
820.71	228.65
821.03	228.62
821.34	228.57
821.66	228.62
821.98	228.61
822.30	228.58
822.61	228.62
822.93	228.55
823.25	228.51
823.57	228.46
823.88	228.47
824.20	228.50
824.52	228.51
824.83	228.46
825.15	228.47
825.47	228.47
825.79	228.46
826.10	228.44
826.42	228.43
826.74	228.41
827.05	228.41
827.37	228.39
827.69	228.38
828.00	228.38
828.32	228.33
828.64	228.33
828.95	228.38
829.27	228.32
829.58	228.29
829.90	228.30
830.22	228.32
830.53	228.27
830.85	228.23
831.17	228.18
831.48	228.22
831.80	228.20
832.11	228.18
832.43	228.16
832.75	228.14
833.06	228.24
833.38	228.22
833.69	228.20
834.01	228.19
834.32	228.20
834.64	228.22
834.96	228.19
835.27	228.19
835.59	228.14
835.90	228.15
836.22	228.16
836.53	228.14
836.85	228.12
837.16	228.25
837.48	228.25
837.79	228.29
838.11	228.23
838.42	228.22
838.74	228.22
839.05	228.23
839.37	228.22
839.68	228.12
840.00	228.13
840.31	228.12
840.63	228.12
840.94	228.11
841.26	228.10
841.57	228.09
841.88	228.10
842.20	228.10
842.51	228.06
842.83	228.08
843.14	228.16
843.46	228.19
843.77	228.10
844.08	228.10
844.40	228.08
844.71	228.12
845.03	228.12
845.34	228.09
845.65	228.12
845.97	228.16
846.28	228.16
846.60	228.17
846.91	228.17
847.22	228.15
847.54	228.16
847.85	228.15
848.16	228.19
848.48	228.16
848.79	228.19
849.10	228.21
849.42	228.22
849.73	228.13
850.04	228.11
850.36	228.09
850.67	228.10
850.98	228.08
851.30	228.08
851.61	228.09
851.92	228.11
852.23	228.11
852.55	228.09
852.86	228.11
853.17	228.09
853.49	228.08
853.80	228.10
854.11	228.10
854.42	228.10
854.74	228.08
855.05	228.07
855.36	228.04
855.67	228.03
855.99	228.03
856.30	228.12
856.61	228.13
856.92	228.10
857.23	228.09
857.55	228.07
857.86	228.04
858.17	228.05
858.48	228.02
858.79	227.96
859.11	227.94
859.42	227.90
859.73	227.90
860.04	227.90
860.35	227.86
860.66	227.81
860.98	227.81
861.29	227.79
861.60	227.77
861.91	227.74
862.22	227.71
862.53	227.65
862.84	227.53
863.16	227.52
863.47	227.52
863.78	227.48
864.09	227.48
864.40	227.49
864.71	227.47
865.02	227.46
865.33	227.47
865.64	227.45
865.95	227.44
866.27	227.49
866.58	227.48
866.89	227.48
867.20	227.47
867.51	227.43
867.82	227.40
868.13	227.44
868.44	227.41
868.75	227.43
869.06	227.46
869.37	227.47
869.68	227.46
869.99	227.47
870.30	227.48
870.61	227.48
870.92	227.47
871.23	227.46
871.54	227.49
871.85	227.51
872.16	227.53
872.47	227.52
872.78	227.41
873.09	227.38
873.40	227.38
873.71	227.39
874.02	227.43
874.33	227.45
874.64	227.43
874.95	227.46
875.26	227.43
875.56	227.43
875.87	227.41
876.18	227.43
876.49	227.52
876.80	227.52
877.11	227.49
877.42	227.48
877.73	227.49
878.04	227.48
878.35	227.49
878.66	227.47
878.96	227.49
879.27	227.53
879.58	227.54
879.89	227.56
880.20	227.55
880.51	227.54
880.82	227.52
881.12	227.54
881.43	227.55
881.74	227.54
882.05	227.53
882.36	227.54
882.67	227.51
882.97	227.39
883.28	227.41
883.59	227.42
883.90	227.44
884.21	227.44
884.51	227.43
884.82	227.42
885.13	227.46
885.44	227.44
885.74	227.45
886.05	227.47
886.36	227.46
886.67	227.48
886.98	227.52
887.28	227.59
887.59	227.59
887.90	227.58
888.20	227.61
888.51	227.63
888.82	227.62
889.13	227.62
889.43	227.71
889.74	227.69
890.05	227.65
890.35	227.62
890.66	227.61
890.97	227.60
891.28	227.59
891.58	227.57
891.89	227.58
892.20	227.57
892.50	227.54
892.81	227.53
893.12	227.52
893.42	227.48
893.73	227.44
894.04	227.41
894.34	227.40
894.65	227.38
894.95	227.36
895.26	227.37
895.57	227.43
895.87	227.35
896.18	227.37
896.48	227.40
896.79	227.41
897.10	227.43
897.40	227.43
897.71	227.43
898.01	227.41
898.32	227.43
898.63	227.42
898.93	227.42
899.24	227.43
899.54	227.41
899.85	227.42
900.15	227.45
900.46	227.45
900.76	227.45
901.07	227.46
901.38	227.46
901.68	227.44
901.99	227.38
902.29	227.39
902.60	227.40
902.90	227.38
903.21	227.37
903.51	227.39
903.82	227.39
904.12	227.38
904.43	227.38
904.73	227.39
905.03	227.40
905.34	227.51
905.64	227.49
905.95	227.45
906.25	227.43
906.56	227.42
906.86	227.43
907.17	227.40
907.47	227.41
907.77	227.40
908.08	227.39
908.38	227.41
908.69	227.40
908.99	227.39
909.30	227.43
909.60	227.42
909.90	227.41
910.21	227.43
910.51	227.42
910.81	227.44
911.12	227.41
911.42	227.41
911.73	227.31
912.03	227.34
912.33	227.39
912.64	227.38
912.94	227.37
913.24	227.34
913.55	227.37
913.85	227.36
914.15	227.41
914.46	227.43
914.76	227.43
915.06	227.44
915.37	227.43
915.67	227.40
915.97	227.39
916.27	227.39
916.58	227.37
916.88	227.40
917.18	227.38
917.49	227.50
917.79	227.48
918.09	227.48
918.39	227.51
918.70	227.49
919.00	227.52
919.30	227.57
919.60	227.57
919.91	227.58
920.21	227.61
920.51	227.57
920.81	227.56
921.12	227.58
921.42	227.56
921.72	227.58
922.02	227.60
922.32	227.66
922.63	227.67
922.93	227.72
923.23	227.70
923.53	227.70
923.83	227.61
924.13	227.64
924.44	227.65
924.74	227.65
925.04	227.69
925.34	227.70
925.64	227.64
925.94	227.64
926.24	227.67
926.55	227.63
926.85	227.63
927.15	227.63
927.45	227.63
927.75	227.65
928.05	227.65
928.35	227.64
928.65	227.61
928.95	227.57
929.26	227.50
929.56	227.52
929.86	227.53
930.16	227.52
930.46	227.51
930.76	227.49
931.06	227.41
931.36	227.35
931.66	227.36
931.96	227.38
932.26	227.38
932.56	227.31
932.86	227.34
933.16	227.32
933.46	227.32
933.76	227.33
934.06	227.36
934.36	227.39
934.66	227.39
934.96	227.38
935.26	227.40
935.56	227.42
935.86	227.40
936.16	227.35
936.46	227.35
936.76	227.29
937.06	227.29
937.36	227.34
937.66	227.38
937.96	227.37
938.26	227.32
938.56	227.33
938.86	227.32
939.16	227.35
939.46	227.38
939.76	227.37
940.06	227.34
940.35	227.33
940.65	227.26
940.95	227.25
941.25	227.22
941.55	227.20
941.85	227.17
942.15	227.16
942.45	227.20
942.75	227.21
943.04	227.23
943.34	227.24
943.64	227.22
943.94	227.20
944.24	227.18
944.54	227.20
944.84	227.18
945.13	227.16
945.43	227.13
945.73	227.08
946.03	227.06
946.33	227.05
946.62	227.03
946.92	227.05
947.22	227.05
947.52	227.04
947.82	227.08
948.11	227.09
948.41	227.07
948.71	227.05
949.01	227.02
949.31	227.01
949.60	227.01
949.90	227.00
950.20	226.99
950.50	226.97
950.79	226.96
951.09	226.98
951.39	226.99
951.69	226.96
951.98	226.99
952.28	227.00
952.58	226.99
952.87	226.95
953.17	226.93
953.47	226.90
953.76	226.92
954.06	226.89
954.36	226.88
954.66	226.90
954.95	226.90
955.25	226.93
955.55	226.93
955.84	226.91
956.14	226.90
956.44	226.91
956.73	226.91
957.03	226.91
957.32	226.89
957.62	226.90
957.92	226.95
958.21	226.96
958.51	227.08
958.81	227.07
959.10	227.10
959.40	227.16
959.69	227.21
959.99	227.21
960.29	227.19
960.58	227.18
960.88	227.20
961.17	227.21
961.47	227.22
961.76	227.28
962.06	227.32
962.36	227.31
962.65	227.30
962.95	227.34
963.24	227.36
963.54	227.38
963.83	227.38
964.13	227.34
964.42	227.33
964.72	227.22
965.01	227.27
965.31	227.28
965.60	227.24
965.90	227.32
966.19	227.33
966.49	227.37
966.78	227.38
967.08	227.39
967.37	227.41
967.67	227.39
967.96	227.38
968.26	227.36
968.55	227.40
968.85	227.40
969.14	227.38
969.43	227.35
969.73	227.35
970.02	227.37
970.32	227.36
970.61	227.34
970.91	227.34
971.20	227.29
971.49	227.27
971.79	227.28
972.08	227.18
972.38	227.19
972.67	227.15
972.96	227.18
973.26	227.12
973.55	227.13
973.85	227.13
974.14	227.12
974.43	227.12
974.73	227.11
975.02	227.11
975.31	227.14
975.61	227.15
975.90	227.16
976.19	227.14
976.49	227.15
976.78	227.18
977.07	227.17
977.37	227.20
977.66	227.22
977.95	227.20
978.24	227.21
978.54	227.22
978.83	227.22
979.12	227.21
979.42	227.27
979.71	227.27
980.00	227.24
980.29	227.22
980.59	227.21
980.88	227.24
981.17	227.22
981.46	227.21
981.76	227.22
982.05	227.21
982.34	227.21
982.63	227.21
982.93	227.18
983.22	227.21
983.51	227.19
983.80	227.20
984.09	227.22
984.39	227.22
984.68	227.20
984.97	227.19
985.26	227.18
985.55	227.16
985.85	227.13
986.14	227.15
986.43	227.17
986.72	227.17
987.01	227.10
987.30	227.10
987.59	227.07
987.89	227.05
988.18	227.05
988.47	227.09
988.76	227.07
989.05	227.06
989.34	227.06
989.63	227.11
989.92	227.09
990.22	227.07
990.51	227.07
990.80	227.08
991.09	227.13
991.38	227.14
991.67	227.12
991.96	227.10
992.25	227.12
992.54	227.12
992.83	227.10
993.12	227.11
993.41	227.08
993.70	227.11
993.99	227.13
994.28	227.13
994.58	227.11
994.87	227.12
995.16	227.13
995.45	227.10
995.74	227.07
996.03	227.06
996.32	227.09
996.61	227.10
996.90	227.08
997.19	227.04
997.48	227.04
997.77	227.03
998.06	227.05
998.34	227.04
998.63	227.01
998.92	227.02
999.21	227.09
999.50	227.09
999.79	227.09
1000.08	227.09
1000.37	227.08
1000.66	227.09
1000.95	227.09
1001.24	227.10
1001.53	227.11
1001.82	227.09
1002.11	227.08
1002.40	227.07
1002.68	227.09
1002.97	227.16
1003.26	227.14
1003.55	227.09
1003.84	227.10
1004.13	227.14
1004.42	227.14
1004.71	227.16
1004.99	227.15
1005.28	227.15
1005.57	227.14
1005.86	227.09
1006.15	227.08
1006.44	227.05
1006.72	227.05
1007.01	227.04
1007.30	227.04
1007.59	227.04
1007.88	227.06
1008.17	227.10
1008.45	227.07
1008.74	226.99
1009.03	226.97
1009.32	226.97
1009.60	226.99
1009.89	226.98
1010.18	226.95
1010.47	226.94
1010.76	226.92
1011.04	226.93
1011.33	226.93
1011.62	226.97
1011.91	227.04
1012.19	227.05
1012.48	227.07
1012.77	227.08
1013.05	227.14
1013.34	227.13
1013.63	227.14
1013.92	227.13
1014.20	227.09
1014.49	227.09
1014.78	227.11
1015.06	227.07
1015.35	227.06
1015.64	227.08
1015.92	227.10
1016.21	227.08
1016.50	227.07
1016.78	227.09
1017.07	227.06
1017.36	227.04
1017.64	227.03
1017.93	227.01
1018.22	227.01
1018.50	226.99
1018.79	226.96
1019.08	226.91
1019.36	226.90
1019.65	226.88
1019.93	226.90
1020.22	226.93
1020.51	226.96
1020.79	226.97
1021.08	227.09
1021.36	226.51
1021.65	226.65
1021.94	227.07
1022.22	226.84
1022.51	226.76
1022.79	227.27
1023.08	227.06
1023.36	227.68
1023.65	227.00
>>>>>End Processed Spectral Data<<<<<
