SpectraSuite Data File
++++++++++++++++++++++++++++++++++++
Date: Fri Feb 01 15:10:44 EST 2013
User: group
Dark Spectrum Present: No
Reference Spectrum Present: No
Number of Sampled Component Spectra: 1
Spectrometers: USB2E7196
Integration Time (usec): 35000 (USB2E7196)
Spectra Averaged: 100 (USB2E7196)
Boxcar Smoothing: 10 (USB2E7196)
Correct for Electrical Dark: No (USB2E7196)
Strobe/Lamp Enabled: No (USB2E7196)
Correct for Detector Non-linearity: No (USB2E7196)
Correct for Stray Light: No (USB2E7196)
Number of Pixels in Processed Spectrum: 2048
>>>>>Begin Processed Spectral Data<<<<<
339.09	0.00
339.48	215.49
339.86	216.67
340.24	217.74
340.63	219.74
341.01	222.82
341.39	222.36
341.78	223.48
342.16	225.37
342.54	225.14
342.93	213.69
343.31	224.48
343.69	224.99
344.07	225.46
344.46	225.91
344.84	226.29
345.22	226.51
345.60	226.73
345.99	226.92
346.37	227.01
346.75	227.10
347.13	227.14
347.52	227.18
347.90	227.24
348.28	227.31
348.66	227.31
349.05	227.28
349.43	227.29
349.81	227.30
350.19	227.32
350.57	227.37
350.96	227.45
351.34	227.53
351.72	227.63
352.10	227.70
352.48	227.76
352.87	227.82
353.25	227.89
353.63	227.96
354.01	228.01
354.39	228.09
354.77	228.17
355.15	228.27
355.54	228.33
355.92	228.35
356.30	228.38
356.68	228.51
357.06	228.54
357.44	228.60
357.82	228.68
358.20	228.78
358.58	228.82
358.97	228.87
359.35	228.92
359.73	228.98
360.11	229.02
360.49	229.06
360.87	229.05
361.25	229.05
361.63	229.12
362.01	229.16
362.39	229.17
362.77	229.17
363.15	229.18
363.53	229.17
363.91	229.22
364.29	229.23
364.67	229.14
365.05	229.18
365.43	229.15
365.81	229.14
366.19	229.16
366.57	229.20
366.95	229.21
367.33	229.18
367.71	229.19
368.09	229.22
368.47	229.19
368.85	229.19
369.23	229.17
369.61	229.09
369.99	229.07
370.37	229.06
370.75	229.07
371.13	229.00
371.51	228.97
371.89	228.94
372.27	228.88
372.65	228.85
373.03	228.79
373.41	228.73
373.78	228.66
374.16	228.57
374.54	228.47
374.92	228.40
375.30	228.30
375.68	228.20
376.06	228.09
376.44	228.02
376.82	227.99
377.19	227.92
377.57	227.87
377.95	227.80
378.33	227.70
378.71	227.58
379.09	227.54
379.47	227.49
379.84	227.40
380.22	227.35
380.60	227.28
380.98	227.22
381.36	227.16
381.73	227.10
382.11	227.05
382.49	226.99
382.87	226.90
383.25	226.88
383.62	226.95
384.00	226.93
384.38	226.87
384.76	226.84
385.13	226.86
385.51	226.82
385.89	226.73
386.27	226.72
386.64	226.72
387.02	226.68
387.40	226.65
387.78	226.63
388.15	226.61
388.53	226.57
388.91	226.57
389.29	226.58
389.66	226.59
390.04	226.56
390.42	226.60
390.79	226.58
391.17	226.56
391.55	226.42
391.92	226.39
392.30	226.43
392.68	226.40
393.05	226.37
393.43	226.36
393.81	226.41
394.18	226.40
394.56	226.42
394.94	226.46
395.31	226.47
395.69	226.51
396.06	226.55
396.44	226.58
396.82	226.62
397.19	226.69
397.57	226.72
397.95	226.82
398.32	226.83
398.70	226.91
399.07	227.00
399.45	227.07
399.82	227.15
400.20	227.23
400.58	227.33
400.95	227.41
401.33	227.53
401.70	227.69
402.08	227.83
402.45	227.96
402.83	228.08
403.20	228.22
403.58	228.33
403.95	228.49
404.33	228.67
404.71	228.78
405.08	228.99
405.46	229.16
405.83	229.31
406.21	229.50
406.58	229.70
406.96	229.89
407.33	230.06
407.70	230.30
408.08	230.55
408.45	230.75
408.83	230.99
409.20	231.23
409.58	231.45
409.95	231.71
410.33	231.95
410.70	232.22
411.08	232.50
411.45	232.80
411.82	233.08
412.20	233.42
412.57	233.84
412.95	234.11
413.32	234.53
413.69	234.92
414.07	235.35
414.44	235.82
414.82	236.30
415.19	236.85
415.56	237.39
415.94	237.96
416.31	238.60
416.68	239.22
417.06	239.91
417.43	240.53
417.81	241.31
418.18	242.08
418.55	242.91
418.93	243.76
419.30	244.68
419.67	245.65
420.04	246.61
420.42	247.60
420.79	248.81
421.16	249.93
421.54	251.13
421.91	252.34
422.28	253.56
422.66	254.90
423.03	256.19
423.40	257.53
423.77	258.92
424.15	260.36
424.52	261.84
424.89	263.43
425.26	264.99
425.64	266.41
426.01	268.02
426.38	269.70
426.75	271.37
427.13	273.06
427.50	274.81
427.87	276.69
428.24	278.54
428.61	280.28
428.99	282.25
429.36	284.31
429.73	286.41
430.10	288.41
430.47	290.48
430.85	292.62
431.22	294.86
431.59	297.21
431.96	299.44
432.33	301.93
432.70	304.38
433.08	307.24
433.45	309.87
433.82	312.46
434.19	315.35
434.56	318.19
434.93	320.88
435.30	323.53
435.68	326.42
436.05	329.27
436.42	332.04
436.79	334.56
437.16	337.31
437.53	340.12
437.90	342.93
438.27	345.62
438.64	348.48
439.01	351.09
439.38	353.35
439.75	355.51
440.13	358.03
440.50	360.36
440.87	362.18
441.24	364.15
441.61	366.38
441.98	367.87
442.35	369.67
442.72	371.52
443.09	373.37
443.46	374.37
443.83	374.94
444.20	375.45
444.57	376.29
444.94	376.49
445.31	376.85
445.68	377.24
446.05	377.36
446.42	376.99
446.79	376.55
447.16	376.10
447.53	375.79
447.90	374.63
448.27	373.46
448.64	371.86
449.01	370.72
449.37	368.71
449.74	366.81
450.11	364.57
450.48	362.11
450.85	359.58
451.22	357.44
451.59	355.36
451.96	353.43
452.33	350.79
452.70	348.48
453.07	345.59
453.43	342.71
453.80	339.94
454.17	337.25
454.54	334.71
454.91	332.01
455.28	329.34
455.65	326.85
456.02	324.41
456.38	322.24
456.75	319.57
457.12	317.31
457.49	315.07
457.86	312.91
458.23	311.04
458.59	308.96
458.96	306.87
459.33	305.09
459.70	303.20
460.07	301.75
460.43	300.00
460.80	298.41
461.17	296.91
461.54	295.39
461.91	293.94
462.27	292.48
462.64	291.21
463.01	289.83
463.38	288.50
463.74	287.08
464.11	285.92
464.48	284.90
464.85	283.81
465.21	282.96
465.58	282.01
465.95	280.87
466.32	279.91
466.68	278.98
467.05	278.08
467.42	277.19
467.78	276.22
468.15	275.36
468.52	274.68
468.88	273.85
469.25	273.04
469.62	272.40
469.98	271.71
470.35	271.05
470.72	270.46
471.08	269.79
471.45	269.25
471.82	268.72
472.18	268.07
472.55	267.60
472.92	267.03
473.28	266.55
473.65	266.12
474.02	265.70
474.38	265.34
474.75	264.97
475.11	264.62
475.48	264.36
475.85	264.14
476.21	263.87
476.58	263.65
476.94	263.50
477.31	263.34
477.67	263.17
478.04	263.05
478.41	262.95
478.77	262.99
479.14	262.94
479.50	262.95
479.87	263.04
480.23	263.09
480.60	263.15
480.96	263.22
481.33	263.40
481.69	263.57
482.06	263.75
482.42	263.95
482.79	264.18
483.15	264.46
483.52	264.81
483.88	265.16
484.25	265.55
484.61	265.98
484.98	266.40
485.34	266.92
485.71	267.52
486.07	268.17
486.44	268.74
486.80	269.41
487.17	270.11
487.53	270.89
487.90	271.75
488.26	272.69
488.62	273.68
488.99	274.66
489.35	275.72
489.72	276.86
490.08	278.06
490.44	279.31
490.81	280.66
491.17	282.00
491.54	283.50
491.90	285.04
492.26	286.70
492.63	288.47
492.99	290.24
493.36	292.15
493.72	294.16
494.08	296.24
494.45	298.49
494.81	300.83
495.17	303.26
495.54	305.82
495.90	308.48
496.26	311.25
496.63	314.22
496.99	317.31
497.35	320.57
497.72	323.94
498.08	327.42
498.44	331.08
498.80	335.01
499.17	339.03
499.53	343.20
499.89	347.60
500.26	352.05
500.62	356.78
500.98	361.72
501.34	366.79
501.71	372.10
502.07	377.51
502.43	383.15
502.79	389.01
503.16	395.06
503.52	401.36
503.88	407.77
504.24	414.39
504.60	421.26
504.97	428.34
505.33	435.66
505.69	443.40
506.05	451.17
506.41	459.07
506.78	467.25
507.14	475.69
507.50	484.41
507.86	493.42
508.22	502.54
508.59	511.75
508.95	521.33
509.31	531.17
509.67	541.34
510.03	551.59
510.39	562.13
510.75	572.97
511.12	583.89
511.48	595.20
511.84	606.67
512.20	618.15
512.56	630.18
512.92	642.34
513.28	654.66
513.64	667.09
514.00	679.78
514.37	692.71
514.73	705.73
515.09	718.68
515.45	731.99
515.81	745.64
516.17	759.52
516.53	773.61
516.89	787.80
517.25	801.99
517.61	816.44
517.97	830.86
518.33	845.24
518.69	860.00
519.05	875.06
519.41	890.28
519.77	905.94
520.13	921.40
520.49	936.82
520.85	952.23
521.21	968.08
521.57	984.34
521.93	1000.14
522.29	1016.63
522.65	1033.03
523.01	1049.31
523.37	1065.31
523.73	1081.66
524.09	1097.81
524.45	1114.09
524.81	1130.77
525.17	1147.73
525.53	1164.78
525.89	1181.75
526.25	1198.73
526.61	1215.17
526.97	1231.88
527.33	1248.36
527.68	1265.04
528.04	1281.72
528.40	1298.47
528.76	1315.56
529.12	1332.20
529.48	1349.17
529.84	1365.24
530.20	1381.91
530.56	1399.02
530.91	1416.50
531.27	1433.28
531.63	1449.83
531.99	1466.54
532.35	1482.58
532.71	1498.41
533.07	1514.59
533.42	1530.51
533.78	1546.54
534.14	1562.83
534.50	1578.25
534.86	1594.21
535.21	1609.50
535.57	1625.35
535.93	1640.94
536.29	1655.84
536.65	1671.07
537.00	1686.04
537.36	1701.45
537.72	1716.04
538.08	1730.47
538.44	1744.39
538.79	1758.48
539.15	1772.42
539.51	1786.23
539.87	1800.60
540.22	1814.42
540.58	1828.33
540.94	1841.92
541.29	1855.01
541.65	1867.83
542.01	1881.11
542.37	1893.54
542.72	1906.02
543.08	1917.89
543.44	1930.45
543.79	1941.67
544.15	1952.80
544.51	1964.22
544.87	1975.22
545.22	1986.10
545.58	1996.33
545.94	2006.09
546.29	2015.88
546.65	2025.57
547.01	2034.73
547.36	2043.68
547.72	2052.31
548.07	2060.19
548.43	2068.28
548.79	2076.41
549.14	2083.93
549.50	2091.51
549.86	2099.22
550.21	2106.60
550.57	2113.86
550.92	2120.22
551.28	2127.33
551.64	2134.42
551.99	2141.10
552.35	2147.23
552.70	2153.39
553.06	2159.33
553.41	2165.84
553.77	2171.82
554.13	2177.86
554.48	2184.16
554.84	2189.37
555.19	2194.60
555.55	2199.88
555.90	2204.20
556.26	2208.86
556.61	2213.59
556.97	2217.69
557.32	2221.66
557.68	2225.62
558.03	2229.84
558.39	2233.58
558.74	2238.13
559.10	2241.70
559.45	2245.41
559.81	2249.80
560.16	2253.57
560.52	2256.90
560.87	2260.25
561.23	2262.92
561.58	2265.89
561.94	2268.44
562.29	2270.87
562.64	2273.51
563.00	2275.99
563.35	2279.68
563.71	2282.82
564.06	2286.07
564.42	2288.92
564.77	2291.51
565.12	2293.70
565.48	2295.44
565.83	2297.31
566.19	2298.55
566.54	2299.68
566.89	2300.63
567.25	2301.08
567.60	2302.34
567.96	2303.90
568.31	2304.67
568.66	2305.61
569.02	2306.21
569.37	2306.35
569.72	2307.05
570.08	2307.01
570.43	2306.91
570.78	2306.20
571.14	2304.56
571.49	2303.12
571.84	2302.73
572.20	2301.33
572.55	2300.41
572.90	2298.91
573.26	2297.36
573.61	2295.61
573.96	2293.55
574.31	2290.36
574.67	2287.18
575.02	2283.46
575.37	2279.87
575.72	2275.84
576.08	2272.57
576.43	2269.00
576.78	2265.31
577.13	2262.09
577.49	2259.05
577.84	2255.46
578.19	2251.62
578.54	2247.74
578.90	2243.29
579.25	2237.63
579.60	2232.69
579.95	2227.40
580.30	2222.16
580.66	2217.01
581.01	2212.01
581.36	2207.01
581.71	2202.82
582.06	2198.26
582.42	2193.70
582.77	2188.51
583.12	2183.90
583.47	2178.75
583.82	2173.89
584.17	2168.45
584.53	2162.86
584.88	2157.03
585.23	2151.10
585.58	2145.42
585.93	2140.06
586.28	2135.17
586.63	2129.95
586.98	2124.70
587.34	2120.10
587.69	2115.25
588.04	2109.83
588.39	2103.94
588.74	2097.37
589.09	2091.06
589.44	2084.11
589.79	2078.13
590.14	2072.40
590.49	2065.81
590.84	2059.46
591.19	2053.13
591.54	2046.64
591.89	2039.00
592.25	2032.15
592.60	2024.88
592.95	2017.17
593.30	2009.66
593.65	2001.86
594.00	1994.77
594.35	1987.57
594.70	1979.37
595.05	1971.90
595.40	1964.51
595.75	1957.01
596.10	1950.72
596.45	1943.89
596.80	1937.75
597.15	1930.81
597.50	1923.52
597.85	1916.95
598.19	1910.40
598.54	1903.14
598.89	1896.46
599.24	1890.60
599.59	1883.78
599.94	1877.53
600.29	1871.30
600.64	1864.81
600.99	1857.40
601.34	1850.48
601.69	1843.35
602.04	1836.27
602.39	1828.96
602.74	1822.00
603.08	1815.29
603.43	1808.41
603.78	1801.16
604.13	1793.93
604.48	1786.55
604.83	1779.81
605.18	1772.67
605.53	1764.58
605.87	1756.59
606.22	1749.34
606.57	1741.43
606.92	1734.13
607.27	1726.92
607.62	1719.74
607.96	1712.29
608.31	1705.64
608.66	1698.00
609.01	1690.49
609.36	1682.90
609.70	1674.91
610.05	1666.92
610.40	1659.04
610.75	1650.74
611.10	1643.03
611.44	1634.74
611.79	1626.76
612.14	1618.05
612.49	1609.11
612.83	1600.64
613.18	1592.53
613.53	1584.40
613.88	1575.90
614.22	1567.60
614.57	1559.10
614.92	1551.29
615.27	1543.64
615.61	1535.44
615.96	1527.45
616.31	1519.85
616.65	1512.58
617.00	1505.06
617.35	1497.43
617.70	1489.13
618.04	1480.69
618.39	1472.42
618.74	1464.72
619.08	1456.50
619.43	1448.86
619.78	1441.85
620.12	1434.70
620.47	1427.22
620.82	1419.09
621.16	1411.71
621.51	1404.18
621.85	1396.57
622.20	1388.02
622.55	1379.79
622.89	1371.94
623.24	1364.37
623.59	1356.99
623.93	1349.41
624.28	1342.19
624.62	1334.72
624.97	1327.61
625.32	1320.98
625.66	1313.98
626.01	1306.80
626.35	1299.37
626.70	1291.69
627.04	1284.00
627.39	1276.31
627.73	1268.92
628.08	1261.97
628.43	1254.60
628.77	1247.10
629.12	1239.57
629.46	1232.42
629.81	1225.05
630.15	1217.74
630.50	1210.35
630.84	1202.17
631.19	1194.34
631.53	1186.86
631.88	1179.34
632.22	1171.76
632.57	1164.42
632.91	1157.01
633.26	1149.63
633.60	1142.32
633.95	1135.32
634.29	1128.33
634.64	1121.72
634.98	1114.41
635.32	1107.35
635.67	1100.92
636.01	1094.42
636.36	1087.63
636.70	1081.13
637.05	1074.59
637.39	1068.15
637.73	1061.67
638.08	1055.89
638.42	1049.95
638.77	1043.50
639.11	1036.80
639.45	1030.46
639.80	1023.74
640.14	1017.23
640.49	1010.79
640.83	1004.50
641.17	998.19
641.52	991.91
641.86	985.56
642.20	979.75
642.55	973.47
642.89	966.82
643.23	960.26
643.58	954.47
643.92	948.23
644.26	942.15
644.61	936.19
644.95	930.09
645.29	923.37
645.64	916.59
645.98	910.28
646.32	904.52
646.66	898.53
647.01	892.83
647.35	887.11
647.69	881.24
648.04	875.76
648.38	870.07
648.72	864.05
649.06	857.90
649.41	852.01
649.75	845.97
650.09	840.07
650.43	834.28
650.78	828.11
651.12	822.15
651.46	816.43
651.80	810.68
652.14	805.37
652.49	800.05
652.83	794.86
653.17	789.13
653.51	783.39
653.85	777.93
654.20	772.21
654.54	766.33
654.88	760.64
655.22	754.73
655.56	748.95
655.90	743.44
656.25	738.25
656.59	732.89
656.93	727.88
657.27	722.71
657.61	717.34
657.95	712.27
658.29	707.27
658.64	702.04
658.98	696.78
659.32	691.28
659.66	686.09
660.00	680.86
660.34	675.98
660.68	671.15
661.02	666.18
661.36	661.54
661.70	657.01
662.05	652.63
662.39	648.28
662.73	643.85
663.07	639.58
663.41	635.15
663.75	630.64
664.09	626.06
664.43	621.77
664.77	617.70
665.11	613.39
665.45	609.26
665.79	605.25
666.13	601.10
666.47	597.02
666.81	592.89
667.15	588.75
667.49	584.85
667.83	581.05
668.17	577.10
668.51	573.01
668.85	569.03
669.19	565.23
669.53	561.40
669.87	557.51
670.21	553.76
670.55	550.15
670.89	546.74
671.23	543.38
671.57	539.91
671.91	536.31
672.25	532.94
672.58	529.47
672.92	526.09
673.26	522.99
673.60	519.93
673.94	516.83
674.28	513.97
674.62	511.07
674.96	507.95
675.30	505.09
675.64	502.21
675.97	499.45
676.31	496.56
676.65	493.66
676.99	491.07
677.33	488.23
677.67	485.40
678.01	482.42
678.34	479.41
678.68	476.49
679.02	473.71
679.36	470.92
679.70	468.20
680.04	465.42
680.37	462.50
680.71	459.71
681.05	457.12
681.39	454.42
681.73	451.75
682.06	449.24
682.40	446.68
682.74	444.23
683.08	441.72
683.42	439.16
683.75	436.69
684.09	434.11
684.43	431.63
684.77	429.18
685.10	426.80
685.44	424.47
685.78	422.20
686.12	419.96
686.45	417.73
686.79	415.42
687.13	413.24
687.46	411.14
687.80	408.98
688.14	406.78
688.48	404.72
688.81	402.45
689.15	400.29
689.49	398.16
689.82	396.04
690.16	393.95
690.50	392.00
690.83	390.05
691.17	388.10
691.51	386.23
691.84	384.39
692.18	382.48
692.52	380.52
692.85	378.61
693.19	376.73
693.52	374.89
693.86	373.12
694.20	371.32
694.53	369.54
694.87	367.69
695.21	365.86
695.54	364.06
695.88	362.38
696.21	360.69
696.55	359.01
696.88	357.31
697.22	355.66
697.56	354.06
697.89	352.42
698.23	350.79
698.56	349.18
698.90	347.60
699.23	345.99
699.57	344.44
699.90	342.92
700.24	341.42
700.58	339.89
700.91	338.41
701.25	336.97
701.58	335.61
701.92	334.26
702.25	332.95
702.59	331.59
702.92	330.26
703.26	328.97
703.59	327.72
703.93	326.58
704.26	325.34
704.60	324.08
704.93	322.80
705.26	321.61
705.60	320.49
705.93	319.32
706.27	318.33
706.60	317.32
706.94	316.23
707.27	315.11
707.61	314.04
707.94	312.99
708.27	311.90
708.61	310.81
708.94	309.82
709.28	308.83
709.61	307.88
709.94	306.96
710.28	305.92
710.61	304.93
710.95	303.88
711.28	303.00
711.61	302.04
711.95	301.15
712.28	300.15
712.61	299.19
712.95	298.26
713.28	297.35
713.61	296.45
713.95	295.57
714.28	294.75
714.61	293.89
714.95	293.08
715.28	292.24
715.61	291.41
715.95	290.61
716.28	289.75
716.61	288.91
716.95	288.09
717.28	287.36
717.61	286.62
717.94	285.85
718.28	285.02
718.61	284.30
718.94	283.61
719.27	282.98
719.61	282.29
719.94	281.65
720.27	280.95
720.60	280.24
720.94	279.63
721.27	279.05
721.60	278.51
721.93	277.92
722.27	277.35
722.60	276.78
722.93	276.20
723.26	275.67
723.59	275.11
723.93	274.53
724.26	273.99
724.59	273.40
724.92	272.89
725.25	272.37
725.59	271.83
725.92	271.32
726.25	270.83
726.58	270.34
726.91	269.86
727.24	269.38
727.57	268.93
727.91	268.40
728.24	267.90
728.57	267.42
728.90	266.96
729.23	266.48
729.56	266.06
729.89	265.58
730.22	265.07
730.55	264.62
730.89	264.21
731.22	263.77
731.55	263.36
731.88	262.89
732.21	262.49
732.54	262.05
732.87	261.62
733.20	261.20
733.53	260.81
733.86	260.41
734.19	260.01
734.52	259.65
734.85	259.35
735.18	258.92
735.51	258.55
735.84	258.17
736.17	257.82
736.50	257.40
736.83	257.17
737.16	256.86
737.49	256.50
737.82	256.13
738.15	255.78
738.48	255.45
738.81	255.18
739.14	254.87
739.47	254.57
739.80	254.24
740.13	253.95
740.46	253.62
740.79	253.29
741.12	252.99
741.45	252.67
741.78	252.29
742.11	252.05
742.44	251.68
742.77	251.38
743.10	251.08
743.43	250.79
743.75	250.39
744.08	250.24
744.41	249.98
744.74	249.73
745.07	249.45
745.40	249.21
745.73	248.96
746.06	248.70
746.39	248.48
746.71	248.21
747.04	247.95
747.37	247.68
747.70	247.42
748.03	247.16
748.36	246.94
748.68	246.71
749.01	246.47
749.34	246.26
749.67	246.02
750.00	245.81
750.33	245.66
750.65	245.41
750.98	245.09
751.31	244.90
751.64	244.70
751.97	244.58
752.29	244.39
752.62	244.16
752.95	243.93
753.28	243.70
753.60	243.51
753.93	243.32
754.26	243.15
754.59	242.97
754.91	242.78
755.24	242.58
755.57	242.42
755.90	242.21
756.22	242.07
756.55	241.86
756.88	241.68
757.20	241.46
757.53	241.32
757.86	241.13
758.19	240.95
758.51	240.75
758.84	240.48
759.17	240.28
759.49	240.10
759.82	240.02
760.15	239.91
760.47	239.77
760.80	239.60
761.13	239.44
761.45	239.28
761.78	239.13
762.11	238.97
762.43	238.82
762.76	238.73
763.08	238.56
763.41	238.44
763.74	238.33
764.06	238.18
764.39	238.00
764.71	237.85
765.04	237.71
765.37	237.59
765.69	237.45
766.02	237.36
766.34	237.25
766.67	237.05
767.00	236.89
767.32	236.78
767.65	236.72
767.97	236.62
768.30	236.50
768.62	236.37
768.95	236.28
769.27	236.16
769.60	236.03
769.92	235.93
770.25	235.83
770.57	235.65
770.90	235.53
771.22	235.45
771.55	235.36
771.87	235.24
772.20	235.13
772.52	235.14
772.85	235.14
773.17	235.03
773.50	234.92
773.82	234.84
774.15	234.76
774.47	234.57
774.80	234.48
775.12	234.38
775.45	234.33
775.77	234.24
776.09	234.16
776.42	234.04
776.74	233.99
777.07	233.92
777.39	233.88
777.72	233.80
778.04	233.75
778.36	233.67
778.69	233.63
779.01	233.59
779.33	233.44
779.66	233.26
779.98	233.18
780.31	233.11
780.63	233.08
780.95	233.02
781.28	232.97
781.60	232.92
781.92	232.88
782.25	232.79
782.57	232.71
782.89	232.63
783.22	232.61
783.54	232.54
783.86	232.47
784.19	232.43
784.51	232.42
784.83	232.36
785.16	232.29
785.48	232.24
785.80	232.20
786.12	232.14
786.45	232.11
786.77	232.07
787.09	232.02
787.42	231.96
787.74	231.88
788.06	231.86
788.38	231.81
788.71	231.75
789.03	231.73
789.35	231.72
789.67	231.69
789.99	231.64
790.32	231.59
790.64	231.56
790.96	231.59
791.28	231.55
791.61	231.51
791.93	231.52
792.25	231.48
792.57	231.49
792.89	231.45
793.21	231.39
793.54	231.34
793.86	231.28
794.18	231.24
794.50	231.18
794.82	231.12
795.14	231.09
795.47	231.07
795.79	231.00
796.11	230.93
796.43	230.93
796.75	230.89
797.07	230.87
797.39	230.85
797.71	230.72
798.04	230.65
798.36	230.58
798.68	230.49
799.00	230.46
799.32	230.36
799.64	230.35
799.96	230.34
800.28	230.35
800.60	230.30
800.92	230.24
801.24	230.21
801.56	230.17
801.89	230.13
802.21	230.08
802.53	230.03
802.85	230.00
803.17	229.96
803.49	229.88
803.81	229.82
804.13	229.77
804.45	229.73
804.77	229.73
805.09	229.70
805.41	229.70
805.73	229.65
806.05	229.62
806.37	229.55
806.69	229.52
807.01	229.48
807.33	229.45
807.65	229.41
807.97	229.44
808.28	229.45
808.60	229.44
808.92	229.42
809.24	229.46
809.56	229.44
809.88	229.40
810.20	229.40
810.52	229.39
810.84	229.36
811.16	229.34
811.48	229.29
811.80	229.31
812.12	229.27
812.43	229.24
812.75	229.21
813.07	229.21
813.39	229.20
813.71	229.16
814.03	229.14
814.35	229.12
814.67	229.04
814.98	228.98
815.30	228.94
815.62	228.92
815.94	228.83
816.26	228.88
816.58	228.86
816.89	228.87
817.21	228.85
817.53	228.86
817.85	228.82
818.17	228.81
818.48	228.79
818.80	228.80
819.12	228.82
819.44	228.81
819.76	228.76
820.07	228.74
820.39	228.72
820.71	228.73
821.03	228.72
821.34	228.70
821.66	228.73
821.98	228.72
822.30	228.71
822.61	228.76
822.93	228.69
823.25	228.69
823.57	228.64
823.88	228.66
824.20	228.63
824.52	228.69
824.83	228.69
825.15	228.66
825.47	228.66
825.79	228.61
826.10	228.60
826.42	228.57
826.74	228.56
827.05	228.59
827.37	228.58
827.69	228.55
828.00	228.55
828.32	228.55
828.64	228.56
828.95	228.59
829.27	228.60
829.58	228.58
829.90	228.57
830.22	228.63
830.53	228.58
830.85	228.53
831.17	228.48
831.48	228.49
831.80	228.50
832.11	228.45
832.43	228.45
832.75	228.44
833.06	228.52
833.38	228.49
833.69	228.47
834.01	228.46
834.32	228.45
834.64	228.45
834.96	228.46
835.27	228.42
835.59	228.37
835.90	228.32
836.22	228.31
836.53	228.29
836.85	228.25
837.16	228.31
837.48	228.31
837.79	228.33
838.11	228.29
838.42	228.24
838.74	228.27
839.05	228.27
839.37	228.25
839.68	228.17
840.00	228.16
840.31	228.15
840.63	228.14
840.94	228.17
841.26	228.17
841.57	228.14
841.88	228.14
842.20	228.12
842.51	228.12
842.83	228.11
843.14	228.16
843.46	228.14
843.77	228.10
844.08	228.10
844.40	228.04
844.71	228.04
845.03	228.05
845.34	228.01
845.65	227.97
845.97	227.96
846.28	227.92
846.60	227.93
846.91	227.88
847.22	227.88
847.54	227.88
847.85	227.85
848.16	227.83
848.48	227.82
848.79	227.85
849.10	227.84
849.42	227.80
849.73	227.69
850.04	227.68
850.36	227.65
850.67	227.67
850.98	227.65
851.30	227.64
851.61	227.61
851.92	227.62
852.23	227.65
852.55	227.65
852.86	227.68
853.17	227.67
853.49	227.70
853.80	227.69
854.11	227.70
854.42	227.72
854.74	227.69
855.05	227.70
855.36	227.63
855.67	227.62
855.99	227.64
856.30	227.76
856.61	227.76
856.92	227.72
857.23	227.72
857.55	227.75
857.86	227.75
858.17	227.80
858.48	227.79
858.79	227.76
859.11	227.81
859.42	227.80
859.73	227.81
860.04	227.82
860.35	227.81
860.66	227.74
860.98	227.75
861.29	227.80
861.60	227.77
861.91	227.82
862.22	227.81
862.53	227.83
862.84	227.71
863.16	227.75
863.47	227.78
863.78	227.78
864.09	227.81
864.40	227.79
864.71	227.77
865.02	227.77
865.33	227.77
865.64	227.72
865.95	227.74
866.27	227.76
866.58	227.72
866.89	227.73
867.20	227.75
867.51	227.71
867.82	227.69
868.13	227.71
868.44	227.70
868.75	227.72
869.06	227.69
869.37	227.75
869.68	227.69
869.99	227.68
870.30	227.69
870.61	227.68
870.92	227.67
871.23	227.66
871.54	227.68
871.85	227.67
872.16	227.72
872.47	227.72
872.78	227.69
873.09	227.71
873.40	227.68
873.71	227.67
874.02	227.69
874.33	227.67
874.64	227.64
874.95	227.65
875.26	227.62
875.56	227.64
875.87	227.58
876.18	227.62
876.49	227.71
876.80	227.67
877.11	227.63
877.42	227.64
877.73	227.65
878.04	227.64
878.35	227.67
878.66	227.61
878.96	227.58
879.27	227.58
879.58	227.56
879.89	227.55
880.20	227.57
880.51	227.54
880.82	227.52
881.12	227.54
881.43	227.48
881.74	227.47
882.05	227.44
882.36	227.43
882.67	227.42
882.97	227.31
883.28	227.33
883.59	227.33
883.90	227.31
884.21	227.31
884.51	227.30
884.82	227.25
885.13	227.26
885.44	227.25
885.74	227.23
886.05	227.23
886.36	227.21
886.67	227.16
886.98	227.19
887.28	227.17
887.59	227.15
887.90	227.12
888.20	227.10
888.51	227.11
888.82	227.06
889.13	227.05
889.43	227.09
889.74	227.00
890.05	226.99
890.35	226.98
890.66	226.95
890.97	226.92
891.28	226.93
891.58	226.92
891.89	226.92
892.20	226.91
892.50	226.88
892.81	226.90
893.12	226.91
893.42	226.87
893.73	226.91
894.04	226.92
894.34	226.99
894.65	227.03
894.95	227.00
895.26	227.02
895.57	227.06
895.87	226.99
896.18	227.05
896.48	227.07
896.79	227.09
897.10	227.12
897.40	227.13
897.71	227.14
898.01	227.17
898.32	227.18
898.63	227.19
898.93	227.24
899.24	227.29
899.54	227.29
899.85	227.30
900.15	227.29
900.46	227.30
900.76	227.33
901.07	227.29
901.38	227.32
901.68	227.36
901.99	227.31
902.29	227.33
902.60	227.34
902.90	227.35
903.21	227.35
903.51	227.33
903.82	227.36
904.12	227.38
904.43	227.37
904.73	227.36
905.03	227.39
905.34	227.44
905.64	227.41
905.95	227.46
906.25	227.48
906.56	227.51
906.86	227.53
907.17	227.50
907.47	227.53
907.77	227.55
908.08	227.55
908.38	227.56
908.69	227.55
908.99	227.57
909.30	227.60
909.60	227.61
909.90	227.63
910.21	227.57
910.51	227.54
910.81	227.53
911.12	227.53
911.42	227.53
911.73	227.45
912.03	227.45
912.33	227.44
912.64	227.42
912.94	227.39
913.24	227.36
913.55	227.35
913.85	227.35
914.15	227.36
914.46	227.36
914.76	227.39
915.06	227.36
915.37	227.34
915.67	227.31
915.97	227.30
916.27	227.26
916.58	227.29
916.88	227.29
917.18	227.29
917.49	227.36
917.79	227.37
918.09	227.38
918.39	227.43
918.70	227.43
919.00	227.41
919.30	227.48
919.60	227.49
919.91	227.46
920.21	227.44
920.51	227.39
920.81	227.38
921.12	227.36
921.42	227.39
921.72	227.39
922.02	227.38
922.32	227.38
922.63	227.39
922.93	227.44
923.23	227.43
923.53	227.40
923.83	227.34
924.13	227.32
924.44	227.30
924.74	227.25
925.04	227.24
925.34	227.23
925.64	227.16
925.94	227.12
926.24	227.16
926.55	227.15
926.85	227.18
927.15	227.18
927.45	227.17
927.75	227.16
928.05	227.15
928.35	227.16
928.65	227.16
928.95	227.17
929.26	227.10
929.56	227.11
929.86	227.14
930.16	227.11
930.46	227.08
930.76	227.08
931.06	227.07
931.36	227.08
931.66	227.09
931.96	227.10
932.26	227.13
932.56	227.09
932.86	227.10
933.16	227.07
933.46	227.04
933.76	227.04
934.06	227.05
934.36	227.08
934.66	227.08
934.96	227.09
935.26	227.05
935.56	227.06
935.86	227.05
936.16	227.01
936.46	227.04
936.76	227.05
937.06	227.03
937.36	227.03
937.66	227.00
937.96	227.02
938.26	227.03
938.56	227.04
938.86	227.07
939.16	227.09
939.46	227.11
939.76	227.15
940.06	227.18
940.35	227.16
940.65	227.11
940.95	227.10
941.25	227.04
941.55	227.07
941.85	227.07
942.15	227.11
942.45	227.18
942.75	227.18
943.04	227.21
943.34	227.24
943.64	227.25
943.94	227.27
944.24	227.26
944.54	227.27
944.84	227.25
945.13	227.26
945.43	227.31
945.73	227.32
946.03	227.33
946.33	227.30
946.62	227.29
946.92	227.31
947.22	227.37
947.52	227.42
947.82	227.45
948.11	227.46
948.41	227.46
948.71	227.39
949.01	227.39
949.31	227.42
949.60	227.44
949.90	227.47
950.20	227.47
950.50	227.48
950.79	227.48
951.09	227.50
951.39	227.50
951.69	227.45
951.98	227.47
952.28	227.46
952.58	227.44
952.87	227.49
953.17	227.48
953.47	227.45
953.76	227.44
954.06	227.38
954.36	227.37
954.66	227.37
954.95	227.41
955.25	227.42
955.55	227.42
955.84	227.41
956.14	227.37
956.44	227.35
956.73	227.33
957.03	227.33
957.32	227.31
957.62	227.28
957.92	227.28
958.21	227.24
958.51	227.37
958.81	227.36
959.10	227.33
959.40	227.34
959.69	227.31
959.99	227.30
960.29	227.35
960.58	227.32
960.88	227.35
961.17	227.36
961.47	227.34
961.76	227.28
962.06	227.24
962.36	227.24
962.65	227.23
962.95	227.23
963.24	227.22
963.54	227.22
963.83	227.20
964.13	227.21
964.42	227.20
964.72	227.11
965.01	227.11
965.31	227.12
965.60	227.10
965.90	227.16
966.19	227.13
966.49	227.11
966.78	227.16
967.08	227.13
967.37	227.07
967.67	227.06
967.96	227.10
968.26	227.11
968.55	227.15
968.85	227.16
969.14	227.13
969.43	227.09
969.73	227.08
970.02	227.04
970.32	227.00
970.61	226.97
970.91	226.92
971.20	226.92
971.49	226.89
971.79	226.92
972.08	226.83
972.38	226.85
972.67	226.84
972.96	226.80
973.26	226.81
973.55	226.85
973.85	226.84
974.14	226.83
974.43	226.86
974.73	226.82
975.02	226.80
975.31	226.81
975.61	226.83
975.90	226.82
976.19	226.87
976.49	226.92
976.78	226.98
977.07	227.02
977.37	227.06
977.66	227.10
977.95	227.06
978.24	227.12
978.54	227.15
978.83	227.16
979.12	227.15
979.42	227.17
979.71	227.18
980.00	227.20
980.29	227.20
980.59	227.19
980.88	227.21
981.17	227.22
981.46	227.26
981.76	227.27
982.05	227.29
982.34	227.30
982.63	227.29
982.93	227.29
983.22	227.30
983.51	227.29
983.80	227.32
984.09	227.35
984.39	227.34
984.68	227.32
984.97	227.34
985.26	227.38
985.55	227.36
985.85	227.32
986.14	227.37
986.43	227.41
986.72	227.39
987.01	227.37
987.30	227.38
987.59	227.35
987.89	227.33
988.18	227.32
988.47	227.29
988.76	227.24
989.05	227.22
989.34	227.21
989.63	227.22
989.92	227.20
990.22	227.21
990.51	227.18
990.80	227.18
991.09	227.18
991.38	227.15
991.67	227.15
991.96	227.15
992.25	227.12
992.54	227.08
992.83	227.10
993.12	227.08
993.41	227.10
993.70	227.15
993.99	227.15
994.28	227.14
994.58	227.16
994.87	227.17
995.16	227.14
995.45	227.12
995.74	227.06
996.03	227.06
996.32	227.02
996.61	227.03
996.90	227.01
997.19	226.99
997.48	226.99
997.77	226.94
998.06	226.93
998.34	226.89
998.63	226.86
998.92	226.80
999.21	226.81
999.50	226.76
999.79	226.70
1000.08	226.70
1000.37	226.70
1000.66	226.66
1000.95	226.68
1001.24	226.68
1001.53	226.66
1001.82	226.67
1002.11	226.62
1002.40	226.61
1002.68	226.64
1002.97	226.71
1003.26	226.69
1003.55	226.69
1003.84	226.71
1004.13	226.73
1004.42	226.72
1004.71	226.72
1004.99	226.71
1005.28	226.74
1005.57	226.76
1005.86	226.76
1006.15	226.77
1006.44	226.80
1006.72	226.83
1007.01	226.82
1007.30	226.85
1007.59	226.86
1007.88	226.90
1008.17	226.92
1008.45	226.89
1008.74	226.85
1009.03	226.85
1009.32	226.84
1009.60	226.85
1009.89	226.84
1010.18	226.83
1010.47	226.85
1010.76	226.87
1011.04	226.91
1011.33	226.92
1011.62	226.90
1011.91	226.91
1012.19	226.92
1012.48	226.91
1012.77	226.91
1013.05	226.96
1013.34	226.95
1013.63	226.98
1013.92	226.98
1014.20	226.98
1014.49	227.02
1014.78	227.03
1015.06	226.97
1015.35	226.99
1015.64	227.01
1015.92	227.04
1016.21	227.04
1016.50	227.04
1016.78	227.06
1017.07	227.09
1017.36	227.09
1017.64	227.11
1017.93	227.10
1018.22	227.09
1018.50	227.11
1018.79	227.12
1019.08	227.09
1019.36	227.11
1019.65	227.07
1019.93	227.11
1020.22	227.14
1020.51	227.19
1020.79	227.18
1021.08	226.99
1021.36	227.38
1021.65	227.46
1021.94	227.15
1022.22	227.17
1022.51	226.88
1022.79	227.97
1023.08	227.37
1023.36	228.25
1023.65	226.72
>>>>>End Processed Spectral Data<<<<<
