SpectraSuite Data File
++++++++++++++++++++++++++++++++++++
Date: Fri Feb 01 15:21:36 EST 2013
User: group
Dark Spectrum Present: No
Reference Spectrum Present: No
Number of Sampled Component Spectra: 1
Spectrometers: USB2E7196
Integration Time (usec): 35000 (USB2E7196)
Spectra Averaged: 100 (USB2E7196)
Boxcar Smoothing: 10 (USB2E7196)
Correct for Electrical Dark: No (USB2E7196)
Strobe/Lamp Enabled: No (USB2E7196)
Correct for Detector Non-linearity: No (USB2E7196)
Correct for Stray Light: No (USB2E7196)
Number of Pixels in Processed Spectrum: 2048
>>>>>Begin Processed Spectral Data<<<<<
339.09	0.00
339.48	214.88
339.86	216.60
340.24	218.11
340.63	219.61
341.01	221.90
341.39	221.33
341.78	223.48
342.16	224.10
342.54	224.95
342.93	213.29
343.31	224.05
343.69	224.58
344.07	225.02
344.46	225.42
344.84	225.79
345.22	226.05
345.60	226.30
345.99	226.47
346.37	226.62
346.75	226.69
347.13	226.77
347.52	226.82
347.90	226.93
348.28	226.98
348.66	227.03
349.05	227.01
349.43	227.07
349.81	227.16
350.19	227.20
350.57	227.25
350.96	227.31
351.34	227.41
351.72	227.52
352.10	227.62
352.48	227.69
352.87	227.74
353.25	227.79
353.63	227.91
354.01	227.97
354.39	228.05
354.77	228.17
355.15	228.26
355.54	228.31
355.92	228.32
356.30	228.40
356.68	228.53
357.06	228.59
357.44	228.63
357.82	228.68
358.20	228.76
358.58	228.82
358.97	228.87
359.35	228.96
359.73	229.05
360.11	229.11
360.49	229.17
360.87	229.22
361.25	229.25
361.63	229.28
362.01	229.34
362.39	229.35
362.77	229.38
363.15	229.38
363.53	229.43
363.91	229.44
364.29	229.41
364.67	229.31
365.05	229.34
365.43	229.37
365.81	229.37
366.19	229.39
366.57	229.43
366.95	229.45
367.33	229.41
367.71	229.40
368.09	229.38
368.47	229.39
368.85	229.37
369.23	229.37
369.61	229.29
369.99	229.27
370.37	229.24
370.75	229.25
371.13	229.20
371.51	229.14
371.89	229.12
372.27	229.09
372.65	229.06
373.03	228.99
373.41	228.91
373.78	228.87
374.16	228.78
374.54	228.69
374.92	228.60
375.30	228.54
375.68	228.45
376.06	228.40
376.44	228.31
376.82	228.25
377.19	228.16
377.57	228.10
377.95	228.00
378.33	227.94
378.71	227.81
379.09	227.78
379.47	227.71
379.84	227.64
380.22	227.56
380.60	227.48
380.98	227.41
381.36	227.36
381.73	227.22
382.11	227.19
382.49	227.10
382.87	227.03
383.25	226.99
383.62	227.02
384.00	226.97
384.38	226.86
384.76	226.82
385.13	226.82
385.51	226.76
385.89	226.69
386.27	226.65
386.64	226.60
387.02	226.53
387.40	226.49
387.78	226.43
388.15	226.37
388.53	226.34
388.91	226.32
389.29	226.30
389.66	226.34
390.04	226.28
390.42	226.32
390.79	226.32
391.17	226.33
391.55	226.22
391.92	226.19
392.30	226.23
392.68	226.19
393.05	226.20
393.43	226.23
393.81	226.27
394.18	226.26
394.56	226.30
394.94	226.31
395.31	226.33
395.69	226.41
396.06	226.50
396.44	226.55
396.82	226.58
397.19	226.65
397.57	226.66
397.95	226.75
398.32	226.78
398.70	226.84
399.07	226.88
399.45	226.95
399.82	227.02
400.20	227.11
400.58	227.21
400.95	227.27
401.33	227.36
401.70	227.52
402.08	227.62
402.45	227.72
402.83	227.87
403.20	227.98
403.58	228.05
403.95	228.19
404.33	228.32
404.71	228.43
405.08	228.63
405.46	228.79
405.83	228.94
406.21	229.08
406.58	229.26
406.96	229.44
407.33	229.60
407.70	229.80
408.08	230.05
408.45	230.26
408.83	230.45
409.20	230.70
409.58	230.86
409.95	231.13
410.33	231.43
410.70	231.69
411.08	231.98
411.45	232.30
411.82	232.59
412.20	232.95
412.57	233.37
412.95	233.64
413.32	234.06
413.69	234.48
414.07	234.95
414.44	235.40
414.82	235.88
415.19	236.44
415.56	237.00
415.94	237.54
416.31	238.20
416.68	238.83
417.06	239.54
417.43	240.24
417.81	241.00
418.18	241.77
418.55	242.61
418.93	243.52
419.30	244.42
419.67	245.37
420.04	246.34
420.42	247.34
420.79	248.55
421.16	249.72
421.54	250.93
421.91	252.11
422.28	253.36
422.66	254.69
423.03	256.00
423.40	257.30
423.77	258.71
424.15	260.16
424.52	261.67
424.89	263.25
425.26	264.81
425.64	266.28
426.01	267.84
426.38	269.48
426.75	271.13
427.13	272.88
427.50	274.71
427.87	276.58
428.24	278.46
428.61	280.18
428.99	282.08
429.36	284.15
429.73	286.21
430.10	288.24
430.47	290.34
430.85	292.47
431.22	294.74
431.59	297.13
431.96	299.35
432.33	301.84
432.70	304.26
433.08	307.09
433.45	309.70
433.82	312.34
434.19	315.22
434.56	318.04
434.93	320.69
435.30	323.29
435.68	326.19
436.05	329.02
436.42	331.84
436.79	334.44
437.16	337.13
437.53	339.97
437.90	342.84
438.27	345.54
438.64	348.36
439.01	350.94
439.38	353.13
439.75	355.29
440.13	357.86
440.50	360.18
440.87	362.05
441.24	364.04
441.61	366.21
441.98	367.74
442.35	369.53
442.72	371.37
443.09	373.21
443.46	374.23
443.83	374.84
444.20	375.36
444.57	376.17
444.94	376.44
445.31	376.77
445.68	377.11
446.05	377.14
446.42	376.74
446.79	376.35
447.16	375.93
447.53	375.62
447.90	374.41
448.27	373.23
448.64	371.58
449.01	370.39
449.37	368.41
449.74	366.49
450.11	364.26
450.48	361.75
450.85	359.21
451.22	357.03
451.59	354.97
451.96	353.01
452.33	350.37
452.70	348.05
453.07	345.23
453.43	342.29
453.80	339.59
454.17	336.95
454.54	334.35
454.91	331.64
455.28	328.93
455.65	326.41
456.02	323.95
456.38	321.79
456.75	319.12
457.12	316.86
457.49	314.62
457.86	312.45
458.23	310.61
458.59	308.55
458.96	306.42
459.33	304.59
459.70	302.70
460.07	301.21
460.43	299.47
460.80	297.84
461.17	296.42
461.54	294.88
461.91	293.40
462.27	291.99
462.64	290.72
463.01	289.40
463.38	288.12
463.74	286.77
464.11	285.64
464.48	284.61
464.85	283.49
465.21	282.60
465.58	281.64
465.95	280.53
466.32	279.60
466.68	278.77
467.05	277.82
467.42	276.94
467.78	276.02
468.15	275.10
468.52	274.42
468.88	273.54
469.25	272.76
469.62	272.13
469.98	271.42
470.35	270.78
470.72	270.16
471.08	269.47
471.45	268.91
471.82	268.35
472.18	267.76
472.55	267.30
472.92	266.82
473.28	266.36
473.65	265.94
474.02	265.51
474.38	265.12
474.75	264.80
475.11	264.45
475.48	264.18
475.85	263.98
476.21	263.75
476.58	263.58
476.94	263.43
477.31	263.23
477.67	263.11
478.04	263.02
478.41	262.99
478.77	263.06
479.14	263.01
479.50	263.03
479.87	263.09
480.23	263.19
480.60	263.24
480.96	263.36
481.33	263.56
481.69	263.75
482.06	263.94
482.42	264.18
482.79	264.45
483.15	264.72
483.52	265.08
483.88	265.43
484.25	265.81
484.61	266.23
484.98	266.73
485.34	267.30
485.71	267.89
486.07	268.48
486.44	269.05
486.80	269.76
487.17	270.49
487.53	271.32
487.90	272.18
488.26	273.11
488.62	274.07
488.99	275.05
489.35	276.13
489.72	277.25
490.08	278.44
490.44	279.67
490.81	281.02
491.17	282.37
491.54	283.83
491.90	285.40
492.26	287.08
492.63	288.84
492.99	290.60
493.36	292.49
493.72	294.52
494.08	296.64
494.45	298.86
494.81	301.20
495.17	303.64
495.54	306.18
495.90	308.90
496.26	311.70
496.63	314.67
496.99	317.79
497.35	321.06
497.72	324.44
498.08	327.95
498.44	331.60
498.80	335.57
499.17	339.63
499.53	343.77
499.89	348.09
500.26	352.56
500.62	357.30
500.98	362.26
501.34	367.30
501.71	372.60
502.07	378.02
502.43	383.64
502.79	389.44
503.16	395.55
503.52	401.73
503.88	408.15
504.24	414.77
504.60	421.60
504.97	428.70
505.33	436.05
505.69	443.78
506.05	451.58
506.41	459.45
506.78	467.62
507.14	476.08
507.50	484.79
507.86	493.83
508.22	502.97
508.59	512.13
508.95	521.73
509.31	531.45
509.67	541.60
510.03	551.85
510.39	562.41
510.75	573.21
511.12	584.22
511.48	595.50
511.84	606.89
512.20	618.47
512.56	630.40
512.92	642.56
513.28	654.85
513.64	667.31
514.00	680.04
514.37	692.89
514.73	705.95
515.09	719.02
515.45	732.34
515.81	745.86
516.17	759.97
516.53	774.11
516.89	788.40
517.25	802.57
517.61	817.08
517.97	831.53
518.33	845.96
518.69	860.67
519.05	875.71
519.41	890.99
519.77	906.53
520.13	922.08
520.49	937.41
520.85	952.89
521.21	968.67
521.57	984.86
521.93	1000.79
522.29	1017.25
522.65	1033.60
523.01	1049.89
523.37	1066.07
523.73	1082.15
524.09	1098.39
524.45	1114.77
524.81	1131.38
525.17	1148.24
525.53	1165.27
525.89	1182.15
526.25	1199.10
526.61	1215.51
526.97	1232.24
527.33	1248.79
527.68	1265.44
528.04	1282.03
528.40	1298.70
528.76	1315.85
529.12	1332.62
529.48	1349.49
529.84	1365.59
530.20	1382.42
530.56	1399.52
530.91	1417.01
531.27	1433.83
531.63	1450.35
531.99	1467.04
532.35	1483.08
532.71	1499.03
533.07	1515.27
533.42	1531.22
533.78	1547.30
534.14	1563.62
534.50	1578.98
534.86	1595.03
535.21	1610.22
535.57	1626.31
535.93	1642.00
536.29	1656.89
536.65	1672.04
537.00	1686.98
537.36	1702.34
537.72	1716.80
538.08	1731.25
538.44	1745.08
538.79	1759.14
539.15	1772.87
539.51	1786.63
539.87	1801.24
540.22	1815.09
540.58	1829.05
540.94	1842.65
541.29	1855.87
541.65	1868.74
542.01	1882.14
542.37	1894.47
542.72	1906.82
543.08	1918.56
543.44	1930.90
543.79	1942.22
544.15	1953.26
544.51	1964.91
544.87	1975.90
545.22	1986.75
545.58	1997.07
545.94	2006.98
546.29	2016.91
546.65	2026.78
547.01	2036.09
547.36	2044.88
547.72	2053.33
548.07	2061.07
548.43	2069.18
548.79	2077.15
549.14	2084.70
549.50	2092.12
549.86	2099.89
550.21	2107.30
550.57	2114.52
550.92	2121.02
551.28	2128.11
551.64	2135.10
551.99	2141.60
552.35	2147.86
552.70	2153.90
553.06	2159.71
553.41	2166.09
553.77	2171.98
554.13	2177.98
554.48	2183.97
554.84	2189.04
555.19	2194.39
555.55	2199.58
555.90	2204.06
556.26	2208.77
556.61	2213.36
556.97	2217.38
557.32	2221.51
557.68	2225.82
558.03	2230.22
558.39	2234.19
558.74	2238.66
559.10	2242.47
559.45	2246.02
559.81	2250.33
560.16	2254.21
560.52	2257.48
560.87	2260.75
561.23	2263.50
561.58	2266.57
561.94	2269.18
562.29	2271.81
562.64	2274.44
563.00	2277.03
563.35	2280.53
563.71	2283.73
564.06	2287.05
564.42	2289.90
564.77	2292.25
565.12	2294.28
565.48	2296.06
565.83	2297.80
566.19	2299.02
566.54	2300.06
566.89	2301.27
567.25	2301.66
567.60	2302.96
567.96	2304.60
568.31	2305.44
568.66	2306.50
569.02	2306.99
569.37	2307.29
569.72	2308.09
570.08	2308.15
570.43	2308.15
570.78	2307.53
571.14	2305.83
571.49	2304.34
571.84	2304.08
572.20	2302.82
572.55	2301.70
572.90	2300.11
573.26	2298.55
573.61	2296.96
573.96	2295.00
574.31	2291.97
574.67	2288.88
575.02	2285.21
575.37	2281.84
575.72	2277.87
576.08	2274.49
576.43	2271.10
576.78	2267.37
577.13	2264.16
577.49	2261.07
577.84	2257.52
578.19	2253.64
578.54	2250.02
578.90	2245.68
579.25	2240.17
579.60	2235.11
579.95	2230.21
580.30	2225.07
580.66	2219.75
581.01	2214.69
581.36	2209.75
581.71	2205.27
582.06	2200.74
582.42	2196.01
582.77	2190.56
583.12	2185.92
583.47	2181.02
583.82	2175.85
584.17	2170.41
584.53	2164.80
584.88	2158.95
585.23	2153.01
585.58	2147.34
585.93	2141.87
586.28	2137.16
586.63	2131.91
586.98	2126.76
587.34	2121.94
587.69	2116.99
588.04	2111.74
588.39	2106.01
588.74	2099.57
589.09	2093.48
589.44	2086.62
589.79	2080.66
590.14	2075.21
590.49	2068.61
590.84	2062.23
591.19	2056.17
591.54	2049.69
591.89	2042.05
592.25	2035.19
592.60	2027.99
592.95	2020.34
593.30	2012.87
593.65	2005.15
594.00	1998.07
594.35	1990.83
594.70	1982.76
595.05	1975.37
595.40	1968.12
595.75	1960.45
596.10	1953.90
596.45	1947.02
596.80	1940.91
597.15	1934.21
597.50	1926.87
597.85	1920.34
598.19	1913.48
598.54	1906.29
598.89	1899.59
599.24	1893.88
599.59	1887.16
599.94	1880.86
600.29	1874.63
600.64	1868.01
600.99	1860.43
601.34	1853.50
601.69	1846.52
602.04	1839.40
602.39	1832.14
602.74	1825.17
603.08	1818.39
603.43	1811.71
603.78	1804.60
604.13	1797.23
604.48	1789.87
604.83	1783.01
605.18	1776.00
605.53	1767.99
605.87	1759.93
606.22	1752.76
606.57	1744.74
606.92	1737.35
607.27	1730.13
607.62	1723.24
607.96	1715.88
608.31	1709.14
608.66	1701.42
609.01	1693.87
609.36	1686.28
609.70	1678.15
610.05	1670.01
610.40	1662.30
610.75	1653.94
611.10	1646.07
611.44	1637.70
611.79	1629.72
612.14	1620.98
612.49	1611.83
612.83	1603.48
613.18	1595.36
613.53	1587.16
613.88	1578.54
614.22	1570.23
614.57	1561.63
614.92	1553.47
615.27	1545.81
615.61	1537.65
615.96	1529.71
616.31	1522.02
616.65	1514.69
617.00	1507.21
617.35	1499.61
617.70	1491.23
618.04	1482.66
618.39	1474.50
618.74	1466.87
619.08	1458.51
619.43	1450.93
619.78	1443.95
620.12	1436.76
620.47	1429.19
620.82	1421.00
621.16	1413.60
621.51	1406.09
621.85	1398.53
622.20	1389.97
622.55	1381.67
622.89	1373.79
623.24	1366.28
623.59	1358.98
623.93	1351.53
624.28	1344.35
624.62	1336.76
624.97	1329.67
625.32	1322.98
625.66	1315.92
626.01	1308.77
626.35	1301.30
626.70	1293.59
627.04	1285.87
627.39	1278.16
627.73	1270.81
628.08	1263.87
628.43	1256.52
628.77	1249.07
629.12	1241.50
629.46	1234.35
629.81	1227.05
630.15	1219.83
630.50	1212.29
630.84	1203.98
631.19	1196.02
631.53	1188.57
631.88	1181.08
632.22	1173.38
632.57	1166.15
632.91	1158.61
633.26	1151.26
633.60	1143.99
633.95	1136.95
634.29	1130.00
634.64	1123.38
634.98	1116.07
635.32	1109.02
635.67	1102.53
636.01	1095.93
636.36	1089.14
636.70	1082.68
637.05	1076.12
637.39	1069.60
637.73	1063.21
638.08	1057.35
638.42	1051.42
638.77	1044.88
639.11	1038.27
639.45	1031.94
639.80	1025.28
640.14	1018.84
640.49	1012.20
640.83	1005.85
641.17	999.49
641.52	993.18
641.86	986.78
642.20	980.93
642.55	974.64
642.89	968.12
643.23	961.65
643.58	955.83
643.92	949.53
644.26	943.41
644.61	937.46
644.95	931.35
645.29	924.75
645.64	917.99
645.98	911.60
646.32	905.79
646.66	899.71
647.01	893.93
647.35	888.26
647.69	882.54
648.04	877.05
648.38	871.27
648.72	865.17
649.06	859.11
649.41	853.21
649.75	847.14
650.09	841.23
650.43	835.35
650.78	829.21
651.12	823.28
651.46	817.53
651.80	811.67
652.14	806.27
652.49	800.90
652.83	795.77
653.17	790.11
653.51	784.33
653.85	779.00
654.20	773.29
654.54	767.25
654.88	761.47
655.22	755.48
655.56	749.85
655.90	744.53
656.25	739.21
656.59	733.83
656.93	728.81
657.27	723.60
657.61	718.16
657.95	713.07
658.29	708.06
658.64	702.84
658.98	697.60
659.32	692.18
659.66	686.94
660.00	681.51
660.34	676.64
660.68	671.80
661.02	666.73
661.36	662.07
661.70	657.62
662.05	653.23
662.39	649.00
662.73	644.56
663.07	640.16
663.41	635.70
663.75	631.21
664.09	626.67
664.43	622.33
664.77	618.26
665.11	614.00
665.45	609.85
665.79	605.79
666.13	601.66
666.47	597.54
666.81	593.42
667.15	589.41
667.49	585.48
667.83	581.62
668.17	577.75
668.51	573.67
668.85	569.70
669.19	565.89
669.53	562.04
669.87	558.12
670.21	554.42
670.55	550.82
670.89	547.41
671.23	543.97
671.57	540.44
671.91	536.89
672.25	533.46
672.58	529.92
672.92	526.55
673.26	523.44
673.60	520.32
673.94	517.25
674.28	514.38
674.62	511.43
674.96	508.38
675.30	505.45
675.64	502.55
675.97	499.78
676.31	496.95
676.65	494.03
676.99	491.37
677.33	488.47
677.67	485.64
678.01	482.64
678.34	479.67
678.68	476.82
679.02	474.01
679.36	471.24
679.70	468.64
680.04	465.85
680.37	463.00
680.71	460.26
681.05	457.64
681.39	454.90
681.73	452.25
682.06	449.66
682.40	447.15
682.74	444.59
683.08	442.05
683.42	439.43
683.75	436.98
684.09	434.39
684.43	431.92
684.77	429.48
685.10	427.12
685.44	424.84
685.78	422.57
686.12	420.36
686.45	418.07
686.79	415.73
687.13	413.54
687.46	411.37
687.80	409.23
688.14	407.04
688.48	404.98
688.81	402.74
689.15	400.61
689.49	398.41
689.82	396.33
690.16	394.23
690.50	392.26
690.83	390.26
691.17	388.33
691.51	386.47
691.84	384.66
692.18	382.68
692.52	380.68
692.85	378.76
693.19	376.88
693.52	375.09
693.86	373.26
694.20	371.47
694.53	369.67
694.87	367.75
695.21	365.97
695.54	364.14
695.88	362.45
696.21	360.78
696.55	359.13
696.88	357.47
697.22	355.81
697.56	354.15
697.89	352.51
698.23	350.92
698.56	349.30
698.90	347.67
699.23	346.05
699.57	344.52
699.90	342.96
700.24	341.35
700.58	339.79
700.91	338.30
701.25	336.84
701.58	335.47
701.92	334.14
702.25	332.80
702.59	331.44
702.92	330.12
703.26	328.80
703.59	327.51
703.93	326.36
704.26	325.13
704.60	323.88
704.93	322.61
705.26	321.35
705.60	320.15
705.93	318.99
706.27	317.96
706.60	316.91
706.94	315.87
707.27	314.77
707.61	313.74
707.94	312.72
708.27	311.67
708.61	310.59
708.94	309.58
709.28	308.58
709.61	307.66
709.94	306.72
710.28	305.70
710.61	304.77
710.95	303.67
711.28	302.75
711.61	301.82
711.95	300.94
712.28	300.00
712.61	299.05
712.95	298.14
713.28	297.30
713.61	296.41
713.95	295.52
714.28	294.72
714.61	293.82
714.95	292.98
715.28	292.10
715.61	291.23
715.95	290.40
716.28	289.51
716.61	288.67
716.95	287.85
717.28	287.14
717.61	286.32
717.94	285.65
718.28	284.91
718.61	284.21
718.94	283.52
719.27	282.87
719.61	282.21
719.94	281.51
720.27	280.79
720.60	280.13
720.94	279.54
721.27	278.93
721.60	278.40
721.93	277.80
722.27	277.29
722.60	276.73
722.93	276.14
723.26	275.65
723.59	275.09
723.93	274.53
724.26	273.94
724.59	273.41
724.92	272.84
725.25	272.29
725.59	271.73
725.92	271.19
726.25	270.70
726.58	270.21
726.91	269.76
727.24	269.26
727.57	268.81
727.91	268.26
728.24	267.78
728.57	267.26
728.90	266.82
729.23	266.33
729.56	265.90
729.89	265.41
730.22	264.91
730.55	264.45
730.89	263.99
731.22	263.56
731.55	263.08
731.88	262.67
732.21	262.25
732.54	261.83
732.87	261.39
733.20	260.99
733.53	260.64
733.86	260.26
734.19	259.88
734.52	259.46
734.85	259.18
735.18	258.77
735.51	258.40
735.84	258.01
736.17	257.62
736.50	257.24
736.83	257.03
737.16	256.70
737.49	256.32
737.82	256.01
738.15	255.67
738.48	255.37
738.81	255.05
739.14	254.75
739.47	254.43
739.80	254.14
740.13	253.83
740.46	253.46
740.79	253.14
741.12	252.80
741.45	252.48
741.78	252.14
742.11	251.88
742.44	251.59
742.77	251.32
743.10	251.00
743.43	250.71
743.75	250.31
744.08	250.15
744.41	249.92
744.74	249.65
745.07	249.39
745.40	249.12
745.73	248.87
746.06	248.57
746.39	248.33
746.71	248.09
747.04	247.81
747.37	247.56
747.70	247.30
748.03	247.06
748.36	246.84
748.68	246.58
749.01	246.33
749.34	246.11
749.67	245.87
750.00	245.71
750.33	245.54
750.65	245.36
750.98	245.04
751.31	244.81
751.64	244.59
751.97	244.40
752.29	244.21
752.62	243.96
752.95	243.76
753.28	243.53
753.60	243.32
753.93	243.17
754.26	243.01
754.59	242.79
754.91	242.62
755.24	242.44
755.57	242.28
755.90	242.10
756.22	241.88
756.55	241.71
756.88	241.49
757.20	241.29
757.53	241.11
757.86	240.92
758.19	240.78
758.51	240.62
758.84	240.43
759.17	240.27
759.49	240.14
759.82	240.02
760.15	239.91
760.47	239.75
760.80	239.56
761.13	239.45
761.45	239.31
761.78	239.15
762.11	238.96
762.43	238.82
762.76	238.67
763.08	238.58
763.41	238.45
763.74	238.32
764.06	238.17
764.39	238.00
764.71	237.86
765.04	237.72
765.37	237.57
765.69	237.44
766.02	237.30
766.34	237.16
766.67	237.02
767.00	236.88
767.32	236.81
767.65	236.78
767.97	236.64
768.30	236.52
768.62	236.45
768.95	236.36
769.27	236.25
769.60	236.16
769.92	236.04
770.25	235.90
770.57	235.76
770.90	235.65
771.22	235.58
771.55	235.48
771.87	235.36
772.20	235.26
772.52	235.27
772.85	235.30
773.17	235.20
773.50	235.08
773.82	234.98
774.15	234.83
774.47	234.66
774.80	234.56
775.12	234.44
775.45	234.32
775.77	234.24
776.09	234.13
776.42	234.04
776.74	233.97
777.07	233.89
777.39	233.82
777.72	233.75
778.04	233.69
778.36	233.61
778.69	233.56
779.01	233.51
779.33	233.32
779.66	233.13
779.98	233.06
780.31	232.99
780.63	232.97
780.95	232.92
781.28	232.83
781.60	232.73
781.92	232.70
782.25	232.64
782.57	232.57
782.89	232.49
783.22	232.42
783.54	232.35
783.86	232.30
784.19	232.26
784.51	232.22
784.83	232.10
785.16	232.04
785.48	231.95
785.80	231.89
786.12	231.84
786.45	231.78
786.77	231.73
787.09	231.67
787.42	231.61
787.74	231.56
788.06	231.56
788.38	231.54
788.71	231.49
789.03	231.46
789.35	231.44
789.67	231.40
789.99	231.38
790.32	231.31
790.64	231.27
790.96	231.31
791.28	231.23
791.61	231.21
791.93	231.19
792.25	231.19
792.57	231.23
792.89	231.18
793.21	231.18
793.54	231.11
793.86	231.10
794.18	231.10
794.50	231.01
794.82	230.98
795.14	230.97
795.47	230.95
795.79	230.90
796.11	230.83
796.43	230.81
796.75	230.79
797.07	230.74
797.39	230.70
797.71	230.62
798.04	230.59
798.36	230.57
798.68	230.54
799.00	230.53
799.32	230.44
799.64	230.43
799.96	230.41
800.28	230.44
800.60	230.39
800.92	230.32
801.24	230.30
801.56	230.27
801.89	230.21
802.21	230.19
802.53	230.16
802.85	230.19
803.17	230.19
803.49	230.13
803.81	230.10
804.13	230.07
804.45	230.02
804.77	229.99
805.09	230.00
805.41	229.95
805.73	229.87
806.05	229.84
806.37	229.80
806.69	229.72
807.01	229.69
807.33	229.69
807.65	229.65
807.97	229.67
808.28	229.65
808.60	229.62
808.92	229.57
809.24	229.60
809.56	229.53
809.88	229.49
810.20	229.48
810.52	229.48
810.84	229.44
811.16	229.42
811.48	229.41
811.80	229.40
812.12	229.37
812.43	229.37
812.75	229.32
813.07	229.28
813.39	229.26
813.71	229.20
814.03	229.14
814.35	229.13
814.67	229.11
814.98	229.05
815.30	229.02
815.62	228.99
815.94	228.92
816.26	228.95
816.58	228.87
816.89	228.87
817.21	228.80
817.53	228.79
817.85	228.77
818.17	228.76
818.48	228.70
818.80	228.71
819.12	228.69
819.44	228.63
819.76	228.64
820.07	228.64
820.39	228.63
820.71	228.64
821.03	228.60
821.34	228.52
821.66	228.53
821.98	228.51
822.30	228.48
822.61	228.49
822.93	228.43
823.25	228.45
823.57	228.40
823.88	228.44
824.20	228.43
824.52	228.43
824.83	228.41
825.15	228.39
825.47	228.35
825.79	228.32
826.10	228.31
826.42	228.26
826.74	228.27
827.05	228.24
827.37	228.23
827.69	228.23
828.00	228.26
828.32	228.24
828.64	228.23
828.95	228.26
829.27	228.21
829.58	228.20
829.90	228.19
830.22	228.19
830.53	228.15
830.85	228.13
831.17	228.09
831.48	228.08
831.80	228.08
832.11	228.07
832.43	228.07
832.75	228.10
833.06	228.18
833.38	228.13
833.69	228.13
834.01	228.11
834.32	228.09
834.64	228.08
834.96	228.08
835.27	228.09
835.59	228.06
835.90	228.05
836.22	228.05
836.53	228.03
836.85	228.05
837.16	228.14
837.48	228.15
837.79	228.23
838.11	228.23
838.42	228.22
838.74	228.25
839.05	228.24
839.37	228.22
839.68	228.15
840.00	228.16
840.31	228.21
840.63	228.20
840.94	228.19
841.26	228.18
841.57	228.16
841.88	228.16
842.20	228.16
842.51	228.16
842.83	228.16
843.14	228.25
843.46	228.20
843.77	228.12
844.08	228.09
844.40	228.01
844.71	228.00
845.03	227.98
845.34	227.97
845.65	227.95
845.97	227.96
846.28	227.95
846.60	227.94
846.91	227.90
847.22	227.89
847.54	227.90
847.85	227.88
848.16	227.87
848.48	227.82
848.79	227.85
849.10	227.88
849.42	227.87
849.73	227.78
850.04	227.77
850.36	227.73
850.67	227.74
850.98	227.71
851.30	227.72
851.61	227.74
851.92	227.72
852.23	227.73
852.55	227.72
852.86	227.71
853.17	227.71
853.49	227.72
853.80	227.71
854.11	227.71
854.42	227.69
854.74	227.63
855.05	227.66
855.36	227.61
855.67	227.60
855.99	227.58
856.30	227.67
856.61	227.68
856.92	227.71
857.23	227.69
857.55	227.68
857.86	227.65
858.17	227.64
858.48	227.59
858.79	227.58
859.11	227.59
859.42	227.56
859.73	227.54
860.04	227.52
860.35	227.50
860.66	227.45
860.98	227.46
861.29	227.50
861.60	227.44
861.91	227.45
862.22	227.40
862.53	227.39
862.84	227.27
863.16	227.26
863.47	227.22
863.78	227.21
864.09	227.22
864.40	227.23
864.71	227.20
865.02	227.21
865.33	227.22
865.64	227.18
865.95	227.19
866.27	227.25
866.58	227.23
866.89	227.26
867.20	227.26
867.51	227.27
867.82	227.28
868.13	227.36
868.44	227.34
868.75	227.38
869.06	227.39
869.37	227.42
869.68	227.41
869.99	227.41
870.30	227.45
870.61	227.47
870.92	227.47
871.23	227.49
871.54	227.51
871.85	227.53
872.16	227.57
872.47	227.56
872.78	227.52
873.09	227.59
873.40	227.60
873.71	227.63
874.02	227.62
874.33	227.60
874.64	227.55
874.95	227.56
875.26	227.52
875.56	227.53
875.87	227.50
876.18	227.50
876.49	227.64
876.80	227.64
877.11	227.64
877.42	227.67
877.73	227.68
878.04	227.69
878.35	227.70
878.66	227.68
878.96	227.67
879.27	227.68
879.58	227.65
879.89	227.63
880.20	227.65
880.51	227.66
880.82	227.68
881.12	227.71
881.43	227.70
881.74	227.70
882.05	227.68
882.36	227.73
882.67	227.72
882.97	227.59
883.28	227.57
883.59	227.54
883.90	227.53
884.21	227.54
884.51	227.51
884.82	227.47
885.13	227.51
885.44	227.54
885.74	227.50
886.05	227.43
886.36	227.40
886.67	227.34
886.98	227.37
887.28	227.37
887.59	227.32
887.90	227.28
888.20	227.27
888.51	227.27
888.82	227.23
889.13	227.25
889.43	227.31
889.74	227.29
890.05	227.29
890.35	227.26
890.66	227.22
890.97	227.19
891.28	227.14
891.58	227.07
891.89	227.02
892.20	227.01
892.50	227.07
892.81	227.06
893.12	227.06
893.42	227.01
893.73	227.01
894.04	227.02
894.34	227.05
894.65	227.04
894.95	227.03
895.26	227.01
895.57	227.02
895.87	226.95
896.18	226.93
896.48	226.91
896.79	226.87
897.10	226.89
897.40	226.91
897.71	226.92
898.01	226.94
898.32	226.96
898.63	226.95
898.93	226.90
899.24	226.91
899.54	226.89
899.85	226.90
900.15	226.86
900.46	226.86
900.76	226.87
901.07	226.86
901.38	226.86
901.68	226.89
901.99	226.87
902.29	226.84
902.60	226.87
902.90	226.88
903.21	226.92
903.51	226.87
903.82	226.89
904.12	226.91
904.43	226.93
904.73	226.95
905.03	226.96
905.34	227.07
905.64	227.08
905.95	227.08
906.25	227.09
906.56	227.06
906.86	227.07
907.17	227.08
907.47	227.13
907.77	227.10
908.08	227.09
908.38	227.09
908.69	227.13
908.99	227.11
909.30	227.13
909.60	227.10
909.90	227.13
910.21	227.09
910.51	227.10
910.81	227.09
911.12	227.08
911.42	227.06
911.73	226.99
912.03	227.00
912.33	227.02
912.64	227.01
912.94	227.06
913.24	227.04
913.55	227.02
913.85	226.99
914.15	227.03
914.46	227.03
914.76	227.01
915.06	227.02
915.37	227.04
915.67	227.01
915.97	227.02
916.27	227.03
916.58	227.05
916.88	227.06
917.18	227.07
917.49	227.15
917.79	227.16
918.09	227.17
918.39	227.21
918.70	227.25
919.00	227.26
919.30	227.28
919.60	227.27
919.91	227.26
920.21	227.28
920.51	227.25
920.81	227.22
921.12	227.25
921.42	227.24
921.72	227.26
922.02	227.29
922.32	227.34
922.63	227.37
922.93	227.41
923.23	227.43
923.53	227.41
923.83	227.33
924.13	227.35
924.44	227.34
924.74	227.38
925.04	227.38
925.34	227.36
925.64	227.34
925.94	227.36
926.24	227.44
926.55	227.45
926.85	227.48
927.15	227.52
927.45	227.55
927.75	227.54
928.05	227.54
928.35	227.56
928.65	227.57
928.95	227.55
929.26	227.52
929.56	227.49
929.86	227.52
930.16	227.51
930.46	227.50
930.76	227.50
931.06	227.43
931.36	227.40
931.66	227.44
931.96	227.48
932.26	227.45
932.56	227.41
932.86	227.39
933.16	227.37
933.46	227.35
933.76	227.30
934.06	227.32
934.36	227.35
934.66	227.31
934.96	227.28
935.26	227.28
935.56	227.29
935.86	227.28
936.16	227.24
936.46	227.23
936.76	227.21
937.06	227.22
937.36	227.22
937.66	227.21
937.96	227.17
938.26	227.10
938.56	227.11
938.86	227.09
939.16	227.11
939.46	227.13
939.76	227.16
940.06	227.17
940.35	227.16
940.65	227.09
940.95	227.09
941.25	227.08
941.55	227.04
941.85	227.04
942.15	227.07
942.45	227.11
942.75	227.12
943.04	227.13
943.34	227.12
943.64	227.11
943.94	227.11
944.24	227.16
944.54	227.18
944.84	227.16
945.13	227.17
945.43	227.15
945.73	227.13
946.03	227.10
946.33	227.08
946.62	227.07
946.92	227.08
947.22	227.10
947.52	227.09
947.82	227.12
948.11	227.13
948.41	227.12
948.71	227.07
949.01	227.07
949.31	227.06
949.60	227.05
949.90	227.06
950.20	227.07
950.50	227.06
950.79	227.05
951.09	227.13
951.39	227.10
951.69	227.07
951.98	227.09
952.28	227.11
952.58	227.10
952.87	227.11
953.17	227.13
953.47	227.12
953.76	227.11
954.06	227.10
954.36	227.05
954.66	227.05
954.95	227.08
955.25	227.10
955.55	227.09
955.84	227.09
956.14	227.11
956.44	227.08
956.73	227.04
957.03	227.05
957.32	227.00
957.62	227.00
957.92	227.05
958.21	227.06
958.51	227.15
958.81	227.17
959.10	227.17
959.40	227.17
959.69	227.17
959.99	227.20
960.29	227.17
960.58	227.19
960.88	227.21
961.17	227.18
961.47	227.17
961.76	227.19
962.06	227.18
962.36	227.15
962.65	227.16
962.95	227.16
963.24	227.14
963.54	227.13
963.83	227.15
964.13	227.12
964.42	227.06
964.72	226.99
965.01	226.95
965.31	226.93
965.60	226.89
965.90	226.93
966.19	226.91
966.49	226.92
966.78	226.90
967.08	226.92
967.37	226.93
967.67	226.92
967.96	226.92
968.26	226.91
968.55	226.91
968.85	226.91
969.14	226.91
969.43	226.91
969.73	226.92
970.02	226.87
970.32	226.87
970.61	226.87
970.91	226.83
971.20	226.84
971.49	226.82
971.79	226.85
972.08	226.80
972.38	226.77
972.67	226.77
972.96	226.77
973.26	226.71
973.55	226.72
973.85	226.71
974.14	226.70
974.43	226.73
974.73	226.72
975.02	226.71
975.31	226.73
975.61	226.72
975.90	226.69
976.19	226.72
976.49	226.69
976.78	226.68
977.07	226.68
977.37	226.66
977.66	226.68
977.95	226.67
978.24	226.69
978.54	226.73
978.83	226.72
979.12	226.72
979.42	226.76
979.71	226.77
980.00	226.79
980.29	226.79
980.59	226.76
980.88	226.81
981.17	226.84
981.46	226.84
981.76	226.83
982.05	226.90
982.34	226.88
982.63	226.91
982.93	226.95
983.22	226.96
983.51	226.99
983.80	227.02
984.09	227.03
984.39	227.01
984.68	226.99
984.97	227.00
985.26	226.99
985.55	226.98
985.85	226.94
986.14	226.96
986.43	226.99
986.72	226.98
987.01	226.93
987.30	226.90
987.59	226.88
987.89	226.93
988.18	226.89
988.47	226.95
988.76	226.90
989.05	226.89
989.34	226.88
989.63	226.92
989.92	226.90
990.22	226.88
990.51	226.88
990.80	226.88
991.09	226.90
991.38	226.91
991.67	226.91
991.96	226.93
992.25	226.92
992.54	226.88
992.83	226.88
993.12	226.88
993.41	226.88
993.70	226.93
993.99	226.95
994.28	226.96
994.58	226.96
994.87	226.97
995.16	226.99
995.45	227.01
995.74	226.98
996.03	226.98
996.32	227.00
996.61	227.07
996.90	227.06
997.19	227.06
997.48	227.09
997.77	227.09
998.06	227.05
998.34	227.07
998.63	227.05
998.92	227.05
999.21	227.11
999.50	227.14
999.79	227.14
1000.08	227.12
1000.37	227.12
1000.66	227.11
1000.95	227.15
1001.24	227.13
1001.53	227.13
1001.82	227.13
1002.11	227.12
1002.40	227.18
1002.68	227.15
1002.97	227.27
1003.26	227.26
1003.55	227.23
1003.84	227.23
1004.13	227.30
1004.42	227.29
1004.71	227.31
1004.99	227.32
1005.28	227.28
1005.57	227.25
1005.86	227.22
1006.15	227.17
1006.44	227.13
1006.72	227.14
1007.01	227.13
1007.30	227.12
1007.59	227.13
1007.88	227.14
1008.17	227.14
1008.45	227.10
1008.74	227.08
1009.03	227.01
1009.32	227.03
1009.60	227.03
1009.89	227.01
1010.18	226.94
1010.47	226.92
1010.76	226.90
1011.04	226.89
1011.33	226.92
1011.62	226.95
1011.91	226.92
1012.19	226.95
1012.48	226.96
1012.77	226.96
1013.05	226.97
1013.34	226.98
1013.63	226.96
1013.92	226.95
1014.20	226.93
1014.49	226.91
1014.78	226.92
1015.06	226.87
1015.35	226.87
1015.64	226.88
1015.92	226.93
1016.21	226.96
1016.50	226.96
1016.78	226.95
1017.07	226.96
1017.36	226.93
1017.64	226.91
1017.93	226.94
1018.22	226.93
1018.50	226.93
1018.79	226.96
1019.08	226.91
1019.36	226.92
1019.65	226.89
1019.93	226.91
1020.22	226.94
1020.51	226.99
1020.79	226.98
1021.08	226.63
1021.36	226.46
1021.65	227.69
1021.94	226.43
1022.22	227.23
1022.51	226.15
1022.79	227.27
1023.08	227.29
1023.36	228.05
1023.65	226.97
>>>>>End Processed Spectral Data<<<<<
