SpectraSuite Data File
++++++++++++++++++++++++++++++++++++
Date: Fri Feb 01 15:12:25 EST 2013
User: group
Dark Spectrum Present: No
Reference Spectrum Present: No
Number of Sampled Component Spectra: 1
Spectrometers: USB2E7196
Integration Time (usec): 35000 (USB2E7196)
Spectra Averaged: 100 (USB2E7196)
Boxcar Smoothing: 10 (USB2E7196)
Correct for Electrical Dark: No (USB2E7196)
Strobe/Lamp Enabled: No (USB2E7196)
Correct for Detector Non-linearity: No (USB2E7196)
Correct for Stray Light: No (USB2E7196)
Number of Pixels in Processed Spectrum: 2048
>>>>>Begin Processed Spectral Data<<<<<
339.09	0.00
339.48	216.26
339.86	216.80
340.24	218.50
340.63	219.48
341.01	222.42
341.39	221.85
341.78	223.97
342.16	225.23
342.54	225.38
342.93	213.86
343.31	224.66
343.69	225.17
344.07	225.63
344.46	226.04
344.84	226.45
345.22	226.70
345.60	226.97
345.99	227.15
346.37	227.26
346.75	227.36
347.13	227.41
347.52	227.44
347.90	227.51
348.28	227.51
348.66	227.52
349.05	227.50
349.43	227.52
349.81	227.56
350.19	227.64
350.57	227.68
350.96	227.73
351.34	227.82
351.72	227.89
352.10	227.98
352.48	228.01
352.87	228.01
353.25	228.05
353.63	228.11
354.01	228.16
354.39	228.17
354.77	228.24
355.15	228.31
355.54	228.35
355.92	228.37
356.30	228.43
356.68	228.55
357.06	228.62
357.44	228.68
357.82	228.73
358.20	228.79
358.58	228.86
358.97	228.91
359.35	228.96
359.73	229.03
360.11	229.07
360.49	229.15
360.87	229.20
361.25	229.25
361.63	229.31
362.01	229.34
362.39	229.41
362.77	229.43
363.15	229.50
363.53	229.54
363.91	229.56
364.29	229.54
364.67	229.47
365.05	229.50
365.43	229.53
365.81	229.54
366.19	229.57
366.57	229.59
366.95	229.57
367.33	229.53
367.71	229.49
368.09	229.50
368.47	229.51
368.85	229.50
369.23	229.47
369.61	229.43
369.99	229.41
370.37	229.40
370.75	229.40
371.13	229.29
371.51	229.20
371.89	229.17
372.27	229.15
372.65	229.09
373.03	229.04
373.41	228.95
373.78	228.86
374.16	228.75
374.54	228.67
374.92	228.58
375.30	228.50
375.68	228.43
376.06	228.34
376.44	228.24
376.82	228.16
377.19	228.09
377.57	228.00
377.95	227.92
378.33	227.81
378.71	227.71
379.09	227.69
379.47	227.67
379.84	227.58
380.22	227.50
380.60	227.41
380.98	227.31
381.36	227.23
381.73	227.14
382.11	227.10
382.49	227.04
382.87	226.99
383.25	226.96
383.62	226.99
384.00	226.90
384.38	226.82
384.76	226.82
385.13	226.83
385.51	226.79
385.89	226.74
386.27	226.72
386.64	226.69
387.02	226.64
387.40	226.57
387.78	226.55
388.15	226.52
388.53	226.51
388.91	226.49
389.29	226.48
389.66	226.51
390.04	226.49
390.42	226.47
390.79	226.44
391.17	226.40
391.55	226.30
391.92	226.35
392.30	226.36
392.68	226.32
393.05	226.29
393.43	226.31
393.81	226.33
394.18	226.35
394.56	226.37
394.94	226.40
395.31	226.44
395.69	226.49
396.06	226.55
396.44	226.59
396.82	226.63
397.19	226.74
397.57	226.77
397.95	226.80
398.32	226.84
398.70	226.92
399.07	227.04
399.45	227.11
399.82	227.15
400.20	227.22
400.58	227.34
400.95	227.36
401.33	227.47
401.70	227.61
402.08	227.66
402.45	227.76
402.83	227.90
403.20	228.00
403.58	228.13
403.95	228.28
404.33	228.40
404.71	228.52
405.08	228.69
405.46	228.83
405.83	229.02
406.21	229.18
406.58	229.33
406.96	229.47
407.33	229.69
407.70	229.90
408.08	230.21
408.45	230.42
408.83	230.65
409.20	230.85
409.58	231.04
409.95	231.32
410.33	231.59
410.70	231.83
411.08	232.10
411.45	232.41
411.82	232.70
412.20	233.06
412.57	233.48
412.95	233.79
413.32	234.21
413.69	234.59
414.07	235.03
414.44	235.52
414.82	236.02
415.19	236.55
415.56	237.09
415.94	237.62
416.31	238.27
416.68	238.93
417.06	239.68
417.43	240.36
417.81	241.13
418.18	241.92
418.55	242.77
418.93	243.67
419.30	244.55
419.67	245.48
420.04	246.46
420.42	247.46
420.79	248.63
421.16	249.79
421.54	251.02
421.91	252.26
422.28	253.52
422.66	254.87
423.03	256.16
423.40	257.50
423.77	258.94
424.15	260.35
424.52	261.86
424.89	263.45
425.26	265.02
425.64	266.45
426.01	268.05
426.38	269.68
426.75	271.38
427.13	273.11
427.50	274.94
427.87	276.83
428.24	278.68
428.61	280.42
428.99	282.37
429.36	284.48
429.73	286.52
430.10	288.50
430.47	290.54
430.85	292.68
431.22	294.94
431.59	297.30
431.96	299.52
432.33	302.01
432.70	304.43
433.08	307.26
433.45	309.93
433.82	312.53
434.19	315.44
434.56	318.25
434.93	320.90
435.30	323.53
435.68	326.40
436.05	329.23
436.42	332.06
436.79	334.59
437.16	337.30
437.53	340.17
437.90	343.07
438.27	345.89
438.64	348.74
439.01	351.34
439.38	353.54
439.75	355.73
440.13	358.23
440.50	360.55
440.87	362.41
441.24	364.36
441.61	366.53
441.98	367.98
442.35	369.77
442.72	371.65
443.09	373.47
443.46	374.53
443.83	375.15
444.20	375.63
444.57	376.50
444.94	376.77
445.31	377.09
445.68	377.39
446.05	377.42
446.42	377.02
446.79	376.61
447.16	376.19
447.53	375.85
447.90	374.67
448.27	373.47
448.64	371.85
449.01	370.70
449.37	368.73
449.74	366.87
450.11	364.62
450.48	362.13
450.85	359.54
451.22	357.36
451.59	355.33
451.96	353.37
452.33	350.72
452.70	348.35
453.07	345.51
453.43	342.61
453.80	339.81
454.17	337.12
454.54	334.56
454.91	331.82
455.28	329.13
455.65	326.66
456.02	324.20
456.38	322.08
456.75	319.40
457.12	317.14
457.49	314.89
457.86	312.72
458.23	310.88
458.59	308.84
458.96	306.71
459.33	304.83
459.70	302.98
460.07	301.46
460.43	299.73
460.80	298.10
461.17	296.68
461.54	295.20
461.91	293.78
462.27	292.29
462.64	291.03
463.01	289.66
463.38	288.33
463.74	286.95
464.11	285.76
464.48	284.74
464.85	283.65
465.21	282.78
465.58	281.83
465.95	280.70
466.32	279.79
466.68	278.88
467.05	277.95
467.42	277.04
467.78	276.12
468.15	275.25
468.52	274.58
468.88	273.72
469.25	272.96
469.62	272.33
469.98	271.67
470.35	271.02
470.72	270.44
471.08	269.76
471.45	269.24
471.82	268.67
472.18	268.08
472.55	267.60
472.92	267.07
473.28	266.61
473.65	266.19
474.02	265.77
474.38	265.39
474.75	265.06
475.11	264.73
475.48	264.48
475.85	264.20
476.21	263.97
476.58	263.74
476.94	263.56
477.31	263.36
477.67	263.25
478.04	263.17
478.41	263.13
478.77	263.15
479.14	263.09
479.50	263.12
479.87	263.16
480.23	263.22
480.60	263.30
480.96	263.40
481.33	263.58
481.69	263.75
482.06	263.98
482.42	264.18
482.79	264.42
483.15	264.73
483.52	265.13
483.88	265.51
484.25	265.91
484.61	266.34
484.98	266.80
485.34	267.31
485.71	267.87
486.07	268.46
486.44	269.03
486.80	269.71
487.17	270.42
487.53	271.24
487.90	272.09
488.26	273.02
488.62	273.97
488.99	274.96
489.35	276.01
489.72	277.12
490.08	278.33
490.44	279.57
490.81	280.88
491.17	282.22
491.54	283.66
491.90	285.19
492.26	286.82
492.63	288.54
492.99	290.32
493.36	292.20
493.72	294.21
494.08	296.34
494.45	298.57
494.81	300.93
495.17	303.35
495.54	305.97
495.90	308.61
496.26	311.41
496.63	314.35
496.99	317.44
497.35	320.65
497.72	324.02
498.08	327.52
498.44	331.16
498.80	335.06
499.17	339.11
499.53	343.24
499.89	347.60
500.26	352.11
500.62	356.75
500.98	361.67
501.34	366.76
501.71	372.07
502.07	377.51
502.43	383.11
502.79	388.92
503.16	394.90
503.52	401.13
503.88	407.50
504.24	414.12
504.60	421.00
504.97	428.15
505.33	435.47
505.69	443.15
506.05	450.95
506.41	458.89
506.78	467.00
507.14	475.44
507.50	484.10
507.86	493.13
508.22	502.34
508.59	511.54
508.95	521.16
509.31	530.94
509.67	541.01
510.03	551.35
510.39	561.92
510.75	572.76
511.12	583.72
511.48	595.06
511.84	606.53
512.20	618.04
512.56	629.97
512.92	642.18
513.28	654.51
513.64	666.99
514.00	679.69
514.37	692.62
514.73	705.62
515.09	718.70
515.45	731.90
515.81	745.54
516.17	759.59
516.53	773.62
516.89	787.81
517.25	802.04
517.61	816.46
517.97	830.96
518.33	845.42
518.69	860.29
519.05	875.33
519.41	890.57
519.77	906.15
520.13	921.69
520.49	937.08
520.85	952.56
521.21	968.37
521.57	984.67
521.93	1000.52
522.29	1017.12
522.65	1033.42
523.01	1049.86
523.37	1065.87
523.73	1082.03
524.09	1098.09
524.45	1114.58
524.81	1131.22
525.17	1148.12
525.53	1165.02
525.89	1181.93
526.25	1198.78
526.61	1215.17
526.97	1231.88
527.33	1248.45
527.68	1265.00
528.04	1281.48
528.40	1298.17
528.76	1315.33
529.12	1331.93
529.48	1348.86
529.84	1364.99
530.20	1381.75
530.56	1398.72
530.91	1416.21
531.27	1433.04
531.63	1449.69
531.99	1466.25
532.35	1482.31
532.71	1498.16
533.07	1514.46
533.42	1530.44
533.78	1546.54
534.14	1562.92
534.50	1578.31
534.86	1594.25
535.21	1609.63
535.57	1625.82
535.93	1641.38
536.29	1656.18
536.65	1671.27
537.00	1686.27
537.36	1701.55
537.72	1716.12
538.08	1730.65
538.44	1744.55
538.79	1758.54
539.15	1772.40
539.51	1786.38
539.87	1800.83
540.22	1814.71
540.58	1828.66
540.94	1842.06
541.29	1855.21
541.65	1868.03
542.01	1881.37
542.37	1893.80
542.72	1906.23
543.08	1918.16
543.44	1930.63
543.79	1941.97
544.15	1953.06
544.51	1964.59
544.87	1975.67
545.22	1986.46
545.58	1996.72
545.94	2006.63
546.29	2016.67
546.65	2026.44
547.01	2035.56
547.36	2044.33
547.72	2052.81
548.07	2060.64
548.43	2068.89
548.79	2076.90
549.14	2084.35
549.50	2091.74
549.86	2099.43
550.21	2106.84
550.57	2114.00
550.92	2120.45
551.28	2127.48
551.64	2134.58
551.99	2141.11
552.35	2147.26
552.70	2153.38
553.06	2159.38
553.41	2165.67
553.77	2171.66
554.13	2177.87
554.48	2183.97
554.84	2189.35
555.19	2194.76
555.55	2199.92
555.90	2204.35
556.26	2209.09
556.61	2213.87
556.97	2218.02
557.32	2222.04
557.68	2226.18
558.03	2230.33
558.39	2234.12
558.74	2238.70
559.10	2242.56
559.45	2246.17
559.81	2250.42
560.16	2254.23
560.52	2257.43
560.87	2260.84
561.23	2263.41
561.58	2266.31
561.94	2268.83
562.29	2271.33
562.64	2273.85
563.00	2276.43
563.35	2279.97
563.71	2283.11
564.06	2286.33
564.42	2289.30
564.77	2291.74
565.12	2293.91
565.48	2295.69
565.83	2297.46
566.19	2298.68
566.54	2299.55
566.89	2300.70
567.25	2301.25
567.60	2302.66
567.96	2304.11
568.31	2304.86
568.66	2305.82
569.02	2306.29
569.37	2306.56
569.72	2307.10
570.08	2307.12
570.43	2306.99
570.78	2306.21
571.14	2304.54
571.49	2303.08
571.84	2302.66
572.20	2301.46
572.55	2300.23
572.90	2298.68
573.26	2297.16
573.61	2295.48
573.96	2293.58
574.31	2290.47
574.67	2287.25
575.02	2283.46
575.37	2280.10
575.72	2276.15
576.08	2272.72
576.43	2269.18
576.78	2265.42
577.13	2262.35
577.49	2259.37
577.84	2255.85
578.19	2252.09
578.54	2248.34
578.90	2243.92
579.25	2238.26
579.60	2233.15
579.95	2228.13
580.30	2222.90
580.66	2217.68
581.01	2212.51
581.36	2207.44
581.71	2203.00
582.06	2198.54
582.42	2193.91
582.77	2188.52
583.12	2183.76
583.47	2178.94
583.82	2173.97
584.17	2168.67
584.53	2163.12
584.88	2157.28
585.23	2151.32
585.58	2145.68
585.93	2140.13
586.28	2135.33
586.63	2130.13
586.98	2124.99
587.34	2120.13
587.69	2115.23
588.04	2109.89
588.39	2104.20
588.74	2097.76
589.09	2091.70
589.44	2084.91
589.79	2078.79
590.14	2073.20
590.49	2066.63
590.84	2060.25
591.19	2054.08
591.54	2047.52
591.89	2039.85
592.25	2032.94
592.60	2025.77
592.95	2018.15
593.30	2010.68
593.65	2002.91
594.00	1995.92
594.35	1988.71
594.70	1980.60
595.05	1973.27
595.40	1965.92
595.75	1958.39
596.10	1951.97
596.45	1944.95
596.80	1938.66
597.15	1931.85
597.50	1924.54
597.85	1917.95
598.19	1911.30
598.54	1904.20
598.89	1897.44
599.24	1891.58
599.59	1884.74
599.94	1878.53
600.29	1872.18
600.64	1865.64
600.99	1858.19
601.34	1851.09
601.69	1844.07
602.04	1837.13
602.39	1829.77
602.74	1822.86
603.08	1816.08
603.43	1809.30
603.78	1802.07
604.13	1794.72
604.48	1787.46
604.83	1780.69
605.18	1773.71
605.53	1765.54
605.87	1757.36
606.22	1750.08
606.57	1742.09
606.92	1734.88
607.27	1727.57
607.62	1720.64
607.96	1713.35
608.31	1706.75
608.66	1699.17
609.01	1691.49
609.36	1683.84
609.70	1675.76
610.05	1667.57
610.40	1659.78
610.75	1651.54
611.10	1643.88
611.44	1635.58
611.79	1627.73
612.14	1619.00
612.49	1609.92
612.83	1601.58
613.18	1593.53
613.53	1585.47
613.88	1577.05
614.22	1568.67
614.57	1560.13
614.92	1552.00
615.27	1544.38
615.61	1535.95
615.96	1527.92
616.31	1520.33
616.65	1513.08
617.00	1505.64
617.35	1498.07
617.70	1489.66
618.04	1481.08
618.39	1472.87
618.74	1465.23
619.08	1456.94
619.43	1449.40
619.78	1442.51
620.12	1435.39
620.47	1427.84
620.82	1419.60
621.16	1412.01
621.51	1404.55
621.85	1396.93
622.20	1388.48
622.55	1380.15
622.89	1372.45
623.24	1364.94
623.59	1357.67
623.93	1350.14
624.28	1342.83
624.62	1335.37
624.97	1328.31
625.32	1321.62
625.66	1314.66
626.01	1307.41
626.35	1299.90
626.70	1292.17
627.04	1284.35
627.39	1276.53
627.73	1269.18
628.08	1262.35
628.43	1255.05
628.77	1247.53
629.12	1239.94
629.46	1232.81
629.81	1225.47
630.15	1218.20
630.50	1210.87
630.84	1202.61
631.19	1194.77
631.53	1187.30
631.88	1179.70
632.22	1172.08
632.57	1164.81
632.91	1157.16
633.26	1149.82
633.60	1142.43
633.95	1135.36
634.29	1128.41
634.64	1121.73
634.98	1114.44
635.32	1107.30
635.67	1100.86
636.01	1094.26
636.36	1087.48
636.70	1080.99
637.05	1074.38
637.39	1067.98
637.73	1061.41
638.08	1055.57
638.42	1049.53
638.77	1043.11
639.11	1036.63
639.45	1030.34
639.80	1023.69
640.14	1017.33
640.49	1010.86
640.83	1004.64
641.17	998.44
641.52	992.16
641.86	985.71
642.20	979.88
642.55	973.69
642.89	967.14
643.23	960.59
643.58	954.82
643.92	948.56
644.26	942.44
644.61	936.37
644.95	930.35
645.29	923.78
645.64	917.03
645.98	910.76
646.32	904.97
646.66	898.95
647.01	893.15
647.35	887.49
647.69	881.70
648.04	876.21
648.38	870.45
648.72	864.40
649.06	858.39
649.41	852.41
649.75	846.37
650.09	840.45
650.43	834.69
650.78	828.52
651.12	822.54
651.46	816.91
651.80	811.14
652.14	805.77
652.49	800.44
652.83	795.22
653.17	789.46
653.51	783.59
653.85	778.11
654.20	772.47
654.54	766.51
654.88	760.72
655.22	754.80
655.56	749.07
655.90	743.69
656.25	738.49
656.59	733.24
656.93	728.13
657.27	722.96
657.61	717.63
657.95	712.53
658.29	707.46
658.64	702.19
658.98	696.97
659.32	691.43
659.66	686.20
660.00	680.94
660.34	676.03
660.68	671.24
661.02	666.22
661.36	661.53
661.70	657.00
662.05	652.66
662.39	648.31
662.73	643.89
663.07	639.53
663.41	635.07
663.75	630.56
664.09	626.06
664.43	621.70
664.77	617.57
665.11	613.43
665.45	609.40
665.79	605.34
666.13	601.16
666.47	597.16
666.81	593.02
667.15	588.96
667.49	585.17
667.83	581.37
668.17	577.54
668.51	573.51
668.85	569.52
669.19	565.68
669.53	561.80
669.87	557.88
670.21	554.19
670.55	550.60
670.89	547.21
671.23	543.79
671.57	540.34
671.91	536.80
672.25	533.27
672.58	529.74
672.92	526.38
673.26	523.31
673.60	520.21
673.94	517.12
674.28	514.29
674.62	511.33
674.96	508.25
675.30	505.31
675.64	502.35
675.97	499.62
676.31	496.74
676.65	493.94
676.99	491.25
677.33	488.42
677.67	485.61
678.01	482.58
678.34	479.60
678.68	476.78
679.02	474.00
679.36	471.24
679.70	468.55
680.04	465.81
680.37	462.94
680.71	460.12
681.05	457.49
681.39	454.71
681.73	452.05
682.06	449.53
682.40	447.00
682.74	444.50
683.08	441.90
683.42	439.37
683.75	436.90
684.09	434.39
684.43	431.91
684.77	429.41
685.10	427.09
685.44	424.77
685.78	422.46
686.12	420.22
686.45	418.03
686.79	415.73
687.13	413.53
687.46	411.43
687.80	409.28
688.14	407.07
688.48	405.07
688.81	402.80
689.15	400.66
689.49	398.52
689.82	396.44
690.16	394.35
690.50	392.35
690.83	390.38
691.17	388.43
691.51	386.53
691.84	384.72
692.18	382.76
692.52	380.79
692.85	378.86
693.19	376.97
693.52	375.09
693.86	373.24
694.20	371.47
694.53	369.62
694.87	367.77
695.21	366.04
695.54	364.14
695.88	362.39
696.21	360.66
696.55	358.98
696.88	357.34
697.22	355.74
697.56	354.17
697.89	352.51
698.23	350.88
698.56	349.27
698.90	347.68
699.23	346.03
699.57	344.52
699.90	342.95
700.24	341.40
700.58	339.87
700.91	338.41
701.25	336.95
701.58	335.58
701.92	334.24
702.25	332.82
702.59	331.47
702.92	330.21
703.26	328.86
703.59	327.58
703.93	326.37
704.26	325.14
704.60	323.83
704.93	322.58
705.26	321.31
705.60	320.18
705.93	319.03
706.27	318.01
706.60	316.97
706.94	315.90
707.27	314.78
707.61	313.73
707.94	312.72
708.27	311.62
708.61	310.55
708.94	309.53
709.28	308.59
709.61	307.65
709.94	306.67
710.28	305.66
710.61	304.69
710.95	303.64
711.28	302.73
711.61	301.79
711.95	300.88
712.28	299.95
712.61	298.93
712.95	298.02
713.28	297.15
713.61	296.19
713.95	295.35
714.28	294.55
714.61	293.69
714.95	292.83
715.28	292.00
715.61	291.13
715.95	290.33
716.28	289.47
716.61	288.67
716.95	287.89
717.28	287.17
717.61	286.42
717.94	285.69
718.28	284.86
718.61	284.15
718.94	283.44
719.27	282.81
719.61	282.20
719.94	281.50
720.27	280.77
720.60	280.17
720.94	279.53
721.27	278.94
721.60	278.38
721.93	277.84
722.27	277.33
722.60	276.80
722.93	276.19
723.26	275.66
723.59	275.08
723.93	274.54
724.26	273.99
724.59	273.45
724.92	272.93
725.25	272.46
725.59	271.90
725.92	271.39
726.25	270.88
726.58	270.41
726.91	269.93
727.24	269.49
727.57	269.03
727.91	268.52
728.24	268.04
728.57	267.55
728.90	267.11
729.23	266.59
729.56	266.13
729.89	265.70
730.22	265.23
730.55	264.77
730.89	264.33
731.22	263.93
731.55	263.49
731.88	263.10
732.21	262.69
732.54	262.31
732.87	261.92
733.20	261.57
733.53	261.19
733.86	260.82
734.19	260.43
734.52	260.04
734.85	259.74
735.18	259.32
735.51	258.93
735.84	258.52
736.17	258.16
736.50	257.77
736.83	257.53
737.16	257.18
737.49	256.88
737.82	256.55
738.15	256.19
738.48	255.89
738.81	255.52
739.14	255.19
739.47	254.88
739.80	254.55
740.13	254.20
740.46	253.84
740.79	253.49
741.12	253.15
741.45	252.85
741.78	252.47
742.11	252.18
742.44	251.83
742.77	251.56
743.10	251.28
743.43	250.99
743.75	250.58
744.08	250.46
744.41	250.14
744.74	249.80
745.07	249.54
745.40	249.28
745.73	249.08
746.06	248.77
746.39	248.52
746.71	248.25
747.04	247.97
747.37	247.73
747.70	247.49
748.03	247.23
748.36	246.98
748.68	246.76
749.01	246.53
749.34	246.35
749.67	246.09
750.00	245.86
750.33	245.69
750.65	245.48
750.98	245.11
751.31	244.89
751.64	244.72
751.97	244.53
752.29	244.33
752.62	244.05
752.95	243.87
753.28	243.61
753.60	243.39
753.93	243.21
754.26	243.00
754.59	242.78
754.91	242.60
755.24	242.42
755.57	242.23
755.90	242.03
756.22	241.85
756.55	241.66
756.88	241.49
757.20	241.23
757.53	241.02
757.86	240.84
758.19	240.70
758.51	240.52
758.84	240.32
759.17	240.11
759.49	239.96
759.82	239.86
760.15	239.78
760.47	239.67
760.80	239.51
761.13	239.37
761.45	239.22
761.78	239.06
762.11	238.87
762.43	238.73
762.76	238.59
763.08	238.47
763.41	238.37
763.74	238.19
764.06	238.07
764.39	237.98
764.71	237.87
765.04	237.73
765.37	237.59
765.69	237.45
766.02	237.33
766.34	237.18
766.67	237.00
767.00	236.88
767.32	236.78
767.65	236.71
767.97	236.59
768.30	236.51
768.62	236.42
768.95	236.35
769.27	236.26
769.60	236.16
769.92	236.03
770.25	235.88
770.57	235.78
770.90	235.70
771.22	235.57
771.55	235.48
771.87	235.39
772.20	235.32
772.52	235.32
772.85	235.33
773.17	235.24
773.50	235.15
773.82	235.04
774.15	234.95
774.47	234.78
774.80	234.69
775.12	234.59
775.45	234.52
775.77	234.40
776.09	234.32
776.42	234.26
776.74	234.23
777.07	234.16
777.39	234.12
777.72	234.03
778.04	234.00
778.36	233.91
778.69	233.83
779.01	233.77
779.33	233.61
779.66	233.46
779.98	233.38
780.31	233.31
780.63	233.27
780.95	233.21
781.28	233.15
781.60	233.03
781.92	232.95
782.25	232.85
782.57	232.80
782.89	232.70
783.22	232.61
783.54	232.50
783.86	232.46
784.19	232.37
784.51	232.35
784.83	232.28
785.16	232.22
785.48	232.10
785.80	232.04
786.12	231.96
786.45	231.91
786.77	231.88
787.09	231.83
787.42	231.74
787.74	231.70
788.06	231.68
788.38	231.69
788.71	231.66
789.03	231.64
789.35	231.61
789.67	231.54
789.99	231.49
790.32	231.44
790.64	231.40
790.96	231.45
791.28	231.38
791.61	231.31
791.93	231.28
792.25	231.30
792.57	231.30
792.89	231.26
793.21	231.20
793.54	231.16
793.86	231.10
794.18	231.06
794.50	230.96
794.82	230.89
795.14	230.85
795.47	230.81
795.79	230.74
796.11	230.67
796.43	230.65
796.75	230.61
797.07	230.59
797.39	230.56
797.71	230.44
798.04	230.40
798.36	230.37
798.68	230.33
799.00	230.29
799.32	230.23
799.64	230.27
799.96	230.27
800.28	230.23
800.60	230.22
800.92	230.24
801.24	230.22
801.56	230.20
801.89	230.16
802.21	230.16
802.53	230.14
802.85	230.16
803.17	230.18
803.49	230.13
803.81	230.11
804.13	230.08
804.45	230.06
804.77	230.04
805.09	230.01
805.41	229.97
805.73	229.91
806.05	229.88
806.37	229.80
806.69	229.75
807.01	229.72
807.33	229.69
807.65	229.60
807.97	229.64
808.28	229.64
808.60	229.63
808.92	229.60
809.24	229.63
809.56	229.59
809.88	229.53
810.20	229.53
810.52	229.51
810.84	229.45
811.16	229.40
811.48	229.37
811.80	229.39
812.12	229.38
812.43	229.41
812.75	229.38
813.07	229.34
813.39	229.30
813.71	229.27
814.03	229.23
814.35	229.22
814.67	229.14
814.98	229.10
815.30	229.08
815.62	229.05
815.94	228.97
816.26	229.00
816.58	228.98
816.89	228.97
817.21	228.93
817.53	228.93
817.85	228.91
818.17	228.90
818.48	228.84
818.80	228.82
819.12	228.77
819.44	228.73
819.76	228.72
820.07	228.71
820.39	228.69
820.71	228.70
821.03	228.67
821.34	228.67
821.66	228.69
821.98	228.69
822.30	228.64
822.61	228.67
822.93	228.58
823.25	228.56
823.57	228.55
823.88	228.56
824.20	228.57
824.52	228.60
824.83	228.56
825.15	228.58
825.47	228.60
825.79	228.58
826.10	228.59
826.42	228.54
826.74	228.57
827.05	228.58
827.37	228.56
827.69	228.55
828.00	228.53
828.32	228.53
828.64	228.47
828.95	228.53
829.27	228.52
829.58	228.53
829.90	228.53
830.22	228.49
830.53	228.47
830.85	228.45
831.17	228.42
831.48	228.42
831.80	228.37
832.11	228.36
832.43	228.35
832.75	228.37
833.06	228.43
833.38	228.38
833.69	228.37
834.01	228.37
834.32	228.37
834.64	228.35
834.96	228.32
835.27	228.31
835.59	228.25
835.90	228.21
836.22	228.19
836.53	228.18
836.85	228.17
837.16	228.27
837.48	228.24
837.79	228.23
838.11	228.23
838.42	228.24
838.74	228.24
839.05	228.23
839.37	228.17
839.68	228.11
840.00	228.11
840.31	228.11
840.63	228.08
840.94	228.06
841.26	228.07
841.57	228.04
841.88	228.07
842.20	228.04
842.51	228.04
842.83	228.05
843.14	228.16
843.46	228.15
843.77	228.06
844.08	228.05
844.40	228.03
844.71	228.02
845.03	228.03
845.34	228.03
845.65	228.05
845.97	228.04
846.28	228.05
846.60	228.06
846.91	228.06
847.22	228.06
847.54	228.09
847.85	228.06
848.16	228.06
848.48	228.04
848.79	228.08
849.10	228.07
849.42	228.06
849.73	227.93
850.04	227.90
850.36	227.88
850.67	227.87
850.98	227.90
851.30	227.89
851.61	227.86
851.92	227.81
852.23	227.81
852.55	227.81
852.86	227.82
853.17	227.80
853.49	227.82
853.80	227.84
854.11	227.83
854.42	227.85
854.74	227.85
855.05	227.85
855.36	227.83
855.67	227.83
855.99	227.85
856.30	227.96
856.61	227.98
856.92	227.96
857.23	228.00
857.55	227.96
857.86	227.95
858.17	227.98
858.48	227.97
858.79	227.92
859.11	227.91
859.42	227.91
859.73	227.89
860.04	227.88
860.35	227.85
860.66	227.80
860.98	227.79
861.29	227.79
861.60	227.78
861.91	227.79
862.22	227.76
862.53	227.73
862.84	227.65
863.16	227.67
863.47	227.67
863.78	227.64
864.09	227.66
864.40	227.65
864.71	227.62
865.02	227.64
865.33	227.66
865.64	227.67
865.95	227.63
866.27	227.71
866.58	227.72
866.89	227.73
867.20	227.74
867.51	227.73
867.82	227.71
868.13	227.70
868.44	227.67
868.75	227.71
869.06	227.70
869.37	227.71
869.68	227.68
869.99	227.70
870.30	227.71
870.61	227.69
870.92	227.68
871.23	227.71
871.54	227.71
871.85	227.72
872.16	227.70
872.47	227.73
872.78	227.67
873.09	227.61
873.40	227.59
873.71	227.59
874.02	227.59
874.33	227.56
874.64	227.55
874.95	227.57
875.26	227.55
875.56	227.56
875.87	227.54
876.18	227.52
876.49	227.60
876.80	227.57
877.11	227.54
877.42	227.54
877.73	227.52
878.04	227.50
878.35	227.48
878.66	227.50
878.96	227.50
879.27	227.48
879.58	227.50
879.89	227.47
880.20	227.52
880.51	227.50
880.82	227.53
881.12	227.53
881.43	227.50
881.74	227.50
882.05	227.45
882.36	227.46
882.67	227.44
882.97	227.31
883.28	227.31
883.59	227.31
883.90	227.33
884.21	227.36
884.51	227.35
884.82	227.37
885.13	227.34
885.44	227.35
885.74	227.35
886.05	227.34
886.36	227.38
886.67	227.32
886.98	227.38
887.28	227.38
887.59	227.37
887.90	227.36
888.20	227.32
888.51	227.33
888.82	227.32
889.13	227.36
889.43	227.47
889.74	227.46
890.05	227.47
890.35	227.44
890.66	227.42
890.97	227.41
891.28	227.39
891.58	227.39
891.89	227.39
892.20	227.39
892.50	227.38
892.81	227.36
893.12	227.38
893.42	227.33
893.73	227.31
894.04	227.32
894.34	227.34
894.65	227.36
894.95	227.37
895.26	227.35
895.57	227.40
895.87	227.33
896.18	227.35
896.48	227.37
896.79	227.37
897.10	227.39
897.40	227.42
897.71	227.47
898.01	227.45
898.32	227.45
898.63	227.44
898.93	227.46
899.24	227.47
899.54	227.47
899.85	227.49
900.15	227.52
900.46	227.54
900.76	227.56
901.07	227.54
901.38	227.51
901.68	227.55
901.99	227.50
902.29	227.49
902.60	227.49
902.90	227.49
903.21	227.48
903.51	227.47
903.82	227.49
904.12	227.46
904.43	227.49
904.73	227.51
905.03	227.53
905.34	227.62
905.64	227.63
905.95	227.60
906.25	227.59
906.56	227.57
906.86	227.57
907.17	227.57
907.47	227.61
907.77	227.63
908.08	227.58
908.38	227.58
908.69	227.57
908.99	227.59
909.30	227.59
909.60	227.61
909.90	227.64
910.21	227.61
910.51	227.62
910.81	227.60
911.12	227.58
911.42	227.55
911.73	227.45
912.03	227.46
912.33	227.47
912.64	227.44
912.94	227.44
913.24	227.38
913.55	227.36
913.85	227.36
914.15	227.38
914.46	227.41
914.76	227.43
915.06	227.42
915.37	227.40
915.67	227.38
915.97	227.38
916.27	227.33
916.58	227.32
916.88	227.30
917.18	227.29
917.49	227.37
917.79	227.38
918.09	227.39
918.39	227.39
918.70	227.38
919.00	227.37
919.30	227.42
919.60	227.42
919.91	227.43
920.21	227.41
920.51	227.39
920.81	227.37
921.12	227.35
921.42	227.38
921.72	227.37
922.02	227.37
922.32	227.35
922.63	227.34
922.93	227.37
923.23	227.39
923.53	227.40
923.83	227.31
924.13	227.30
924.44	227.27
924.74	227.26
925.04	227.31
925.34	227.31
925.64	227.26
925.94	227.24
926.24	227.26
926.55	227.25
926.85	227.27
927.15	227.28
927.45	227.29
927.75	227.26
928.05	227.26
928.35	227.27
928.65	227.28
928.95	227.31
929.26	227.27
929.56	227.25
929.86	227.24
930.16	227.22
930.46	227.21
930.76	227.24
931.06	227.18
931.36	227.15
931.66	227.18
931.96	227.19
932.26	227.22
932.56	227.18
932.86	227.21
933.16	227.21
933.46	227.19
933.76	227.19
934.06	227.18
934.36	227.20
934.66	227.19
934.96	227.22
935.26	227.22
935.56	227.24
935.86	227.23
936.16	227.22
936.46	227.25
936.76	227.26
937.06	227.22
937.36	227.28
937.66	227.26
937.96	227.24
938.26	227.23
938.56	227.23
938.86	227.25
939.16	227.28
939.46	227.27
939.76	227.28
940.06	227.27
940.35	227.26
940.65	227.21
940.95	227.22
941.25	227.17
941.55	227.15
941.85	227.17
942.15	227.17
942.45	227.21
942.75	227.16
943.04	227.15
943.34	227.18
943.64	227.14
943.94	227.13
944.24	227.15
944.54	227.15
944.84	227.14
945.13	227.13
945.43	227.09
945.73	227.11
946.03	227.11
946.33	227.08
946.62	227.08
946.92	227.08
947.22	227.11
947.52	227.15
947.82	227.18
948.11	227.15
948.41	227.14
948.71	227.09
949.01	227.13
949.31	227.14
949.60	227.17
949.90	227.19
950.20	227.19
950.50	227.21
950.79	227.21
951.09	227.21
951.39	227.20
951.69	227.20
951.98	227.19
952.28	227.19
952.58	227.20
952.87	227.19
953.17	227.21
953.47	227.17
953.76	227.16
954.06	227.12
954.36	227.12
954.66	227.11
954.95	227.17
955.25	227.18
955.55	227.16
955.84	227.12
956.14	227.15
956.44	227.14
956.73	227.12
957.03	227.12
957.32	227.11
957.62	227.12
957.92	227.14
958.21	227.13
958.51	227.25
958.81	227.22
959.10	227.24
959.40	227.26
959.69	227.28
959.99	227.27
960.29	227.25
960.58	227.23
960.88	227.26
961.17	227.24
961.47	227.22
961.76	227.21
962.06	227.22
962.36	227.23
962.65	227.25
962.95	227.24
963.24	227.21
963.54	227.23
963.83	227.21
964.13	227.21
964.42	227.16
964.72	227.05
965.01	227.10
965.31	227.09
965.60	227.06
965.90	227.12
966.19	227.14
966.49	227.17
966.78	227.17
967.08	227.17
967.37	227.18
967.67	227.15
967.96	227.16
968.26	227.18
968.55	227.17
968.85	227.18
969.14	227.19
969.43	227.21
969.73	227.23
970.02	227.26
970.32	227.26
970.61	227.29
970.91	227.31
971.20	227.28
971.49	227.27
971.79	227.28
972.08	227.20
972.38	227.21
972.67	227.20
972.96	227.23
973.26	227.19
973.55	227.18
973.85	227.21
974.14	227.26
974.43	227.22
974.73	227.20
975.02	227.18
975.31	227.19
975.61	227.22
975.90	227.19
976.19	227.15
976.49	227.15
976.78	227.17
977.07	227.15
977.37	227.15
977.66	227.18
977.95	227.17
978.24	227.18
978.54	227.15
978.83	227.13
979.12	227.12
979.42	227.12
979.71	227.12
980.00	227.09
980.29	227.07
980.59	227.09
980.88	227.13
981.17	227.11
981.46	227.09
981.76	227.09
982.05	227.10
982.34	227.11
982.63	227.08
982.93	227.03
983.22	227.05
983.51	227.06
983.80	227.07
984.09	227.08
984.39	227.07
984.68	227.10
984.97	227.12
985.26	227.13
985.55	227.14
985.85	227.13
986.14	227.16
986.43	227.14
986.72	227.12
987.01	227.10
987.30	227.12
987.59	227.11
987.89	227.11
988.18	227.08
988.47	227.07
988.76	227.07
989.05	227.10
989.34	227.10
989.63	227.13
989.92	227.09
990.22	227.05
990.51	227.07
990.80	227.08
991.09	227.07
991.38	227.09
991.67	227.09
991.96	227.04
992.25	227.06
992.54	227.03
992.83	227.04
993.12	227.03
993.41	227.05
993.70	227.11
993.99	227.11
994.28	227.11
994.58	227.11
994.87	227.12
995.16	227.09
995.45	227.04
995.74	226.98
996.03	226.98
996.32	227.01
996.61	226.99
996.90	226.97
997.19	226.96
997.48	226.94
997.77	226.92
998.06	226.96
998.34	226.94
998.63	226.96
998.92	226.97
999.21	226.99
999.50	226.97
999.79	226.94
1000.08	226.89
1000.37	226.90
1000.66	226.91
1000.95	226.89
1001.24	226.88
1001.53	226.93
1001.82	226.93
1002.11	226.92
1002.40	226.88
1002.68	226.90
1002.97	226.97
1003.26	226.96
1003.55	226.92
1003.84	226.93
1004.13	226.93
1004.42	226.89
1004.71	226.91
1004.99	226.86
1005.28	226.87
1005.57	226.89
1005.86	226.87
1006.15	226.88
1006.44	226.88
1006.72	226.89
1007.01	226.91
1007.30	226.96
1007.59	226.95
1007.88	226.96
1008.17	226.98
1008.45	227.01
1008.74	226.98
1009.03	226.91
1009.32	226.92
1009.60	226.94
1009.89	226.95
1010.18	226.94
1010.47	226.96
1010.76	226.94
1011.04	226.98
1011.33	226.96
1011.62	226.97
1011.91	226.98
1012.19	226.99
1012.48	226.98
1012.77	226.99
1013.05	227.03
1013.34	227.03
1013.63	227.05
1013.92	227.05
1014.20	227.06
1014.49	227.04
1014.78	227.07
1015.06	227.04
1015.35	227.03
1015.64	227.05
1015.92	227.05
1016.21	227.05
1016.50	227.06
1016.78	227.10
1017.07	227.07
1017.36	227.05
1017.64	227.05
1017.93	227.05
1018.22	227.04
1018.50	227.04
1018.79	227.03
1019.08	226.96
1019.36	226.96
1019.65	226.92
1019.93	226.97
1020.22	226.97
1020.51	227.02
1020.79	227.02
1021.08	226.94
1021.36	226.73
1021.65	227.04
1021.94	226.64
1022.22	227.21
1022.51	226.69
1022.79	227.77
1023.08	226.91
1023.36	228.00
1023.65	227.11
>>>>>End Processed Spectral Data<<<<<
