SpectraSuite Data File
++++++++++++++++++++++++++++++++++++
Date: Fri Feb 01 16:30:12 EST 2013
User: group
Dark Spectrum Present: No
Reference Spectrum Present: No
Number of Sampled Component Spectra: 1
Spectrometers: USB2E7196
Integration Time (usec): 35000 (USB2E7196)
Spectra Averaged: 100 (USB2E7196)
Boxcar Smoothing: 10 (USB2E7196)
Correct for Electrical Dark: No (USB2E7196)
Strobe/Lamp Enabled: No (USB2E7196)
Correct for Detector Non-linearity: No (USB2E7196)
Correct for Stray Light: No (USB2E7196)
Number of Pixels in Processed Spectrum: 2048
>>>>>Begin Processed Spectral Data<<<<<
339.09	0.00
339.48	214.20
339.86	216.08
340.24	217.24
340.63	218.25
341.01	221.11
341.39	220.97
341.78	222.62
342.16	222.87
342.54	224.39
342.93	212.47
343.31	223.18
343.69	223.68
344.07	224.10
344.46	224.51
344.84	224.88
345.22	225.11
345.60	225.38
345.99	225.52
346.37	225.67
346.75	225.73
347.13	225.80
347.52	225.87
347.90	225.89
348.28	225.90
348.66	225.90
349.05	225.88
349.43	225.90
349.81	225.93
350.19	225.95
350.57	226.02
350.96	226.09
351.34	226.18
351.72	226.28
352.10	226.36
352.48	226.39
352.87	226.45
353.25	226.48
353.63	226.52
354.01	226.61
354.39	226.66
354.77	226.74
355.15	226.86
355.54	226.92
355.92	226.96
356.30	227.08
356.68	227.22
357.06	227.32
357.44	227.39
357.82	227.44
358.20	227.52
358.58	227.59
358.97	227.66
359.35	227.74
359.73	227.85
360.11	227.91
360.49	227.97
360.87	228.02
361.25	228.11
361.63	228.16
362.01	228.19
362.39	228.22
362.77	228.27
363.15	228.28
363.53	228.29
363.91	228.36
364.29	228.37
364.67	228.31
365.05	228.29
365.43	228.31
365.81	228.34
366.19	228.38
366.57	228.43
366.95	228.41
367.33	228.40
367.71	228.39
368.09	228.40
368.47	228.44
368.85	228.44
369.23	228.43
369.61	228.39
369.99	228.44
370.37	228.48
370.75	228.52
371.13	228.46
371.51	228.46
371.89	228.41
372.27	228.38
372.65	228.35
373.03	228.31
373.41	228.25
373.78	228.20
374.16	228.11
374.54	227.99
374.92	227.93
375.30	227.86
375.68	227.78
376.06	227.75
376.44	227.66
376.82	227.59
377.19	227.52
377.57	227.45
377.95	227.36
378.33	227.27
378.71	227.15
379.09	227.10
379.47	227.05
379.84	226.97
380.22	226.87
380.60	226.78
380.98	226.75
381.36	226.65
381.73	226.59
382.11	226.56
382.49	226.54
382.87	226.51
383.25	226.45
383.62	226.51
384.00	226.42
384.38	226.38
384.76	226.34
385.13	226.32
385.51	226.30
385.89	226.21
386.27	226.18
386.64	226.15
387.02	226.14
387.40	226.07
387.78	226.06
388.15	226.03
388.53	226.03
388.91	226.00
389.29	225.99
389.66	225.96
390.04	225.90
390.42	225.86
390.79	225.82
391.17	225.82
391.55	225.68
391.92	225.66
392.30	225.66
392.68	225.66
393.05	225.63
393.43	225.63
393.81	225.61
394.18	225.57
394.56	225.57
394.94	225.54
395.31	225.56
395.69	225.58
396.06	225.63
396.44	225.62
396.82	225.62
397.19	225.68
397.57	225.70
397.95	225.75
398.32	225.77
398.70	225.84
399.07	225.90
399.45	225.96
399.82	226.03
400.20	226.10
400.58	226.17
400.95	226.20
401.33	226.30
401.70	226.45
402.08	226.56
402.45	226.61
402.83	226.76
403.20	226.87
403.58	226.98
403.95	227.07
404.33	227.21
404.71	227.33
405.08	227.53
405.46	227.61
405.83	227.78
406.21	227.93
406.58	228.06
406.96	228.19
407.33	228.35
407.70	228.53
408.08	228.76
408.45	228.98
408.83	229.22
409.20	229.39
409.58	229.60
409.95	229.85
410.33	230.14
410.70	230.36
411.08	230.64
411.45	230.95
411.82	231.26
412.20	231.62
412.57	232.08
412.95	232.34
413.32	232.80
413.69	233.18
414.07	233.63
414.44	234.10
414.82	234.58
415.19	235.16
415.56	235.69
415.94	236.24
416.31	236.86
416.68	237.44
417.06	238.16
417.43	238.82
417.81	239.57
418.18	240.36
418.55	241.23
418.93	242.12
419.30	242.96
419.67	243.91
420.04	244.86
420.42	245.79
420.79	246.96
421.16	248.08
421.54	249.31
421.91	250.54
422.28	251.81
422.66	253.18
423.03	254.45
423.40	255.81
423.77	257.23
424.15	258.66
424.52	260.18
424.89	261.82
425.26	263.38
425.64	264.82
426.01	266.41
426.38	268.03
426.75	269.69
427.13	271.48
427.50	273.29
427.87	275.14
428.24	277.03
428.61	278.80
428.99	280.78
429.36	282.85
429.73	284.91
430.10	286.90
430.47	288.96
430.85	291.08
431.22	293.31
431.59	295.69
431.96	297.91
432.33	300.38
432.70	302.73
433.08	305.52
433.45	308.15
433.82	310.72
434.19	313.61
434.56	316.40
434.93	319.03
435.30	321.63
435.68	324.49
436.05	327.34
436.42	330.13
436.79	332.57
437.16	335.30
437.53	338.10
437.90	340.85
438.27	343.53
438.64	346.33
439.01	348.88
439.38	351.12
439.75	353.29
440.13	355.78
440.50	358.09
440.87	359.92
441.24	361.83
441.61	363.95
441.98	365.41
442.35	367.18
442.72	369.01
443.09	370.82
443.46	371.80
443.83	372.39
444.20	372.86
444.57	373.73
444.94	373.95
445.31	374.28
445.68	374.66
446.05	374.76
446.42	374.37
446.79	373.97
447.16	373.52
447.53	373.17
447.90	372.02
448.27	370.83
448.64	369.29
449.01	368.18
449.37	366.25
449.74	364.37
450.11	362.12
450.48	359.64
450.85	357.09
451.22	354.97
451.59	352.93
451.96	351.01
452.33	348.42
452.70	346.07
453.07	343.26
453.43	340.40
453.80	337.66
454.17	334.99
454.54	332.44
454.91	329.69
455.28	327.03
455.65	324.58
456.02	322.15
456.38	319.96
456.75	317.29
457.12	315.03
457.49	312.85
457.86	310.73
458.23	308.90
458.59	306.91
458.96	304.88
459.33	303.00
459.70	301.14
460.07	299.66
460.43	297.97
460.80	296.37
461.17	294.92
461.54	293.41
461.91	292.00
462.27	290.59
462.64	289.37
463.01	288.02
463.38	286.71
463.74	285.40
464.11	284.27
464.48	283.28
464.85	282.23
465.21	281.38
465.58	280.45
465.95	279.39
466.32	278.47
466.68	277.54
467.05	276.67
467.42	275.81
467.78	274.87
468.15	273.98
468.52	273.32
468.88	272.49
469.25	271.76
469.62	271.14
469.98	270.49
470.35	269.87
470.72	269.29
471.08	268.68
471.45	268.14
471.82	267.60
472.18	267.01
472.55	266.54
472.92	265.99
473.28	265.54
473.65	265.09
474.02	264.61
474.38	264.27
474.75	263.97
475.11	263.61
475.48	263.35
475.85	263.19
476.21	262.98
476.58	262.82
476.94	262.69
477.31	262.51
477.67	262.33
478.04	262.25
478.41	262.19
478.77	262.20
479.14	262.13
479.50	262.18
479.87	262.26
480.23	262.35
480.60	262.44
480.96	262.53
481.33	262.76
481.69	263.01
482.06	263.17
482.42	263.38
482.79	263.62
483.15	263.97
483.52	264.31
483.88	264.64
484.25	265.01
484.61	265.43
484.98	265.89
485.34	266.49
485.71	267.06
486.07	267.64
486.44	268.23
486.80	268.94
487.17	269.66
487.53	270.46
487.90	271.30
488.26	272.23
488.62	273.24
488.99	274.19
489.35	275.22
489.72	276.36
490.08	277.58
490.44	278.80
490.81	280.10
491.17	281.44
491.54	282.93
491.90	284.47
492.26	286.10
492.63	287.81
492.99	289.55
493.36	291.44
493.72	293.49
494.08	295.53
494.45	297.76
494.81	300.13
495.17	302.58
495.54	305.15
495.90	307.84
496.26	310.63
496.63	313.61
496.99	316.73
497.35	320.00
497.72	323.40
498.08	326.91
498.44	330.59
498.80	334.51
499.17	338.56
499.53	342.72
499.89	347.07
500.26	351.59
500.62	356.24
500.98	361.23
501.34	366.31
501.71	371.69
502.07	377.12
502.43	382.75
502.79	388.53
503.16	394.67
503.52	400.99
503.88	407.45
504.24	414.10
504.60	421.02
504.97	428.17
505.33	435.49
505.69	443.28
506.05	451.09
506.41	459.03
506.78	467.19
507.14	475.62
507.50	484.34
507.86	493.41
508.22	502.69
508.59	511.86
508.95	521.42
509.31	531.26
509.67	541.45
510.03	551.71
510.39	562.30
510.75	573.12
511.12	583.97
511.48	595.27
511.84	606.70
512.20	618.18
512.56	630.05
512.92	642.26
513.28	654.64
513.64	667.12
514.00	679.78
514.37	692.69
514.73	705.78
515.09	718.80
515.45	732.01
515.81	745.56
516.17	759.54
516.53	773.65
516.89	787.87
517.25	802.00
517.61	816.43
517.97	830.92
518.33	845.26
518.69	860.04
519.05	874.93
519.41	890.03
519.77	905.53
520.13	921.03
520.49	936.33
520.85	951.66
521.21	967.25
521.57	983.48
521.93	999.18
522.29	1015.54
522.65	1031.82
523.01	1048.02
523.37	1063.92
523.73	1080.16
524.09	1096.22
524.45	1112.39
524.81	1128.86
525.17	1145.56
525.53	1162.39
525.89	1179.20
526.25	1195.96
526.61	1212.28
526.97	1228.89
527.33	1245.33
527.68	1261.75
528.04	1278.13
528.40	1294.56
528.76	1311.48
529.12	1327.95
529.48	1344.68
529.84	1360.59
530.20	1377.16
530.56	1394.07
530.91	1411.46
531.27	1428.01
531.63	1444.39
531.99	1460.84
532.35	1476.72
532.71	1492.57
533.07	1508.74
533.42	1524.46
533.78	1540.39
534.14	1556.53
534.50	1571.92
534.86	1587.60
535.21	1602.74
535.57	1618.55
535.93	1633.99
536.29	1648.73
536.65	1663.61
537.00	1678.26
537.36	1693.43
537.72	1707.76
538.08	1722.14
538.44	1735.68
538.79	1749.36
539.15	1762.89
539.51	1776.47
539.87	1790.68
540.22	1804.25
540.58	1817.78
540.94	1831.00
541.29	1843.75
541.65	1856.37
542.01	1869.33
542.37	1881.72
542.72	1894.09
543.08	1905.81
543.44	1918.10
543.79	1929.24
544.15	1940.15
544.51	1951.64
544.87	1962.55
545.22	1973.29
545.58	1983.38
545.94	1993.16
546.29	2003.00
546.65	2012.76
547.01	2021.99
547.36	2030.67
547.72	2039.05
548.07	2046.86
548.43	2054.96
548.79	2062.97
549.14	2070.40
549.50	2077.65
549.86	2085.22
550.21	2092.38
550.57	2099.50
550.92	2106.03
551.28	2113.16
551.64	2120.13
551.99	2126.62
552.35	2132.66
552.70	2138.72
553.06	2144.78
553.41	2151.17
553.77	2157.24
554.13	2163.23
554.48	2169.45
554.84	2174.92
555.19	2180.14
555.55	2185.32
555.90	2189.94
556.26	2194.84
556.61	2199.52
556.97	2204.00
557.32	2208.13
557.68	2212.30
558.03	2216.59
558.39	2220.27
558.74	2224.81
559.10	2228.72
559.45	2232.51
559.81	2236.91
560.16	2240.84
560.52	2243.98
560.87	2247.23
561.23	2249.95
561.58	2253.11
561.94	2255.59
562.29	2257.98
562.64	2260.78
563.00	2263.34
563.35	2266.80
563.71	2270.07
564.06	2273.42
564.42	2276.27
564.77	2278.76
565.12	2281.08
565.48	2283.06
565.83	2285.05
566.19	2286.35
566.54	2287.32
566.89	2288.38
567.25	2288.94
567.60	2290.25
567.96	2291.95
568.31	2292.89
568.66	2294.09
569.02	2294.65
569.37	2295.08
569.72	2296.00
570.08	2296.22
570.43	2296.37
570.78	2295.77
571.14	2294.15
571.49	2292.81
571.84	2292.50
572.20	2291.56
572.55	2290.66
572.90	2289.10
573.26	2287.70
573.61	2286.10
573.96	2284.40
574.31	2281.60
574.67	2278.84
575.02	2275.24
575.37	2272.01
575.72	2268.39
576.08	2265.05
576.43	2261.71
576.78	2258.01
577.13	2254.92
577.49	2251.93
577.84	2248.59
578.19	2244.95
578.54	2241.47
578.90	2237.34
579.25	2231.76
579.60	2226.64
579.95	2221.65
580.30	2216.65
580.66	2211.60
581.01	2206.70
581.36	2201.93
581.71	2197.83
582.06	2193.30
582.42	2188.98
582.77	2183.79
583.12	2179.26
583.47	2174.60
583.82	2169.70
584.17	2164.67
584.53	2159.21
584.88	2153.62
585.23	2147.80
585.58	2142.43
585.93	2136.98
586.28	2132.32
586.63	2127.41
586.98	2122.54
587.34	2117.88
587.69	2113.07
588.04	2107.80
588.39	2102.33
588.74	2095.93
589.09	2089.80
589.44	2083.02
589.79	2077.07
590.14	2071.57
590.49	2065.12
590.84	2058.81
591.19	2052.80
591.54	2046.33
591.89	2039.02
592.25	2032.11
592.60	2025.04
592.95	2017.48
593.30	2010.10
593.65	2002.55
594.00	1995.51
594.35	1988.22
594.70	1980.25
595.05	1973.07
595.40	1965.92
595.75	1958.37
596.10	1952.13
596.45	1945.45
596.80	1939.43
597.15	1932.90
597.50	1925.82
597.85	1919.32
598.19	1912.53
598.54	1905.44
598.89	1898.75
599.24	1892.87
599.59	1886.27
599.94	1880.06
600.29	1873.78
600.64	1867.30
600.99	1859.80
601.34	1853.01
601.69	1846.11
602.04	1839.20
602.39	1831.93
602.74	1825.11
603.08	1818.42
603.43	1811.82
603.78	1804.45
604.13	1797.25
604.48	1789.93
604.83	1783.05
605.18	1776.14
605.53	1768.32
605.87	1760.39
606.22	1753.20
606.57	1745.37
606.92	1738.16
607.27	1731.08
607.62	1724.26
607.96	1717.09
608.31	1710.52
608.66	1702.96
609.01	1695.44
609.36	1687.93
609.70	1679.89
610.05	1671.87
610.40	1664.22
610.75	1655.88
611.10	1648.36
611.44	1639.96
611.79	1632.06
612.14	1623.38
612.49	1614.11
612.83	1605.71
613.18	1597.65
613.53	1589.57
613.88	1580.99
614.22	1572.66
614.57	1563.99
614.92	1555.87
615.27	1548.24
615.61	1539.95
615.96	1532.02
616.31	1524.39
616.65	1517.08
617.00	1509.60
617.35	1501.98
617.70	1493.58
618.04	1485.04
618.39	1476.88
618.74	1469.29
619.08	1460.91
619.43	1453.34
619.78	1446.58
620.12	1439.37
620.47	1431.81
620.82	1423.58
621.16	1416.13
621.51	1408.64
621.85	1400.94
622.20	1392.44
622.55	1384.06
622.89	1376.18
623.24	1368.45
623.59	1361.09
623.93	1353.45
624.28	1346.17
624.62	1338.52
624.97	1331.48
625.32	1324.72
625.66	1317.57
626.01	1310.30
626.35	1302.83
626.70	1295.04
627.04	1287.25
627.39	1279.58
627.73	1272.18
628.08	1265.29
628.43	1257.99
628.77	1250.53
629.12	1243.02
629.46	1235.87
629.81	1228.47
630.15	1221.25
630.50	1213.91
630.84	1205.67
631.19	1197.83
631.53	1190.36
631.88	1182.93
632.22	1175.25
632.57	1167.91
632.91	1160.37
633.26	1152.95
633.60	1145.61
633.95	1138.50
634.29	1131.45
634.64	1124.79
634.98	1117.44
635.32	1110.31
635.67	1103.77
636.01	1097.04
636.36	1090.16
636.70	1083.60
637.05	1076.99
637.39	1070.48
637.73	1063.85
638.08	1057.97
638.42	1051.88
638.77	1045.29
639.11	1038.60
639.45	1032.08
639.80	1025.42
640.14	1019.05
640.49	1012.55
640.83	1006.13
641.17	999.94
641.52	993.52
641.86	986.92
642.20	980.97
642.55	974.69
642.89	968.20
643.23	961.77
643.58	956.12
643.92	949.97
644.26	943.89
644.61	937.89
644.95	931.97
645.29	925.38
645.64	918.66
645.98	912.44
646.32	906.73
646.66	900.80
647.01	895.01
647.35	889.34
647.69	883.54
648.04	878.09
648.38	872.21
648.72	866.34
649.06	860.37
649.41	854.53
649.75	848.51
650.09	842.56
650.43	836.73
650.78	830.49
651.12	824.56
651.46	818.88
651.80	813.14
652.14	807.73
652.49	802.40
652.83	797.28
653.17	791.58
653.51	785.75
653.85	780.39
654.20	774.79
654.54	768.67
654.88	762.90
655.22	756.98
655.56	751.37
655.90	745.81
656.25	740.61
656.59	735.30
656.93	730.27
657.27	725.07
657.61	719.65
657.95	714.60
658.29	709.51
658.64	704.22
658.98	698.95
659.32	693.45
659.66	688.24
660.00	682.87
660.34	677.93
660.68	673.02
661.02	667.92
661.36	663.24
661.70	658.77
662.05	654.40
662.39	650.06
662.73	645.61
663.07	641.25
663.41	636.69
663.75	632.16
664.09	627.60
664.43	623.26
664.77	619.20
665.11	614.94
665.45	610.75
665.79	606.69
666.13	602.56
666.47	598.47
666.81	594.27
667.15	590.21
667.49	586.29
667.83	582.55
668.17	578.64
668.51	574.51
668.85	570.49
669.19	566.65
669.53	562.82
669.87	558.93
670.21	555.27
670.55	551.68
670.89	548.24
671.23	544.77
671.57	541.22
671.91	537.64
672.25	534.13
672.58	530.66
672.92	527.24
673.26	524.02
673.60	520.83
673.94	517.75
674.28	514.79
674.62	511.85
674.96	508.65
675.30	505.73
675.64	502.84
675.97	500.10
676.31	497.26
676.65	494.32
676.99	491.58
677.33	488.68
677.67	485.80
678.01	482.77
678.34	479.84
678.68	476.99
679.02	474.12
679.36	471.33
679.70	468.56
680.04	465.79
680.37	462.90
680.71	460.13
681.05	457.47
681.39	454.75
681.73	452.04
682.06	449.50
682.40	446.90
682.74	444.38
683.08	441.76
683.42	439.12
683.75	436.60
684.09	434.03
684.43	431.60
684.77	429.19
685.10	426.85
685.44	424.55
685.78	422.23
686.12	419.99
686.45	417.70
686.79	415.41
687.13	413.25
687.46	411.13
687.80	408.99
688.14	406.75
688.48	404.70
688.81	402.45
689.15	400.32
689.49	398.23
689.82	396.19
690.16	394.15
690.50	392.20
690.83	390.28
691.17	388.29
691.51	386.37
691.84	384.48
692.18	382.53
692.52	380.48
692.85	378.58
693.19	376.70
693.52	374.89
693.86	373.06
694.20	371.23
694.53	369.41
694.87	367.57
695.21	365.74
695.54	363.94
695.88	362.23
696.21	360.50
696.55	358.79
696.88	357.02
697.22	355.30
697.56	353.69
697.89	351.99
698.23	350.43
698.56	348.81
698.90	347.21
699.23	345.55
699.57	344.03
699.90	342.47
700.24	340.96
700.58	339.47
700.91	337.97
701.25	336.55
701.58	335.17
701.92	333.82
702.25	332.52
702.59	331.13
702.92	329.78
703.26	328.49
703.59	327.20
703.93	326.02
704.26	324.80
704.60	323.52
704.93	322.26
705.26	321.01
705.60	319.83
705.93	318.67
706.27	317.66
706.60	316.58
706.94	315.51
707.27	314.33
707.61	313.23
707.94	312.23
708.27	311.13
708.61	310.07
708.94	309.03
709.28	308.03
709.61	307.07
709.94	306.16
710.28	305.08
710.61	304.11
710.95	303.01
711.28	302.11
711.61	301.14
711.95	300.22
712.28	299.25
712.61	298.29
712.95	297.39
713.28	296.50
713.61	295.65
713.95	294.76
714.28	293.95
714.61	293.08
714.95	292.21
715.28	291.36
715.61	290.48
715.95	289.60
716.28	288.73
716.61	287.89
716.95	287.04
717.28	286.34
717.61	285.58
717.94	284.84
718.28	284.02
718.61	283.29
718.94	282.61
719.27	281.95
719.61	281.24
719.94	280.56
720.27	279.82
720.60	279.14
720.94	278.49
721.27	277.90
721.60	277.36
721.93	276.75
722.27	276.16
722.60	275.59
722.93	275.05
723.26	274.52
723.59	273.98
723.93	273.45
724.26	272.88
724.59	272.35
724.92	271.85
725.25	271.35
725.59	270.78
725.92	270.27
726.25	269.79
726.58	269.32
726.91	268.84
727.24	268.40
727.57	267.94
727.91	267.38
728.24	266.92
728.57	266.39
728.90	265.96
729.23	265.49
729.56	265.11
729.89	264.61
730.22	264.12
730.55	263.66
730.89	263.22
731.22	262.80
731.55	262.34
731.88	261.91
732.21	261.48
732.54	261.09
732.87	260.67
733.20	260.25
733.53	259.88
733.86	259.51
734.19	259.09
734.52	258.71
734.85	258.43
735.18	257.98
735.51	257.64
735.84	257.26
736.17	256.91
736.50	256.47
736.83	256.24
737.16	255.93
737.49	255.56
737.82	255.22
738.15	254.90
738.48	254.55
738.81	254.19
739.14	253.88
739.47	253.55
739.80	253.24
740.13	252.92
740.46	252.61
740.79	252.29
741.12	251.95
741.45	251.63
741.78	251.29
742.11	251.05
742.44	250.74
742.77	250.47
743.10	250.18
743.43	249.89
743.75	249.51
744.08	249.37
744.41	249.14
744.74	248.88
745.07	248.60
745.40	248.34
745.73	248.13
746.06	247.87
746.39	247.62
746.71	247.34
747.04	247.10
747.37	246.81
747.70	246.57
748.03	246.34
748.36	246.13
748.68	245.92
749.01	245.66
749.34	245.40
749.67	245.12
750.00	244.89
750.33	244.75
750.65	244.54
750.98	244.19
751.31	243.95
751.64	243.73
751.97	243.54
752.29	243.33
752.62	243.06
752.95	242.84
753.28	242.62
753.60	242.43
753.93	242.24
754.26	242.04
754.59	241.78
754.91	241.55
755.24	241.31
755.57	241.09
755.90	240.89
756.22	240.73
756.55	240.54
756.88	240.33
757.20	240.09
757.53	239.89
757.86	239.70
758.19	239.54
758.51	239.36
758.84	239.13
759.17	238.96
759.49	238.81
759.82	238.69
760.15	238.54
760.47	238.37
760.80	238.20
761.13	238.06
761.45	237.92
761.78	237.78
762.11	237.65
762.43	237.52
762.76	237.38
763.08	237.25
763.41	237.11
763.74	236.99
764.06	236.83
764.39	236.65
764.71	236.53
765.04	236.38
765.37	236.25
765.69	236.12
766.02	236.00
766.34	235.85
766.67	235.69
767.00	235.56
767.32	235.51
767.65	235.43
767.97	235.30
768.30	235.20
768.62	235.11
768.95	234.99
769.27	234.85
769.60	234.75
769.92	234.60
770.25	234.46
770.57	234.34
770.90	234.26
771.22	234.17
771.55	234.08
771.87	233.99
772.20	233.87
772.52	233.87
772.85	233.89
773.17	233.81
773.50	233.69
773.82	233.60
774.15	233.43
774.47	233.30
774.80	233.23
775.12	233.14
775.45	233.04
775.77	232.95
776.09	232.86
776.42	232.78
776.74	232.71
777.07	232.67
777.39	232.60
777.72	232.54
778.04	232.49
778.36	232.42
778.69	232.37
779.01	232.33
779.33	232.16
779.66	231.97
779.98	231.94
780.31	231.88
780.63	231.86
780.95	231.85
781.28	231.79
781.60	231.73
781.92	231.69
782.25	231.62
782.57	231.59
782.89	231.57
783.22	231.51
783.54	231.47
783.86	231.44
784.19	231.37
784.51	231.36
784.83	231.30
785.16	231.25
785.48	231.16
785.80	231.08
786.12	231.07
786.45	231.04
786.77	230.98
787.09	230.93
787.42	230.84
787.74	230.80
788.06	230.73
788.38	230.66
788.71	230.59
789.03	230.57
789.35	230.53
789.67	230.48
789.99	230.43
790.32	230.38
790.64	230.32
790.96	230.37
791.28	230.25
791.61	230.18
791.93	230.12
792.25	230.09
792.57	230.14
792.89	230.04
793.21	230.00
793.54	229.95
793.86	229.89
794.18	229.86
794.50	229.80
794.82	229.78
795.14	229.77
795.47	229.77
795.79	229.73
796.11	229.65
796.43	229.59
796.75	229.56
797.07	229.52
797.39	229.49
797.71	229.36
798.04	229.33
798.36	229.30
798.68	229.28
799.00	229.22
799.32	229.14
799.64	229.14
799.96	229.10
800.28	229.11
800.60	229.08
800.92	229.05
801.24	229.01
801.56	229.00
801.89	228.93
802.21	228.89
802.53	228.86
802.85	228.86
803.17	228.90
803.49	228.83
803.81	228.80
804.13	228.76
804.45	228.76
804.77	228.76
805.09	228.77
805.41	228.75
805.73	228.76
806.05	228.71
806.37	228.70
806.69	228.66
807.01	228.62
807.33	228.62
807.65	228.56
807.97	228.58
808.28	228.52
808.60	228.51
808.92	228.47
809.24	228.50
809.56	228.44
809.88	228.36
810.20	228.36
810.52	228.39
810.84	228.34
811.16	228.28
811.48	228.23
811.80	228.22
812.12	228.20
812.43	228.20
812.75	228.18
813.07	228.17
813.39	228.18
813.71	228.14
814.03	228.13
814.35	228.10
814.67	228.05
814.98	228.04
815.30	228.02
815.62	228.00
815.94	227.92
816.26	227.97
816.58	227.93
816.89	227.94
817.21	227.88
817.53	227.89
817.85	227.89
818.17	227.88
818.48	227.83
818.80	227.83
819.12	227.80
819.44	227.76
819.76	227.71
820.07	227.70
820.39	227.67
820.71	227.67
821.03	227.68
821.34	227.70
821.66	227.70
821.98	227.69
822.30	227.66
822.61	227.72
822.93	227.71
823.25	227.70
823.57	227.67
823.88	227.68
824.20	227.65
824.52	227.66
824.83	227.66
825.15	227.66
825.47	227.62
825.79	227.60
826.10	227.59
826.42	227.58
826.74	227.56
827.05	227.55
827.37	227.54
827.69	227.54
828.00	227.50
828.32	227.50
828.64	227.52
828.95	227.56
829.27	227.51
829.58	227.44
829.90	227.49
830.22	227.47
830.53	227.45
830.85	227.43
831.17	227.41
831.48	227.36
831.80	227.35
832.11	227.38
832.43	227.36
832.75	227.33
833.06	227.35
833.38	227.30
833.69	227.30
834.01	227.27
834.32	227.22
834.64	227.22
834.96	227.19
835.27	227.14
835.59	227.14
835.90	227.11
836.22	227.10
836.53	227.09
836.85	227.06
837.16	227.10
837.48	227.13
837.79	227.14
838.11	227.17
838.42	227.17
838.74	227.11
839.05	227.12
839.37	227.12
839.68	227.07
840.00	227.09
840.31	227.07
840.63	227.03
840.94	227.04
841.26	227.02
841.57	227.02
841.88	227.03
842.20	226.97
842.51	226.97
842.83	226.97
843.14	226.99
843.46	226.98
843.77	226.95
844.08	226.92
844.40	226.88
844.71	226.83
845.03	226.81
845.34	226.83
845.65	226.80
845.97	226.80
846.28	226.81
846.60	226.78
846.91	226.76
847.22	226.80
847.54	226.80
847.85	226.78
848.16	226.74
848.48	226.71
848.79	226.77
849.10	226.77
849.42	226.75
849.73	226.66
850.04	226.66
850.36	226.60
850.67	226.60
850.98	226.61
851.30	226.63
851.61	226.58
851.92	226.56
852.23	226.58
852.55	226.57
852.86	226.56
853.17	226.57
853.49	226.59
853.80	226.59
854.11	226.57
854.42	226.58
854.74	226.57
855.05	226.61
855.36	226.51
855.67	226.49
855.99	226.50
856.30	226.62
856.61	226.62
856.92	226.64
857.23	226.65
857.55	226.61
857.86	226.60
858.17	226.66
858.48	226.66
858.79	226.64
859.11	226.64
859.42	226.66
859.73	226.62
860.04	226.63
860.35	226.57
860.66	226.57
860.98	226.57
861.29	226.59
861.60	226.54
861.91	226.60
862.22	226.59
862.53	226.59
862.84	226.48
863.16	226.53
863.47	226.53
863.78	226.48
864.09	226.52
864.40	226.52
864.71	226.50
865.02	226.51
865.33	226.48
865.64	226.47
865.95	226.46
866.27	226.57
866.58	226.53
866.89	226.56
867.20	226.54
867.51	226.52
867.82	226.52
868.13	226.57
868.44	226.54
868.75	226.57
869.06	226.57
869.37	226.55
869.68	226.48
869.99	226.50
870.30	226.53
870.61	226.52
870.92	226.52
871.23	226.49
871.54	226.51
871.85	226.56
872.16	226.57
872.47	226.55
872.78	226.47
873.09	226.50
873.40	226.51
873.71	226.52
874.02	226.53
874.33	226.52
874.64	226.50
874.95	226.50
875.26	226.47
875.56	226.47
875.87	226.49
876.18	226.52
876.49	226.58
876.80	226.56
877.11	226.56
877.42	226.54
877.73	226.56
878.04	226.54
878.35	226.52
878.66	226.54
878.96	226.54
879.27	226.52
879.58	226.51
879.89	226.47
880.20	226.50
880.51	226.51
880.82	226.49
881.12	226.46
881.43	226.44
881.74	226.41
882.05	226.37
882.36	226.35
882.67	226.34
882.97	226.24
883.28	226.23
883.59	226.20
883.90	226.21
884.21	226.21
884.51	226.17
884.82	226.15
885.13	226.11
885.44	226.08
885.74	226.07
886.05	226.05
886.36	226.06
886.67	226.01
886.98	226.05
887.28	226.01
887.59	226.06
887.90	226.05
888.20	226.06
888.51	226.08
888.82	226.09
889.13	226.07
889.43	226.14
889.74	226.13
890.05	226.14
890.35	226.14
890.66	226.10
890.97	226.09
891.28	226.08
891.58	226.09
891.89	226.14
892.20	226.10
892.50	226.10
892.81	226.13
893.12	226.12
893.42	226.06
893.73	226.12
894.04	226.09
894.34	226.10
894.65	226.12
894.95	226.12
895.26	226.12
895.57	226.18
895.87	226.08
896.18	226.09
896.48	226.13
896.79	226.11
897.10	226.13
897.40	226.14
897.71	226.15
898.01	226.14
898.32	226.14
898.63	226.17
898.93	226.19
899.24	226.20
899.54	226.24
899.85	226.22
900.15	226.18
900.46	226.19
900.76	226.25
901.07	226.22
901.38	226.23
901.68	226.24
901.99	226.19
902.29	226.18
902.60	226.19
902.90	226.16
903.21	226.18
903.51	226.19
903.82	226.23
904.12	226.27
904.43	226.30
904.73	226.30
905.03	226.33
905.34	226.42
905.64	226.38
905.95	226.39
906.25	226.38
906.56	226.40
906.86	226.40
907.17	226.39
907.47	226.42
907.77	226.40
908.08	226.37
908.38	226.39
908.69	226.43
908.99	226.43
909.30	226.45
909.60	226.43
909.90	226.43
910.21	226.41
910.51	226.37
910.81	226.36
911.12	226.36
911.42	226.36
911.73	226.27
912.03	226.26
912.33	226.27
912.64	226.30
912.94	226.29
913.24	226.26
913.55	226.19
913.85	226.17
914.15	226.18
914.46	226.21
914.76	226.19
915.06	226.17
915.37	226.15
915.67	226.12
915.97	226.14
916.27	226.11
916.58	226.09
916.88	226.08
917.18	226.07
917.49	226.15
917.79	226.15
918.09	226.15
918.39	226.17
918.70	226.14
919.00	226.15
919.30	226.18
919.60	226.18
919.91	226.21
920.21	226.21
920.51	226.17
920.81	226.17
921.12	226.18
921.42	226.18
921.72	226.19
922.02	226.18
922.32	226.17
922.63	226.17
922.93	226.20
923.23	226.18
923.53	226.15
923.83	226.06
924.13	226.03
924.44	226.03
924.74	226.04
925.04	226.05
925.34	225.99
925.64	225.94
925.94	225.95
926.24	225.97
926.55	225.95
926.85	225.99
927.15	225.94
927.45	225.92
927.75	225.93
928.05	225.92
928.35	225.91
928.65	225.97
928.95	225.95
929.26	225.92
929.56	225.94
929.86	225.96
930.16	225.95
930.46	225.94
930.76	225.97
931.06	225.93
931.36	225.89
931.66	225.92
931.96	225.95
932.26	225.92
932.56	225.93
932.86	225.95
933.16	225.93
933.46	225.95
933.76	225.93
934.06	225.95
934.36	226.01
934.66	226.00
934.96	225.97
935.26	226.01
935.56	226.05
935.86	226.03
936.16	226.02
936.46	226.03
936.76	226.03
937.06	226.00
937.36	226.04
937.66	226.05
937.96	226.07
938.26	226.01
938.56	226.06
938.86	226.03
939.16	226.04
939.46	226.06
939.76	226.10
940.06	226.11
940.35	226.08
940.65	226.04
940.95	226.06
941.25	226.02
941.55	226.00
941.85	226.02
942.15	226.08
942.45	226.11
942.75	226.07
943.04	226.10
943.34	226.11
943.64	226.08
943.94	226.11
944.24	226.12
944.54	226.17
944.84	226.15
945.13	226.14
945.43	226.12
945.73	226.08
946.03	226.06
946.33	226.08
946.62	226.10
946.92	226.12
947.22	226.15
947.52	226.17
947.82	226.18
948.11	226.15
948.41	226.09
948.71	226.07
949.01	226.09
949.31	226.07
949.60	226.05
949.90	226.07
950.20	226.07
950.50	226.04
950.79	226.04
951.09	226.07
951.39	226.07
951.69	226.05
951.98	226.09
952.28	226.07
952.58	226.07
952.87	226.05
953.17	226.03
953.47	226.00
953.76	225.99
954.06	226.00
954.36	225.97
954.66	225.98
954.95	225.97
955.25	226.01
955.55	226.01
955.84	225.99
956.14	225.98
956.44	225.98
956.73	225.95
957.03	225.98
957.32	225.95
957.62	225.93
957.92	225.98
958.21	225.99
958.51	226.11
958.81	226.11
959.10	226.09
959.40	226.13
959.69	226.11
959.99	226.14
960.29	226.08
960.58	226.09
960.88	226.12
961.17	226.13
961.47	226.10
961.76	226.10
962.06	226.11
962.36	226.09
962.65	226.09
962.95	226.10
963.24	226.06
963.54	226.08
963.83	226.08
964.13	226.06
964.42	226.03
964.72	225.95
965.01	225.92
965.31	225.92
965.60	225.86
965.90	225.94
966.19	225.90
966.49	225.96
966.78	225.95
967.08	225.92
967.37	225.91
967.67	225.87
967.96	225.86
968.26	225.87
968.55	225.90
968.85	225.85
969.14	225.87
969.43	225.87
969.73	225.87
970.02	225.88
970.32	225.85
970.61	225.88
970.91	225.85
971.20	225.86
971.49	225.86
971.79	225.92
972.08	225.85
972.38	225.84
972.67	225.81
972.96	225.85
973.26	225.84
973.55	225.89
973.85	225.93
974.14	225.95
974.43	225.98
974.73	225.99
975.02	225.99
975.31	225.98
975.61	225.97
975.90	225.97
976.19	225.95
976.49	225.98
976.78	225.97
977.07	225.94
977.37	225.97
977.66	225.99
977.95	225.96
978.24	225.99
978.54	226.06
978.83	226.07
979.12	226.02
979.42	226.04
979.71	226.01
980.00	226.01
980.29	226.00
980.59	225.96
980.88	225.96
981.17	225.97
981.46	225.99
981.76	226.02
982.05	226.06
982.34	226.09
982.63	226.09
982.93	226.07
983.22	226.10
983.51	226.12
983.80	226.13
984.09	226.12
984.39	226.11
984.68	226.08
984.97	226.12
985.26	226.15
985.55	226.11
985.85	226.10
986.14	226.09
986.43	226.14
986.72	226.13
987.01	226.13
987.30	226.14
987.59	226.11
987.89	226.08
988.18	226.02
988.47	225.98
988.76	225.98
989.05	226.00
989.34	226.00
989.63	225.99
989.92	225.98
990.22	225.98
990.51	225.95
990.80	225.93
991.09	225.85
991.38	225.86
991.67	225.89
991.96	225.88
992.25	225.91
992.54	225.86
992.83	225.87
993.12	225.82
993.41	225.84
993.70	225.91
993.99	225.94
994.28	225.97
994.58	226.00
994.87	225.98
995.16	225.97
995.45	225.92
995.74	225.90
996.03	225.88
996.32	225.89
996.61	225.90
996.90	225.89
997.19	225.92
997.48	225.91
997.77	225.86
998.06	225.85
998.34	225.83
998.63	225.84
998.92	225.84
999.21	225.87
999.50	225.83
999.79	225.75
1000.08	225.74
1000.37	225.75
1000.66	225.74
1000.95	225.73
1001.24	225.73
1001.53	225.78
1001.82	225.78
1002.11	225.75
1002.40	225.72
1002.68	225.73
1002.97	225.81
1003.26	225.77
1003.55	225.74
1003.84	225.76
1004.13	225.80
1004.42	225.80
1004.71	225.79
1004.99	225.80
1005.28	225.81
1005.57	225.82
1005.86	225.82
1006.15	225.81
1006.44	225.73
1006.72	225.74
1007.01	225.76
1007.30	225.76
1007.59	225.74
1007.88	225.73
1008.17	225.78
1008.45	225.80
1008.74	225.80
1009.03	225.77
1009.32	225.80
1009.60	225.82
1009.89	225.83
1010.18	225.80
1010.47	225.81
1010.76	225.80
1011.04	225.82
1011.33	225.95
1011.62	225.93
1011.91	225.97
1012.19	225.98
1012.48	226.02
1012.77	226.04
1013.05	226.09
1013.34	226.11
1013.63	226.10
1013.92	226.13
1014.20	226.12
1014.49	226.13
1014.78	226.15
1015.06	226.12
1015.35	226.12
1015.64	226.13
1015.92	226.18
1016.21	226.17
1016.50	226.14
1016.78	226.20
1017.07	226.18
1017.36	226.06
1017.64	226.05
1017.93	226.07
1018.22	226.08
1018.50	226.09
1018.79	226.09
1019.08	226.06
1019.36	226.08
1019.65	226.08
1019.93	226.09
1020.22	226.12
1020.51	226.16
1020.79	226.15
1021.08	226.22
1021.36	225.86
1021.65	226.23
1021.94	226.32
1022.22	226.64
1022.51	225.74
1022.79	226.49
1023.08	226.37
1023.36	227.20
1023.65	226.07
>>>>>End Processed Spectral Data<<<<<
