SpectraSuite Data File
++++++++++++++++++++++++++++++++++++
Date: Fri Feb 01 16:49:38 EST 2013
User: group
Dark Spectrum Present: No
Reference Spectrum Present: No
Number of Sampled Component Spectra: 1
Spectrometers: USB2E7196
Integration Time (usec): 35000 (USB2E7196)
Spectra Averaged: 100 (USB2E7196)
Boxcar Smoothing: 10 (USB2E7196)
Correct for Electrical Dark: No (USB2E7196)
Strobe/Lamp Enabled: No (USB2E7196)
Correct for Detector Non-linearity: No (USB2E7196)
Correct for Stray Light: No (USB2E7196)
Number of Pixels in Processed Spectrum: 2048
>>>>>Begin Processed Spectral Data<<<<<
339.09	0.00
339.48	213.12
339.86	214.75
340.24	215.98
340.63	217.33
341.01	220.24
341.39	220.09
341.78	221.76
342.16	222.28
342.54	222.93
342.93	211.56
343.31	222.29
343.69	222.84
344.07	223.30
344.46	223.75
344.84	224.14
345.22	224.40
345.60	224.64
345.99	224.82
346.37	224.97
346.75	225.09
347.13	225.17
347.52	225.21
347.90	225.31
348.28	225.37
348.66	225.41
349.05	225.39
349.43	225.44
349.81	225.50
350.19	225.52
350.57	225.55
350.96	225.61
351.34	225.66
351.72	225.74
352.10	225.85
352.48	225.92
352.87	225.97
353.25	226.04
353.63	226.12
354.01	226.17
354.39	226.26
354.77	226.31
355.15	226.39
355.54	226.46
355.92	226.48
356.30	226.55
356.68	226.69
357.06	226.77
357.44	226.87
357.82	226.95
358.20	227.01
358.58	227.10
358.97	227.19
359.35	227.28
359.73	227.33
360.11	227.37
360.49	227.41
360.87	227.45
361.25	227.48
361.63	227.54
362.01	227.59
362.39	227.62
362.77	227.67
363.15	227.71
363.53	227.71
363.91	227.74
364.29	227.75
364.67	227.63
365.05	227.66
365.43	227.66
365.81	227.66
366.19	227.73
366.57	227.79
366.95	227.77
367.33	227.73
367.71	227.73
368.09	227.73
368.47	227.72
368.85	227.70
369.23	227.70
369.61	227.64
369.99	227.65
370.37	227.61
370.75	227.63
371.13	227.55
371.51	227.49
371.89	227.44
372.27	227.43
372.65	227.43
373.03	227.38
373.41	227.31
373.78	227.26
374.16	227.15
374.54	227.03
374.92	226.98
375.30	226.95
375.68	226.86
376.06	226.80
376.44	226.71
376.82	226.70
377.19	226.63
377.57	226.58
377.95	226.50
378.33	226.44
378.71	226.31
379.09	226.29
379.47	226.29
379.84	226.23
380.22	226.16
380.60	226.08
380.98	225.99
381.36	225.92
381.73	225.86
382.11	225.84
382.49	225.81
382.87	225.74
383.25	225.70
383.62	225.75
384.00	225.69
384.38	225.64
384.76	225.58
385.13	225.57
385.51	225.55
385.89	225.46
386.27	225.42
386.64	225.44
387.02	225.37
387.40	225.32
387.78	225.30
388.15	225.26
388.53	225.24
388.91	225.22
389.29	225.20
389.66	225.17
390.04	225.13
390.42	225.12
390.79	225.08
391.17	225.03
391.55	224.93
391.92	224.93
392.30	224.93
392.68	224.91
393.05	224.90
393.43	224.88
393.81	224.91
394.18	224.93
394.56	224.91
394.94	224.96
395.31	224.95
395.69	225.00
396.06	225.02
396.44	225.04
396.82	225.05
397.19	225.12
397.57	225.16
397.95	225.19
398.32	225.19
398.70	225.23
399.07	225.32
399.45	225.34
399.82	225.41
400.20	225.48
400.58	225.55
400.95	225.56
401.33	225.63
401.70	225.75
402.08	225.80
402.45	225.89
402.83	226.00
403.20	226.13
403.58	226.20
403.95	226.32
404.33	226.48
404.71	226.62
405.08	226.79
405.46	226.91
405.83	227.08
406.21	227.24
406.58	227.42
406.96	227.56
407.33	227.76
407.70	227.95
408.08	228.21
408.45	228.46
408.83	228.68
409.20	228.92
409.58	229.08
409.95	229.35
410.33	229.61
410.70	229.85
411.08	230.12
411.45	230.44
411.82	230.75
412.20	231.08
412.57	231.48
412.95	231.78
413.32	232.21
413.69	232.61
414.07	233.04
414.44	233.50
414.82	234.00
415.19	234.55
415.56	235.07
415.94	235.59
416.31	236.19
416.68	236.83
417.06	237.54
417.43	238.27
417.81	239.03
418.18	239.78
418.55	240.64
418.93	241.52
419.30	242.37
419.67	243.28
420.04	244.20
420.42	245.18
420.79	246.35
421.16	247.48
421.54	248.68
421.91	249.87
422.28	251.18
422.66	252.48
423.03	253.78
423.40	255.11
423.77	256.56
424.15	257.95
424.52	259.45
424.89	261.05
425.26	262.55
425.64	263.98
426.01	265.59
426.38	267.22
426.75	268.87
427.13	270.58
427.50	272.35
427.87	274.21
428.24	276.05
428.61	277.76
428.99	279.69
429.36	281.73
429.73	283.79
430.10	285.77
430.47	287.81
430.85	289.88
431.22	292.14
431.59	294.45
431.96	296.72
432.33	299.14
432.70	301.49
433.08	304.29
433.45	306.92
433.82	309.47
434.19	312.33
434.56	315.12
434.93	317.76
435.30	320.39
435.68	323.28
436.05	326.10
436.42	328.88
436.79	331.38
437.16	334.08
437.53	336.89
437.90	339.63
438.27	342.30
438.64	345.14
439.01	347.66
439.38	349.88
439.75	352.00
440.13	354.44
440.50	356.75
440.87	358.56
441.24	360.49
441.61	362.61
441.98	364.12
442.35	365.88
442.72	367.73
443.09	369.54
443.46	370.54
443.83	371.13
444.20	371.64
444.57	372.51
444.94	372.82
445.31	373.15
445.68	373.50
446.05	373.64
446.42	373.24
446.79	372.82
447.16	372.40
447.53	372.10
447.90	370.99
448.27	369.87
448.64	368.31
449.01	367.19
449.37	365.28
449.74	363.40
450.11	361.21
450.48	358.77
450.85	356.25
451.22	354.11
451.59	352.13
451.96	350.23
452.33	347.60
452.70	345.28
453.07	342.46
453.43	339.64
453.80	336.87
454.17	334.22
454.54	331.72
454.91	329.07
455.28	326.41
455.65	323.95
456.02	321.52
456.38	319.41
456.75	316.76
457.12	314.51
457.49	312.29
457.86	310.14
458.23	308.30
458.59	306.32
458.96	304.26
459.33	302.41
459.70	300.53
460.07	299.05
460.43	297.33
460.80	295.74
461.17	294.32
461.54	292.87
461.91	291.50
462.27	290.06
462.64	288.78
463.01	287.48
463.38	286.18
463.74	284.83
464.11	283.71
464.48	282.69
464.85	281.64
465.21	280.82
465.58	279.93
465.95	278.86
466.32	277.94
466.68	277.06
467.05	276.18
467.42	275.29
467.78	274.42
468.15	273.58
468.52	272.95
468.88	272.10
469.25	271.34
469.62	270.72
469.98	270.02
470.35	269.44
470.72	268.85
471.08	268.21
471.45	267.66
471.82	267.12
472.18	266.57
472.55	266.13
472.92	265.59
473.28	265.13
473.65	264.70
474.02	264.28
474.38	263.93
474.75	263.63
475.11	263.33
475.48	263.05
475.85	262.81
476.21	262.57
476.58	262.40
476.94	262.24
477.31	262.09
477.67	261.98
478.04	261.85
478.41	261.80
478.77	261.89
479.14	261.86
479.50	261.87
479.87	261.96
480.23	262.03
480.60	262.12
480.96	262.21
481.33	262.38
481.69	262.59
482.06	262.77
482.42	262.95
482.79	263.19
483.15	263.50
483.52	263.86
483.88	264.23
484.25	264.62
484.61	265.06
484.98	265.49
485.34	266.07
485.71	266.67
486.07	267.22
486.44	267.76
486.80	268.47
487.17	269.16
487.53	269.96
487.90	270.82
488.26	271.74
488.62	272.72
488.99	273.74
489.35	274.80
489.72	275.97
490.08	277.17
490.44	278.42
490.81	279.73
491.17	281.16
491.54	282.62
491.90	284.11
492.26	285.72
492.63	287.49
492.99	289.26
493.36	291.14
493.72	293.22
494.08	295.34
494.45	297.57
494.81	299.96
495.17	302.34
495.54	304.94
495.90	307.61
496.26	310.41
496.63	313.31
496.99	316.36
497.35	319.60
497.72	322.98
498.08	326.52
498.44	330.18
498.80	334.07
499.17	338.12
499.53	342.28
499.89	346.64
500.26	351.12
500.62	355.81
500.98	360.79
501.34	365.80
501.71	371.12
502.07	376.53
502.43	382.16
502.79	388.00
503.16	394.02
503.52	400.24
503.88	406.63
504.24	413.24
504.60	420.13
504.97	427.23
505.33	434.53
505.69	442.17
506.05	449.93
506.41	457.78
506.78	465.90
507.14	474.30
507.50	483.06
507.86	492.11
508.22	501.22
508.59	510.36
508.95	519.95
509.31	529.70
509.67	539.79
510.03	549.98
510.39	560.51
510.75	571.17
511.12	582.02
511.48	593.26
511.84	604.76
512.20	616.17
512.56	628.01
512.92	640.09
513.28	652.40
513.64	664.77
514.00	677.28
514.37	690.15
514.73	703.16
515.09	716.04
515.45	729.12
515.81	742.58
516.17	756.41
516.53	770.44
516.89	784.48
517.25	798.49
517.61	812.84
517.97	827.09
518.33	841.41
518.69	856.07
519.05	870.86
519.41	885.78
519.77	901.14
520.13	916.45
520.49	931.65
520.85	946.81
521.21	962.36
521.57	978.53
521.93	994.05
522.29	1010.25
522.65	1026.38
523.01	1042.44
523.37	1058.31
523.73	1074.31
524.09	1090.22
524.45	1106.36
524.81	1122.81
525.17	1139.33
525.53	1156.00
525.89	1172.72
526.25	1189.43
526.61	1205.69
526.97	1222.19
527.33	1238.62
527.68	1254.98
528.04	1271.32
528.40	1287.69
528.76	1304.55
529.12	1320.93
529.48	1337.70
529.84	1353.49
530.20	1369.79
530.56	1386.43
530.91	1403.63
531.27	1420.24
531.63	1436.56
531.99	1452.83
532.35	1468.65
532.71	1484.45
533.07	1500.50
533.42	1516.25
533.78	1532.12
534.14	1548.06
534.50	1563.34
534.86	1578.87
535.21	1593.88
535.57	1609.48
535.93	1624.84
536.29	1639.47
536.65	1654.33
537.00	1668.82
537.36	1683.92
537.72	1698.33
538.08	1712.74
538.44	1726.22
538.79	1739.89
539.15	1753.14
539.51	1766.68
539.87	1780.77
540.22	1794.21
540.58	1807.64
540.94	1820.55
541.29	1833.13
541.65	1845.74
542.01	1858.69
542.37	1870.92
542.72	1883.16
543.08	1894.85
543.44	1907.03
543.79	1918.14
544.15	1928.91
544.51	1940.36
544.87	1950.99
545.22	1961.70
545.58	1971.78
545.94	1981.55
546.29	1991.15
546.65	2001.13
547.01	2010.37
547.36	2018.87
547.72	2027.32
548.07	2035.33
548.43	2043.51
548.79	2051.40
549.14	2058.89
549.50	2066.05
549.86	2073.62
550.21	2080.85
550.57	2087.94
550.92	2094.53
551.28	2101.52
551.64	2108.50
551.99	2114.88
552.35	2121.18
552.70	2127.21
553.06	2133.16
553.41	2139.52
553.77	2145.58
554.13	2151.43
554.48	2157.49
554.84	2163.21
555.19	2168.38
555.55	2173.57
555.90	2178.18
556.26	2183.28
556.61	2187.83
556.97	2192.41
557.32	2196.52
557.68	2200.65
558.03	2204.93
558.39	2208.46
558.74	2213.10
559.10	2217.10
559.45	2220.98
559.81	2225.09
560.16	2228.97
560.52	2232.12
560.87	2235.51
561.23	2238.16
561.58	2241.04
561.94	2243.63
562.29	2245.90
562.64	2248.71
563.00	2251.06
563.35	2254.46
563.71	2257.46
564.06	2260.73
564.42	2263.52
564.77	2266.10
565.12	2268.55
565.48	2270.55
565.83	2272.66
566.19	2273.91
566.54	2274.72
566.89	2275.87
567.25	2276.83
567.60	2278.12
567.96	2279.95
568.31	2280.81
568.66	2282.04
569.02	2282.88
569.37	2283.32
569.72	2284.26
570.08	2284.53
570.43	2284.81
570.78	2284.51
571.14	2283.17
571.49	2281.86
571.84	2281.51
572.20	2280.47
572.55	2279.45
572.90	2278.01
573.26	2276.82
573.61	2275.20
573.96	2273.80
574.31	2270.94
574.67	2268.03
575.02	2264.55
575.37	2261.32
575.72	2257.72
576.08	2254.34
576.43	2251.03
576.78	2247.59
577.13	2244.48
577.49	2241.42
577.84	2238.11
578.19	2234.44
578.54	2230.89
578.90	2227.02
579.25	2221.78
579.60	2217.12
579.95	2212.28
580.30	2207.44
580.66	2202.26
581.01	2197.49
581.36	2192.55
581.71	2188.51
582.06	2184.21
582.42	2180.01
582.77	2174.93
583.12	2170.48
583.47	2166.15
583.82	2161.40
584.17	2156.44
584.53	2151.16
584.88	2145.61
585.23	2140.07
585.58	2134.55
585.93	2129.22
586.28	2124.45
586.63	2119.51
586.98	2114.45
587.34	2109.69
587.69	2104.75
588.04	2099.65
588.39	2094.16
588.74	2087.90
589.09	2081.90
589.44	2075.24
589.79	2069.20
590.14	2063.64
590.49	2057.13
590.84	2050.80
591.19	2044.80
591.54	2038.20
591.89	2031.03
592.25	2024.50
592.60	2017.33
592.95	2010.09
593.30	2002.73
593.65	1995.31
594.00	1988.29
594.35	1981.12
594.70	1973.36
595.05	1966.65
595.40	1959.47
595.75	1952.03
596.10	1946.06
596.45	1939.46
596.80	1933.39
597.15	1927.02
597.50	1920.27
597.85	1913.93
598.19	1907.40
598.54	1900.59
598.89	1894.21
599.24	1888.28
599.59	1881.82
599.94	1875.66
600.29	1869.37
600.64	1862.84
600.99	1855.69
601.34	1848.97
601.69	1842.04
602.04	1835.28
602.39	1827.87
602.74	1821.30
603.08	1814.69
603.43	1807.83
603.78	1800.56
604.13	1793.44
604.48	1786.20
604.83	1779.30
605.18	1772.60
605.53	1764.72
605.87	1756.78
606.22	1749.44
606.57	1741.67
606.92	1734.07
607.27	1727.23
607.62	1720.48
607.96	1713.58
608.31	1707.03
608.66	1699.59
609.01	1692.29
609.36	1684.83
609.70	1676.92
610.05	1668.79
610.40	1661.16
610.75	1653.01
611.10	1645.48
611.44	1637.00
611.79	1628.97
612.14	1620.36
612.49	1611.08
612.83	1602.66
613.18	1594.49
613.53	1586.49
613.88	1577.89
614.22	1569.71
614.57	1560.81
614.92	1552.73
615.27	1545.19
615.61	1536.80
615.96	1528.62
616.31	1520.84
616.65	1513.39
617.00	1505.87
617.35	1498.16
617.70	1489.93
618.04	1481.54
618.39	1473.30
618.74	1465.81
619.08	1457.58
619.43	1449.99
619.78	1443.16
620.12	1436.17
620.47	1428.77
620.82	1420.63
621.16	1413.25
621.51	1405.80
621.85	1398.28
622.20	1389.78
622.55	1381.34
622.89	1373.48
623.24	1365.86
623.59	1358.44
623.93	1350.93
624.28	1343.61
624.62	1336.15
624.97	1328.94
625.32	1321.98
625.66	1314.85
626.01	1307.80
626.35	1300.43
626.70	1292.61
627.04	1284.92
627.39	1277.15
627.73	1269.60
628.08	1262.73
628.43	1255.51
628.77	1248.18
629.12	1240.75
629.46	1233.70
629.81	1226.23
630.15	1219.14
630.50	1211.84
630.84	1203.80
631.19	1195.83
631.53	1188.28
631.88	1180.79
632.22	1173.17
632.57	1165.87
632.91	1158.41
633.26	1150.97
633.60	1143.54
633.95	1136.28
634.29	1129.18
634.64	1122.35
634.98	1115.06
635.32	1107.92
635.67	1101.25
636.01	1094.67
636.36	1087.87
636.70	1081.19
637.05	1074.71
637.39	1068.20
637.73	1061.77
638.08	1055.85
638.42	1049.92
638.77	1043.56
639.11	1037.00
639.45	1030.67
639.80	1024.02
640.14	1017.74
640.49	1011.14
640.83	1004.83
641.17	998.82
641.52	992.47
641.86	985.99
642.20	980.11
642.55	973.67
642.89	967.27
643.23	960.55
643.58	954.79
643.92	948.67
644.26	942.63
644.61	936.55
644.95	930.54
645.29	924.08
645.64	917.39
645.98	911.01
646.32	905.14
646.66	899.02
647.01	893.33
647.35	887.55
647.69	881.72
648.04	876.14
648.38	870.24
648.72	864.44
649.06	858.47
649.41	852.58
649.75	846.70
650.09	840.82
650.43	835.08
650.78	828.92
651.12	822.94
651.46	817.21
651.80	811.59
652.14	806.08
652.49	800.65
652.83	795.48
653.17	789.88
653.51	784.22
653.85	778.86
654.20	773.23
654.54	767.21
654.88	761.44
655.22	755.60
655.56	749.91
655.90	744.33
656.25	739.07
656.59	733.79
656.93	728.71
657.27	723.49
657.61	718.00
657.95	712.97
658.29	707.96
658.64	702.65
658.98	697.31
659.32	691.89
659.66	686.74
660.00	681.51
660.34	676.59
660.68	671.62
661.02	666.58
661.36	661.89
661.70	657.44
662.05	653.22
662.39	648.97
662.73	644.54
663.07	640.23
663.41	635.88
663.75	631.38
664.09	626.81
664.43	622.40
664.77	618.37
665.11	614.04
665.45	609.86
665.79	605.83
666.13	601.66
666.47	597.54
666.81	593.35
667.15	589.17
667.49	585.21
667.83	581.35
668.17	577.40
668.51	573.35
668.85	569.22
669.19	565.30
669.53	561.46
669.87	557.67
670.21	553.95
670.55	550.26
670.89	546.83
671.23	543.40
671.57	539.94
671.91	536.48
672.25	532.97
672.58	529.44
672.92	525.98
673.26	522.81
673.60	519.65
673.94	516.59
674.28	513.62
674.62	510.67
674.96	507.64
675.30	504.79
675.64	501.88
675.97	499.14
676.31	496.28
676.65	493.39
676.99	490.66
677.33	487.82
677.67	485.04
678.01	482.05
678.34	479.11
678.68	476.22
679.02	473.36
679.36	470.60
679.70	467.88
680.04	465.15
680.37	462.32
680.71	459.53
681.05	456.84
681.39	454.17
681.73	451.58
682.06	449.07
682.40	446.53
682.74	443.93
683.08	441.40
683.42	438.78
683.75	436.25
684.09	433.63
684.43	431.12
684.77	428.65
685.10	426.20
685.44	423.91
685.78	421.62
686.12	419.32
686.45	417.00
686.79	414.71
687.13	412.50
687.46	410.31
687.80	408.18
688.14	405.95
688.48	403.93
688.81	401.68
689.15	399.46
689.49	397.28
689.82	395.18
690.16	393.08
690.50	391.14
690.83	389.19
691.17	387.20
691.51	385.33
691.84	383.45
692.18	381.61
692.52	379.62
692.85	377.65
693.19	375.81
693.52	374.01
693.86	372.19
694.20	370.39
694.53	368.58
694.87	366.71
695.21	364.90
695.54	363.03
695.88	361.27
696.21	359.58
696.55	357.88
696.88	356.19
697.22	354.48
697.56	352.80
697.89	351.18
698.23	349.61
698.56	347.99
698.90	346.38
699.23	344.72
699.57	343.15
699.90	341.58
700.24	340.01
700.58	338.47
700.91	337.04
701.25	335.61
701.58	334.24
701.92	332.86
702.25	331.54
702.59	330.18
702.92	328.85
703.26	327.55
703.59	326.29
703.93	325.13
704.26	323.97
704.60	322.72
704.93	321.44
705.26	320.20
705.60	318.99
705.93	317.85
706.27	316.81
706.60	315.76
706.94	314.70
707.27	313.57
707.61	312.47
707.94	311.41
708.27	310.33
708.61	309.24
708.94	308.28
709.28	307.28
709.61	306.32
709.94	305.38
710.28	304.36
710.61	303.36
710.95	302.26
711.28	301.35
711.61	300.39
711.95	299.50
712.28	298.56
712.61	297.59
712.95	296.67
713.28	295.76
713.61	294.91
713.95	294.05
714.28	293.21
714.61	292.40
714.95	291.55
715.28	290.72
715.61	289.86
715.95	288.98
716.28	288.15
716.61	287.35
716.95	286.52
717.28	285.79
717.61	285.04
717.94	284.34
718.28	283.48
718.61	282.79
718.94	282.07
719.27	281.44
719.61	280.82
719.94	280.14
720.27	279.44
720.60	278.76
720.94	278.14
721.27	277.57
721.60	276.98
721.93	276.38
722.27	275.79
722.60	275.25
722.93	274.70
723.26	274.15
723.59	273.58
723.93	273.02
724.26	272.44
724.59	271.87
724.92	271.33
725.25	270.85
725.59	270.28
725.92	269.78
726.25	269.24
726.58	268.75
726.91	268.25
727.24	267.77
727.57	267.29
727.91	266.72
728.24	266.23
728.57	265.74
728.90	265.27
729.23	264.77
729.56	264.32
729.89	263.81
730.22	263.32
730.55	262.83
730.89	262.40
731.22	261.97
731.55	261.55
731.88	261.11
732.21	260.65
732.54	260.20
732.87	259.72
733.20	259.30
733.53	258.88
733.86	258.50
734.19	258.09
734.52	257.70
734.85	257.42
735.18	257.00
735.51	256.61
735.84	256.25
736.17	255.92
736.50	255.50
736.83	255.29
737.16	254.95
737.49	254.63
737.82	254.25
738.15	253.92
738.48	253.57
738.81	253.23
739.14	252.93
739.47	252.66
739.80	252.41
740.13	252.08
740.46	251.74
740.79	251.43
741.12	251.17
741.45	250.85
741.78	250.51
742.11	250.24
742.44	249.95
742.77	249.64
743.10	249.34
743.43	249.04
743.75	248.64
744.08	248.50
744.41	248.22
744.74	247.97
745.07	247.65
745.40	247.40
745.73	247.19
746.06	246.89
746.39	246.62
746.71	246.33
747.04	246.11
747.37	245.87
747.70	245.63
748.03	245.35
748.36	245.14
748.68	244.90
749.01	244.64
749.34	244.42
749.67	244.21
750.00	243.99
750.33	243.84
750.65	243.63
750.98	243.32
751.31	243.10
751.64	242.87
751.97	242.76
752.29	242.58
752.62	242.36
752.95	242.20
753.28	241.98
753.60	241.83
753.93	241.69
754.26	241.53
754.59	241.30
754.91	241.13
755.24	240.92
755.57	240.71
755.90	240.53
756.22	240.31
756.55	240.11
756.88	239.92
757.20	239.69
757.53	239.51
757.86	239.30
758.19	239.13
758.51	238.98
758.84	238.75
759.17	238.53
759.49	238.38
759.82	238.27
760.15	238.15
760.47	237.97
760.80	237.73
761.13	237.55
761.45	237.38
761.78	237.23
762.11	237.11
762.43	236.99
762.76	236.85
763.08	236.73
763.41	236.63
763.74	236.50
764.06	236.37
764.39	236.25
764.71	236.08
765.04	235.93
765.37	235.81
765.69	235.70
766.02	235.58
766.34	235.43
766.67	235.26
767.00	235.16
767.32	235.08
767.65	235.04
767.97	234.94
768.30	234.85
768.62	234.73
768.95	234.61
769.27	234.51
769.60	234.42
769.92	234.28
770.25	234.14
770.57	233.99
770.90	233.88
771.22	233.76
771.55	233.70
771.87	233.65
772.20	233.54
772.52	233.52
772.85	233.56
773.17	233.45
773.50	233.32
773.82	233.20
774.15	233.06
774.47	232.92
774.80	232.81
775.12	232.67
775.45	232.57
775.77	232.47
776.09	232.37
776.42	232.30
776.74	232.25
777.07	232.15
777.39	232.12
777.72	232.05
778.04	231.98
778.36	231.88
778.69	231.80
779.01	231.72
779.33	231.55
779.66	231.33
779.98	231.23
780.31	231.21
780.63	231.16
780.95	231.10
781.28	231.01
781.60	230.95
781.92	230.89
782.25	230.81
782.57	230.76
782.89	230.70
783.22	230.60
783.54	230.53
783.86	230.48
784.19	230.38
784.51	230.33
784.83	230.26
785.16	230.22
785.48	230.17
785.80	230.13
786.12	230.08
786.45	230.06
786.77	230.06
787.09	229.99
787.42	229.91
787.74	229.88
788.06	229.86
788.38	229.80
788.71	229.77
789.03	229.77
789.35	229.76
789.67	229.71
789.99	229.70
790.32	229.68
790.64	229.68
790.96	229.75
791.28	229.69
791.61	229.67
791.93	229.63
792.25	229.57
792.57	229.62
792.89	229.58
793.21	229.55
793.54	229.50
793.86	229.49
794.18	229.47
794.50	229.42
794.82	229.39
795.14	229.36
795.47	229.35
795.79	229.28
796.11	229.21
796.43	229.18
796.75	229.14
797.07	229.07
797.39	229.01
797.71	228.91
798.04	228.88
798.36	228.83
798.68	228.79
799.00	228.77
799.32	228.69
799.64	228.68
799.96	228.65
800.28	228.65
800.60	228.57
800.92	228.52
801.24	228.48
801.56	228.42
801.89	228.38
802.21	228.35
802.53	228.33
802.85	228.30
803.17	228.31
803.49	228.24
803.81	228.18
804.13	228.13
804.45	228.07
804.77	228.05
805.09	228.05
805.41	227.99
805.73	227.94
806.05	227.86
806.37	227.81
806.69	227.75
807.01	227.71
807.33	227.69
807.65	227.63
807.97	227.65
808.28	227.66
808.60	227.63
808.92	227.61
809.24	227.62
809.56	227.60
809.88	227.54
810.20	227.51
810.52	227.51
810.84	227.44
811.16	227.42
811.48	227.36
811.80	227.34
812.12	227.31
812.43	227.31
812.75	227.27
813.07	227.23
813.39	227.21
813.71	227.16
814.03	227.08
814.35	227.08
814.67	226.99
814.98	226.92
815.30	226.91
815.62	226.86
815.94	226.78
816.26	226.78
816.58	226.75
816.89	226.76
817.21	226.79
817.53	226.83
817.85	226.80
818.17	226.79
818.48	226.73
818.80	226.73
819.12	226.70
819.44	226.68
819.76	226.66
820.07	226.66
820.39	226.69
820.71	226.72
821.03	226.70
821.34	226.70
821.66	226.71
821.98	226.71
822.30	226.71
822.61	226.74
822.93	226.69
823.25	226.68
823.57	226.67
823.88	226.64
824.20	226.62
824.52	226.67
824.83	226.68
825.15	226.68
825.47	226.70
825.79	226.71
826.10	226.74
826.42	226.75
826.74	226.75
827.05	226.71
827.37	226.73
827.69	226.74
828.00	226.73
828.32	226.71
828.64	226.70
828.95	226.76
829.27	226.73
829.58	226.71
829.90	226.71
830.22	226.70
830.53	226.66
830.85	226.63
831.17	226.57
831.48	226.55
831.80	226.57
832.11	226.52
832.43	226.50
832.75	226.46
833.06	226.49
833.38	226.47
833.69	226.47
834.01	226.44
834.32	226.43
834.64	226.47
834.96	226.45
835.27	226.44
835.59	226.37
835.90	226.33
836.22	226.33
836.53	226.30
836.85	226.26
837.16	226.37
837.48	226.35
837.79	226.38
838.11	226.38
838.42	226.36
838.74	226.41
839.05	226.37
839.37	226.35
839.68	226.30
840.00	226.27
840.31	226.28
840.63	226.26
840.94	226.22
841.26	226.16
841.57	226.15
841.88	226.13
842.20	226.14
842.51	226.12
842.83	226.13
843.14	226.22
843.46	226.22
843.77	226.17
844.08	226.16
844.40	226.11
844.71	226.08
845.03	226.08
845.34	226.01
845.65	226.01
845.97	225.97
846.28	225.97
846.60	225.95
846.91	225.91
847.22	225.92
847.54	225.93
847.85	225.95
848.16	225.94
848.48	225.92
848.79	225.93
849.10	225.97
849.42	225.93
849.73	225.83
850.04	225.81
850.36	225.73
850.67	225.74
850.98	225.76
851.30	225.77
851.61	225.74
851.92	225.76
852.23	225.79
852.55	225.79
852.86	225.80
853.17	225.80
853.49	225.81
853.80	225.79
854.11	225.80
854.42	225.78
854.74	225.79
855.05	225.80
855.36	225.77
855.67	225.75
855.99	225.75
856.30	225.88
856.61	225.90
856.92	225.90
857.23	225.88
857.55	225.86
857.86	225.82
858.17	225.85
858.48	225.83
858.79	225.80
859.11	225.83
859.42	225.85
859.73	225.83
860.04	225.82
860.35	225.81
860.66	225.79
860.98	225.80
861.29	225.77
861.60	225.74
861.91	225.74
862.22	225.77
862.53	225.75
862.84	225.64
863.16	225.68
863.47	225.68
863.78	225.70
864.09	225.75
864.40	225.80
864.71	225.80
865.02	225.81
865.33	225.82
865.64	225.80
865.95	225.79
866.27	225.84
866.58	225.84
866.89	225.85
867.20	225.86
867.51	225.88
867.82	225.89
868.13	225.93
868.44	225.94
868.75	225.93
869.06	225.97
869.37	225.96
869.68	225.93
869.99	225.97
870.30	225.97
870.61	225.97
870.92	225.98
871.23	225.96
871.54	225.96
871.85	225.99
872.16	226.03
872.47	226.01
872.78	225.98
873.09	226.00
873.40	226.02
873.71	226.03
874.02	226.01
874.33	226.01
874.64	225.99
874.95	225.97
875.26	225.95
875.56	225.93
875.87	225.92
876.18	225.94
876.49	226.01
876.80	225.98
877.11	225.96
877.42	225.94
877.73	225.94
878.04	225.93
878.35	225.93
878.66	225.95
878.96	225.94
879.27	225.92
879.58	225.93
879.89	225.91
880.20	225.94
880.51	225.94
880.82	225.92
881.12	225.92
881.43	225.90
881.74	225.89
882.05	225.89
882.36	225.89
882.67	225.91
882.97	225.78
883.28	225.81
883.59	225.77
883.90	225.77
884.21	225.79
884.51	225.78
884.82	225.74
885.13	225.73
885.44	225.74
885.74	225.74
886.05	225.71
886.36	225.72
886.67	225.69
886.98	225.71
887.28	225.73
887.59	225.72
887.90	225.72
888.20	225.69
888.51	225.68
888.82	225.67
889.13	225.62
889.43	225.71
889.74	225.69
890.05	225.66
890.35	225.67
890.66	225.61
890.97	225.60
891.28	225.58
891.58	225.59
891.89	225.58
892.20	225.57
892.50	225.59
892.81	225.56
893.12	225.54
893.42	225.49
893.73	225.43
894.04	225.44
894.34	225.46
894.65	225.50
894.95	225.49
895.26	225.49
895.57	225.56
895.87	225.46
896.18	225.44
896.48	225.50
896.79	225.46
897.10	225.48
897.40	225.48
897.71	225.47
898.01	225.44
898.32	225.43
898.63	225.41
898.93	225.35
899.24	225.37
899.54	225.38
899.85	225.38
900.15	225.43
900.46	225.43
900.76	225.42
901.07	225.39
901.38	225.40
901.68	225.40
901.99	225.34
902.29	225.34
902.60	225.34
902.90	225.30
903.21	225.30
903.51	225.33
903.82	225.33
904.12	225.33
904.43	225.30
904.73	225.29
905.03	225.31
905.34	225.41
905.64	225.38
905.95	225.40
906.25	225.38
906.56	225.37
906.86	225.36
907.17	225.38
907.47	225.38
907.77	225.31
908.08	225.28
908.38	225.26
908.69	225.29
908.99	225.29
909.30	225.31
909.60	225.31
909.90	225.28
910.21	225.27
910.51	225.24
910.81	225.26
911.12	225.26
911.42	225.27
911.73	225.21
912.03	225.24
912.33	225.24
912.64	225.24
912.94	225.20
913.24	225.20
913.55	225.12
913.85	225.09
914.15	225.15
914.46	225.17
914.76	225.18
915.06	225.17
915.37	225.19
915.67	225.17
915.97	225.14
916.27	225.12
916.58	225.14
916.88	225.19
917.18	225.18
917.49	225.28
917.79	225.27
918.09	225.24
918.39	225.25
918.70	225.22
919.00	225.23
919.30	225.30
919.60	225.29
919.91	225.33
920.21	225.37
920.51	225.31
920.81	225.30
921.12	225.32
921.42	225.32
921.72	225.30
922.02	225.34
922.32	225.38
922.63	225.38
922.93	225.42
923.23	225.43
923.53	225.44
923.83	225.35
924.13	225.34
924.44	225.36
924.74	225.38
925.04	225.44
925.34	225.46
925.64	225.44
925.94	225.45
926.24	225.47
926.55	225.47
926.85	225.51
927.15	225.50
927.45	225.50
927.75	225.49
928.05	225.52
928.35	225.50
928.65	225.53
928.95	225.58
929.26	225.54
929.56	225.54
929.86	225.53
930.16	225.47
930.46	225.48
930.76	225.50
931.06	225.41
931.36	225.35
931.66	225.36
931.96	225.34
932.26	225.37
932.56	225.37
932.86	225.36
933.16	225.39
933.46	225.40
933.76	225.41
934.06	225.41
934.36	225.42
934.66	225.39
934.96	225.37
935.26	225.35
935.56	225.36
935.86	225.34
936.16	225.31
936.46	225.35
936.76	225.34
937.06	225.31
937.36	225.31
937.66	225.36
937.96	225.34
938.26	225.32
938.56	225.26
938.86	225.28
939.16	225.30
939.46	225.29
939.76	225.29
940.06	225.25
940.35	225.21
940.65	225.16
940.95	225.20
941.25	225.16
941.55	225.14
941.85	225.13
942.15	225.14
942.45	225.21
942.75	225.20
943.04	225.21
943.34	225.26
943.64	225.30
943.94	225.25
944.24	225.27
944.54	225.27
944.84	225.30
945.13	225.26
945.43	225.24
945.73	225.21
946.03	225.19
946.33	225.20
946.62	225.20
946.92	225.17
947.22	225.14
947.52	225.17
947.82	225.17
948.11	225.14
948.41	225.13
948.71	225.09
949.01	225.08
949.31	225.05
949.60	225.03
949.90	225.02
950.20	225.02
950.50	224.98
950.79	224.95
951.09	224.94
951.39	224.97
951.69	224.95
951.98	224.98
952.28	224.99
952.58	224.98
952.87	224.99
953.17	225.04
953.47	225.06
953.76	225.03
954.06	225.00
954.36	225.00
954.66	224.98
954.95	225.00
955.25	224.99
955.55	225.00
955.84	224.97
956.14	224.99
956.44	224.98
956.73	224.95
957.03	224.96
957.32	224.97
957.62	224.95
957.92	224.97
958.21	224.98
958.51	225.09
958.81	225.12
959.10	225.13
959.40	225.14
959.69	225.14
959.99	225.15
960.29	225.18
960.58	225.19
960.88	225.21
961.17	225.21
961.47	225.26
961.76	225.28
962.06	225.33
962.36	225.30
962.65	225.32
962.95	225.36
963.24	225.37
963.54	225.39
963.83	225.40
964.13	225.38
964.42	225.36
964.72	225.29
965.01	225.28
965.31	225.26
965.60	225.24
965.90	225.30
966.19	225.30
966.49	225.30
966.78	225.31
967.08	225.32
967.37	225.31
967.67	225.29
967.96	225.28
968.26	225.28
968.55	225.31
968.85	225.30
969.14	225.29
969.43	225.30
969.73	225.29
970.02	225.25
970.32	225.28
970.61	225.24
970.91	225.22
971.20	225.20
971.49	225.21
971.79	225.21
972.08	225.13
972.38	225.14
972.67	225.13
972.96	225.18
973.26	225.15
973.55	225.19
973.85	225.17
974.14	225.15
974.43	225.13
974.73	225.11
975.02	225.11
975.31	225.13
975.61	225.13
975.90	225.15
976.19	225.16
976.49	225.15
976.78	225.16
977.07	225.17
977.37	225.18
977.66	225.19
977.95	225.19
978.24	225.25
978.54	225.28
978.83	225.28
979.12	225.23
979.42	225.24
979.71	225.23
980.00	225.26
980.29	225.30
980.59	225.27
980.88	225.27
981.17	225.27
981.46	225.28
981.76	225.26
982.05	225.25
982.34	225.30
982.63	225.32
982.93	225.34
983.22	225.33
983.51	225.36
983.80	225.35
984.09	225.37
984.39	225.32
984.68	225.29
984.97	225.29
985.26	225.26
985.55	225.26
985.85	225.26
986.14	225.25
986.43	225.25
986.72	225.27
987.01	225.30
987.30	225.32
987.59	225.28
987.89	225.27
988.18	225.25
988.47	225.22
988.76	225.24
989.05	225.25
989.34	225.26
989.63	225.28
989.92	225.27
990.22	225.29
990.51	225.30
990.80	225.27
991.09	225.27
991.38	225.32
991.67	225.32
991.96	225.32
992.25	225.34
992.54	225.33
992.83	225.33
993.12	225.31
993.41	225.30
993.70	225.36
993.99	225.40
994.28	225.43
994.58	225.46
994.87	225.41
995.16	225.41
995.45	225.38
995.74	225.36
996.03	225.38
996.32	225.37
996.61	225.39
996.90	225.40
997.19	225.40
997.48	225.36
997.77	225.33
998.06	225.32
998.34	225.27
998.63	225.27
998.92	225.26
999.21	225.24
999.50	225.22
999.79	225.19
1000.08	225.17
1000.37	225.14
1000.66	225.11
1000.95	225.12
1001.24	225.14
1001.53	225.18
1001.82	225.16
1002.11	225.15
1002.40	225.15
1002.68	225.17
1002.97	225.24
1003.26	225.24
1003.55	225.24
1003.84	225.23
1004.13	225.26
1004.42	225.27
1004.71	225.26
1004.99	225.26
1005.28	225.29
1005.57	225.28
1005.86	225.25
1006.15	225.25
1006.44	225.22
1006.72	225.24
1007.01	225.20
1007.30	225.15
1007.59	225.10
1007.88	225.11
1008.17	225.11
1008.45	225.11
1008.74	225.04
1009.03	224.99
1009.32	225.01
1009.60	225.02
1009.89	225.02
1010.18	224.98
1010.47	224.95
1010.76	224.94
1011.04	224.95
1011.33	224.94
1011.62	224.95
1011.91	224.97
1012.19	224.97
1012.48	225.00
1012.77	225.00
1013.05	225.06
1013.34	225.09
1013.63	225.12
1013.92	225.11
1014.20	225.10
1014.49	225.09
1014.78	225.11
1015.06	225.10
1015.35	225.07
1015.64	225.09
1015.92	225.12
1016.21	225.15
1016.50	225.20
1016.78	225.24
1017.07	225.22
1017.36	225.20
1017.64	225.22
1017.93	225.22
1018.22	225.20
1018.50	225.19
1018.79	225.19
1019.08	225.16
1019.36	225.18
1019.65	225.15
1019.93	225.18
1020.22	225.20
1020.51	225.24
1020.79	225.23
1021.08	224.71
1021.36	225.01
1021.65	225.26
1021.94	225.07
1022.22	225.44
1022.51	224.91
1022.79	225.63
1023.08	225.39
1023.36	226.16
1023.65	225.01
>>>>>End Processed Spectral Data<<<<<
