SpectraSuite Data File
++++++++++++++++++++++++++++++++++++
Date: Fri Feb 01 15:10:18 EST 2013
User: group
Dark Spectrum Present: No
Reference Spectrum Present: No
Number of Sampled Component Spectra: 1
Spectrometers: USB2E7196
Integration Time (usec): 35000 (USB2E7196)
Spectra Averaged: 100 (USB2E7196)
Boxcar Smoothing: 10 (USB2E7196)
Correct for Electrical Dark: No (USB2E7196)
Strobe/Lamp Enabled: No (USB2E7196)
Correct for Detector Non-linearity: No (USB2E7196)
Correct for Stray Light: No (USB2E7196)
Number of Pixels in Processed Spectrum: 2048
>>>>>Begin Processed Spectral Data<<<<<
339.09	0.00
339.48	215.28
339.86	217.26
340.24	218.19
340.63	219.76
341.01	222.94
341.39	222.03
341.78	223.56
342.16	224.90
342.54	224.96
342.93	213.61
343.31	224.40
343.69	224.92
344.07	225.38
344.46	225.78
344.84	226.15
345.22	226.34
345.60	226.59
345.99	226.78
346.37	226.90
346.75	226.97
347.13	227.03
347.52	227.09
347.90	227.15
348.28	227.19
348.66	227.21
349.05	227.16
349.43	227.19
349.81	227.21
350.19	227.20
350.57	227.23
350.96	227.33
351.34	227.40
351.72	227.52
352.10	227.58
352.48	227.65
352.87	227.69
353.25	227.77
353.63	227.84
354.01	227.90
354.39	228.00
354.77	228.10
355.15	228.20
355.54	228.29
355.92	228.33
356.30	228.40
356.68	228.57
357.06	228.72
357.44	228.77
357.82	228.83
358.20	228.92
358.58	229.00
358.97	229.06
359.35	229.11
359.73	229.15
360.11	229.22
360.49	229.29
360.87	229.34
361.25	229.39
361.63	229.43
362.01	229.45
362.39	229.44
362.77	229.49
363.15	229.52
363.53	229.55
363.91	229.56
364.29	229.57
364.67	229.46
365.05	229.44
365.43	229.43
365.81	229.44
366.19	229.48
366.57	229.50
366.95	229.49
367.33	229.48
367.71	229.47
368.09	229.44
368.47	229.42
368.85	229.38
369.23	229.38
369.61	229.31
369.99	229.30
370.37	229.30
370.75	229.30
371.13	229.24
371.51	229.14
371.89	229.11
372.27	229.10
372.65	229.08
373.03	229.02
373.41	228.99
373.78	228.97
374.16	228.88
374.54	228.78
374.92	228.69
375.30	228.61
375.68	228.52
376.06	228.47
376.44	228.38
376.82	228.37
377.19	228.28
377.57	228.22
377.95	228.14
378.33	228.04
378.71	227.92
379.09	227.87
379.47	227.82
379.84	227.73
380.22	227.61
380.60	227.50
380.98	227.46
381.36	227.38
381.73	227.30
382.11	227.23
382.49	227.15
382.87	227.09
383.25	227.03
383.62	227.07
384.00	227.00
384.38	226.96
384.76	226.88
385.13	226.85
385.51	226.80
385.89	226.73
386.27	226.67
386.64	226.63
387.02	226.58
387.40	226.50
387.78	226.48
388.15	226.42
388.53	226.41
388.91	226.35
389.29	226.31
389.66	226.28
390.04	226.29
390.42	226.27
390.79	226.25
391.17	226.25
391.55	226.16
391.92	226.14
392.30	226.12
392.68	226.06
393.05	226.05
393.43	226.06
393.81	226.09
394.18	226.09
394.56	226.12
394.94	226.17
395.31	226.23
395.69	226.27
396.06	226.33
396.44	226.36
396.82	226.41
397.19	226.50
397.57	226.53
397.95	226.61
398.32	226.69
398.70	226.79
399.07	226.90
399.45	226.95
399.82	227.04
400.20	227.13
400.58	227.24
400.95	227.30
401.33	227.40
401.70	227.57
402.08	227.69
402.45	227.78
402.83	227.90
403.20	228.03
403.58	228.16
403.95	228.32
404.33	228.46
404.71	228.62
405.08	228.85
405.46	229.01
405.83	229.16
406.21	229.30
406.58	229.49
406.96	229.68
407.33	229.90
407.70	230.11
408.08	230.38
408.45	230.60
408.83	230.86
409.20	231.13
409.58	231.31
409.95	231.60
410.33	231.93
410.70	232.17
411.08	232.47
411.45	232.75
411.82	233.06
412.20	233.44
412.57	233.83
412.95	234.10
413.32	234.51
413.69	234.88
414.07	235.36
414.44	235.82
414.82	236.25
415.19	236.78
415.56	237.32
415.94	237.89
416.31	238.55
416.68	239.20
417.06	239.92
417.43	240.62
417.81	241.37
418.18	242.13
418.55	243.00
418.93	243.88
419.30	244.76
419.67	245.69
420.04	246.63
420.42	247.62
420.79	248.80
421.16	249.93
421.54	251.14
421.91	252.32
422.28	253.58
422.66	254.93
423.03	256.26
423.40	257.60
423.77	259.01
424.15	260.41
424.52	261.87
424.89	263.45
425.26	264.97
425.64	266.43
426.01	268.00
426.38	269.64
426.75	271.36
427.13	273.15
427.50	274.95
427.87	276.84
428.24	278.72
428.61	280.46
428.99	282.40
429.36	284.50
429.73	286.52
430.10	288.52
430.47	290.60
430.85	292.66
431.22	294.88
431.59	297.25
431.96	299.51
432.33	301.99
432.70	304.35
433.08	307.19
433.45	309.82
433.82	312.43
434.19	315.27
434.56	318.05
434.93	320.69
435.30	323.33
435.68	326.21
436.05	329.02
436.42	331.83
436.79	334.35
437.16	337.06
437.53	339.97
437.90	342.77
438.27	345.50
438.64	348.32
439.01	350.93
439.38	353.16
439.75	355.34
440.13	357.84
440.50	360.19
440.87	362.04
441.24	364.03
441.61	366.20
441.98	367.74
442.35	369.52
442.72	371.33
443.09	373.13
443.46	374.14
443.83	374.70
444.20	375.16
444.57	376.06
444.94	376.34
445.31	376.66
445.68	377.02
446.05	377.11
446.42	376.76
446.79	376.35
447.16	375.87
447.53	375.55
447.90	374.41
448.27	373.21
448.64	371.61
449.01	370.44
449.37	368.48
449.74	366.58
450.11	364.33
450.48	361.89
450.85	359.33
451.22	357.22
451.59	355.24
451.96	353.34
452.33	350.71
452.70	348.32
453.07	345.50
453.43	342.56
453.80	339.79
454.17	337.12
454.54	334.63
454.91	331.98
455.28	329.31
455.65	326.77
456.02	324.37
456.38	322.24
456.75	319.57
457.12	317.30
457.49	315.08
457.86	312.95
458.23	311.13
458.59	309.11
458.96	306.99
459.33	305.14
459.70	303.26
460.07	301.79
460.43	300.13
460.80	298.45
461.17	297.05
461.54	295.58
461.91	294.16
462.27	292.63
462.64	291.32
463.01	289.95
463.38	288.66
463.74	287.32
464.11	286.14
464.48	285.10
464.85	284.00
465.21	283.13
465.58	282.15
465.95	281.04
466.32	280.10
466.68	279.18
467.05	278.28
467.42	277.38
467.78	276.40
468.15	275.50
468.52	274.83
468.88	273.95
469.25	273.16
469.62	272.52
469.98	271.87
470.35	271.27
470.72	270.64
471.08	270.00
471.45	269.40
471.82	268.86
472.18	268.24
472.55	267.77
472.92	267.23
473.28	266.78
473.65	266.29
474.02	265.83
474.38	265.45
474.75	265.08
475.11	264.73
475.48	264.44
475.85	264.18
476.21	263.95
476.58	263.74
476.94	263.57
477.31	263.37
477.67	263.18
478.04	263.05
478.41	262.99
478.77	263.00
479.14	262.97
479.50	262.92
479.87	262.99
480.23	263.09
480.60	263.13
480.96	263.19
481.33	263.37
481.69	263.57
482.06	263.76
482.42	263.96
482.79	264.20
483.15	264.52
483.52	264.90
483.88	265.23
484.25	265.62
484.61	266.00
484.98	266.47
485.34	267.04
485.71	267.62
486.07	268.21
486.44	268.77
486.80	269.43
487.17	270.16
487.53	270.94
487.90	271.77
488.26	272.67
488.62	273.67
488.99	274.65
489.35	275.68
489.72	276.77
490.08	277.99
490.44	279.23
490.81	280.56
491.17	281.89
491.54	283.37
491.90	284.90
492.26	286.57
492.63	288.27
492.99	290.07
493.36	291.93
493.72	293.96
494.08	296.06
494.45	298.32
494.81	300.68
495.17	303.15
495.54	305.74
495.90	308.41
496.26	311.18
496.63	314.14
496.99	317.19
497.35	320.51
497.72	323.87
498.08	327.39
498.44	331.06
498.80	334.98
499.17	339.01
499.53	343.15
499.89	347.57
500.26	352.08
500.62	356.74
500.98	361.74
501.34	366.76
501.71	372.06
502.07	377.49
502.43	383.09
502.79	388.88
503.16	394.86
503.52	401.20
503.88	407.61
504.24	414.25
504.60	421.21
504.97	428.29
505.33	435.60
505.69	443.24
506.05	451.00
506.41	458.94
506.78	467.11
507.14	475.59
507.50	484.24
507.86	493.25
508.22	502.37
508.59	511.55
508.95	521.22
509.31	531.01
509.67	541.13
510.03	551.46
510.39	562.01
510.75	572.89
511.12	583.74
511.48	595.01
511.84	606.42
512.20	617.88
512.56	629.83
512.92	642.06
513.28	654.44
513.64	666.97
514.00	679.64
514.37	692.64
514.73	705.69
515.09	718.79
515.45	732.13
515.81	745.76
516.17	759.72
516.53	773.81
516.89	788.05
517.25	802.17
517.61	816.61
517.97	831.09
518.33	845.47
518.69	860.32
519.05	875.44
519.41	890.74
519.77	906.37
520.13	921.90
520.49	937.38
520.85	952.86
521.21	968.62
521.57	984.91
521.93	1000.72
522.29	1017.19
522.65	1033.45
523.01	1049.74
523.37	1065.87
523.73	1082.07
524.09	1098.15
524.45	1114.54
524.81	1131.23
525.17	1148.11
525.53	1165.12
525.89	1182.07
526.25	1198.93
526.61	1215.25
526.97	1231.96
527.33	1248.45
527.68	1265.08
528.04	1281.55
528.40	1298.17
528.76	1315.12
529.12	1331.79
529.48	1348.58
529.84	1364.70
530.20	1381.40
530.56	1398.50
530.91	1415.83
531.27	1432.75
531.63	1449.32
531.99	1465.92
532.35	1481.97
532.71	1497.88
533.07	1514.19
533.42	1530.12
533.78	1546.24
534.14	1562.66
534.50	1578.10
534.86	1594.06
535.21	1609.32
535.57	1625.31
535.93	1640.84
536.29	1655.75
536.65	1670.86
537.00	1685.79
537.36	1701.01
537.72	1715.68
538.08	1730.03
538.44	1743.94
538.79	1757.89
539.15	1771.78
539.51	1785.62
539.87	1800.14
540.22	1813.99
540.58	1827.84
540.94	1841.32
541.29	1854.41
541.65	1867.04
542.01	1880.34
542.37	1892.60
542.72	1905.12
543.08	1916.91
543.44	1929.37
543.79	1940.66
544.15	1951.71
544.51	1963.28
544.87	1974.38
545.22	1985.19
545.58	1995.47
545.94	2005.33
546.29	2015.14
546.65	2024.98
547.01	2034.17
547.36	2042.91
547.72	2051.34
548.07	2059.13
548.43	2067.39
548.79	2075.48
549.14	2083.22
549.50	2090.73
549.86	2098.60
550.21	2105.87
550.57	2113.04
550.92	2119.77
551.28	2126.98
551.64	2133.98
551.99	2140.61
552.35	2146.86
552.70	2152.74
553.06	2158.79
553.41	2165.14
553.77	2171.23
554.13	2177.33
554.48	2183.52
554.84	2188.90
555.19	2194.40
555.55	2199.46
555.90	2203.82
556.26	2208.61
556.61	2213.20
556.97	2217.25
557.32	2221.36
557.68	2225.53
558.03	2229.80
558.39	2233.45
558.74	2237.99
559.10	2241.82
559.45	2245.43
559.81	2249.78
560.16	2253.85
560.52	2256.97
560.87	2260.44
561.23	2263.03
561.58	2265.79
561.94	2268.25
562.29	2270.68
562.64	2273.20
563.00	2275.88
563.35	2279.38
563.71	2282.43
564.06	2285.64
564.42	2288.45
564.77	2290.88
565.12	2293.05
565.48	2294.84
565.83	2296.50
566.19	2297.75
566.54	2298.72
566.89	2299.81
567.25	2300.11
567.60	2301.32
567.96	2302.93
568.31	2303.57
568.66	2304.57
569.02	2305.00
569.37	2305.21
569.72	2305.86
570.08	2305.82
570.43	2305.69
570.78	2304.89
571.14	2303.23
571.49	2301.68
571.84	2301.20
572.20	2299.88
572.55	2298.76
572.90	2297.23
573.26	2295.87
573.61	2294.12
573.96	2292.12
574.31	2289.00
574.67	2285.88
575.02	2282.20
575.37	2278.71
575.72	2274.78
576.08	2271.52
576.43	2268.23
576.78	2264.61
577.13	2261.36
577.49	2258.27
577.84	2254.90
578.19	2251.18
578.54	2247.39
578.90	2243.07
579.25	2237.45
579.60	2232.30
579.95	2227.18
580.30	2222.00
580.66	2216.82
581.01	2211.66
581.36	2206.70
581.71	2202.40
582.06	2197.91
582.42	2193.32
582.77	2188.01
583.12	2183.37
583.47	2178.36
583.82	2173.13
584.17	2167.65
584.53	2162.03
584.88	2156.27
585.23	2150.30
585.58	2144.73
585.93	2139.27
586.28	2134.53
586.63	2129.40
586.98	2124.35
587.34	2119.59
587.69	2114.70
588.04	2109.15
588.39	2103.48
588.74	2097.03
589.09	2090.78
589.44	2083.86
589.79	2077.74
590.14	2072.22
590.49	2065.50
590.84	2059.16
591.19	2053.15
591.54	2046.62
591.89	2039.05
592.25	2032.17
592.60	2024.71
592.95	2017.00
593.30	2009.48
593.65	2001.82
594.00	1994.80
594.35	1987.51
594.70	1979.27
595.05	1971.89
595.40	1964.63
595.75	1957.08
596.10	1950.59
596.45	1943.73
596.80	1937.49
597.15	1930.71
597.50	1923.27
597.85	1916.84
598.19	1909.97
598.54	1902.78
598.89	1896.27
599.24	1890.49
599.59	1883.59
599.94	1877.48
600.29	1871.08
600.64	1864.56
600.99	1856.91
601.34	1849.87
601.69	1842.84
602.04	1835.90
602.39	1828.48
602.74	1821.65
603.08	1814.81
603.43	1808.23
603.78	1800.99
604.13	1793.74
604.48	1786.46
604.83	1779.72
605.18	1772.72
605.53	1764.83
605.87	1756.79
606.22	1749.40
606.57	1741.44
606.92	1734.09
607.27	1726.88
607.62	1720.02
607.96	1712.58
608.31	1705.99
608.66	1698.42
609.01	1690.92
609.36	1683.38
609.70	1675.38
610.05	1667.14
610.40	1659.36
610.75	1650.88
611.10	1643.26
611.44	1634.90
611.79	1626.98
612.14	1618.23
612.49	1609.14
612.83	1600.81
613.18	1592.68
613.53	1584.72
613.88	1576.15
614.22	1567.96
614.57	1559.29
614.92	1551.17
615.27	1543.66
615.61	1535.33
615.96	1527.35
616.31	1519.68
616.65	1512.50
617.00	1505.08
617.35	1497.47
617.70	1489.04
618.04	1480.48
618.39	1472.15
618.74	1464.56
619.08	1456.26
619.43	1448.81
619.78	1441.83
620.12	1434.60
620.47	1427.08
620.82	1418.73
621.16	1411.40
621.51	1403.78
621.85	1396.16
622.20	1387.67
622.55	1379.42
622.89	1371.54
623.24	1363.92
623.59	1356.48
623.93	1348.90
624.28	1341.54
624.62	1334.08
624.97	1327.16
625.32	1320.69
625.66	1313.77
626.01	1306.64
626.35	1299.14
626.70	1291.32
627.04	1283.58
627.39	1275.85
627.73	1268.53
628.08	1261.65
628.43	1254.35
628.77	1246.91
629.12	1239.44
629.46	1232.32
629.81	1224.96
630.15	1217.89
630.50	1210.56
630.84	1202.41
631.19	1194.47
631.53	1187.04
631.88	1179.51
632.22	1171.87
632.57	1164.36
632.91	1156.85
633.26	1149.37
633.60	1142.13
633.95	1135.22
634.29	1128.26
634.64	1121.67
634.98	1114.18
635.32	1107.22
635.67	1100.66
636.01	1094.14
636.36	1087.31
636.70	1080.84
637.05	1074.26
637.39	1067.75
637.73	1061.24
638.08	1055.51
638.42	1049.59
638.77	1043.14
639.11	1036.49
639.45	1030.07
639.80	1023.53
640.14	1017.08
640.49	1010.57
640.83	1004.22
641.17	997.82
641.52	991.54
641.86	985.10
642.20	979.47
642.55	973.15
642.89	966.67
643.23	960.22
643.58	954.51
643.92	948.29
644.26	942.19
644.61	936.22
644.95	930.18
645.29	923.49
645.64	916.75
645.98	910.42
646.32	904.69
646.66	898.73
647.01	892.90
647.35	887.22
647.69	881.50
648.04	875.95
648.38	870.24
648.72	864.22
649.06	858.02
649.41	852.08
649.75	846.02
650.09	840.03
650.43	834.19
650.78	828.04
651.12	822.11
651.46	816.34
651.80	810.53
652.14	805.18
652.49	799.89
652.83	794.70
653.17	789.06
653.51	783.29
653.85	777.84
654.20	772.19
654.54	766.19
654.88	760.47
655.22	754.63
655.56	748.96
655.90	743.53
656.25	738.35
656.59	732.96
656.93	727.85
657.27	722.74
657.61	717.35
657.95	712.28
658.29	707.23
658.64	702.09
658.98	696.87
659.32	691.41
659.66	686.15
660.00	680.79
660.34	675.89
660.68	671.03
661.02	666.09
661.36	661.47
661.70	657.01
662.05	652.64
662.39	648.33
662.73	643.79
663.07	639.40
663.41	634.96
663.75	630.53
664.09	626.04
664.43	621.65
664.77	617.52
665.11	613.32
665.45	609.22
665.79	605.14
666.13	601.04
666.47	596.94
666.81	592.77
667.15	588.78
667.49	584.87
667.83	581.07
668.17	577.16
668.51	573.06
668.85	569.07
669.19	565.29
669.53	561.43
669.87	557.65
670.21	554.02
670.55	550.44
670.89	546.98
671.23	543.58
671.57	540.12
671.91	536.57
672.25	533.08
672.58	529.59
672.92	526.19
673.26	523.04
673.60	519.97
673.94	516.91
674.28	513.96
674.62	511.04
674.96	508.02
675.30	505.15
675.64	502.25
675.97	499.46
676.31	496.58
676.65	493.63
676.99	490.98
677.33	488.10
677.67	485.26
678.01	482.25
678.34	479.33
678.68	476.46
679.02	473.68
679.36	470.94
679.70	468.26
680.04	465.53
680.37	462.63
680.71	459.85
681.05	457.25
681.39	454.56
681.73	451.93
682.06	449.36
682.40	446.78
682.74	444.33
683.08	441.82
683.42	439.27
683.75	436.86
684.09	434.30
684.43	431.89
684.77	429.44
685.10	427.17
685.44	424.84
685.78	422.59
686.12	420.37
686.45	418.08
686.79	415.77
687.13	413.58
687.46	411.43
687.80	409.28
688.14	407.13
688.48	405.08
688.81	402.81
689.15	400.71
689.49	398.54
689.82	396.41
690.16	394.30
690.50	392.30
690.83	390.32
691.17	388.32
691.51	386.36
691.84	384.51
692.18	382.57
692.52	380.58
692.85	378.63
693.19	376.77
693.52	374.96
693.86	373.17
694.20	371.37
694.53	369.58
694.87	367.74
695.21	365.93
695.54	364.09
695.88	362.39
696.21	360.60
696.55	358.94
696.88	357.25
697.22	355.66
697.56	354.03
697.89	352.37
698.23	350.81
698.56	349.19
698.90	347.60
699.23	345.97
699.57	344.45
699.90	342.92
700.24	341.38
700.58	339.86
700.91	338.36
701.25	336.94
701.58	335.58
701.92	334.20
702.25	332.81
702.59	331.46
702.92	330.14
703.26	328.85
703.59	327.60
703.93	326.45
704.26	325.17
704.60	323.89
704.93	322.62
705.26	321.34
705.60	320.20
705.93	319.05
706.27	317.99
706.60	316.97
706.94	315.89
707.27	314.76
707.61	313.68
707.94	312.64
708.27	311.56
708.61	310.54
708.94	309.58
709.28	308.60
709.61	307.63
709.94	306.65
710.28	305.68
710.61	304.70
710.95	303.64
711.28	302.74
711.61	301.83
711.95	300.93
712.28	300.01
712.61	299.03
712.95	298.15
713.28	297.29
713.61	296.36
713.95	295.47
714.28	294.62
714.61	293.75
714.95	292.90
715.28	292.05
715.61	291.13
715.95	290.27
716.28	289.43
716.61	288.65
716.95	287.87
717.28	287.10
717.61	286.36
717.94	285.60
718.28	284.82
718.61	284.10
718.94	283.43
719.27	282.79
719.61	282.15
719.94	281.48
720.27	280.75
720.60	280.10
720.94	279.48
721.27	278.90
721.60	278.36
721.93	277.80
722.27	277.28
722.60	276.75
722.93	276.17
723.26	275.63
723.59	275.06
723.93	274.51
724.26	274.01
724.59	273.44
724.92	272.95
725.25	272.46
725.59	271.94
725.92	271.40
726.25	270.91
726.58	270.40
726.91	269.90
727.24	269.42
727.57	268.96
727.91	268.45
728.24	267.97
728.57	267.47
728.90	267.01
729.23	266.48
729.56	266.05
729.89	265.57
730.22	265.11
730.55	264.61
730.89	264.17
731.22	263.70
731.55	263.27
731.88	262.88
732.21	262.44
732.54	262.02
732.87	261.58
733.20	261.19
733.53	260.83
733.86	260.41
734.19	260.05
734.52	259.67
734.85	259.37
735.18	258.97
735.51	258.60
735.84	258.20
736.17	257.87
736.50	257.47
736.83	257.23
737.16	256.91
737.49	256.62
737.82	256.23
738.15	255.90
738.48	255.57
738.81	255.18
739.14	254.83
739.47	254.51
739.80	254.23
740.13	253.91
740.46	253.57
740.79	253.24
741.12	252.94
741.45	252.61
741.78	252.24
742.11	251.97
742.44	251.64
742.77	251.40
743.10	251.04
743.43	250.76
743.75	250.39
744.08	250.22
744.41	249.96
744.74	249.73
745.07	249.44
745.40	249.22
745.73	248.98
746.06	248.66
746.39	248.42
746.71	248.13
747.04	247.89
747.37	247.63
747.70	247.41
748.03	247.14
748.36	246.88
748.68	246.67
749.01	246.41
749.34	246.24
749.67	246.01
750.00	245.87
750.33	245.70
750.65	245.48
750.98	245.16
751.31	244.93
751.64	244.71
751.97	244.61
752.29	244.39
752.62	244.16
752.95	243.99
753.28	243.77
753.60	243.57
753.93	243.38
754.26	243.20
754.59	243.00
754.91	242.80
755.24	242.65
755.57	242.48
755.90	242.30
756.22	242.08
756.55	241.87
756.88	241.63
757.20	241.39
757.53	241.22
757.86	241.02
758.19	240.90
758.51	240.71
758.84	240.50
759.17	240.31
759.49	240.20
759.82	240.07
760.15	239.91
760.47	239.79
760.80	239.62
761.13	239.50
761.45	239.34
761.78	239.22
762.11	239.06
762.43	238.89
762.76	238.75
763.08	238.66
763.41	238.54
763.74	238.41
764.06	238.28
764.39	238.12
764.71	238.00
765.04	237.83
765.37	237.74
765.69	237.58
766.02	237.44
766.34	237.26
766.67	237.12
767.00	237.03
767.32	236.93
767.65	236.89
767.97	236.77
768.30	236.66
768.62	236.53
768.95	236.41
769.27	236.29
769.60	236.19
769.92	236.02
770.25	235.91
770.57	235.83
770.90	235.71
771.22	235.61
771.55	235.51
771.87	235.40
772.20	235.28
772.52	235.31
772.85	235.35
773.17	235.26
773.50	235.14
773.82	235.01
774.15	234.85
774.47	234.66
774.80	234.57
775.12	234.47
775.45	234.39
775.77	234.28
776.09	234.20
776.42	234.12
776.74	234.07
777.07	233.98
777.39	233.87
777.72	233.78
778.04	233.72
778.36	233.63
778.69	233.57
779.01	233.49
779.33	233.29
779.66	233.10
779.98	233.05
780.31	233.02
780.63	233.01
780.95	233.00
781.28	232.95
781.60	232.86
781.92	232.76
782.25	232.68
782.57	232.62
782.89	232.55
783.22	232.48
783.54	232.41
783.86	232.34
784.19	232.28
784.51	232.29
784.83	232.20
785.16	232.16
785.48	232.08
785.80	232.07
786.12	232.01
786.45	231.96
786.77	231.91
787.09	231.82
787.42	231.76
787.74	231.72
788.06	231.67
788.38	231.65
788.71	231.62
789.03	231.60
789.35	231.57
789.67	231.54
789.99	231.52
790.32	231.45
790.64	231.44
790.96	231.47
791.28	231.38
791.61	231.38
791.93	231.37
792.25	231.34
792.57	231.32
792.89	231.30
793.21	231.27
793.54	231.22
793.86	231.18
794.18	231.11
794.50	231.04
794.82	231.02
795.14	231.03
795.47	231.03
795.79	230.99
796.11	230.99
796.43	230.95
796.75	230.93
797.07	230.90
797.39	230.88
797.71	230.81
798.04	230.79
798.36	230.75
798.68	230.72
799.00	230.70
799.32	230.65
799.64	230.63
799.96	230.62
800.28	230.61
800.60	230.59
800.92	230.59
801.24	230.57
801.56	230.55
801.89	230.47
802.21	230.42
802.53	230.37
802.85	230.31
803.17	230.33
803.49	230.24
803.81	230.25
804.13	230.21
804.45	230.14
804.77	230.13
805.09	230.13
805.41	230.09
805.73	230.05
806.05	229.99
806.37	229.93
806.69	229.88
807.01	229.86
807.33	229.87
807.65	229.79
807.97	229.83
808.28	229.80
808.60	229.75
808.92	229.71
809.24	229.77
809.56	229.75
809.88	229.70
810.20	229.70
810.52	229.67
810.84	229.63
811.16	229.60
811.48	229.57
811.80	229.56
812.12	229.52
812.43	229.50
812.75	229.50
813.07	229.49
813.39	229.47
813.71	229.43
814.03	229.39
814.35	229.37
814.67	229.29
814.98	229.26
815.30	229.23
815.62	229.24
815.94	229.12
816.26	229.14
816.58	229.06
816.89	229.06
817.21	229.04
817.53	229.04
817.85	229.00
818.17	228.98
818.48	228.92
818.80	228.90
819.12	228.88
819.44	228.86
819.76	228.82
820.07	228.79
820.39	228.76
820.71	228.73
821.03	228.77
821.34	228.76
821.66	228.72
821.98	228.76
822.30	228.68
822.61	228.73
822.93	228.67
823.25	228.69
823.57	228.67
823.88	228.67
824.20	228.65
824.52	228.69
824.83	228.65
825.15	228.62
825.47	228.65
825.79	228.61
826.10	228.56
826.42	228.58
826.74	228.58
827.05	228.55
827.37	228.55
827.69	228.49
828.00	228.48
828.32	228.48
828.64	228.42
828.95	228.51
829.27	228.50
829.58	228.49
829.90	228.48
830.22	228.46
830.53	228.42
830.85	228.41
831.17	228.35
831.48	228.34
831.80	228.33
832.11	228.31
832.43	228.31
832.75	228.32
833.06	228.33
833.38	228.35
833.69	228.36
834.01	228.35
834.32	228.35
834.64	228.35
834.96	228.38
835.27	228.40
835.59	228.34
835.90	228.31
836.22	228.30
836.53	228.29
836.85	228.30
837.16	228.38
837.48	228.35
837.79	228.38
838.11	228.38
838.42	228.38
838.74	228.37
839.05	228.36
839.37	228.34
839.68	228.30
840.00	228.26
840.31	228.25
840.63	228.26
840.94	228.23
841.26	228.21
841.57	228.18
841.88	228.15
842.20	228.16
842.51	228.12
842.83	228.12
843.14	228.21
843.46	228.19
843.77	228.15
844.08	228.17
844.40	228.11
844.71	228.11
845.03	228.09
845.34	228.04
845.65	228.02
845.97	228.01
846.28	228.00
846.60	228.00
846.91	228.00
847.22	227.98
847.54	228.01
847.85	228.01
848.16	227.99
848.48	227.96
848.79	228.00
849.10	228.03
849.42	228.05
849.73	227.94
850.04	227.93
850.36	227.90
850.67	227.91
850.98	227.94
851.30	227.93
851.61	227.93
851.92	227.97
852.23	228.01
852.55	228.04
852.86	228.04
853.17	228.06
853.49	228.04
853.80	228.03
854.11	228.01
854.42	228.00
854.74	228.00
855.05	228.02
855.36	227.94
855.67	227.91
855.99	227.87
856.30	227.98
856.61	227.97
856.92	227.96
857.23	227.91
857.55	227.90
857.86	227.87
858.17	227.90
858.48	227.89
858.79	227.85
859.11	227.86
859.42	227.84
859.73	227.83
860.04	227.84
860.35	227.80
860.66	227.79
860.98	227.79
861.29	227.79
861.60	227.78
861.91	227.82
862.22	227.82
862.53	227.85
862.84	227.73
863.16	227.76
863.47	227.74
863.78	227.75
864.09	227.78
864.40	227.81
864.71	227.82
865.02	227.80
865.33	227.80
865.64	227.78
865.95	227.78
866.27	227.84
866.58	227.83
866.89	227.86
867.20	227.87
867.51	227.86
867.82	227.88
868.13	227.88
868.44	227.84
868.75	227.82
869.06	227.77
869.37	227.79
869.68	227.74
869.99	227.77
870.30	227.79
870.61	227.76
870.92	227.76
871.23	227.74
871.54	227.76
871.85	227.79
872.16	227.77
872.47	227.77
872.78	227.69
873.09	227.70
873.40	227.68
873.71	227.66
874.02	227.66
874.33	227.62
874.64	227.62
874.95	227.63
875.26	227.63
875.56	227.70
875.87	227.72
876.18	227.75
876.49	227.81
876.80	227.78
877.11	227.75
877.42	227.73
877.73	227.73
878.04	227.70
878.35	227.64
878.66	227.67
878.96	227.66
879.27	227.62
879.58	227.61
879.89	227.61
880.20	227.61
880.51	227.57
880.82	227.56
881.12	227.54
881.43	227.51
881.74	227.46
882.05	227.42
882.36	227.41
882.67	227.39
882.97	227.29
883.28	227.28
883.59	227.28
883.90	227.29
884.21	227.27
884.51	227.27
884.82	227.27
885.13	227.27
885.44	227.26
885.74	227.29
886.05	227.28
886.36	227.30
886.67	227.29
886.98	227.36
887.28	227.37
887.59	227.39
887.90	227.39
888.20	227.40
888.51	227.42
888.82	227.37
889.13	227.35
889.43	227.40
889.74	227.43
890.05	227.42
890.35	227.42
890.66	227.42
890.97	227.39
891.28	227.41
891.58	227.41
891.89	227.40
892.20	227.37
892.50	227.36
892.81	227.35
893.12	227.38
893.42	227.33
893.73	227.35
894.04	227.32
894.34	227.35
894.65	227.37
894.95	227.36
895.26	227.35
895.57	227.40
895.87	227.36
896.18	227.36
896.48	227.38
896.79	227.39
897.10	227.39
897.40	227.44
897.71	227.46
898.01	227.45
898.32	227.45
898.63	227.48
898.93	227.49
899.24	227.48
899.54	227.47
899.85	227.50
900.15	227.49
900.46	227.52
900.76	227.53
901.07	227.53
901.38	227.52
901.68	227.57
901.99	227.52
902.29	227.51
902.60	227.50
902.90	227.49
903.21	227.45
903.51	227.44
903.82	227.47
904.12	227.43
904.43	227.45
904.73	227.48
905.03	227.47
905.34	227.56
905.64	227.58
905.95	227.55
906.25	227.53
906.56	227.52
906.86	227.53
907.17	227.50
907.47	227.51
907.77	227.49
908.08	227.46
908.38	227.47
908.69	227.52
908.99	227.53
909.30	227.53
909.60	227.54
909.90	227.53
910.21	227.48
910.51	227.46
910.81	227.46
911.12	227.46
911.42	227.44
911.73	227.30
912.03	227.29
912.33	227.31
912.64	227.31
912.94	227.31
913.24	227.27
913.55	227.25
913.85	227.23
914.15	227.25
914.46	227.24
914.76	227.23
915.06	227.20
915.37	227.16
915.67	227.14
915.97	227.12
916.27	227.11
916.58	227.11
916.88	227.11
917.18	227.10
917.49	227.13
917.79	227.17
918.09	227.22
918.39	227.22
918.70	227.21
919.00	227.18
919.30	227.22
919.60	227.22
919.91	227.22
920.21	227.24
920.51	227.18
920.81	227.20
921.12	227.18
921.42	227.14
921.72	227.17
922.02	227.18
922.32	227.22
922.63	227.18
922.93	227.22
923.23	227.21
923.53	227.20
923.83	227.13
924.13	227.11
924.44	227.08
924.74	227.09
925.04	227.11
925.34	227.11
925.64	227.06
925.94	227.07
926.24	227.12
926.55	227.09
926.85	227.14
927.15	227.13
927.45	227.14
927.75	227.16
928.05	227.15
928.35	227.14
928.65	227.17
928.95	227.21
929.26	227.15
929.56	227.15
929.86	227.16
930.16	227.17
930.46	227.16
930.76	227.19
931.06	227.11
931.36	227.10
931.66	227.14
931.96	227.15
932.26	227.12
932.56	227.09
932.86	227.12
933.16	227.11
933.46	227.11
933.76	227.11
934.06	227.16
934.36	227.18
934.66	227.19
934.96	227.18
935.26	227.18
935.56	227.24
935.86	227.23
936.16	227.24
936.46	227.23
936.76	227.25
937.06	227.23
937.36	227.28
937.66	227.30
937.96	227.31
938.26	227.31
938.56	227.33
938.86	227.35
939.16	227.39
939.46	227.38
939.76	227.39
940.06	227.40
940.35	227.36
940.65	227.34
940.95	227.36
941.25	227.34
941.55	227.33
941.85	227.33
942.15	227.38
942.45	227.39
942.75	227.42
943.04	227.41
943.34	227.45
943.64	227.46
943.94	227.43
944.24	227.42
944.54	227.43
944.84	227.43
945.13	227.42
945.43	227.40
945.73	227.42
946.03	227.42
946.33	227.42
946.62	227.41
946.92	227.40
947.22	227.40
947.52	227.40
947.82	227.40
948.11	227.38
948.41	227.37
948.71	227.35
949.01	227.30
949.31	227.29
949.60	227.26
949.90	227.28
950.20	227.31
950.50	227.29
950.79	227.28
951.09	227.31
951.39	227.29
951.69	227.26
951.98	227.30
952.28	227.30
952.58	227.31
952.87	227.29
953.17	227.29
953.47	227.26
953.76	227.23
954.06	227.25
954.36	227.24
954.66	227.25
954.95	227.26
955.25	227.27
955.55	227.27
955.84	227.26
956.14	227.22
956.44	227.21
956.73	227.20
957.03	227.17
957.32	227.15
957.62	227.13
957.92	227.14
958.21	227.09
958.51	227.19
958.81	227.17
959.10	227.19
959.40	227.21
959.69	227.20
959.99	227.23
960.29	227.20
960.58	227.17
960.88	227.19
961.17	227.14
961.47	227.16
961.76	227.17
962.06	227.19
962.36	227.16
962.65	227.14
962.95	227.14
963.24	227.14
963.54	227.10
963.83	227.10
964.13	227.10
964.42	227.04
964.72	226.96
965.01	226.96
965.31	226.94
965.60	226.92
965.90	226.99
966.19	226.96
966.49	226.98
966.78	226.96
967.08	226.94
967.37	226.96
967.67	226.93
967.96	226.94
968.26	226.94
968.55	226.97
968.85	226.96
969.14	227.00
969.43	227.02
969.73	227.03
970.02	227.02
970.32	227.05
970.61	227.08
970.91	227.07
971.20	227.06
971.49	227.08
971.79	227.09
972.08	227.04
972.38	227.06
972.67	227.07
972.96	227.09
973.26	227.07
973.55	227.10
973.85	227.11
974.14	227.11
974.43	227.14
974.73	227.12
975.02	227.11
975.31	227.04
975.61	227.04
975.90	227.04
976.19	227.05
976.49	227.06
976.78	227.09
977.07	227.10
977.37	227.10
977.66	227.10
977.95	227.08
978.24	227.09
978.54	227.11
978.83	227.10
979.12	227.09
979.42	227.07
979.71	227.11
980.00	227.12
980.29	227.14
980.59	227.11
980.88	227.12
981.17	227.15
981.46	227.21
981.76	227.21
982.05	227.22
982.34	227.23
982.63	227.25
982.93	227.24
983.22	227.27
983.51	227.29
983.80	227.28
984.09	227.27
984.39	227.26
984.68	227.26
984.97	227.28
985.26	227.29
985.55	227.30
985.85	227.23
986.14	227.23
986.43	227.22
986.72	227.22
987.01	227.20
987.30	227.17
987.59	227.13
987.89	227.16
988.18	227.15
988.47	227.10
988.76	227.05
989.05	227.02
989.34	227.00
989.63	227.03
989.92	227.01
990.22	227.00
990.51	227.00
990.80	226.97
991.09	226.94
991.38	226.90
991.67	226.89
991.96	226.87
992.25	226.85
992.54	226.81
992.83	226.77
993.12	226.74
993.41	226.74
993.70	226.73
993.99	226.71
994.28	226.71
994.58	226.77
994.87	226.77
995.16	226.74
995.45	226.72
995.74	226.66
996.03	226.66
996.32	226.72
996.61	226.73
996.90	226.74
997.19	226.72
997.48	226.75
997.77	226.73
998.06	226.75
998.34	226.77
998.63	226.79
998.92	226.81
999.21	226.82
999.50	226.86
999.79	226.86
1000.08	226.85
1000.37	226.86
1000.66	226.81
1000.95	226.83
1001.24	226.84
1001.53	226.81
1001.82	226.81
1002.11	226.80
1002.40	226.79
1002.68	226.80
1002.97	226.88
1003.26	226.89
1003.55	226.94
1003.84	226.95
1004.13	226.99
1004.42	226.94
1004.71	226.91
1004.99	226.90
1005.28	226.93
1005.57	226.94
1005.86	226.89
1006.15	226.92
1006.44	226.92
1006.72	226.95
1007.01	226.94
1007.30	226.96
1007.59	226.98
1007.88	227.00
1008.17	227.00
1008.45	226.97
1008.74	226.95
1009.03	226.88
1009.32	226.89
1009.60	226.85
1009.89	226.86
1010.18	226.83
1010.47	226.85
1010.76	226.87
1011.04	226.92
1011.33	226.92
1011.62	226.89
1011.91	226.95
1012.19	226.92
1012.48	226.89
1012.77	226.91
1013.05	226.96
1013.34	226.95
1013.63	226.97
1013.92	227.00
1014.20	227.01
1014.49	227.01
1014.78	227.00
1015.06	226.99
1015.35	226.99
1015.64	227.00
1015.92	227.02
1016.21	227.04
1016.50	227.06
1016.78	227.08
1017.07	227.07
1017.36	227.09
1017.64	227.09
1017.93	227.10
1018.22	227.11
1018.50	227.13
1018.79	227.12
1019.08	227.10
1019.36	227.11
1019.65	227.10
1019.93	227.13
1020.22	227.13
1020.51	227.19
1020.79	227.19
1021.08	227.13
1021.36	226.82
1021.65	226.97
1021.94	227.62
1022.22	227.09
1022.51	227.01
1022.79	227.62
1023.08	227.15
1023.36	228.13
1023.65	226.62
>>>>>End Processed Spectral Data<<<<<
