SpectraSuite Data File
++++++++++++++++++++++++++++++++++++
Date: Fri Feb 01 15:12:22 EST 2013
User: group
Dark Spectrum Present: No
Reference Spectrum Present: No
Number of Sampled Component Spectra: 1
Spectrometers: USB2E7196
Integration Time (usec): 35000 (USB2E7196)
Spectra Averaged: 100 (USB2E7196)
Boxcar Smoothing: 10 (USB2E7196)
Correct for Electrical Dark: No (USB2E7196)
Strobe/Lamp Enabled: No (USB2E7196)
Correct for Detector Non-linearity: No (USB2E7196)
Correct for Stray Light: No (USB2E7196)
Number of Pixels in Processed Spectrum: 2048
>>>>>Begin Processed Spectral Data<<<<<
339.09	0.00
339.48	215.40
339.86	216.68
340.24	217.62
340.63	219.69
341.01	222.64
341.39	222.23
341.78	223.55
342.16	225.09
342.54	225.61
342.93	213.67
343.31	224.45
343.69	225.00
344.07	225.45
344.46	225.90
344.84	226.27
345.22	226.49
345.60	226.75
345.99	226.93
346.37	227.06
346.75	227.14
347.13	227.17
347.52	227.23
347.90	227.33
348.28	227.37
348.66	227.41
349.05	227.41
349.43	227.42
349.81	227.47
350.19	227.51
350.57	227.54
350.96	227.62
351.34	227.71
351.72	227.77
352.10	227.89
352.48	227.96
352.87	228.01
353.25	228.06
353.63	228.11
354.01	228.16
354.39	228.23
354.77	228.32
355.15	228.42
355.54	228.48
355.92	228.52
356.30	228.58
356.68	228.75
357.06	228.83
357.44	228.89
357.82	228.97
358.20	229.04
358.58	229.11
358.97	229.16
359.35	229.26
359.73	229.34
360.11	229.37
360.49	229.42
360.87	229.45
361.25	229.51
361.63	229.58
362.01	229.63
362.39	229.64
362.77	229.66
363.15	229.68
363.53	229.69
363.91	229.69
364.29	229.69
364.67	229.55
365.05	229.55
365.43	229.57
365.81	229.55
366.19	229.57
366.57	229.60
366.95	229.59
367.33	229.55
367.71	229.51
368.09	229.50
368.47	229.49
368.85	229.51
369.23	229.51
369.61	229.45
369.99	229.42
370.37	229.42
370.75	229.44
371.13	229.38
371.51	229.34
371.89	229.30
372.27	229.27
372.65	229.23
373.03	229.15
373.41	229.07
373.78	228.97
374.16	228.87
374.54	228.78
374.92	228.72
375.30	228.66
375.68	228.61
376.06	228.53
376.44	228.46
376.82	228.39
377.19	228.32
377.57	228.25
377.95	228.19
378.33	228.10
378.71	227.96
379.09	227.90
379.47	227.83
379.84	227.75
380.22	227.68
380.60	227.62
380.98	227.56
381.36	227.52
381.73	227.50
382.11	227.43
382.49	227.35
382.87	227.27
383.25	227.21
383.62	227.25
384.00	227.21
384.38	227.14
384.76	227.08
385.13	227.06
385.51	226.99
385.89	226.89
386.27	226.84
386.64	226.80
387.02	226.74
387.40	226.67
387.78	226.67
388.15	226.63
388.53	226.57
388.91	226.55
389.29	226.49
389.66	226.48
390.04	226.47
390.42	226.47
390.79	226.48
391.17	226.45
391.55	226.35
391.92	226.36
392.30	226.39
392.68	226.36
393.05	226.36
393.43	226.36
393.81	226.41
394.18	226.43
394.56	226.47
394.94	226.52
395.31	226.59
395.69	226.63
396.06	226.70
396.44	226.72
396.82	226.74
397.19	226.83
397.57	226.85
397.95	226.90
398.32	226.95
398.70	226.97
399.07	227.06
399.45	227.07
399.82	227.13
400.20	227.18
400.58	227.26
400.95	227.30
401.33	227.41
401.70	227.57
402.08	227.65
402.45	227.72
402.83	227.86
403.20	227.95
403.58	228.05
403.95	228.18
404.33	228.35
404.71	228.50
405.08	228.67
405.46	228.84
405.83	229.02
406.21	229.17
406.58	229.39
406.96	229.57
407.33	229.79
407.70	229.98
408.08	230.25
408.45	230.51
408.83	230.76
409.20	230.97
409.58	231.15
409.95	231.39
410.33	231.66
410.70	231.91
411.08	232.20
411.45	232.49
411.82	232.77
412.20	233.12
412.57	233.55
412.95	233.89
413.32	234.29
413.69	234.70
414.07	235.15
414.44	235.58
414.82	236.01
415.19	236.54
415.56	237.11
415.94	237.64
416.31	238.21
416.68	238.81
417.06	239.52
417.43	240.17
417.81	240.96
418.18	241.72
418.55	242.56
418.93	243.45
419.30	244.35
419.67	245.30
420.04	246.27
420.42	247.24
420.79	248.38
421.16	249.54
421.54	250.71
421.91	251.93
422.28	253.19
422.66	254.55
423.03	255.87
423.40	257.21
423.77	258.63
424.15	260.11
424.52	261.63
424.89	263.26
425.26	264.85
425.64	266.26
426.01	267.91
426.38	269.57
426.75	271.22
427.13	272.91
427.50	274.73
427.87	276.61
428.24	278.47
428.61	280.22
428.99	282.14
429.36	284.28
429.73	286.30
430.10	288.38
430.47	290.42
430.85	292.54
431.22	294.77
431.59	297.14
431.96	299.35
432.33	301.83
432.70	304.23
433.08	307.01
433.45	309.68
433.82	312.26
434.19	315.19
434.56	318.01
434.93	320.72
435.30	323.37
435.68	326.25
436.05	329.09
436.42	331.90
436.79	334.49
437.16	337.14
437.53	340.03
437.90	342.83
438.27	345.64
438.64	348.49
439.01	351.12
439.38	353.42
439.75	355.61
440.13	358.14
440.50	360.51
440.87	362.38
441.24	364.34
441.61	366.54
441.98	368.05
442.35	369.90
442.72	371.79
443.09	373.58
443.46	374.61
443.83	375.21
444.20	375.76
444.57	376.54
444.94	376.83
445.31	377.16
445.68	377.49
446.05	377.53
446.42	377.10
446.79	376.69
447.16	376.22
447.53	375.89
447.90	374.69
448.27	373.52
448.64	371.96
449.01	370.82
449.37	368.81
449.74	366.87
450.11	364.57
450.48	362.07
450.85	359.56
451.22	357.40
451.59	355.32
451.96	353.31
452.33	350.70
452.70	348.34
453.07	345.53
453.43	342.60
453.80	339.79
454.17	337.14
454.54	334.52
454.91	331.78
455.28	329.06
455.65	326.55
456.02	324.04
456.38	321.85
456.75	319.17
457.12	316.94
457.49	314.69
457.86	312.53
458.23	310.64
458.59	308.56
458.96	306.44
459.33	304.62
459.70	302.78
460.07	301.27
460.43	299.56
460.80	297.90
461.17	296.52
461.54	295.02
461.91	293.58
462.27	292.13
462.64	290.86
463.01	289.52
463.38	288.25
463.74	286.89
464.11	285.71
464.48	284.66
464.85	283.52
465.21	282.64
465.58	281.67
465.95	280.62
466.32	279.70
466.68	278.79
467.05	277.91
467.42	276.98
467.78	276.04
468.15	275.15
468.52	274.48
468.88	273.57
469.25	272.84
469.62	272.23
469.98	271.56
470.35	270.93
470.72	270.35
471.08	269.69
471.45	269.13
471.82	268.59
472.18	268.01
472.55	267.62
472.92	267.11
473.28	266.66
473.65	266.18
474.02	265.74
474.38	265.38
474.75	265.02
475.11	264.69
475.48	264.42
475.85	264.22
476.21	263.99
476.58	263.79
476.94	263.63
477.31	263.48
477.67	263.38
478.04	263.26
478.41	263.19
478.77	263.20
479.14	263.17
479.50	263.21
479.87	263.27
480.23	263.32
480.60	263.39
480.96	263.53
481.33	263.76
481.69	263.95
482.06	264.15
482.42	264.37
482.79	264.67
483.15	264.99
483.52	265.32
483.88	265.71
484.25	266.12
484.61	266.53
484.98	266.96
485.34	267.51
485.71	268.09
486.07	268.69
486.44	269.26
486.80	269.98
487.17	270.71
487.53	271.52
487.90	272.38
488.26	273.31
488.62	274.26
488.99	275.18
489.35	276.22
489.72	277.36
490.08	278.53
490.44	279.72
490.81	281.04
491.17	282.41
491.54	283.86
491.90	285.36
492.26	286.97
492.63	288.67
492.99	290.46
493.36	292.36
493.72	294.42
494.08	296.51
494.45	298.72
494.81	301.06
495.17	303.47
495.54	305.97
495.90	308.64
496.26	311.47
496.63	314.45
496.99	317.53
497.35	320.75
497.72	324.17
498.08	327.65
498.44	331.27
498.80	335.14
499.17	339.18
499.53	343.33
499.89	347.69
500.26	352.18
500.62	356.78
500.98	361.71
501.34	366.72
501.71	372.07
502.07	377.50
502.43	383.07
502.79	388.94
503.16	395.07
503.52	401.31
503.88	407.67
504.24	414.25
504.60	421.13
504.97	428.23
505.33	435.49
505.69	443.23
506.05	451.03
506.41	458.95
506.78	467.07
507.14	475.46
507.50	484.18
507.86	493.18
508.22	502.36
508.59	511.57
508.95	521.20
509.31	530.96
509.67	541.08
510.03	551.41
510.39	561.87
510.75	572.66
511.12	583.56
511.48	594.86
511.84	606.36
512.20	617.93
512.56	629.91
512.92	642.15
513.28	654.42
513.64	666.93
514.00	679.63
514.37	692.62
514.73	705.72
515.09	718.84
515.45	732.20
515.81	745.82
516.17	759.82
516.53	773.91
516.89	788.10
517.25	802.27
517.61	816.68
517.97	831.16
518.33	845.65
518.69	860.47
519.05	875.54
519.41	890.78
519.77	906.38
520.13	921.88
520.49	937.24
520.85	952.77
521.21	968.45
521.57	984.68
521.93	1000.49
522.29	1017.02
522.65	1033.31
523.01	1049.64
523.37	1065.71
523.73	1081.95
524.09	1098.15
524.45	1114.60
524.81	1131.34
525.17	1148.27
525.53	1165.43
525.89	1182.26
526.25	1199.15
526.61	1215.60
526.97	1232.37
527.33	1248.79
527.68	1265.47
528.04	1282.02
528.40	1298.84
528.76	1316.13
529.12	1332.86
529.48	1349.74
529.84	1365.80
530.20	1382.41
530.56	1399.48
530.91	1417.02
531.27	1433.87
531.63	1450.26
531.99	1466.81
532.35	1482.86
532.71	1498.72
533.07	1514.99
533.42	1531.02
533.78	1547.12
534.14	1563.48
534.50	1578.96
534.86	1594.94
535.21	1610.11
535.57	1626.17
535.93	1641.57
536.29	1656.40
536.65	1671.58
537.00	1686.44
537.36	1701.80
537.72	1716.60
538.08	1731.10
538.44	1744.94
538.79	1758.86
539.15	1772.82
539.51	1786.74
539.87	1801.20
540.22	1815.12
540.58	1828.95
540.94	1842.49
541.29	1855.45
541.65	1868.22
542.01	1881.58
542.37	1894.01
542.72	1906.63
543.08	1918.49
543.44	1930.92
543.79	1942.20
544.15	1953.26
544.51	1964.88
544.87	1976.01
545.22	1986.71
545.58	1996.86
545.94	2006.63
546.29	2016.62
546.65	2026.43
547.01	2035.64
547.36	2044.37
547.72	2052.83
548.07	2060.54
548.43	2068.68
548.79	2076.85
549.14	2084.20
549.50	2091.43
549.86	2099.11
550.21	2106.36
550.57	2113.40
550.92	2120.03
551.28	2127.04
551.64	2133.97
551.99	2140.60
552.35	2146.78
552.70	2152.86
553.06	2158.87
553.41	2165.31
553.77	2171.29
554.13	2177.34
554.48	2183.47
554.84	2188.88
555.19	2194.13
555.55	2199.31
555.90	2203.63
556.26	2208.46
556.61	2213.29
556.97	2217.54
557.32	2221.72
557.68	2225.88
558.03	2230.25
558.39	2234.05
558.74	2238.65
559.10	2242.52
559.45	2246.16
559.81	2250.29
560.16	2254.25
560.52	2257.49
560.87	2260.88
561.23	2263.51
561.58	2266.50
561.94	2269.08
562.29	2271.40
562.64	2274.00
563.00	2276.63
563.35	2280.23
563.71	2283.27
564.06	2286.46
564.42	2289.36
564.77	2291.85
565.12	2293.89
565.48	2295.66
565.83	2297.41
566.19	2298.56
566.54	2299.58
566.89	2300.64
567.25	2301.22
567.60	2302.46
567.96	2303.93
568.31	2304.75
568.66	2305.72
569.02	2306.16
569.37	2306.33
569.72	2307.19
570.08	2307.32
570.43	2307.27
570.78	2306.52
571.14	2305.01
571.49	2303.78
571.84	2303.14
572.20	2301.79
572.55	2300.79
572.90	2299.20
573.26	2297.77
573.61	2296.06
573.96	2294.11
574.31	2291.01
574.67	2287.87
575.02	2284.02
575.37	2280.61
575.72	2276.66
576.08	2273.17
576.43	2269.73
576.78	2265.94
577.13	2262.58
577.49	2259.39
577.84	2255.83
578.19	2252.05
578.54	2248.16
578.90	2243.56
579.25	2238.01
579.60	2232.89
579.95	2227.73
580.30	2222.63
580.66	2217.15
581.01	2212.21
581.36	2207.16
581.71	2202.86
582.06	2198.31
582.42	2193.67
582.77	2188.43
583.12	2183.79
583.47	2178.98
583.82	2173.82
584.17	2168.50
584.53	2162.93
584.88	2157.10
585.23	2151.20
585.58	2145.62
585.93	2140.19
586.28	2135.44
586.63	2130.28
586.98	2125.16
587.34	2120.37
587.69	2115.45
588.04	2110.30
588.39	2104.43
588.74	2097.88
589.09	2091.64
589.44	2084.58
589.79	2078.52
590.14	2072.71
590.49	2065.92
590.84	2059.50
591.19	2053.47
591.54	2046.86
591.89	2039.47
592.25	2032.57
592.60	2025.26
592.95	2017.42
593.30	2009.90
593.65	2002.20
594.00	1995.08
594.35	1987.73
594.70	1979.67
595.05	1972.17
595.40	1964.84
595.75	1957.34
596.10	1950.93
596.45	1944.07
596.80	1938.04
597.15	1931.30
597.50	1924.06
597.85	1917.61
598.19	1910.82
598.54	1903.63
598.89	1897.04
599.24	1890.93
599.59	1884.19
599.94	1877.90
600.29	1871.62
600.64	1865.07
600.99	1857.62
601.34	1850.72
601.69	1843.83
602.04	1836.87
602.39	1829.52
602.74	1822.56
603.08	1815.77
603.43	1809.10
603.78	1801.83
604.13	1794.45
604.48	1787.10
604.83	1780.33
605.18	1773.41
605.53	1765.33
605.87	1757.32
606.22	1750.10
606.57	1742.13
606.92	1734.90
607.27	1727.61
607.62	1720.80
607.96	1713.41
608.31	1706.72
608.66	1699.05
609.01	1691.47
609.36	1683.93
609.70	1675.92
610.05	1667.86
610.40	1660.14
610.75	1651.85
611.10	1644.16
611.44	1635.80
611.79	1627.97
612.14	1619.18
612.49	1609.88
612.83	1601.53
613.18	1593.41
613.53	1585.28
613.88	1576.79
614.22	1568.58
614.57	1560.13
614.92	1551.96
615.27	1544.34
615.61	1536.01
615.96	1528.09
616.31	1520.46
616.65	1513.01
617.00	1505.53
617.35	1497.79
617.70	1489.32
618.04	1480.80
618.39	1472.59
618.74	1465.04
619.08	1456.71
619.43	1449.30
619.78	1442.55
620.12	1435.47
620.47	1427.95
620.82	1419.82
621.16	1412.49
621.51	1404.85
621.85	1397.18
622.20	1388.66
622.55	1380.54
622.89	1372.67
623.24	1365.14
623.59	1357.84
623.93	1350.42
624.28	1343.26
624.62	1335.82
624.97	1328.78
625.32	1322.01
625.66	1315.02
626.01	1307.81
626.35	1300.37
626.70	1292.64
627.04	1284.85
627.39	1277.12
627.73	1269.68
628.08	1262.68
628.43	1255.30
628.77	1247.94
629.12	1240.43
629.46	1233.38
629.81	1225.87
630.15	1218.61
630.50	1211.15
630.84	1202.90
631.19	1195.00
631.53	1187.45
631.88	1179.93
632.22	1172.30
632.57	1164.96
632.91	1157.47
633.26	1150.11
633.60	1142.80
633.95	1135.71
634.29	1128.58
634.64	1121.88
634.98	1114.55
635.32	1107.42
635.67	1100.86
636.01	1094.21
636.36	1087.35
636.70	1080.78
637.05	1074.24
637.39	1067.86
637.73	1061.28
638.08	1055.49
638.42	1049.46
638.77	1043.04
639.11	1036.40
639.45	1029.96
639.80	1023.38
640.14	1016.90
640.49	1010.32
640.83	1003.94
641.17	997.66
641.52	991.50
641.86	985.14
642.20	979.38
642.55	973.24
642.89	966.86
643.23	960.33
643.58	954.57
643.92	948.33
644.26	942.20
644.61	936.24
644.95	930.25
645.29	923.55
645.64	916.83
645.98	910.57
646.32	904.79
646.66	898.80
647.01	892.99
647.35	887.26
647.69	881.60
648.04	876.17
648.38	870.36
648.72	864.20
649.06	858.12
649.41	852.16
649.75	846.06
650.09	840.09
650.43	834.35
650.78	828.29
651.12	822.40
651.46	816.73
651.80	810.98
652.14	805.60
652.49	800.34
652.83	795.26
653.17	789.52
653.51	783.72
653.85	778.40
654.20	772.82
654.54	766.89
654.88	761.12
655.22	755.30
655.56	749.70
655.90	744.45
656.25	739.21
656.59	733.93
656.93	728.87
657.27	723.72
657.61	718.35
657.95	713.29
658.29	708.23
658.64	703.03
658.98	697.70
659.32	692.25
659.66	687.05
660.00	681.70
660.34	676.79
660.68	671.98
661.02	667.02
661.36	662.26
661.70	657.79
662.05	653.42
662.39	649.02
662.73	644.56
663.07	640.17
663.41	635.77
663.75	631.27
664.09	626.78
664.43	622.36
664.77	618.22
665.11	613.95
665.45	609.86
665.79	605.82
666.13	601.75
666.47	597.66
666.81	593.44
667.15	589.30
667.49	585.42
667.83	581.65
668.17	577.65
668.51	573.65
668.85	569.58
669.19	565.76
669.53	561.94
669.87	558.01
670.21	554.29
670.55	550.59
670.89	547.21
671.23	543.76
671.57	540.25
671.91	536.75
672.25	533.27
672.58	529.73
672.92	526.34
673.26	523.19
673.60	520.08
673.94	517.05
674.28	514.19
674.62	511.27
674.96	508.12
675.30	505.25
675.64	502.36
675.97	499.65
676.31	496.76
676.65	493.83
676.99	491.14
677.33	488.33
677.67	485.53
678.01	482.40
678.34	479.43
678.68	476.61
679.02	473.74
679.36	470.94
679.70	468.23
680.04	465.44
680.37	462.54
680.71	459.71
681.05	457.13
681.39	454.40
681.73	451.71
682.06	449.18
682.40	446.60
682.74	444.06
683.08	441.51
683.42	438.95
683.75	436.48
684.09	433.94
684.43	431.45
684.77	429.01
685.10	426.72
685.44	424.42
685.78	422.13
686.12	419.91
686.45	417.66
686.79	415.38
687.13	413.18
687.46	411.05
687.80	408.93
688.14	406.70
688.48	404.64
688.81	402.37
689.15	400.28
689.49	398.16
689.82	396.07
690.16	393.97
690.50	392.02
690.83	390.05
691.17	388.08
691.51	386.21
691.84	384.36
692.18	382.42
692.52	380.45
692.85	378.54
693.19	376.69
693.52	374.89
693.86	373.13
694.20	371.40
694.53	369.65
694.87	367.84
695.21	366.07
695.54	364.29
695.88	362.62
696.21	360.89
696.55	359.24
696.88	357.58
697.22	355.98
697.56	354.39
697.89	352.73
698.23	351.17
698.56	349.57
698.90	347.96
699.23	346.35
699.57	344.81
699.90	343.30
700.24	341.74
700.58	340.18
700.91	338.68
701.25	337.24
701.58	335.86
701.92	334.51
702.25	333.13
702.59	331.76
702.92	330.44
703.26	329.19
703.59	327.94
703.93	326.77
704.26	325.53
704.60	324.24
704.93	323.04
705.26	321.81
705.60	320.64
705.93	319.52
706.27	318.52
706.60	317.49
706.94	316.43
707.27	315.29
707.61	314.29
707.94	313.28
708.27	312.17
708.61	311.09
708.94	310.08
709.28	309.10
709.61	308.14
709.94	307.20
710.28	306.10
710.61	305.12
710.95	304.07
711.28	303.17
711.61	302.25
711.95	301.31
712.28	300.34
712.61	299.34
712.95	298.41
713.28	297.50
713.61	296.59
713.95	295.66
714.28	294.84
714.61	293.96
714.95	293.08
715.28	292.23
715.61	291.35
715.95	290.47
716.28	289.63
716.61	288.82
716.95	288.00
717.28	287.28
717.61	286.51
717.94	285.78
718.28	284.93
718.61	284.17
718.94	283.46
719.27	282.76
719.61	282.12
719.94	281.47
720.27	280.77
720.60	280.11
720.94	279.50
721.27	278.91
721.60	278.36
721.93	277.77
722.27	277.21
722.60	276.66
722.93	276.15
723.26	275.61
723.59	275.02
723.93	274.47
724.26	273.93
724.59	273.36
724.92	272.82
725.25	272.36
725.59	271.86
725.92	271.39
726.25	270.93
726.58	270.46
726.91	269.95
727.24	269.48
727.57	268.99
727.91	268.49
728.24	268.01
728.57	267.50
728.90	267.05
729.23	266.58
729.56	266.15
729.89	265.65
730.22	265.16
730.55	264.71
730.89	264.26
731.22	263.84
731.55	263.40
731.88	262.97
732.21	262.54
732.54	262.10
732.87	261.63
733.20	261.21
733.53	260.85
733.86	260.49
734.19	260.07
734.52	259.68
734.85	259.34
735.18	258.95
735.51	258.58
735.84	258.22
736.17	257.86
736.50	257.44
736.83	257.22
737.16	256.89
737.49	256.54
737.82	256.19
738.15	255.84
738.48	255.51
738.81	255.21
739.14	254.90
739.47	254.60
739.80	254.35
740.13	254.05
740.46	253.69
740.79	253.36
741.12	253.07
741.45	252.78
741.78	252.45
742.11	252.17
742.44	251.85
742.77	251.56
743.10	251.26
743.43	251.00
743.75	250.63
744.08	250.48
744.41	250.21
744.74	249.98
745.07	249.69
745.40	249.43
745.73	249.15
746.06	248.87
746.39	248.61
746.71	248.34
747.04	248.08
747.37	247.84
747.70	247.60
748.03	247.39
748.36	247.17
748.68	246.92
749.01	246.69
749.34	246.44
749.67	246.22
750.00	246.04
750.33	245.91
750.65	245.68
750.98	245.35
751.31	245.13
751.64	244.91
751.97	244.75
752.29	244.57
752.62	244.33
752.95	244.11
753.28	243.90
753.60	243.67
753.93	243.47
754.26	243.26
754.59	243.03
754.91	242.80
755.24	242.59
755.57	242.42
755.90	242.21
756.22	242.06
756.55	241.84
756.88	241.63
757.20	241.41
757.53	241.19
757.86	241.03
758.19	240.89
758.51	240.70
758.84	240.49
759.17	240.30
759.49	240.15
759.82	240.04
760.15	239.91
760.47	239.78
760.80	239.62
761.13	239.48
761.45	239.34
761.78	239.20
762.11	239.08
762.43	238.93
762.76	238.78
763.08	238.65
763.41	238.56
763.74	238.40
764.06	238.21
764.39	238.09
764.71	237.94
765.04	237.81
765.37	237.70
765.69	237.59
766.02	237.45
766.34	237.31
766.67	237.13
767.00	237.04
767.32	236.96
767.65	236.88
767.97	236.77
768.30	236.65
768.62	236.50
768.95	236.37
769.27	236.25
769.60	236.16
769.92	236.02
770.25	235.84
770.57	235.75
770.90	235.66
771.22	235.58
771.55	235.48
771.87	235.38
772.20	235.27
772.52	235.24
772.85	235.26
773.17	235.13
773.50	235.04
773.82	234.89
774.15	234.73
774.47	234.63
774.80	234.52
775.12	234.41
775.45	234.36
775.77	234.26
776.09	234.19
776.42	234.12
776.74	234.09
777.07	234.03
777.39	233.95
777.72	233.88
778.04	233.79
778.36	233.70
778.69	233.63
779.01	233.56
779.33	233.38
779.66	233.23
779.98	233.20
780.31	233.14
780.63	233.11
780.95	233.09
781.28	233.00
781.60	232.93
781.92	232.87
782.25	232.79
782.57	232.74
782.89	232.67
783.22	232.58
783.54	232.50
783.86	232.46
784.19	232.39
784.51	232.35
784.83	232.30
785.16	232.27
785.48	232.25
785.80	232.19
786.12	232.17
786.45	232.10
786.77	232.07
787.09	232.02
787.42	231.97
787.74	231.90
788.06	231.89
788.38	231.85
788.71	231.81
789.03	231.78
789.35	231.74
789.67	231.71
789.99	231.66
790.32	231.60
790.64	231.55
790.96	231.60
791.28	231.49
791.61	231.44
791.93	231.41
792.25	231.31
792.57	231.37
792.89	231.32
793.21	231.32
793.54	231.26
793.86	231.19
794.18	231.15
794.50	231.10
794.82	231.02
795.14	231.00
795.47	230.97
795.79	230.95
796.11	230.92
796.43	230.88
796.75	230.88
797.07	230.88
797.39	230.82
797.71	230.72
798.04	230.73
798.36	230.70
798.68	230.65
799.00	230.64
799.32	230.56
799.64	230.53
799.96	230.50
800.28	230.46
800.60	230.42
800.92	230.39
801.24	230.34
801.56	230.34
801.89	230.29
802.21	230.29
802.53	230.24
802.85	230.20
803.17	230.19
803.49	230.13
803.81	230.05
804.13	230.06
804.45	230.00
804.77	229.97
805.09	229.95
805.41	229.93
805.73	229.90
806.05	229.83
806.37	229.81
806.69	229.76
807.01	229.76
807.33	229.76
807.65	229.69
807.97	229.71
808.28	229.68
808.60	229.67
808.92	229.60
809.24	229.65
809.56	229.62
809.88	229.59
810.20	229.55
810.52	229.55
810.84	229.49
811.16	229.45
811.48	229.44
811.80	229.45
812.12	229.41
812.43	229.42
812.75	229.41
813.07	229.36
813.39	229.35
813.71	229.29
814.03	229.27
814.35	229.26
814.67	229.22
814.98	229.17
815.30	229.15
815.62	229.12
815.94	228.98
816.26	228.97
816.58	228.91
816.89	228.92
817.21	228.90
817.53	228.90
817.85	228.91
818.17	228.88
818.48	228.80
818.80	228.79
819.12	228.72
819.44	228.69
819.76	228.66
820.07	228.63
820.39	228.62
820.71	228.63
821.03	228.63
821.34	228.59
821.66	228.58
821.98	228.57
822.30	228.61
822.61	228.68
822.93	228.67
823.25	228.65
823.57	228.63
823.88	228.66
824.20	228.63
824.52	228.63
824.83	228.65
825.15	228.64
825.47	228.62
825.79	228.65
826.10	228.61
826.42	228.64
826.74	228.63
827.05	228.64
827.37	228.61
827.69	228.58
828.00	228.62
828.32	228.60
828.64	228.57
828.95	228.57
829.27	228.56
829.58	228.53
829.90	228.56
830.22	228.57
830.53	228.49
830.85	228.47
831.17	228.42
831.48	228.38
831.80	228.38
832.11	228.39
832.43	228.36
832.75	228.38
833.06	228.43
833.38	228.39
833.69	228.37
834.01	228.36
834.32	228.37
834.64	228.32
834.96	228.35
835.27	228.37
835.59	228.33
835.90	228.30
836.22	228.28
836.53	228.25
836.85	228.22
837.16	228.32
837.48	228.34
837.79	228.37
838.11	228.38
838.42	228.39
838.74	228.37
839.05	228.36
839.37	228.36
839.68	228.28
840.00	228.29
840.31	228.27
840.63	228.25
840.94	228.24
841.26	228.25
841.57	228.22
841.88	228.18
842.20	228.16
842.51	228.13
842.83	228.14
843.14	228.24
843.46	228.25
843.77	228.16
844.08	228.14
844.40	228.09
844.71	228.07
845.03	228.04
845.34	228.03
845.65	228.05
845.97	228.03
846.28	228.01
846.60	228.01
846.91	228.00
847.22	228.00
847.54	228.04
847.85	228.03
848.16	228.02
848.48	228.02
848.79	228.07
849.10	228.10
849.42	228.10
849.73	227.99
850.04	227.99
850.36	227.98
850.67	228.01
850.98	228.00
851.30	228.01
851.61	228.03
851.92	228.01
852.23	228.02
852.55	228.02
852.86	228.05
853.17	228.08
853.49	228.10
853.80	228.12
854.11	228.07
854.42	228.06
854.74	228.03
855.05	228.05
855.36	227.98
855.67	227.93
855.99	227.92
856.30	228.01
856.61	227.97
856.92	227.95
857.23	227.93
857.55	227.93
857.86	227.95
858.17	227.91
858.48	227.89
858.79	227.86
859.11	227.86
859.42	227.81
859.73	227.76
860.04	227.75
860.35	227.71
860.66	227.69
860.98	227.70
861.29	227.71
861.60	227.67
861.91	227.70
862.22	227.73
862.53	227.72
862.84	227.61
863.16	227.68
863.47	227.66
863.78	227.65
864.09	227.68
864.40	227.65
864.71	227.64
865.02	227.63
865.33	227.63
865.64	227.61
865.95	227.61
866.27	227.66
866.58	227.64
866.89	227.63
867.20	227.61
867.51	227.56
867.82	227.56
868.13	227.63
868.44	227.60
868.75	227.61
869.06	227.60
869.37	227.61
869.68	227.55
869.99	227.56
870.30	227.55
870.61	227.55
870.92	227.55
871.23	227.61
871.54	227.66
871.85	227.69
872.16	227.68
872.47	227.69
872.78	227.65
873.09	227.64
873.40	227.65
873.71	227.69
874.02	227.72
874.33	227.70
874.64	227.65
874.95	227.68
875.26	227.64
875.56	227.64
875.87	227.65
876.18	227.68
876.49	227.79
876.80	227.81
877.11	227.81
877.42	227.79
877.73	227.78
878.04	227.75
878.35	227.72
878.66	227.73
878.96	227.72
879.27	227.72
879.58	227.73
879.89	227.73
880.20	227.73
880.51	227.73
880.82	227.72
881.12	227.73
881.43	227.72
881.74	227.69
882.05	227.68
882.36	227.67
882.67	227.65
882.97	227.52
883.28	227.48
883.59	227.44
883.90	227.48
884.21	227.51
884.51	227.47
884.82	227.48
885.13	227.50
885.44	227.48
885.74	227.49
886.05	227.50
886.36	227.50
886.67	227.48
886.98	227.51
887.28	227.51
887.59	227.48
887.90	227.47
888.20	227.49
888.51	227.49
888.82	227.50
889.13	227.53
889.43	227.58
889.74	227.57
890.05	227.57
890.35	227.53
890.66	227.50
890.97	227.52
891.28	227.48
891.58	227.43
891.89	227.46
892.20	227.45
892.50	227.44
892.81	227.43
893.12	227.42
893.42	227.37
893.73	227.40
894.04	227.44
894.34	227.44
894.65	227.44
894.95	227.43
895.26	227.42
895.57	227.43
895.87	227.36
896.18	227.39
896.48	227.39
896.79	227.40
897.10	227.41
897.40	227.42
897.71	227.44
898.01	227.44
898.32	227.45
898.63	227.43
898.93	227.43
899.24	227.45
899.54	227.44
899.85	227.48
900.15	227.48
900.46	227.48
900.76	227.49
901.07	227.49
901.38	227.49
901.68	227.49
901.99	227.44
902.29	227.45
902.60	227.46
902.90	227.47
903.21	227.45
903.51	227.44
903.82	227.46
904.12	227.44
904.43	227.45
904.73	227.48
905.03	227.51
905.34	227.62
905.64	227.60
905.95	227.62
906.25	227.57
906.56	227.53
906.86	227.50
907.17	227.47
907.47	227.45
907.77	227.45
908.08	227.42
908.38	227.43
908.69	227.45
908.99	227.47
909.30	227.50
909.60	227.50
909.90	227.50
910.21	227.43
910.51	227.41
910.81	227.40
911.12	227.38
911.42	227.34
911.73	227.20
912.03	227.21
912.33	227.20
912.64	227.20
912.94	227.21
913.24	227.23
913.55	227.24
913.85	227.23
914.15	227.21
914.46	227.21
914.76	227.19
915.06	227.18
915.37	227.14
915.67	227.09
915.97	227.09
916.27	227.06
916.58	227.07
916.88	227.08
917.18	227.07
917.49	227.11
917.79	227.15
918.09	227.13
918.39	227.12
918.70	227.10
919.00	227.09
919.30	227.15
919.60	227.10
919.91	227.08
920.21	227.07
920.51	227.07
920.81	227.07
921.12	227.11
921.42	227.06
921.72	227.10
922.02	227.10
922.32	227.11
922.63	227.12
922.93	227.16
923.23	227.16
923.53	227.18
923.83	227.12
924.13	227.10
924.44	227.14
924.74	227.17
925.04	227.22
925.34	227.19
925.64	227.14
925.94	227.16
926.24	227.20
926.55	227.21
926.85	227.22
927.15	227.22
927.45	227.22
927.75	227.22
928.05	227.20
928.35	227.22
928.65	227.22
928.95	227.21
929.26	227.19
929.56	227.22
929.86	227.23
930.16	227.24
930.46	227.24
930.76	227.24
931.06	227.19
931.36	227.15
931.66	227.20
931.96	227.24
932.26	227.22
932.56	227.19
932.86	227.21
933.16	227.23
933.46	227.22
933.76	227.21
934.06	227.26
934.36	227.28
934.66	227.25
934.96	227.26
935.26	227.29
935.56	227.32
935.86	227.30
936.16	227.28
936.46	227.25
936.76	227.23
937.06	227.23
937.36	227.27
937.66	227.28
937.96	227.29
938.26	227.27
938.56	227.27
938.86	227.28
939.16	227.32
939.46	227.34
939.76	227.36
940.06	227.34
940.35	227.33
940.65	227.31
940.95	227.34
941.25	227.33
941.55	227.30
941.85	227.32
942.15	227.34
942.45	227.39
942.75	227.42
943.04	227.44
943.34	227.44
943.64	227.41
943.94	227.39
944.24	227.39
944.54	227.38
944.84	227.40
945.13	227.44
945.43	227.43
945.73	227.45
946.03	227.45
946.33	227.42
946.62	227.41
946.92	227.42
947.22	227.40
947.52	227.44
947.82	227.45
948.11	227.43
948.41	227.40
948.71	227.37
949.01	227.36
949.31	227.35
949.60	227.36
949.90	227.36
950.20	227.37
950.50	227.36
950.79	227.35
951.09	227.35
951.39	227.29
951.69	227.28
951.98	227.27
952.28	227.28
952.58	227.30
952.87	227.31
953.17	227.28
953.47	227.28
953.76	227.23
954.06	227.24
954.36	227.20
954.66	227.18
954.95	227.19
955.25	227.20
955.55	227.19
955.84	227.16
956.14	227.18
956.44	227.20
956.73	227.16
957.03	227.15
957.32	227.16
957.62	227.15
957.92	227.15
958.21	227.11
958.51	227.19
958.81	227.19
959.10	227.19
959.40	227.21
959.69	227.21
959.99	227.21
960.29	227.18
960.58	227.20
960.88	227.25
961.17	227.24
961.47	227.21
961.76	227.21
962.06	227.20
962.36	227.19
962.65	227.18
962.95	227.19
963.24	227.18
963.54	227.18
963.83	227.17
964.13	227.16
964.42	227.15
964.72	227.08
965.01	227.08
965.31	227.07
965.60	227.07
965.90	227.12
966.19	227.09
966.49	227.10
966.78	227.08
967.08	227.04
967.37	227.05
967.67	227.03
967.96	227.05
968.26	227.07
968.55	227.10
968.85	227.09
969.14	227.09
969.43	227.10
969.73	227.07
970.02	227.08
970.32	227.06
970.61	227.06
970.91	227.06
971.20	227.03
971.49	227.00
971.79	226.99
972.08	226.97
972.38	226.97
972.67	226.95
972.96	226.98
973.26	227.01
973.55	227.04
973.85	227.07
974.14	227.07
974.43	227.09
974.73	227.05
975.02	227.03
975.31	227.03
975.61	227.05
975.90	227.07
976.19	227.09
976.49	227.11
976.78	227.11
977.07	227.09
977.37	227.13
977.66	227.19
977.95	227.19
978.24	227.20
978.54	227.25
978.83	227.28
979.12	227.27
979.42	227.29
979.71	227.27
980.00	227.28
980.29	227.27
980.59	227.25
980.88	227.28
981.17	227.33
981.46	227.37
981.76	227.34
982.05	227.36
982.34	227.38
982.63	227.42
982.93	227.44
983.22	227.49
983.51	227.49
983.80	227.50
984.09	227.51
984.39	227.49
984.68	227.45
984.97	227.44
985.26	227.46
985.55	227.45
985.85	227.44
986.14	227.45
986.43	227.49
986.72	227.48
987.01	227.45
987.30	227.44
987.59	227.41
987.89	227.44
988.18	227.44
988.47	227.44
988.76	227.38
989.05	227.37
989.34	227.35
989.63	227.36
989.92	227.36
990.22	227.35
990.51	227.36
990.80	227.37
991.09	227.40
991.38	227.38
991.67	227.36
991.96	227.34
992.25	227.33
992.54	227.29
992.83	227.32
993.12	227.30
993.41	227.27
993.70	227.32
993.99	227.35
994.28	227.35
994.58	227.32
994.87	227.31
995.16	227.30
995.45	227.27
995.74	227.20
996.03	227.19
996.32	227.17
996.61	227.16
996.90	227.16
997.19	227.11
997.48	227.11
997.77	227.10
998.06	227.10
998.34	227.11
998.63	227.12
998.92	227.07
999.21	227.11
999.50	227.13
999.79	227.08
1000.08	227.05
1000.37	227.02
1000.66	227.05
1000.95	227.10
1001.24	227.10
1001.53	227.12
1001.82	227.15
1002.11	227.14
1002.40	227.17
1002.68	227.20
1002.97	227.29
1003.26	227.30
1003.55	227.30
1003.84	227.31
1004.13	227.38
1004.42	227.33
1004.71	227.33
1004.99	227.34
1005.28	227.31
1005.57	227.31
1005.86	227.30
1006.15	227.30
1006.44	227.31
1006.72	227.29
1007.01	227.23
1007.30	227.22
1007.59	227.23
1007.88	227.24
1008.17	227.27
1008.45	227.25
1008.74	227.23
1009.03	227.18
1009.32	227.15
1009.60	227.13
1009.89	227.13
1010.18	227.07
1010.47	227.13
1010.76	227.11
1011.04	227.10
1011.33	227.16
1011.62	227.20
1011.91	227.21
1012.19	227.20
1012.48	227.20
1012.77	227.18
1013.05	227.25
1013.34	227.28
1013.63	227.27
1013.92	227.27
1014.20	227.23
1014.49	227.22
1014.78	227.23
1015.06	227.21
1015.35	227.25
1015.64	227.29
1015.92	227.29
1016.21	227.33
1016.50	227.31
1016.78	227.34
1017.07	227.34
1017.36	227.28
1017.64	227.24
1017.93	227.25
1018.22	227.23
1018.50	227.22
1018.79	227.27
1019.08	227.23
1019.36	227.18
1019.65	227.17
1019.93	227.21
1020.22	227.21
1020.51	227.27
1020.79	227.24
1021.08	226.90
1021.36	226.77
1021.65	227.61
1021.94	227.22
1022.22	226.51
1022.51	226.94
1022.79	227.87
1023.08	227.20
1023.36	228.26
1023.65	226.72
>>>>>End Processed Spectral Data<<<<<
