SpectraSuite Data File
++++++++++++++++++++++++++++++++++++
Date: Fri Feb 01 16:06:23 EST 2013
User: group
Dark Spectrum Present: No
Reference Spectrum Present: No
Number of Sampled Component Spectra: 1
Spectrometers: USB2E7196
Integration Time (usec): 35000 (USB2E7196)
Spectra Averaged: 100 (USB2E7196)
Boxcar Smoothing: 10 (USB2E7196)
Correct for Electrical Dark: No (USB2E7196)
Strobe/Lamp Enabled: No (USB2E7196)
Correct for Detector Non-linearity: No (USB2E7196)
Correct for Stray Light: No (USB2E7196)
Number of Pixels in Processed Spectrum: 2048
>>>>>Begin Processed Spectral Data<<<<<
339.09	0.00
339.48	214.45
339.86	215.94
340.24	217.68
340.63	218.82
341.01	221.67
341.39	221.58
341.78	223.11
342.16	223.87
342.54	224.69
342.93	213.05
343.31	223.80
343.69	224.36
344.07	224.82
344.46	225.24
344.84	225.62
345.22	225.86
345.60	226.09
345.99	226.24
346.37	226.37
346.75	226.47
347.13	226.54
347.52	226.59
347.90	226.65
348.28	226.63
348.66	226.66
349.05	226.70
349.43	226.77
349.81	226.77
350.19	226.80
350.57	226.89
350.96	226.94
351.34	227.05
351.72	227.14
352.10	227.25
352.48	227.31
352.87	227.36
353.25	227.43
353.63	227.51
354.01	227.61
354.39	227.67
354.77	227.76
355.15	227.85
355.54	227.91
355.92	227.96
356.30	228.04
356.68	228.16
357.06	228.20
357.44	228.24
357.82	228.32
358.20	228.37
358.58	228.38
358.97	228.47
359.35	228.54
359.73	228.61
360.11	228.65
360.49	228.71
360.87	228.76
361.25	228.80
361.63	228.90
362.01	228.92
362.39	228.97
362.77	228.98
363.15	229.02
363.53	229.06
363.91	229.10
364.29	229.13
364.67	229.10
365.05	229.13
365.43	229.15
365.81	229.18
366.19	229.23
366.57	229.29
366.95	229.27
367.33	229.24
367.71	229.22
368.09	229.24
368.47	229.22
368.85	229.22
369.23	229.22
369.61	229.13
369.99	229.13
370.37	229.11
370.75	229.17
371.13	229.11
371.51	229.07
371.89	229.06
372.27	229.00
372.65	228.95
373.03	228.88
373.41	228.81
373.78	228.76
374.16	228.65
374.54	228.58
374.92	228.53
375.30	228.49
375.68	228.43
376.06	228.36
376.44	228.29
376.82	228.20
377.19	228.16
377.57	228.13
377.95	228.08
378.33	228.00
378.71	227.84
379.09	227.80
379.47	227.73
379.84	227.64
380.22	227.57
380.60	227.49
380.98	227.45
381.36	227.39
381.73	227.34
382.11	227.31
382.49	227.23
382.87	227.13
383.25	227.05
383.62	227.08
384.00	227.00
384.38	226.97
384.76	226.95
385.13	226.91
385.51	226.83
385.89	226.76
386.27	226.73
386.64	226.73
387.02	226.67
387.40	226.61
387.78	226.57
388.15	226.56
388.53	226.51
388.91	226.45
389.29	226.43
389.66	226.41
390.04	226.37
390.42	226.34
390.79	226.36
391.17	226.34
391.55	226.22
391.92	226.23
392.30	226.24
392.68	226.19
393.05	226.15
393.43	226.18
393.81	226.20
394.18	226.17
394.56	226.17
394.94	226.18
395.31	226.21
395.69	226.29
396.06	226.32
396.44	226.40
396.82	226.46
397.19	226.52
397.57	226.55
397.95	226.60
398.32	226.64
398.70	226.70
399.07	226.80
399.45	226.84
399.82	226.90
400.20	226.94
400.58	227.00
400.95	227.07
401.33	227.15
401.70	227.28
402.08	227.39
402.45	227.47
402.83	227.60
403.20	227.70
403.58	227.78
403.95	227.90
404.33	227.97
404.71	228.09
405.08	228.26
405.46	228.39
405.83	228.51
406.21	228.66
406.58	228.84
406.96	228.99
407.33	229.16
407.70	229.34
408.08	229.60
408.45	229.84
408.83	230.07
409.20	230.26
409.58	230.44
409.95	230.71
410.33	230.97
410.70	231.19
411.08	231.47
411.45	231.77
411.82	232.07
412.20	232.42
412.57	232.83
412.95	233.15
413.32	233.54
413.69	233.96
414.07	234.42
414.44	234.86
414.82	235.33
415.19	235.88
415.56	236.42
415.94	236.95
416.31	237.61
416.68	238.25
417.06	238.97
417.43	239.64
417.81	240.40
418.18	241.20
418.55	242.05
418.93	242.89
419.30	243.78
419.67	244.71
420.04	245.69
420.42	246.66
420.79	247.86
421.16	249.03
421.54	250.22
421.91	251.43
422.28	252.70
422.66	254.00
423.03	255.31
423.40	256.61
423.77	258.02
424.15	259.43
424.52	260.93
424.89	262.54
425.26	264.11
425.64	265.54
426.01	267.15
426.38	268.82
426.75	270.53
427.13	272.26
427.50	274.08
427.87	275.94
428.24	277.82
428.61	279.51
428.99	281.43
429.36	283.53
429.73	285.57
430.10	287.57
430.47	289.61
430.85	291.72
431.22	294.03
431.59	296.44
431.96	298.69
432.33	301.12
432.70	303.48
433.08	306.30
433.45	308.93
433.82	311.50
434.19	314.33
434.56	317.12
434.93	319.80
435.30	322.38
435.68	325.29
436.05	328.12
436.42	330.93
436.79	333.48
437.16	336.16
437.53	339.00
437.90	341.83
438.27	344.59
438.64	347.46
439.01	350.02
439.38	352.21
439.75	354.36
440.13	356.84
440.50	359.17
440.87	360.99
441.24	362.90
441.61	365.07
441.98	366.60
442.35	368.37
442.72	370.21
443.09	372.06
443.46	373.04
443.83	373.62
444.20	374.14
444.57	374.89
444.94	375.21
445.31	375.54
445.68	375.90
446.05	375.99
446.42	375.51
446.79	375.07
447.16	374.65
447.53	374.30
447.90	373.18
448.27	372.02
448.64	370.43
449.01	369.30
449.37	367.31
449.74	365.42
450.11	363.22
450.48	360.72
450.85	358.18
451.22	356.03
451.59	353.99
451.96	352.02
452.33	349.45
452.70	347.09
453.07	344.23
453.43	341.32
453.80	338.55
454.17	335.95
454.54	333.38
454.91	330.62
455.28	327.98
455.65	325.48
456.02	323.07
456.38	320.98
456.75	318.35
457.12	316.11
457.49	313.88
457.86	311.74
458.23	309.90
458.59	307.85
458.96	305.79
459.33	303.93
459.70	302.08
460.07	300.62
460.43	298.89
460.80	297.33
461.17	295.92
461.54	294.42
461.91	292.99
462.27	291.58
462.64	290.34
463.01	289.03
463.38	287.70
463.74	286.29
464.11	285.08
464.48	284.03
464.85	282.93
465.21	282.07
465.58	281.11
465.95	280.00
466.32	279.07
466.68	278.16
467.05	277.28
467.42	276.37
467.78	275.43
468.15	274.54
468.52	273.84
468.88	272.95
469.25	272.18
469.62	271.57
469.98	270.95
470.35	270.31
470.72	269.68
471.08	269.05
471.45	268.54
471.82	268.02
472.18	267.44
472.55	267.01
472.92	266.50
473.28	266.06
473.65	265.61
474.02	265.19
474.38	264.84
474.75	264.54
475.11	264.21
475.48	263.92
475.85	263.72
476.21	263.50
476.58	263.37
476.94	263.23
477.31	263.03
477.67	262.82
478.04	262.73
478.41	262.71
478.77	262.74
479.14	262.66
479.50	262.69
479.87	262.77
480.23	262.89
480.60	262.94
480.96	263.05
481.33	263.27
481.69	263.50
482.06	263.67
482.42	263.85
482.79	264.13
483.15	264.48
483.52	264.83
483.88	265.19
484.25	265.55
484.61	265.99
484.98	266.45
485.34	267.05
485.71	267.69
486.07	268.24
486.44	268.81
486.80	269.55
487.17	270.29
487.53	271.09
487.90	271.93
488.26	272.91
488.62	273.88
488.99	274.83
489.35	275.83
489.72	276.97
490.08	278.18
490.44	279.38
490.81	280.69
491.17	282.06
491.54	283.53
491.90	285.07
492.26	286.71
492.63	288.46
492.99	290.22
493.36	292.11
493.72	294.22
494.08	296.33
494.45	298.54
494.81	300.89
495.17	303.31
495.54	305.86
495.90	308.52
496.26	311.33
496.63	314.35
496.99	317.51
497.35	320.77
497.72	324.21
498.08	327.77
498.44	331.44
498.80	335.39
499.17	339.49
499.53	343.64
499.89	348.05
500.26	352.58
500.62	357.23
500.98	362.21
501.34	367.30
501.71	372.67
502.07	378.11
502.43	383.77
502.79	389.62
503.16	395.71
503.52	402.01
503.88	408.45
504.24	415.12
504.60	421.99
504.97	429.17
505.33	436.48
505.69	444.19
506.05	452.00
506.41	459.93
506.78	468.13
507.14	476.61
507.50	485.24
507.86	494.28
508.22	503.50
508.59	512.65
508.95	522.21
509.31	532.03
509.67	542.21
510.03	552.47
510.39	563.11
510.75	573.88
511.12	584.83
511.48	596.15
511.84	607.54
512.20	619.07
512.56	631.03
512.92	643.20
513.28	655.61
513.64	668.08
514.00	680.72
514.37	693.60
514.73	706.65
515.09	719.75
515.45	733.05
515.81	746.67
516.17	760.65
516.53	774.77
516.89	788.95
517.25	802.97
517.61	817.38
517.97	831.79
518.33	846.25
518.69	861.03
519.05	876.00
519.41	891.17
519.77	906.67
520.13	922.11
520.49	937.47
520.85	952.73
521.21	968.46
521.57	984.68
521.93	1000.47
522.29	1016.85
522.65	1033.05
523.01	1049.14
523.37	1065.20
523.73	1081.39
524.09	1097.51
524.45	1113.78
524.81	1130.55
525.17	1147.34
525.53	1164.23
525.89	1181.08
526.25	1197.87
526.61	1214.13
526.97	1230.82
527.33	1247.20
527.68	1263.76
528.04	1280.24
528.40	1296.88
528.76	1313.97
529.12	1330.47
529.48	1347.29
529.84	1363.24
530.20	1379.83
530.56	1396.84
530.91	1414.19
531.27	1430.90
531.63	1447.29
531.99	1463.87
532.35	1479.80
532.71	1495.64
533.07	1511.86
533.42	1527.73
533.78	1543.64
534.14	1560.00
534.50	1575.28
534.86	1591.07
535.21	1606.23
535.57	1622.05
535.93	1637.42
536.29	1652.07
536.65	1667.15
537.00	1681.86
537.36	1697.22
537.72	1711.74
538.08	1726.07
538.44	1739.80
538.79	1753.60
539.15	1767.19
539.51	1780.81
539.87	1795.09
540.22	1808.89
540.58	1822.56
540.94	1835.86
541.29	1848.81
541.65	1861.41
542.01	1874.68
542.37	1887.20
542.72	1899.60
543.08	1911.43
543.44	1923.83
543.79	1935.00
544.15	1946.04
544.51	1957.75
544.87	1968.65
545.22	1979.48
545.58	1989.74
545.94	1999.47
546.29	2009.38
546.65	2019.32
547.01	2028.61
547.36	2037.30
547.72	2045.65
548.07	2053.50
548.43	2061.64
548.79	2069.69
549.14	2077.19
549.50	2084.51
549.86	2092.06
550.21	2099.34
550.57	2106.51
550.92	2113.11
551.28	2120.23
551.64	2127.18
551.99	2133.59
552.35	2139.77
552.70	2145.79
553.06	2151.75
553.41	2158.04
553.77	2164.09
554.13	2169.98
554.48	2176.14
554.84	2181.53
555.19	2186.76
555.55	2191.94
555.90	2196.40
556.26	2201.20
556.61	2206.01
556.97	2210.24
557.32	2214.40
557.68	2218.51
558.03	2222.64
558.39	2226.31
558.74	2230.95
559.10	2234.77
559.45	2238.43
559.81	2242.78
560.16	2246.68
560.52	2249.92
560.87	2253.39
561.23	2255.96
561.58	2258.93
561.94	2261.43
562.29	2263.85
562.64	2266.70
563.00	2269.28
563.35	2272.79
563.71	2275.91
564.06	2279.02
564.42	2281.93
564.77	2284.38
565.12	2286.68
565.48	2288.74
565.83	2290.66
566.19	2291.82
566.54	2292.81
566.89	2293.89
567.25	2294.32
567.60	2295.77
567.96	2297.59
568.31	2298.42
568.66	2299.61
569.02	2300.16
569.37	2300.50
569.72	2301.46
570.08	2301.60
570.43	2301.69
570.78	2301.13
571.14	2299.57
571.49	2298.27
571.84	2297.98
572.20	2296.86
572.55	2295.78
572.90	2294.14
573.26	2292.78
573.61	2291.16
573.96	2289.47
574.31	2286.51
574.67	2283.53
575.02	2279.98
575.37	2276.41
575.72	2272.60
576.08	2269.26
576.43	2266.09
576.78	2262.44
577.13	2259.24
577.49	2256.01
577.84	2252.40
578.19	2248.69
578.54	2245.11
578.90	2240.88
579.25	2235.22
579.60	2230.24
579.95	2225.25
580.30	2220.27
580.66	2215.07
581.01	2210.27
581.36	2205.35
581.71	2201.16
582.06	2196.79
582.42	2192.19
582.77	2187.06
583.12	2182.50
583.47	2177.84
583.82	2172.95
584.17	2167.60
584.53	2162.01
584.88	2156.50
585.23	2150.76
585.58	2145.24
585.93	2139.73
586.28	2134.93
586.63	2129.89
586.98	2124.99
587.34	2120.25
587.69	2115.39
588.04	2110.18
588.39	2104.47
588.74	2097.95
589.09	2091.75
589.44	2084.96
589.79	2078.89
590.14	2073.28
590.49	2066.69
590.84	2060.17
591.19	2054.01
591.54	2047.72
591.89	2040.42
592.25	2033.57
592.60	2026.55
592.95	2019.07
593.30	2011.79
593.65	2004.27
594.00	1997.42
594.35	1990.10
594.70	1982.16
595.05	1975.08
595.40	1967.83
595.75	1960.24
596.10	1954.01
596.45	1947.39
596.80	1941.33
597.15	1934.87
597.50	1927.81
597.85	1921.51
598.19	1915.04
598.54	1907.95
598.89	1901.28
599.24	1895.48
599.59	1888.88
599.94	1882.65
600.29	1876.39
600.64	1869.85
600.99	1862.48
601.34	1855.64
601.69	1848.76
602.04	1841.89
602.39	1834.44
602.74	1827.68
603.08	1821.03
603.43	1814.33
603.78	1806.97
604.13	1799.65
604.48	1792.28
604.83	1785.39
605.18	1778.30
605.53	1770.29
605.87	1762.33
606.22	1755.10
606.57	1746.98
606.92	1739.65
607.27	1732.39
607.62	1725.37
607.96	1718.17
608.31	1711.47
608.66	1703.78
609.01	1696.19
609.36	1688.61
609.70	1680.59
610.05	1672.52
610.40	1664.83
610.75	1656.56
611.10	1648.96
611.44	1640.55
611.79	1632.52
612.14	1623.92
612.49	1614.79
612.83	1606.44
613.18	1598.31
613.53	1590.12
613.88	1581.80
614.22	1573.45
614.57	1564.77
614.92	1556.75
615.27	1548.98
615.61	1540.65
615.96	1532.66
616.31	1524.99
616.65	1517.61
617.00	1510.02
617.35	1502.27
617.70	1494.03
618.04	1485.44
618.39	1477.22
618.74	1469.54
619.08	1461.20
619.43	1453.53
619.78	1446.59
620.12	1439.31
620.47	1431.74
620.82	1423.63
621.16	1416.03
621.51	1408.47
621.85	1400.87
622.20	1392.30
622.55	1383.94
622.89	1376.13
623.24	1368.49
623.59	1361.04
623.93	1353.47
624.28	1346.26
624.62	1338.75
624.97	1331.54
625.32	1324.82
625.66	1317.77
626.01	1310.59
626.35	1303.16
626.70	1295.48
627.04	1287.77
627.39	1280.06
627.73	1272.74
628.08	1265.82
628.43	1258.53
628.77	1251.20
629.12	1243.66
629.46	1236.64
629.81	1229.28
630.15	1222.05
630.50	1214.57
630.84	1206.39
631.19	1198.59
631.53	1191.03
631.88	1183.49
632.22	1175.81
632.57	1168.54
632.91	1161.05
633.26	1153.70
633.60	1146.29
633.95	1139.07
634.29	1132.08
634.64	1125.30
634.98	1117.90
635.32	1110.73
635.67	1104.19
636.01	1097.49
636.36	1090.69
636.70	1084.11
637.05	1077.54
637.39	1071.09
637.73	1064.60
638.08	1058.72
638.42	1052.66
638.77	1046.21
639.11	1039.59
639.45	1033.19
639.80	1026.47
640.14	1020.03
640.49	1013.49
640.83	1007.38
641.17	1001.22
641.52	994.93
641.86	988.58
642.20	982.69
642.55	976.46
642.89	969.96
643.23	963.40
643.58	957.70
643.92	951.45
644.26	945.44
644.61	939.39
644.95	933.41
645.29	926.84
645.64	920.11
645.98	913.78
646.32	907.96
646.66	901.89
647.01	896.17
647.35	890.40
647.69	884.56
648.04	878.94
648.38	873.06
648.72	867.01
649.06	860.86
649.41	854.95
649.75	848.86
650.09	842.87
650.43	837.13
650.78	830.91
651.12	824.95
651.46	819.17
651.80	813.39
652.14	808.04
652.49	802.67
652.83	797.42
653.17	791.84
653.51	786.06
653.85	780.64
654.20	774.92
654.54	768.96
654.88	763.17
655.22	757.23
655.56	751.60
655.90	746.09
656.25	740.92
656.59	735.53
656.93	730.45
657.27	725.32
657.61	719.80
657.95	714.72
658.29	709.68
658.64	704.43
658.98	699.13
659.32	693.55
659.66	688.31
660.00	683.01
660.34	677.98
660.68	673.13
661.02	668.15
661.36	663.42
661.70	658.88
662.05	654.58
662.39	650.21
662.73	645.76
663.07	641.38
663.41	636.88
663.75	632.41
664.09	627.89
664.43	623.51
664.77	619.41
665.11	615.13
665.45	610.90
665.79	606.81
666.13	602.68
666.47	598.61
666.81	594.49
667.15	590.38
667.49	586.50
667.83	582.67
668.17	578.76
668.51	574.68
668.85	570.69
669.19	566.84
669.53	562.99
669.87	559.02
670.21	555.32
670.55	551.71
670.89	548.31
671.23	544.90
671.57	541.39
671.91	537.90
672.25	534.38
672.58	530.89
672.92	527.49
673.26	524.33
673.60	521.24
673.94	518.09
674.28	515.15
674.62	512.21
674.96	509.09
675.30	506.16
675.64	503.25
675.97	500.45
676.31	497.62
676.65	494.79
676.99	492.16
677.33	489.30
677.67	486.48
678.01	483.47
678.34	480.42
678.68	477.52
679.02	474.65
679.36	471.91
679.70	469.24
680.04	466.51
680.37	463.65
680.71	460.85
681.05	458.27
681.39	455.61
681.73	452.95
682.06	450.45
682.40	447.90
682.74	445.37
683.08	442.92
683.42	440.26
683.75	437.74
684.09	435.20
684.43	432.74
684.77	430.26
685.10	427.90
685.44	425.66
685.78	423.42
686.12	421.20
686.45	418.91
686.79	416.61
687.13	414.41
687.46	412.24
687.80	410.08
688.14	407.85
688.48	405.72
688.81	403.46
689.15	401.24
689.49	399.09
689.82	396.96
690.16	394.83
690.50	392.89
690.83	390.87
691.17	388.83
691.51	386.92
691.84	385.06
692.18	383.10
692.52	381.11
692.85	379.07
693.19	377.19
693.52	375.32
693.86	373.49
694.20	371.66
694.53	369.82
694.87	367.91
695.21	366.10
695.54	364.37
695.88	362.62
696.21	360.96
696.55	359.26
696.88	357.57
697.22	355.87
697.56	354.23
697.89	352.58
698.23	351.05
698.56	349.41
698.90	347.83
699.23	346.15
699.57	344.60
699.90	343.06
700.24	341.48
700.58	339.97
700.91	338.42
701.25	336.99
701.58	335.63
701.92	334.29
702.25	332.94
702.59	331.51
702.92	330.20
703.26	328.83
703.59	327.55
703.93	326.36
704.26	325.11
704.60	323.81
704.93	322.52
705.26	321.26
705.60	320.05
705.93	318.91
706.27	317.86
706.60	316.80
706.94	315.79
707.27	314.62
707.61	313.55
707.94	312.55
708.27	311.45
708.61	310.38
708.94	309.34
709.28	308.36
709.61	307.43
709.94	306.50
710.28	305.50
710.61	304.53
710.95	303.49
711.28	302.56
711.61	301.64
711.95	300.75
712.28	299.79
712.61	298.82
712.95	297.88
713.28	297.01
713.61	296.08
713.95	295.17
714.28	294.37
714.61	293.50
714.95	292.69
715.28	291.86
715.61	290.98
715.95	290.14
716.28	289.25
716.61	288.44
716.95	287.61
717.28	286.87
717.61	286.09
717.94	285.39
718.28	284.63
718.61	283.89
718.94	283.21
719.27	282.57
719.61	281.96
719.94	281.28
720.27	280.59
720.60	279.94
720.94	279.29
721.27	278.70
721.60	278.13
721.93	277.53
722.27	276.98
722.60	276.41
722.93	275.86
723.26	275.33
723.59	274.70
723.93	274.14
724.26	273.59
724.59	273.02
724.92	272.46
725.25	271.96
725.59	271.42
725.92	270.89
726.25	270.36
726.58	269.90
726.91	269.41
727.24	268.96
727.57	268.53
727.91	268.04
728.24	267.60
728.57	267.10
728.90	266.63
729.23	266.09
729.56	265.68
729.89	265.21
730.22	264.75
730.55	264.34
730.89	263.91
731.22	263.49
731.55	263.09
731.88	262.67
732.21	262.24
732.54	261.83
732.87	261.43
733.20	261.01
733.53	260.58
733.86	260.22
734.19	259.79
734.52	259.36
734.85	259.07
735.18	258.65
735.51	258.34
735.84	257.99
736.17	257.65
736.50	257.21
736.83	256.98
737.16	256.62
737.49	256.30
737.82	255.92
738.15	255.58
738.48	255.24
738.81	254.91
739.14	254.59
739.47	254.30
739.80	253.99
740.13	253.71
740.46	253.39
740.79	253.06
741.12	252.76
741.45	252.47
741.78	252.13
742.11	251.84
742.44	251.48
742.77	251.17
743.10	250.86
743.43	250.57
743.75	250.20
744.08	250.08
744.41	249.76
744.74	249.49
745.07	249.18
745.40	248.93
745.73	248.67
746.06	248.37
746.39	248.10
746.71	247.81
747.04	247.51
747.37	247.26
747.70	247.03
748.03	246.78
748.36	246.54
748.68	246.29
749.01	246.03
749.34	245.82
749.67	245.60
750.00	245.41
750.33	245.29
750.65	245.05
750.98	244.69
751.31	244.49
751.64	244.32
751.97	244.17
752.29	243.95
752.62	243.67
752.95	243.48
753.28	243.27
753.60	243.05
753.93	242.88
754.26	242.68
754.59	242.47
754.91	242.27
755.24	242.08
755.57	241.88
755.90	241.70
756.22	241.49
756.55	241.28
756.88	241.08
757.20	240.82
757.53	240.66
757.86	240.53
758.19	240.37
758.51	240.18
758.84	239.97
759.17	239.84
759.49	239.71
759.82	239.59
760.15	239.44
760.47	239.33
760.80	239.16
761.13	239.03
761.45	238.87
761.78	238.68
762.11	238.55
762.43	238.39
762.76	238.25
763.08	238.12
763.41	238.05
763.74	237.93
764.06	237.78
764.39	237.63
764.71	237.44
765.04	237.28
765.37	237.11
765.69	236.97
766.02	236.77
766.34	236.66
766.67	236.48
767.00	236.37
767.32	236.26
767.65	236.25
767.97	236.14
768.30	236.02
768.62	235.94
768.95	235.79
769.27	235.67
769.60	235.59
769.92	235.47
770.25	235.30
770.57	235.18
770.90	235.09
771.22	234.97
771.55	234.92
771.87	234.84
772.20	234.75
772.52	234.79
772.85	234.83
773.17	234.73
773.50	234.66
773.82	234.57
774.15	234.43
774.47	234.23
774.80	234.12
775.12	234.05
775.45	233.95
775.77	233.85
776.09	233.78
776.42	233.68
776.74	233.63
777.07	233.56
777.39	233.46
777.72	233.39
778.04	233.30
778.36	233.22
778.69	233.14
779.01	233.10
779.33	232.91
779.66	232.73
779.98	232.65
780.31	232.60
780.63	232.56
780.95	232.52
781.28	232.45
781.60	232.39
781.92	232.31
782.25	232.27
782.57	232.25
782.89	232.22
783.22	232.18
783.54	232.10
783.86	232.08
784.19	232.03
784.51	232.02
784.83	231.97
785.16	231.90
785.48	231.87
785.80	231.82
786.12	231.76
786.45	231.72
786.77	231.70
787.09	231.62
787.42	231.54
787.74	231.48
788.06	231.43
788.38	231.39
788.71	231.35
789.03	231.33
789.35	231.31
789.67	231.26
789.99	231.20
790.32	231.14
790.64	231.07
790.96	231.11
791.28	231.01
791.61	230.98
791.93	230.96
792.25	230.93
792.57	230.93
792.89	230.91
793.21	230.89
793.54	230.84
793.86	230.81
794.18	230.81
794.50	230.78
794.82	230.76
795.14	230.73
795.47	230.71
795.79	230.65
796.11	230.61
796.43	230.56
796.75	230.54
797.07	230.50
797.39	230.51
797.71	230.44
798.04	230.44
798.36	230.41
798.68	230.34
799.00	230.29
799.32	230.23
799.64	230.22
799.96	230.18
800.28	230.12
800.60	230.10
800.92	230.02
801.24	229.99
801.56	229.95
801.89	229.88
802.21	229.87
802.53	229.81
802.85	229.80
803.17	229.79
803.49	229.74
803.81	229.72
804.13	229.67
804.45	229.59
804.77	229.54
805.09	229.50
805.41	229.48
805.73	229.46
806.05	229.39
806.37	229.33
806.69	229.29
807.01	229.25
807.33	229.23
807.65	229.15
807.97	229.16
808.28	229.12
808.60	229.11
808.92	229.04
809.24	229.09
809.56	229.02
809.88	228.98
810.20	228.96
810.52	228.95
810.84	228.90
811.16	228.87
811.48	228.85
811.80	228.83
812.12	228.80
812.43	228.79
812.75	228.79
813.07	228.76
813.39	228.75
813.71	228.75
814.03	228.71
814.35	228.74
814.67	228.67
814.98	228.67
815.30	228.65
815.62	228.59
815.94	228.51
816.26	228.53
816.58	228.47
816.89	228.45
817.21	228.42
817.53	228.40
817.85	228.38
818.17	228.38
818.48	228.36
818.80	228.36
819.12	228.32
819.44	228.26
819.76	228.24
820.07	228.23
820.39	228.21
820.71	228.20
821.03	228.15
821.34	228.14
821.66	228.16
821.98	228.15
822.30	228.14
822.61	228.15
822.93	228.09
823.25	228.08
823.57	228.07
823.88	228.04
824.20	228.03
824.52	228.07
824.83	228.02
825.15	228.02
825.47	228.00
825.79	228.00
826.10	227.99
826.42	227.98
826.74	227.99
827.05	227.99
827.37	227.98
827.69	228.00
828.00	228.02
828.32	227.95
828.64	227.95
828.95	228.01
829.27	227.97
829.58	227.96
829.90	227.99
830.22	227.98
830.53	228.01
830.85	227.99
831.17	227.92
831.48	227.89
831.80	227.84
832.11	227.84
832.43	227.86
832.75	227.87
833.06	227.89
833.38	227.88
833.69	227.87
834.01	227.87
834.32	227.86
834.64	227.83
834.96	227.83
835.27	227.81
835.59	227.80
835.90	227.79
836.22	227.79
836.53	227.74
836.85	227.73
837.16	227.80
837.48	227.80
837.79	227.85
838.11	227.88
838.42	227.89
838.74	227.87
839.05	227.81
839.37	227.78
839.68	227.73
840.00	227.69
840.31	227.67
840.63	227.64
840.94	227.64
841.26	227.62
841.57	227.62
841.88	227.60
842.20	227.56
842.51	227.56
842.83	227.55
843.14	227.64
843.46	227.64
843.77	227.57
844.08	227.54
844.40	227.48
844.71	227.44
845.03	227.40
845.34	227.37
845.65	227.39
845.97	227.36
846.28	227.35
846.60	227.31
846.91	227.29
847.22	227.29
847.54	227.29
847.85	227.27
848.16	227.25
848.48	227.24
848.79	227.28
849.10	227.26
849.42	227.26
849.73	227.17
850.04	227.16
850.36	227.14
850.67	227.16
850.98	227.17
851.30	227.19
851.61	227.20
851.92	227.22
852.23	227.26
852.55	227.32
852.86	227.35
853.17	227.39
853.49	227.43
853.80	227.40
854.11	227.41
854.42	227.43
854.74	227.43
855.05	227.45
855.36	227.37
855.67	227.37
855.99	227.37
856.30	227.48
856.61	227.44
856.92	227.44
857.23	227.46
857.55	227.45
857.86	227.46
858.17	227.49
858.48	227.46
858.79	227.40
859.11	227.41
859.42	227.39
859.73	227.39
860.04	227.39
860.35	227.40
860.66	227.39
860.98	227.38
861.29	227.41
861.60	227.37
861.91	227.41
862.22	227.42
862.53	227.39
862.84	227.26
863.16	227.31
863.47	227.30
863.78	227.28
864.09	227.31
864.40	227.29
864.71	227.29
865.02	227.31
865.33	227.30
865.64	227.26
865.95	227.25
866.27	227.32
866.58	227.28
866.89	227.27
867.20	227.26
867.51	227.24
867.82	227.23
868.13	227.29
868.44	227.26
868.75	227.26
869.06	227.28
869.37	227.31
869.68	227.26
869.99	227.26
870.30	227.26
870.61	227.24
870.92	227.27
871.23	227.24
871.54	227.28
871.85	227.33
872.16	227.33
872.47	227.32
872.78	227.22
873.09	227.27
873.40	227.26
873.71	227.29
874.02	227.30
874.33	227.28
874.64	227.25
874.95	227.29
875.26	227.30
875.56	227.29
875.87	227.29
876.18	227.30
876.49	227.35
876.80	227.37
877.11	227.37
877.42	227.35
877.73	227.37
878.04	227.34
878.35	227.32
878.66	227.29
878.96	227.30
879.27	227.33
879.58	227.31
879.89	227.29
880.20	227.29
880.51	227.29
880.82	227.30
881.12	227.30
881.43	227.26
881.74	227.24
882.05	227.25
882.36	227.25
882.67	227.25
882.97	227.18
883.28	227.17
883.59	227.15
883.90	227.13
884.21	227.11
884.51	227.10
884.82	227.11
885.13	227.14
885.44	227.13
885.74	227.12
886.05	227.12
886.36	227.16
886.67	227.12
886.98	227.15
887.28	227.18
887.59	227.18
887.90	227.17
888.20	227.15
888.51	227.15
888.82	227.14
889.13	227.14
889.43	227.23
889.74	227.19
890.05	227.20
890.35	227.24
890.66	227.23
890.97	227.19
891.28	227.18
891.58	227.20
891.89	227.20
892.20	227.17
892.50	227.14
892.81	227.11
893.12	227.12
893.42	227.09
893.73	227.06
894.04	227.05
894.34	227.03
894.65	227.03
894.95	226.99
895.26	226.99
895.57	227.02
895.87	226.94
896.18	226.93
896.48	226.95
896.79	226.93
897.10	226.94
897.40	226.94
897.71	226.96
898.01	226.93
898.32	226.92
898.63	226.89
898.93	226.90
899.24	226.91
899.54	226.91
899.85	226.88
900.15	226.86
900.46	226.85
900.76	226.86
901.07	226.85
901.38	226.85
901.68	226.86
901.99	226.82
902.29	226.79
902.60	226.81
902.90	226.79
903.21	226.76
903.51	226.77
903.82	226.80
904.12	226.78
904.43	226.75
904.73	226.77
905.03	226.83
905.34	226.91
905.64	226.90
905.95	226.88
906.25	226.90
906.56	226.90
906.86	226.89
907.17	226.89
907.47	226.89
907.77	226.89
908.08	226.88
908.38	226.87
908.69	226.85
908.99	226.88
909.30	226.88
909.60	226.90
909.90	226.86
910.21	226.84
910.51	226.80
910.81	226.77
911.12	226.76
911.42	226.74
911.73	226.62
912.03	226.63
912.33	226.67
912.64	226.68
912.94	226.66
913.24	226.66
913.55	226.65
913.85	226.66
914.15	226.69
914.46	226.69
914.76	226.66
915.06	226.67
915.37	226.60
915.67	226.57
915.97	226.55
916.27	226.54
916.58	226.53
916.88	226.56
917.18	226.58
917.49	226.63
917.79	226.62
918.09	226.64
918.39	226.65
918.70	226.63
919.00	226.61
919.30	226.68
919.60	226.64
919.91	226.66
920.21	226.66
920.51	226.66
920.81	226.65
921.12	226.69
921.42	226.69
921.72	226.74
922.02	226.78
922.32	226.79
922.63	226.82
922.93	226.85
923.23	226.86
923.53	226.86
923.83	226.79
924.13	226.80
924.44	226.81
924.74	226.82
925.04	226.85
925.34	226.85
925.64	226.80
925.94	226.82
926.24	226.88
926.55	226.86
926.85	226.86
927.15	226.87
927.45	226.87
927.75	226.89
928.05	226.87
928.35	226.84
928.65	226.87
928.95	226.84
929.26	226.80
929.56	226.78
929.86	226.81
930.16	226.83
930.46	226.83
930.76	226.82
931.06	226.78
931.36	226.74
931.66	226.75
931.96	226.74
932.26	226.73
932.56	226.66
932.86	226.66
933.16	226.63
933.46	226.63
933.76	226.61
934.06	226.60
934.36	226.63
934.66	226.62
934.96	226.56
935.26	226.60
935.56	226.60
935.86	226.61
936.16	226.55
936.46	226.51
936.76	226.53
937.06	226.50
937.36	226.50
937.66	226.49
937.96	226.47
938.26	226.46
938.56	226.47
938.86	226.49
939.16	226.53
939.46	226.58
939.76	226.54
940.06	226.51
940.35	226.49
940.65	226.45
940.95	226.51
941.25	226.52
941.55	226.53
941.85	226.57
942.15	226.58
942.45	226.64
942.75	226.66
943.04	226.62
943.34	226.67
943.64	226.66
943.94	226.68
944.24	226.70
944.54	226.74
944.84	226.71
945.13	226.67
945.43	226.62
945.73	226.61
946.03	226.65
946.33	226.67
946.62	226.68
946.92	226.69
947.22	226.66
947.52	226.67
947.82	226.65
948.11	226.65
948.41	226.64
948.71	226.60
949.01	226.63
949.31	226.64
949.60	226.64
949.90	226.68
950.20	226.66
950.50	226.67
950.79	226.67
951.09	226.72
951.39	226.73
951.69	226.74
951.98	226.77
952.28	226.77
952.58	226.78
952.87	226.78
953.17	226.78
953.47	226.79
953.76	226.78
954.06	226.77
954.36	226.74
954.66	226.75
954.95	226.77
955.25	226.79
955.55	226.77
955.84	226.73
956.14	226.70
956.44	226.75
956.73	226.67
957.03	226.68
957.32	226.71
957.62	226.72
957.92	226.74
958.21	226.72
958.51	226.81
958.81	226.80
959.10	226.81
959.40	226.85
959.69	226.84
959.99	226.87
960.29	226.89
960.58	226.86
960.88	226.90
961.17	226.89
961.47	226.88
961.76	226.89
962.06	226.89
962.36	226.88
962.65	226.87
962.95	226.92
963.24	226.86
963.54	226.84
963.83	226.84
964.13	226.81
964.42	226.80
964.72	226.74
965.01	226.74
965.31	226.71
965.60	226.69
965.90	226.73
966.19	226.70
966.49	226.68
966.78	226.70
967.08	226.71
967.37	226.70
967.67	226.70
967.96	226.70
968.26	226.74
968.55	226.74
968.85	226.73
969.14	226.73
969.43	226.76
969.73	226.76
970.02	226.75
970.32	226.79
970.61	226.78
970.91	226.74
971.20	226.73
971.49	226.71
971.79	226.73
972.08	226.65
972.38	226.64
972.67	226.65
972.96	226.67
973.26	226.64
973.55	226.69
973.85	226.66
974.14	226.64
974.43	226.64
974.73	226.62
975.02	226.61
975.31	226.61
975.61	226.62
975.90	226.59
976.19	226.56
976.49	226.54
976.78	226.56
977.07	226.57
977.37	226.57
977.66	226.61
977.95	226.56
978.24	226.62
978.54	226.64
978.83	226.61
979.12	226.62
979.42	226.60
979.71	226.56
980.00	226.58
980.29	226.57
980.59	226.52
980.88	226.57
981.17	226.58
981.46	226.57
981.76	226.55
982.05	226.59
982.34	226.63
982.63	226.64
982.93	226.64
983.22	226.64
983.51	226.66
983.80	226.65
984.09	226.68
984.39	226.65
984.68	226.64
984.97	226.64
985.26	226.61
985.55	226.64
985.85	226.61
986.14	226.62
986.43	226.66
986.72	226.68
987.01	226.64
987.30	226.62
987.59	226.59
987.89	226.61
988.18	226.57
988.47	226.53
988.76	226.50
989.05	226.50
989.34	226.49
989.63	226.51
989.92	226.48
990.22	226.46
990.51	226.46
990.80	226.47
991.09	226.49
991.38	226.51
991.67	226.50
991.96	226.49
992.25	226.52
992.54	226.50
992.83	226.51
993.12	226.50
993.41	226.54
993.70	226.56
993.99	226.56
994.28	226.57
994.58	226.60
994.87	226.62
995.16	226.61
995.45	226.61
995.74	226.57
996.03	226.60
996.32	226.62
996.61	226.64
996.90	226.62
997.19	226.62
997.48	226.61
997.77	226.61
998.06	226.64
998.34	226.60
998.63	226.58
998.92	226.59
999.21	226.62
999.50	226.60
999.79	226.63
1000.08	226.66
1000.37	226.65
1000.66	226.63
1000.95	226.63
1001.24	226.61
1001.53	226.60
1001.82	226.63
1002.11	226.59
1002.40	226.58
1002.68	226.61
1002.97	226.66
1003.26	226.66
1003.55	226.66
1003.84	226.65
1004.13	226.68
1004.42	226.69
1004.71	226.70
1004.99	226.70
1005.28	226.69
1005.57	226.71
1005.86	226.68
1006.15	226.64
1006.44	226.65
1006.72	226.68
1007.01	226.68
1007.30	226.71
1007.59	226.74
1007.88	226.73
1008.17	226.73
1008.45	226.71
1008.74	226.66
1009.03	226.61
1009.32	226.58
1009.60	226.58
1009.89	226.59
1010.18	226.53
1010.47	226.53
1010.76	226.53
1011.04	226.51
1011.33	226.52
1011.62	226.51
1011.91	226.53
1012.19	226.57
1012.48	226.56
1012.77	226.55
1013.05	226.58
1013.34	226.59
1013.63	226.57
1013.92	226.59
1014.20	226.60
1014.49	226.60
1014.78	226.61
1015.06	226.61
1015.35	226.62
1015.64	226.61
1015.92	226.61
1016.21	226.61
1016.50	226.61
1016.78	226.62
1017.07	226.64
1017.36	226.62
1017.64	226.60
1017.93	226.56
1018.22	226.54
1018.50	226.52
1018.79	226.49
1019.08	226.42
1019.36	226.44
1019.65	226.43
1019.93	226.44
1020.22	226.47
1020.51	226.53
1020.79	226.50
1021.08	226.55
1021.36	226.09
1021.65	226.02
1021.94	225.97
1022.22	227.07
1022.51	226.71
1022.79	226.92
1023.08	226.74
1023.36	227.67
1023.65	225.92
>>>>>End Processed Spectral Data<<<<<
