SpectraSuite Data File
++++++++++++++++++++++++++++++++++++
Date: Fri Feb 01 15:20:48 EST 2013
User: group
Dark Spectrum Present: No
Reference Spectrum Present: No
Number of Sampled Component Spectra: 1
Spectrometers: USB2E7196
Integration Time (usec): 35000 (USB2E7196)
Spectra Averaged: 100 (USB2E7196)
Boxcar Smoothing: 10 (USB2E7196)
Correct for Electrical Dark: No (USB2E7196)
Strobe/Lamp Enabled: No (USB2E7196)
Correct for Detector Non-linearity: No (USB2E7196)
Correct for Stray Light: No (USB2E7196)
Number of Pixels in Processed Spectrum: 2048
>>>>>Begin Processed Spectral Data<<<<<
339.09	0.00
339.48	215.44
339.86	216.50
340.24	217.90
340.63	219.29
341.01	222.38
341.39	221.99
341.78	223.91
342.16	225.08
342.54	225.13
342.93	213.65
343.31	224.43
343.69	225.00
344.07	225.46
344.46	225.91
344.84	226.29
345.22	226.52
345.60	226.76
345.99	226.92
346.37	227.06
346.75	227.17
347.13	227.23
347.52	227.28
347.90	227.32
348.28	227.34
348.66	227.37
349.05	227.33
349.43	227.38
349.81	227.39
350.19	227.43
350.57	227.45
350.96	227.53
351.34	227.62
351.72	227.64
352.10	227.76
352.48	227.79
352.87	227.83
353.25	227.88
353.63	227.96
354.01	227.98
354.39	228.03
354.77	228.08
355.15	228.17
355.54	228.24
355.92	228.29
356.30	228.35
356.68	228.47
357.06	228.55
357.44	228.61
357.82	228.68
358.20	228.76
358.58	228.82
358.97	228.88
359.35	228.94
359.73	229.04
360.11	229.10
360.49	229.18
360.87	229.24
361.25	229.31
361.63	229.36
362.01	229.45
362.39	229.47
362.77	229.51
363.15	229.53
363.53	229.57
363.91	229.61
364.29	229.62
364.67	229.56
365.05	229.59
365.43	229.58
365.81	229.61
366.19	229.66
366.57	229.70
366.95	229.70
367.33	229.69
367.71	229.70
368.09	229.68
368.47	229.67
368.85	229.67
369.23	229.66
369.61	229.59
369.99	229.61
370.37	229.61
370.75	229.62
371.13	229.56
371.51	229.52
371.89	229.46
372.27	229.41
372.65	229.35
373.03	229.29
373.41	229.22
373.78	229.14
374.16	229.01
374.54	228.93
374.92	228.86
375.30	228.75
375.68	228.65
376.06	228.59
376.44	228.50
376.82	228.40
377.19	228.32
377.57	228.25
377.95	228.11
378.33	228.02
378.71	227.88
379.09	227.82
379.47	227.73
379.84	227.66
380.22	227.61
380.60	227.51
380.98	227.46
381.36	227.41
381.73	227.30
382.11	227.27
382.49	227.21
382.87	227.13
383.25	227.12
383.62	227.15
384.00	227.07
384.38	227.02
384.76	227.00
385.13	226.94
385.51	226.91
385.89	226.87
386.27	226.84
386.64	226.82
387.02	226.78
387.40	226.76
387.78	226.73
388.15	226.68
388.53	226.70
388.91	226.63
389.29	226.59
389.66	226.60
390.04	226.54
390.42	226.55
390.79	226.52
391.17	226.47
391.55	226.33
391.92	226.32
392.30	226.35
392.68	226.35
393.05	226.37
393.43	226.40
393.81	226.44
394.18	226.40
394.56	226.43
394.94	226.49
395.31	226.50
395.69	226.58
396.06	226.63
396.44	226.64
396.82	226.70
397.19	226.81
397.57	226.86
397.95	226.95
398.32	226.93
398.70	227.01
399.07	227.12
399.45	227.23
399.82	227.28
400.20	227.36
400.58	227.39
400.95	227.45
401.33	227.54
401.70	227.65
402.08	227.78
402.45	227.88
402.83	227.97
403.20	228.08
403.58	228.16
403.95	228.30
404.33	228.44
404.71	228.56
405.08	228.72
405.46	228.86
405.83	229.00
406.21	229.20
406.58	229.37
406.96	229.53
407.33	229.70
407.70	229.89
408.08	230.13
408.45	230.38
408.83	230.62
409.20	230.84
409.58	231.04
409.95	231.29
410.33	231.54
410.70	231.80
411.08	232.10
411.45	232.44
411.82	232.71
412.20	233.07
412.57	233.52
412.95	233.80
413.32	234.22
413.69	234.63
414.07	235.06
414.44	235.56
414.82	236.06
415.19	236.58
415.56	237.14
415.94	237.67
416.31	238.30
416.68	238.94
417.06	239.64
417.43	240.33
417.81	241.11
418.18	241.91
418.55	242.72
418.93	243.59
419.30	244.44
419.67	245.39
420.04	246.36
420.42	247.29
420.79	248.50
421.16	249.63
421.54	250.82
421.91	252.03
422.28	253.26
422.66	254.56
423.03	255.89
423.40	257.21
423.77	258.60
424.15	260.02
424.52	261.52
424.89	263.14
425.26	264.70
425.64	266.15
426.01	267.72
426.38	269.41
426.75	271.08
427.13	272.83
427.50	274.63
427.87	276.51
428.24	278.39
428.61	280.13
428.99	282.04
429.36	284.15
429.73	286.19
430.10	288.20
430.47	290.26
430.85	292.39
431.22	294.64
431.59	297.03
431.96	299.28
432.33	301.78
432.70	304.16
433.08	306.96
433.45	309.57
433.82	312.19
434.19	315.10
434.56	317.93
434.93	320.57
435.30	323.18
435.68	326.08
436.05	328.96
436.42	331.72
436.79	334.28
437.16	337.00
437.53	339.88
437.90	342.70
438.27	345.48
438.64	348.34
439.01	350.98
439.38	353.23
439.75	355.37
440.13	357.80
440.50	360.12
440.87	362.00
441.24	363.97
441.61	366.12
441.98	367.60
442.35	369.41
442.72	371.28
443.09	373.08
443.46	374.02
443.83	374.56
444.20	375.09
444.57	375.98
444.94	376.27
445.31	376.58
445.68	376.95
446.05	377.01
446.42	376.60
446.79	376.15
447.16	375.71
447.53	375.41
447.90	374.33
448.27	373.14
448.64	371.58
449.01	370.44
449.37	368.50
449.74	366.60
450.11	364.34
450.48	361.86
450.85	359.39
451.22	357.27
451.59	355.27
451.96	353.36
452.33	350.74
452.70	348.38
453.07	345.53
453.43	342.63
453.80	339.88
454.17	337.21
454.54	334.67
454.91	331.99
455.28	329.34
455.65	326.82
456.02	324.41
456.38	322.20
456.75	319.56
457.12	317.26
457.49	315.05
457.86	312.89
458.23	311.09
458.59	309.01
458.96	306.95
459.33	305.08
459.70	303.23
460.07	301.70
460.43	299.96
460.80	298.35
461.17	296.96
461.54	295.47
461.91	294.01
462.27	292.54
462.64	291.25
463.01	289.89
463.38	288.57
463.74	287.23
464.11	286.09
464.48	285.06
464.85	283.98
465.21	283.08
465.58	282.12
465.95	280.99
466.32	280.06
466.68	279.14
467.05	278.25
467.42	277.31
467.78	276.33
468.15	275.48
468.52	274.80
468.88	273.85
469.25	273.02
469.62	272.41
469.98	271.72
470.35	271.10
470.72	270.48
471.08	269.85
471.45	269.22
471.82	268.65
472.18	268.01
472.55	267.54
472.92	267.00
473.28	266.51
473.65	266.05
474.02	265.63
474.38	265.24
474.75	264.87
475.11	264.53
475.48	264.28
475.85	264.04
476.21	263.80
476.58	263.63
476.94	263.48
477.31	263.31
477.67	263.17
478.04	263.02
478.41	262.96
478.77	263.01
479.14	262.94
479.50	262.96
479.87	263.03
480.23	263.13
480.60	263.18
480.96	263.31
481.33	263.51
481.69	263.69
482.06	263.87
482.42	264.09
482.79	264.36
483.15	264.68
483.52	265.04
483.88	265.39
484.25	265.79
484.61	266.22
484.98	266.67
485.34	267.23
485.71	267.87
486.07	268.49
486.44	269.03
486.80	269.76
487.17	270.49
487.53	271.33
487.90	272.16
488.26	273.09
488.62	274.08
488.99	275.03
489.35	276.03
489.72	277.20
490.08	278.43
490.44	279.64
490.81	280.97
491.17	282.31
491.54	283.79
491.90	285.31
492.26	286.96
492.63	288.68
492.99	290.45
493.36	292.32
493.72	294.34
494.08	296.47
494.45	298.75
494.81	301.12
495.17	303.57
495.54	306.10
495.90	308.85
496.26	311.69
496.63	314.70
496.99	317.80
497.35	321.05
497.72	324.47
498.08	328.01
498.44	331.64
498.80	335.59
499.17	339.63
499.53	343.84
499.89	348.21
500.26	352.72
500.62	357.39
500.98	362.34
501.34	367.41
501.71	372.73
502.07	378.11
502.43	383.72
502.79	389.55
503.16	395.65
503.52	401.93
503.88	408.33
504.24	414.96
504.60	421.88
504.97	429.02
505.33	436.28
505.69	443.94
506.05	451.75
506.41	459.65
506.78	467.79
507.14	476.19
507.50	484.89
507.86	493.94
508.22	503.15
508.59	512.32
508.95	521.90
509.31	531.71
509.67	541.88
510.03	552.21
510.39	562.72
510.75	573.57
511.12	584.47
511.48	595.71
511.84	607.12
512.20	618.72
512.56	630.64
512.92	642.81
513.28	655.19
513.64	667.74
514.00	680.44
514.37	693.33
514.73	706.45
515.09	719.51
515.45	732.75
515.81	746.29
516.17	760.29
516.53	774.46
516.89	788.61
517.25	802.77
517.61	817.25
517.97	831.75
518.33	846.15
518.69	860.99
519.05	876.11
519.41	891.32
519.77	906.78
520.13	922.23
520.49	937.69
520.85	953.13
521.21	968.79
521.57	985.07
521.93	1000.97
522.29	1017.39
522.65	1033.72
523.01	1050.07
523.37	1066.15
523.73	1082.41
524.09	1098.49
524.45	1114.79
524.81	1131.52
525.17	1148.38
525.53	1165.35
525.89	1182.33
526.25	1199.14
526.61	1215.52
526.97	1232.31
527.33	1248.79
527.68	1265.57
528.04	1282.13
528.40	1298.90
528.76	1316.09
529.12	1332.74
529.48	1349.57
529.84	1365.63
530.20	1382.29
530.56	1399.39
530.91	1416.91
531.27	1433.75
531.63	1450.36
531.99	1467.13
532.35	1483.14
532.71	1498.98
533.07	1515.26
533.42	1531.19
533.78	1547.28
534.14	1563.61
534.50	1578.97
534.86	1595.00
535.21	1610.12
535.57	1626.12
535.93	1641.58
536.29	1656.38
536.65	1671.47
537.00	1686.49
537.36	1701.94
537.72	1716.48
538.08	1730.90
538.44	1744.72
538.79	1758.70
539.15	1772.48
539.51	1786.29
539.87	1800.62
540.22	1814.48
540.58	1828.38
540.94	1841.84
541.29	1854.89
541.65	1867.73
542.01	1881.21
542.37	1893.55
542.72	1906.06
543.08	1917.81
543.44	1930.32
543.79	1941.63
544.15	1952.71
544.51	1964.19
544.87	1975.19
545.22	1986.16
545.58	1996.36
545.94	2006.24
546.29	2016.12
546.65	2025.91
547.01	2035.12
547.36	2044.06
547.72	2052.65
548.07	2060.45
548.43	2068.57
548.79	2076.64
549.14	2084.20
549.50	2091.53
549.86	2099.27
550.21	2106.79
550.57	2113.91
550.92	2120.51
551.28	2127.67
551.64	2134.74
551.99	2141.40
552.35	2147.45
552.70	2153.46
553.06	2159.38
553.41	2165.58
553.77	2171.57
554.13	2177.67
554.48	2183.77
554.84	2189.07
555.19	2194.30
555.55	2199.41
555.90	2203.81
556.26	2208.59
556.61	2213.29
556.97	2217.29
557.32	2221.27
557.68	2225.18
558.03	2229.53
558.39	2233.19
558.74	2237.72
559.10	2241.52
559.45	2245.07
559.81	2249.54
560.16	2253.30
560.52	2256.71
560.87	2260.15
561.23	2262.70
561.58	2265.59
561.94	2268.23
562.29	2270.70
562.64	2273.29
563.00	2275.88
563.35	2279.50
563.71	2282.63
564.06	2285.76
564.42	2288.62
564.77	2291.15
565.12	2293.38
565.48	2295.17
565.83	2296.99
566.19	2298.23
566.54	2299.16
566.89	2300.33
567.25	2300.78
567.60	2302.17
567.96	2303.66
568.31	2304.48
568.66	2305.60
569.02	2306.22
569.37	2306.36
569.72	2306.95
570.08	2307.05
570.43	2306.98
570.78	2306.34
571.14	2304.74
571.49	2303.42
571.84	2303.14
572.20	2302.00
572.55	2300.80
572.90	2299.37
573.26	2297.92
573.61	2296.10
573.96	2294.27
574.31	2291.11
574.67	2287.94
575.02	2284.19
575.37	2280.81
575.72	2276.93
576.08	2273.68
576.43	2270.26
576.78	2266.54
577.13	2263.47
577.49	2260.36
577.84	2256.91
578.19	2253.03
578.54	2249.29
578.90	2244.87
579.25	2239.38
579.60	2234.26
579.95	2229.32
580.30	2224.18
580.66	2218.95
581.01	2213.97
581.36	2208.96
581.71	2204.74
582.06	2200.29
582.42	2195.80
582.77	2190.49
583.12	2185.81
583.47	2180.81
583.82	2175.65
584.17	2170.37
584.53	2164.72
584.88	2158.98
585.23	2153.05
585.58	2147.42
585.93	2141.90
586.28	2137.14
586.63	2131.87
586.98	2126.74
587.34	2121.90
587.69	2116.99
588.04	2111.67
588.39	2106.00
588.74	2099.38
589.09	2093.20
589.44	2086.33
589.79	2080.26
590.14	2074.52
590.49	2067.97
590.84	2061.52
591.19	2055.45
591.54	2048.99
591.89	2041.46
592.25	2034.56
592.60	2027.31
592.95	2019.66
593.30	2012.36
593.65	2004.68
594.00	1997.70
594.35	1990.46
594.70	1982.42
595.05	1974.97
595.40	1967.64
595.75	1960.03
596.10	1953.74
596.45	1946.90
596.80	1940.62
597.15	1933.80
597.50	1926.64
597.85	1920.14
598.19	1913.55
598.54	1906.40
598.89	1899.72
599.24	1893.86
599.59	1887.12
599.94	1880.88
600.29	1874.52
600.64	1867.80
600.99	1860.27
601.34	1853.22
601.69	1846.21
602.04	1839.25
602.39	1832.00
602.74	1824.98
603.08	1818.33
603.43	1811.69
603.78	1804.37
604.13	1797.20
604.48	1789.94
604.83	1783.16
605.18	1776.09
605.53	1768.01
605.87	1759.97
606.22	1752.61
606.57	1744.70
606.92	1737.45
607.27	1730.23
607.62	1723.34
607.96	1716.05
608.31	1709.38
608.66	1701.72
609.01	1694.13
609.36	1686.56
609.70	1678.53
610.05	1670.49
610.40	1662.66
610.75	1654.28
611.10	1646.59
611.44	1638.18
611.79	1630.08
612.14	1621.23
612.49	1612.15
612.83	1603.77
613.18	1595.65
613.53	1587.51
613.88	1578.87
614.22	1570.59
614.57	1561.97
614.92	1553.82
615.27	1546.21
615.61	1537.93
615.96	1530.01
616.31	1522.38
616.65	1515.04
617.00	1507.48
617.35	1499.79
617.70	1491.30
618.04	1482.69
618.39	1474.43
618.74	1466.85
619.08	1458.57
619.43	1451.07
619.78	1444.09
620.12	1436.92
620.47	1429.38
620.82	1421.30
621.16	1413.93
621.51	1406.25
621.85	1398.68
622.20	1390.28
622.55	1381.97
622.89	1374.07
623.24	1366.47
623.59	1359.16
623.93	1351.63
624.28	1344.30
624.62	1336.73
624.97	1329.65
625.32	1323.00
625.66	1316.04
626.01	1308.82
626.35	1301.36
626.70	1293.63
627.04	1285.95
627.39	1278.19
627.73	1270.80
628.08	1263.81
628.43	1256.46
628.77	1248.99
629.12	1241.43
629.46	1234.24
629.81	1226.83
630.15	1219.61
630.50	1212.14
630.84	1203.87
631.19	1196.02
631.53	1188.61
631.88	1181.17
632.22	1173.65
632.57	1166.33
632.91	1158.75
633.26	1151.32
633.60	1144.05
633.95	1137.04
634.29	1130.05
634.64	1123.33
634.98	1115.85
635.32	1108.77
635.67	1102.36
636.01	1095.77
636.36	1088.99
636.70	1082.56
637.05	1076.00
637.39	1069.59
637.73	1063.01
638.08	1057.10
638.42	1051.02
638.77	1044.44
639.11	1037.89
639.45	1031.49
639.80	1024.73
640.14	1018.35
640.49	1011.89
640.83	1005.66
641.17	999.35
641.52	993.00
641.86	986.54
642.20	980.77
642.55	974.63
642.89	967.94
643.23	961.45
643.58	955.62
643.92	949.35
644.26	943.29
644.61	937.28
644.95	931.26
645.29	924.71
645.64	918.00
645.98	911.74
646.32	905.91
646.66	899.93
647.01	894.25
647.35	888.52
647.69	882.70
648.04	877.11
648.38	871.24
648.72	865.15
649.06	859.13
649.41	853.22
649.75	847.07
650.09	841.22
650.43	835.39
650.78	829.16
651.12	823.12
651.46	817.31
651.80	811.51
652.14	806.17
652.49	800.82
652.83	795.63
653.17	789.94
653.51	784.14
653.85	778.73
654.20	773.09
654.54	767.13
654.88	761.32
655.22	755.41
655.56	749.72
655.90	744.25
656.25	738.99
656.59	733.66
656.93	728.53
657.27	723.33
657.61	717.91
657.95	712.96
658.29	707.96
658.64	702.77
658.98	697.52
659.32	692.08
659.66	686.84
660.00	681.54
660.34	676.63
660.68	671.77
661.02	666.69
661.36	661.94
661.70	657.41
662.05	653.07
662.39	648.81
662.73	644.47
663.07	640.14
663.41	635.71
663.75	631.26
664.09	626.74
664.43	622.41
664.77	618.30
665.11	614.01
665.45	609.91
665.79	605.85
666.13	601.66
666.47	597.56
666.81	593.43
667.15	589.36
667.49	585.54
667.83	581.77
668.17	577.88
668.51	573.90
668.85	569.91
669.19	566.09
669.53	562.21
669.87	558.29
670.21	554.59
670.55	550.99
670.89	547.58
671.23	544.13
671.57	540.64
671.91	537.11
672.25	533.64
672.58	530.13
672.92	526.75
673.26	523.69
673.60	520.58
673.94	517.48
674.28	514.55
674.62	511.54
674.96	508.41
675.30	505.46
675.64	502.48
675.97	499.75
676.31	496.94
676.65	494.03
676.99	491.35
677.33	488.58
677.67	485.80
678.01	482.73
678.34	479.80
678.68	476.95
679.02	474.14
679.36	471.35
679.70	468.67
680.04	465.94
680.37	463.04
680.71	460.24
681.05	457.64
681.39	454.91
681.73	452.32
682.06	449.86
682.40	447.35
682.74	444.93
683.08	442.40
683.42	439.79
683.75	437.28
684.09	434.73
684.43	432.22
684.77	429.75
685.10	427.42
685.44	425.11
685.78	422.84
686.12	420.67
686.45	418.44
686.79	416.12
687.13	413.93
687.46	411.80
687.80	409.67
688.14	407.51
688.48	405.53
688.81	403.22
689.15	401.05
689.49	398.91
689.82	396.73
690.16	394.59
690.50	392.61
690.83	390.68
691.17	388.72
691.51	386.86
691.84	385.00
692.18	383.08
692.52	381.14
692.85	379.20
693.19	377.26
693.52	375.41
693.86	373.60
694.20	371.78
694.53	369.97
694.87	368.15
695.21	366.37
695.54	364.53
695.88	362.84
696.21	361.08
696.55	359.36
696.88	357.73
697.22	356.11
697.56	354.50
697.89	352.86
698.23	351.23
698.56	349.58
698.90	347.99
699.23	346.34
699.57	344.79
699.90	343.23
700.24	341.70
700.58	340.18
700.91	338.70
701.25	337.24
701.58	335.86
701.92	334.46
702.25	333.03
702.59	331.62
702.92	330.31
703.26	329.01
703.59	327.77
703.93	326.57
704.26	325.32
704.60	324.00
704.93	322.70
705.26	321.48
705.60	320.34
705.93	319.16
706.27	318.17
706.60	317.11
706.94	316.04
707.27	314.95
707.61	313.91
707.94	312.91
708.27	311.84
708.61	310.73
708.94	309.76
709.28	308.78
709.61	307.85
709.94	306.91
710.28	305.90
710.61	304.92
710.95	303.86
711.28	302.95
711.61	302.03
711.95	301.16
712.28	300.21
712.61	299.23
712.95	298.32
713.28	297.41
713.61	296.52
713.95	295.63
714.28	294.79
714.61	293.90
714.95	293.05
715.28	292.21
715.61	291.39
715.95	290.53
716.28	289.67
716.61	288.87
716.95	288.05
717.28	287.33
717.61	286.55
717.94	285.81
718.28	285.03
718.61	284.31
718.94	283.60
719.27	282.97
719.61	282.34
719.94	281.70
720.27	281.03
720.60	280.36
720.94	279.75
721.27	279.13
721.60	278.60
721.93	278.00
722.27	277.47
722.60	276.90
722.93	276.32
723.26	275.82
723.59	275.22
723.93	274.69
724.26	274.14
724.59	273.58
724.92	273.06
725.25	272.57
725.59	272.06
725.92	271.52
726.25	270.99
726.58	270.47
726.91	269.95
727.24	269.41
727.57	268.95
727.91	268.44
728.24	267.97
728.57	267.49
728.90	267.05
729.23	266.54
729.56	266.13
729.89	265.67
730.22	265.17
730.55	264.72
730.89	264.26
731.22	263.78
731.55	263.34
731.88	262.93
732.21	262.50
732.54	262.07
732.87	261.70
733.20	261.30
733.53	260.92
733.86	260.52
734.19	260.15
734.52	259.78
734.85	259.47
735.18	259.04
735.51	258.67
735.84	258.28
736.17	257.93
736.50	257.49
736.83	257.24
737.16	256.91
737.49	256.59
737.82	256.20
738.15	255.89
738.48	255.56
738.81	255.23
739.14	254.88
739.47	254.55
739.80	254.19
740.13	253.92
740.46	253.57
740.79	253.27
741.12	252.95
741.45	252.62
741.78	252.28
742.11	251.99
742.44	251.69
742.77	251.37
743.10	251.03
743.43	250.72
743.75	250.36
744.08	250.19
744.41	249.88
744.74	249.67
745.07	249.37
745.40	249.12
745.73	248.86
746.06	248.57
746.39	248.29
746.71	248.04
747.04	247.72
747.37	247.47
747.70	247.22
748.03	246.99
748.36	246.76
748.68	246.51
749.01	246.28
749.34	246.03
749.67	245.79
750.00	245.59
750.33	245.46
750.65	245.23
750.98	244.90
751.31	244.69
751.64	244.44
751.97	244.30
752.29	244.08
752.62	243.82
752.95	243.63
753.28	243.46
753.60	243.25
753.93	243.08
754.26	242.89
754.59	242.69
754.91	242.47
755.24	242.27
755.57	242.06
755.90	241.88
756.22	241.71
756.55	241.55
756.88	241.39
757.20	241.16
757.53	240.98
757.86	240.83
758.19	240.69
758.51	240.57
758.84	240.38
759.17	240.22
759.49	240.11
759.82	239.97
760.15	239.82
760.47	239.68
760.80	239.52
761.13	239.40
761.45	239.27
761.78	239.16
762.11	239.03
762.43	238.89
762.76	238.76
763.08	238.62
763.41	238.50
763.74	238.36
764.06	238.24
764.39	238.09
764.71	237.97
765.04	237.82
765.37	237.68
765.69	237.55
766.02	237.43
766.34	237.29
766.67	237.20
767.00	237.11
767.32	237.05
767.65	237.00
767.97	236.90
768.30	236.77
768.62	236.67
768.95	236.54
769.27	236.44
769.60	236.35
769.92	236.22
770.25	236.09
770.57	236.00
770.90	235.89
771.22	235.82
771.55	235.70
771.87	235.58
772.20	235.49
772.52	235.49
772.85	235.50
773.17	235.40
773.50	235.27
773.82	235.15
774.15	235.03
774.47	234.89
774.80	234.81
775.12	234.71
775.45	234.61
775.77	234.52
776.09	234.44
776.42	234.37
776.74	234.33
777.07	234.26
777.39	234.17
777.72	234.07
778.04	233.98
778.36	233.90
778.69	233.87
779.01	233.79
779.33	233.64
779.66	233.46
779.98	233.36
780.31	233.30
780.63	233.26
780.95	233.17
781.28	233.11
781.60	233.02
781.92	232.94
782.25	232.85
782.57	232.83
782.89	232.75
783.22	232.67
783.54	232.56
783.86	232.50
784.19	232.42
784.51	232.38
784.83	232.31
785.16	232.25
785.48	232.15
785.80	232.08
786.12	232.00
786.45	231.96
786.77	231.95
787.09	231.86
787.42	231.77
787.74	231.74
788.06	231.67
788.38	231.60
788.71	231.60
789.03	231.55
789.35	231.49
789.67	231.42
789.99	231.37
790.32	231.31
790.64	231.27
790.96	231.32
791.28	231.26
791.61	231.20
791.93	231.15
792.25	231.14
792.57	231.15
792.89	231.07
793.21	231.03
793.54	230.95
793.86	230.93
794.18	230.91
794.50	230.86
794.82	230.80
795.14	230.76
795.47	230.70
795.79	230.68
796.11	230.62
796.43	230.61
796.75	230.59
797.07	230.57
797.39	230.53
797.71	230.41
798.04	230.37
798.36	230.36
798.68	230.35
799.00	230.35
799.32	230.31
799.64	230.35
799.96	230.31
800.28	230.33
800.60	230.27
800.92	230.25
801.24	230.21
801.56	230.19
801.89	230.19
802.21	230.19
802.53	230.15
802.85	230.16
803.17	230.20
803.49	230.16
803.81	230.15
804.13	230.14
804.45	230.15
804.77	230.16
805.09	230.17
805.41	230.14
805.73	230.07
806.05	229.98
806.37	229.94
806.69	229.96
807.01	229.92
807.33	229.92
807.65	229.85
807.97	229.89
808.28	229.86
808.60	229.84
808.92	229.81
809.24	229.85
809.56	229.80
809.88	229.74
810.20	229.73
810.52	229.71
810.84	229.66
811.16	229.61
811.48	229.55
811.80	229.53
812.12	229.50
812.43	229.50
812.75	229.49
813.07	229.45
813.39	229.40
813.71	229.37
814.03	229.37
814.35	229.40
814.67	229.33
814.98	229.32
815.30	229.28
815.62	229.24
815.94	229.18
816.26	229.22
816.58	229.18
816.89	229.18
817.21	229.15
817.53	229.11
817.85	229.10
818.17	229.08
818.48	229.03
818.80	229.06
819.12	229.01
819.44	229.03
819.76	228.99
820.07	229.01
820.39	229.01
820.71	228.95
821.03	228.93
821.34	228.91
821.66	228.91
821.98	228.91
822.30	228.88
822.61	228.86
822.93	228.79
823.25	228.79
823.57	228.72
823.88	228.72
824.20	228.73
824.52	228.72
824.83	228.71
825.15	228.66
825.47	228.62
825.79	228.63
826.10	228.57
826.42	228.56
826.74	228.50
827.05	228.47
827.37	228.48
827.69	228.46
828.00	228.43
828.32	228.40
828.64	228.38
828.95	228.39
829.27	228.38
829.58	228.37
829.90	228.35
830.22	228.36
830.53	228.32
830.85	228.31
831.17	228.31
831.48	228.27
831.80	228.27
832.11	228.24
832.43	228.24
832.75	228.25
833.06	228.31
833.38	228.30
833.69	228.27
834.01	228.25
834.32	228.22
834.64	228.22
834.96	228.21
835.27	228.19
835.59	228.17
835.90	228.16
836.22	228.17
836.53	228.14
836.85	228.13
837.16	228.22
837.48	228.20
837.79	228.23
838.11	228.25
838.42	228.24
838.74	228.25
839.05	228.23
839.37	228.20
839.68	228.12
840.00	228.10
840.31	228.13
840.63	228.14
840.94	228.09
841.26	228.02
841.57	228.04
841.88	228.04
842.20	228.03
842.51	227.99
842.83	227.99
843.14	228.07
843.46	228.05
843.77	228.02
844.08	228.01
844.40	227.94
844.71	227.91
845.03	227.92
845.34	227.92
845.65	227.92
845.97	227.93
846.28	227.94
846.60	227.95
846.91	227.92
847.22	227.91
847.54	227.95
847.85	228.01
848.16	227.99
848.48	227.98
848.79	228.03
849.10	228.07
849.42	228.09
849.73	228.01
850.04	227.99
850.36	227.91
850.67	227.94
850.98	227.95
851.30	227.97
851.61	227.99
851.92	227.95
852.23	227.98
852.55	227.96
852.86	227.96
853.17	227.95
853.49	227.98
853.80	227.99
854.11	228.00
854.42	228.04
854.74	228.00
855.05	228.02
855.36	227.97
855.67	227.98
855.99	227.97
856.30	228.05
856.61	228.09
856.92	228.11
857.23	228.08
857.55	228.03
857.86	228.04
858.17	228.02
858.48	228.02
858.79	228.01
859.11	228.04
859.42	228.03
859.73	228.00
860.04	227.98
860.35	227.97
860.66	227.94
860.98	227.90
861.29	227.92
861.60	227.89
861.91	227.87
862.22	227.81
862.53	227.77
862.84	227.68
863.16	227.67
863.47	227.63
863.78	227.63
864.09	227.65
864.40	227.65
864.71	227.61
865.02	227.60
865.33	227.59
865.64	227.55
865.95	227.53
866.27	227.60
866.58	227.59
866.89	227.59
867.20	227.57
867.51	227.57
867.82	227.56
868.13	227.62
868.44	227.60
868.75	227.64
869.06	227.64
869.37	227.64
869.68	227.61
869.99	227.62
870.30	227.68
870.61	227.67
870.92	227.68
871.23	227.68
871.54	227.70
871.85	227.70
872.16	227.72
872.47	227.75
872.78	227.69
873.09	227.68
873.40	227.65
873.71	227.65
874.02	227.64
874.33	227.65
874.64	227.57
874.95	227.59
875.26	227.55
875.56	227.53
875.87	227.52
876.18	227.51
876.49	227.58
876.80	227.52
877.11	227.51
877.42	227.51
877.73	227.52
878.04	227.49
878.35	227.50
878.66	227.48
878.96	227.46
879.27	227.46
879.58	227.46
879.89	227.45
880.20	227.51
880.51	227.50
880.82	227.48
881.12	227.50
881.43	227.48
881.74	227.48
882.05	227.52
882.36	227.54
882.67	227.56
882.97	227.47
883.28	227.49
883.59	227.47
883.90	227.46
884.21	227.50
884.51	227.50
884.82	227.47
885.13	227.48
885.44	227.46
885.74	227.45
886.05	227.47
886.36	227.48
886.67	227.45
886.98	227.50
887.28	227.51
887.59	227.50
887.90	227.51
888.20	227.50
888.51	227.51
888.82	227.48
889.13	227.48
889.43	227.60
889.74	227.59
890.05	227.65
890.35	227.62
890.66	227.60
890.97	227.61
891.28	227.61
891.58	227.62
891.89	227.61
892.20	227.65
892.50	227.68
892.81	227.68
893.12	227.67
893.42	227.61
893.73	227.62
894.04	227.60
894.34	227.62
894.65	227.61
894.95	227.57
895.26	227.56
895.57	227.62
895.87	227.49
896.18	227.52
896.48	227.47
896.79	227.48
897.10	227.45
897.40	227.45
897.71	227.47
898.01	227.47
898.32	227.49
898.63	227.45
898.93	227.41
899.24	227.43
899.54	227.39
899.85	227.40
900.15	227.40
900.46	227.40
900.76	227.41
901.07	227.39
901.38	227.38
901.68	227.42
901.99	227.35
902.29	227.36
902.60	227.30
902.90	227.31
903.21	227.33
903.51	227.35
903.82	227.40
904.12	227.40
904.43	227.42
904.73	227.43
905.03	227.46
905.34	227.54
905.64	227.52
905.95	227.56
906.25	227.53
906.56	227.51
906.86	227.53
907.17	227.52
907.47	227.54
907.77	227.59
908.08	227.59
908.38	227.60
908.69	227.60
908.99	227.62
909.30	227.59
909.60	227.57
909.90	227.56
910.21	227.50
910.51	227.46
910.81	227.42
911.12	227.43
911.42	227.41
911.73	227.31
912.03	227.29
912.33	227.27
912.64	227.30
912.94	227.31
913.24	227.31
913.55	227.29
913.85	227.30
914.15	227.31
914.46	227.28
914.76	227.25
915.06	227.25
915.37	227.27
915.67	227.28
915.97	227.29
916.27	227.30
916.58	227.30
916.88	227.29
917.18	227.31
917.49	227.36
917.79	227.36
918.09	227.39
918.39	227.44
918.70	227.44
919.00	227.43
919.30	227.47
919.60	227.45
919.91	227.46
920.21	227.46
920.51	227.45
920.81	227.44
921.12	227.48
921.42	227.50
921.72	227.50
922.02	227.51
922.32	227.51
922.63	227.49
922.93	227.54
923.23	227.57
923.53	227.54
923.83	227.49
924.13	227.51
924.44	227.50
924.74	227.49
925.04	227.51
925.34	227.52
925.64	227.48
925.94	227.48
926.24	227.54
926.55	227.53
926.85	227.51
927.15	227.55
927.45	227.56
927.75	227.54
928.05	227.55
928.35	227.55
928.65	227.57
928.95	227.57
929.26	227.57
929.56	227.55
929.86	227.58
930.16	227.53
930.46	227.51
930.76	227.51
931.06	227.45
931.36	227.42
931.66	227.43
931.96	227.46
932.26	227.48
932.56	227.40
932.86	227.37
933.16	227.39
933.46	227.37
933.76	227.36
934.06	227.36
934.36	227.40
934.66	227.39
934.96	227.35
935.26	227.38
935.56	227.35
935.86	227.36
936.16	227.36
936.46	227.38
936.76	227.38
937.06	227.34
937.36	227.37
937.66	227.37
937.96	227.40
938.26	227.33
938.56	227.31
938.86	227.36
939.16	227.41
939.46	227.40
939.76	227.39
940.06	227.34
940.35	227.30
940.65	227.24
940.95	227.24
941.25	227.26
941.55	227.25
941.85	227.25
942.15	227.30
942.45	227.34
942.75	227.34
943.04	227.34
943.34	227.40
943.64	227.40
943.94	227.38
944.24	227.35
944.54	227.36
944.84	227.34
945.13	227.28
945.43	227.29
945.73	227.27
946.03	227.27
946.33	227.29
946.62	227.32
946.92	227.32
947.22	227.32
947.52	227.32
947.82	227.31
948.11	227.28
948.41	227.23
948.71	227.19
949.01	227.19
949.31	227.20
949.60	227.17
949.90	227.19
950.20	227.18
950.50	227.17
950.79	227.19
951.09	227.20
951.39	227.20
951.69	227.15
951.98	227.17
952.28	227.18
952.58	227.15
952.87	227.13
953.17	227.14
953.47	227.15
953.76	227.14
954.06	227.15
954.36	227.15
954.66	227.15
954.95	227.16
955.25	227.17
955.55	227.17
955.84	227.14
956.14	227.16
956.44	227.19
956.73	227.16
957.03	227.17
957.32	227.17
957.62	227.18
957.92	227.20
958.21	227.20
958.51	227.28
958.81	227.29
959.10	227.33
959.40	227.34
959.69	227.32
959.99	227.30
960.29	227.25
960.58	227.22
960.88	227.24
961.17	227.21
961.47	227.18
961.76	227.16
962.06	227.19
962.36	227.14
962.65	227.11
962.95	227.11
963.24	227.08
963.54	227.08
963.83	227.06
964.13	227.07
964.42	227.03
964.72	226.93
965.01	226.93
965.31	226.89
965.60	226.87
965.90	226.91
966.19	226.92
966.49	226.97
966.78	226.99
967.08	226.97
967.37	226.97
967.67	226.96
967.96	226.98
968.26	226.93
968.55	226.97
968.85	226.96
969.14	226.95
969.43	226.96
969.73	226.95
970.02	226.98
970.32	226.96
970.61	226.99
970.91	226.97
971.20	226.96
971.49	226.96
971.79	226.97
972.08	226.92
972.38	226.91
972.67	226.92
972.96	226.91
973.26	226.86
973.55	226.88
973.85	226.89
974.14	226.87
974.43	226.89
974.73	226.87
975.02	226.88
975.31	226.89
975.61	226.86
975.90	226.86
976.19	226.81
976.49	226.82
976.78	226.82
977.07	226.83
977.37	226.84
977.66	226.87
977.95	226.83
978.24	226.84
978.54	226.87
978.83	226.83
979.12	226.85
979.42	226.91
979.71	226.94
980.00	226.97
980.29	226.97
980.59	226.98
980.88	226.98
981.17	226.98
981.46	226.98
981.76	227.02
982.05	227.04
982.34	227.09
982.63	227.12
982.93	227.12
983.22	227.16
983.51	227.19
983.80	227.20
984.09	227.26
984.39	227.26
984.68	227.26
984.97	227.25
985.26	227.26
985.55	227.25
985.85	227.24
986.14	227.26
986.43	227.29
986.72	227.28
987.01	227.27
987.30	227.29
987.59	227.29
987.89	227.26
988.18	227.24
988.47	227.23
988.76	227.23
989.05	227.19
989.34	227.19
989.63	227.21
989.92	227.20
990.22	227.18
990.51	227.16
990.80	227.15
991.09	227.19
991.38	227.20
991.67	227.17
991.96	227.15
992.25	227.12
992.54	227.09
992.83	227.08
993.12	227.08
993.41	227.09
993.70	227.14
993.99	227.18
994.28	227.21
994.58	227.24
994.87	227.22
995.16	227.23
995.45	227.22
995.74	227.18
996.03	227.15
996.32	227.15
996.61	227.17
996.90	227.16
997.19	227.13
997.48	227.11
997.77	227.11
998.06	227.10
998.34	227.12
998.63	227.12
998.92	227.15
999.21	227.17
999.50	227.16
999.79	227.13
1000.08	227.12
1000.37	227.12
1000.66	227.06
1000.95	227.08
1001.24	227.06
1001.53	227.03
1001.82	227.02
1002.11	227.02
1002.40	227.01
1002.68	227.05
1002.97	227.09
1003.26	227.08
1003.55	227.07
1003.84	227.07
1004.13	227.13
1004.42	227.09
1004.71	227.09
1004.99	227.07
1005.28	227.07
1005.57	227.06
1005.86	227.03
1006.15	227.03
1006.44	227.00
1006.72	227.03
1007.01	227.01
1007.30	227.02
1007.59	227.01
1007.88	227.01
1008.17	227.02
1008.45	227.00
1008.74	226.94
1009.03	226.90
1009.32	226.90
1009.60	226.90
1009.89	226.88
1010.18	226.82
1010.47	226.78
1010.76	226.81
1011.04	226.77
1011.33	226.78
1011.62	226.77
1011.91	226.79
1012.19	226.76
1012.48	226.79
1012.77	226.77
1013.05	226.79
1013.34	226.83
1013.63	226.85
1013.92	226.85
1014.20	226.84
1014.49	226.84
1014.78	226.88
1015.06	226.85
1015.35	226.88
1015.64	226.87
1015.92	226.88
1016.21	226.88
1016.50	226.93
1016.78	226.91
1017.07	226.92
1017.36	226.91
1017.64	226.92
1017.93	226.95
1018.22	226.95
1018.50	226.93
1018.79	226.92
1019.08	226.92
1019.36	226.93
1019.65	226.92
1019.93	226.96
1020.22	226.98
1020.51	227.03
1020.79	227.03
1021.08	226.70
1021.36	226.93
1021.65	226.92
1021.94	227.09
1022.22	227.64
1022.51	226.76
1022.79	227.58
1023.08	227.10
1023.36	227.88
1023.65	227.16
>>>>>End Processed Spectral Data<<<<<
