SpectraSuite Data File
++++++++++++++++++++++++++++++++++++
Date: Fri Feb 01 16:18:41 EST 2013
User: group
Dark Spectrum Present: No
Reference Spectrum Present: No
Number of Sampled Component Spectra: 1
Spectrometers: USB2E7196
Integration Time (usec): 35000 (USB2E7196)
Spectra Averaged: 100 (USB2E7196)
Boxcar Smoothing: 10 (USB2E7196)
Correct for Electrical Dark: No (USB2E7196)
Strobe/Lamp Enabled: No (USB2E7196)
Correct for Detector Non-linearity: No (USB2E7196)
Correct for Stray Light: No (USB2E7196)
Number of Pixels in Processed Spectrum: 2048
>>>>>Begin Processed Spectral Data<<<<<
339.09	0.00
339.48	213.33
339.86	215.53
340.24	217.19
340.63	217.89
341.01	220.74
341.39	221.15
341.78	222.28
342.16	223.47
342.54	223.36
342.93	212.12
343.31	222.84
343.69	223.40
344.07	223.85
344.46	224.23
344.84	224.61
345.22	224.85
345.60	225.07
345.99	225.23
346.37	225.33
346.75	225.44
347.13	225.51
347.52	225.51
347.90	225.59
348.28	225.66
348.66	225.74
349.05	225.74
349.43	225.79
349.81	225.84
350.19	225.94
350.57	225.99
350.96	226.06
351.34	226.14
351.72	226.24
352.10	226.35
352.48	226.43
352.87	226.50
353.25	226.57
353.63	226.64
354.01	226.73
354.39	226.85
354.77	226.96
355.15	227.05
355.54	227.17
355.92	227.26
356.30	227.33
356.68	227.46
357.06	227.59
357.44	227.65
357.82	227.72
358.20	227.80
358.58	227.86
358.97	227.94
359.35	228.00
359.73	228.09
360.11	228.16
360.49	228.24
360.87	228.29
361.25	228.39
361.63	228.49
362.01	228.55
362.39	228.55
362.77	228.62
363.15	228.66
363.53	228.68
363.91	228.72
364.29	228.74
364.67	228.67
365.05	228.70
365.43	228.72
365.81	228.74
366.19	228.78
366.57	228.82
366.95	228.82
367.33	228.85
367.71	228.83
368.09	228.84
368.47	228.83
368.85	228.83
369.23	228.80
369.61	228.74
369.99	228.75
370.37	228.75
370.75	228.73
371.13	228.68
371.51	228.62
371.89	228.55
372.27	228.53
372.65	228.51
373.03	228.43
373.41	228.39
373.78	228.34
374.16	228.23
374.54	228.14
374.92	228.07
375.30	227.98
375.68	227.85
376.06	227.81
376.44	227.72
376.82	227.66
377.19	227.53
377.57	227.45
377.95	227.36
378.33	227.30
378.71	227.16
379.09	227.10
379.47	227.08
379.84	227.01
380.22	226.93
380.60	226.83
380.98	226.73
381.36	226.62
381.73	226.55
382.11	226.51
382.49	226.46
382.87	226.38
383.25	226.33
383.62	226.42
384.00	226.30
384.38	226.23
384.76	226.20
385.13	226.20
385.51	226.16
385.89	226.07
386.27	226.02
386.64	225.98
387.02	225.95
387.40	225.88
387.78	225.82
388.15	225.76
388.53	225.71
388.91	225.71
389.29	225.70
389.66	225.70
390.04	225.65
390.42	225.64
390.79	225.62
391.17	225.61
391.55	225.50
391.92	225.52
392.30	225.55
392.68	225.53
393.05	225.52
393.43	225.53
393.81	225.56
394.18	225.56
394.56	225.59
394.94	225.61
395.31	225.61
395.69	225.69
396.06	225.74
396.44	225.79
396.82	225.81
397.19	225.90
397.57	225.90
397.95	225.99
398.32	226.03
398.70	226.10
399.07	226.18
399.45	226.22
399.82	226.28
400.20	226.34
400.58	226.38
400.95	226.44
401.33	226.49
401.70	226.62
402.08	226.72
402.45	226.82
402.83	226.93
403.20	227.04
403.58	227.12
403.95	227.26
404.33	227.38
404.71	227.53
405.08	227.69
405.46	227.83
405.83	227.95
406.21	228.08
406.58	228.26
406.96	228.40
407.33	228.60
407.70	228.77
408.08	229.01
408.45	229.21
408.83	229.47
409.20	229.73
409.58	229.90
409.95	230.16
410.33	230.42
410.70	230.68
411.08	230.98
411.45	231.25
411.82	231.52
412.20	231.87
412.57	232.29
412.95	232.57
413.32	233.00
413.69	233.40
414.07	233.83
414.44	234.31
414.82	234.80
415.19	235.33
415.56	235.89
415.94	236.44
416.31	237.05
416.68	237.65
417.06	238.34
417.43	239.03
417.81	239.78
418.18	240.55
418.55	241.35
418.93	242.24
419.30	243.15
419.67	244.07
420.04	245.03
420.42	245.97
420.79	247.17
421.16	248.28
421.54	249.46
421.91	250.67
422.28	251.89
422.66	253.17
423.03	254.47
423.40	255.80
423.77	257.19
424.15	258.60
424.52	260.07
424.89	261.72
425.26	263.27
425.64	264.71
426.01	266.31
426.38	267.96
426.75	269.63
427.13	271.36
427.50	273.19
427.87	275.04
428.24	276.93
428.61	278.65
428.99	280.58
429.36	282.67
429.73	284.72
430.10	286.74
430.47	288.83
430.85	290.90
431.22	293.13
431.59	295.52
431.96	297.82
432.33	300.29
432.70	302.62
433.08	305.42
433.45	308.06
433.82	310.65
434.19	313.55
434.56	316.33
434.93	318.94
435.30	321.57
435.68	324.44
436.05	327.26
436.42	330.05
436.79	332.57
437.16	335.24
437.53	338.09
437.90	340.88
438.27	343.62
438.64	346.47
439.01	349.10
439.38	351.34
439.75	353.46
440.13	355.90
440.50	358.27
440.87	360.09
441.24	362.01
441.61	364.18
441.98	365.64
442.35	367.42
442.72	369.29
443.09	371.06
443.46	372.05
443.83	372.63
444.20	373.13
444.57	373.96
444.94	374.28
445.31	374.59
445.68	374.98
446.05	375.07
446.42	374.66
446.79	374.20
447.16	373.73
447.53	373.45
447.90	372.33
448.27	371.14
448.64	369.53
449.01	368.35
449.37	366.36
449.74	364.48
450.11	362.26
450.48	359.79
450.85	357.34
451.22	355.20
451.59	353.14
451.96	351.20
452.33	348.61
452.70	346.24
453.07	343.42
453.43	340.49
453.80	337.70
454.17	335.06
454.54	332.53
454.91	329.83
455.28	327.14
455.65	324.64
456.02	322.18
456.38	320.04
456.75	317.42
457.12	315.18
457.49	312.98
457.86	310.81
458.23	308.97
458.59	306.89
458.96	304.80
459.33	302.96
459.70	301.10
460.07	299.62
460.43	297.94
460.80	296.33
461.17	294.91
461.54	293.45
461.91	292.02
462.27	290.58
462.64	289.33
463.01	287.98
463.38	286.70
463.74	285.40
464.11	284.30
464.48	283.31
464.85	282.21
465.21	281.35
465.58	280.43
465.95	279.35
466.32	278.44
466.68	277.57
467.05	276.67
467.42	275.81
467.78	274.88
468.15	273.99
468.52	273.33
468.88	272.49
469.25	271.69
469.62	271.05
469.98	270.35
470.35	269.78
470.72	269.21
471.08	268.59
471.45	268.02
471.82	267.46
472.18	266.85
472.55	266.41
472.92	265.88
473.28	265.43
473.65	264.97
474.02	264.55
474.38	264.22
474.75	263.92
475.11	263.56
475.48	263.30
475.85	263.08
476.21	262.84
476.58	262.67
476.94	262.56
477.31	262.40
477.67	262.33
478.04	262.19
478.41	262.13
478.77	262.17
479.14	262.11
479.50	262.15
479.87	262.22
480.23	262.35
480.60	262.45
480.96	262.53
481.33	262.81
481.69	263.00
482.06	263.19
482.42	263.40
482.79	263.68
483.15	264.00
483.52	264.41
483.88	264.77
484.25	265.17
484.61	265.61
484.98	266.06
485.34	266.56
485.71	267.16
486.07	267.78
486.44	268.33
486.80	269.05
487.17	269.78
487.53	270.59
487.90	271.45
488.26	272.37
488.62	273.38
488.99	274.32
489.35	275.36
489.72	276.47
490.08	277.67
490.44	278.92
490.81	280.28
491.17	281.61
491.54	283.10
491.90	284.62
492.26	286.24
492.63	287.99
492.99	289.79
493.36	291.69
493.72	293.73
494.08	295.86
494.45	298.14
494.81	300.49
495.17	302.95
495.54	305.49
495.90	308.19
496.26	310.98
496.63	313.92
496.99	317.04
497.35	320.33
497.72	323.75
498.08	327.33
498.44	331.00
498.80	334.98
499.17	339.06
499.53	343.22
499.89	347.62
500.26	352.18
500.62	356.86
500.98	361.81
501.34	366.89
501.71	372.29
502.07	377.67
502.43	383.35
502.79	389.18
503.16	395.26
503.52	401.50
503.88	407.98
504.24	414.63
504.60	421.62
504.97	428.75
505.33	436.07
505.69	443.73
506.05	451.48
506.41	459.36
506.78	467.54
507.14	476.00
507.50	484.69
507.86	493.65
508.22	502.84
508.59	512.08
508.95	521.66
509.31	531.44
509.67	541.54
510.03	551.82
510.39	562.38
510.75	573.15
511.12	584.11
511.48	595.38
511.84	606.79
512.20	618.29
512.56	630.16
512.92	642.34
513.28	654.71
513.64	667.24
514.00	679.96
514.37	692.93
514.73	706.05
515.09	719.09
515.45	732.39
515.81	746.03
516.17	760.00
516.53	774.16
516.89	788.40
517.25	802.62
517.61	817.04
517.97	831.51
518.33	845.88
518.69	860.63
519.05	875.59
519.41	890.80
519.77	906.20
520.13	921.71
520.49	937.09
520.85	952.35
521.21	968.06
521.57	984.19
521.93	999.80
522.29	1016.14
522.65	1032.42
523.01	1048.58
523.37	1064.51
523.73	1080.66
524.09	1096.73
524.45	1112.93
524.81	1129.50
525.17	1146.20
525.53	1163.01
525.89	1179.88
526.25	1196.70
526.61	1213.01
526.97	1229.72
527.33	1246.24
527.68	1262.66
528.04	1279.12
528.40	1295.83
528.76	1312.83
529.12	1329.35
529.48	1346.24
529.84	1362.15
530.20	1378.72
530.56	1395.79
530.91	1413.27
531.27	1429.98
531.63	1446.35
531.99	1462.88
532.35	1478.77
532.71	1494.66
533.07	1510.93
533.42	1526.72
533.78	1542.72
534.14	1558.95
534.50	1574.18
534.86	1589.92
535.21	1605.16
535.57	1621.03
535.93	1636.48
536.29	1651.12
536.65	1666.16
537.00	1680.83
537.36	1696.08
537.72	1710.50
538.08	1724.79
538.44	1738.40
538.79	1752.23
539.15	1765.89
539.51	1779.56
539.87	1793.82
540.22	1807.40
540.58	1821.16
540.94	1834.51
541.29	1847.28
541.65	1859.83
542.01	1873.10
542.37	1885.34
542.72	1897.79
543.08	1909.45
543.44	1921.77
543.79	1933.06
544.15	1943.89
544.51	1955.49
544.87	1966.57
545.22	1977.33
545.58	1987.58
545.94	1997.24
546.29	2007.03
546.65	2016.68
547.01	2025.81
547.36	2034.56
547.72	2042.94
548.07	2050.57
548.43	2058.80
548.79	2066.93
549.14	2074.58
549.50	2081.82
549.86	2089.53
550.21	2096.70
550.57	2103.82
550.92	2110.27
551.28	2117.27
551.64	2124.39
551.99	2130.84
552.35	2136.83
552.70	2142.94
553.06	2148.82
553.41	2155.13
553.77	2161.18
554.13	2167.30
554.48	2173.58
554.84	2178.94
555.19	2184.43
555.55	2189.67
555.90	2194.11
556.26	2198.86
556.61	2203.56
556.97	2207.78
557.32	2212.01
557.68	2216.16
558.03	2220.58
558.39	2224.21
558.74	2228.91
559.10	2232.78
559.45	2236.53
559.81	2240.86
560.16	2244.64
560.52	2247.89
560.87	2251.39
561.23	2253.95
561.58	2256.88
561.94	2259.34
562.29	2261.71
562.64	2264.31
563.00	2266.91
563.35	2270.31
563.71	2273.40
564.06	2276.61
564.42	2279.47
564.77	2281.90
565.12	2284.27
565.48	2286.06
565.83	2288.11
566.19	2289.30
566.54	2290.14
566.89	2291.20
567.25	2291.84
567.60	2293.23
567.96	2294.96
568.31	2295.69
568.66	2296.83
569.02	2297.58
569.37	2297.91
569.72	2298.88
570.08	2299.06
570.43	2299.27
570.78	2298.72
571.14	2297.28
571.49	2296.04
571.84	2295.92
572.20	2294.85
572.55	2293.85
572.90	2292.38
573.26	2290.99
573.61	2289.37
573.96	2287.76
574.31	2284.94
574.67	2281.97
575.02	2278.52
575.37	2275.19
575.72	2271.58
576.08	2268.43
576.43	2265.14
576.78	2261.56
577.13	2258.45
577.49	2255.37
577.84	2251.78
578.19	2248.14
578.54	2244.62
578.90	2240.36
579.25	2234.80
579.60	2229.86
579.95	2224.80
580.30	2219.91
580.66	2214.78
581.01	2209.96
581.36	2205.15
581.71	2200.85
582.06	2196.46
582.42	2191.98
582.77	2186.79
583.12	2182.36
583.47	2177.65
583.82	2172.69
584.17	2167.52
584.53	2161.93
584.88	2156.30
585.23	2150.65
585.58	2145.04
585.93	2139.57
586.28	2134.94
586.63	2129.85
586.98	2125.00
587.34	2120.41
587.69	2115.48
588.04	2110.22
588.39	2104.64
588.74	2098.12
589.09	2092.16
589.44	2085.37
589.79	2079.44
590.14	2073.91
590.49	2067.33
590.84	2061.09
591.19	2054.99
591.54	2048.73
591.89	2041.50
592.25	2034.79
592.60	2027.65
592.95	2020.26
593.30	2012.95
593.65	2005.27
594.00	1998.14
594.35	1990.80
594.70	1982.76
595.05	1975.55
595.40	1968.42
595.75	1960.87
596.10	1954.68
596.45	1947.73
596.80	1941.65
597.15	1934.85
597.50	1927.67
597.85	1921.20
598.19	1914.37
598.54	1907.37
598.89	1900.46
599.24	1894.59
599.59	1887.85
599.94	1881.59
600.29	1875.28
600.64	1868.69
600.99	1861.34
601.34	1854.66
601.69	1847.65
602.04	1840.78
602.39	1833.49
602.74	1826.53
603.08	1819.80
603.43	1813.22
603.78	1806.12
604.13	1798.82
604.48	1791.62
604.83	1784.84
605.18	1777.86
605.53	1769.92
605.87	1761.87
606.22	1754.72
606.57	1746.74
606.92	1739.43
607.27	1732.22
607.62	1725.35
607.96	1718.12
608.31	1711.46
608.66	1703.88
609.01	1696.37
609.36	1688.80
609.70	1680.74
610.05	1672.77
610.40	1665.12
610.75	1656.72
611.10	1649.10
611.44	1640.72
611.79	1632.72
612.14	1624.01
612.49	1614.92
612.83	1606.55
613.18	1598.42
613.53	1590.33
613.88	1581.80
614.22	1573.60
614.57	1564.94
614.92	1556.91
615.27	1549.32
615.61	1541.00
615.96	1532.91
616.31	1525.29
616.65	1517.94
617.00	1510.40
617.35	1502.77
617.70	1494.35
618.04	1485.86
618.39	1477.60
618.74	1469.92
619.08	1461.65
619.43	1454.07
619.78	1447.04
620.12	1439.89
620.47	1432.52
620.82	1424.50
621.16	1417.10
621.51	1409.46
621.85	1401.95
622.20	1393.37
622.55	1385.01
622.89	1377.19
623.24	1369.58
623.59	1362.11
623.93	1354.64
624.28	1347.42
624.62	1339.80
624.97	1332.65
625.32	1325.91
625.66	1318.94
626.01	1311.94
626.35	1304.54
626.70	1296.80
627.04	1289.13
627.39	1281.22
627.73	1273.76
628.08	1266.72
628.43	1259.47
628.77	1252.08
629.12	1244.53
629.46	1237.41
629.81	1230.09
630.15	1222.96
630.50	1215.52
630.84	1207.32
631.19	1199.33
631.53	1191.81
631.88	1184.31
632.22	1176.73
632.57	1169.38
632.91	1161.79
633.26	1154.22
633.60	1146.77
633.95	1139.70
634.29	1132.81
634.64	1126.19
634.98	1118.78
635.32	1111.62
635.67	1105.04
636.01	1098.48
636.36	1091.58
636.70	1085.03
637.05	1078.37
637.39	1071.82
637.73	1065.26
638.08	1059.31
638.42	1053.34
638.77	1046.92
639.11	1040.29
639.45	1033.82
639.80	1027.12
640.14	1020.67
640.49	1014.20
640.83	1007.86
641.17	1001.59
641.52	995.06
641.86	988.61
642.20	982.65
642.55	976.33
642.89	969.79
643.23	963.27
643.58	957.54
643.92	951.29
644.26	945.18
644.61	939.13
644.95	933.17
645.29	926.63
645.64	919.85
645.98	913.46
646.32	907.57
646.66	901.51
647.01	895.74
647.35	890.05
647.69	884.17
648.04	878.71
648.38	872.82
648.72	866.75
649.06	860.73
649.41	854.88
649.75	848.95
650.09	842.98
650.43	837.10
650.78	830.90
651.12	825.00
651.46	819.25
651.80	813.46
652.14	808.10
652.49	802.74
652.83	797.56
653.17	791.84
653.51	786.15
653.85	780.74
654.20	775.02
654.54	768.98
654.88	763.21
655.22	757.25
655.56	751.60
655.90	746.24
656.25	740.95
656.59	735.57
656.93	730.44
657.27	725.22
657.61	719.74
657.95	714.64
658.29	709.52
658.64	704.30
658.98	698.97
659.32	693.46
659.66	688.21
660.00	682.88
660.34	677.95
660.68	673.00
661.02	668.05
661.36	663.37
661.70	658.82
662.05	654.53
662.39	650.18
662.73	645.69
663.07	641.29
663.41	636.77
663.75	632.25
664.09	627.66
664.43	623.26
664.77	619.11
665.11	614.88
665.45	610.76
665.79	606.67
666.13	602.58
666.47	598.45
666.81	594.31
667.15	590.17
667.49	586.26
667.83	582.42
668.17	578.47
668.51	574.41
668.85	570.41
669.19	566.49
669.53	562.66
669.87	558.83
670.21	555.09
670.55	551.47
670.89	548.05
671.23	544.60
671.57	541.10
671.91	537.59
672.25	534.04
672.58	530.50
672.92	527.09
673.26	523.85
673.60	520.71
673.94	517.57
674.28	514.68
674.62	511.76
674.96	508.62
675.30	505.65
675.64	502.67
675.97	499.93
676.31	497.07
676.65	494.16
676.99	491.45
677.33	488.57
677.67	485.78
678.01	482.72
678.34	479.75
678.68	476.87
679.02	474.07
679.36	471.34
679.70	468.65
680.04	465.88
680.37	463.04
680.71	460.30
681.05	457.73
681.39	455.00
681.73	452.33
682.06	449.84
682.40	447.27
682.74	444.71
683.08	442.14
683.42	439.59
683.75	437.09
684.09	434.48
684.43	432.09
684.77	429.63
685.10	427.29
685.44	425.00
685.78	422.70
686.12	420.45
686.45	418.12
686.79	415.75
687.13	413.54
687.46	411.33
687.80	409.13
688.14	406.91
688.48	404.85
688.81	402.61
689.15	400.48
689.49	398.34
689.82	396.26
690.16	394.16
690.50	392.13
690.83	390.14
691.17	388.21
691.51	386.30
691.84	384.39
692.18	382.45
692.52	380.46
692.85	378.50
693.19	376.60
693.52	374.78
693.86	372.96
694.20	371.20
694.53	369.41
694.87	367.53
695.21	365.73
695.54	363.91
695.88	362.17
696.21	360.43
696.55	358.74
696.88	357.11
697.22	355.41
697.56	353.83
697.89	352.25
698.23	350.57
698.56	348.92
698.90	347.40
699.23	345.78
699.57	344.24
699.90	342.67
700.24	341.12
700.58	339.63
700.91	338.14
701.25	336.72
701.58	335.34
701.92	334.00
702.25	332.60
702.59	331.21
702.92	329.88
703.26	328.57
703.59	327.31
703.93	326.10
704.26	324.90
704.60	323.58
704.93	322.27
705.26	321.05
705.60	319.86
705.93	318.68
706.27	317.63
706.60	316.53
706.94	315.49
707.27	314.39
707.61	313.30
707.94	312.28
708.27	311.12
708.61	310.07
708.94	309.03
709.28	308.09
709.61	307.13
709.94	306.20
710.28	305.20
710.61	304.24
710.95	303.13
711.28	302.19
711.61	301.23
711.95	300.31
712.28	299.37
712.61	298.41
712.95	297.51
713.28	296.66
713.61	295.82
713.95	294.93
714.28	294.09
714.61	293.22
714.95	292.44
715.28	291.63
715.61	290.77
715.95	289.92
716.28	289.01
716.61	288.17
716.95	287.36
717.28	286.61
717.61	285.78
717.94	285.06
718.28	284.27
718.61	283.55
718.94	282.89
719.27	282.23
719.61	281.57
719.94	280.88
720.27	280.12
720.60	279.40
720.94	278.78
721.27	278.17
721.60	277.60
721.93	276.92
722.27	276.37
722.60	275.79
722.93	275.22
723.26	274.70
723.59	274.14
723.93	273.57
724.26	273.02
724.59	272.47
724.92	271.94
725.25	271.42
725.59	270.92
725.92	270.38
726.25	269.84
726.58	269.34
726.91	268.83
727.24	268.34
727.57	267.88
727.91	267.37
728.24	266.88
728.57	266.36
728.90	265.93
729.23	265.41
729.56	264.98
729.89	264.50
730.22	264.00
730.55	263.54
730.89	263.07
731.22	262.60
731.55	262.17
731.88	261.73
732.21	261.29
732.54	260.83
732.87	260.39
733.20	260.01
733.53	259.61
733.86	259.27
734.19	258.89
734.52	258.50
734.85	258.15
735.18	257.75
735.51	257.40
735.84	257.01
736.17	256.69
736.50	256.29
736.83	256.10
737.16	255.78
737.49	255.43
737.82	255.11
738.15	254.77
738.48	254.44
738.81	254.17
739.14	253.87
739.47	253.56
739.80	253.23
740.13	252.91
740.46	252.57
740.79	252.22
741.12	251.91
741.45	251.61
741.78	251.29
742.11	251.02
742.44	250.70
742.77	250.44
743.10	250.13
743.43	249.84
743.75	249.38
744.08	249.25
744.41	248.97
744.74	248.71
745.07	248.44
745.40	248.21
745.73	247.91
746.06	247.62
746.39	247.39
746.71	247.13
747.04	246.87
747.37	246.64
747.70	246.46
748.03	246.22
748.36	246.01
748.68	245.75
749.01	245.50
749.34	245.26
749.67	245.01
750.00	244.83
750.33	244.67
750.65	244.50
750.98	244.15
751.31	243.95
751.64	243.73
751.97	243.57
752.29	243.38
752.62	243.14
752.95	242.93
753.28	242.71
753.60	242.49
753.93	242.31
754.26	242.09
754.59	241.80
754.91	241.59
755.24	241.41
755.57	241.25
755.90	241.06
756.22	240.88
756.55	240.69
756.88	240.48
757.20	240.26
757.53	240.04
757.86	239.84
758.19	239.66
758.51	239.51
758.84	239.28
759.17	239.09
759.49	238.96
759.82	238.84
760.15	238.69
760.47	238.58
760.80	238.42
761.13	238.30
761.45	238.11
761.78	237.96
762.11	237.78
762.43	237.61
762.76	237.45
763.08	237.33
763.41	237.17
763.74	237.01
764.06	236.88
764.39	236.73
764.71	236.61
765.04	236.50
765.37	236.35
765.69	236.22
766.02	236.10
766.34	235.97
766.67	235.82
767.00	235.72
767.32	235.65
767.65	235.59
767.97	235.48
768.30	235.43
768.62	235.33
768.95	235.23
769.27	235.11
769.60	235.03
769.92	234.91
770.25	234.82
770.57	234.67
770.90	234.58
771.22	234.52
771.55	234.45
771.87	234.38
772.20	234.28
772.52	234.27
772.85	234.29
773.17	234.20
773.50	234.08
773.82	233.97
774.15	233.84
774.47	233.68
774.80	233.59
775.12	233.49
775.45	233.42
775.77	233.36
776.09	233.31
776.42	233.25
776.74	233.21
777.07	233.12
777.39	233.08
777.72	232.97
778.04	232.88
778.36	232.82
778.69	232.72
779.01	232.64
779.33	232.52
779.66	232.36
779.98	232.28
780.31	232.25
780.63	232.21
780.95	232.14
781.28	232.08
781.60	232.01
781.92	231.97
782.25	231.88
782.57	231.81
782.89	231.73
783.22	231.68
783.54	231.58
783.86	231.54
784.19	231.47
784.51	231.48
784.83	231.42
785.16	231.34
785.48	231.29
785.80	231.23
786.12	231.16
786.45	231.08
786.77	231.03
787.09	230.98
787.42	230.90
787.74	230.84
788.06	230.79
788.38	230.75
788.71	230.67
789.03	230.63
789.35	230.61
789.67	230.53
789.99	230.47
790.32	230.41
790.64	230.37
790.96	230.38
791.28	230.32
791.61	230.27
791.93	230.22
792.25	230.15
792.57	230.17
792.89	230.12
793.21	230.09
793.54	230.03
793.86	230.00
794.18	229.97
794.50	229.93
794.82	229.88
795.14	229.82
795.47	229.83
795.79	229.79
796.11	229.73
796.43	229.71
796.75	229.67
797.07	229.62
797.39	229.59
797.71	229.47
798.04	229.40
798.36	229.39
798.68	229.37
799.00	229.34
799.32	229.28
799.64	229.25
799.96	229.19
800.28	229.19
800.60	229.12
800.92	229.08
801.24	229.00
801.56	228.95
801.89	228.94
802.21	228.89
802.53	228.85
802.85	228.80
803.17	228.85
803.49	228.76
803.81	228.72
804.13	228.67
804.45	228.64
804.77	228.63
805.09	228.58
805.41	228.55
805.73	228.49
806.05	228.44
806.37	228.43
806.69	228.42
807.01	228.36
807.33	228.35
807.65	228.29
807.97	228.35
808.28	228.34
808.60	228.30
808.92	228.26
809.24	228.27
809.56	228.26
809.88	228.14
810.20	228.16
810.52	228.16
810.84	228.11
811.16	228.09
811.48	228.05
811.80	228.05
812.12	228.02
812.43	228.06
812.75	228.03
813.07	228.00
813.39	227.97
813.71	227.92
814.03	227.90
814.35	227.89
814.67	227.81
814.98	227.78
815.30	227.79
815.62	227.75
815.94	227.68
816.26	227.72
816.58	227.72
816.89	227.71
817.21	227.69
817.53	227.71
817.85	227.70
818.17	227.72
818.48	227.69
818.80	227.66
819.12	227.64
819.44	227.65
819.76	227.61
820.07	227.61
820.39	227.62
820.71	227.64
821.03	227.66
821.34	227.66
821.66	227.67
821.98	227.66
822.30	227.66
822.61	227.72
822.93	227.65
823.25	227.64
823.57	227.62
823.88	227.65
824.20	227.64
824.52	227.67
824.83	227.63
825.15	227.62
825.47	227.60
825.79	227.59
826.10	227.56
826.42	227.57
826.74	227.57
827.05	227.58
827.37	227.56
827.69	227.55
828.00	227.55
828.32	227.57
828.64	227.57
828.95	227.61
829.27	227.58
829.58	227.58
829.90	227.60
830.22	227.59
830.53	227.54
830.85	227.54
831.17	227.51
831.48	227.51
831.80	227.51
832.11	227.51
832.43	227.50
832.75	227.50
833.06	227.50
833.38	227.50
833.69	227.46
834.01	227.44
834.32	227.45
834.64	227.44
834.96	227.37
835.27	227.34
835.59	227.29
835.90	227.26
836.22	227.25
836.53	227.24
836.85	227.23
837.16	227.29
837.48	227.29
837.79	227.30
838.11	227.28
838.42	227.29
838.74	227.29
839.05	227.26
839.37	227.23
839.68	227.20
840.00	227.15
840.31	227.16
840.63	227.11
840.94	227.09
841.26	227.04
841.57	227.05
841.88	227.05
842.20	227.01
842.51	226.96
842.83	226.92
843.14	226.98
843.46	226.97
843.77	226.94
844.08	226.89
844.40	226.87
844.71	226.86
845.03	226.81
845.34	226.75
845.65	226.77
845.97	226.78
846.28	226.79
846.60	226.80
846.91	226.78
847.22	226.82
847.54	226.81
847.85	226.83
848.16	226.82
848.48	226.78
848.79	226.85
849.10	226.84
849.42	226.86
849.73	226.78
850.04	226.77
850.36	226.72
850.67	226.72
850.98	226.71
851.30	226.69
851.61	226.71
851.92	226.73
852.23	226.73
852.55	226.70
852.86	226.65
853.17	226.64
853.49	226.64
853.80	226.64
854.11	226.67
854.42	226.65
854.74	226.67
855.05	226.69
855.36	226.60
855.67	226.61
855.99	226.58
856.30	226.66
856.61	226.67
856.92	226.65
857.23	226.66
857.55	226.67
857.86	226.69
858.17	226.68
858.48	226.66
858.79	226.65
859.11	226.67
859.42	226.66
859.73	226.63
860.04	226.66
860.35	226.63
860.66	226.56
860.98	226.57
861.29	226.55
861.60	226.54
861.91	226.59
862.22	226.59
862.53	226.59
862.84	226.51
863.16	226.53
863.47	226.51
863.78	226.47
864.09	226.42
864.40	226.42
864.71	226.42
865.02	226.44
865.33	226.41
865.64	226.40
865.95	226.42
866.27	226.50
866.58	226.45
866.89	226.49
867.20	226.53
867.51	226.50
867.82	226.50
868.13	226.51
868.44	226.47
868.75	226.49
869.06	226.50
869.37	226.48
869.68	226.46
869.99	226.48
870.30	226.49
870.61	226.52
870.92	226.50
871.23	226.49
871.54	226.50
871.85	226.53
872.16	226.52
872.47	226.48
872.78	226.42
873.09	226.43
873.40	226.41
873.71	226.39
874.02	226.40
874.33	226.38
874.64	226.39
874.95	226.41
875.26	226.40
875.56	226.40
875.87	226.41
876.18	226.36
876.49	226.45
876.80	226.44
877.11	226.43
877.42	226.47
877.73	226.47
878.04	226.45
878.35	226.44
878.66	226.45
878.96	226.49
879.27	226.50
879.58	226.49
879.89	226.44
880.20	226.51
880.51	226.51
880.82	226.53
881.12	226.50
881.43	226.46
881.74	226.44
882.05	226.43
882.36	226.44
882.67	226.45
882.97	226.33
883.28	226.35
883.59	226.35
883.90	226.34
884.21	226.36
884.51	226.36
884.82	226.38
885.13	226.35
885.44	226.34
885.74	226.31
886.05	226.32
886.36	226.33
886.67	226.25
886.98	226.28
887.28	226.29
887.59	226.29
887.90	226.27
888.20	226.27
888.51	226.30
888.82	226.28
889.13	226.30
889.43	226.38
889.74	226.35
890.05	226.33
890.35	226.31
890.66	226.28
890.97	226.27
891.28	226.24
891.58	226.28
891.89	226.27
892.20	226.27
892.50	226.23
892.81	226.23
893.12	226.21
893.42	226.16
893.73	226.14
894.04	226.14
894.34	226.16
894.65	226.15
894.95	226.13
895.26	226.10
895.57	226.11
895.87	226.01
896.18	226.00
896.48	225.98
896.79	225.94
897.10	225.96
897.40	225.95
897.71	225.95
898.01	225.91
898.32	225.92
898.63	225.93
898.93	225.96
899.24	225.97
899.54	225.99
899.85	226.00
900.15	225.97
900.46	225.98
900.76	225.99
901.07	225.96
901.38	225.94
901.68	225.94
901.99	225.91
902.29	225.90
902.60	225.93
902.90	225.93
903.21	225.94
903.51	225.89
903.82	225.90
904.12	225.91
904.43	225.92
904.73	225.89
905.03	225.86
905.34	225.95
905.64	225.93
905.95	225.93
906.25	225.92
906.56	225.94
906.86	225.92
907.17	225.92
907.47	225.93
907.77	225.95
908.08	225.95
908.38	225.93
908.69	225.95
908.99	225.94
909.30	225.98
909.60	225.98
909.90	226.02
910.21	225.98
910.51	225.94
910.81	225.91
911.12	225.93
911.42	225.95
911.73	225.85
912.03	225.86
912.33	225.87
912.64	225.86
912.94	225.87
913.24	225.85
913.55	225.87
913.85	225.87
914.15	225.91
914.46	225.94
914.76	225.98
915.06	226.00
915.37	226.02
915.67	226.02
915.97	226.03
916.27	226.01
916.58	226.03
916.88	226.08
917.18	226.11
917.49	226.20
917.79	226.23
918.09	226.25
918.39	226.25
918.70	226.28
919.00	226.30
919.30	226.35
919.60	226.38
919.91	226.37
920.21	226.39
920.51	226.35
920.81	226.36
921.12	226.35
921.42	226.35
921.72	226.38
922.02	226.36
922.32	226.39
922.63	226.37
922.93	226.44
923.23	226.40
923.53	226.39
923.83	226.29
924.13	226.26
924.44	226.26
924.74	226.30
925.04	226.32
925.34	226.32
925.64	226.28
925.94	226.28
926.24	226.27
926.55	226.26
926.85	226.26
927.15	226.22
927.45	226.24
927.75	226.23
928.05	226.20
928.35	226.22
928.65	226.22
928.95	226.26
929.26	226.20
929.56	226.25
929.86	226.27
930.16	226.26
930.46	226.28
930.76	226.30
931.06	226.26
931.36	226.21
931.66	226.23
931.96	226.23
932.26	226.22
932.56	226.20
932.86	226.16
933.16	226.16
933.46	226.18
933.76	226.16
934.06	226.17
934.36	226.18
934.66	226.17
934.96	226.13
935.26	226.10
935.56	226.11
935.86	226.06
936.16	226.04
936.46	226.05
936.76	226.01
937.06	225.98
937.36	225.98
937.66	225.97
937.96	225.95
938.26	225.93
938.56	225.91
938.86	225.91
939.16	225.94
939.46	225.97
939.76	225.96
940.06	225.93
940.35	225.90
940.65	225.87
940.95	225.87
941.25	225.85
941.55	225.86
941.85	225.83
942.15	225.85
942.45	225.86
942.75	225.87
943.04	225.90
943.34	225.92
943.64	225.89
943.94	225.85
944.24	225.85
944.54	225.85
944.84	225.82
945.13	225.81
945.43	225.82
945.73	225.80
946.03	225.78
946.33	225.77
946.62	225.77
946.92	225.75
947.22	225.75
947.52	225.78
947.82	225.78
948.11	225.78
948.41	225.78
948.71	225.74
949.01	225.73
949.31	225.72
949.60	225.68
949.90	225.70
950.20	225.71
950.50	225.71
950.79	225.73
951.09	225.77
951.39	225.79
951.69	225.78
951.98	225.80
952.28	225.83
952.58	225.84
952.87	225.83
953.17	225.87
953.47	225.86
953.76	225.86
954.06	225.84
954.36	225.85
954.66	225.85
954.95	225.91
955.25	225.91
955.55	225.93
955.84	225.94
956.14	225.95
956.44	225.95
956.73	225.94
957.03	225.92
957.32	225.93
957.62	225.92
957.92	225.96
958.21	225.94
958.51	226.04
958.81	226.06
959.10	226.09
959.40	226.12
959.69	226.15
959.99	226.18
960.29	226.21
960.58	226.22
960.88	226.27
961.17	226.25
961.47	226.27
961.76	226.26
962.06	226.27
962.36	226.27
962.65	226.29
962.95	226.30
963.24	226.33
963.54	226.34
963.83	226.38
964.13	226.35
964.42	226.35
964.72	226.30
965.01	226.29
965.31	226.28
965.60	226.24
965.90	226.30
966.19	226.27
966.49	226.29
966.78	226.27
967.08	226.25
967.37	226.24
967.67	226.21
967.96	226.23
968.26	226.23
968.55	226.25
968.85	226.23
969.14	226.22
969.43	226.21
969.73	226.18
970.02	226.13
970.32	226.12
970.61	226.06
970.91	226.02
971.20	226.00
971.49	226.01
971.79	226.02
972.08	225.95
972.38	225.95
972.67	225.90
972.96	225.93
973.26	225.91
973.55	225.92
973.85	225.96
974.14	225.91
974.43	225.92
974.73	225.87
975.02	225.86
975.31	225.85
975.61	225.84
975.90	225.87
976.19	225.87
976.49	225.89
976.78	225.94
977.07	225.91
977.37	225.91
977.66	225.90
977.95	225.89
978.24	225.89
978.54	225.95
978.83	225.95
979.12	225.92
979.42	225.94
979.71	225.92
980.00	225.89
980.29	225.94
980.59	225.93
980.88	225.97
981.17	225.99
981.46	225.98
981.76	225.99
982.05	225.99
982.34	225.98
982.63	225.98
982.93	225.99
983.22	226.03
983.51	226.05
983.80	226.06
984.09	226.08
984.39	226.03
984.68	225.99
984.97	226.00
985.26	226.03
985.55	226.05
985.85	226.04
986.14	226.08
986.43	226.08
986.72	226.07
987.01	226.05
987.30	226.05
987.59	226.08
987.89	226.07
988.18	226.05
988.47	226.05
988.76	226.05
989.05	226.06
989.34	226.06
989.63	226.11
989.92	226.11
990.22	226.10
990.51	226.13
990.80	226.12
991.09	226.12
991.38	226.11
991.67	226.08
991.96	226.10
992.25	226.06
992.54	226.05
992.83	226.04
993.12	226.04
993.41	226.09
993.70	226.13
993.99	226.17
994.28	226.20
994.58	226.22
994.87	226.21
995.16	226.21
995.45	226.20
995.74	226.15
996.03	226.16
996.32	226.18
996.61	226.22
996.90	226.20
997.19	226.20
997.48	226.19
997.77	226.18
998.06	226.17
998.34	226.20
998.63	226.22
998.92	226.22
999.21	226.25
999.50	226.22
999.79	226.17
1000.08	226.17
1000.37	226.17
1000.66	226.18
1000.95	226.20
1001.24	226.18
1001.53	226.17
1001.82	226.16
1002.11	226.10
1002.40	226.09
1002.68	226.08
1002.97	226.16
1003.26	226.17
1003.55	226.14
1003.84	226.16
1004.13	226.17
1004.42	226.11
1004.71	226.06
1004.99	226.04
1005.28	226.01
1005.57	226.00
1005.86	225.99
1006.15	226.00
1006.44	225.98
1006.72	225.96
1007.01	225.95
1007.30	225.97
1007.59	225.95
1007.88	225.95
1008.17	225.99
1008.45	225.94
1008.74	225.89
1009.03	225.85
1009.32	225.84
1009.60	225.86
1009.89	225.85
1010.18	225.79
1010.47	225.83
1010.76	225.84
1011.04	225.84
1011.33	225.88
1011.62	225.85
1011.91	225.83
1012.19	225.78
1012.48	225.75
1012.77	225.76
1013.05	225.79
1013.34	225.79
1013.63	225.78
1013.92	225.77
1014.20	225.75
1014.49	225.79
1014.78	225.78
1015.06	225.73
1015.35	225.74
1015.64	225.74
1015.92	225.73
1016.21	225.77
1016.50	225.74
1016.78	225.77
1017.07	225.77
1017.36	225.74
1017.64	225.76
1017.93	225.81
1018.22	225.82
1018.50	225.79
1018.79	225.81
1019.08	225.76
1019.36	225.76
1019.65	225.76
1019.93	225.81
1020.22	225.79
1020.51	225.84
1020.79	225.84
1021.08	225.58
1021.36	225.16
1021.65	226.26
1021.94	225.80
1022.22	226.30
1022.51	225.54
1022.79	226.39
1023.08	225.34
1023.36	226.97
1023.65	225.47
>>>>>End Processed Spectral Data<<<<<
