SpectraSuite Data File
++++++++++++++++++++++++++++++++++++
Date: Fri Feb 01 16:23:07 EST 2013
User: group
Dark Spectrum Present: No
Reference Spectrum Present: No
Number of Sampled Component Spectra: 1
Spectrometers: USB2E7196
Integration Time (usec): 35000 (USB2E7196)
Spectra Averaged: 100 (USB2E7196)
Boxcar Smoothing: 10 (USB2E7196)
Correct for Electrical Dark: No (USB2E7196)
Strobe/Lamp Enabled: No (USB2E7196)
Correct for Detector Non-linearity: No (USB2E7196)
Correct for Stray Light: No (USB2E7196)
Number of Pixels in Processed Spectrum: 2048
>>>>>Begin Processed Spectral Data<<<<<
339.09	0.00
339.48	213.61
339.86	216.42
340.24	217.34
340.63	218.51
341.01	221.46
341.39	221.11
341.78	222.35
342.16	223.38
342.54	224.11
342.93	212.64
343.31	223.39
343.69	223.97
344.07	224.41
344.46	224.83
344.84	225.21
345.22	225.46
345.60	225.73
345.99	225.92
346.37	226.05
346.75	226.16
347.13	226.24
347.52	226.28
347.90	226.33
348.28	226.40
348.66	226.46
349.05	226.46
349.43	226.51
349.81	226.56
350.19	226.60
350.57	226.67
350.96	226.71
351.34	226.80
351.72	226.87
352.10	226.96
352.48	227.00
352.87	227.05
353.25	227.10
353.63	227.15
354.01	227.23
354.39	227.31
354.77	227.37
355.15	227.48
355.54	227.57
355.92	227.61
356.30	227.67
356.68	227.77
357.06	227.82
357.44	227.83
357.82	227.86
358.20	227.94
358.58	228.01
358.97	228.09
359.35	228.15
359.73	228.24
360.11	228.26
360.49	228.32
360.87	228.35
361.25	228.39
361.63	228.45
362.01	228.47
362.39	228.52
362.77	228.58
363.15	228.57
363.53	228.59
363.91	228.60
364.29	228.66
364.67	228.56
365.05	228.58
365.43	228.59
365.81	228.62
366.19	228.64
366.57	228.65
366.95	228.60
367.33	228.55
367.71	228.51
368.09	228.52
368.47	228.49
368.85	228.46
369.23	228.46
369.61	228.41
369.99	228.39
370.37	228.39
370.75	228.37
371.13	228.33
371.51	228.28
371.89	228.22
372.27	228.16
372.65	228.12
373.03	228.05
373.41	228.02
373.78	227.93
374.16	227.82
374.54	227.76
374.92	227.69
375.30	227.63
375.68	227.56
376.06	227.48
376.44	227.44
376.82	227.37
377.19	227.31
377.57	227.24
377.95	227.14
378.33	227.03
378.71	226.90
379.09	226.84
379.47	226.78
379.84	226.72
380.22	226.63
380.60	226.58
380.98	226.52
381.36	226.44
381.73	226.41
382.11	226.35
382.49	226.27
382.87	226.21
383.25	226.19
383.62	226.25
384.00	226.19
384.38	226.12
384.76	226.10
385.13	226.09
385.51	226.05
385.89	225.99
386.27	225.95
386.64	225.92
387.02	225.87
387.40	225.79
387.78	225.79
388.15	225.75
388.53	225.71
388.91	225.67
389.29	225.64
389.66	225.60
390.04	225.56
390.42	225.60
390.79	225.56
391.17	225.54
391.55	225.43
391.92	225.45
392.30	225.48
392.68	225.47
393.05	225.48
393.43	225.48
393.81	225.53
394.18	225.53
394.56	225.55
394.94	225.61
395.31	225.64
395.69	225.67
396.06	225.75
396.44	225.79
396.82	225.85
397.19	225.98
397.57	226.00
397.95	226.06
398.32	226.06
398.70	226.18
399.07	226.25
399.45	226.31
399.82	226.35
400.20	226.41
400.58	226.49
400.95	226.51
401.33	226.62
401.70	226.76
402.08	226.86
402.45	226.95
402.83	227.03
403.20	227.15
403.58	227.25
403.95	227.35
404.33	227.46
404.71	227.58
405.08	227.72
405.46	227.87
405.83	228.00
406.21	228.12
406.58	228.26
406.96	228.44
407.33	228.59
407.70	228.80
408.08	229.06
408.45	229.26
408.83	229.52
409.20	229.69
409.58	229.85
409.95	230.12
410.33	230.39
410.70	230.64
411.08	230.95
411.45	231.22
411.82	231.51
412.20	231.87
412.57	232.24
412.95	232.55
413.32	232.99
413.69	233.41
414.07	233.87
414.44	234.30
414.82	234.76
415.19	235.35
415.56	235.87
415.94	236.41
416.31	237.04
416.68	237.63
417.06	238.36
417.43	239.02
417.81	239.75
418.18	240.51
418.55	241.33
418.93	242.19
419.30	243.10
419.67	244.07
420.04	245.01
420.42	246.02
420.79	247.19
421.16	248.29
421.54	249.51
421.91	250.74
422.28	252.03
422.66	253.36
423.03	254.64
423.40	256.00
423.77	257.40
424.15	258.81
424.52	260.27
424.89	261.86
425.26	263.39
425.64	264.84
426.01	266.43
426.38	268.07
426.75	269.74
427.13	271.46
427.50	273.24
427.87	275.12
428.24	276.95
428.61	278.66
428.99	280.62
429.36	282.65
429.73	284.69
430.10	286.71
430.47	288.74
430.85	290.83
431.22	293.04
431.59	295.37
431.96	297.61
432.33	300.10
432.70	302.50
433.08	305.34
433.45	308.01
433.82	310.63
434.19	313.51
434.56	316.28
434.93	318.93
435.30	321.59
435.68	324.43
436.05	327.26
436.42	330.04
436.79	332.52
437.16	335.24
437.53	338.06
437.90	340.85
438.27	343.57
438.64	346.36
439.01	348.92
439.38	351.14
439.75	353.28
440.13	355.77
440.50	358.10
440.87	359.93
441.24	361.83
441.61	363.95
441.98	365.41
442.35	367.21
442.72	369.06
443.09	370.81
443.46	371.81
443.83	372.41
444.20	372.92
444.57	373.74
444.94	374.05
445.31	374.36
445.68	374.71
446.05	374.78
446.42	374.42
446.79	374.00
447.16	373.57
447.53	373.28
447.90	372.12
448.27	370.91
448.64	369.30
449.01	368.14
449.37	366.22
449.74	364.37
450.11	362.12
450.48	359.67
450.85	357.16
451.22	355.04
451.59	353.03
451.96	351.10
452.33	348.55
452.70	346.21
453.07	343.40
453.43	340.52
453.80	337.82
454.17	335.18
454.54	332.65
454.91	329.93
455.28	327.25
455.65	324.78
456.02	322.38
456.38	320.28
456.75	317.65
457.12	315.36
457.49	313.15
457.86	310.98
458.23	309.12
458.59	307.07
458.96	305.00
459.33	303.16
459.70	301.33
460.07	299.84
460.43	298.10
460.80	296.48
461.17	295.05
461.54	293.51
461.91	292.04
462.27	290.62
462.64	289.42
463.01	288.05
463.38	286.74
463.74	285.38
464.11	284.22
464.48	283.21
464.85	282.14
465.21	281.30
465.58	280.40
465.95	279.31
466.32	278.39
466.68	277.47
467.05	276.58
467.42	275.62
467.78	274.70
468.15	273.81
468.52	273.13
468.88	272.27
469.25	271.53
469.62	270.94
469.98	270.30
470.35	269.65
470.72	269.08
471.08	268.47
471.45	267.96
471.82	267.42
472.18	266.83
472.55	266.38
472.92	265.85
473.28	265.41
473.65	264.97
474.02	264.55
474.38	264.21
474.75	263.90
475.11	263.59
475.48	263.32
475.85	263.12
476.21	262.96
476.58	262.80
476.94	262.65
477.31	262.51
477.67	262.36
478.04	262.27
478.41	262.23
478.77	262.26
479.14	262.20
479.50	262.21
479.87	262.29
480.23	262.38
480.60	262.42
480.96	262.51
481.33	262.71
481.69	262.93
482.06	263.13
482.42	263.34
482.79	263.62
483.15	263.93
483.52	264.30
483.88	264.63
484.25	264.99
484.61	265.41
484.98	265.84
485.34	266.41
485.71	267.00
486.07	267.60
486.44	268.20
486.80	268.92
487.17	269.66
487.53	270.50
487.90	271.38
488.26	272.38
488.62	273.37
488.99	274.35
489.35	275.40
489.72	276.55
490.08	277.79
490.44	279.05
490.81	280.41
491.17	281.79
491.54	283.27
491.90	284.82
492.26	286.48
492.63	288.24
492.99	290.02
493.36	291.93
493.72	293.96
494.08	296.04
494.45	298.27
494.81	300.64
495.17	303.07
495.54	305.61
495.90	308.32
496.26	311.13
496.63	314.10
496.99	317.23
497.35	320.49
497.72	323.90
498.08	327.45
498.44	331.11
498.80	334.99
499.17	339.05
499.53	343.29
499.89	347.64
500.26	352.17
500.62	356.85
500.98	361.83
501.34	366.88
501.71	372.22
502.07	377.62
502.43	383.26
502.79	389.08
503.16	395.16
503.52	401.40
503.88	407.81
504.24	414.51
504.60	421.42
504.97	428.55
505.33	435.82
505.69	443.46
506.05	451.25
506.41	459.11
506.78	467.29
507.14	475.67
507.50	484.39
507.86	493.37
508.22	502.55
508.59	511.75
508.95	521.35
509.31	531.22
509.67	541.34
510.03	551.58
510.39	562.11
510.75	572.95
511.12	583.88
511.48	595.16
511.84	606.59
512.20	618.08
512.56	630.04
512.92	642.22
513.28	654.54
513.64	667.08
514.00	679.79
514.37	692.70
514.73	705.75
515.09	718.79
515.45	732.13
515.81	745.77
516.17	759.77
516.53	773.87
516.89	787.96
517.25	802.09
517.61	816.50
517.97	830.95
518.33	845.27
518.69	860.01
519.05	874.97
519.41	890.09
519.77	905.59
520.13	920.95
520.49	936.33
520.85	951.79
521.21	967.37
521.57	983.60
521.93	999.31
522.29	1015.70
522.65	1031.91
523.01	1048.05
523.37	1064.04
523.73	1080.09
524.09	1096.13
524.45	1112.47
524.81	1129.12
525.17	1145.89
525.53	1162.75
525.89	1179.66
526.25	1196.51
526.61	1212.77
526.97	1229.49
527.33	1245.88
527.68	1262.41
528.04	1278.93
528.40	1295.41
528.76	1312.37
529.12	1328.88
529.48	1345.78
529.84	1361.70
530.20	1378.31
530.56	1395.29
530.91	1412.64
531.27	1429.42
531.63	1445.75
531.99	1462.23
532.35	1478.10
532.71	1493.88
533.07	1509.99
533.42	1525.80
533.78	1541.79
534.14	1558.06
534.50	1573.35
534.86	1589.13
535.21	1604.26
535.57	1619.95
535.93	1635.47
536.29	1650.27
536.65	1665.22
537.00	1679.83
537.36	1695.03
537.72	1709.54
538.08	1723.88
538.44	1737.57
538.79	1751.31
539.15	1764.97
539.51	1778.59
539.87	1792.77
540.22	1806.53
540.58	1820.20
540.94	1833.44
541.29	1846.04
541.65	1858.65
542.01	1871.75
542.37	1883.99
542.72	1896.23
543.08	1907.89
543.44	1920.22
543.79	1931.26
544.15	1942.16
544.51	1953.64
544.87	1964.55
545.22	1975.29
545.58	1985.36
545.94	1994.89
546.29	2004.75
546.65	2014.63
547.01	2023.65
547.36	2032.30
547.72	2040.71
548.07	2048.50
548.43	2056.55
548.79	2064.63
549.14	2072.13
549.50	2079.39
549.86	2086.99
550.21	2094.37
550.57	2101.50
550.92	2107.89
551.28	2114.99
551.64	2122.08
551.99	2128.55
552.35	2134.58
552.70	2140.62
553.06	2146.52
553.41	2152.95
553.77	2158.91
554.13	2164.82
554.48	2171.20
554.84	2176.85
555.19	2182.05
555.55	2187.21
555.90	2191.72
556.26	2196.57
556.61	2201.38
556.97	2205.81
557.32	2210.00
557.68	2214.06
558.03	2218.34
558.39	2222.13
558.74	2226.82
559.10	2230.67
559.45	2234.34
559.81	2238.73
560.16	2242.61
560.52	2245.95
560.87	2249.32
561.23	2252.01
561.58	2255.16
561.94	2257.54
562.29	2259.80
562.64	2262.46
563.00	2265.06
563.35	2268.64
563.71	2271.78
564.06	2274.90
564.42	2277.66
564.77	2280.22
565.12	2282.58
565.48	2284.52
565.83	2286.39
566.19	2287.68
566.54	2288.52
566.89	2289.65
567.25	2290.31
567.60	2291.60
567.96	2293.30
568.31	2294.17
568.66	2295.35
569.02	2295.78
569.37	2296.20
569.72	2297.22
570.08	2297.47
570.43	2297.59
570.78	2297.00
571.14	2295.52
571.49	2294.23
571.84	2293.85
572.20	2292.85
572.55	2291.85
572.90	2290.40
573.26	2289.00
573.61	2287.46
573.96	2285.96
574.31	2283.08
574.67	2280.16
575.02	2276.58
575.37	2273.21
575.72	2269.50
576.08	2266.14
576.43	2262.92
576.78	2259.29
577.13	2256.00
577.49	2252.99
577.84	2249.44
578.19	2245.74
578.54	2242.24
578.90	2238.04
579.25	2232.61
579.60	2227.66
579.95	2222.69
580.30	2217.77
580.66	2212.73
581.01	2207.74
581.36	2202.74
581.71	2198.65
582.06	2194.06
582.42	2189.59
582.77	2184.52
583.12	2180.01
583.47	2175.38
583.82	2170.41
584.17	2165.25
584.53	2159.87
584.88	2154.30
585.23	2148.74
585.58	2143.38
585.93	2138.14
586.28	2133.39
586.63	2128.34
586.98	2123.35
587.34	2118.67
587.69	2113.75
588.04	2108.55
588.39	2102.97
588.74	2096.66
589.09	2090.49
589.44	2083.89
589.79	2078.01
590.14	2072.54
590.49	2066.10
590.84	2059.77
591.19	2053.76
591.54	2047.36
591.89	2040.07
592.25	2033.27
592.60	2026.09
592.95	2018.49
593.30	2011.09
593.65	2003.44
594.00	1996.51
594.35	1989.24
594.70	1981.31
595.05	1974.25
595.40	1966.94
595.75	1959.53
596.10	1953.32
596.45	1946.78
596.80	1940.76
597.15	1934.05
597.50	1926.76
597.85	1920.33
598.19	1913.66
598.54	1906.53
598.89	1899.80
599.24	1894.05
599.59	1887.38
599.94	1881.19
600.29	1874.98
600.64	1868.33
600.99	1861.05
601.34	1854.25
601.69	1847.32
602.04	1840.51
602.39	1833.17
602.74	1826.37
603.08	1819.44
603.43	1812.68
603.78	1805.26
604.13	1797.97
604.48	1790.73
604.83	1783.98
605.18	1776.97
605.53	1769.09
605.87	1761.21
606.22	1754.05
606.57	1746.00
606.92	1738.79
607.27	1731.68
607.62	1724.76
607.96	1717.42
608.31	1710.85
608.66	1703.31
609.01	1695.86
609.36	1688.21
609.70	1680.28
610.05	1672.32
610.40	1664.76
610.75	1656.55
611.10	1648.96
611.44	1640.64
611.79	1632.74
612.14	1624.09
612.49	1614.87
612.83	1606.45
613.18	1598.32
613.53	1590.24
613.88	1581.65
614.22	1573.41
614.57	1564.78
614.92	1556.64
615.27	1549.23
615.61	1540.88
615.96	1532.80
616.31	1525.14
616.65	1517.81
617.00	1510.03
617.35	1502.25
617.70	1493.88
618.04	1485.39
618.39	1477.17
618.74	1469.56
619.08	1461.24
619.43	1453.62
619.78	1446.83
620.12	1439.69
620.47	1432.30
620.82	1424.18
621.16	1416.78
621.51	1409.12
621.85	1401.40
622.20	1392.94
622.55	1384.48
622.89	1376.60
623.24	1369.00
623.59	1361.52
623.93	1353.96
624.28	1346.83
624.62	1339.35
624.97	1332.17
625.32	1325.30
625.66	1318.15
626.01	1310.84
626.35	1303.35
626.70	1295.60
627.04	1287.81
627.39	1279.94
627.73	1272.50
628.08	1265.62
628.43	1258.32
628.77	1250.96
629.12	1243.54
629.46	1236.37
629.81	1228.94
630.15	1221.70
630.50	1214.28
630.84	1206.09
631.19	1198.22
631.53	1190.73
631.88	1183.22
632.22	1175.65
632.57	1168.35
632.91	1160.90
633.26	1153.49
633.60	1146.10
633.95	1138.99
634.29	1131.98
634.64	1125.40
634.98	1117.98
635.32	1110.73
635.67	1104.08
636.01	1097.39
636.36	1090.47
636.70	1083.87
637.05	1077.36
637.39	1070.87
637.73	1064.32
638.08	1058.41
638.42	1052.39
638.77	1045.93
639.11	1039.28
639.45	1032.86
639.80	1026.18
640.14	1019.79
640.49	1013.29
640.83	1006.99
641.17	1000.78
641.52	994.30
641.86	987.77
642.20	981.88
642.55	975.49
642.89	969.03
643.23	962.46
643.58	956.71
643.92	950.57
644.26	944.44
644.61	938.46
644.95	932.37
645.29	925.81
645.64	919.00
645.98	912.65
646.32	906.83
646.66	900.76
647.01	895.06
647.35	889.33
647.69	883.46
648.04	877.87
648.38	872.10
648.72	866.24
649.06	860.18
649.41	854.28
649.75	848.36
650.09	842.47
650.43	836.69
650.78	830.51
651.12	824.50
651.46	818.73
651.80	812.99
652.14	807.61
652.49	802.23
652.83	797.14
653.17	791.45
653.51	785.71
653.85	780.35
654.20	774.63
654.54	768.62
654.88	762.91
655.22	757.07
655.56	751.34
655.90	745.89
656.25	740.67
656.59	735.32
656.93	730.28
657.27	725.12
657.61	719.70
657.95	714.67
658.29	709.60
658.64	704.46
658.98	699.18
659.32	693.72
659.66	688.49
660.00	683.14
660.34	678.23
660.68	673.31
661.02	668.26
661.36	663.49
661.70	658.97
662.05	654.64
662.39	650.31
662.73	645.83
663.07	641.47
663.41	636.98
663.75	632.44
664.09	627.83
664.43	623.43
664.77	619.29
665.11	614.96
665.45	610.81
665.79	606.67
666.13	602.49
666.47	598.47
666.81	594.31
667.15	590.18
667.49	586.22
667.83	582.42
668.17	578.48
668.51	574.45
668.85	570.41
669.19	566.55
669.53	562.68
669.87	558.83
670.21	555.01
670.55	551.33
670.89	547.98
671.23	544.58
671.57	541.06
671.91	537.53
672.25	534.04
672.58	530.55
672.92	527.15
673.26	523.93
673.60	520.71
673.94	517.63
674.28	514.68
674.62	511.79
674.96	508.65
675.30	505.78
675.64	502.85
675.97	500.04
676.31	497.13
676.65	494.20
676.99	491.49
677.33	488.69
677.67	485.92
678.01	482.87
678.34	479.87
678.68	476.98
679.02	474.06
679.36	471.28
679.70	468.56
680.04	465.82
680.37	462.95
680.71	460.13
681.05	457.52
681.39	454.79
681.73	452.06
682.06	449.52
682.40	446.99
682.74	444.44
683.08	441.90
683.42	439.34
683.75	436.79
684.09	434.25
684.43	431.74
684.77	429.25
685.10	426.89
685.44	424.62
685.78	422.33
686.12	420.14
686.45	417.86
686.79	415.54
687.13	413.34
687.46	411.23
687.80	409.11
688.14	406.84
688.48	404.78
688.81	402.52
689.15	400.38
689.49	398.14
689.82	396.05
690.16	393.96
690.50	392.03
690.83	390.10
691.17	388.10
691.51	386.22
691.84	384.36
692.18	382.42
692.52	380.39
692.85	378.45
693.19	376.54
693.52	374.68
693.86	372.88
694.20	371.07
694.53	369.23
694.87	367.36
695.21	365.62
695.54	363.78
695.88	362.08
696.21	360.39
696.55	358.77
696.88	357.11
697.22	355.45
697.56	353.77
697.89	352.14
698.23	350.56
698.56	348.92
698.90	347.33
699.23	345.75
699.57	344.22
699.90	342.71
700.24	341.21
700.58	339.73
700.91	338.22
701.25	336.80
701.58	335.46
701.92	334.14
702.25	332.75
702.59	331.42
702.92	330.14
703.26	328.87
703.59	327.57
703.93	326.41
704.26	325.15
704.60	323.86
704.93	322.59
705.26	321.29
705.60	320.12
705.93	318.98
706.27	317.92
706.60	316.86
706.94	315.78
707.27	314.62
707.61	313.55
707.94	312.53
708.27	311.42
708.61	310.33
708.94	309.30
709.28	308.31
709.61	307.36
709.94	306.38
710.28	305.30
710.61	304.31
710.95	303.20
711.28	302.34
711.61	301.40
711.95	300.46
712.28	299.50
712.61	298.54
712.95	297.62
713.28	296.72
713.61	295.83
713.95	294.94
714.28	294.12
714.61	293.24
714.95	292.38
715.28	291.50
715.61	290.61
715.95	289.73
716.28	288.85
716.61	287.99
716.95	287.12
717.28	286.41
717.61	285.62
717.94	284.90
718.28	284.02
718.61	283.29
718.94	282.63
719.27	281.94
719.61	281.27
719.94	280.56
720.27	279.83
720.60	279.14
720.94	278.48
721.27	277.83
721.60	277.21
721.93	276.63
722.27	276.09
722.60	275.51
722.93	274.92
723.26	274.36
723.59	273.74
723.93	273.21
724.26	272.58
724.59	272.02
724.92	271.49
725.25	271.01
725.59	270.44
725.92	269.87
726.25	269.39
726.58	268.88
726.91	268.35
727.24	267.91
727.57	267.39
727.91	266.89
728.24	266.44
728.57	265.94
728.90	265.49
729.23	264.99
729.56	264.57
729.89	264.14
730.22	263.68
730.55	263.28
730.89	262.85
731.22	262.45
731.55	262.04
731.88	261.58
732.21	261.15
732.54	260.73
732.87	260.37
733.20	259.97
733.53	259.59
733.86	259.26
734.19	258.82
734.52	258.47
734.85	258.17
735.18	257.79
735.51	257.45
735.84	257.11
736.17	256.78
736.50	256.39
736.83	256.15
737.16	255.82
737.49	255.47
737.82	255.09
738.15	254.76
738.48	254.41
738.81	254.10
739.14	253.77
739.47	253.48
739.80	253.16
740.13	252.86
740.46	252.53
740.79	252.19
741.12	251.92
741.45	251.60
741.78	251.26
742.11	250.98
742.44	250.69
742.77	250.43
743.10	250.11
743.43	249.82
743.75	249.43
744.08	249.31
744.41	249.04
744.74	248.81
745.07	248.53
745.40	248.31
745.73	248.07
746.06	247.82
746.39	247.57
746.71	247.32
747.04	247.02
747.37	246.82
747.70	246.59
748.03	246.33
748.36	246.15
748.68	245.93
749.01	245.66
749.34	245.44
749.67	245.14
750.00	244.94
750.33	244.78
750.65	244.57
750.98	244.20
751.31	244.00
751.64	243.76
751.97	243.61
752.29	243.35
752.62	243.14
752.95	242.95
753.28	242.70
753.60	242.46
753.93	242.31
754.26	242.08
754.59	241.84
754.91	241.59
755.24	241.36
755.57	241.14
755.90	240.97
756.22	240.74
756.55	240.58
756.88	240.38
757.20	240.13
757.53	239.93
757.86	239.77
758.19	239.60
758.51	239.45
758.84	239.19
759.17	239.05
759.49	238.86
759.82	238.70
760.15	238.58
760.47	238.48
760.80	238.31
761.13	238.20
761.45	238.02
761.78	237.89
762.11	237.72
762.43	237.57
762.76	237.38
763.08	237.30
763.41	237.14
763.74	236.99
764.06	236.85
764.39	236.72
764.71	236.56
765.04	236.44
765.37	236.29
765.69	236.18
766.02	236.04
766.34	235.91
766.67	235.76
767.00	235.63
767.32	235.52
767.65	235.47
767.97	235.31
768.30	235.22
768.62	235.12
768.95	235.03
769.27	234.92
769.60	234.85
769.92	234.71
770.25	234.59
770.57	234.48
770.90	234.38
771.22	234.24
771.55	234.14
771.87	234.05
772.20	233.97
772.52	233.95
772.85	233.98
773.17	233.88
773.50	233.79
773.82	233.72
774.15	233.60
774.47	233.44
774.80	233.35
775.12	233.33
775.45	233.24
775.77	233.13
776.09	233.06
776.42	232.99
776.74	232.94
777.07	232.87
777.39	232.80
777.72	232.74
778.04	232.70
778.36	232.62
778.69	232.57
779.01	232.47
779.33	232.34
779.66	232.17
779.98	232.08
780.31	232.03
780.63	231.98
780.95	231.94
781.28	231.92
781.60	231.87
781.92	231.79
782.25	231.78
782.57	231.72
782.89	231.68
783.22	231.62
783.54	231.54
783.86	231.50
784.19	231.45
784.51	231.44
784.83	231.36
785.16	231.33
785.48	231.29
785.80	231.29
786.12	231.24
786.45	231.23
786.77	231.21
787.09	231.15
787.42	231.09
787.74	231.04
788.06	230.99
788.38	230.95
788.71	230.90
789.03	230.86
789.35	230.84
789.67	230.81
789.99	230.77
790.32	230.73
790.64	230.69
790.96	230.73
791.28	230.65
791.61	230.64
791.93	230.58
792.25	230.50
792.57	230.52
792.89	230.49
793.21	230.43
793.54	230.38
793.86	230.34
794.18	230.29
794.50	230.21
794.82	230.13
795.14	230.09
795.47	230.05
795.79	229.97
796.11	229.87
796.43	229.83
796.75	229.79
797.07	229.77
797.39	229.71
797.71	229.64
798.04	229.58
798.36	229.53
798.68	229.51
799.00	229.50
799.32	229.42
799.64	229.39
799.96	229.34
800.28	229.33
800.60	229.29
800.92	229.29
801.24	229.27
801.56	229.27
801.89	229.23
802.21	229.18
802.53	229.13
802.85	229.16
803.17	229.17
803.49	229.09
803.81	229.01
804.13	228.99
804.45	228.94
804.77	228.93
805.09	228.90
805.41	228.86
805.73	228.79
806.05	228.71
806.37	228.71
806.69	228.67
807.01	228.63
807.33	228.63
807.65	228.60
807.97	228.62
808.28	228.59
808.60	228.54
808.92	228.53
809.24	228.60
809.56	228.51
809.88	228.45
810.20	228.44
810.52	228.44
810.84	228.38
811.16	228.33
811.48	228.29
811.80	228.32
812.12	228.30
812.43	228.32
812.75	228.30
813.07	228.21
813.39	228.23
813.71	228.18
814.03	228.13
814.35	228.09
814.67	228.03
814.98	227.98
815.30	227.97
815.62	227.93
815.94	227.84
816.26	227.90
816.58	227.86
816.89	227.86
817.21	227.83
817.53	227.85
817.85	227.87
818.17	227.85
818.48	227.80
818.80	227.83
819.12	227.81
819.44	227.78
819.76	227.76
820.07	227.75
820.39	227.75
820.71	227.75
821.03	227.72
821.34	227.70
821.66	227.73
821.98	227.74
822.30	227.74
822.61	227.78
822.93	227.70
823.25	227.69
823.57	227.68
823.88	227.70
824.20	227.70
824.52	227.69
824.83	227.67
825.15	227.64
825.47	227.61
825.79	227.60
826.10	227.59
826.42	227.58
826.74	227.55
827.05	227.55
827.37	227.55
827.69	227.57
828.00	227.56
828.32	227.55
828.64	227.52
828.95	227.58
829.27	227.52
829.58	227.53
829.90	227.54
830.22	227.53
830.53	227.51
830.85	227.46
831.17	227.42
831.48	227.43
831.80	227.42
832.11	227.36
832.43	227.32
832.75	227.34
833.06	227.41
833.38	227.37
833.69	227.33
834.01	227.30
834.32	227.27
834.64	227.20
834.96	227.18
835.27	227.15
835.59	227.09
835.90	227.06
836.22	227.07
836.53	227.05
836.85	227.03
837.16	227.07
837.48	227.06
837.79	227.07
838.11	227.04
838.42	227.03
838.74	227.05
839.05	227.04
839.37	226.97
839.68	226.90
840.00	226.88
840.31	226.93
840.63	226.89
840.94	226.86
841.26	226.89
841.57	226.89
841.88	226.91
842.20	226.88
842.51	226.88
842.83	226.85
843.14	226.94
843.46	226.92
843.77	226.86
844.08	226.88
844.40	226.87
844.71	226.86
845.03	226.87
845.34	226.85
845.65	226.85
845.97	226.87
846.28	226.85
846.60	226.86
846.91	226.80
847.22	226.83
847.54	226.85
847.85	226.89
848.16	226.87
848.48	226.83
848.79	226.85
849.10	226.86
849.42	226.86
849.73	226.76
850.04	226.73
850.36	226.73
850.67	226.72
850.98	226.70
851.30	226.71
851.61	226.69
851.92	226.72
852.23	226.75
852.55	226.77
852.86	226.78
853.17	226.79
853.49	226.83
853.80	226.83
854.11	226.83
854.42	226.79
854.74	226.76
855.05	226.76
855.36	226.71
855.67	226.71
855.99	226.73
856.30	226.80
856.61	226.84
856.92	226.83
857.23	226.85
857.55	226.86
857.86	226.86
858.17	226.88
858.48	226.83
858.79	226.79
859.11	226.79
859.42	226.77
859.73	226.77
860.04	226.75
860.35	226.71
860.66	226.69
860.98	226.69
861.29	226.67
861.60	226.69
861.91	226.73
862.22	226.71
862.53	226.68
862.84	226.58
863.16	226.59
863.47	226.56
863.78	226.52
864.09	226.51
864.40	226.54
864.71	226.54
865.02	226.54
865.33	226.53
865.64	226.51
865.95	226.52
866.27	226.55
866.58	226.53
866.89	226.55
867.20	226.54
867.51	226.54
867.82	226.58
868.13	226.60
868.44	226.56
868.75	226.58
869.06	226.59
869.37	226.59
869.68	226.56
869.99	226.55
870.30	226.55
870.61	226.55
870.92	226.49
871.23	226.46
871.54	226.49
871.85	226.53
872.16	226.53
872.47	226.52
872.78	226.48
873.09	226.51
873.40	226.50
873.71	226.50
874.02	226.51
874.33	226.45
874.64	226.42
874.95	226.40
875.26	226.36
875.56	226.33
875.87	226.34
876.18	226.33
876.49	226.44
876.80	226.43
877.11	226.42
877.42	226.45
877.73	226.44
878.04	226.40
878.35	226.38
878.66	226.38
878.96	226.36
879.27	226.34
879.58	226.31
879.89	226.30
880.20	226.34
880.51	226.30
880.82	226.32
881.12	226.34
881.43	226.31
881.74	226.31
882.05	226.35
882.36	226.33
882.67	226.32
882.97	226.23
883.28	226.21
883.59	226.18
883.90	226.20
884.21	226.21
884.51	226.22
884.82	226.19
885.13	226.19
885.44	226.21
885.74	226.22
886.05	226.19
886.36	226.18
886.67	226.11
886.98	226.19
887.28	226.20
887.59	226.17
887.90	226.19
888.20	226.17
888.51	226.20
888.82	226.19
889.13	226.17
889.43	226.24
889.74	226.25
890.05	226.28
890.35	226.26
890.66	226.27
890.97	226.26
891.28	226.23
891.58	226.22
891.89	226.21
892.20	226.19
892.50	226.20
892.81	226.19
893.12	226.23
893.42	226.19
893.73	226.21
894.04	226.22
894.34	226.22
894.65	226.24
894.95	226.19
895.26	226.17
895.57	226.26
895.87	226.21
896.18	226.22
896.48	226.20
896.79	226.19
897.10	226.23
897.40	226.25
897.71	226.30
898.01	226.32
898.32	226.35
898.63	226.35
898.93	226.36
899.24	226.36
899.54	226.35
899.85	226.33
900.15	226.31
900.46	226.30
900.76	226.33
901.07	226.32
901.38	226.30
901.68	226.33
901.99	226.26
902.29	226.24
902.60	226.24
902.90	226.23
903.21	226.24
903.51	226.20
903.82	226.20
904.12	226.18
904.43	226.17
904.73	226.14
905.03	226.16
905.34	226.28
905.64	226.30
905.95	226.27
906.25	226.25
906.56	226.21
906.86	226.21
907.17	226.19
907.47	226.21
907.77	226.21
908.08	226.19
908.38	226.19
908.69	226.17
908.99	226.18
909.30	226.19
909.60	226.18
909.90	226.16
910.21	226.11
910.51	226.12
910.81	226.13
911.12	226.15
911.42	226.16
911.73	226.01
912.03	226.03
912.33	226.06
912.64	226.09
912.94	226.11
913.24	226.13
913.55	226.13
913.85	226.15
914.15	226.17
914.46	226.19
914.76	226.20
915.06	226.20
915.37	226.18
915.67	226.21
915.97	226.20
916.27	226.20
916.58	226.21
916.88	226.17
917.18	226.14
917.49	226.17
917.79	226.17
918.09	226.23
918.39	226.24
918.70	226.25
919.00	226.22
919.30	226.30
919.60	226.31
919.91	226.30
920.21	226.30
920.51	226.33
920.81	226.33
921.12	226.35
921.42	226.36
921.72	226.38
922.02	226.37
922.32	226.41
922.63	226.42
922.93	226.46
923.23	226.48
923.53	226.49
923.83	226.45
924.13	226.44
924.44	226.42
924.74	226.43
925.04	226.41
925.34	226.42
925.64	226.34
925.94	226.32
926.24	226.35
926.55	226.34
926.85	226.31
927.15	226.30
927.45	226.31
927.75	226.31
928.05	226.30
928.35	226.28
928.65	226.30
928.95	226.28
929.26	226.27
929.56	226.29
929.86	226.30
930.16	226.29
930.46	226.28
930.76	226.28
931.06	226.25
931.36	226.23
931.66	226.22
931.96	226.23
932.26	226.22
932.56	226.20
932.86	226.18
933.16	226.19
933.46	226.16
933.76	226.13
934.06	226.14
934.36	226.17
934.66	226.18
934.96	226.17
935.26	226.18
935.56	226.21
935.86	226.17
936.16	226.14
936.46	226.12
936.76	226.10
937.06	226.09
937.36	226.10
937.66	226.10
937.96	226.13
938.26	226.12
938.56	226.12
938.86	226.12
939.16	226.14
939.46	226.10
939.76	226.12
940.06	226.13
940.35	226.09
940.65	226.05
940.95	226.07
941.25	226.05
941.55	226.01
941.85	226.00
942.15	225.99
942.45	226.04
942.75	226.03
943.04	226.06
943.34	226.07
943.64	226.02
943.94	226.00
944.24	226.01
944.54	226.02
944.84	226.00
945.13	226.03
945.43	226.01
945.73	226.01
946.03	226.01
946.33	226.03
946.62	226.02
946.92	226.01
947.22	225.99
947.52	225.97
947.82	226.00
948.11	225.97
948.41	225.99
948.71	225.95
949.01	225.97
949.31	225.96
949.60	225.98
949.90	226.03
950.20	226.07
950.50	226.04
950.79	226.03
951.09	226.05
951.39	225.98
951.69	225.99
951.98	226.04
952.28	226.04
952.58	226.03
952.87	226.04
953.17	226.05
953.47	226.05
953.76	226.07
954.06	226.04
954.36	226.03
954.66	226.03
954.95	226.08
955.25	226.10
955.55	226.11
955.84	226.06
956.14	226.09
956.44	226.07
956.73	226.07
957.03	226.09
957.32	226.07
957.62	226.11
957.92	226.12
958.21	226.07
958.51	226.21
958.81	226.20
959.10	226.21
959.40	226.23
959.69	226.21
959.99	226.22
960.29	226.24
960.58	226.23
960.88	226.26
961.17	226.26
961.47	226.25
961.76	226.23
962.06	226.26
962.36	226.23
962.65	226.25
962.95	226.24
963.24	226.22
963.54	226.23
963.83	226.24
964.13	226.23
964.42	226.19
964.72	226.08
965.01	226.08
965.31	226.07
965.60	226.06
965.90	226.18
966.19	226.15
966.49	226.16
966.78	226.20
967.08	226.19
967.37	226.19
967.67	226.18
967.96	226.20
968.26	226.18
968.55	226.19
968.85	226.16
969.14	226.17
969.43	226.19
969.73	226.17
970.02	226.17
970.32	226.18
970.61	226.22
970.91	226.19
971.20	226.17
971.49	226.17
971.79	226.20
972.08	226.09
972.38	226.11
972.67	226.09
972.96	226.07
973.26	226.03
973.55	226.03
973.85	226.00
974.14	225.95
974.43	225.94
974.73	225.90
975.02	225.90
975.31	225.91
975.61	225.90
975.90	225.90
976.19	225.87
976.49	225.85
976.78	225.85
977.07	225.83
977.37	225.86
977.66	225.86
977.95	225.80
978.24	225.77
978.54	225.79
978.83	225.75
979.12	225.75
979.42	225.75
979.71	225.73
980.00	225.77
980.29	225.80
980.59	225.76
980.88	225.77
981.17	225.77
981.46	225.75
981.76	225.71
982.05	225.71
982.34	225.74
982.63	225.74
982.93	225.72
983.22	225.73
983.51	225.73
983.80	225.74
984.09	225.74
984.39	225.76
984.68	225.74
984.97	225.76
985.26	225.73
985.55	225.73
985.85	225.72
986.14	225.71
986.43	225.73
986.72	225.77
987.01	225.76
987.30	225.76
987.59	225.80
987.89	225.81
988.18	225.79
988.47	225.77
988.76	225.76
989.05	225.77
989.34	225.76
989.63	225.78
989.92	225.77
990.22	225.79
990.51	225.80
990.80	225.77
991.09	225.79
991.38	225.85
991.67	225.82
991.96	225.78
992.25	225.78
992.54	225.76
992.83	225.73
993.12	225.75
993.41	225.77
993.70	225.78
993.99	225.83
994.28	225.90
994.58	225.93
994.87	225.93
995.16	225.93
995.45	225.91
995.74	225.88
996.03	225.91
996.32	225.93
996.61	225.93
996.90	225.95
997.19	225.95
997.48	225.92
997.77	225.95
998.06	225.98
998.34	225.98
998.63	225.97
998.92	226.00
999.21	226.00
999.50	226.00
999.79	226.00
1000.08	226.01
1000.37	225.97
1000.66	225.95
1000.95	225.98
1001.24	226.00
1001.53	226.04
1001.82	226.05
1002.11	226.01
1002.40	226.02
1002.68	226.04
1002.97	226.12
1003.26	226.11
1003.55	226.10
1003.84	226.12
1004.13	226.18
1004.42	226.20
1004.71	226.22
1004.99	226.22
1005.28	226.26
1005.57	226.24
1005.86	226.18
1006.15	226.18
1006.44	226.19
1006.72	226.21
1007.01	226.19
1007.30	226.19
1007.59	226.16
1007.88	226.12
1008.17	226.13
1008.45	226.10
1008.74	226.06
1009.03	226.03
1009.32	226.02
1009.60	226.03
1009.89	226.03
1010.18	225.99
1010.47	225.97
1010.76	225.98
1011.04	225.99
1011.33	225.94
1011.62	225.95
1011.91	225.99
1012.19	225.97
1012.48	225.93
1012.77	225.92
1013.05	225.97
1013.34	225.97
1013.63	225.99
1013.92	226.05
1014.20	226.02
1014.49	226.01
1014.78	226.01
1015.06	225.97
1015.35	225.94
1015.64	225.97
1015.92	225.96
1016.21	225.93
1016.50	225.93
1016.78	225.90
1017.07	225.86
1017.36	225.87
1017.64	225.84
1017.93	225.82
1018.22	225.79
1018.50	225.80
1018.79	225.78
1019.08	225.72
1019.36	225.69
1019.65	225.64
1019.93	225.65
1020.22	225.68
1020.51	225.73
1020.79	225.71
1021.08	225.41
1021.36	225.54
1021.65	225.66
1021.94	225.51
1022.22	225.32
1022.51	225.37
1022.79	226.56
1023.08	225.97
1023.36	226.58
1023.65	225.32
>>>>>End Processed Spectral Data<<<<<
