SpectraSuite Data File
++++++++++++++++++++++++++++++++++++
Date: Fri Feb 01 15:40:43 EST 2013
User: group
Dark Spectrum Present: No
Reference Spectrum Present: No
Number of Sampled Component Spectra: 1
Spectrometers: USB2E7196
Integration Time (usec): 35000 (USB2E7196)
Spectra Averaged: 100 (USB2E7196)
Boxcar Smoothing: 10 (USB2E7196)
Correct for Electrical Dark: No (USB2E7196)
Strobe/Lamp Enabled: No (USB2E7196)
Correct for Detector Non-linearity: No (USB2E7196)
Correct for Stray Light: No (USB2E7196)
Number of Pixels in Processed Spectrum: 2048
>>>>>Begin Processed Spectral Data<<<<<
339.09	0.00
339.48	214.89
339.86	216.41
340.24	217.58
340.63	218.99
341.01	221.93
341.39	221.94
341.78	223.46
342.16	224.43
342.54	224.51
342.93	213.20
343.31	223.98
343.69	224.52
344.07	224.99
344.46	225.39
344.84	225.77
345.22	226.01
345.60	226.25
345.99	226.41
346.37	226.52
346.75	226.64
347.13	226.70
347.52	226.77
347.90	226.80
348.28	226.81
348.66	226.89
349.05	226.87
349.43	226.87
349.81	226.91
350.19	226.95
350.57	226.99
350.96	227.06
351.34	227.13
351.72	227.21
352.10	227.25
352.48	227.34
352.87	227.40
353.25	227.44
353.63	227.51
354.01	227.56
354.39	227.65
354.77	227.70
355.15	227.79
355.54	227.87
355.92	227.92
356.30	228.02
356.68	228.15
357.06	228.23
357.44	228.31
357.82	228.36
358.20	228.43
358.58	228.50
358.97	228.59
359.35	228.69
359.73	228.78
360.11	228.88
360.49	228.93
360.87	228.97
361.25	229.06
361.63	229.13
362.01	229.22
362.39	229.25
362.77	229.32
363.15	229.34
363.53	229.35
363.91	229.42
364.29	229.44
364.67	229.40
365.05	229.43
365.43	229.47
365.81	229.52
366.19	229.57
366.57	229.61
366.95	229.58
367.33	229.51
367.71	229.47
368.09	229.48
368.47	229.48
368.85	229.47
369.23	229.48
369.61	229.43
369.99	229.44
370.37	229.39
370.75	229.40
371.13	229.35
371.51	229.29
371.89	229.27
372.27	229.22
372.65	229.14
373.03	229.10
373.41	229.02
373.78	228.96
374.16	228.84
374.54	228.77
374.92	228.71
375.30	228.67
375.68	228.59
376.06	228.55
376.44	228.47
376.82	228.41
377.19	228.31
377.57	228.26
377.95	228.12
378.33	228.08
378.71	227.98
379.09	227.94
379.47	227.92
379.84	227.80
380.22	227.72
380.60	227.66
380.98	227.55
381.36	227.46
381.73	227.36
382.11	227.30
382.49	227.25
382.87	227.18
383.25	227.12
383.62	227.18
384.00	227.07
384.38	227.03
384.76	226.97
385.13	226.95
385.51	226.86
385.89	226.82
386.27	226.75
386.64	226.67
387.02	226.56
387.40	226.54
387.78	226.53
388.15	226.49
388.53	226.44
388.91	226.43
389.29	226.36
389.66	226.38
390.04	226.35
390.42	226.32
390.79	226.29
391.17	226.24
391.55	226.11
391.92	226.12
392.30	226.11
392.68	226.10
393.05	226.12
393.43	226.13
393.81	226.11
394.18	226.10
394.56	226.16
394.94	226.21
395.31	226.18
395.69	226.17
396.06	226.19
396.44	226.23
396.82	226.25
397.19	226.35
397.57	226.38
397.95	226.48
398.32	226.51
398.70	226.58
399.07	226.70
399.45	226.76
399.82	226.81
400.20	226.83
400.58	226.91
400.95	226.91
401.33	227.02
401.70	227.19
402.08	227.30
402.45	227.40
402.83	227.53
403.20	227.68
403.58	227.79
403.95	227.96
404.33	228.05
404.71	228.18
405.08	228.38
405.46	228.50
405.83	228.64
406.21	228.82
406.58	228.99
406.96	229.15
407.33	229.35
407.70	229.58
408.08	229.89
408.45	230.09
408.83	230.33
409.20	230.55
409.58	230.75
409.95	231.04
410.33	231.29
410.70	231.51
411.08	231.81
411.45	232.12
411.82	232.41
412.20	232.83
412.57	233.30
412.95	233.57
413.32	234.01
413.69	234.40
414.07	234.83
414.44	235.31
414.82	235.78
415.19	236.32
415.56	236.86
415.94	237.42
416.31	238.11
416.68	238.78
417.06	239.52
417.43	240.18
417.81	240.94
418.18	241.73
418.55	242.59
418.93	243.48
419.30	244.40
419.67	245.36
420.04	246.29
420.42	247.28
420.79	248.52
421.16	249.68
421.54	250.90
421.91	252.14
422.28	253.37
422.66	254.71
423.03	256.06
423.40	257.44
423.77	258.88
424.15	260.28
424.52	261.76
424.89	263.34
425.26	264.92
425.64	266.34
426.01	267.92
426.38	269.59
426.75	271.26
427.13	272.95
427.50	274.73
427.87	276.63
428.24	278.48
428.61	280.17
428.99	282.08
429.36	284.15
429.73	286.18
430.10	288.24
430.47	290.33
430.85	292.41
431.22	294.61
431.59	296.99
431.96	299.23
432.33	301.70
432.70	304.07
433.08	306.85
433.45	309.49
433.82	312.09
434.19	314.99
434.56	317.81
434.93	320.44
435.30	323.02
435.68	325.89
436.05	328.70
436.42	331.52
436.79	334.11
437.16	336.78
437.53	339.61
437.90	342.36
438.27	345.10
438.64	347.93
439.01	350.49
439.38	352.65
439.75	354.85
440.13	357.29
440.50	359.65
440.87	361.51
441.24	363.45
441.61	365.64
441.98	367.10
442.35	368.85
442.72	370.72
443.09	372.57
443.46	373.53
443.83	374.11
444.20	374.60
444.57	375.37
444.94	375.67
445.31	376.02
445.68	376.37
446.05	376.37
446.42	375.94
446.79	375.58
447.16	375.18
447.53	374.80
447.90	373.65
448.27	372.46
448.64	370.83
449.01	369.70
449.37	367.72
449.74	365.85
450.11	363.62
450.48	361.15
450.85	358.60
451.22	356.48
451.59	354.49
451.96	352.55
452.33	349.93
452.70	347.60
453.07	344.78
453.43	341.91
453.80	339.17
454.17	336.53
454.54	333.98
454.91	331.28
455.28	328.63
455.65	326.18
456.02	323.70
456.38	321.58
456.75	318.92
457.12	316.69
457.49	314.43
457.86	312.27
458.23	310.47
458.59	308.47
458.96	306.40
459.33	304.50
459.70	302.62
460.07	301.15
460.43	299.43
460.80	297.81
461.17	296.36
461.54	294.89
461.91	293.50
462.27	292.02
462.64	290.76
463.01	289.42
463.38	288.11
463.74	286.78
464.11	285.60
464.48	284.60
464.85	283.48
465.21	282.64
465.58	281.69
465.95	280.54
466.32	279.64
466.68	278.70
467.05	277.80
467.42	276.94
467.78	275.96
468.15	275.06
468.52	274.41
468.88	273.58
469.25	272.79
469.62	272.13
469.98	271.43
470.35	270.77
470.72	270.16
471.08	269.54
471.45	269.00
471.82	268.48
472.18	267.85
472.55	267.38
472.92	266.86
473.28	266.39
473.65	266.00
474.02	265.52
474.38	265.17
474.75	264.89
475.11	264.53
475.48	264.29
475.85	264.10
476.21	263.85
476.58	263.64
476.94	263.50
477.31	263.34
477.67	263.24
478.04	263.14
478.41	263.09
478.77	263.10
479.14	263.04
479.50	263.04
479.87	263.12
480.23	263.20
480.60	263.24
480.96	263.36
481.33	263.52
481.69	263.72
482.06	263.91
482.42	264.07
482.79	264.32
483.15	264.63
483.52	264.98
483.88	265.31
484.25	265.69
484.61	266.09
484.98	266.54
485.34	267.07
485.71	267.63
486.07	268.20
486.44	268.75
486.80	269.45
487.17	270.17
487.53	270.97
487.90	271.85
488.26	272.78
488.62	273.76
488.99	274.73
489.35	275.78
489.72	276.94
490.08	278.20
490.44	279.46
490.81	280.80
491.17	282.15
491.54	283.66
491.90	285.18
492.26	286.83
492.63	288.55
492.99	290.35
493.36	292.26
493.72	294.29
494.08	296.44
494.45	298.69
494.81	301.04
495.17	303.47
495.54	306.05
495.90	308.72
496.26	311.54
496.63	314.49
496.99	317.59
497.35	320.81
497.72	324.18
498.08	327.73
498.44	331.42
498.80	335.30
499.17	339.33
499.53	343.57
499.89	347.94
500.26	352.45
500.62	357.12
500.98	362.05
501.34	367.10
501.71	372.47
502.07	377.87
502.43	383.51
502.79	389.37
503.16	395.47
503.52	401.78
503.88	408.20
504.24	414.87
504.60	421.78
504.97	428.95
505.33	436.27
505.69	443.95
506.05	451.71
506.41	459.67
506.78	467.77
507.14	476.20
507.50	484.96
507.86	494.04
508.22	503.25
508.59	512.48
508.95	522.13
509.31	531.87
509.67	542.02
510.03	552.33
510.39	562.83
510.75	573.61
511.12	584.56
511.48	595.84
511.84	607.32
512.20	618.82
512.56	630.70
512.92	642.88
513.28	655.22
513.64	667.68
514.00	680.35
514.37	693.32
514.73	706.43
515.09	719.47
515.45	732.67
515.81	746.23
516.17	760.27
516.53	774.40
516.89	788.55
517.25	802.77
517.61	817.20
517.97	831.70
518.33	846.15
518.69	860.97
519.05	876.00
519.41	891.13
519.77	906.61
520.13	922.18
520.49	937.60
520.85	953.03
521.21	968.84
521.57	985.03
521.93	1000.78
522.29	1017.11
522.65	1033.34
523.01	1049.68
523.37	1065.76
523.73	1081.93
524.09	1098.03
524.45	1114.39
524.81	1130.99
525.17	1147.85
525.53	1164.74
525.89	1181.56
526.25	1198.33
526.61	1214.66
526.97	1231.37
527.33	1248.00
527.68	1264.55
528.04	1281.06
528.40	1297.63
528.76	1314.69
529.12	1331.37
529.48	1348.30
529.84	1364.34
530.20	1380.92
530.56	1397.95
530.91	1415.43
531.27	1432.16
531.63	1448.57
531.99	1465.19
532.35	1481.09
532.71	1496.89
533.07	1513.20
533.42	1529.12
533.78	1545.13
534.14	1561.52
534.50	1576.88
534.86	1592.65
535.21	1607.84
535.57	1623.76
535.93	1639.41
536.29	1654.12
536.65	1669.20
537.00	1684.08
537.36	1699.43
537.72	1714.01
538.08	1728.40
538.44	1742.10
538.79	1755.99
539.15	1769.62
539.51	1783.36
539.87	1797.77
540.22	1811.60
540.58	1825.34
540.94	1838.68
541.29	1851.67
541.65	1864.27
542.01	1877.60
542.37	1890.06
542.72	1902.42
543.08	1914.19
543.44	1926.49
543.79	1937.84
544.15	1948.89
544.51	1960.44
544.87	1971.51
545.22	1982.35
545.58	1992.54
545.94	2002.36
546.29	2012.29
546.65	2022.28
547.01	2031.38
547.36	2040.21
547.72	2048.59
548.07	2056.39
548.43	2064.72
548.79	2072.77
549.14	2080.33
549.50	2087.67
549.86	2095.34
550.21	2102.75
550.57	2109.86
550.92	2116.32
551.28	2123.30
551.64	2130.33
551.99	2136.84
552.35	2142.85
552.70	2149.01
553.06	2155.00
553.41	2161.28
553.77	2167.24
554.13	2173.34
554.48	2179.68
554.84	2184.96
555.19	2190.37
555.55	2195.62
555.90	2199.76
556.26	2204.70
556.61	2209.56
556.97	2213.74
557.32	2217.68
557.68	2221.79
558.03	2226.28
558.39	2229.99
558.74	2234.76
559.10	2238.50
559.45	2242.20
559.81	2246.59
560.16	2250.39
560.52	2253.67
560.87	2257.11
561.23	2259.83
561.58	2262.83
561.94	2265.32
562.29	2267.61
562.64	2270.09
563.00	2272.70
563.35	2276.38
563.71	2279.40
564.06	2282.42
564.42	2285.26
564.77	2287.93
565.12	2290.17
565.48	2291.93
565.83	2293.82
566.19	2295.01
566.54	2296.03
566.89	2297.09
567.25	2297.61
567.60	2298.91
567.96	2300.50
568.31	2301.33
568.66	2302.37
569.02	2302.89
569.37	2303.12
569.72	2304.12
570.08	2304.42
570.43	2304.43
570.78	2303.90
571.14	2302.39
571.49	2301.04
571.84	2300.78
572.20	2299.51
572.55	2298.39
572.90	2296.92
573.26	2295.53
573.61	2293.74
573.96	2291.95
574.31	2288.89
574.67	2285.89
575.02	2282.29
575.37	2278.93
575.72	2275.03
576.08	2271.74
576.43	2268.28
576.78	2264.57
577.13	2261.48
577.49	2258.36
577.84	2254.67
578.19	2250.84
578.54	2246.99
578.90	2242.89
579.25	2237.36
579.60	2232.41
579.95	2227.37
580.30	2222.27
580.66	2217.18
581.01	2212.33
581.36	2207.38
581.71	2203.14
582.06	2198.51
582.42	2193.98
582.77	2188.76
583.12	2184.19
583.47	2179.15
583.82	2174.20
584.17	2168.96
584.53	2163.36
584.88	2157.74
585.23	2151.91
585.58	2146.42
585.93	2141.03
586.28	2136.13
586.63	2130.96
586.98	2125.96
587.34	2121.28
587.69	2116.34
588.04	2110.84
588.39	2105.01
588.74	2098.49
589.09	2092.36
589.44	2085.61
589.79	2079.59
590.14	2073.91
590.49	2067.37
590.84	2061.21
591.19	2055.17
591.54	2048.59
591.89	2041.04
592.25	2034.15
592.60	2026.89
592.95	2019.15
593.30	2011.75
593.65	2004.16
594.00	1997.09
594.35	1989.79
594.70	1981.68
595.05	1974.39
595.40	1967.32
595.75	1959.96
596.10	1953.65
596.45	1946.82
596.80	1940.69
597.15	1934.03
597.50	1926.85
597.85	1920.49
598.19	1913.71
598.54	1906.40
598.89	1899.92
599.24	1894.08
599.59	1887.24
599.94	1881.16
600.29	1874.92
600.64	1868.47
600.99	1860.96
601.34	1854.06
601.69	1847.05
602.04	1840.18
602.39	1832.78
602.74	1825.81
603.08	1819.03
603.43	1812.35
603.78	1805.04
604.13	1797.86
604.48	1790.43
604.83	1783.58
605.18	1776.36
605.53	1768.35
605.87	1760.48
606.22	1753.12
606.57	1745.14
606.92	1737.90
607.27	1730.67
607.62	1723.67
607.96	1716.42
608.31	1709.80
608.66	1702.27
609.01	1694.63
609.36	1687.00
609.70	1679.13
610.05	1671.14
610.40	1663.34
610.75	1654.95
611.10	1647.30
611.44	1638.83
611.79	1630.87
612.14	1622.03
612.49	1612.90
612.83	1604.51
613.18	1596.36
613.53	1588.28
613.88	1579.78
614.22	1571.39
614.57	1562.70
614.92	1554.73
615.27	1547.04
615.61	1538.78
615.96	1530.67
616.31	1523.05
616.65	1515.65
617.00	1507.97
617.35	1500.18
617.70	1491.75
618.04	1483.25
618.39	1475.05
618.74	1467.38
619.08	1459.17
619.43	1451.68
619.78	1444.86
620.12	1437.73
620.47	1430.25
620.82	1422.09
621.16	1414.62
621.51	1407.10
621.85	1399.65
622.20	1391.12
622.55	1382.81
622.89	1374.86
623.24	1367.20
623.59	1359.87
623.93	1352.40
624.28	1345.19
624.62	1337.69
624.97	1330.56
625.32	1323.81
625.66	1316.84
626.01	1309.60
626.35	1302.09
626.70	1294.43
627.04	1286.66
627.39	1278.84
627.73	1271.44
628.08	1264.54
628.43	1257.24
628.77	1249.91
629.12	1242.24
629.46	1235.10
629.81	1227.56
630.15	1220.25
630.50	1212.91
630.84	1204.69
631.19	1196.81
631.53	1189.27
631.88	1181.69
632.22	1174.10
632.57	1166.82
632.91	1159.23
633.26	1151.99
633.60	1144.63
633.95	1137.64
634.29	1130.59
634.64	1124.01
634.98	1116.59
635.32	1109.45
635.67	1102.96
636.01	1096.29
636.36	1089.55
636.70	1083.00
637.05	1076.48
637.39	1070.16
637.73	1063.68
638.08	1057.77
638.42	1051.78
638.77	1045.36
639.11	1038.71
639.45	1032.37
639.80	1025.78
640.14	1019.35
640.49	1012.77
640.83	1006.43
641.17	1000.02
641.52	993.67
641.86	987.17
642.20	981.34
642.55	975.05
642.89	968.57
643.23	962.05
643.58	956.24
643.92	950.09
644.26	944.00
644.61	938.03
644.95	931.95
645.29	925.37
645.64	918.69
645.98	912.40
646.32	906.67
646.66	900.71
647.01	894.76
647.35	889.05
647.69	883.22
648.04	877.71
648.38	871.98
648.72	865.96
649.06	859.89
649.41	853.99
649.75	847.97
650.09	842.04
650.43	836.20
650.78	830.05
651.12	824.12
651.46	818.40
651.80	812.52
652.14	807.08
652.49	801.85
652.83	796.58
653.17	790.86
653.51	785.08
653.85	779.61
654.20	774.02
654.54	768.03
654.88	762.36
655.22	756.47
655.56	750.81
655.90	745.41
656.25	740.18
656.59	734.83
656.93	729.76
657.27	724.50
657.61	719.14
657.95	714.01
658.29	708.91
658.64	703.71
658.98	698.52
659.32	693.09
659.66	687.78
660.00	682.50
660.34	677.49
660.68	672.63
661.02	667.56
661.36	662.87
661.70	658.37
662.05	653.96
662.39	649.65
662.73	645.18
663.07	640.87
663.41	636.41
663.75	631.96
664.09	627.41
664.43	623.05
664.77	618.86
665.11	614.69
665.45	610.58
665.79	606.47
666.13	602.25
666.47	598.18
666.81	594.03
667.15	589.95
667.49	586.14
667.83	582.32
668.17	578.39
668.51	574.29
668.85	570.28
669.19	566.47
669.53	562.55
669.87	558.63
670.21	554.88
670.55	551.23
670.89	547.82
671.23	544.40
671.57	540.89
671.91	537.39
672.25	533.84
672.58	530.35
672.92	526.95
673.26	523.80
673.60	520.63
673.94	517.51
674.28	514.53
674.62	511.56
674.96	508.45
675.30	505.55
675.64	502.63
675.97	499.83
676.31	496.88
676.65	493.99
676.99	491.34
677.33	488.44
677.67	485.66
678.01	482.58
678.34	479.57
678.68	476.74
679.02	473.93
679.36	471.17
679.70	468.40
680.04	465.63
680.37	462.78
680.71	459.98
681.05	457.39
681.39	454.67
681.73	452.00
682.06	449.47
682.40	446.90
682.74	444.42
683.08	441.92
683.42	439.37
683.75	436.86
684.09	434.34
684.43	431.93
684.77	429.45
685.10	427.13
685.44	424.86
685.78	422.56
686.12	420.36
686.45	418.06
686.79	415.78
687.13	413.62
687.46	411.48
687.80	409.33
688.14	407.09
688.48	405.08
688.81	402.82
689.15	400.67
689.49	398.55
689.82	396.45
690.16	394.32
690.50	392.33
690.83	390.40
691.17	388.35
691.51	386.40
691.84	384.56
692.18	382.67
692.52	380.63
692.85	378.70
693.19	376.75
693.52	374.96
693.86	373.13
694.20	371.33
694.53	369.47
694.87	367.64
695.21	365.92
695.54	364.08
695.88	362.38
696.21	360.67
696.55	359.01
696.88	357.32
697.22	355.71
697.56	354.12
697.89	352.47
698.23	350.86
698.56	349.28
698.90	347.67
699.23	346.00
699.57	344.49
699.90	342.95
700.24	341.40
700.58	339.84
700.91	338.36
701.25	336.91
701.58	335.56
701.92	334.24
702.25	332.81
702.59	331.47
702.92	330.13
703.26	328.81
703.59	327.52
703.93	326.36
704.26	325.10
704.60	323.86
704.93	322.59
705.26	321.37
705.60	320.19
705.93	319.05
706.27	318.00
706.60	316.96
706.94	315.90
707.27	314.82
707.61	313.79
707.94	312.77
708.27	311.72
708.61	310.68
708.94	309.64
709.28	308.66
709.61	307.70
709.94	306.75
710.28	305.73
710.61	304.79
710.95	303.72
711.28	302.82
711.61	301.84
711.95	300.91
712.28	299.98
712.61	298.98
712.95	298.06
713.28	297.16
713.61	296.25
713.95	295.34
714.28	294.50
714.61	293.58
714.95	292.72
715.28	291.88
715.61	291.01
715.95	290.16
716.28	289.35
716.61	288.52
716.95	287.75
717.28	287.06
717.61	286.26
717.94	285.50
718.28	284.69
718.61	284.00
718.94	283.32
719.27	282.68
719.61	282.07
719.94	281.41
720.27	280.69
720.60	280.07
720.94	279.46
721.27	278.86
721.60	278.35
721.93	277.76
722.27	277.20
722.60	276.66
722.93	276.11
723.26	275.59
723.59	275.00
723.93	274.45
724.26	273.86
724.59	273.31
724.92	272.79
725.25	272.33
725.59	271.79
725.92	271.28
726.25	270.73
726.58	270.24
726.91	269.74
727.24	269.29
727.57	268.81
727.91	268.30
728.24	267.84
728.57	267.33
728.90	266.87
729.23	266.34
729.56	265.91
729.89	265.45
730.22	264.89
730.55	264.46
730.89	264.01
731.22	263.57
731.55	263.13
731.88	262.71
732.21	262.24
732.54	261.82
732.87	261.40
733.20	261.02
733.53	260.62
733.86	260.25
734.19	259.86
734.52	259.51
734.85	259.22
735.18	258.82
735.51	258.46
735.84	258.09
736.17	257.77
736.50	257.37
736.83	257.10
737.16	256.82
737.49	256.48
737.82	256.12
738.15	255.81
738.48	255.43
738.81	255.11
739.14	254.79
739.47	254.46
739.80	254.19
740.13	253.88
740.46	253.57
740.79	253.22
741.12	252.90
741.45	252.55
741.78	252.17
742.11	251.85
742.44	251.51
742.77	251.24
743.10	250.91
743.43	250.60
743.75	250.24
744.08	250.07
744.41	249.80
744.74	249.52
745.07	249.24
745.40	249.03
745.73	248.82
746.06	248.53
746.39	248.27
746.71	247.94
747.04	247.68
747.37	247.43
747.70	247.19
748.03	246.95
748.36	246.75
748.68	246.47
749.01	246.21
749.34	246.02
749.67	245.78
750.00	245.57
750.33	245.43
750.65	245.19
750.98	244.88
751.31	244.66
751.64	244.45
751.97	244.30
752.29	244.08
752.62	243.79
752.95	243.56
753.28	243.34
753.60	243.15
753.93	242.96
754.26	242.75
754.59	242.53
754.91	242.29
755.24	242.09
755.57	241.93
755.90	241.74
756.22	241.55
756.55	241.33
756.88	241.14
757.20	240.88
757.53	240.70
757.86	240.49
758.19	240.36
758.51	240.21
758.84	240.00
759.17	239.82
759.49	239.67
759.82	239.58
760.15	239.48
760.47	239.31
760.80	239.13
761.13	238.98
761.45	238.84
761.78	238.71
762.11	238.58
762.43	238.44
762.76	238.31
763.08	238.18
763.41	238.08
763.74	237.92
764.06	237.77
764.39	237.66
764.71	237.51
765.04	237.32
765.37	237.19
765.69	237.02
766.02	236.88
766.34	236.75
766.67	236.58
767.00	236.45
767.32	236.39
767.65	236.34
767.97	236.22
768.30	236.10
768.62	236.01
768.95	235.86
769.27	235.74
769.60	235.69
769.92	235.54
770.25	235.43
770.57	235.33
770.90	235.24
771.22	235.11
771.55	235.03
771.87	234.96
772.20	234.84
772.52	234.82
772.85	234.88
773.17	234.78
773.50	234.70
773.82	234.60
774.15	234.48
774.47	234.33
774.80	234.24
775.12	234.14
775.45	234.06
775.77	233.98
776.09	233.87
776.42	233.76
776.74	233.73
777.07	233.64
777.39	233.58
777.72	233.52
778.04	233.45
778.36	233.39
778.69	233.33
779.01	233.28
779.33	233.14
779.66	232.93
779.98	232.87
780.31	232.83
780.63	232.81
780.95	232.76
781.28	232.67
781.60	232.62
781.92	232.56
782.25	232.49
782.57	232.43
782.89	232.39
783.22	232.30
783.54	232.21
783.86	232.17
784.19	232.10
784.51	232.04
784.83	231.98
785.16	231.90
785.48	231.81
785.80	231.76
786.12	231.71
786.45	231.71
786.77	231.67
787.09	231.59
787.42	231.49
787.74	231.43
788.06	231.42
788.38	231.34
788.71	231.30
789.03	231.26
789.35	231.25
789.67	231.20
789.99	231.17
790.32	231.12
790.64	231.06
790.96	231.09
791.28	231.02
791.61	230.99
791.93	230.97
792.25	230.98
792.57	231.03
792.89	230.98
793.21	230.92
793.54	230.85
793.86	230.82
794.18	230.80
794.50	230.76
794.82	230.71
795.14	230.73
795.47	230.72
795.79	230.70
796.11	230.66
796.43	230.63
796.75	230.62
797.07	230.59
797.39	230.58
797.71	230.50
798.04	230.48
798.36	230.46
798.68	230.44
799.00	230.39
799.32	230.30
799.64	230.30
799.96	230.28
800.28	230.28
800.60	230.24
800.92	230.23
801.24	230.21
801.56	230.22
801.89	230.19
802.21	230.17
802.53	230.13
802.85	230.09
803.17	230.12
803.49	230.09
803.81	230.06
804.13	230.02
804.45	229.99
804.77	229.96
805.09	229.94
805.41	229.90
805.73	229.87
806.05	229.80
806.37	229.81
806.69	229.77
807.01	229.75
807.33	229.74
807.65	229.68
807.97	229.67
808.28	229.62
808.60	229.57
808.92	229.53
809.24	229.59
809.56	229.55
809.88	229.44
810.20	229.42
810.52	229.38
810.84	229.35
811.16	229.30
811.48	229.28
811.80	229.28
812.12	229.24
812.43	229.25
812.75	229.25
813.07	229.20
813.39	229.15
813.71	229.14
814.03	229.09
814.35	229.08
814.67	229.01
814.98	229.00
815.30	228.96
815.62	228.90
815.94	228.80
816.26	228.82
816.58	228.81
816.89	228.80
817.21	228.79
817.53	228.78
817.85	228.78
818.17	228.75
818.48	228.68
818.80	228.66
819.12	228.58
819.44	228.56
819.76	228.53
820.07	228.51
820.39	228.48
820.71	228.45
821.03	228.41
821.34	228.39
821.66	228.36
821.98	228.35
822.30	228.31
822.61	228.35
822.93	228.27
823.25	228.30
823.57	228.23
823.88	228.24
824.20	228.19
824.52	228.19
824.83	228.18
825.15	228.16
825.47	228.10
825.79	228.14
826.10	228.11
826.42	228.09
826.74	228.10
827.05	228.05
827.37	228.06
827.69	228.04
828.00	228.05
828.32	228.03
828.64	228.03
828.95	228.12
829.27	228.07
829.58	228.06
829.90	228.02
830.22	228.04
830.53	228.02
830.85	228.02
831.17	227.97
831.48	227.92
831.80	227.93
832.11	227.94
832.43	227.93
832.75	227.90
833.06	227.95
833.38	227.91
833.69	227.92
834.01	227.95
834.32	227.97
834.64	227.97
834.96	227.98
835.27	227.93
835.59	227.86
835.90	227.83
836.22	227.84
836.53	227.84
836.85	227.83
837.16	227.91
837.48	227.95
837.79	227.99
838.11	228.05
838.42	228.04
838.74	228.08
839.05	228.05
839.37	228.06
839.68	228.01
840.00	228.04
840.31	228.05
840.63	228.00
840.94	227.97
841.26	227.94
841.57	227.92
841.88	227.96
842.20	227.97
842.51	227.95
842.83	227.95
843.14	228.00
843.46	228.00
843.77	227.92
844.08	227.87
844.40	227.84
844.71	227.84
845.03	227.84
845.34	227.85
845.65	227.85
845.97	227.86
846.28	227.83
846.60	227.82
846.91	227.81
847.22	227.86
847.54	227.86
847.85	227.87
848.16	227.87
848.48	227.85
848.79	227.90
849.10	227.91
849.42	227.91
849.73	227.84
850.04	227.83
850.36	227.83
850.67	227.84
850.98	227.84
851.30	227.79
851.61	227.79
851.92	227.75
852.23	227.76
852.55	227.77
852.86	227.80
853.17	227.79
853.49	227.80
853.80	227.78
854.11	227.79
854.42	227.78
854.74	227.74
855.05	227.75
855.36	227.68
855.67	227.65
855.99	227.63
856.30	227.73
856.61	227.69
856.92	227.64
857.23	227.63
857.55	227.63
857.86	227.62
858.17	227.61
858.48	227.58
858.79	227.57
859.11	227.54
859.42	227.51
859.73	227.49
860.04	227.50
860.35	227.43
860.66	227.40
860.98	227.40
861.29	227.43
861.60	227.40
861.91	227.42
862.22	227.40
862.53	227.39
862.84	227.29
863.16	227.32
863.47	227.31
863.78	227.31
864.09	227.31
864.40	227.29
864.71	227.28
865.02	227.31
865.33	227.29
865.64	227.27
865.95	227.26
866.27	227.30
866.58	227.26
866.89	227.30
867.20	227.31
867.51	227.28
867.82	227.26
868.13	227.30
868.44	227.27
868.75	227.31
869.06	227.31
869.37	227.30
869.68	227.30
869.99	227.30
870.30	227.33
870.61	227.33
870.92	227.35
871.23	227.36
871.54	227.36
871.85	227.38
872.16	227.43
872.47	227.42
872.78	227.36
873.09	227.38
873.40	227.39
873.71	227.36
874.02	227.37
874.33	227.37
874.64	227.36
874.95	227.39
875.26	227.40
875.56	227.43
875.87	227.44
876.18	227.39
876.49	227.53
876.80	227.52
877.11	227.48
877.42	227.50
877.73	227.48
878.04	227.45
878.35	227.46
878.66	227.43
878.96	227.44
879.27	227.49
879.58	227.49
879.89	227.48
880.20	227.49
880.51	227.50
880.82	227.53
881.12	227.50
881.43	227.47
881.74	227.46
882.05	227.43
882.36	227.46
882.67	227.51
882.97	227.41
883.28	227.39
883.59	227.40
883.90	227.42
884.21	227.46
884.51	227.47
884.82	227.45
885.13	227.49
885.44	227.52
885.74	227.49
886.05	227.51
886.36	227.52
886.67	227.51
886.98	227.56
887.28	227.54
887.59	227.56
887.90	227.55
888.20	227.51
888.51	227.56
888.82	227.51
889.13	227.48
889.43	227.52
889.74	227.53
890.05	227.52
890.35	227.48
890.66	227.44
890.97	227.40
891.28	227.40
891.58	227.34
891.89	227.31
892.20	227.32
892.50	227.26
892.81	227.24
893.12	227.22
893.42	227.17
893.73	227.18
894.04	227.16
894.34	227.18
894.65	227.19
894.95	227.12
895.26	227.14
895.57	227.19
895.87	227.12
896.18	227.09
896.48	227.10
896.79	227.09
897.10	227.10
897.40	227.12
897.71	227.09
898.01	227.10
898.32	227.11
898.63	227.07
898.93	227.05
899.24	227.05
899.54	227.09
899.85	227.08
900.15	227.06
900.46	227.06
900.76	227.06
901.07	227.06
901.38	227.08
901.68	227.10
901.99	227.06
902.29	227.08
902.60	227.08
902.90	227.06
903.21	227.07
903.51	227.07
903.82	227.08
904.12	227.10
904.43	227.14
904.73	227.11
905.03	227.12
905.34	227.21
905.64	227.20
905.95	227.19
906.25	227.19
906.56	227.18
906.86	227.19
907.17	227.16
907.47	227.16
907.77	227.15
908.08	227.09
908.38	227.10
908.69	227.08
908.99	227.12
909.30	227.11
909.60	227.09
909.90	227.06
910.21	227.07
910.51	227.06
910.81	227.00
911.12	227.01
911.42	227.01
911.73	226.94
912.03	226.94
912.33	226.97
912.64	226.99
912.94	226.97
913.24	226.93
913.55	226.95
913.85	226.95
914.15	226.98
914.46	227.01
914.76	226.97
915.06	227.00
915.37	226.93
915.67	226.96
915.97	226.96
916.27	226.97
916.58	226.96
916.88	226.96
917.18	226.99
917.49	227.04
917.79	227.07
918.09	227.11
918.39	227.15
918.70	227.16
919.00	227.16
919.30	227.23
919.60	227.25
919.91	227.24
920.21	227.23
920.51	227.20
920.81	227.18
921.12	227.23
921.42	227.20
921.72	227.23
922.02	227.25
922.32	227.27
922.63	227.29
922.93	227.35
923.23	227.36
923.53	227.34
923.83	227.28
924.13	227.27
924.44	227.23
924.74	227.25
925.04	227.26
925.34	227.23
925.64	227.19
925.94	227.19
926.24	227.24
926.55	227.23
926.85	227.26
927.15	227.29
927.45	227.28
927.75	227.30
928.05	227.31
928.35	227.31
928.65	227.34
928.95	227.36
929.26	227.31
929.56	227.30
929.86	227.34
930.16	227.31
930.46	227.29
930.76	227.34
931.06	227.29
931.36	227.25
931.66	227.28
931.96	227.29
932.26	227.28
932.56	227.25
932.86	227.27
933.16	227.26
933.46	227.27
933.76	227.26
934.06	227.24
934.36	227.26
934.66	227.24
934.96	227.20
935.26	227.16
935.56	227.18
935.86	227.16
936.16	227.12
936.46	227.13
936.76	227.11
937.06	227.06
937.36	227.04
937.66	227.04
937.96	227.03
938.26	227.00
938.56	227.00
938.86	226.97
939.16	226.96
939.46	226.97
939.76	226.92
940.06	226.89
940.35	226.89
940.65	226.84
940.95	226.83
941.25	226.81
941.55	226.80
941.85	226.77
942.15	226.80
942.45	226.82
942.75	226.82
943.04	226.85
943.34	226.87
943.64	226.80
943.94	226.78
944.24	226.78
944.54	226.77
944.84	226.77
945.13	226.75
945.43	226.76
945.73	226.73
946.03	226.73
946.33	226.72
946.62	226.70
946.92	226.67
947.22	226.68
947.52	226.67
947.82	226.67
948.11	226.63
948.41	226.60
948.71	226.55
949.01	226.54
949.31	226.53
949.60	226.47
949.90	226.54
950.20	226.54
950.50	226.52
950.79	226.52
951.09	226.54
951.39	226.56
951.69	226.54
951.98	226.57
952.28	226.58
952.58	226.55
952.87	226.54
953.17	226.59
953.47	226.58
953.76	226.60
954.06	226.58
954.36	226.61
954.66	226.63
954.95	226.68
955.25	226.68
955.55	226.68
955.84	226.70
956.14	226.69
956.44	226.72
956.73	226.72
957.03	226.72
957.32	226.73
957.62	226.71
957.92	226.72
958.21	226.72
958.51	226.82
958.81	226.85
959.10	226.88
959.40	226.91
959.69	226.95
959.99	226.98
960.29	227.01
960.58	227.02
960.88	227.04
961.17	227.06
961.47	227.08
961.76	227.08
962.06	227.13
962.36	227.10
962.65	227.12
962.95	227.13
963.24	227.13
963.54	227.11
963.83	227.12
964.13	227.12
964.42	227.13
964.72	227.06
965.01	227.06
965.31	227.06
965.60	227.02
965.90	227.06
966.19	227.02
966.49	227.02
966.78	227.02
967.08	227.00
967.37	227.00
967.67	227.01
967.96	227.02
968.26	227.01
968.55	227.05
968.85	227.03
969.14	227.04
969.43	227.04
969.73	227.04
970.02	227.05
970.32	227.08
970.61	227.05
970.91	227.03
971.20	227.03
971.49	227.04
971.79	227.07
972.08	227.01
972.38	227.02
972.67	227.02
972.96	227.03
973.26	227.00
973.55	227.04
973.85	227.04
974.14	227.03
974.43	227.03
974.73	227.00
975.02	227.01
975.31	226.99
975.61	227.01
975.90	226.98
976.19	226.96
976.49	226.91
976.78	226.93
977.07	226.92
977.37	226.90
977.66	226.91
977.95	226.85
978.24	226.84
978.54	226.85
978.83	226.87
979.12	226.83
979.42	226.82
979.71	226.76
980.00	226.73
980.29	226.72
980.59	226.71
980.88	226.75
981.17	226.74
981.46	226.73
981.76	226.68
982.05	226.72
982.34	226.72
982.63	226.75
982.93	226.71
983.22	226.71
983.51	226.76
983.80	226.73
984.09	226.74
984.39	226.73
984.68	226.71
984.97	226.68
985.26	226.65
985.55	226.65
985.85	226.66
986.14	226.67
986.43	226.68
986.72	226.67
987.01	226.59
987.30	226.58
987.59	226.56
987.89	226.61
988.18	226.57
988.47	226.57
988.76	226.54
989.05	226.57
989.34	226.56
989.63	226.58
989.92	226.61
990.22	226.62
990.51	226.61
990.80	226.60
991.09	226.64
991.38	226.68
991.67	226.69
991.96	226.62
992.25	226.65
992.54	226.65
992.83	226.66
993.12	226.68
993.41	226.68
993.70	226.76
993.99	226.78
994.28	226.82
994.58	226.85
994.87	226.89
995.16	226.89
995.45	226.88
995.74	226.86
996.03	226.87
996.32	226.87
996.61	226.90
996.90	226.92
997.19	226.89
997.48	226.90
997.77	226.89
998.06	226.95
998.34	226.95
998.63	226.95
998.92	226.95
999.21	226.97
999.50	227.02
999.79	226.98
1000.08	226.94
1000.37	226.93
1000.66	226.94
1000.95	226.93
1001.24	226.93
1001.53	226.98
1001.82	226.96
1002.11	226.97
1002.40	227.00
1002.68	227.03
1002.97	227.12
1003.26	227.13
1003.55	227.13
1003.84	227.14
1004.13	227.17
1004.42	227.17
1004.71	227.17
1004.99	227.20
1005.28	227.23
1005.57	227.20
1005.86	227.17
1006.15	227.18
1006.44	227.18
1006.72	227.16
1007.01	227.14
1007.30	227.14
1007.59	227.10
1007.88	227.08
1008.17	227.05
1008.45	226.99
1008.74	226.94
1009.03	226.87
1009.32	226.84
1009.60	226.85
1009.89	226.81
1010.18	226.78
1010.47	226.74
1010.76	226.77
1011.04	226.75
1011.33	226.70
1011.62	226.71
1011.91	226.75
1012.19	226.75
1012.48	226.73
1012.77	226.75
1013.05	226.79
1013.34	226.78
1013.63	226.79
1013.92	226.81
1014.20	226.83
1014.49	226.82
1014.78	226.83
1015.06	226.81
1015.35	226.84
1015.64	226.84
1015.92	226.89
1016.21	226.88
1016.50	226.91
1016.78	226.87
1017.07	226.90
1017.36	226.90
1017.64	226.88
1017.93	226.87
1018.22	226.85
1018.50	226.85
1018.79	226.83
1019.08	226.85
1019.36	226.84
1019.65	226.82
1019.93	226.82
1020.22	226.82
1020.51	226.91
1020.79	226.88
1021.08	226.41
1021.36	226.53
1021.65	226.99
1021.94	227.80
1022.22	226.77
1022.51	226.25
1022.79	226.95
1023.08	226.99
1023.36	228.20
1023.65	226.23
>>>>>End Processed Spectral Data<<<<<
