SpectraSuite Data File
++++++++++++++++++++++++++++++++++++
Date: Fri Feb 01 16:00:57 EST 2013
User: group
Dark Spectrum Present: No
Reference Spectrum Present: No
Number of Sampled Component Spectra: 1
Spectrometers: USB2E7196
Integration Time (usec): 35000 (USB2E7196)
Spectra Averaged: 100 (USB2E7196)
Boxcar Smoothing: 10 (USB2E7196)
Correct for Electrical Dark: No (USB2E7196)
Strobe/Lamp Enabled: No (USB2E7196)
Correct for Detector Non-linearity: No (USB2E7196)
Correct for Stray Light: No (USB2E7196)
Number of Pixels in Processed Spectrum: 2048
>>>>>Begin Processed Spectral Data<<<<<
339.09	0.00
339.48	214.75
339.86	215.89
340.24	217.40
340.63	219.04
341.01	222.02
341.39	221.36
341.78	222.53
342.16	224.34
342.54	224.87
342.93	212.94
343.31	223.69
343.69	224.22
344.07	224.66
344.46	225.10
344.84	225.45
345.22	225.64
345.60	225.90
345.99	226.08
346.37	226.21
346.75	226.28
347.13	226.32
347.52	226.35
347.90	226.45
348.28	226.47
348.66	226.49
349.05	226.49
349.43	226.52
349.81	226.55
350.19	226.56
350.57	226.62
350.96	226.65
351.34	226.71
351.72	226.78
352.10	226.89
352.48	226.91
352.87	226.97
353.25	227.04
353.63	227.08
354.01	227.15
354.39	227.23
354.77	227.31
355.15	227.44
355.54	227.51
355.92	227.51
356.30	227.59
356.68	227.72
357.06	227.81
357.44	227.85
357.82	227.91
358.20	228.02
358.58	228.09
358.97	228.20
359.35	228.33
359.73	228.43
360.11	228.50
360.49	228.60
360.87	228.68
361.25	228.76
361.63	228.85
362.01	228.90
362.39	228.93
362.77	229.00
363.15	229.03
363.53	229.07
363.91	229.12
364.29	229.18
364.67	229.14
365.05	229.19
365.43	229.23
365.81	229.29
366.19	229.35
366.57	229.40
366.95	229.41
367.33	229.39
367.71	229.39
368.09	229.41
368.47	229.42
368.85	229.40
369.23	229.42
369.61	229.41
369.99	229.44
370.37	229.41
370.75	229.41
371.13	229.37
371.51	229.31
371.89	229.33
372.27	229.28
372.65	229.24
373.03	229.14
373.41	229.11
373.78	229.04
374.16	228.91
374.54	228.81
374.92	228.76
375.30	228.68
375.68	228.59
376.06	228.51
376.44	228.44
376.82	228.37
377.19	228.29
377.57	228.20
377.95	228.09
378.33	228.03
378.71	227.91
379.09	227.84
379.47	227.78
379.84	227.70
380.22	227.63
380.60	227.53
380.98	227.50
381.36	227.44
381.73	227.37
382.11	227.36
382.49	227.32
382.87	227.25
383.25	227.21
383.62	227.27
384.00	227.19
384.38	227.11
384.76	227.10
385.13	227.07
385.51	227.02
385.89	226.94
386.27	226.90
386.64	226.86
387.02	226.82
387.40	226.78
387.78	226.73
388.15	226.71
388.53	226.68
388.91	226.63
389.29	226.60
389.66	226.59
390.04	226.51
390.42	226.49
390.79	226.46
391.17	226.44
391.55	226.32
391.92	226.30
392.30	226.29
392.68	226.22
393.05	226.22
393.43	226.20
393.81	226.21
394.18	226.17
394.56	226.18
394.94	226.19
395.31	226.18
395.69	226.22
396.06	226.24
396.44	226.29
396.82	226.31
397.19	226.35
397.57	226.37
397.95	226.47
398.32	226.48
398.70	226.54
399.07	226.60
399.45	226.64
399.82	226.73
400.20	226.77
400.58	226.87
400.95	226.90
401.33	227.02
401.70	227.18
402.08	227.31
402.45	227.37
402.83	227.50
403.20	227.63
403.58	227.71
403.95	227.81
404.33	227.93
404.71	228.05
405.08	228.24
405.46	228.37
405.83	228.49
406.21	228.65
406.58	228.80
406.96	228.95
407.33	229.14
407.70	229.33
408.08	229.63
408.45	229.85
408.83	230.08
409.20	230.29
409.58	230.47
409.95	230.74
410.33	231.05
410.70	231.30
411.08	231.60
411.45	231.93
411.82	232.23
412.20	232.59
412.57	233.02
412.95	233.34
413.32	233.76
413.69	234.20
414.07	234.66
414.44	235.14
414.82	235.61
415.19	236.17
415.56	236.70
415.94	237.25
416.31	237.90
416.68	238.55
417.06	239.25
417.43	239.95
417.81	240.73
418.18	241.50
418.55	242.35
418.93	243.21
419.30	244.10
419.67	245.06
420.04	246.04
420.42	247.03
420.79	248.22
421.16	249.35
421.54	250.52
421.91	251.70
422.28	252.95
422.66	254.29
423.03	255.58
423.40	256.93
423.77	258.33
424.15	259.76
424.52	261.25
424.89	262.88
425.26	264.43
425.64	265.84
426.01	267.44
426.38	269.09
426.75	270.79
427.13	272.56
427.50	274.40
427.87	276.27
428.24	278.13
428.61	279.86
428.99	281.79
429.36	283.86
429.73	285.89
430.10	287.89
430.47	289.96
430.85	292.07
431.22	294.33
431.59	296.71
431.96	298.96
432.33	301.43
432.70	303.76
433.08	306.55
433.45	309.20
433.82	311.80
434.19	314.63
434.56	317.42
434.93	320.06
435.30	322.63
435.68	325.52
436.05	328.36
436.42	331.15
436.79	333.67
437.16	336.38
437.53	339.22
437.90	342.07
438.27	344.80
438.64	347.64
439.01	350.17
439.38	352.39
439.75	354.54
440.13	357.02
440.50	359.33
440.87	361.17
441.24	363.09
441.61	365.25
441.98	366.75
442.35	368.50
442.72	370.29
443.09	372.12
443.46	373.05
443.83	373.59
444.20	374.07
444.57	374.90
444.94	375.22
445.31	375.56
445.68	375.90
446.05	375.93
446.42	375.53
446.79	375.12
447.16	374.61
447.53	374.29
447.90	373.10
448.27	371.94
448.64	370.32
449.01	369.16
449.37	367.14
449.74	365.24
450.11	363.03
450.48	360.60
450.85	358.06
451.22	355.94
451.59	353.93
451.96	351.97
452.33	349.36
452.70	346.95
453.07	344.12
453.43	341.18
453.80	338.42
454.17	335.72
454.54	333.21
454.91	330.55
455.28	327.87
455.65	325.40
456.02	322.95
456.38	320.82
456.75	318.19
457.12	315.96
457.49	313.74
457.86	311.60
458.23	309.73
458.59	307.66
458.96	305.58
459.33	303.71
459.70	301.87
460.07	300.37
460.43	298.69
460.80	297.06
461.17	295.63
461.54	294.18
461.91	292.76
462.27	291.32
462.64	290.06
463.01	288.72
463.38	287.42
463.74	286.10
464.11	284.98
464.48	283.95
464.85	282.87
465.21	282.02
465.58	281.10
465.95	280.02
466.32	279.11
466.68	278.23
467.05	277.37
467.42	276.46
467.78	275.54
468.15	274.65
468.52	274.01
468.88	273.20
469.25	272.38
469.62	271.80
469.98	271.12
470.35	270.49
470.72	269.89
471.08	269.30
471.45	268.78
471.82	268.23
472.18	267.65
472.55	267.22
472.92	266.69
473.28	266.25
473.65	265.82
474.02	265.39
474.38	265.00
474.75	264.68
475.11	264.38
475.48	264.11
475.85	263.91
476.21	263.68
476.58	263.49
476.94	263.41
477.31	263.24
477.67	263.08
478.04	262.97
478.41	262.90
478.77	262.91
479.14	262.83
479.50	262.82
479.87	262.87
480.23	262.96
480.60	263.05
480.96	263.12
481.33	263.31
481.69	263.54
482.06	263.79
482.42	264.00
482.79	264.24
483.15	264.53
483.52	264.90
483.88	265.25
484.25	265.61
484.61	265.97
484.98	266.40
485.34	266.97
485.71	267.53
486.07	268.12
486.44	268.67
486.80	269.40
487.17	270.18
487.53	271.00
487.90	271.82
488.26	272.76
488.62	273.72
488.99	274.67
489.35	275.70
489.72	276.82
490.08	278.03
490.44	279.31
490.81	280.70
491.17	282.05
491.54	283.53
491.90	285.08
492.26	286.75
492.63	288.46
492.99	290.27
493.36	292.23
493.72	294.27
494.08	296.40
494.45	298.67
494.81	300.98
495.17	303.40
495.54	305.99
495.90	308.66
496.26	311.53
496.63	314.51
496.99	317.64
497.35	320.87
497.72	324.29
498.08	327.79
498.44	331.43
498.80	335.33
499.17	339.37
499.53	343.59
499.89	347.97
500.26	352.55
500.62	357.24
500.98	362.23
501.34	367.35
501.71	372.70
502.07	378.11
502.43	383.80
502.79	389.66
503.16	395.76
503.52	402.07
503.88	408.49
504.24	415.20
504.60	422.10
504.97	429.23
505.33	436.55
505.69	444.26
506.05	452.06
506.41	460.00
506.78	468.22
507.14	476.64
507.50	485.43
507.86	494.42
508.22	503.58
508.59	512.79
508.95	522.45
509.31	532.28
509.67	542.42
510.03	552.69
510.39	563.24
510.75	574.07
511.12	585.04
511.48	596.33
511.84	607.66
512.20	619.16
512.56	631.14
512.92	643.35
513.28	655.71
513.64	668.26
514.00	680.99
514.37	693.92
514.73	706.96
515.09	719.96
515.45	733.22
515.81	746.83
516.17	760.81
516.53	774.86
516.89	788.97
517.25	803.15
517.61	817.58
517.97	832.08
518.33	846.49
518.69	861.17
519.05	876.18
519.41	891.35
519.77	906.88
520.13	922.35
520.49	937.64
520.85	953.02
521.21	968.64
521.57	984.76
521.93	1000.46
522.29	1016.86
522.65	1033.09
523.01	1049.28
523.37	1065.28
523.73	1081.37
524.09	1097.40
524.45	1113.68
524.81	1130.20
525.17	1147.02
525.53	1163.74
525.89	1180.59
526.25	1197.44
526.61	1213.71
526.97	1230.47
527.33	1246.96
527.68	1263.40
528.04	1279.86
528.40	1296.39
528.76	1313.46
529.12	1330.07
529.48	1346.94
529.84	1362.81
530.20	1379.41
530.56	1396.37
530.91	1413.71
531.27	1430.44
531.63	1446.88
531.99	1463.38
532.35	1479.36
532.71	1495.17
533.07	1511.41
533.42	1527.21
533.78	1543.16
534.14	1559.28
534.50	1574.50
534.86	1590.27
535.21	1605.39
535.57	1621.25
535.93	1636.80
536.29	1651.61
536.65	1666.51
537.00	1681.27
537.36	1696.60
537.72	1711.07
538.08	1725.56
538.44	1739.32
538.79	1753.16
539.15	1766.80
539.51	1780.57
539.87	1794.83
540.22	1808.50
540.58	1822.25
540.94	1835.53
541.29	1848.39
541.65	1861.16
542.01	1874.43
542.37	1886.79
542.72	1899.26
543.08	1910.96
543.44	1923.31
543.79	1934.51
544.15	1945.59
544.51	1957.18
544.87	1968.15
545.22	1978.90
545.58	1989.10
545.94	1998.86
546.29	2008.75
546.65	2018.59
547.01	2027.93
547.36	2036.74
547.72	2045.21
548.07	2053.11
548.43	2061.26
548.79	2069.28
549.14	2076.85
549.50	2084.08
549.86	2091.66
550.21	2098.99
550.57	2106.33
550.92	2112.71
551.28	2119.58
551.64	2126.64
551.99	2133.12
552.35	2139.26
552.70	2145.62
553.06	2151.52
553.41	2157.81
553.77	2163.82
554.13	2170.01
554.48	2176.18
554.84	2181.59
555.19	2186.83
555.55	2191.95
555.90	2196.44
556.26	2201.37
556.61	2206.07
556.97	2210.60
557.32	2214.85
557.68	2219.00
558.03	2223.25
558.39	2227.10
558.74	2231.92
559.10	2235.72
559.45	2239.38
559.81	2243.83
560.16	2247.46
560.52	2250.68
560.87	2254.09
561.23	2256.66
561.58	2259.55
561.94	2261.98
562.29	2264.33
562.64	2267.05
563.00	2269.72
563.35	2273.26
563.71	2276.39
564.06	2279.74
564.42	2282.41
564.77	2284.74
565.12	2287.00
565.48	2288.78
565.83	2290.65
566.19	2291.83
566.54	2292.73
566.89	2293.85
567.25	2294.18
567.60	2295.54
567.96	2297.32
568.31	2298.37
568.66	2299.51
569.02	2300.06
569.37	2300.30
569.72	2301.28
570.08	2301.59
570.43	2301.63
570.78	2301.01
571.14	2299.47
571.49	2297.90
571.84	2297.64
572.20	2296.58
572.55	2295.57
572.90	2294.16
573.26	2292.74
573.61	2291.13
573.96	2289.42
574.31	2286.44
574.67	2283.66
575.02	2280.12
575.37	2276.73
575.72	2272.72
576.08	2269.55
576.43	2266.27
576.78	2262.73
577.13	2259.57
577.49	2256.46
577.84	2252.98
578.19	2249.37
578.54	2245.78
578.90	2241.76
579.25	2236.21
579.60	2231.18
579.95	2226.18
580.30	2221.12
580.66	2215.91
581.01	2211.01
581.36	2206.10
581.71	2201.86
582.06	2197.37
582.42	2192.89
582.77	2187.64
583.12	2183.16
583.47	2178.32
583.82	2173.35
584.17	2168.08
584.53	2162.45
584.88	2156.76
585.23	2151.03
585.58	2145.57
585.93	2140.16
586.28	2135.34
586.63	2130.36
586.98	2125.45
587.34	2120.71
587.69	2115.85
588.04	2110.73
588.39	2104.94
588.74	2098.55
589.09	2092.54
589.44	2085.80
589.79	2079.89
590.14	2074.38
590.49	2067.83
590.84	2061.52
591.19	2055.47
591.54	2048.91
591.89	2041.56
592.25	2034.72
592.60	2027.50
592.95	2019.90
593.30	2012.59
593.65	2005.11
594.00	1998.14
594.35	1990.89
594.70	1982.89
595.05	1975.69
595.40	1968.42
595.75	1960.94
596.10	1954.70
596.45	1947.99
596.80	1941.87
597.15	1935.13
597.50	1928.04
597.85	1921.71
598.19	1915.00
598.54	1907.80
598.89	1901.30
599.24	1895.38
599.59	1888.70
599.94	1882.45
600.29	1876.14
600.64	1869.52
600.99	1861.98
601.34	1854.94
601.69	1847.88
602.04	1841.00
602.39	1833.67
602.74	1826.81
603.08	1820.12
603.43	1813.44
603.78	1806.02
604.13	1798.68
604.48	1791.32
604.83	1784.34
605.18	1777.23
605.53	1769.17
605.87	1761.19
606.22	1753.90
606.57	1746.02
606.92	1738.81
607.27	1731.57
607.62	1724.61
607.96	1717.29
608.31	1710.59
608.66	1703.09
609.01	1695.59
609.36	1687.92
609.70	1679.95
610.05	1671.83
610.40	1664.15
610.75	1655.83
611.10	1648.09
611.44	1639.82
611.79	1631.83
612.14	1623.16
612.49	1614.00
612.83	1605.68
613.18	1597.63
613.53	1589.54
613.88	1580.92
614.22	1572.46
614.57	1563.94
614.92	1555.87
615.27	1548.20
615.61	1539.93
615.96	1531.77
616.31	1524.14
616.65	1516.90
617.00	1509.22
617.35	1501.58
617.70	1493.20
618.04	1484.75
618.39	1476.62
618.74	1468.91
619.08	1460.64
619.43	1453.08
619.78	1446.20
620.12	1438.99
620.47	1431.43
620.82	1423.27
621.16	1416.01
621.51	1408.49
621.85	1400.88
622.20	1392.33
622.55	1384.12
622.89	1376.26
623.24	1368.81
623.59	1361.48
623.93	1354.01
624.28	1346.87
624.62	1339.38
624.97	1332.28
625.32	1325.45
625.66	1318.45
626.01	1311.24
626.35	1303.80
626.70	1296.07
627.04	1288.33
627.39	1280.58
627.73	1273.10
628.08	1266.19
628.43	1258.73
628.77	1251.31
629.12	1243.75
629.46	1236.77
629.81	1229.33
630.15	1222.13
630.50	1214.59
630.84	1206.42
631.19	1198.41
631.53	1190.83
631.88	1183.35
632.22	1175.65
632.57	1168.38
632.91	1160.78
633.26	1153.44
633.60	1145.96
633.95	1138.76
634.29	1131.77
634.64	1125.04
634.98	1117.82
635.32	1110.62
635.67	1104.04
636.01	1097.34
636.36	1090.47
636.70	1083.81
637.05	1077.31
637.39	1070.83
637.73	1064.39
638.08	1058.38
638.42	1052.42
638.77	1046.06
639.11	1039.41
639.45	1033.00
639.80	1026.33
640.14	1019.98
640.49	1013.42
640.83	1007.16
641.17	1000.90
641.52	994.46
641.86	988.05
642.20	982.17
642.55	975.90
642.89	969.50
643.23	963.00
643.58	957.15
643.92	950.90
644.26	944.63
644.61	938.61
644.95	932.56
645.29	925.99
645.64	919.20
645.98	912.82
646.32	906.95
646.66	900.98
647.01	895.17
647.35	889.40
647.69	883.51
648.04	877.98
648.38	872.23
648.72	866.26
649.06	860.19
649.41	854.23
649.75	848.16
650.09	842.20
650.43	836.43
650.78	830.38
651.12	824.42
651.46	818.77
651.80	813.03
652.14	807.59
652.49	802.23
652.83	797.07
653.17	791.35
653.51	785.58
653.85	780.11
654.20	774.41
654.54	768.43
654.88	762.72
655.22	756.88
655.56	751.22
655.90	745.83
656.25	740.64
656.59	735.31
656.93	730.34
657.27	725.14
657.61	719.74
657.95	714.63
658.29	709.60
658.64	704.40
658.98	699.04
659.32	693.53
659.66	688.35
660.00	682.95
660.34	678.04
660.68	673.21
661.02	668.20
661.36	663.57
661.70	659.04
662.05	654.67
662.39	650.32
662.73	645.86
663.07	641.47
663.41	636.95
663.75	632.44
664.09	627.79
664.43	623.40
664.77	619.28
665.11	615.04
665.45	610.90
665.79	606.82
666.13	602.76
666.47	598.73
666.81	594.58
667.15	590.53
667.49	586.61
667.83	582.80
668.17	578.87
668.51	574.76
668.85	570.75
669.19	566.95
669.53	563.09
669.87	559.17
670.21	555.45
670.55	551.79
670.89	548.40
671.23	544.95
671.57	541.45
671.91	537.83
672.25	534.33
672.58	530.82
672.92	527.37
673.26	524.16
673.60	521.04
673.94	517.90
674.28	514.98
674.62	511.99
674.96	508.85
675.30	505.92
675.64	502.97
675.97	500.15
676.31	497.25
676.65	494.34
676.99	491.64
677.33	488.78
677.67	486.01
678.01	482.94
678.34	480.01
678.68	477.13
679.02	474.38
679.36	471.56
679.70	468.87
680.04	466.12
680.37	463.26
680.71	460.43
681.05	457.81
681.39	455.09
681.73	452.42
682.06	449.85
682.40	447.29
682.74	444.79
683.08	442.26
683.42	439.66
683.75	437.14
684.09	434.63
684.43	432.15
684.77	429.69
685.10	427.37
685.44	425.06
685.78	422.71
686.12	420.47
686.45	418.21
686.79	415.93
687.13	413.73
687.46	411.56
687.80	409.40
688.14	407.21
688.48	405.15
688.81	402.94
689.15	400.82
689.49	398.69
689.82	396.61
690.16	394.55
690.50	392.64
690.83	390.71
691.17	388.71
691.51	386.82
691.84	384.95
692.18	382.98
692.52	380.99
692.85	379.11
693.19	377.18
693.52	375.40
693.86	373.54
694.20	371.77
694.53	369.99
694.87	368.16
695.21	366.36
695.54	364.58
695.88	362.90
696.21	361.19
696.55	359.49
696.88	357.79
697.22	356.13
697.56	354.48
697.89	352.79
698.23	351.19
698.56	349.60
698.90	348.01
699.23	346.37
699.57	344.81
699.90	343.27
700.24	341.72
700.58	340.16
700.91	338.64
701.25	337.17
701.58	335.79
701.92	334.47
702.25	333.13
702.59	331.74
702.92	330.40
703.26	329.13
703.59	327.86
703.93	326.64
704.26	325.41
704.60	324.15
704.93	322.87
705.26	321.63
705.60	320.42
705.93	319.26
706.27	318.23
706.60	317.17
706.94	316.09
707.27	314.98
707.61	313.89
707.94	312.88
708.27	311.82
708.61	310.75
708.94	309.69
709.28	308.69
709.61	307.76
709.94	306.78
710.28	305.71
710.61	304.70
710.95	303.69
711.28	302.78
711.61	301.80
711.95	300.93
712.28	300.01
712.61	299.05
712.95	298.12
713.28	297.25
713.61	296.38
713.95	295.50
714.28	294.65
714.61	293.80
714.95	292.95
715.28	292.05
715.61	291.17
715.95	290.32
716.28	289.49
716.61	288.63
716.95	287.81
717.28	287.06
717.61	286.33
717.94	285.59
718.28	284.77
718.61	284.06
718.94	283.35
719.27	282.68
719.61	282.06
719.94	281.42
720.27	280.68
720.60	279.99
720.94	279.37
721.27	278.79
721.60	278.20
721.93	277.56
722.27	277.02
722.60	276.44
722.93	275.88
723.26	275.33
723.59	274.75
723.93	274.20
724.26	273.62
724.59	273.04
724.92	272.53
725.25	272.02
725.59	271.49
725.92	270.99
726.25	270.48
726.58	269.97
726.91	269.48
727.24	269.01
727.57	268.58
727.91	268.08
728.24	267.62
728.57	267.12
728.90	266.76
729.23	266.26
729.56	265.84
729.89	265.37
730.22	264.87
730.55	264.42
730.89	263.98
731.22	263.58
731.55	263.15
731.88	262.69
732.21	262.27
732.54	261.82
732.87	261.42
733.20	261.00
733.53	260.60
733.86	260.23
734.19	259.85
734.52	259.46
734.85	259.15
735.18	258.76
735.51	258.42
735.84	257.99
736.17	257.68
736.50	257.24
736.83	257.02
737.16	256.70
737.49	256.39
737.82	256.03
738.15	255.70
738.48	255.36
738.81	255.08
739.14	254.75
739.47	254.43
739.80	254.13
740.13	253.81
740.46	253.52
740.79	253.13
741.12	252.86
741.45	252.54
741.78	252.20
742.11	251.89
742.44	251.53
742.77	251.25
743.10	250.93
743.43	250.68
743.75	250.30
744.08	250.15
744.41	249.91
744.74	249.65
745.07	249.35
745.40	249.11
745.73	248.87
746.06	248.61
746.39	248.35
746.71	248.05
747.04	247.81
747.37	247.51
747.70	247.29
748.03	247.02
748.36	246.79
748.68	246.51
749.01	246.26
749.34	246.10
749.67	245.91
750.00	245.67
750.33	245.51
750.65	245.29
750.98	244.92
751.31	244.65
751.64	244.45
751.97	244.28
752.29	244.04
752.62	243.76
752.95	243.54
753.28	243.34
753.60	243.16
753.93	242.94
754.26	242.77
754.59	242.53
754.91	242.30
755.24	242.09
755.57	241.92
755.90	241.72
756.22	241.47
756.55	241.22
756.88	241.05
757.20	240.81
757.53	240.62
757.86	240.45
758.19	240.29
758.51	240.10
758.84	239.92
759.17	239.76
759.49	239.60
759.82	239.49
760.15	239.33
760.47	239.15
760.80	238.97
761.13	238.80
761.45	238.63
761.78	238.48
762.11	238.30
762.43	238.16
762.76	238.02
763.08	237.92
763.41	237.80
763.74	237.63
764.06	237.49
764.39	237.34
764.71	237.20
765.04	237.08
765.37	236.94
765.69	236.81
766.02	236.66
766.34	236.56
766.67	236.37
767.00	236.27
767.32	236.18
767.65	236.17
767.97	236.06
768.30	235.93
768.62	235.85
768.95	235.76
769.27	235.64
769.60	235.56
769.92	235.47
770.25	235.35
770.57	235.26
770.90	235.15
771.22	235.04
771.55	234.95
771.87	234.83
772.20	234.77
772.52	234.74
772.85	234.77
773.17	234.66
773.50	234.56
773.82	234.45
774.15	234.32
774.47	234.16
774.80	234.07
775.12	234.02
775.45	233.91
775.77	233.87
776.09	233.81
776.42	233.71
776.74	233.63
777.07	233.53
777.39	233.46
777.72	233.37
778.04	233.34
778.36	233.27
778.69	233.23
779.01	233.18
779.33	233.04
779.66	232.91
779.98	232.84
780.31	232.80
780.63	232.79
780.95	232.80
781.28	232.72
781.60	232.65
781.92	232.61
782.25	232.55
782.57	232.52
782.89	232.47
783.22	232.45
783.54	232.37
783.86	232.35
784.19	232.30
784.51	232.28
784.83	232.22
785.16	232.18
785.48	232.08
785.80	232.00
786.12	231.97
786.45	231.91
786.77	231.89
787.09	231.86
787.42	231.77
787.74	231.71
788.06	231.70
788.38	231.67
788.71	231.67
789.03	231.67
789.35	231.61
789.67	231.55
789.99	231.50
790.32	231.45
790.64	231.43
790.96	231.46
791.28	231.41
791.61	231.36
791.93	231.33
792.25	231.33
792.57	231.37
792.89	231.31
793.21	231.26
793.54	231.19
793.86	231.11
794.18	231.04
794.50	230.98
794.82	230.95
795.14	230.93
795.47	230.87
795.79	230.79
796.11	230.72
796.43	230.69
796.75	230.65
797.07	230.62
797.39	230.58
797.71	230.46
798.04	230.43
798.36	230.41
798.68	230.35
799.00	230.34
799.32	230.22
799.64	230.23
799.96	230.20
800.28	230.20
800.60	230.22
800.92	230.23
801.24	230.20
801.56	230.14
801.89	230.10
802.21	230.09
802.53	230.07
802.85	230.05
803.17	230.06
803.49	230.00
803.81	229.97
804.13	229.91
804.45	229.89
804.77	229.85
805.09	229.81
805.41	229.78
805.73	229.73
806.05	229.71
806.37	229.63
806.69	229.58
807.01	229.53
807.33	229.51
807.65	229.47
807.97	229.49
808.28	229.47
808.60	229.46
808.92	229.38
809.24	229.39
809.56	229.36
809.88	229.29
810.20	229.26
810.52	229.28
810.84	229.22
811.16	229.17
811.48	229.12
811.80	229.14
812.12	229.11
812.43	229.08
812.75	229.04
813.07	229.02
813.39	229.00
813.71	228.95
814.03	228.90
814.35	228.86
814.67	228.80
814.98	228.74
815.30	228.67
815.62	228.65
815.94	228.59
816.26	228.60
816.58	228.57
816.89	228.58
817.21	228.53
817.53	228.56
817.85	228.55
818.17	228.56
818.48	228.51
818.80	228.48
819.12	228.47
819.44	228.46
819.76	228.46
820.07	228.45
820.39	228.45
820.71	228.44
821.03	228.43
821.34	228.43
821.66	228.43
821.98	228.46
822.30	228.44
822.61	228.49
822.93	228.42
823.25	228.39
823.57	228.35
823.88	228.33
824.20	228.31
824.52	228.31
824.83	228.26
825.15	228.22
825.47	228.22
825.79	228.19
826.10	228.17
826.42	228.11
826.74	228.08
827.05	228.05
827.37	228.07
827.69	228.03
828.00	228.02
828.32	228.00
828.64	227.95
828.95	228.01
829.27	227.94
829.58	227.95
829.90	227.96
830.22	227.95
830.53	227.94
830.85	227.89
831.17	227.85
831.48	227.88
831.80	227.91
832.11	227.88
832.43	227.83
832.75	227.81
833.06	227.87
833.38	227.87
833.69	227.85
834.01	227.80
834.32	227.81
834.64	227.79
834.96	227.80
835.27	227.81
835.59	227.74
835.90	227.74
836.22	227.71
836.53	227.71
836.85	227.72
837.16	227.83
837.48	227.86
837.79	227.90
838.11	227.89
838.42	227.84
838.74	227.86
839.05	227.87
839.37	227.85
839.68	227.79
840.00	227.80
840.31	227.83
840.63	227.82
840.94	227.79
841.26	227.76
841.57	227.73
841.88	227.73
842.20	227.73
842.51	227.73
842.83	227.77
843.14	227.85
843.46	227.84
843.77	227.73
844.08	227.71
844.40	227.67
844.71	227.66
845.03	227.67
845.34	227.66
845.65	227.69
845.97	227.73
846.28	227.71
846.60	227.68
846.91	227.66
847.22	227.66
847.54	227.72
847.85	227.70
848.16	227.72
848.48	227.70
848.79	227.73
849.10	227.72
849.42	227.69
849.73	227.57
850.04	227.57
850.36	227.54
850.67	227.56
850.98	227.57
851.30	227.55
851.61	227.54
851.92	227.51
852.23	227.50
852.55	227.51
852.86	227.52
853.17	227.54
853.49	227.60
853.80	227.62
854.11	227.60
854.42	227.62
854.74	227.62
855.05	227.61
855.36	227.56
855.67	227.54
855.99	227.55
856.30	227.69
856.61	227.64
856.92	227.67
857.23	227.64
857.55	227.65
857.86	227.64
858.17	227.67
858.48	227.66
858.79	227.66
859.11	227.65
859.42	227.63
859.73	227.61
860.04	227.56
860.35	227.54
860.66	227.50
860.98	227.54
861.29	227.52
861.60	227.51
861.91	227.51
862.22	227.49
862.53	227.47
862.84	227.35
863.16	227.38
863.47	227.35
863.78	227.33
864.09	227.30
864.40	227.30
864.71	227.29
865.02	227.28
865.33	227.25
865.64	227.21
865.95	227.21
866.27	227.25
866.58	227.22
866.89	227.21
867.20	227.20
867.51	227.13
867.82	227.12
868.13	227.16
868.44	227.13
868.75	227.15
869.06	227.15
869.37	227.15
869.68	227.11
869.99	227.13
870.30	227.15
870.61	227.15
870.92	227.13
871.23	227.13
871.54	227.16
871.85	227.19
872.16	227.18
872.47	227.16
872.78	227.10
873.09	227.12
873.40	227.13
873.71	227.13
874.02	227.13
874.33	227.10
874.64	227.08
874.95	227.12
875.26	227.09
875.56	227.07
875.87	227.04
876.18	227.02
876.49	227.12
876.80	227.09
877.11	227.06
877.42	227.06
877.73	227.03
878.04	227.00
878.35	227.02
878.66	227.01
878.96	227.00
879.27	226.98
879.58	226.96
879.89	226.94
880.20	226.98
880.51	226.97
880.82	227.00
881.12	227.00
881.43	226.96
881.74	226.96
882.05	226.95
882.36	226.96
882.67	226.98
882.97	226.87
883.28	226.89
883.59	226.91
883.90	226.91
884.21	226.93
884.51	226.93
884.82	226.89
885.13	226.91
885.44	226.92
885.74	226.94
886.05	226.94
886.36	226.93
886.67	226.89
886.98	226.95
887.28	226.95
887.59	226.93
887.90	226.94
888.20	226.93
888.51	226.97
888.82	226.92
889.13	226.94
889.43	227.02
889.74	227.01
890.05	226.99
890.35	226.99
890.66	226.98
890.97	226.98
891.28	226.98
891.58	226.97
891.89	226.97
892.20	226.96
892.50	226.99
892.81	226.94
893.12	226.92
893.42	226.88
893.73	226.87
894.04	226.87
894.34	226.87
894.65	226.88
894.95	226.88
895.26	226.92
895.57	226.94
895.87	226.80
896.18	226.82
896.48	226.84
896.79	226.83
897.10	226.82
897.40	226.83
897.71	226.83
898.01	226.83
898.32	226.84
898.63	226.83
898.93	226.83
899.24	226.89
899.54	226.89
899.85	226.88
900.15	226.88
900.46	226.91
900.76	226.93
901.07	226.90
901.38	226.91
901.68	226.89
901.99	226.85
902.29	226.90
902.60	226.86
902.90	226.83
903.21	226.86
903.51	226.88
903.82	226.89
904.12	226.85
904.43	226.87
904.73	226.87
905.03	226.90
905.34	226.98
905.64	226.96
905.95	226.98
906.25	226.96
906.56	226.93
906.86	226.92
907.17	226.90
907.47	226.95
907.77	226.93
908.08	226.92
908.38	226.92
908.69	226.90
908.99	226.95
909.30	226.96
909.60	226.94
909.90	226.92
910.21	226.89
910.51	226.87
910.81	226.87
911.12	226.87
911.42	226.84
911.73	226.73
912.03	226.77
912.33	226.78
912.64	226.78
912.94	226.76
913.24	226.75
913.55	226.73
913.85	226.69
914.15	226.69
914.46	226.68
914.76	226.70
915.06	226.71
915.37	226.66
915.67	226.66
915.97	226.66
916.27	226.64
916.58	226.65
916.88	226.69
917.18	226.68
917.49	226.74
917.79	226.75
918.09	226.76
918.39	226.74
918.70	226.75
919.00	226.77
919.30	226.84
919.60	226.81
919.91	226.82
920.21	226.82
920.51	226.81
920.81	226.82
921.12	226.84
921.42	226.84
921.72	226.82
922.02	226.83
922.32	226.86
922.63	226.91
922.93	226.92
923.23	226.92
923.53	226.89
923.83	226.84
924.13	226.83
924.44	226.82
924.74	226.83
925.04	226.83
925.34	226.84
925.64	226.82
925.94	226.81
926.24	226.85
926.55	226.87
926.85	226.87
927.15	226.90
927.45	226.87
927.75	226.87
928.05	226.91
928.35	226.93
928.65	226.93
928.95	226.92
929.26	226.89
929.56	226.93
929.86	226.96
930.16	226.97
930.46	226.96
930.76	226.98
931.06	226.95
931.36	226.90
931.66	226.92
931.96	226.90
932.26	226.94
932.56	226.94
932.86	226.96
933.16	226.98
933.46	226.97
933.76	227.00
934.06	227.03
934.36	227.08
934.66	227.05
934.96	227.04
935.26	227.07
935.56	227.08
935.86	227.04
936.16	227.01
936.46	226.96
936.76	226.99
937.06	227.00
937.36	227.02
937.66	227.05
937.96	227.04
938.26	227.05
938.56	227.02
938.86	226.99
939.16	227.00
939.46	227.01
939.76	227.01
940.06	226.97
940.35	226.92
940.65	226.85
940.95	226.89
941.25	226.86
941.55	226.82
941.85	226.84
942.15	226.87
942.45	226.92
942.75	226.94
943.04	226.91
943.34	226.89
943.64	226.87
943.94	226.86
944.24	226.87
944.54	226.85
944.84	226.85
945.13	226.84
945.43	226.83
945.73	226.78
946.03	226.78
946.33	226.78
946.62	226.81
946.92	226.81
947.22	226.80
947.52	226.81
947.82	226.79
948.11	226.78
948.41	226.74
948.71	226.68
949.01	226.66
949.31	226.65
949.60	226.65
949.90	226.67
950.20	226.65
950.50	226.64
950.79	226.64
951.09	226.66
951.39	226.67
951.69	226.62
951.98	226.68
952.28	226.66
952.58	226.65
952.87	226.63
953.17	226.65
953.47	226.58
953.76	226.59
954.06	226.60
954.36	226.57
954.66	226.58
954.95	226.61
955.25	226.62
955.55	226.64
955.84	226.64
956.14	226.62
956.44	226.60
956.73	226.58
957.03	226.57
957.32	226.59
957.62	226.56
957.92	226.58
958.21	226.57
958.51	226.68
958.81	226.70
959.10	226.70
959.40	226.72
959.69	226.77
959.99	226.77
960.29	226.75
960.58	226.76
960.88	226.81
961.17	226.84
961.47	226.87
961.76	226.88
962.06	226.90
962.36	226.92
962.65	226.97
962.95	226.99
963.24	226.98
963.54	226.94
963.83	226.98
964.13	226.98
964.42	226.95
964.72	226.87
965.01	226.87
965.31	226.88
965.60	226.89
965.90	226.93
966.19	226.90
966.49	226.94
966.78	226.92
967.08	226.90
967.37	226.87
967.67	226.86
967.96	226.87
968.26	226.84
968.55	226.83
968.85	226.79
969.14	226.80
969.43	226.80
969.73	226.80
970.02	226.78
970.32	226.79
970.61	226.77
970.91	226.76
971.20	226.73
971.49	226.71
971.79	226.68
972.08	226.62
972.38	226.63
972.67	226.65
972.96	226.66
973.26	226.66
973.55	226.69
973.85	226.69
974.14	226.70
974.43	226.71
974.73	226.72
975.02	226.73
975.31	226.71
975.61	226.71
975.90	226.69
976.19	226.68
976.49	226.66
976.78	226.69
977.07	226.71
977.37	226.74
977.66	226.72
977.95	226.67
978.24	226.70
978.54	226.72
978.83	226.68
979.12	226.68
979.42	226.67
979.71	226.64
980.00	226.63
980.29	226.60
980.59	226.58
980.88	226.59
981.17	226.56
981.46	226.57
981.76	226.58
982.05	226.66
982.34	226.67
982.63	226.69
982.93	226.70
983.22	226.70
983.51	226.69
983.80	226.71
984.09	226.74
984.39	226.72
984.68	226.68
984.97	226.67
985.26	226.66
985.55	226.67
985.85	226.68
986.14	226.67
986.43	226.68
986.72	226.68
987.01	226.65
987.30	226.69
987.59	226.69
987.89	226.67
988.18	226.63
988.47	226.64
988.76	226.64
989.05	226.60
989.34	226.58
989.63	226.63
989.92	226.63
990.22	226.63
990.51	226.63
990.80	226.64
991.09	226.66
991.38	226.70
991.67	226.68
991.96	226.66
992.25	226.68
992.54	226.66
992.83	226.65
993.12	226.68
993.41	226.68
993.70	226.71
993.99	226.75
994.28	226.74
994.58	226.74
994.87	226.74
995.16	226.75
995.45	226.75
995.74	226.71
996.03	226.73
996.32	226.76
996.61	226.79
996.90	226.79
997.19	226.75
997.48	226.74
997.77	226.77
998.06	226.76
998.34	226.74
998.63	226.77
998.92	226.75
999.21	226.78
999.50	226.77
999.79	226.76
1000.08	226.73
1000.37	226.76
1000.66	226.76
1000.95	226.77
1001.24	226.79
1001.53	226.80
1001.82	226.80
1002.11	226.77
1002.40	226.78
1002.68	226.80
1002.97	226.86
1003.26	226.87
1003.55	226.84
1003.84	226.83
1004.13	226.87
1004.42	226.84
1004.71	226.83
1004.99	226.84
1005.28	226.82
1005.57	226.79
1005.86	226.77
1006.15	226.77
1006.44	226.73
1006.72	226.74
1007.01	226.71
1007.30	226.69
1007.59	226.69
1007.88	226.71
1008.17	226.72
1008.45	226.68
1008.74	226.63
1009.03	226.61
1009.32	226.63
1009.60	226.61
1009.89	226.60
1010.18	226.56
1010.47	226.56
1010.76	226.55
1011.04	226.56
1011.33	226.57
1011.62	226.59
1011.91	226.59
1012.19	226.58
1012.48	226.58
1012.77	226.54
1013.05	226.60
1013.34	226.61
1013.63	226.59
1013.92	226.57
1014.20	226.56
1014.49	226.57
1014.78	226.59
1015.06	226.54
1015.35	226.56
1015.64	226.58
1015.92	226.56
1016.21	226.60
1016.50	226.60
1016.78	226.62
1017.07	226.59
1017.36	226.56
1017.64	226.57
1017.93	226.58
1018.22	226.58
1018.50	226.57
1018.79	226.57
1019.08	226.51
1019.36	226.52
1019.65	226.53
1019.93	226.54
1020.22	226.54
1020.51	226.60
1020.79	226.60
1021.08	226.49
1021.36	226.24
1021.65	226.21
1021.94	226.35
1022.22	226.88
1022.51	226.69
1022.79	226.92
1023.08	226.57
1023.36	227.91
1023.65	226.63
>>>>>End Processed Spectral Data<<<<<
