SpectraSuite Data File
++++++++++++++++++++++++++++++++++++
Date: Fri Feb 01 15:34:29 EST 2013
User: group
Dark Spectrum Present: No
Reference Spectrum Present: No
Number of Sampled Component Spectra: 1
Spectrometers: USB2E7196
Integration Time (usec): 35000 (USB2E7196)
Spectra Averaged: 100 (USB2E7196)
Boxcar Smoothing: 10 (USB2E7196)
Correct for Electrical Dark: No (USB2E7196)
Strobe/Lamp Enabled: No (USB2E7196)
Correct for Detector Non-linearity: No (USB2E7196)
Correct for Stray Light: No (USB2E7196)
Number of Pixels in Processed Spectrum: 2048
>>>>>Begin Processed Spectral Data<<<<<
339.09	0.00
339.48	214.79
339.86	216.53
340.24	217.77
340.63	219.54
341.01	222.60
341.39	221.79
341.78	223.31
342.16	224.34
342.54	224.91
342.93	213.38
343.31	224.15
343.69	224.68
344.07	225.16
344.46	225.58
344.84	225.92
345.22	226.12
345.60	226.36
345.99	226.55
346.37	226.67
346.75	226.78
347.13	226.83
347.52	226.90
347.90	227.00
348.28	227.03
348.66	227.04
349.05	227.02
349.43	227.07
349.81	227.12
350.19	227.18
350.57	227.23
350.96	227.30
351.34	227.42
351.72	227.51
352.10	227.59
352.48	227.69
352.87	227.75
353.25	227.80
353.63	227.88
354.01	227.92
354.39	228.01
354.77	228.08
355.15	228.18
355.54	228.21
355.92	228.25
356.30	228.32
356.68	228.47
357.06	228.57
357.44	228.65
357.82	228.67
358.20	228.73
358.58	228.79
358.97	228.85
359.35	228.89
359.73	228.96
360.11	229.02
360.49	229.07
360.87	229.15
361.25	229.25
361.63	229.34
362.01	229.39
362.39	229.41
362.77	229.47
363.15	229.50
363.53	229.52
363.91	229.57
364.29	229.59
364.67	229.52
365.05	229.53
365.43	229.53
365.81	229.57
366.19	229.62
366.57	229.64
366.95	229.63
367.33	229.58
367.71	229.60
368.09	229.55
368.47	229.50
368.85	229.50
369.23	229.46
369.61	229.36
369.99	229.35
370.37	229.33
370.75	229.31
371.13	229.25
371.51	229.19
371.89	229.12
372.27	229.07
372.65	229.03
373.03	228.97
373.41	228.91
373.78	228.85
374.16	228.72
374.54	228.62
374.92	228.58
375.30	228.53
375.68	228.42
376.06	228.40
376.44	228.32
376.82	228.21
377.19	228.13
377.57	228.09
377.95	228.00
378.33	227.91
378.71	227.78
379.09	227.71
379.47	227.66
379.84	227.59
380.22	227.51
380.60	227.38
380.98	227.30
381.36	227.21
381.73	227.10
382.11	227.07
382.49	227.00
382.87	226.89
383.25	226.84
383.62	226.88
384.00	226.78
384.38	226.74
384.76	226.73
385.13	226.73
385.51	226.63
385.89	226.57
386.27	226.53
386.64	226.49
387.02	226.44
387.40	226.36
387.78	226.32
388.15	226.27
388.53	226.26
388.91	226.23
389.29	226.20
389.66	226.19
390.04	226.17
390.42	226.15
390.79	226.15
391.17	226.13
391.55	226.01
391.92	226.00
392.30	226.00
392.68	225.91
393.05	225.89
393.43	225.95
393.81	225.99
394.18	226.02
394.56	226.04
394.94	226.09
395.31	226.15
395.69	226.22
396.06	226.24
396.44	226.31
396.82	226.33
397.19	226.41
397.57	226.47
397.95	226.51
398.32	226.55
398.70	226.62
399.07	226.72
399.45	226.81
399.82	226.88
400.20	226.95
400.58	227.08
400.95	227.12
401.33	227.22
401.70	227.36
402.08	227.46
402.45	227.58
402.83	227.69
403.20	227.78
403.58	227.86
403.95	228.05
404.33	228.16
404.71	228.33
405.08	228.51
405.46	228.60
405.83	228.74
406.21	228.93
406.58	229.11
406.96	229.27
407.33	229.43
407.70	229.62
408.08	229.90
408.45	230.12
408.83	230.37
409.20	230.58
409.58	230.76
409.95	231.00
410.33	231.30
410.70	231.55
411.08	231.86
411.45	232.18
411.82	232.48
412.20	232.84
412.57	233.26
412.95	233.57
413.32	233.99
413.69	234.43
414.07	234.85
414.44	235.29
414.82	235.75
415.19	236.31
415.56	236.90
415.94	237.43
416.31	238.04
416.68	238.69
417.06	239.40
417.43	240.06
417.81	240.82
418.18	241.56
418.55	242.41
418.93	243.31
419.30	244.20
419.67	245.14
420.04	246.09
420.42	247.05
420.79	248.23
421.16	249.40
421.54	250.58
421.91	251.80
422.28	253.06
422.66	254.41
423.03	255.68
423.40	257.00
423.77	258.44
424.15	259.90
424.52	261.37
424.89	262.95
425.26	264.49
425.64	265.95
426.01	267.58
426.38	269.20
426.75	270.84
427.13	272.55
427.50	274.35
427.87	276.23
428.24	278.11
428.61	279.87
428.99	281.79
429.36	283.87
429.73	285.93
430.10	287.96
430.47	290.01
430.85	292.15
431.22	294.37
431.59	296.75
431.96	299.02
432.33	301.51
432.70	303.93
433.08	306.74
433.45	309.41
433.82	312.06
434.19	314.97
434.56	317.79
434.93	320.50
435.30	323.11
435.68	326.02
436.05	328.85
436.42	331.63
436.79	334.15
437.16	336.86
437.53	339.69
437.90	342.47
438.27	345.25
438.64	348.07
439.01	350.69
439.38	352.95
439.75	355.07
440.13	357.58
440.50	359.89
440.87	361.75
441.24	363.69
441.61	365.80
441.98	367.28
442.35	369.10
442.72	370.91
443.09	372.71
443.46	373.71
443.83	374.29
444.20	374.81
444.57	375.66
444.94	375.96
445.31	376.30
445.68	376.68
446.05	376.74
446.42	376.40
446.79	375.97
447.16	375.52
447.53	375.23
447.90	374.04
448.27	372.91
448.64	371.34
449.01	370.21
449.37	368.22
449.74	366.31
450.11	364.06
450.48	361.60
450.85	359.07
451.22	356.91
451.59	354.91
451.96	353.01
452.33	350.41
452.70	348.07
453.07	345.27
453.43	342.39
453.80	339.62
454.17	336.98
454.54	334.42
454.91	331.64
455.28	328.96
455.65	326.52
456.02	324.04
456.38	321.92
456.75	319.22
457.12	316.99
457.49	314.77
457.86	312.58
458.23	310.74
458.59	308.73
458.96	306.57
459.33	304.71
459.70	302.81
460.07	301.31
460.43	299.55
460.80	297.94
461.17	296.50
461.54	294.99
461.91	293.53
462.27	292.11
462.64	290.87
463.01	289.49
463.38	288.16
463.74	286.82
464.11	285.63
464.48	284.63
464.85	283.55
465.21	282.71
465.58	281.82
465.95	280.70
466.32	279.81
466.68	278.96
467.05	278.06
467.42	277.16
467.78	276.24
468.15	275.36
468.52	274.68
468.88	273.84
469.25	273.08
469.62	272.43
469.98	271.74
470.35	271.11
470.72	270.50
471.08	269.83
471.45	269.26
471.82	268.71
472.18	268.11
472.55	267.64
472.92	267.11
473.28	266.62
473.65	266.19
474.02	265.72
474.38	265.36
474.75	265.01
475.11	264.65
475.48	264.37
475.85	264.14
476.21	263.89
476.58	263.70
476.94	263.54
477.31	263.36
477.67	263.18
478.04	263.05
478.41	263.04
478.77	263.07
479.14	262.99
479.50	263.03
479.87	263.06
480.23	263.18
480.60	263.25
480.96	263.35
481.33	263.53
481.69	263.70
482.06	263.88
482.42	264.06
482.79	264.31
483.15	264.65
483.52	265.04
483.88	265.36
484.25	265.72
484.61	266.09
484.98	266.53
485.34	267.10
485.71	267.72
486.07	268.32
486.44	268.89
486.80	269.62
487.17	270.32
487.53	271.15
487.90	271.97
488.26	272.90
488.62	273.90
488.99	274.89
489.35	275.92
489.72	277.05
490.08	278.28
490.44	279.52
490.81	280.85
491.17	282.19
491.54	283.70
491.90	285.26
492.26	286.96
492.63	288.72
492.99	290.53
493.36	292.40
493.72	294.41
494.08	296.52
494.45	298.75
494.81	301.12
495.17	303.57
495.54	306.19
495.90	308.84
496.26	311.61
496.63	314.57
496.99	317.71
497.35	320.94
497.72	324.35
498.08	327.89
498.44	331.58
498.80	335.48
499.17	339.51
499.53	343.67
499.89	348.05
500.26	352.60
500.62	357.24
500.98	362.21
501.34	367.29
501.71	372.57
502.07	378.03
502.43	383.61
502.79	389.43
503.16	395.43
503.52	401.74
503.88	408.12
504.24	414.73
504.60	421.66
504.97	428.85
505.33	436.13
505.69	443.77
506.05	451.55
506.41	459.51
506.78	467.66
507.14	476.12
507.50	484.84
507.86	493.83
508.22	503.00
508.59	512.19
508.95	521.75
509.31	531.67
509.67	541.74
510.03	552.05
510.39	562.61
510.75	573.45
511.12	584.40
511.48	595.77
511.84	607.22
512.20	618.74
512.56	630.69
512.92	642.93
513.28	655.30
513.64	667.79
514.00	680.50
514.37	693.46
514.73	706.53
515.09	719.56
515.45	732.95
515.81	746.54
516.17	760.58
516.53	774.76
516.89	788.89
517.25	803.11
517.61	817.57
517.97	832.04
518.33	846.51
518.69	861.32
519.05	876.28
519.41	891.51
519.77	907.08
520.13	922.51
520.49	937.84
520.85	953.24
521.21	968.95
521.57	985.18
521.93	1000.97
522.29	1017.36
522.65	1033.65
523.01	1049.85
523.37	1066.04
523.73	1082.27
524.09	1098.33
524.45	1114.64
524.81	1131.29
525.17	1148.09
525.53	1165.15
525.89	1181.94
526.25	1198.83
526.61	1215.22
526.97	1231.95
527.33	1248.43
527.68	1265.04
528.04	1281.53
528.40	1298.31
528.76	1315.43
529.12	1332.06
529.48	1348.91
529.84	1364.96
530.20	1381.66
530.56	1398.63
530.91	1416.08
531.27	1432.87
531.63	1449.47
531.99	1466.21
532.35	1482.32
532.71	1498.28
533.07	1514.45
533.42	1530.38
533.78	1546.45
534.14	1562.80
534.50	1578.11
534.86	1593.99
535.21	1609.23
535.57	1625.28
535.93	1640.79
536.29	1655.57
536.65	1670.65
537.00	1685.58
537.36	1701.03
537.72	1715.45
538.08	1729.91
538.44	1743.67
538.79	1757.53
539.15	1771.25
539.51	1784.97
539.87	1799.39
540.22	1813.10
540.58	1826.91
540.94	1840.41
541.29	1853.22
541.65	1865.88
542.01	1879.27
542.37	1891.65
542.72	1904.17
543.08	1915.87
543.44	1928.33
543.79	1939.82
544.15	1950.86
544.51	1962.46
544.87	1973.40
545.22	1984.33
545.58	1994.46
545.94	2004.30
546.29	2014.21
546.65	2024.04
547.01	2033.26
547.36	2042.00
547.72	2050.58
548.07	2058.35
548.43	2066.56
548.79	2074.74
549.14	2082.28
549.50	2089.67
549.86	2097.42
550.21	2104.76
550.57	2112.10
550.92	2118.64
551.28	2125.53
551.64	2132.64
551.99	2139.16
552.35	2145.27
552.70	2151.40
553.06	2157.56
553.41	2163.85
553.77	2169.80
554.13	2175.94
554.48	2182.15
554.84	2187.40
555.19	2192.72
555.55	2197.90
555.90	2202.33
556.26	2207.09
556.61	2211.92
556.97	2216.11
557.32	2220.28
557.68	2224.31
558.03	2228.46
558.39	2232.09
558.74	2236.69
559.10	2240.51
559.45	2244.16
559.81	2248.56
560.16	2252.43
560.52	2255.58
560.87	2259.05
561.23	2261.74
561.58	2264.49
561.94	2266.97
562.29	2269.44
562.64	2272.04
563.00	2274.64
563.35	2278.05
563.71	2281.21
564.06	2284.46
564.42	2287.40
564.77	2289.69
565.12	2291.94
565.48	2293.93
565.83	2295.81
566.19	2296.95
566.54	2297.97
566.89	2299.08
567.25	2299.48
567.60	2300.67
567.96	2302.44
568.31	2303.20
568.66	2304.40
569.02	2305.17
569.37	2305.46
569.72	2306.37
570.08	2306.60
570.43	2306.71
570.78	2306.08
571.14	2304.59
571.49	2303.15
571.84	2302.69
572.20	2301.68
572.55	2300.62
572.90	2298.92
573.26	2297.45
573.61	2295.86
573.96	2293.93
574.31	2290.88
574.67	2287.74
575.02	2284.20
575.37	2280.73
575.72	2276.92
576.08	2273.49
576.43	2270.08
576.78	2266.35
577.13	2263.01
577.49	2259.88
577.84	2256.34
578.19	2252.69
578.54	2248.91
578.90	2244.71
579.25	2239.12
579.60	2233.87
579.95	2228.86
580.30	2223.93
580.66	2218.79
581.01	2213.71
581.36	2208.68
581.71	2204.47
582.06	2200.22
582.42	2195.85
582.77	2190.49
583.12	2185.73
583.47	2180.98
583.82	2175.82
584.17	2170.63
584.53	2165.13
584.88	2159.33
585.23	2153.53
585.58	2147.97
585.93	2142.44
586.28	2137.61
586.63	2132.55
586.98	2127.56
587.34	2122.85
587.69	2117.96
588.04	2112.63
588.39	2107.05
588.74	2100.64
589.09	2094.43
589.44	2087.50
589.79	2081.27
590.14	2075.67
590.49	2069.11
590.84	2062.58
591.19	2056.54
591.54	2049.88
591.89	2042.49
592.25	2035.63
592.60	2028.29
592.95	2020.69
593.30	2013.30
593.65	2005.66
594.00	1998.57
594.35	1991.46
594.70	1983.38
595.05	1976.11
595.40	1968.77
595.75	1961.14
596.10	1954.81
596.45	1948.05
596.80	1941.91
597.15	1935.16
597.50	1927.98
597.85	1921.55
598.19	1914.93
598.54	1907.80
598.89	1901.15
599.24	1895.18
599.59	1888.38
599.94	1882.11
600.29	1875.77
600.64	1869.30
600.99	1861.64
601.34	1854.85
601.69	1847.67
602.04	1840.61
602.39	1833.12
602.74	1826.35
603.08	1819.69
603.43	1812.98
603.78	1805.73
604.13	1798.42
604.48	1791.17
604.83	1784.31
605.18	1777.24
605.53	1769.19
605.87	1761.14
606.22	1753.92
606.57	1745.88
606.92	1738.68
607.27	1731.53
607.62	1724.53
607.96	1717.13
608.31	1710.54
608.66	1702.83
609.01	1695.34
609.36	1687.72
609.70	1679.76
610.05	1671.67
610.40	1663.87
610.75	1655.44
611.10	1647.62
611.44	1639.36
611.79	1631.36
612.14	1622.60
612.49	1613.60
612.83	1605.16
613.18	1597.09
613.53	1588.98
613.88	1580.50
614.22	1572.11
614.57	1563.50
614.92	1555.40
615.27	1547.82
615.61	1539.53
615.96	1531.37
616.31	1523.72
616.65	1516.45
617.00	1508.75
617.35	1501.02
617.70	1492.60
618.04	1484.05
618.39	1475.81
618.74	1468.06
619.08	1459.78
619.43	1452.31
619.78	1445.32
620.12	1438.14
620.47	1430.54
620.82	1422.34
621.16	1414.97
621.51	1407.50
621.85	1399.87
622.20	1391.30
622.55	1382.93
622.89	1375.02
623.24	1367.55
623.59	1360.09
623.93	1352.54
624.28	1345.41
624.62	1337.85
624.97	1330.78
625.32	1324.09
625.66	1317.04
626.01	1309.83
626.35	1302.32
626.70	1294.43
627.04	1286.61
627.39	1278.90
627.73	1271.53
628.08	1264.71
628.43	1257.35
628.77	1249.95
629.12	1242.34
629.46	1235.24
629.81	1227.83
630.15	1220.62
630.50	1213.22
630.84	1205.03
631.19	1197.18
631.53	1189.67
631.88	1182.17
632.22	1174.61
632.57	1167.30
632.91	1159.85
633.26	1152.45
633.60	1145.15
633.95	1138.11
634.29	1131.19
634.64	1124.51
634.98	1117.15
635.32	1109.99
635.67	1103.41
636.01	1096.67
636.36	1089.90
636.70	1083.40
637.05	1076.84
637.39	1070.37
637.73	1063.88
638.08	1058.11
638.42	1052.08
638.77	1045.63
639.11	1039.00
639.45	1032.47
639.80	1025.81
640.14	1019.29
640.49	1012.80
640.83	1006.43
641.17	1000.20
641.52	993.84
641.86	987.38
642.20	981.51
642.55	975.20
642.89	968.65
643.23	962.13
643.58	956.31
643.92	950.04
644.26	943.96
644.61	937.93
644.95	931.75
645.29	925.07
645.64	918.34
645.98	911.95
646.32	906.08
646.66	900.19
647.01	894.36
647.35	888.73
647.69	882.92
648.04	877.40
648.38	871.61
648.72	865.58
649.06	859.50
649.41	853.62
649.75	847.60
650.09	841.61
650.43	835.83
650.78	829.67
651.12	823.72
651.46	818.04
651.80	812.31
652.14	806.98
652.49	801.67
652.83	796.48
653.17	790.80
653.51	785.04
653.85	779.57
654.20	773.98
654.54	767.90
654.88	762.10
655.22	756.23
655.56	750.57
655.90	745.09
656.25	739.90
656.59	734.50
656.93	729.44
657.27	724.32
657.61	718.87
657.95	713.86
658.29	708.73
658.64	703.49
658.98	698.20
659.32	692.69
659.66	687.42
660.00	682.06
660.34	677.12
660.68	672.28
661.02	667.23
661.36	662.51
661.70	658.13
662.05	653.89
662.39	649.57
662.73	645.13
663.07	640.82
663.41	636.37
663.75	631.86
664.09	627.33
664.43	622.99
664.77	618.91
665.11	614.67
665.45	610.62
665.79	606.56
666.13	602.43
666.47	598.44
666.81	594.32
667.15	590.23
667.49	586.33
667.83	582.55
668.17	578.64
668.51	574.62
668.85	570.58
669.19	566.67
669.53	562.76
669.87	558.80
670.21	555.10
670.55	551.47
670.89	548.12
671.23	544.64
671.57	541.15
671.91	537.61
672.25	534.09
672.58	530.57
672.92	527.14
673.26	523.94
673.60	520.77
673.94	517.59
674.28	514.68
674.62	511.73
674.96	508.56
675.30	505.68
675.64	502.71
675.97	499.92
676.31	497.04
676.65	494.16
676.99	491.46
677.33	488.57
677.67	485.67
678.01	482.60
678.34	479.67
678.68	476.81
679.02	473.97
679.36	471.20
679.70	468.53
680.04	465.78
680.37	462.93
680.71	460.12
681.05	457.56
681.39	454.88
681.73	452.26
682.06	449.74
682.40	447.17
682.74	444.66
683.08	442.12
683.42	439.51
683.75	437.05
684.09	434.53
684.43	432.00
684.77	429.62
685.10	427.31
685.44	425.01
685.78	422.68
686.12	420.48
686.45	418.21
686.79	415.89
687.13	413.70
687.46	411.58
687.80	409.40
688.14	407.18
688.48	405.12
688.81	402.87
689.15	400.73
689.49	398.60
689.82	396.48
690.16	394.39
690.50	392.44
690.83	390.48
691.17	388.50
691.51	386.66
691.84	384.80
692.18	382.82
692.52	380.84
692.85	378.97
693.19	377.01
693.52	375.19
693.86	373.39
694.20	371.61
694.53	369.78
694.87	367.98
695.21	366.20
695.54	364.40
695.88	362.66
696.21	360.96
696.55	359.26
696.88	357.61
697.22	355.97
697.56	354.35
697.89	352.68
698.23	351.09
698.56	349.45
698.90	347.87
699.23	346.27
699.57	344.70
699.90	343.14
700.24	341.61
700.58	340.00
700.91	338.55
701.25	337.11
701.58	335.76
701.92	334.39
702.25	333.03
702.59	331.63
702.92	330.37
703.26	329.05
703.59	327.76
703.93	326.56
704.26	325.33
704.60	324.03
704.93	322.76
705.26	321.47
705.60	320.33
705.93	319.16
706.27	318.09
706.60	317.01
706.94	315.92
707.27	314.77
707.61	313.75
707.94	312.67
708.27	311.58
708.61	310.48
708.94	309.48
709.28	308.50
709.61	307.55
709.94	306.57
710.28	305.57
710.61	304.60
710.95	303.54
711.28	302.62
711.61	301.71
711.95	300.83
712.28	299.91
712.61	298.92
712.95	297.98
713.28	297.11
713.61	296.22
713.95	295.34
714.28	294.53
714.61	293.67
714.95	292.84
715.28	291.95
715.61	291.08
715.95	290.21
716.28	289.35
716.61	288.52
716.95	287.67
717.28	286.93
717.61	286.13
717.94	285.40
718.28	284.62
718.61	283.85
718.94	283.15
719.27	282.49
719.61	281.85
719.94	281.20
720.27	280.47
720.60	279.81
720.94	279.17
721.27	278.61
721.60	278.02
721.93	277.40
722.27	276.90
722.60	276.35
722.93	275.76
723.26	275.22
723.59	274.67
723.93	274.14
724.26	273.58
724.59	273.08
724.92	272.50
725.25	271.99
725.59	271.48
725.92	270.97
726.25	270.46
726.58	269.97
726.91	269.48
727.24	269.01
727.57	268.57
727.91	268.08
728.24	267.62
728.57	267.14
728.90	266.70
729.23	266.18
729.56	265.73
729.89	265.32
730.22	264.82
730.55	264.35
730.89	263.92
731.22	263.50
731.55	263.07
731.88	262.69
732.21	262.24
732.54	261.83
732.87	261.39
733.20	260.99
733.53	260.59
733.86	260.24
734.19	259.85
734.52	259.45
734.85	259.15
735.18	258.70
735.51	258.31
735.84	257.92
736.17	257.58
736.50	257.21
736.83	256.97
737.16	256.65
737.49	256.31
737.82	255.95
738.15	255.62
738.48	255.28
738.81	254.95
739.14	254.68
739.47	254.33
739.80	254.02
740.13	253.70
740.46	253.37
740.79	253.04
741.12	252.71
741.45	252.42
741.78	252.05
742.11	251.78
742.44	251.47
742.77	251.22
743.10	250.94
743.43	250.65
743.75	250.25
744.08	250.12
744.41	249.87
744.74	249.63
745.07	249.31
745.40	249.07
745.73	248.81
746.06	248.53
746.39	248.29
746.71	248.00
747.04	247.71
747.37	247.41
747.70	247.14
748.03	246.91
748.36	246.69
748.68	246.48
749.01	246.19
749.34	245.97
749.67	245.70
750.00	245.45
750.33	245.28
750.65	245.05
750.98	244.70
751.31	244.46
751.64	244.26
751.97	244.10
752.29	243.86
752.62	243.64
752.95	243.43
753.28	243.24
753.60	243.06
753.93	242.88
754.26	242.72
754.59	242.49
754.91	242.27
755.24	242.06
755.57	241.86
755.90	241.68
756.22	241.49
756.55	241.30
756.88	241.10
757.20	240.84
757.53	240.66
757.86	240.48
758.19	240.33
758.51	240.14
758.84	239.93
759.17	239.77
759.49	239.57
759.82	239.43
760.15	239.25
760.47	239.10
760.80	238.93
761.13	238.79
761.45	238.67
761.78	238.53
762.11	238.37
762.43	238.18
762.76	238.10
763.08	237.97
763.41	237.87
763.74	237.73
764.06	237.60
764.39	237.45
764.71	237.33
765.04	237.18
765.37	237.05
765.69	236.89
766.02	236.78
766.34	236.70
766.67	236.54
767.00	236.47
767.32	236.42
767.65	236.42
767.97	236.32
768.30	236.20
768.62	236.09
768.95	235.98
769.27	235.90
769.60	235.76
769.92	235.68
770.25	235.55
770.57	235.48
770.90	235.41
771.22	235.31
771.55	235.21
771.87	235.16
772.20	235.09
772.52	235.10
772.85	235.16
773.17	235.08
773.50	235.01
773.82	234.91
774.15	234.79
774.47	234.64
774.80	234.59
775.12	234.53
775.45	234.49
775.77	234.41
776.09	234.38
776.42	234.36
776.74	234.31
777.07	234.25
777.39	234.19
777.72	234.10
778.04	234.07
778.36	234.00
778.69	233.96
779.01	233.91
779.33	233.75
779.66	233.53
779.98	233.45
780.31	233.41
780.63	233.36
780.95	233.28
781.28	233.21
781.60	233.10
781.92	233.03
782.25	232.97
782.57	232.95
782.89	232.87
783.22	232.77
783.54	232.67
783.86	232.61
784.19	232.55
784.51	232.56
784.83	232.49
785.16	232.43
785.48	232.34
785.80	232.32
786.12	232.29
786.45	232.26
786.77	232.20
787.09	232.12
787.42	232.06
787.74	232.02
788.06	231.99
788.38	231.94
788.71	231.86
789.03	231.81
789.35	231.75
789.67	231.71
789.99	231.66
790.32	231.60
790.64	231.58
790.96	231.59
791.28	231.48
791.61	231.41
791.93	231.39
792.25	231.31
792.57	231.31
792.89	231.23
793.21	231.17
793.54	231.10
793.86	231.04
794.18	230.99
794.50	230.90
794.82	230.82
795.14	230.79
795.47	230.75
795.79	230.69
796.11	230.60
796.43	230.51
796.75	230.43
797.07	230.39
797.39	230.33
797.71	230.21
798.04	230.18
798.36	230.15
798.68	230.11
799.00	230.10
799.32	229.97
799.64	229.95
799.96	229.93
800.28	229.92
800.60	229.90
800.92	229.89
801.24	229.88
801.56	229.83
801.89	229.80
802.21	229.78
802.53	229.73
802.85	229.75
803.17	229.78
803.49	229.74
803.81	229.68
804.13	229.67
804.45	229.64
804.77	229.59
805.09	229.58
805.41	229.52
805.73	229.48
806.05	229.46
806.37	229.42
806.69	229.39
807.01	229.39
807.33	229.37
807.65	229.30
807.97	229.30
808.28	229.31
808.60	229.33
808.92	229.29
809.24	229.38
809.56	229.31
809.88	229.27
810.20	229.27
810.52	229.29
810.84	229.25
811.16	229.20
811.48	229.19
811.80	229.24
812.12	229.23
812.43	229.23
812.75	229.21
813.07	229.23
813.39	229.22
813.71	229.19
814.03	229.19
814.35	229.19
814.67	229.13
814.98	229.10
815.30	229.06
815.62	229.06
815.94	228.96
816.26	229.01
816.58	228.96
816.89	229.01
817.21	228.98
817.53	228.96
817.85	228.99
818.17	228.96
818.48	228.88
818.80	228.89
819.12	228.87
819.44	228.88
819.76	228.85
820.07	228.81
820.39	228.78
820.71	228.74
821.03	228.73
821.34	228.73
821.66	228.74
821.98	228.71
822.30	228.69
822.61	228.77
822.93	228.72
823.25	228.74
823.57	228.68
823.88	228.70
824.20	228.67
824.52	228.66
824.83	228.64
825.15	228.61
825.47	228.58
825.79	228.55
826.10	228.47
826.42	228.46
826.74	228.46
827.05	228.46
827.37	228.47
827.69	228.45
828.00	228.43
828.32	228.40
828.64	228.36
828.95	228.39
829.27	228.32
829.58	228.29
829.90	228.27
830.22	228.25
830.53	228.19
830.85	228.17
831.17	228.11
831.48	228.09
831.80	228.09
832.11	228.04
832.43	228.00
832.75	228.01
833.06	227.98
833.38	227.95
833.69	227.90
834.01	227.87
834.32	227.85
834.64	227.78
834.96	227.76
835.27	227.74
835.59	227.69
835.90	227.66
836.22	227.62
836.53	227.57
836.85	227.54
837.16	227.61
837.48	227.59
837.79	227.62
838.11	227.64
838.42	227.61
838.74	227.61
839.05	227.63
839.37	227.63
839.68	227.60
840.00	227.59
840.31	227.61
840.63	227.60
840.94	227.57
841.26	227.58
841.57	227.54
841.88	227.56
842.20	227.52
842.51	227.50
842.83	227.53
843.14	227.62
843.46	227.61
843.77	227.53
844.08	227.54
844.40	227.53
844.71	227.51
845.03	227.53
845.34	227.55
845.65	227.50
845.97	227.51
846.28	227.52
846.60	227.54
846.91	227.52
847.22	227.52
847.54	227.59
847.85	227.61
848.16	227.62
848.48	227.64
848.79	227.67
849.10	227.70
849.42	227.66
849.73	227.61
850.04	227.61
850.36	227.59
850.67	227.61
850.98	227.58
851.30	227.58
851.61	227.56
851.92	227.59
852.23	227.64
852.55	227.64
852.86	227.62
853.17	227.59
853.49	227.63
853.80	227.68
854.11	227.64
854.42	227.69
854.74	227.68
855.05	227.68
855.36	227.66
855.67	227.64
855.99	227.66
856.30	227.73
856.61	227.75
856.92	227.75
857.23	227.74
857.55	227.75
857.86	227.77
858.17	227.79
858.48	227.76
858.79	227.75
859.11	227.77
859.42	227.81
859.73	227.82
860.04	227.78
860.35	227.73
860.66	227.73
860.98	227.69
861.29	227.71
861.60	227.71
861.91	227.73
862.22	227.70
862.53	227.69
862.84	227.60
863.16	227.63
863.47	227.64
863.78	227.61
864.09	227.60
864.40	227.58
864.71	227.57
865.02	227.52
865.33	227.52
865.64	227.46
865.95	227.45
866.27	227.52
866.58	227.54
866.89	227.53
867.20	227.50
867.51	227.46
867.82	227.44
868.13	227.43
868.44	227.43
868.75	227.47
869.06	227.47
869.37	227.48
869.68	227.44
869.99	227.44
870.30	227.46
870.61	227.47
870.92	227.43
871.23	227.40
871.54	227.43
871.85	227.46
872.16	227.49
872.47	227.44
872.78	227.37
873.09	227.31
873.40	227.32
873.71	227.35
874.02	227.38
874.33	227.36
874.64	227.33
874.95	227.29
875.26	227.25
875.56	227.24
875.87	227.22
876.18	227.21
876.49	227.28
876.80	227.28
877.11	227.24
877.42	227.26
877.73	227.25
878.04	227.22
878.35	227.21
878.66	227.20
878.96	227.19
879.27	227.17
879.58	227.19
879.89	227.17
880.20	227.17
880.51	227.13
880.82	227.14
881.12	227.15
881.43	227.15
881.74	227.13
882.05	227.13
882.36	227.15
882.67	227.14
882.97	227.04
883.28	227.01
883.59	227.02
883.90	227.04
884.21	227.07
884.51	227.11
884.82	227.08
885.13	227.06
885.44	227.07
885.74	227.06
886.05	227.06
886.36	227.05
886.67	227.02
886.98	227.09
887.28	227.09
887.59	227.10
887.90	227.10
888.20	227.11
888.51	227.11
888.82	227.04
889.13	227.05
889.43	227.14
889.74	227.14
890.05	227.13
890.35	227.12
890.66	227.09
890.97	227.08
891.28	227.09
891.58	227.10
891.89	227.10
892.20	227.12
892.50	227.10
892.81	227.07
893.12	227.09
893.42	227.06
893.73	227.09
894.04	227.09
894.34	227.13
894.65	227.15
894.95	227.18
895.26	227.22
895.57	227.30
895.87	227.24
896.18	227.28
896.48	227.29
896.79	227.30
897.10	227.33
897.40	227.31
897.71	227.34
898.01	227.36
898.32	227.37
898.63	227.35
898.93	227.40
899.24	227.46
899.54	227.45
899.85	227.45
900.15	227.43
900.46	227.42
900.76	227.40
901.07	227.38
901.38	227.35
901.68	227.36
901.99	227.29
902.29	227.28
902.60	227.23
902.90	227.25
903.21	227.21
903.51	227.21
903.82	227.23
904.12	227.19
904.43	227.16
904.73	227.17
905.03	227.19
905.34	227.27
905.64	227.25
905.95	227.25
906.25	227.20
906.56	227.21
906.86	227.22
907.17	227.23
907.47	227.26
907.77	227.28
908.08	227.24
908.38	227.19
908.69	227.20
908.99	227.22
909.30	227.19
909.60	227.19
909.90	227.19
910.21	227.17
910.51	227.18
910.81	227.17
911.12	227.17
911.42	227.13
911.73	227.01
912.03	227.02
912.33	227.03
912.64	227.04
912.94	227.01
913.24	227.01
913.55	226.98
913.85	226.97
914.15	226.96
914.46	226.98
914.76	227.02
915.06	227.01
915.37	227.03
915.67	226.99
915.97	227.00
916.27	226.97
916.58	226.99
916.88	226.97
917.18	226.96
917.49	227.04
917.79	227.06
918.09	227.09
918.39	227.09
918.70	227.06
919.00	227.06
919.30	227.11
919.60	227.07
919.91	227.07
920.21	227.06
920.51	227.03
920.81	227.06
921.12	227.10
921.42	227.09
921.72	227.10
922.02	227.13
922.32	227.14
922.63	227.13
922.93	227.17
923.23	227.22
923.53	227.22
923.83	227.12
924.13	227.12
924.44	227.10
924.74	227.12
925.04	227.16
925.34	227.17
925.64	227.15
925.94	227.18
926.24	227.24
926.55	227.24
926.85	227.26
927.15	227.23
927.45	227.22
927.75	227.25
928.05	227.26
928.35	227.28
928.65	227.31
928.95	227.31
929.26	227.27
929.56	227.25
929.86	227.26
930.16	227.26
930.46	227.28
930.76	227.28
931.06	227.26
931.36	227.24
931.66	227.25
931.96	227.25
932.26	227.24
932.56	227.20
932.86	227.23
933.16	227.24
933.46	227.25
933.76	227.24
934.06	227.25
934.36	227.27
934.66	227.27
934.96	227.27
935.26	227.31
935.56	227.34
935.86	227.32
936.16	227.33
936.46	227.32
936.76	227.32
937.06	227.34
937.36	227.36
937.66	227.34
937.96	227.37
938.26	227.36
938.56	227.37
938.86	227.36
939.16	227.35
939.46	227.36
939.76	227.40
940.06	227.38
940.35	227.33
940.65	227.29
940.95	227.27
941.25	227.23
941.55	227.21
941.85	227.19
942.15	227.23
942.45	227.27
942.75	227.29
943.04	227.28
943.34	227.26
943.64	227.27
943.94	227.26
944.24	227.23
944.54	227.22
944.84	227.21
945.13	227.24
945.43	227.19
945.73	227.16
946.03	227.13
946.33	227.10
946.62	227.07
946.92	227.06
947.22	227.04
947.52	227.02
947.82	227.04
948.11	227.02
948.41	226.96
948.71	226.87
949.01	226.87
949.31	226.85
949.60	226.87
949.90	226.84
950.20	226.85
950.50	226.84
950.79	226.85
951.09	226.84
951.39	226.78
951.69	226.79
951.98	226.78
952.28	226.76
952.58	226.76
952.87	226.75
953.17	226.73
953.47	226.74
953.76	226.72
954.06	226.68
954.36	226.65
954.66	226.65
954.95	226.65
955.25	226.59
955.55	226.56
955.84	226.50
956.14	226.50
956.44	226.48
956.73	226.45
957.03	226.44
957.32	226.44
957.62	226.45
957.92	226.48
958.21	226.50
958.51	226.59
958.81	226.62
959.10	226.64
959.40	226.65
959.69	226.67
959.99	226.68
960.29	226.67
960.58	226.66
960.88	226.68
961.17	226.70
961.47	226.75
961.76	226.76
962.06	226.78
962.36	226.77
962.65	226.75
962.95	226.75
963.24	226.76
963.54	226.78
963.83	226.78
964.13	226.73
964.42	226.69
964.72	226.63
965.01	226.61
965.31	226.59
965.60	226.61
965.90	226.66
966.19	226.63
966.49	226.65
966.78	226.64
967.08	226.67
967.37	226.68
967.67	226.68
967.96	226.68
968.26	226.69
968.55	226.71
968.85	226.73
969.14	226.74
969.43	226.72
969.73	226.73
970.02	226.73
970.32	226.75
970.61	226.77
970.91	226.75
971.20	226.73
971.49	226.75
971.79	226.74
972.08	226.68
972.38	226.73
972.67	226.76
972.96	226.80
973.26	226.79
973.55	226.85
973.85	226.83
974.14	226.87
974.43	226.90
974.73	226.92
975.02	226.94
975.31	226.96
975.61	226.96
975.90	226.94
976.19	226.95
976.49	226.96
976.78	226.96
977.07	226.97
977.37	227.04
977.66	227.06
977.95	227.06
978.24	227.07
978.54	227.09
978.83	227.07
979.12	227.06
979.42	227.04
979.71	226.99
980.00	227.00
980.29	227.02
980.59	226.98
980.88	227.00
981.17	226.99
981.46	227.02
981.76	227.02
982.05	227.05
982.34	227.04
982.63	227.06
982.93	227.06
983.22	227.09
983.51	227.06
983.80	227.09
984.09	227.10
984.39	227.09
984.68	227.07
984.97	227.07
985.26	227.05
985.55	227.07
985.85	227.10
986.14	227.13
986.43	227.14
986.72	227.13
987.01	227.08
987.30	227.07
987.59	227.04
987.89	227.08
988.18	227.05
988.47	227.07
988.76	227.02
989.05	227.05
989.34	227.02
989.63	227.04
989.92	227.02
990.22	227.00
990.51	227.00
990.80	226.99
991.09	227.02
991.38	227.03
991.67	227.02
991.96	226.98
992.25	226.97
992.54	226.94
992.83	226.94
993.12	226.94
993.41	226.98
993.70	227.02
993.99	227.01
994.28	227.03
994.58	227.02
994.87	227.00
995.16	226.96
995.45	226.94
995.74	226.91
996.03	226.88
996.32	226.88
996.61	226.91
996.90	226.93
997.19	226.90
997.48	226.92
997.77	226.91
998.06	226.92
998.34	226.90
998.63	226.88
998.92	226.88
999.21	226.89
999.50	226.87
999.79	226.85
1000.08	226.83
1000.37	226.83
1000.66	226.81
1000.95	226.85
1001.24	226.86
1001.53	226.88
1001.82	226.89
1002.11	226.90
1002.40	226.89
1002.68	226.87
1002.97	226.94
1003.26	226.92
1003.55	226.91
1003.84	226.88
1004.13	226.89
1004.42	226.89
1004.71	226.90
1004.99	226.89
1005.28	226.92
1005.57	226.91
1005.86	226.87
1006.15	226.88
1006.44	226.84
1006.72	226.83
1007.01	226.83
1007.30	226.85
1007.59	226.83
1007.88	226.85
1008.17	226.82
1008.45	226.85
1008.74	226.81
1009.03	226.75
1009.32	226.72
1009.60	226.71
1009.89	226.70
1010.18	226.63
1010.47	226.67
1010.76	226.68
1011.04	226.69
1011.33	226.68
1011.62	226.67
1011.91	226.71
1012.19	226.70
1012.48	226.71
1012.77	226.71
1013.05	226.76
1013.34	226.73
1013.63	226.75
1013.92	226.73
1014.20	226.73
1014.49	226.71
1014.78	226.73
1015.06	226.75
1015.35	226.80
1015.64	226.80
1015.92	226.83
1016.21	226.90
1016.50	226.88
1016.78	226.86
1017.07	226.90
1017.36	226.85
1017.64	226.83
1017.93	226.84
1018.22	226.85
1018.50	226.85
1018.79	226.86
1019.08	226.79
1019.36	226.83
1019.65	226.83
1019.93	226.88
1020.22	226.92
1020.51	226.98
1020.79	226.97
1021.08	226.93
1021.36	226.60
1021.65	226.57
1021.94	226.50
1022.22	227.44
1022.51	227.20
1022.79	227.71
1023.08	227.21
1023.36	227.86
1023.65	226.57
>>>>>End Processed Spectral Data<<<<<
