SpectraSuite Data File
++++++++++++++++++++++++++++++++++++
Date: Fri Feb 01 16:00:19 EST 2013
User: group
Dark Spectrum Present: No
Reference Spectrum Present: No
Number of Sampled Component Spectra: 1
Spectrometers: USB2E7196
Integration Time (usec): 35000 (USB2E7196)
Spectra Averaged: 100 (USB2E7196)
Boxcar Smoothing: 10 (USB2E7196)
Correct for Electrical Dark: No (USB2E7196)
Strobe/Lamp Enabled: No (USB2E7196)
Correct for Detector Non-linearity: No (USB2E7196)
Correct for Stray Light: No (USB2E7196)
Number of Pixels in Processed Spectrum: 2048
>>>>>Begin Processed Spectral Data<<<<<
339.09	0.00
339.48	215.40
339.86	216.44
340.24	217.97
340.63	219.54
341.01	221.80
341.39	222.22
341.78	223.48
342.16	224.27
342.54	225.30
342.93	213.40
343.31	224.17
343.69	224.67
344.07	225.13
344.46	225.55
344.84	225.91
345.22	226.17
345.60	226.38
345.99	226.55
346.37	226.68
346.75	226.76
347.13	226.83
347.52	226.89
347.90	226.95
348.28	226.95
348.66	226.99
349.05	226.99
349.43	227.03
349.81	227.06
350.19	227.08
350.57	227.15
350.96	227.20
351.34	227.30
351.72	227.39
352.10	227.48
352.48	227.53
352.87	227.59
353.25	227.61
353.63	227.67
354.01	227.74
354.39	227.83
354.77	227.89
355.15	228.01
355.54	228.04
355.92	228.04
356.30	228.13
356.68	228.29
357.06	228.36
357.44	228.41
357.82	228.44
358.20	228.52
358.58	228.56
358.97	228.63
359.35	228.67
359.73	228.74
360.11	228.79
360.49	228.83
360.87	228.85
361.25	228.91
361.63	229.00
362.01	229.04
362.39	229.04
362.77	229.08
363.15	229.08
363.53	229.10
363.91	229.13
364.29	229.15
364.67	229.04
365.05	229.05
365.43	229.07
365.81	229.09
366.19	229.11
366.57	229.18
366.95	229.18
367.33	229.15
367.71	229.14
368.09	229.13
368.47	229.13
368.85	229.13
369.23	229.11
369.61	229.02
369.99	229.01
370.37	229.00
370.75	229.00
371.13	228.97
371.51	228.91
371.89	228.88
372.27	228.82
372.65	228.78
373.03	228.74
373.41	228.67
373.78	228.64
374.16	228.54
374.54	228.46
374.92	228.38
375.30	228.32
375.68	228.22
376.06	228.16
376.44	228.06
376.82	227.98
377.19	227.96
377.57	227.88
377.95	227.79
378.33	227.71
378.71	227.60
379.09	227.51
379.47	227.43
379.84	227.40
380.22	227.30
380.60	227.20
380.98	227.10
381.36	227.04
381.73	226.94
382.11	226.87
382.49	226.78
382.87	226.66
383.25	226.60
383.62	226.67
384.00	226.60
384.38	226.58
384.76	226.54
385.13	226.50
385.51	226.50
385.89	226.42
386.27	226.35
386.64	226.34
387.02	226.30
387.40	226.27
387.78	226.21
388.15	226.18
388.53	226.17
388.91	226.16
389.29	226.14
389.66	226.15
390.04	226.14
390.42	226.15
390.79	226.17
391.17	226.17
391.55	226.05
391.92	226.04
392.30	226.04
392.68	226.04
393.05	226.04
393.43	226.06
393.81	226.12
394.18	226.15
394.56	226.13
394.94	226.16
395.31	226.19
395.69	226.22
396.06	226.28
396.44	226.33
396.82	226.36
397.19	226.43
397.57	226.44
397.95	226.47
398.32	226.46
398.70	226.52
399.07	226.60
399.45	226.66
399.82	226.75
400.20	226.80
400.58	226.88
400.95	226.90
401.33	226.98
401.70	227.10
402.08	227.20
402.45	227.32
402.83	227.43
403.20	227.54
403.58	227.63
403.95	227.75
404.33	227.87
404.71	227.99
405.08	228.18
405.46	228.33
405.83	228.50
406.21	228.66
406.58	228.80
406.96	228.96
407.33	229.12
407.70	229.29
408.08	229.58
408.45	229.79
408.83	230.03
409.20	230.25
409.58	230.43
409.95	230.67
410.33	230.93
410.70	231.20
411.08	231.50
411.45	231.80
411.82	232.10
412.20	232.46
412.57	232.86
412.95	233.15
413.32	233.56
413.69	233.94
414.07	234.43
414.44	234.92
414.82	235.41
415.19	236.00
415.56	236.52
415.94	237.06
416.31	237.66
416.68	238.27
417.06	238.93
417.43	239.61
417.81	240.39
418.18	241.17
418.55	242.00
418.93	242.87
419.30	243.78
419.67	244.74
420.04	245.68
420.42	246.68
420.79	247.88
421.16	249.00
421.54	250.22
421.91	251.40
422.28	252.65
422.66	253.99
423.03	255.26
423.40	256.62
423.77	258.01
424.15	259.48
424.52	260.95
424.89	262.58
425.26	264.12
425.64	265.60
426.01	267.22
426.38	268.91
426.75	270.56
427.13	272.24
427.50	274.05
427.87	275.92
428.24	277.79
428.61	279.54
428.99	281.48
429.36	283.61
429.73	285.66
430.10	287.67
430.47	289.71
430.85	291.85
431.22	294.10
431.59	296.49
431.96	298.72
432.33	301.22
432.70	303.59
433.08	306.42
433.45	309.06
433.82	311.62
434.19	314.48
434.56	317.32
434.93	320.02
435.30	322.63
435.68	325.52
436.05	328.34
436.42	331.11
436.79	333.68
437.16	336.34
437.53	339.20
437.90	341.98
438.27	344.71
438.64	347.52
439.01	350.11
439.38	352.34
439.75	354.51
440.13	357.01
440.50	359.35
440.87	361.17
441.24	363.09
441.61	365.25
441.98	366.73
442.35	368.52
442.72	370.40
443.09	372.16
443.46	373.15
443.83	373.73
444.20	374.27
444.57	375.05
444.94	375.36
445.31	375.68
445.68	376.10
446.05	376.18
446.42	375.77
446.79	375.32
447.16	374.86
447.53	374.49
447.90	373.35
448.27	372.15
448.64	370.53
449.01	369.37
449.37	367.39
449.74	365.51
450.11	363.25
450.48	360.72
450.85	358.23
451.22	356.09
451.59	354.08
451.96	352.12
452.33	349.55
452.70	347.17
453.07	344.33
453.43	341.40
453.80	338.63
454.17	335.96
454.54	333.44
454.91	330.72
455.28	328.10
455.65	325.56
456.02	323.11
456.38	320.98
456.75	318.35
457.12	316.13
457.49	313.90
457.86	311.71
458.23	309.92
458.59	307.90
458.96	305.84
459.33	303.94
459.70	302.07
460.07	300.55
460.43	298.83
460.80	297.21
461.17	295.77
461.54	294.28
461.91	292.86
462.27	291.41
462.64	290.16
463.01	288.74
463.38	287.48
463.74	286.18
464.11	285.06
464.48	284.03
464.85	282.93
465.21	282.05
465.58	281.17
465.95	280.03
466.32	279.10
466.68	278.19
467.05	277.32
467.42	276.43
467.78	275.47
468.15	274.62
468.52	273.98
468.88	273.14
469.25	272.39
469.62	271.78
469.98	271.14
470.35	270.55
470.72	270.02
471.08	269.40
471.45	268.84
471.82	268.27
472.18	267.70
472.55	267.26
472.92	266.76
473.28	266.29
473.65	265.87
474.02	265.43
474.38	265.07
474.75	264.74
475.11	264.41
475.48	264.18
475.85	263.97
476.21	263.75
476.58	263.54
476.94	263.38
477.31	263.21
477.67	263.03
478.04	262.91
478.41	262.84
478.77	262.85
479.14	262.79
479.50	262.81
479.87	262.84
480.23	262.92
480.60	262.98
480.96	263.10
481.33	263.33
481.69	263.52
482.06	263.74
482.42	263.95
482.79	264.20
483.15	264.49
483.52	264.84
483.88	265.19
484.25	265.61
484.61	266.06
484.98	266.51
485.34	267.11
485.71	267.68
486.07	268.29
486.44	268.83
486.80	269.51
487.17	270.25
487.53	271.09
487.90	271.95
488.26	272.93
488.62	273.89
488.99	274.84
489.35	275.89
489.72	277.01
490.08	278.21
490.44	279.46
490.81	280.82
491.17	282.17
491.54	283.60
491.90	285.13
492.26	286.75
492.63	288.53
492.99	290.33
493.36	292.18
493.72	294.25
494.08	296.38
494.45	298.62
494.81	300.95
495.17	303.36
495.54	305.92
495.90	308.51
496.26	311.29
496.63	314.28
496.99	317.41
497.35	320.66
497.72	324.07
498.08	327.55
498.44	331.24
498.80	335.18
499.17	339.21
499.53	343.35
499.89	347.75
500.26	352.21
500.62	356.85
500.98	361.86
501.34	366.91
501.71	372.27
502.07	377.74
502.43	383.40
502.79	389.21
503.16	395.25
503.52	401.55
503.88	407.92
504.24	414.56
504.60	421.46
504.97	428.51
505.33	435.83
505.69	443.60
506.05	451.37
506.41	459.32
506.78	467.56
507.14	476.07
507.50	484.82
507.86	493.90
508.22	503.11
508.59	512.31
508.95	521.91
509.31	531.75
509.67	541.84
510.03	552.15
510.39	562.78
510.75	573.65
511.12	584.65
511.48	596.03
511.84	607.44
512.20	618.90
512.56	630.97
512.92	643.20
513.28	655.49
513.64	668.01
514.00	680.64
514.37	693.51
514.73	706.58
515.09	719.51
515.45	732.79
515.81	746.39
516.17	760.38
516.53	774.49
516.89	788.65
517.25	802.86
517.61	817.32
517.97	831.74
518.33	846.08
518.69	860.83
519.05	875.81
519.41	890.96
519.77	906.50
520.13	921.92
520.49	937.31
520.85	952.80
521.21	968.48
521.57	984.70
521.93	1000.49
522.29	1016.87
522.65	1033.19
523.01	1049.36
523.37	1065.36
523.73	1081.45
524.09	1097.58
524.45	1113.85
524.81	1130.44
525.17	1147.12
525.53	1163.96
525.89	1180.83
526.25	1197.61
526.61	1214.00
526.97	1230.69
527.33	1247.18
527.68	1263.77
528.04	1280.28
528.40	1296.84
528.76	1313.83
529.12	1330.43
529.48	1347.34
529.84	1363.35
530.20	1379.96
530.56	1397.04
530.91	1414.51
531.27	1431.22
531.63	1447.72
531.99	1464.18
532.35	1480.18
532.71	1496.04
533.07	1512.28
533.42	1528.11
533.78	1544.11
534.14	1560.39
534.50	1575.87
534.86	1591.71
535.21	1606.79
535.57	1622.60
535.93	1638.04
536.29	1652.74
536.65	1667.72
537.00	1682.42
537.36	1697.69
537.72	1712.17
538.08	1726.42
538.44	1740.02
538.79	1753.97
539.15	1767.52
539.51	1781.26
539.87	1795.56
540.22	1809.35
540.58	1823.11
540.94	1836.46
541.29	1849.27
541.65	1861.75
542.01	1874.79
542.37	1887.16
542.72	1899.59
543.08	1911.32
543.44	1923.63
543.79	1934.85
544.15	1945.74
544.51	1957.35
544.87	1968.28
545.22	1979.16
545.58	1989.29
545.94	1998.99
546.29	2008.93
546.65	2018.63
547.01	2027.87
547.36	2036.53
547.72	2044.87
548.07	2052.67
548.43	2060.81
548.79	2068.95
549.14	2076.39
549.50	2083.72
549.86	2091.30
550.21	2098.65
550.57	2105.81
550.92	2112.33
551.28	2119.44
551.64	2126.66
551.99	2133.04
552.35	2139.13
552.70	2145.12
553.06	2151.13
553.41	2157.62
553.77	2163.51
554.13	2169.68
554.48	2175.91
554.84	2181.27
555.19	2186.63
555.55	2191.77
555.90	2196.18
556.26	2200.96
556.61	2205.85
556.97	2210.02
557.32	2214.16
557.68	2218.12
558.03	2222.38
558.39	2226.17
558.74	2230.75
559.10	2234.54
559.45	2238.28
559.81	2242.64
560.16	2246.61
560.52	2249.87
560.87	2253.21
561.23	2256.01
561.58	2258.93
561.94	2261.35
562.29	2263.73
562.64	2266.29
563.00	2268.99
563.35	2272.67
563.71	2275.81
564.06	2279.14
564.42	2282.06
564.77	2284.52
565.12	2286.88
565.48	2288.76
565.83	2290.58
566.19	2291.86
566.54	2292.88
566.89	2293.89
567.25	2294.49
567.60	2295.80
567.96	2297.50
568.31	2298.38
568.66	2299.32
569.02	2299.95
569.37	2300.34
569.72	2301.28
570.08	2301.49
570.43	2301.40
570.78	2300.88
571.14	2299.46
571.49	2298.07
571.84	2297.79
572.20	2296.70
572.55	2295.69
572.90	2294.21
573.26	2292.85
573.61	2291.26
573.96	2289.41
574.31	2286.57
574.67	2283.54
575.02	2279.88
575.37	2276.57
575.72	2272.78
576.08	2269.57
576.43	2266.18
576.78	2262.50
577.13	2259.32
577.49	2256.21
577.84	2252.76
578.19	2248.90
578.54	2245.14
578.90	2240.87
579.25	2235.30
579.60	2230.32
579.95	2225.34
580.30	2220.44
580.66	2215.39
581.01	2210.50
581.36	2205.60
581.71	2201.32
582.06	2196.83
582.42	2192.48
582.77	2187.29
583.12	2182.72
583.47	2177.88
583.82	2172.95
584.17	2167.71
584.53	2162.16
584.88	2156.56
585.23	2150.88
585.58	2145.34
585.93	2140.06
586.28	2135.33
586.63	2130.24
586.98	2125.14
587.34	2120.39
587.69	2115.47
588.04	2110.10
588.39	2104.42
588.74	2098.00
589.09	2091.90
589.44	2085.09
589.79	2079.13
590.14	2073.65
590.49	2067.17
590.84	2060.89
591.19	2054.96
591.54	2048.43
591.89	2041.16
592.25	2034.34
592.60	2027.06
592.95	2019.47
593.30	2012.04
593.65	2004.39
594.00	1997.47
594.35	1990.25
594.70	1982.36
595.05	1974.96
595.40	1967.82
595.75	1960.19
596.10	1953.98
596.45	1947.33
596.80	1941.20
597.15	1934.32
597.50	1926.95
597.85	1920.51
598.19	1913.84
598.54	1906.56
598.89	1900.00
599.24	1894.13
599.59	1887.50
599.94	1881.30
600.29	1875.19
600.64	1868.57
600.99	1861.20
601.34	1854.40
601.69	1847.59
602.04	1840.58
602.39	1833.34
602.74	1826.37
603.08	1819.82
603.43	1813.08
603.78	1805.74
604.13	1798.61
604.48	1791.31
604.83	1784.53
605.18	1777.42
605.53	1769.53
605.87	1761.60
606.22	1754.56
606.57	1746.63
606.92	1739.33
607.27	1732.13
607.62	1725.08
607.96	1717.85
608.31	1711.19
608.66	1703.55
609.01	1695.97
609.36	1688.51
609.70	1680.49
610.05	1672.46
610.40	1664.74
610.75	1656.39
611.10	1648.71
611.44	1640.32
611.79	1632.39
612.14	1623.78
612.49	1614.70
612.83	1606.22
613.18	1598.08
613.53	1589.84
613.88	1581.34
614.22	1572.99
614.57	1564.45
614.92	1556.36
615.27	1548.75
615.61	1540.44
615.96	1532.41
616.31	1524.71
616.65	1517.29
617.00	1509.90
617.35	1502.35
617.70	1493.90
618.04	1485.41
618.39	1477.18
618.74	1469.50
619.08	1461.21
619.43	1453.56
619.78	1446.65
620.12	1439.46
620.47	1431.84
620.82	1423.67
621.16	1416.22
621.51	1408.62
621.85	1400.91
622.20	1392.45
622.55	1384.07
622.89	1376.21
623.24	1368.53
623.59	1361.06
623.93	1353.49
624.28	1346.08
624.62	1338.36
624.97	1331.20
625.32	1324.44
625.66	1317.45
626.01	1310.23
626.35	1302.70
626.70	1294.90
627.04	1287.18
627.39	1279.42
627.73	1272.20
628.08	1265.26
628.43	1257.91
628.77	1250.59
629.12	1243.03
629.46	1235.83
629.81	1228.46
630.15	1221.17
630.50	1213.75
630.84	1205.59
631.19	1197.66
631.53	1190.25
631.88	1182.77
632.22	1175.18
632.57	1167.81
632.91	1160.26
633.26	1152.93
633.60	1145.62
633.95	1138.59
634.29	1131.53
634.64	1124.84
634.98	1117.33
635.32	1110.16
635.67	1103.57
636.01	1096.92
636.36	1090.11
636.70	1083.66
637.05	1077.09
637.39	1070.55
637.73	1064.06
638.08	1058.16
638.42	1052.18
638.77	1045.61
639.11	1039.04
639.45	1032.66
639.80	1025.99
640.14	1019.48
640.49	1012.84
640.83	1006.55
641.17	1000.23
641.52	993.87
641.86	987.36
642.20	981.58
642.55	975.25
642.89	968.78
643.23	962.31
643.58	956.54
643.92	950.35
644.26	944.18
644.61	938.33
644.95	932.30
645.29	925.80
645.64	919.05
645.98	912.83
646.32	907.00
646.66	900.90
647.01	895.21
647.35	889.54
647.69	883.76
648.04	878.22
648.38	872.46
648.72	866.44
649.06	860.37
649.41	854.49
649.75	848.55
650.09	842.67
650.43	836.81
650.78	830.72
651.12	824.76
651.46	819.08
651.80	813.29
652.14	807.84
652.49	802.43
652.83	797.26
653.17	791.52
653.51	785.74
653.85	780.42
654.20	774.71
654.54	768.73
654.88	763.06
655.22	757.19
655.56	751.50
655.90	746.12
656.25	740.89
656.59	735.53
656.93	730.43
657.27	725.18
657.61	719.75
657.95	714.69
658.29	709.50
658.64	704.23
658.98	698.95
659.32	693.58
659.66	688.41
660.00	683.08
660.34	678.16
660.68	673.34
661.02	668.25
661.36	663.55
661.70	659.02
662.05	654.59
662.39	650.26
662.73	645.81
663.07	641.41
663.41	636.98
663.75	632.46
664.09	627.89
664.43	623.50
664.77	619.34
665.11	615.03
665.45	610.99
665.79	606.91
666.13	602.71
666.47	598.62
666.81	594.42
667.15	590.34
667.49	586.44
667.83	582.52
668.17	578.61
668.51	574.50
668.85	570.50
669.19	566.67
669.53	562.78
669.87	558.83
670.21	555.11
670.55	551.47
670.89	548.08
671.23	544.60
671.57	541.04
671.91	537.52
672.25	533.99
672.58	530.44
672.92	527.08
673.26	523.98
673.60	520.79
673.94	517.64
674.28	514.69
674.62	511.70
674.96	508.66
675.30	505.69
675.64	502.78
675.97	500.02
676.31	497.13
676.65	494.19
676.99	491.54
677.33	488.71
677.67	485.84
678.01	482.79
678.34	479.84
678.68	477.03
679.02	474.24
679.36	471.50
679.70	468.79
680.04	466.00
680.37	463.08
680.71	460.26
681.05	457.64
681.39	454.89
681.73	452.21
682.06	449.64
682.40	447.13
682.74	444.63
683.08	442.03
683.42	439.46
683.75	436.95
684.09	434.43
684.43	431.95
684.77	429.50
685.10	427.15
685.44	424.86
685.78	422.53
686.12	420.29
686.45	418.01
686.79	415.74
687.13	413.54
687.46	411.39
687.80	409.30
688.14	407.14
688.48	405.10
688.81	402.88
689.15	400.72
689.49	398.58
689.82	396.47
690.16	394.50
690.50	392.54
690.83	390.63
691.17	388.63
691.51	386.71
691.84	384.90
692.18	382.95
692.52	380.93
692.85	379.02
693.19	377.08
693.52	375.25
693.86	373.37
694.20	371.62
694.53	369.80
694.87	367.92
695.21	366.15
695.54	364.36
695.88	362.64
696.21	360.95
696.55	359.29
696.88	357.67
697.22	355.95
697.56	354.33
697.89	352.66
698.23	351.05
698.56	349.48
698.90	347.87
699.23	346.25
699.57	344.77
699.90	343.30
700.24	341.77
700.58	340.25
700.91	338.80
701.25	337.35
701.58	335.98
701.92	334.64
702.25	333.26
702.59	331.87
702.92	330.55
703.26	329.24
703.59	327.97
703.93	326.72
704.26	325.45
704.60	324.13
704.93	322.91
705.26	321.67
705.60	320.48
705.93	319.31
706.27	318.27
706.60	317.18
706.94	316.04
707.27	314.87
707.61	313.83
707.94	312.83
708.27	311.71
708.61	310.62
708.94	309.66
709.28	308.68
709.61	307.75
709.94	306.75
710.28	305.74
710.61	304.77
710.95	303.72
711.28	302.82
711.61	301.87
711.95	300.93
712.28	299.99
712.61	298.96
712.95	298.03
713.28	297.14
713.61	296.25
713.95	295.35
714.28	294.55
714.61	293.67
714.95	292.76
715.28	291.93
715.61	291.07
715.95	290.15
716.28	289.29
716.61	288.46
716.95	287.67
717.28	286.91
717.61	286.13
717.94	285.36
718.28	284.54
718.61	283.79
718.94	283.06
719.27	282.35
719.61	281.75
719.94	281.10
720.27	280.39
720.60	279.71
720.94	279.08
721.27	278.46
721.60	277.87
721.93	277.28
722.27	276.74
722.60	276.19
722.93	275.64
723.26	275.09
723.59	274.50
723.93	273.95
724.26	273.38
724.59	272.81
724.92	272.33
725.25	271.85
725.59	271.39
725.92	270.86
726.25	270.40
726.58	269.87
726.91	269.37
727.24	268.92
727.57	268.46
727.91	267.99
728.24	267.54
728.57	267.08
728.90	266.64
729.23	266.13
729.56	265.72
729.89	265.26
730.22	264.80
730.55	264.33
730.89	263.91
731.22	263.47
731.55	263.03
731.88	262.57
732.21	262.13
732.54	261.70
732.87	261.29
733.20	260.88
733.53	260.50
733.86	260.15
734.19	259.73
734.52	259.35
734.85	259.07
735.18	258.68
735.51	258.36
735.84	257.97
736.17	257.62
736.50	257.19
736.83	256.96
737.16	256.65
737.49	256.34
737.82	256.01
738.15	255.72
738.48	255.43
738.81	255.13
739.14	254.82
739.47	254.49
739.80	254.19
740.13	253.96
740.46	253.66
740.79	253.33
741.12	253.07
741.45	252.77
741.78	252.38
742.11	252.11
742.44	251.79
742.77	251.53
743.10	251.25
743.43	250.97
743.75	250.58
744.08	250.39
744.41	250.13
744.74	249.83
745.07	249.54
745.40	249.27
745.73	249.04
746.06	248.81
746.39	248.56
746.71	248.30
747.04	247.93
747.37	247.67
747.70	247.43
748.03	247.16
748.36	246.95
748.68	246.75
749.01	246.48
749.34	246.25
749.67	246.01
750.00	245.77
750.33	245.64
750.65	245.41
750.98	245.07
751.31	244.80
751.64	244.58
751.97	244.41
752.29	244.16
752.62	243.91
752.95	243.67
753.28	243.46
753.60	243.27
753.93	243.10
754.26	242.88
754.59	242.63
754.91	242.41
755.24	242.18
755.57	241.98
755.90	241.79
756.22	241.55
756.55	241.31
756.88	241.09
757.20	240.82
757.53	240.64
757.86	240.47
758.19	240.34
758.51	240.15
758.84	239.93
759.17	239.78
759.49	239.60
759.82	239.45
760.15	239.25
760.47	239.09
760.80	238.94
761.13	238.82
761.45	238.66
761.78	238.48
762.11	238.35
762.43	238.18
762.76	238.03
763.08	237.93
763.41	237.81
763.74	237.71
764.06	237.57
764.39	237.41
764.71	237.29
765.04	237.14
765.37	237.01
765.69	236.90
766.02	236.77
766.34	236.62
766.67	236.48
767.00	236.41
767.32	236.33
767.65	236.27
767.97	236.11
768.30	236.02
768.62	235.92
768.95	235.78
769.27	235.66
769.60	235.55
769.92	235.43
770.25	235.32
770.57	235.19
770.90	235.09
771.22	235.03
771.55	234.92
771.87	234.85
772.20	234.78
772.52	234.76
772.85	234.81
773.17	234.73
773.50	234.62
773.82	234.53
774.15	234.41
774.47	234.26
774.80	234.15
775.12	234.09
775.45	234.00
775.77	233.95
776.09	233.91
776.42	233.81
776.74	233.74
777.07	233.68
777.39	233.62
777.72	233.55
778.04	233.47
778.36	233.37
778.69	233.28
779.01	233.23
779.33	233.07
779.66	232.87
779.98	232.84
780.31	232.78
780.63	232.74
780.95	232.70
781.28	232.63
781.60	232.61
781.92	232.50
782.25	232.46
782.57	232.36
782.89	232.29
783.22	232.26
783.54	232.20
783.86	232.10
784.19	232.04
784.51	231.99
784.83	231.90
785.16	231.85
785.48	231.81
785.80	231.71
786.12	231.71
786.45	231.66
786.77	231.58
787.09	231.55
787.42	231.44
787.74	231.37
788.06	231.35
788.38	231.31
788.71	231.27
789.03	231.21
789.35	231.20
789.67	231.16
789.99	231.13
790.32	231.06
790.64	231.09
790.96	231.11
791.28	231.04
791.61	230.99
791.93	230.97
792.25	230.91
792.57	230.94
792.89	230.85
793.21	230.80
793.54	230.74
793.86	230.65
794.18	230.65
794.50	230.58
794.82	230.55
795.14	230.49
795.47	230.47
795.79	230.46
796.11	230.40
796.43	230.30
796.75	230.24
797.07	230.19
797.39	230.13
797.71	230.04
798.04	229.99
798.36	229.93
798.68	229.88
799.00	229.88
799.32	229.80
799.64	229.79
799.96	229.75
800.28	229.75
800.60	229.72
800.92	229.65
801.24	229.62
801.56	229.57
801.89	229.55
802.21	229.51
802.53	229.46
802.85	229.44
803.17	229.50
803.49	229.47
803.81	229.49
804.13	229.45
804.45	229.42
804.77	229.43
805.09	229.47
805.41	229.44
805.73	229.38
806.05	229.34
806.37	229.33
806.69	229.29
807.01	229.28
807.33	229.28
807.65	229.26
807.97	229.31
808.28	229.30
808.60	229.26
808.92	229.23
809.24	229.29
809.56	229.24
809.88	229.16
810.20	229.14
810.52	229.11
810.84	229.07
811.16	229.04
811.48	229.01
811.80	229.01
812.12	228.99
812.43	229.00
812.75	228.97
813.07	228.93
813.39	228.91
813.71	228.86
814.03	228.81
814.35	228.82
814.67	228.72
814.98	228.69
815.30	228.68
815.62	228.66
815.94	228.55
816.26	228.60
816.58	228.59
816.89	228.56
817.21	228.53
817.53	228.50
817.85	228.46
818.17	228.48
818.48	228.43
818.80	228.44
819.12	228.41
819.44	228.38
819.76	228.36
820.07	228.35
820.39	228.37
820.71	228.37
821.03	228.33
821.34	228.32
821.66	228.29
821.98	228.31
822.30	228.27
822.61	228.34
822.93	228.28
823.25	228.26
823.57	228.26
823.88	228.27
824.20	228.27
824.52	228.27
824.83	228.21
825.15	228.20
825.47	228.16
825.79	228.16
826.10	228.15
826.42	228.10
826.74	228.10
827.05	228.05
827.37	228.06
827.69	228.04
828.00	228.04
828.32	228.07
828.64	228.05
828.95	228.08
829.27	228.02
829.58	228.02
829.90	228.03
830.22	228.00
830.53	227.97
830.85	228.00
831.17	227.99
831.48	227.99
831.80	227.99
832.11	228.01
832.43	228.00
832.75	227.96
833.06	228.04
833.38	228.00
833.69	228.00
834.01	228.01
834.32	228.00
834.64	227.95
834.96	227.91
835.27	227.88
835.59	227.83
835.90	227.84
836.22	227.83
836.53	227.81
836.85	227.80
837.16	227.87
837.48	227.84
837.79	227.83
838.11	227.85
838.42	227.81
838.74	227.81
839.05	227.79
839.37	227.81
839.68	227.73
840.00	227.70
840.31	227.69
840.63	227.68
840.94	227.65
841.26	227.64
841.57	227.65
841.88	227.66
842.20	227.66
842.51	227.62
842.83	227.63
843.14	227.71
843.46	227.71
843.77	227.68
844.08	227.65
844.40	227.65
844.71	227.63
845.03	227.65
845.34	227.60
845.65	227.55
845.97	227.56
846.28	227.57
846.60	227.60
846.91	227.59
847.22	227.59
847.54	227.59
847.85	227.63
848.16	227.62
848.48	227.56
848.79	227.61
849.10	227.62
849.42	227.61
849.73	227.50
850.04	227.47
850.36	227.41
850.67	227.42
850.98	227.44
851.30	227.44
851.61	227.44
851.92	227.46
852.23	227.51
852.55	227.52
852.86	227.51
853.17	227.51
853.49	227.53
853.80	227.51
854.11	227.51
854.42	227.51
854.74	227.51
855.05	227.56
855.36	227.49
855.67	227.49
855.99	227.47
856.30	227.59
856.61	227.55
856.92	227.59
857.23	227.61
857.55	227.57
857.86	227.56
858.17	227.53
858.48	227.52
858.79	227.51
859.11	227.51
859.42	227.51
859.73	227.47
860.04	227.44
860.35	227.43
860.66	227.40
860.98	227.37
861.29	227.34
861.60	227.33
861.91	227.34
862.22	227.29
862.53	227.30
862.84	227.20
863.16	227.23
863.47	227.20
863.78	227.17
864.09	227.15
864.40	227.10
864.71	227.10
865.02	227.07
865.33	227.03
865.64	226.99
865.95	227.01
866.27	227.08
866.58	227.10
866.89	227.11
867.20	227.11
867.51	227.11
867.82	227.11
868.13	227.11
868.44	227.09
868.75	227.13
869.06	227.11
869.37	227.10
869.68	227.09
869.99	227.12
870.30	227.10
870.61	227.13
870.92	227.13
871.23	227.12
871.54	227.14
871.85	227.15
872.16	227.18
872.47	227.13
872.78	227.07
873.09	227.08
873.40	227.05
873.71	227.05
874.02	227.04
874.33	227.01
874.64	226.96
874.95	226.96
875.26	226.92
875.56	226.92
875.87	226.91
876.18	226.92
876.49	227.00
876.80	226.99
877.11	226.96
877.42	226.98
877.73	226.95
878.04	226.93
878.35	226.95
878.66	226.95
878.96	226.95
879.27	226.96
879.58	226.96
879.89	226.99
880.20	227.04
880.51	227.05
880.82	227.06
881.12	227.10
881.43	227.10
881.74	227.10
882.05	227.11
882.36	227.11
882.67	227.10
882.97	227.01
883.28	227.02
883.59	227.02
883.90	227.03
884.21	227.06
884.51	227.06
884.82	227.08
885.13	227.05
885.44	227.05
885.74	227.04
886.05	227.01
886.36	226.99
886.67	226.96
886.98	227.00
887.28	227.05
887.59	227.04
887.90	227.07
888.20	227.04
888.51	227.05
888.82	227.05
889.13	227.05
889.43	227.08
889.74	227.06
890.05	227.07
890.35	227.06
890.66	227.06
890.97	227.06
891.28	227.01
891.58	227.01
891.89	227.03
892.20	227.02
892.50	227.02
892.81	227.02
893.12	227.02
893.42	226.98
893.73	226.98
894.04	227.00
894.34	226.99
894.65	227.02
894.95	227.02
895.26	227.03
895.57	227.06
895.87	227.01
896.18	227.05
896.48	227.05
896.79	227.02
897.10	227.04
897.40	227.06
897.71	227.07
898.01	227.08
898.32	227.07
898.63	227.07
898.93	227.07
899.24	227.07
899.54	227.06
899.85	227.04
900.15	227.03
900.46	227.01
900.76	227.01
901.07	227.00
901.38	227.00
901.68	226.99
901.99	226.95
902.29	226.93
902.60	226.90
902.90	226.88
903.21	226.90
903.51	226.87
903.82	226.89
904.12	226.89
904.43	226.89
904.73	226.89
905.03	226.90
905.34	226.96
905.64	226.94
905.95	226.94
906.25	226.92
906.56	226.89
906.86	226.85
907.17	226.83
907.47	226.84
907.77	226.80
908.08	226.79
908.38	226.77
908.69	226.78
908.99	226.79
909.30	226.82
909.60	226.82
909.90	226.79
910.21	226.73
910.51	226.73
910.81	226.75
911.12	226.72
911.42	226.70
911.73	226.62
912.03	226.62
912.33	226.62
912.64	226.63
912.94	226.61
913.24	226.60
913.55	226.58
913.85	226.57
914.15	226.59
914.46	226.58
914.76	226.57
915.06	226.56
915.37	226.54
915.67	226.50
915.97	226.45
916.27	226.49
916.58	226.50
916.88	226.45
917.18	226.39
917.49	226.47
917.79	226.47
918.09	226.47
918.39	226.50
918.70	226.48
919.00	226.49
919.30	226.53
919.60	226.53
919.91	226.54
920.21	226.55
920.51	226.52
920.81	226.51
921.12	226.53
921.42	226.50
921.72	226.49
922.02	226.52
922.32	226.56
922.63	226.53
922.93	226.58
923.23	226.61
923.53	226.61
923.83	226.51
924.13	226.54
924.44	226.53
924.74	226.54
925.04	226.57
925.34	226.59
925.64	226.59
925.94	226.57
926.24	226.61
926.55	226.59
926.85	226.64
927.15	226.64
927.45	226.67
927.75	226.69
928.05	226.68
928.35	226.66
928.65	226.69
928.95	226.70
929.26	226.68
929.56	226.73
929.86	226.76
930.16	226.82
930.46	226.82
930.76	226.86
931.06	226.83
931.36	226.83
931.66	226.86
931.96	226.86
932.26	226.91
932.56	226.89
932.86	226.93
933.16	226.91
933.46	226.93
933.76	226.92
934.06	226.98
934.36	227.04
934.66	227.05
934.96	227.07
935.26	227.07
935.56	227.08
935.86	227.04
936.16	227.01
936.46	226.96
936.76	226.93
937.06	226.91
937.36	226.89
937.66	226.87
937.96	226.85
938.26	226.83
938.56	226.81
938.86	226.81
939.16	226.83
939.46	226.83
939.76	226.83
940.06	226.81
940.35	226.74
940.65	226.71
940.95	226.70
941.25	226.67
941.55	226.67
941.85	226.66
942.15	226.69
942.45	226.75
942.75	226.75
943.04	226.75
943.34	226.79
943.64	226.79
943.94	226.79
944.24	226.78
944.54	226.80
944.84	226.80
945.13	226.79
945.43	226.74
945.73	226.75
946.03	226.73
946.33	226.70
946.62	226.72
946.92	226.70
947.22	226.71
947.52	226.68
947.82	226.67
948.11	226.63
948.41	226.59
948.71	226.54
949.01	226.53
949.31	226.49
949.60	226.45
949.90	226.44
950.20	226.40
950.50	226.38
950.79	226.31
951.09	226.32
951.39	226.30
951.69	226.27
951.98	226.27
952.28	226.26
952.58	226.26
952.87	226.24
953.17	226.25
953.47	226.24
953.76	226.25
954.06	226.24
954.36	226.24
954.66	226.24
954.95	226.27
955.25	226.33
955.55	226.32
955.84	226.29
956.14	226.32
956.44	226.34
956.73	226.36
957.03	226.40
957.32	226.39
957.62	226.35
957.92	226.37
958.21	226.36
958.51	226.43
958.81	226.45
959.10	226.48
959.40	226.48
959.69	226.49
959.99	226.52
960.29	226.53
960.58	226.55
960.88	226.58
961.17	226.54
961.47	226.52
961.76	226.55
962.06	226.58
962.36	226.58
962.65	226.60
962.95	226.64
963.24	226.66
963.54	226.67
963.83	226.71
964.13	226.73
964.42	226.70
964.72	226.70
965.01	226.69
965.31	226.66
965.60	226.64
965.90	226.70
966.19	226.66
966.49	226.66
966.78	226.65
967.08	226.68
967.37	226.74
967.67	226.75
967.96	226.79
968.26	226.81
968.55	226.81
968.85	226.81
969.14	226.79
969.43	226.78
969.73	226.80
970.02	226.81
970.32	226.84
970.61	226.87
970.91	226.80
971.20	226.81
971.49	226.82
971.79	226.88
972.08	226.84
972.38	226.90
972.67	226.90
972.96	226.91
973.26	226.91
973.55	226.92
973.85	226.91
974.14	226.90
974.43	226.90
974.73	226.90
975.02	226.87
975.31	226.87
975.61	226.88
975.90	226.86
976.19	226.83
976.49	226.83
976.78	226.81
977.07	226.85
977.37	226.84
977.66	226.86
977.95	226.83
978.24	226.83
978.54	226.81
978.83	226.81
979.12	226.80
979.42	226.76
979.71	226.72
980.00	226.74
980.29	226.73
980.59	226.71
980.88	226.72
981.17	226.72
981.46	226.70
981.76	226.65
982.05	226.67
982.34	226.69
982.63	226.69
982.93	226.72
983.22	226.72
983.51	226.75
983.80	226.74
984.09	226.74
984.39	226.72
984.68	226.68
984.97	226.67
985.26	226.66
985.55	226.67
985.85	226.67
986.14	226.66
986.43	226.66
986.72	226.63
987.01	226.60
987.30	226.59
987.59	226.59
987.89	226.62
988.18	226.56
988.47	226.56
988.76	226.54
989.05	226.51
989.34	226.49
989.63	226.53
989.92	226.52
990.22	226.50
990.51	226.52
990.80	226.54
991.09	226.55
991.38	226.57
991.67	226.53
991.96	226.51
992.25	226.51
992.54	226.50
992.83	226.51
993.12	226.47
993.41	226.48
993.70	226.55
993.99	226.54
994.28	226.56
994.58	226.58
994.87	226.56
995.16	226.54
995.45	226.55
995.74	226.50
996.03	226.50
996.32	226.53
996.61	226.54
996.90	226.55
997.19	226.55
997.48	226.54
997.77	226.57
998.06	226.59
998.34	226.58
998.63	226.59
998.92	226.61
999.21	226.66
999.50	226.67
999.79	226.61
1000.08	226.62
1000.37	226.65
1000.66	226.65
1000.95	226.71
1001.24	226.74
1001.53	226.75
1001.82	226.72
1002.11	226.68
1002.40	226.69
1002.68	226.74
1002.97	226.83
1003.26	226.81
1003.55	226.82
1003.84	226.81
1004.13	226.81
1004.42	226.83
1004.71	226.85
1004.99	226.83
1005.28	226.86
1005.57	226.86
1005.86	226.86
1006.15	226.88
1006.44	226.84
1006.72	226.85
1007.01	226.81
1007.30	226.80
1007.59	226.79
1007.88	226.82
1008.17	226.87
1008.45	226.85
1008.74	226.79
1009.03	226.71
1009.32	226.72
1009.60	226.70
1009.89	226.70
1010.18	226.72
1010.47	226.68
1010.76	226.68
1011.04	226.69
1011.33	226.71
1011.62	226.71
1011.91	226.74
1012.19	226.72
1012.48	226.73
1012.77	226.73
1013.05	226.80
1013.34	226.81
1013.63	226.78
1013.92	226.77
1014.20	226.76
1014.49	226.76
1014.78	226.75
1015.06	226.72
1015.35	226.74
1015.64	226.73
1015.92	226.75
1016.21	226.74
1016.50	226.72
1016.78	226.72
1017.07	226.71
1017.36	226.66
1017.64	226.62
1017.93	226.58
1018.22	226.55
1018.50	226.56
1018.79	226.53
1019.08	226.45
1019.36	226.47
1019.65	226.47
1019.93	226.47
1020.22	226.45
1020.51	226.50
1020.79	226.48
1021.08	225.86
1021.36	226.72
1021.65	226.36
1021.94	226.51
1022.22	226.98
1022.51	226.15
1022.79	226.68
1023.08	226.26
1023.36	227.65
1023.65	226.21
>>>>>End Processed Spectral Data<<<<<
