SpectraSuite Data File
++++++++++++++++++++++++++++++++++++
Date: Fri Feb 01 15:45:30 EST 2013
User: group
Dark Spectrum Present: No
Reference Spectrum Present: No
Number of Sampled Component Spectra: 1
Spectrometers: USB2E7196
Integration Time (usec): 35000 (USB2E7196)
Spectra Averaged: 100 (USB2E7196)
Boxcar Smoothing: 10 (USB2E7196)
Correct for Electrical Dark: No (USB2E7196)
Strobe/Lamp Enabled: No (USB2E7196)
Correct for Detector Non-linearity: No (USB2E7196)
Correct for Stray Light: No (USB2E7196)
Number of Pixels in Processed Spectrum: 2048
>>>>>Begin Processed Spectral Data<<<<<
339.09	0.00
339.48	214.56
339.86	216.46
340.24	217.83
340.63	219.55
341.01	222.36
341.39	222.15
341.78	223.69
342.16	224.70
342.54	225.34
342.93	213.60
343.31	224.41
343.69	224.97
344.07	225.45
344.46	225.88
344.84	226.28
345.22	226.52
345.60	226.76
345.99	226.91
346.37	227.03
346.75	227.11
347.13	227.16
347.52	227.20
347.90	227.28
348.28	227.29
348.66	227.36
349.05	227.34
349.43	227.34
349.81	227.34
350.19	227.35
350.57	227.39
350.96	227.43
351.34	227.45
351.72	227.52
352.10	227.59
352.48	227.62
352.87	227.61
353.25	227.68
353.63	227.71
354.01	227.79
354.39	227.85
354.77	227.93
355.15	228.01
355.54	228.07
355.92	228.09
356.30	228.17
356.68	228.28
357.06	228.36
357.44	228.43
357.82	228.51
358.20	228.57
358.58	228.59
358.97	228.62
359.35	228.74
359.73	228.79
360.11	228.86
360.49	228.91
360.87	228.99
361.25	229.03
361.63	229.11
362.01	229.15
362.39	229.18
362.77	229.21
363.15	229.23
363.53	229.24
363.91	229.26
364.29	229.27
364.67	229.18
365.05	229.15
365.43	229.17
365.81	229.15
366.19	229.22
366.57	229.27
366.95	229.30
367.33	229.24
367.71	229.25
368.09	229.26
368.47	229.27
368.85	229.23
369.23	229.21
369.61	229.14
369.99	229.14
370.37	229.13
370.75	229.13
371.13	229.06
371.51	229.02
371.89	228.97
372.27	228.93
372.65	228.86
373.03	228.83
373.41	228.75
373.78	228.71
374.16	228.60
374.54	228.51
374.92	228.43
375.30	228.38
375.68	228.28
376.06	228.22
376.44	228.14
376.82	228.09
377.19	228.01
377.57	227.95
377.95	227.85
378.33	227.78
378.71	227.65
379.09	227.64
379.47	227.59
379.84	227.53
380.22	227.44
380.60	227.37
380.98	227.34
381.36	227.29
381.73	227.19
382.11	227.13
382.49	227.01
382.87	226.94
383.25	226.87
383.62	226.92
384.00	226.83
384.38	226.77
384.76	226.72
385.13	226.72
385.51	226.66
385.89	226.61
386.27	226.57
386.64	226.55
387.02	226.47
387.40	226.41
387.78	226.42
388.15	226.37
388.53	226.36
388.91	226.29
389.29	226.26
389.66	226.27
390.04	226.25
390.42	226.32
390.79	226.29
391.17	226.28
391.55	226.21
391.92	226.18
392.30	226.19
392.68	226.19
393.05	226.15
393.43	226.18
393.81	226.18
394.18	226.15
394.56	226.19
394.94	226.25
395.31	226.25
395.69	226.29
396.06	226.35
396.44	226.38
396.82	226.45
397.19	226.54
397.57	226.59
397.95	226.62
398.32	226.66
398.70	226.76
399.07	226.83
399.45	226.87
399.82	226.95
400.20	227.03
400.58	227.11
400.95	227.14
401.33	227.24
401.70	227.44
402.08	227.55
402.45	227.62
402.83	227.72
403.20	227.88
403.58	227.94
403.95	228.11
404.33	228.24
404.71	228.35
405.08	228.54
405.46	228.69
405.83	228.89
406.21	229.03
406.58	229.20
406.96	229.36
407.33	229.56
407.70	229.78
408.08	230.06
408.45	230.29
408.83	230.58
409.20	230.78
409.58	230.92
409.95	231.18
410.33	231.48
410.70	231.72
411.08	232.00
411.45	232.33
411.82	232.61
412.20	232.97
412.57	233.40
412.95	233.69
413.32	234.11
413.69	234.47
414.07	234.93
414.44	235.38
414.82	235.88
415.19	236.43
415.56	236.97
415.94	237.50
416.31	238.15
416.68	238.74
417.06	239.46
417.43	240.17
417.81	240.96
418.18	241.73
418.55	242.57
418.93	243.44
419.30	244.34
419.67	245.26
420.04	246.24
420.42	247.20
420.79	248.37
421.16	249.51
421.54	250.76
421.91	251.95
422.28	253.22
422.66	254.56
423.03	255.86
423.40	257.18
423.77	258.63
424.15	260.00
424.52	261.48
424.89	263.14
425.26	264.69
425.64	266.13
426.01	267.67
426.38	269.36
426.75	271.03
427.13	272.75
427.50	274.55
427.87	276.45
428.24	278.32
428.61	280.04
428.99	281.95
429.36	284.02
429.73	286.08
430.10	288.09
430.47	290.13
430.85	292.24
431.22	294.46
431.59	296.77
431.96	299.04
432.33	301.56
432.70	303.93
433.08	306.74
433.45	309.35
433.82	311.97
434.19	314.86
434.56	317.69
434.93	320.34
435.30	322.98
435.68	325.81
436.05	328.66
436.42	331.45
436.79	333.97
437.16	336.70
437.53	339.56
437.90	342.38
438.27	345.15
438.64	347.98
439.01	350.51
439.38	352.79
439.75	354.95
440.13	357.43
440.50	359.75
440.87	361.57
441.24	363.51
441.61	365.69
441.98	367.15
442.35	368.93
442.72	370.81
443.09	372.64
443.46	373.64
443.83	374.21
444.20	374.79
444.57	375.64
444.94	375.92
445.31	376.20
445.68	376.56
446.05	376.63
446.42	376.23
446.79	375.88
447.16	375.42
447.53	375.11
447.90	373.92
448.27	372.71
448.64	371.16
449.01	370.02
449.37	368.06
449.74	366.15
450.11	363.93
450.48	361.44
450.85	358.87
451.22	356.75
451.59	354.71
451.96	352.72
452.33	350.11
452.70	347.77
453.07	344.98
453.43	342.07
453.80	339.29
454.17	336.64
454.54	334.12
454.91	331.41
455.28	328.73
455.65	326.26
456.02	323.85
456.38	321.68
456.75	319.02
457.12	316.78
457.49	314.58
457.86	312.39
458.23	310.53
458.59	308.49
458.96	306.41
459.33	304.56
459.70	302.69
460.07	301.17
460.43	299.41
460.80	297.81
461.17	296.35
461.54	294.84
461.91	293.41
462.27	291.98
462.64	290.74
463.01	289.39
463.38	288.08
463.74	286.73
464.11	285.58
464.48	284.56
464.85	283.44
465.21	282.55
465.58	281.63
465.95	280.50
466.32	279.59
466.68	278.69
467.05	277.81
467.42	276.96
467.78	276.03
468.15	275.17
468.52	274.46
468.88	273.60
469.25	272.83
469.62	272.19
469.98	271.48
470.35	270.80
470.72	270.20
471.08	269.56
471.45	268.98
471.82	268.42
472.18	267.82
472.55	267.37
472.92	266.84
473.28	266.38
473.65	265.93
474.02	265.47
474.38	265.10
474.75	264.74
475.11	264.33
475.48	264.08
475.85	263.82
476.21	263.55
476.58	263.36
476.94	263.23
477.31	263.04
477.67	262.88
478.04	262.77
478.41	262.72
478.77	262.74
479.14	262.73
479.50	262.77
479.87	262.83
480.23	262.92
480.60	263.01
480.96	263.09
481.33	263.32
481.69	263.54
482.06	263.70
482.42	263.92
482.79	264.21
483.15	264.51
483.52	264.92
483.88	265.31
484.25	265.72
484.61	266.14
484.98	266.61
485.34	267.18
485.71	267.79
486.07	268.38
486.44	268.96
486.80	269.63
487.17	270.30
487.53	271.13
487.90	271.93
488.26	272.88
488.62	273.84
488.99	274.83
489.35	275.89
489.72	277.02
490.08	278.21
490.44	279.39
490.81	280.72
491.17	282.05
491.54	283.55
491.90	285.09
492.26	286.73
492.63	288.45
492.99	290.25
493.36	292.11
493.72	294.17
494.08	296.28
494.45	298.56
494.81	300.93
495.17	303.38
495.54	305.99
495.90	308.63
496.26	311.48
496.63	314.42
496.99	317.45
497.35	320.73
497.72	324.17
498.08	327.73
498.44	331.44
498.80	335.39
499.17	339.43
499.53	343.56
499.89	347.92
500.26	352.46
500.62	357.19
500.98	362.22
501.34	367.30
501.71	372.60
502.07	377.99
502.43	383.59
502.79	389.40
503.16	395.49
503.52	401.81
503.88	408.24
504.24	414.93
504.60	421.91
504.97	429.06
505.33	436.40
505.69	444.10
506.05	451.80
506.41	459.75
506.78	467.91
507.14	476.42
507.50	485.20
507.86	494.21
508.22	503.41
508.59	512.59
508.95	522.19
509.31	532.08
509.67	542.24
510.03	552.60
510.39	563.13
510.75	573.92
511.12	584.83
511.48	596.02
511.84	607.43
512.20	618.94
512.56	630.84
512.92	642.96
513.28	655.32
513.64	667.89
514.00	680.53
514.37	693.46
514.73	706.60
515.09	719.57
515.45	732.84
515.81	746.33
516.17	760.27
516.53	774.36
516.89	788.55
517.25	802.72
517.61	817.16
517.97	831.63
518.33	846.03
518.69	860.91
519.05	875.95
519.41	891.14
519.77	906.69
520.13	922.12
520.49	937.50
520.85	952.96
521.21	968.68
521.57	984.85
521.93	1000.57
522.29	1016.86
522.65	1033.16
523.01	1049.37
523.37	1065.50
523.73	1081.63
524.09	1097.73
524.45	1113.96
524.81	1130.66
525.17	1147.52
525.53	1164.42
525.89	1181.36
526.25	1198.12
526.61	1214.56
526.97	1231.28
527.33	1247.73
527.68	1264.40
528.04	1280.99
528.40	1297.63
528.76	1314.76
529.12	1331.42
529.48	1348.52
529.84	1364.59
530.20	1381.26
530.56	1398.28
530.91	1415.65
531.27	1432.53
531.63	1449.09
531.99	1465.64
532.35	1481.54
532.71	1497.31
533.07	1513.58
533.42	1529.33
533.78	1545.35
534.14	1561.64
534.50	1577.02
534.86	1592.98
535.21	1608.21
535.57	1624.09
535.93	1639.63
536.29	1654.28
536.65	1669.37
537.00	1684.00
537.36	1699.28
537.72	1713.84
538.08	1728.29
538.44	1742.11
538.79	1755.90
539.15	1769.62
539.51	1783.50
539.87	1797.84
540.22	1811.66
540.58	1825.51
540.94	1839.05
541.29	1851.95
541.65	1864.57
542.01	1877.88
542.37	1890.08
542.72	1902.46
543.08	1914.25
543.44	1926.61
543.79	1937.82
544.15	1948.80
544.51	1960.39
544.87	1971.31
545.22	1982.09
545.58	1992.29
545.94	2001.96
546.29	2011.86
546.65	2021.64
547.01	2030.79
547.36	2039.51
547.72	2047.88
548.07	2055.63
548.43	2063.87
548.79	2072.09
549.14	2079.72
549.50	2086.95
549.86	2094.74
550.21	2102.05
550.57	2109.19
550.92	2115.78
551.28	2123.09
551.64	2130.19
551.99	2136.74
552.35	2143.04
552.70	2149.15
553.06	2155.12
553.41	2161.48
553.77	2167.62
554.13	2173.68
554.48	2179.92
554.84	2185.34
555.19	2190.70
555.55	2195.70
555.90	2200.02
556.26	2204.69
556.61	2209.37
556.97	2213.54
557.32	2217.65
557.68	2221.75
558.03	2226.10
558.39	2229.81
558.74	2234.30
559.10	2238.05
559.45	2241.64
559.81	2245.87
560.16	2249.76
560.52	2253.08
560.87	2256.61
561.23	2259.27
561.58	2262.20
561.94	2264.62
562.29	2266.98
562.64	2269.59
563.00	2272.38
563.35	2275.84
563.71	2278.98
564.06	2282.18
564.42	2285.17
564.77	2287.64
565.12	2289.93
565.48	2291.78
565.83	2293.55
566.19	2294.84
566.54	2295.84
566.89	2296.98
567.25	2297.51
567.60	2298.76
567.96	2300.39
568.31	2301.15
568.66	2302.17
569.02	2302.72
569.37	2303.05
569.72	2303.92
570.08	2304.15
570.43	2304.20
570.78	2303.64
571.14	2302.11
571.49	2300.80
571.84	2300.38
572.20	2299.24
572.55	2298.24
572.90	2296.69
573.26	2295.41
573.61	2293.71
573.96	2291.73
574.31	2288.76
574.67	2285.77
575.02	2282.12
575.37	2278.87
575.72	2275.08
576.08	2271.66
576.43	2268.26
576.78	2264.64
577.13	2261.50
577.49	2258.38
577.84	2254.89
578.19	2251.07
578.54	2247.50
578.90	2243.15
579.25	2237.68
579.60	2232.74
579.95	2227.56
580.30	2222.40
580.66	2217.11
581.01	2212.12
581.36	2207.41
581.71	2203.28
582.06	2198.74
582.42	2194.41
582.77	2188.86
583.12	2184.15
583.47	2179.60
583.82	2174.60
584.17	2169.23
584.53	2163.67
584.88	2157.95
585.23	2152.04
585.58	2146.73
585.93	2141.19
586.28	2136.48
586.63	2131.38
586.98	2126.34
587.34	2121.72
587.69	2116.85
588.04	2111.44
588.39	2105.69
588.74	2099.32
589.09	2092.86
589.44	2086.17
589.79	2080.14
590.14	2074.66
590.49	2068.09
590.84	2061.66
591.19	2055.64
591.54	2049.31
591.89	2041.89
592.25	2035.11
592.60	2028.03
592.95	2020.34
593.30	2012.99
593.65	2005.42
594.00	1998.39
594.35	1991.02
594.70	1982.96
595.05	1975.85
595.40	1968.62
595.75	1961.10
596.10	1954.76
596.45	1948.20
596.80	1941.99
597.15	1935.15
597.50	1927.90
597.85	1921.60
598.19	1914.74
598.54	1907.49
598.89	1900.82
599.24	1894.98
599.59	1888.27
599.94	1882.02
600.29	1875.70
600.64	1869.17
600.99	1861.64
601.34	1854.74
601.69	1847.84
602.04	1841.00
602.39	1833.57
602.74	1826.79
603.08	1820.13
603.43	1813.35
603.78	1806.00
604.13	1798.69
604.48	1791.42
604.83	1784.65
605.18	1777.59
605.53	1769.63
605.87	1761.67
606.22	1754.38
606.57	1746.35
606.92	1739.12
607.27	1731.97
607.62	1725.11
607.96	1717.72
608.31	1711.17
608.66	1703.57
609.01	1695.89
609.36	1688.24
609.70	1680.19
610.05	1672.11
610.40	1664.31
610.75	1656.04
611.10	1648.38
611.44	1639.97
611.79	1632.00
612.14	1623.31
612.49	1614.22
612.83	1605.93
613.18	1597.82
613.53	1589.73
613.88	1581.21
614.22	1572.87
614.57	1564.16
614.92	1556.08
615.27	1548.52
615.61	1540.10
615.96	1532.02
616.31	1524.46
616.65	1517.21
617.00	1509.65
617.35	1501.91
617.70	1493.56
618.04	1484.99
618.39	1476.86
618.74	1469.26
619.08	1460.91
619.43	1453.37
619.78	1446.32
620.12	1439.03
620.47	1431.50
620.82	1423.30
621.16	1415.96
621.51	1408.34
621.85	1400.71
622.20	1392.06
622.55	1383.75
622.89	1375.91
623.24	1368.28
623.59	1360.90
623.93	1353.26
624.28	1345.99
624.62	1338.40
624.97	1331.32
625.32	1324.56
625.66	1317.45
626.01	1310.43
626.35	1302.91
626.70	1295.11
627.04	1287.46
627.39	1279.71
627.73	1272.41
628.08	1265.43
628.43	1258.04
628.77	1250.70
629.12	1243.16
629.46	1236.05
629.81	1228.73
630.15	1221.50
630.50	1214.16
630.84	1205.93
631.19	1198.00
631.53	1190.57
631.88	1183.17
632.22	1175.55
632.57	1168.26
632.91	1160.66
633.26	1153.03
633.60	1145.76
633.95	1138.76
634.29	1131.76
634.64	1125.12
634.98	1117.65
635.32	1110.53
635.67	1103.97
636.01	1097.35
636.36	1090.50
636.70	1083.95
637.05	1077.27
637.39	1070.77
637.73	1064.22
638.08	1058.33
638.42	1052.35
638.77	1045.93
639.11	1039.26
639.45	1032.74
639.80	1026.03
640.14	1019.68
640.49	1013.24
640.83	1006.92
641.17	1000.56
641.52	994.11
641.86	987.69
642.20	981.89
642.55	975.76
642.89	969.18
643.23	962.57
643.58	956.85
643.92	950.71
644.26	944.59
644.61	938.62
644.95	932.54
645.29	925.93
645.64	919.23
645.98	912.81
646.32	907.05
646.66	901.07
647.01	895.24
647.35	889.52
647.69	883.71
648.04	878.12
648.38	872.36
648.72	866.38
649.06	860.28
649.41	854.31
649.75	848.15
650.09	842.30
650.43	836.53
650.78	830.32
651.12	824.27
651.46	818.49
651.80	812.67
652.14	807.36
652.49	802.08
652.83	796.79
653.17	791.07
653.51	785.30
653.85	779.96
654.20	774.32
654.54	768.27
654.88	762.47
655.22	756.66
655.56	750.94
655.90	745.56
656.25	740.32
656.59	735.05
656.93	729.91
657.27	724.68
657.61	719.25
657.95	714.15
658.29	709.07
658.64	703.95
658.98	698.71
659.32	693.24
659.66	687.92
660.00	682.67
660.34	677.80
660.68	672.91
661.02	667.84
661.36	663.15
661.70	658.66
662.05	654.35
662.39	649.95
662.73	645.53
663.07	641.14
663.41	636.67
663.75	632.17
664.09	627.72
664.43	623.40
664.77	619.26
665.11	615.03
665.45	610.96
665.79	606.84
666.13	602.65
666.47	598.54
666.81	594.41
667.15	590.23
667.49	586.34
667.83	582.52
668.17	578.66
668.51	574.56
668.85	570.52
669.19	566.60
669.53	562.75
669.87	558.85
670.21	555.12
670.55	551.49
670.89	548.06
671.23	544.59
671.57	541.04
671.91	537.51
672.25	533.99
672.58	530.42
672.92	527.03
673.26	523.89
673.60	520.73
673.94	517.66
674.28	514.81
674.62	511.82
674.96	508.66
675.30	505.63
675.64	502.71
675.97	499.98
676.31	497.19
676.65	494.28
676.99	491.59
677.33	488.73
677.67	485.97
678.01	482.90
678.34	479.88
678.68	477.00
679.02	474.18
679.36	471.44
679.70	468.77
680.04	465.97
680.37	463.06
680.71	460.29
681.05	457.66
681.39	454.94
681.73	452.30
682.06	449.83
682.40	447.34
682.74	444.87
683.08	442.36
683.42	439.73
683.75	437.27
684.09	434.72
684.43	432.21
684.77	429.70
685.10	427.34
685.44	425.11
685.78	422.79
686.12	420.55
686.45	418.27
686.79	415.97
687.13	413.79
687.46	411.67
687.80	409.51
688.14	407.28
688.48	405.24
688.81	403.03
689.15	400.89
689.49	398.75
689.82	396.63
690.16	394.53
690.50	392.57
690.83	390.61
691.17	388.65
691.51	386.78
691.84	384.94
692.18	383.01
692.52	381.04
692.85	379.18
693.19	377.31
693.52	375.48
693.86	373.65
694.20	371.88
694.53	370.09
694.87	368.28
695.21	366.52
695.54	364.67
695.88	362.94
696.21	361.18
696.55	359.53
696.88	357.83
697.22	356.20
697.56	354.60
697.89	352.94
698.23	351.29
698.56	349.70
698.90	348.06
699.23	346.43
699.57	344.85
699.90	343.26
700.24	341.73
700.58	340.18
700.91	338.68
701.25	337.22
701.58	335.81
701.92	334.42
702.25	333.03
702.59	331.67
702.92	330.31
703.26	328.99
703.59	327.71
703.93	326.51
704.26	325.25
704.60	323.93
704.93	322.63
705.26	321.45
705.60	320.26
705.93	319.14
706.27	318.11
706.60	317.03
706.94	315.95
707.27	314.79
707.61	313.75
707.94	312.70
708.27	311.60
708.61	310.55
708.94	309.54
709.28	308.54
709.61	307.58
709.94	306.62
710.28	305.64
710.61	304.66
710.95	303.62
711.28	302.69
711.61	301.75
711.95	300.86
712.28	299.88
712.61	298.92
712.95	297.97
713.28	297.08
713.61	296.23
713.95	295.38
714.28	294.57
714.61	293.70
714.95	292.88
715.28	292.04
715.61	291.15
715.95	290.30
716.28	289.42
716.61	288.56
716.95	287.78
717.28	287.04
717.61	286.25
717.94	285.50
718.28	284.68
718.61	283.96
718.94	283.25
719.27	282.60
719.61	281.96
719.94	281.32
720.27	280.64
720.60	279.92
720.94	279.26
721.27	278.65
721.60	278.08
721.93	277.48
722.27	276.92
722.60	276.36
722.93	275.79
723.26	275.30
723.59	274.79
723.93	274.23
724.26	273.67
724.59	273.13
724.92	272.61
725.25	272.15
725.59	271.61
725.92	271.12
726.25	270.57
726.58	270.06
726.91	269.51
727.24	269.02
727.57	268.57
727.91	268.06
728.24	267.62
728.57	267.09
728.90	266.64
729.23	266.15
729.56	265.76
729.89	265.25
730.22	264.73
730.55	264.21
730.89	263.78
731.22	263.29
731.55	262.87
731.88	262.41
732.21	261.95
732.54	261.52
732.87	261.10
733.20	260.72
733.53	260.32
733.86	259.97
734.19	259.53
734.52	259.15
734.85	258.84
735.18	258.42
735.51	258.08
735.84	257.70
736.17	257.32
736.50	256.91
736.83	256.69
737.16	256.39
737.49	256.07
737.82	255.70
738.15	255.41
738.48	255.06
738.81	254.74
739.14	254.40
739.47	254.11
739.80	253.78
740.13	253.47
740.46	253.18
740.79	252.86
741.12	252.59
741.45	252.29
741.78	251.97
742.11	251.67
742.44	251.35
742.77	251.09
743.10	250.82
743.43	250.54
743.75	250.20
744.08	250.03
744.41	249.77
744.74	249.52
745.07	249.20
745.40	248.96
745.73	248.73
746.06	248.49
746.39	248.21
746.71	247.95
747.04	247.69
747.37	247.40
747.70	247.17
748.03	246.93
748.36	246.69
748.68	246.45
749.01	246.20
749.34	245.96
749.67	245.73
750.00	245.50
750.33	245.31
750.65	245.06
750.98	244.70
751.31	244.50
751.64	244.29
751.97	244.15
752.29	243.91
752.62	243.67
752.95	243.44
753.28	243.22
753.60	243.02
753.93	242.83
754.26	242.65
754.59	242.37
754.91	242.15
755.24	241.93
755.57	241.71
755.90	241.53
756.22	241.38
756.55	241.18
756.88	240.99
757.20	240.77
757.53	240.59
757.86	240.42
758.19	240.24
758.51	240.09
758.84	239.89
759.17	239.72
759.49	239.53
759.82	239.45
760.15	239.34
760.47	239.20
760.80	239.04
761.13	238.87
761.45	238.76
761.78	238.61
762.11	238.45
762.43	238.32
762.76	238.15
763.08	237.97
763.41	237.83
763.74	237.73
764.06	237.56
764.39	237.43
764.71	237.32
765.04	237.21
765.37	237.04
765.69	236.91
766.02	236.81
766.34	236.72
766.67	236.54
767.00	236.43
767.32	236.35
767.65	236.29
767.97	236.22
768.30	236.12
768.62	235.99
768.95	235.88
769.27	235.77
769.60	235.70
769.92	235.59
770.25	235.45
770.57	235.31
770.90	235.26
771.22	235.11
771.55	235.01
771.87	234.88
772.20	234.78
772.52	234.76
772.85	234.73
773.17	234.63
773.50	234.53
773.82	234.43
774.15	234.27
774.47	234.14
774.80	234.02
775.12	233.91
775.45	233.86
775.77	233.81
776.09	233.72
776.42	233.64
776.74	233.60
777.07	233.53
777.39	233.46
777.72	233.33
778.04	233.31
778.36	233.22
778.69	233.17
779.01	233.10
779.33	232.94
779.66	232.79
779.98	232.71
780.31	232.67
780.63	232.64
780.95	232.62
781.28	232.56
781.60	232.48
781.92	232.45
782.25	232.37
782.57	232.29
782.89	232.24
783.22	232.17
783.54	232.11
783.86	232.04
784.19	231.98
784.51	231.99
784.83	231.88
785.16	231.83
785.48	231.79
785.80	231.73
786.12	231.70
786.45	231.66
786.77	231.61
787.09	231.56
787.42	231.47
787.74	231.42
788.06	231.38
788.38	231.33
788.71	231.27
789.03	231.23
789.35	231.24
789.67	231.20
789.99	231.19
790.32	231.13
790.64	231.13
790.96	231.15
791.28	231.07
791.61	231.08
791.93	231.06
792.25	231.01
792.57	231.06
792.89	231.00
793.21	231.00
793.54	230.95
793.86	230.87
794.18	230.85
794.50	230.79
794.82	230.73
795.14	230.72
795.47	230.73
795.79	230.73
796.11	230.61
796.43	230.58
796.75	230.52
797.07	230.49
797.39	230.46
797.71	230.37
798.04	230.34
798.36	230.29
798.68	230.24
799.00	230.21
799.32	230.13
799.64	230.12
799.96	230.07
800.28	230.07
800.60	230.07
800.92	230.01
801.24	230.00
801.56	229.99
801.89	229.95
802.21	229.94
802.53	229.89
802.85	229.90
803.17	229.90
803.49	229.85
803.81	229.79
804.13	229.73
804.45	229.74
804.77	229.73
805.09	229.71
805.41	229.71
805.73	229.68
806.05	229.64
806.37	229.61
806.69	229.57
807.01	229.53
807.33	229.49
807.65	229.44
807.97	229.45
808.28	229.40
808.60	229.41
808.92	229.35
809.24	229.39
809.56	229.36
809.88	229.29
810.20	229.29
810.52	229.31
810.84	229.33
811.16	229.26
811.48	229.23
811.80	229.24
812.12	229.21
812.43	229.20
812.75	229.19
813.07	229.17
813.39	229.16
813.71	229.14
814.03	229.10
814.35	229.08
814.67	229.01
814.98	228.99
815.30	228.94
815.62	228.88
815.94	228.80
816.26	228.83
816.58	228.81
816.89	228.80
817.21	228.77
817.53	228.72
817.85	228.69
818.17	228.66
818.48	228.61
818.80	228.59
819.12	228.55
819.44	228.52
819.76	228.47
820.07	228.50
820.39	228.48
820.71	228.49
821.03	228.49
821.34	228.48
821.66	228.50
821.98	228.48
822.30	228.49
822.61	228.51
822.93	228.42
823.25	228.41
823.57	228.38
823.88	228.39
824.20	228.38
824.52	228.41
824.83	228.37
825.15	228.32
825.47	228.31
825.79	228.32
826.10	228.30
826.42	228.26
826.74	228.18
827.05	228.14
827.37	228.16
827.69	228.15
828.00	228.15
828.32	228.16
828.64	228.16
828.95	228.16
829.27	228.12
829.58	228.12
829.90	228.11
830.22	228.12
830.53	228.07
830.85	228.08
831.17	228.05
831.48	228.08
831.80	228.09
832.11	228.10
832.43	228.08
832.75	228.07
833.06	228.14
833.38	228.12
833.69	228.14
834.01	228.11
834.32	228.09
834.64	228.05
834.96	228.00
835.27	228.00
835.59	227.99
835.90	227.99
836.22	227.99
836.53	227.97
836.85	227.93
837.16	228.03
837.48	228.01
837.79	228.01
838.11	227.99
838.42	228.01
838.74	228.01
839.05	227.98
839.37	227.96
839.68	227.87
840.00	227.89
840.31	227.91
840.63	227.90
840.94	227.84
841.26	227.85
841.57	227.86
841.88	227.83
842.20	227.78
842.51	227.75
842.83	227.71
843.14	227.79
843.46	227.79
843.77	227.71
844.08	227.69
844.40	227.66
844.71	227.65
845.03	227.58
845.34	227.53
845.65	227.55
845.97	227.56
846.28	227.58
846.60	227.57
846.91	227.51
847.22	227.49
847.54	227.50
847.85	227.50
848.16	227.45
848.48	227.44
848.79	227.49
849.10	227.52
849.42	227.53
849.73	227.42
850.04	227.40
850.36	227.36
850.67	227.40
850.98	227.37
851.30	227.34
851.61	227.39
851.92	227.39
852.23	227.42
852.55	227.43
852.86	227.42
853.17	227.42
853.49	227.47
853.80	227.49
854.11	227.52
854.42	227.54
854.74	227.54
855.05	227.52
855.36	227.43
855.67	227.42
855.99	227.43
856.30	227.54
856.61	227.54
856.92	227.52
857.23	227.49
857.55	227.52
857.86	227.52
858.17	227.50
858.48	227.47
858.79	227.42
859.11	227.40
859.42	227.39
859.73	227.37
860.04	227.36
860.35	227.33
860.66	227.29
860.98	227.29
861.29	227.31
861.60	227.33
861.91	227.38
862.22	227.33
862.53	227.32
862.84	227.21
863.16	227.22
863.47	227.25
863.78	227.25
864.09	227.29
864.40	227.29
864.71	227.30
865.02	227.31
865.33	227.33
865.64	227.28
865.95	227.27
866.27	227.34
866.58	227.32
866.89	227.36
867.20	227.41
867.51	227.41
867.82	227.40
868.13	227.45
868.44	227.43
868.75	227.49
869.06	227.47
869.37	227.47
869.68	227.46
869.99	227.48
870.30	227.44
870.61	227.41
870.92	227.43
871.23	227.43
871.54	227.46
871.85	227.46
872.16	227.52
872.47	227.53
872.78	227.47
873.09	227.49
873.40	227.47
873.71	227.45
874.02	227.41
874.33	227.40
874.64	227.35
874.95	227.35
875.26	227.32
875.56	227.35
875.87	227.33
876.18	227.31
876.49	227.42
876.80	227.44
877.11	227.43
877.42	227.42
877.73	227.41
878.04	227.38
878.35	227.39
878.66	227.38
878.96	227.38
879.27	227.38
879.58	227.34
879.89	227.34
880.20	227.34
880.51	227.32
880.82	227.34
881.12	227.34
881.43	227.33
881.74	227.32
882.05	227.30
882.36	227.31
882.67	227.34
882.97	227.20
883.28	227.16
883.59	227.14
883.90	227.13
884.21	227.15
884.51	227.15
884.82	227.09
885.13	227.04
885.44	227.04
885.74	227.00
886.05	226.99
886.36	226.98
886.67	226.95
886.98	227.03
887.28	227.03
887.59	227.00
887.90	227.00
888.20	226.96
888.51	226.99
888.82	226.96
889.13	226.96
889.43	227.04
889.74	227.07
890.05	227.08
890.35	227.07
890.66	227.04
890.97	227.04
891.28	227.10
891.58	227.12
891.89	227.10
892.20	227.12
892.50	227.15
892.81	227.15
893.12	227.16
893.42	227.12
893.73	227.13
894.04	227.14
894.34	227.13
894.65	227.15
894.95	227.13
895.26	227.15
895.57	227.18
895.87	227.11
896.18	227.11
896.48	227.12
896.79	227.16
897.10	227.17
897.40	227.16
897.71	227.13
898.01	227.12
898.32	227.13
898.63	227.11
898.93	227.10
899.24	227.12
899.54	227.13
899.85	227.10
900.15	227.10
900.46	227.13
900.76	227.15
901.07	227.17
901.38	227.18
901.68	227.19
901.99	227.15
902.29	227.16
902.60	227.17
902.90	227.16
903.21	227.16
903.51	227.15
903.82	227.23
904.12	227.24
904.43	227.26
904.73	227.28
905.03	227.32
905.34	227.43
905.64	227.44
905.95	227.43
906.25	227.44
906.56	227.41
906.86	227.39
907.17	227.41
907.47	227.43
907.77	227.42
908.08	227.45
908.38	227.44
908.69	227.42
908.99	227.43
909.30	227.41
909.60	227.39
909.90	227.38
910.21	227.33
910.51	227.36
910.81	227.37
911.12	227.37
911.42	227.37
911.73	227.24
912.03	227.22
912.33	227.23
912.64	227.23
912.94	227.22
913.24	227.20
913.55	227.15
913.85	227.13
914.15	227.12
914.46	227.09
914.76	227.11
915.06	227.09
915.37	227.04
915.67	227.03
915.97	227.00
916.27	226.98
916.58	226.96
916.88	226.88
917.18	226.86
917.49	226.88
917.79	226.85
918.09	226.86
918.39	226.87
918.70	226.84
919.00	226.85
919.30	226.88
919.60	226.85
919.91	226.85
920.21	226.84
920.51	226.81
920.81	226.79
921.12	226.76
921.42	226.75
921.72	226.78
922.02	226.79
922.32	226.81
922.63	226.81
922.93	226.84
923.23	226.87
923.53	226.84
923.83	226.75
924.13	226.77
924.44	226.77
924.74	226.75
925.04	226.79
925.34	226.74
925.64	226.68
925.94	226.71
926.24	226.76
926.55	226.75
926.85	226.75
927.15	226.76
927.45	226.75
927.75	226.77
928.05	226.75
928.35	226.77
928.65	226.81
928.95	226.83
929.26	226.81
929.56	226.85
929.86	226.85
930.16	226.89
930.46	226.90
930.76	226.91
931.06	226.88
931.36	226.84
931.66	226.89
931.96	226.93
932.26	226.92
932.56	226.91
932.86	226.93
933.16	226.97
933.46	226.96
933.76	227.00
934.06	227.03
934.36	227.10
934.66	227.06
934.96	227.05
935.26	227.06
935.56	227.09
935.86	227.08
936.16	227.10
936.46	227.10
936.76	227.11
937.06	227.07
937.36	227.11
937.66	227.16
937.96	227.16
938.26	227.13
938.56	227.16
938.86	227.17
939.16	227.20
939.46	227.19
939.76	227.22
940.06	227.22
940.35	227.20
940.65	227.12
940.95	227.19
941.25	227.16
941.55	227.14
941.85	227.14
942.15	227.14
942.45	227.19
942.75	227.20
943.04	227.17
943.34	227.22
943.64	227.23
943.94	227.22
944.24	227.25
944.54	227.27
944.84	227.25
945.13	227.24
945.43	227.23
945.73	227.22
946.03	227.19
946.33	227.16
946.62	227.16
946.92	227.21
947.22	227.20
947.52	227.18
947.82	227.23
948.11	227.21
948.41	227.18
948.71	227.13
949.01	227.12
949.31	227.13
949.60	227.13
949.90	227.11
950.20	227.10
950.50	227.07
950.79	227.06
951.09	227.06
951.39	227.03
951.69	226.98
951.98	227.00
952.28	226.99
952.58	226.99
952.87	226.99
953.17	226.95
953.47	226.89
953.76	226.90
954.06	226.84
954.36	226.79
954.66	226.80
954.95	226.80
955.25	226.79
955.55	226.78
955.84	226.76
956.14	226.74
956.44	226.72
956.73	226.69
957.03	226.64
957.32	226.64
957.62	226.62
957.92	226.65
958.21	226.62
958.51	226.70
958.81	226.68
959.10	226.65
959.40	226.68
959.69	226.68
959.99	226.67
960.29	226.68
960.58	226.66
960.88	226.65
961.17	226.63
961.47	226.64
961.76	226.61
962.06	226.60
962.36	226.59
962.65	226.57
962.95	226.59
963.24	226.59
963.54	226.59
963.83	226.59
964.13	226.56
964.42	226.54
964.72	226.47
965.01	226.47
965.31	226.48
965.60	226.45
965.90	226.52
966.19	226.48
966.49	226.49
966.78	226.50
967.08	226.51
967.37	226.50
967.67	226.48
967.96	226.52
968.26	226.51
968.55	226.56
968.85	226.59
969.14	226.62
969.43	226.64
969.73	226.63
970.02	226.63
970.32	226.64
970.61	226.65
970.91	226.65
971.20	226.64
971.49	226.65
971.79	226.67
972.08	226.62
972.38	226.68
972.67	226.67
972.96	226.73
973.26	226.73
973.55	226.79
973.85	226.79
974.14	226.78
974.43	226.82
974.73	226.80
975.02	226.81
975.31	226.79
975.61	226.82
975.90	226.84
976.19	226.84
976.49	226.87
976.78	226.87
977.07	226.87
977.37	226.90
977.66	226.93
977.95	226.91
978.24	226.94
978.54	226.94
978.83	226.95
979.12	226.95
979.42	226.95
979.71	226.91
980.00	226.93
980.29	226.94
980.59	226.93
980.88	226.98
981.17	226.97
981.46	226.95
981.76	226.97
982.05	226.97
982.34	227.00
982.63	227.03
982.93	227.07
983.22	227.12
983.51	227.13
983.80	227.16
984.09	227.19
984.39	227.17
984.68	227.20
984.97	227.23
985.26	227.21
985.55	227.22
985.85	227.25
986.14	227.26
986.43	227.26
986.72	227.23
987.01	227.20
987.30	227.15
987.59	227.16
987.89	227.13
988.18	227.13
988.47	227.09
988.76	227.05
989.05	227.02
989.34	226.98
989.63	227.01
989.92	226.99
990.22	226.95
990.51	226.92
990.80	226.90
991.09	226.87
991.38	226.85
991.67	226.83
991.96	226.80
992.25	226.80
992.54	226.77
992.83	226.77
993.12	226.73
993.41	226.78
993.70	226.80
993.99	226.81
994.28	226.77
994.58	226.79
994.87	226.76
995.16	226.75
995.45	226.74
995.74	226.67
996.03	226.66
996.32	226.68
996.61	226.65
996.90	226.65
997.19	226.61
997.48	226.62
997.77	226.59
998.06	226.60
998.34	226.57
998.63	226.57
998.92	226.59
999.21	226.59
999.50	226.60
999.79	226.56
1000.08	226.54
1000.37	226.54
1000.66	226.52
1000.95	226.54
1001.24	226.56
1001.53	226.57
1001.82	226.59
1002.11	226.56
1002.40	226.56
1002.68	226.61
1002.97	226.66
1003.26	226.65
1003.55	226.62
1003.84	226.66
1004.13	226.68
1004.42	226.69
1004.71	226.72
1004.99	226.68
1005.28	226.68
1005.57	226.63
1005.86	226.65
1006.15	226.68
1006.44	226.69
1006.72	226.70
1007.01	226.73
1007.30	226.72
1007.59	226.72
1007.88	226.70
1008.17	226.69
1008.45	226.68
1008.74	226.65
1009.03	226.64
1009.32	226.67
1009.60	226.70
1009.89	226.72
1010.18	226.67
1010.47	226.68
1010.76	226.66
1011.04	226.67
1011.33	226.72
1011.62	226.76
1011.91	226.78
1012.19	226.82
1012.48	226.81
1012.77	226.84
1013.05	226.89
1013.34	226.90
1013.63	226.92
1013.92	226.92
1014.20	226.96
1014.49	226.99
1014.78	227.00
1015.06	226.97
1015.35	226.96
1015.64	226.98
1015.92	226.99
1016.21	227.05
1016.50	227.04
1016.78	227.09
1017.07	227.09
1017.36	227.09
1017.64	227.10
1017.93	227.08
1018.22	227.05
1018.50	227.08
1018.79	227.08
1019.08	227.05
1019.36	227.06
1019.65	227.06
1019.93	227.12
1020.22	227.13
1020.51	227.18
1020.79	227.20
1021.08	226.86
1021.36	227.13
1021.65	227.15
1021.94	227.60
1022.22	227.31
1022.51	227.01
1022.79	227.66
1023.08	227.31
1023.36	228.14
1023.65	227.28
>>>>>End Processed Spectral Data<<<<<
