SpectraSuite Data File
++++++++++++++++++++++++++++++++++++
Date: Fri Feb 01 15:32:32 EST 2013
User: group
Dark Spectrum Present: No
Reference Spectrum Present: No
Number of Sampled Component Spectra: 1
Spectrometers: USB2E7196
Integration Time (usec): 35000 (USB2E7196)
Spectra Averaged: 100 (USB2E7196)
Boxcar Smoothing: 10 (USB2E7196)
Correct for Electrical Dark: No (USB2E7196)
Strobe/Lamp Enabled: No (USB2E7196)
Correct for Detector Non-linearity: No (USB2E7196)
Correct for Stray Light: No (USB2E7196)
Number of Pixels in Processed Spectrum: 2048
>>>>>Begin Processed Spectral Data<<<<<
339.09	0.00
339.48	214.84
339.86	216.49
340.24	217.33
340.63	219.20
341.01	222.51
341.39	221.46
341.78	223.66
342.16	224.65
342.54	224.96
342.93	213.34
343.31	224.13
343.69	224.70
344.07	225.16
344.46	225.63
344.84	226.02
345.22	226.23
345.60	226.52
345.99	226.67
346.37	226.80
346.75	226.90
347.13	226.96
347.52	227.01
347.90	227.07
348.28	227.08
348.66	227.16
349.05	227.16
349.43	227.21
349.81	227.24
350.19	227.27
350.57	227.30
350.96	227.37
351.34	227.43
351.72	227.50
352.10	227.60
352.48	227.66
352.87	227.73
353.25	227.79
353.63	227.85
354.01	227.92
354.39	228.01
354.77	228.09
355.15	228.19
355.54	228.27
355.92	228.31
356.30	228.43
356.68	228.54
357.06	228.62
357.44	228.69
357.82	228.79
358.20	228.91
358.58	228.99
358.97	229.06
359.35	229.17
359.73	229.25
360.11	229.27
360.49	229.33
360.87	229.35
361.25	229.39
361.63	229.48
362.01	229.52
362.39	229.53
362.77	229.58
363.15	229.59
363.53	229.60
363.91	229.63
364.29	229.64
364.67	229.58
365.05	229.60
365.43	229.62
365.81	229.63
366.19	229.64
366.57	229.69
366.95	229.66
367.33	229.62
367.71	229.60
368.09	229.65
368.47	229.59
368.85	229.58
369.23	229.60
369.61	229.52
369.99	229.51
370.37	229.52
370.75	229.51
371.13	229.47
371.51	229.43
371.89	229.40
372.27	229.36
372.65	229.28
373.03	229.20
373.41	229.15
373.78	229.05
374.16	228.91
374.54	228.81
374.92	228.74
375.30	228.65
375.68	228.56
376.06	228.44
376.44	228.40
376.82	228.33
377.19	228.26
377.57	228.20
377.95	228.11
378.33	228.00
378.71	227.88
379.09	227.83
379.47	227.75
379.84	227.64
380.22	227.52
380.60	227.44
380.98	227.35
381.36	227.22
381.73	227.18
382.11	227.15
382.49	227.08
382.87	227.01
383.25	226.93
383.62	226.98
384.00	226.90
384.38	226.83
384.76	226.79
385.13	226.76
385.51	226.69
385.89	226.64
386.27	226.57
386.64	226.55
387.02	226.51
387.40	226.48
387.78	226.45
388.15	226.41
388.53	226.39
388.91	226.37
389.29	226.36
389.66	226.34
390.04	226.29
390.42	226.27
390.79	226.23
391.17	226.24
391.55	226.13
391.92	226.12
392.30	226.15
392.68	226.11
393.05	226.10
393.43	226.11
393.81	226.12
394.18	226.15
394.56	226.18
394.94	226.22
395.31	226.21
395.69	226.26
396.06	226.35
396.44	226.38
396.82	226.45
397.19	226.58
397.57	226.61
397.95	226.68
398.32	226.72
398.70	226.81
399.07	226.92
399.45	226.98
399.82	227.08
400.20	227.12
400.58	227.18
400.95	227.23
401.33	227.34
401.70	227.48
402.08	227.57
402.45	227.64
402.83	227.77
403.20	227.93
403.58	228.06
403.95	228.16
404.33	228.32
404.71	228.44
405.08	228.63
405.46	228.79
405.83	228.95
406.21	229.11
406.58	229.30
406.96	229.45
407.33	229.63
407.70	229.80
408.08	230.10
408.45	230.36
408.83	230.64
409.20	230.86
409.58	231.04
409.95	231.30
410.33	231.58
410.70	231.85
411.08	232.13
411.45	232.43
411.82	232.77
412.20	233.15
412.57	233.55
412.95	233.83
413.32	234.25
413.69	234.66
414.07	235.11
414.44	235.53
414.82	236.02
415.19	236.56
415.56	237.14
415.94	237.65
416.31	238.26
416.68	238.86
417.06	239.58
417.43	240.26
417.81	241.01
418.18	241.77
418.55	242.58
418.93	243.45
419.30	244.32
419.67	245.27
420.04	246.18
420.42	247.16
420.79	248.33
421.16	249.47
421.54	250.65
421.91	251.86
422.28	253.14
422.66	254.45
423.03	255.77
423.40	257.10
423.77	258.52
424.15	259.94
424.52	261.42
424.89	263.04
425.26	264.57
425.64	266.05
426.01	267.65
426.38	269.31
426.75	270.97
427.13	272.72
427.50	274.48
427.87	276.34
428.24	278.17
428.61	279.92
428.99	281.86
429.36	283.94
429.73	285.97
430.10	287.97
430.47	290.07
430.85	292.18
431.22	294.45
431.59	296.79
431.96	299.07
432.33	301.58
432.70	303.93
433.08	306.77
433.45	309.40
433.82	311.98
434.19	314.87
434.56	317.68
434.93	320.33
435.30	322.97
435.68	325.87
436.05	328.73
436.42	331.52
436.79	334.03
437.16	336.75
437.53	339.63
437.90	342.48
438.27	345.19
438.64	348.00
439.01	350.60
439.38	352.87
439.75	355.02
440.13	357.51
440.50	359.86
440.87	361.66
441.24	363.58
441.61	365.79
441.98	367.30
442.35	369.10
442.72	370.92
443.09	372.77
443.46	373.79
443.83	374.34
444.20	374.80
444.57	375.60
444.94	375.87
445.31	376.17
445.68	376.52
446.05	376.59
446.42	376.24
446.79	375.78
447.16	375.31
447.53	375.00
447.90	373.82
448.27	372.63
448.64	371.09
449.01	369.97
449.37	367.98
449.74	366.04
450.11	363.80
450.48	361.37
450.85	358.82
451.22	356.69
451.59	354.71
451.96	352.84
452.33	350.26
452.70	347.93
453.07	345.11
453.43	342.20
453.80	339.46
454.17	336.80
454.54	334.26
454.91	331.56
455.28	328.86
455.65	326.35
456.02	323.90
456.38	321.74
456.75	319.09
457.12	316.86
457.49	314.68
457.86	312.55
458.23	310.68
458.59	308.61
458.96	306.48
459.33	304.62
459.70	302.76
460.07	301.28
460.43	299.55
460.80	297.92
461.17	296.46
461.54	294.94
461.91	293.45
462.27	292.01
462.64	290.76
463.01	289.41
463.38	288.14
463.74	286.77
464.11	285.63
464.48	284.58
464.85	283.46
465.21	282.59
465.58	281.64
465.95	280.54
466.32	279.65
466.68	278.77
467.05	277.87
467.42	276.96
467.78	275.99
468.15	275.13
468.52	274.47
468.88	273.60
469.25	272.78
469.62	272.21
469.98	271.55
470.35	270.89
470.72	270.29
471.08	269.65
471.45	269.13
471.82	268.58
472.18	267.98
472.55	267.53
472.92	266.98
473.28	266.48
473.65	266.00
474.02	265.54
474.38	265.15
474.75	264.82
475.11	264.43
475.48	264.18
475.85	263.90
476.21	263.66
476.58	263.49
476.94	263.39
477.31	263.16
477.67	263.00
478.04	262.93
478.41	262.86
478.77	262.87
479.14	262.78
479.50	262.77
479.87	262.82
480.23	262.89
480.60	262.93
480.96	263.06
481.33	263.27
481.69	263.49
482.06	263.68
482.42	263.92
482.79	264.18
483.15	264.49
483.52	264.88
483.88	265.23
484.25	265.63
484.61	266.09
484.98	266.60
485.34	267.16
485.71	267.73
486.07	268.38
486.44	268.95
486.80	269.70
487.17	270.47
487.53	271.31
487.90	272.19
488.26	273.13
488.62	274.14
488.99	275.12
489.35	276.16
489.72	277.30
490.08	278.47
490.44	279.73
490.81	281.08
491.17	282.46
491.54	283.91
491.90	285.45
492.26	287.07
492.63	288.79
492.99	290.57
493.36	292.45
493.72	294.48
494.08	296.57
494.45	298.79
494.81	301.16
495.17	303.59
495.54	306.12
495.90	308.81
496.26	311.59
496.63	314.56
496.99	317.68
497.35	320.97
497.72	324.36
498.08	327.93
498.44	331.59
498.80	335.46
499.17	339.50
499.53	343.67
499.89	348.06
500.26	352.55
500.62	357.19
500.98	362.15
501.34	367.19
501.71	372.51
502.07	377.93
502.43	383.54
502.79	389.36
503.16	395.45
503.52	401.77
503.88	408.20
504.24	414.86
504.60	421.75
504.97	428.84
505.33	436.22
505.69	443.91
506.05	451.69
506.41	459.59
506.78	467.73
507.14	476.17
507.50	484.86
507.86	493.92
508.22	503.14
508.59	512.42
508.95	522.03
509.31	531.88
509.67	542.01
510.03	552.27
510.39	562.78
510.75	573.56
511.12	584.42
511.48	595.67
511.84	607.07
512.20	618.59
512.56	630.61
512.92	642.75
513.28	655.08
513.64	667.55
514.00	680.25
514.37	693.17
514.73	706.27
515.09	719.32
515.45	732.61
515.81	746.26
516.17	760.29
516.53	774.46
516.89	788.67
517.25	802.86
517.61	817.45
517.97	831.95
518.33	846.46
518.69	861.36
519.05	876.37
519.41	891.55
519.77	907.15
520.13	922.62
520.49	938.14
520.85	953.63
521.21	969.36
521.57	985.73
521.93	1001.58
522.29	1017.98
522.65	1034.22
523.01	1050.41
523.37	1066.44
523.73	1082.58
524.09	1098.65
524.45	1114.94
524.81	1131.69
525.17	1148.38
525.53	1165.35
525.89	1182.22
526.25	1198.99
526.61	1215.43
526.97	1232.25
527.33	1248.67
527.68	1265.25
528.04	1281.70
528.40	1298.34
528.76	1315.53
529.12	1332.05
529.48	1349.03
529.84	1365.18
530.20	1381.91
530.56	1399.16
530.91	1416.61
531.27	1433.38
531.63	1449.93
531.99	1466.57
532.35	1482.49
532.71	1498.52
533.07	1514.71
533.42	1530.61
533.78	1546.71
534.14	1562.95
534.50	1578.29
534.86	1594.34
535.21	1609.54
535.57	1625.48
535.93	1641.08
536.29	1655.88
536.65	1671.10
537.00	1685.95
537.36	1701.16
537.72	1715.71
538.08	1730.04
538.44	1743.77
538.79	1757.70
539.15	1771.50
539.51	1785.29
539.87	1799.63
540.22	1813.43
540.58	1827.41
540.94	1840.96
541.29	1853.98
541.65	1866.85
542.01	1880.16
542.37	1892.38
542.72	1904.84
543.08	1916.55
543.44	1928.96
543.79	1940.22
544.15	1951.26
544.51	1962.80
544.87	1973.81
545.22	1984.63
545.58	1994.88
545.94	2004.81
546.29	2014.76
546.65	2024.56
547.01	2033.74
547.36	2042.62
547.72	2051.08
548.07	2058.88
548.43	2066.94
548.79	2074.99
549.14	2082.52
549.50	2089.98
549.86	2097.72
550.21	2105.07
550.57	2112.44
550.92	2118.96
551.28	2126.01
551.64	2133.01
551.99	2139.53
552.35	2145.79
552.70	2151.95
553.06	2157.89
553.41	2164.26
553.77	2170.27
554.13	2176.47
554.48	2182.64
554.84	2187.97
555.19	2193.27
555.55	2198.29
555.90	2202.82
556.26	2207.68
556.61	2212.47
556.97	2216.78
557.32	2220.98
557.68	2225.27
558.03	2229.58
558.39	2233.30
558.74	2237.97
559.10	2241.91
559.45	2245.58
559.81	2249.96
560.16	2253.69
560.52	2256.95
560.87	2260.41
561.23	2263.01
561.58	2265.95
561.94	2268.45
562.29	2270.93
562.64	2273.69
563.00	2276.45
563.35	2279.89
563.71	2283.03
564.06	2286.12
564.42	2288.81
564.77	2291.35
565.12	2293.50
565.48	2295.28
565.83	2297.09
566.19	2298.30
566.54	2299.18
566.89	2300.38
567.25	2300.87
567.60	2302.29
567.96	2303.98
568.31	2304.81
568.66	2305.88
569.02	2306.29
569.37	2306.67
569.72	2307.41
570.08	2307.41
570.43	2307.32
570.78	2306.71
571.14	2305.09
571.49	2303.89
571.84	2303.64
572.20	2302.30
572.55	2301.20
572.90	2299.64
573.26	2298.24
573.61	2296.53
573.96	2294.68
574.31	2291.51
574.67	2288.50
575.02	2284.89
575.37	2281.48
575.72	2277.44
576.08	2274.00
576.43	2270.67
576.78	2266.94
577.13	2263.84
577.49	2260.71
577.84	2257.14
578.19	2253.34
578.54	2249.61
578.90	2245.13
579.25	2239.46
579.60	2234.57
579.95	2229.49
580.30	2224.35
580.66	2218.97
581.01	2213.98
581.36	2209.08
581.71	2204.95
582.06	2200.30
582.42	2195.66
582.77	2190.21
583.12	2185.61
583.47	2180.85
583.82	2175.68
584.17	2170.42
584.53	2164.90
584.88	2159.07
585.23	2153.32
585.58	2148.00
585.93	2142.41
586.28	2137.58
586.63	2132.51
586.98	2127.38
587.34	2122.64
587.69	2117.77
588.04	2112.66
588.39	2106.89
588.74	2100.28
589.09	2093.96
589.44	2087.05
589.79	2081.05
590.14	2075.51
590.49	2068.93
590.84	2062.66
591.19	2056.73
591.54	2050.19
591.89	2042.56
592.25	2035.77
592.60	2028.64
592.95	2020.78
593.30	2013.42
593.65	2005.81
594.00	1998.69
594.35	1991.31
594.70	1983.26
595.05	1975.92
595.40	1968.55
595.75	1960.95
596.10	1954.63
596.45	1947.86
596.80	1941.75
597.15	1935.02
597.50	1927.77
597.85	1921.39
598.19	1914.59
598.54	1907.41
598.89	1900.79
599.24	1894.93
599.59	1888.19
599.94	1881.79
600.29	1875.51
600.64	1868.97
600.99	1861.52
601.34	1854.53
601.69	1847.49
602.04	1840.53
602.39	1833.08
602.74	1826.21
603.08	1819.62
603.43	1812.85
603.78	1805.54
604.13	1798.29
604.48	1791.02
604.83	1784.20
605.18	1777.06
605.53	1769.01
605.87	1760.92
606.22	1753.65
606.57	1745.59
606.92	1738.30
607.27	1731.07
607.62	1724.13
607.96	1716.81
608.31	1710.16
608.66	1702.56
609.01	1695.05
609.36	1687.33
609.70	1679.35
610.05	1671.23
610.40	1663.34
610.75	1655.03
611.10	1647.43
611.44	1639.09
611.79	1631.00
612.14	1622.26
612.49	1613.17
612.83	1604.87
613.18	1596.68
613.53	1588.44
613.88	1579.96
614.22	1571.49
614.57	1562.90
614.92	1554.81
615.27	1547.12
615.61	1538.74
615.96	1530.71
616.31	1523.10
616.65	1515.80
617.00	1508.29
617.35	1500.72
617.70	1492.32
618.04	1483.86
618.39	1475.52
618.74	1467.76
619.08	1459.51
619.43	1451.98
619.78	1445.11
620.12	1437.79
620.47	1430.34
620.82	1422.28
621.16	1414.96
621.51	1407.54
621.85	1399.94
622.20	1391.37
622.55	1383.13
622.89	1375.32
623.24	1367.71
623.59	1360.37
623.93	1352.87
624.28	1345.61
624.62	1338.02
624.97	1330.98
625.32	1324.22
625.66	1317.19
626.01	1310.09
626.35	1302.58
626.70	1294.82
627.04	1287.01
627.39	1279.28
627.73	1271.92
628.08	1264.92
628.43	1257.47
628.77	1250.06
629.12	1242.44
629.46	1235.37
629.81	1227.88
630.15	1220.64
630.50	1213.27
630.84	1205.00
631.19	1197.08
631.53	1189.57
631.88	1181.99
632.22	1174.39
632.57	1166.97
632.91	1159.47
633.26	1152.10
633.60	1144.84
633.95	1137.74
634.29	1130.71
634.64	1123.98
634.98	1116.49
635.32	1109.39
635.67	1102.77
636.01	1096.19
636.36	1089.55
636.70	1082.98
637.05	1076.48
637.39	1070.01
637.73	1063.49
638.08	1057.71
638.42	1051.66
638.77	1045.16
639.11	1038.60
639.45	1032.27
639.80	1025.67
640.14	1019.32
640.49	1012.76
640.83	1006.38
641.17	1000.10
641.52	993.76
641.86	987.46
642.20	981.75
642.55	975.48
642.89	969.08
643.23	962.48
643.58	956.57
643.92	950.34
644.26	944.24
644.61	938.25
644.95	932.13
645.29	925.45
645.64	918.82
645.98	912.58
646.32	906.69
646.66	900.69
647.01	894.92
647.35	889.15
647.69	883.24
648.04	877.74
648.38	872.03
648.72	866.05
649.06	859.93
649.41	854.02
649.75	847.96
650.09	842.02
650.43	836.25
650.78	830.13
651.12	824.26
651.46	818.55
651.80	812.73
652.14	807.35
652.49	801.97
652.83	796.80
653.17	791.05
653.51	785.28
653.85	779.79
654.20	774.10
654.54	768.09
654.88	762.41
655.22	756.47
655.56	750.78
655.90	745.31
656.25	740.00
656.59	734.57
656.93	729.53
657.27	724.31
657.61	718.85
657.95	713.64
658.29	708.51
658.64	703.23
658.98	698.02
659.32	692.61
659.66	687.36
660.00	681.98
660.34	677.12
660.68	672.29
661.02	667.29
661.36	662.55
661.70	658.04
662.05	653.63
662.39	649.40
662.73	644.92
663.07	640.54
663.41	636.13
663.75	631.64
664.09	627.07
664.43	622.76
664.77	618.64
665.11	614.51
665.45	610.37
665.79	606.33
666.13	602.13
666.47	598.03
666.81	593.89
667.15	589.82
667.49	585.91
667.83	582.10
668.17	578.13
668.51	574.13
668.85	570.12
669.19	566.32
669.53	562.42
669.87	558.54
670.21	554.85
670.55	551.19
670.89	547.83
671.23	544.41
671.57	540.85
671.91	537.32
672.25	533.83
672.58	530.36
672.92	526.97
673.26	523.80
673.60	520.66
673.94	517.59
674.28	514.72
674.62	511.71
674.96	508.57
675.30	505.66
675.64	502.73
675.97	500.02
676.31	497.15
676.65	494.24
676.99	491.53
677.33	488.60
677.67	485.80
678.01	482.76
678.34	479.75
678.68	476.94
679.02	474.10
679.36	471.35
679.70	468.63
680.04	465.91
680.37	463.06
680.71	460.29
681.05	457.69
681.39	455.01
681.73	452.43
682.06	449.95
682.40	447.40
682.74	444.88
683.08	442.32
683.42	439.73
683.75	437.24
684.09	434.67
684.43	432.27
684.77	429.84
685.10	427.46
685.44	425.19
685.78	422.89
686.12	420.70
686.45	418.40
686.79	416.07
687.13	413.80
687.46	411.66
687.80	409.53
688.14	407.29
688.48	405.18
688.81	402.89
689.15	400.75
689.49	398.64
689.82	396.58
690.16	394.47
690.50	392.55
690.83	390.60
691.17	388.65
691.51	386.73
691.84	384.89
692.18	382.99
692.52	380.99
692.85	379.07
693.19	377.21
693.52	375.40
693.86	373.62
694.20	371.84
694.53	370.04
694.87	368.16
695.21	366.39
695.54	364.53
695.88	362.82
696.21	361.08
696.55	359.38
696.88	357.67
697.22	356.04
697.56	354.40
697.89	352.72
698.23	351.14
698.56	349.54
698.90	347.96
699.23	346.32
699.57	344.76
699.90	343.26
700.24	341.68
700.58	340.13
700.91	338.60
701.25	337.17
701.58	335.81
701.92	334.46
702.25	333.06
702.59	331.75
702.92	330.42
703.26	329.10
703.59	327.81
703.93	326.65
704.26	325.39
704.60	324.09
704.93	322.84
705.26	321.58
705.60	320.40
705.93	319.24
706.27	318.22
706.60	317.18
706.94	316.07
707.27	314.94
707.61	313.90
707.94	312.88
708.27	311.79
708.61	310.69
708.94	309.69
709.28	308.73
709.61	307.74
709.94	306.78
710.28	305.77
710.61	304.79
710.95	303.70
711.28	302.82
711.61	301.85
711.95	300.93
712.28	299.97
712.61	298.97
712.95	298.02
713.28	297.15
713.61	296.26
713.95	295.37
714.28	294.50
714.61	293.63
714.95	292.82
715.28	291.96
715.61	291.10
715.95	290.28
716.28	289.41
716.61	288.59
716.95	287.78
717.28	287.05
717.61	286.29
717.94	285.54
718.28	284.70
718.61	284.02
718.94	283.36
719.27	282.71
719.61	282.07
719.94	281.41
720.27	280.65
720.60	280.00
720.94	279.36
721.27	278.79
721.60	278.23
721.93	277.66
722.27	277.11
722.60	276.55
722.93	275.93
723.26	275.42
723.59	274.86
723.93	274.33
724.26	273.76
724.59	273.21
724.92	272.70
725.25	272.23
725.59	271.70
725.92	271.19
726.25	270.73
726.58	270.24
726.91	269.77
727.24	269.38
727.57	268.90
727.91	268.41
728.24	267.95
728.57	267.43
728.90	266.97
729.23	266.51
729.56	266.11
729.89	265.67
730.22	265.16
730.55	264.74
730.89	264.28
731.22	263.84
731.55	263.40
731.88	262.95
732.21	262.51
732.54	262.10
732.87	261.65
733.20	261.21
733.53	260.83
733.86	260.41
734.19	259.99
734.52	259.59
734.85	259.29
735.18	258.85
735.51	258.47
735.84	258.05
736.17	257.68
736.50	257.30
736.83	257.07
737.16	256.75
737.49	256.38
737.82	256.02
738.15	255.71
738.48	255.39
738.81	255.06
739.14	254.75
739.47	254.42
739.80	254.14
740.13	253.83
740.46	253.50
740.79	253.20
741.12	252.87
741.45	252.57
741.78	252.23
742.11	251.96
742.44	251.66
742.77	251.40
743.10	251.11
743.43	250.76
743.75	250.35
744.08	250.18
744.41	249.91
744.74	249.66
745.07	249.34
745.40	249.09
745.73	248.87
746.06	248.58
746.39	248.33
746.71	248.04
747.04	247.75
747.37	247.51
747.70	247.28
748.03	247.04
748.36	246.80
748.68	246.56
749.01	246.29
749.34	246.06
749.67	245.82
750.00	245.53
750.33	245.38
750.65	245.18
750.98	244.81
751.31	244.59
751.64	244.36
751.97	244.20
752.29	243.95
752.62	243.68
752.95	243.50
753.28	243.26
753.60	243.03
753.93	242.87
754.26	242.68
754.59	242.46
754.91	242.23
755.24	242.02
755.57	241.83
755.90	241.69
756.22	241.51
756.55	241.29
756.88	241.13
757.20	240.92
757.53	240.74
757.86	240.61
758.19	240.46
758.51	240.30
758.84	240.10
759.17	239.94
759.49	239.82
759.82	239.69
760.15	239.56
760.47	239.43
760.80	239.26
761.13	239.12
761.45	238.93
761.78	238.79
762.11	238.69
762.43	238.56
762.76	238.39
763.08	238.26
763.41	238.16
763.74	238.01
764.06	237.88
764.39	237.70
764.71	237.60
765.04	237.46
765.37	237.33
765.69	237.20
766.02	237.07
766.34	236.93
766.67	236.75
767.00	236.65
767.32	236.59
767.65	236.52
767.97	236.39
768.30	236.31
768.62	236.20
768.95	236.10
769.27	236.00
769.60	235.89
769.92	235.76
770.25	235.67
770.57	235.57
770.90	235.46
771.22	235.37
771.55	235.29
771.87	235.20
772.20	235.13
772.52	235.16
772.85	235.21
773.17	235.13
773.50	235.04
773.82	234.93
774.15	234.80
774.47	234.65
774.80	234.56
775.12	234.48
775.45	234.40
775.77	234.27
776.09	234.18
776.42	234.10
776.74	234.04
777.07	233.93
777.39	233.85
777.72	233.78
778.04	233.74
778.36	233.65
778.69	233.58
779.01	233.51
779.33	233.32
779.66	233.16
779.98	233.06
780.31	233.03
780.63	233.03
780.95	232.97
781.28	232.92
781.60	232.85
781.92	232.79
782.25	232.71
782.57	232.66
782.89	232.56
783.22	232.52
783.54	232.44
783.86	232.42
784.19	232.35
784.51	232.33
784.83	232.25
785.16	232.15
785.48	232.11
785.80	232.07
786.12	232.02
786.45	231.92
786.77	231.90
787.09	231.82
787.42	231.72
787.74	231.66
788.06	231.62
788.38	231.59
788.71	231.53
789.03	231.50
789.35	231.47
789.67	231.44
789.99	231.36
790.32	231.29
790.64	231.23
790.96	231.28
791.28	231.18
791.61	231.11
791.93	231.11
792.25	231.05
792.57	231.05
792.89	231.00
793.21	230.97
793.54	230.91
793.86	230.85
794.18	230.80
794.50	230.75
794.82	230.72
795.14	230.65
795.47	230.64
795.79	230.61
796.11	230.56
796.43	230.51
796.75	230.49
797.07	230.51
797.39	230.47
797.71	230.36
798.04	230.34
798.36	230.32
798.68	230.26
799.00	230.24
799.32	230.19
799.64	230.18
799.96	230.13
800.28	230.13
800.60	230.12
800.92	230.11
801.24	230.09
801.56	230.08
801.89	230.06
802.21	230.01
802.53	229.97
802.85	229.96
803.17	229.99
803.49	229.96
803.81	229.89
804.13	229.88
804.45	229.85
804.77	229.82
805.09	229.81
805.41	229.77
805.73	229.72
806.05	229.69
806.37	229.67
806.69	229.67
807.01	229.62
807.33	229.59
807.65	229.53
807.97	229.54
808.28	229.47
808.60	229.47
808.92	229.48
809.24	229.54
809.56	229.50
809.88	229.45
810.20	229.43
810.52	229.44
810.84	229.41
811.16	229.39
811.48	229.38
811.80	229.41
812.12	229.42
812.43	229.43
812.75	229.42
813.07	229.38
813.39	229.34
813.71	229.32
814.03	229.29
814.35	229.29
814.67	229.23
814.98	229.21
815.30	229.19
815.62	229.16
815.94	229.06
816.26	229.07
816.58	229.04
816.89	229.05
817.21	229.01
817.53	229.01
817.85	229.00
818.17	228.97
818.48	228.90
818.80	228.88
819.12	228.84
819.44	228.76
819.76	228.74
820.07	228.74
820.39	228.74
820.71	228.74
821.03	228.72
821.34	228.69
821.66	228.68
821.98	228.68
822.30	228.60
822.61	228.63
822.93	228.60
823.25	228.57
823.57	228.54
823.88	228.56
824.20	228.54
824.52	228.55
824.83	228.56
825.15	228.53
825.47	228.51
825.79	228.49
826.10	228.49
826.42	228.49
826.74	228.51
827.05	228.48
827.37	228.48
827.69	228.47
828.00	228.47
828.32	228.46
828.64	228.41
828.95	228.47
829.27	228.42
829.58	228.36
829.90	228.37
830.22	228.36
830.53	228.27
830.85	228.22
831.17	228.19
831.48	228.14
831.80	228.15
832.11	228.16
832.43	228.12
832.75	228.09
833.06	228.10
833.38	228.04
833.69	228.02
834.01	227.98
834.32	227.95
834.64	227.91
834.96	227.88
835.27	227.88
835.59	227.83
835.90	227.80
836.22	227.78
836.53	227.75
836.85	227.72
837.16	227.83
837.48	227.80
837.79	227.81
838.11	227.82
838.42	227.79
838.74	227.78
839.05	227.76
839.37	227.77
839.68	227.70
840.00	227.69
840.31	227.68
840.63	227.69
840.94	227.67
841.26	227.66
841.57	227.66
841.88	227.64
842.20	227.63
842.51	227.62
842.83	227.64
843.14	227.73
843.46	227.72
843.77	227.68
844.08	227.69
844.40	227.68
844.71	227.64
845.03	227.60
845.34	227.58
845.65	227.60
845.97	227.59
846.28	227.57
846.60	227.59
846.91	227.58
847.22	227.55
847.54	227.57
847.85	227.60
848.16	227.59
848.48	227.56
848.79	227.63
849.10	227.64
849.42	227.62
849.73	227.53
850.04	227.53
850.36	227.46
850.67	227.49
850.98	227.47
851.30	227.51
851.61	227.51
851.92	227.53
852.23	227.56
852.55	227.58
852.86	227.58
853.17	227.58
853.49	227.58
853.80	227.61
854.11	227.63
854.42	227.61
854.74	227.62
855.05	227.63
855.36	227.59
855.67	227.61
855.99	227.63
856.30	227.77
856.61	227.77
856.92	227.80
857.23	227.79
857.55	227.79
857.86	227.77
858.17	227.82
858.48	227.79
858.79	227.77
859.11	227.74
859.42	227.78
859.73	227.78
860.04	227.78
860.35	227.75
860.66	227.73
860.98	227.73
861.29	227.74
861.60	227.77
861.91	227.76
862.22	227.75
862.53	227.74
862.84	227.61
863.16	227.62
863.47	227.61
863.78	227.60
864.09	227.61
864.40	227.61
864.71	227.62
865.02	227.65
865.33	227.64
865.64	227.63
865.95	227.63
866.27	227.69
866.58	227.68
866.89	227.69
867.20	227.69
867.51	227.66
867.82	227.67
868.13	227.68
868.44	227.63
868.75	227.63
869.06	227.63
869.37	227.63
869.68	227.63
869.99	227.62
870.30	227.62
870.61	227.62
870.92	227.58
871.23	227.55
871.54	227.54
871.85	227.57
872.16	227.57
872.47	227.55
872.78	227.47
873.09	227.52
873.40	227.50
873.71	227.51
874.02	227.49
874.33	227.46
874.64	227.41
874.95	227.45
875.26	227.42
875.56	227.40
875.87	227.38
876.18	227.32
876.49	227.45
876.80	227.42
877.11	227.41
877.42	227.43
877.73	227.40
878.04	227.36
878.35	227.32
878.66	227.30
878.96	227.26
879.27	227.21
879.58	227.17
879.89	227.16
880.20	227.20
880.51	227.22
880.82	227.23
881.12	227.24
881.43	227.19
881.74	227.19
882.05	227.17
882.36	227.17
882.67	227.21
882.97	227.07
883.28	227.06
883.59	227.05
883.90	227.06
884.21	227.09
884.51	227.09
884.82	227.10
885.13	227.13
885.44	227.15
885.74	227.17
886.05	227.16
886.36	227.16
886.67	227.07
886.98	227.09
887.28	227.09
887.59	227.09
887.90	227.10
888.20	227.07
888.51	227.11
888.82	227.11
889.13	227.12
889.43	227.22
889.74	227.22
890.05	227.22
890.35	227.20
890.66	227.22
890.97	227.22
891.28	227.17
891.58	227.17
891.89	227.16
892.20	227.17
892.50	227.15
892.81	227.15
893.12	227.17
893.42	227.16
893.73	227.16
894.04	227.15
894.34	227.18
894.65	227.19
894.95	227.19
895.26	227.19
895.57	227.20
895.87	227.11
896.18	227.15
896.48	227.15
896.79	227.17
897.10	227.14
897.40	227.15
897.71	227.19
898.01	227.17
898.32	227.19
898.63	227.19
898.93	227.20
899.24	227.18
899.54	227.17
899.85	227.16
900.15	227.14
900.46	227.13
900.76	227.13
901.07	227.13
901.38	227.12
901.68	227.13
901.99	227.10
902.29	227.11
902.60	227.06
902.90	227.05
903.21	227.03
903.51	227.02
903.82	227.07
904.12	227.08
904.43	227.09
904.73	227.09
905.03	227.12
905.34	227.22
905.64	227.24
905.95	227.25
906.25	227.22
906.56	227.21
906.86	227.23
907.17	227.23
907.47	227.23
907.77	227.22
908.08	227.18
908.38	227.20
908.69	227.21
908.99	227.22
909.30	227.23
909.60	227.23
909.90	227.26
910.21	227.18
910.51	227.15
910.81	227.13
911.12	227.11
911.42	227.10
911.73	227.02
912.03	226.99
912.33	227.00
912.64	226.98
912.94	226.96
913.24	226.95
913.55	226.92
913.85	226.88
914.15	226.89
914.46	226.91
914.76	226.89
915.06	226.85
915.37	226.82
915.67	226.81
915.97	226.79
916.27	226.75
916.58	226.78
916.88	226.74
917.18	226.74
917.49	226.77
917.79	226.76
918.09	226.75
918.39	226.78
918.70	226.79
919.00	226.81
919.30	226.87
919.60	226.86
919.91	226.85
920.21	226.87
920.51	226.84
920.81	226.79
921.12	226.81
921.42	226.80
921.72	226.85
922.02	226.83
922.32	226.85
922.63	226.86
922.93	226.93
923.23	226.95
923.53	226.95
923.83	226.91
924.13	226.91
924.44	226.93
924.74	226.94
925.04	226.92
925.34	226.94
925.64	226.88
925.94	226.88
926.24	226.96
926.55	226.95
926.85	226.97
927.15	227.01
927.45	226.99
927.75	227.01
928.05	226.98
928.35	227.01
928.65	227.01
928.95	227.03
929.26	226.96
929.56	226.99
929.86	227.04
930.16	227.05
930.46	227.02
930.76	227.02
931.06	227.02
931.36	227.02
931.66	227.03
931.96	227.07
932.26	227.06
932.56	227.00
932.86	227.03
933.16	227.06
933.46	227.05
933.76	227.08
934.06	227.11
934.36	227.15
934.66	227.12
934.96	227.11
935.26	227.09
935.56	227.13
935.86	227.07
936.16	227.02
936.46	227.00
936.76	227.01
937.06	227.01
937.36	226.99
937.66	227.04
937.96	227.04
938.26	227.02
938.56	227.09
938.86	227.11
939.16	227.13
939.46	227.11
939.76	227.12
940.06	227.09
940.35	227.07
940.65	227.05
940.95	227.08
941.25	227.07
941.55	227.05
941.85	227.05
942.15	227.10
942.45	227.15
942.75	227.16
943.04	227.18
943.34	227.19
943.64	227.18
943.94	227.15
944.24	227.14
944.54	227.15
944.84	227.11
945.13	227.05
945.43	227.03
945.73	227.04
946.03	227.05
946.33	227.02
946.62	227.03
946.92	226.99
947.22	226.99
947.52	227.03
947.82	227.06
948.11	227.05
948.41	227.03
948.71	227.00
949.01	227.01
949.31	226.97
949.60	226.94
949.90	226.96
950.20	226.93
950.50	226.92
950.79	226.93
951.09	226.95
951.39	226.96
951.69	226.94
951.98	226.93
952.28	226.92
952.58	226.94
952.87	226.91
953.17	226.92
953.47	226.89
953.76	226.87
954.06	226.82
954.36	226.77
954.66	226.79
954.95	226.80
955.25	226.80
955.55	226.83
955.84	226.81
956.14	226.80
956.44	226.82
956.73	226.80
957.03	226.76
957.32	226.73
957.62	226.73
957.92	226.73
958.21	226.73
958.51	226.85
958.81	226.88
959.10	226.89
959.40	226.92
959.69	226.96
959.99	226.99
960.29	227.01
960.58	227.02
960.88	227.06
961.17	227.04
961.47	227.06
961.76	227.07
962.06	227.12
962.36	227.11
962.65	227.12
962.95	227.14
963.24	227.14
963.54	227.15
963.83	227.16
964.13	227.16
964.42	227.14
964.72	227.08
965.01	227.06
965.31	227.06
965.60	227.05
965.90	227.07
966.19	227.03
966.49	227.04
966.78	227.05
967.08	227.03
967.37	227.05
967.67	227.03
967.96	227.02
968.26	227.02
968.55	227.03
968.85	227.02
969.14	227.03
969.43	227.05
969.73	227.07
970.02	227.06
970.32	227.08
970.61	227.08
970.91	227.04
971.20	227.03
971.49	227.04
971.79	227.04
972.08	226.99
972.38	227.01
972.67	227.01
972.96	227.04
973.26	227.01
973.55	227.04
973.85	227.04
974.14	227.02
974.43	227.05
974.73	227.05
975.02	227.06
975.31	227.05
975.61	227.05
975.90	227.04
976.19	227.02
976.49	227.01
976.78	227.01
977.07	227.03
977.37	227.03
977.66	227.06
977.95	227.01
978.24	227.04
978.54	227.05
978.83	227.03
979.12	227.03
979.42	227.05
979.71	227.04
980.00	227.07
980.29	227.07
980.59	227.06
980.88	227.08
981.17	227.07
981.46	227.06
981.76	227.06
982.05	227.10
982.34	227.13
982.63	227.10
982.93	227.08
983.22	227.10
983.51	227.10
983.80	227.07
984.09	227.12
984.39	227.08
984.68	227.09
984.97	227.08
985.26	227.07
985.55	227.04
985.85	226.97
986.14	226.95
986.43	226.97
986.72	226.95
987.01	226.88
987.30	226.88
987.59	226.87
987.89	226.88
988.18	226.84
988.47	226.80
988.76	226.82
989.05	226.82
989.34	226.81
989.63	226.81
989.92	226.79
990.22	226.76
990.51	226.76
990.80	226.76
991.09	226.81
991.38	226.80
991.67	226.79
991.96	226.78
992.25	226.79
992.54	226.75
992.83	226.73
993.12	226.74
993.41	226.77
993.70	226.81
993.99	226.81
994.28	226.83
994.58	226.87
994.87	226.89
995.16	226.87
995.45	226.83
995.74	226.78
996.03	226.81
996.32	226.83
996.61	226.84
996.90	226.79
997.19	226.74
997.48	226.78
997.77	226.79
998.06	226.81
998.34	226.82
998.63	226.84
998.92	226.86
999.21	226.87
999.50	226.85
999.79	226.84
1000.08	226.84
1000.37	226.82
1000.66	226.80
1000.95	226.76
1001.24	226.77
1001.53	226.81
1001.82	226.82
1002.11	226.80
1002.40	226.79
1002.68	226.82
1002.97	226.93
1003.26	226.94
1003.55	226.90
1003.84	226.90
1004.13	226.98
1004.42	226.96
1004.71	226.97
1004.99	226.96
1005.28	226.98
1005.57	226.97
1005.86	226.93
1006.15	226.90
1006.44	226.90
1006.72	226.94
1007.01	226.99
1007.30	226.99
1007.59	226.98
1007.88	227.01
1008.17	226.99
1008.45	227.00
1008.74	226.96
1009.03	226.91
1009.32	226.92
1009.60	226.92
1009.89	226.93
1010.18	226.85
1010.47	226.84
1010.76	226.82
1011.04	226.83
1011.33	226.82
1011.62	226.83
1011.91	226.87
1012.19	226.89
1012.48	226.90
1012.77	226.88
1013.05	226.89
1013.34	226.87
1013.63	226.86
1013.92	226.85
1014.20	226.86
1014.49	226.87
1014.78	226.85
1015.06	226.82
1015.35	226.80
1015.64	226.79
1015.92	226.80
1016.21	226.81
1016.50	226.79
1016.78	226.81
1017.07	226.80
1017.36	226.79
1017.64	226.76
1017.93	226.79
1018.22	226.75
1018.50	226.70
1018.79	226.68
1019.08	226.61
1019.36	226.63
1019.65	226.61
1019.93	226.63
1020.22	226.65
1020.51	226.66
1020.79	226.63
1021.08	226.24
1021.36	225.95
1021.65	226.60
1021.94	226.03
1022.22	226.56
1022.51	226.30
1022.79	227.06
1023.08	226.77
1023.36	227.48
1023.65	225.88
>>>>>End Processed Spectral Data<<<<<
