SpectraSuite Data File
++++++++++++++++++++++++++++++++++++
Date: Fri Feb 01 16:02:55 EST 2013
User: group
Dark Spectrum Present: No
Reference Spectrum Present: No
Number of Sampled Component Spectra: 1
Spectrometers: USB2E7196
Integration Time (usec): 35000 (USB2E7196)
Spectra Averaged: 100 (USB2E7196)
Boxcar Smoothing: 10 (USB2E7196)
Correct for Electrical Dark: No (USB2E7196)
Strobe/Lamp Enabled: No (USB2E7196)
Correct for Detector Non-linearity: No (USB2E7196)
Correct for Stray Light: No (USB2E7196)
Number of Pixels in Processed Spectrum: 2048
>>>>>Begin Processed Spectral Data<<<<<
339.09	0.00
339.48	215.20
339.86	216.28
340.24	217.88
340.63	219.16
341.01	221.70
341.39	221.82
341.78	223.21
342.16	225.07
342.54	224.99
342.93	213.22
343.31	223.97
343.69	224.49
344.07	225.00
344.46	225.42
344.84	225.79
345.22	226.05
345.60	226.28
345.99	226.43
346.37	226.51
346.75	226.59
347.13	226.64
347.52	226.71
347.90	226.80
348.28	226.86
348.66	226.91
349.05	226.90
349.43	226.93
349.81	226.99
350.19	227.04
350.57	227.10
350.96	227.13
351.34	227.22
351.72	227.29
352.10	227.33
352.48	227.36
352.87	227.41
353.25	227.45
353.63	227.49
354.01	227.56
354.39	227.64
354.77	227.72
355.15	227.81
355.54	227.86
355.92	227.84
356.30	227.87
356.68	228.00
357.06	228.06
357.44	228.13
357.82	228.16
358.20	228.22
358.58	228.24
358.97	228.32
359.35	228.42
359.73	228.49
360.11	228.55
360.49	228.60
360.87	228.63
361.25	228.68
361.63	228.80
362.01	228.88
362.39	228.91
362.77	228.92
363.15	228.94
363.53	228.92
363.91	228.97
364.29	228.98
364.67	228.90
365.05	228.92
365.43	228.93
365.81	228.98
366.19	229.04
366.57	229.08
366.95	229.08
367.33	229.04
367.71	229.00
368.09	229.02
368.47	229.01
368.85	229.02
369.23	229.01
369.61	228.97
369.99	228.96
370.37	228.95
370.75	228.99
371.13	228.93
371.51	228.89
371.89	228.89
372.27	228.88
372.65	228.83
373.03	228.81
373.41	228.75
373.78	228.65
374.16	228.55
374.54	228.47
374.92	228.38
375.30	228.29
375.68	228.26
376.06	228.18
376.44	228.14
376.82	228.09
377.19	228.01
377.57	227.92
377.95	227.80
378.33	227.72
378.71	227.59
379.09	227.55
379.47	227.53
379.84	227.45
380.22	227.36
380.60	227.30
380.98	227.23
381.36	227.16
381.73	227.10
382.11	227.08
382.49	227.01
382.87	226.96
383.25	226.92
383.62	226.97
384.00	226.90
384.38	226.82
384.76	226.79
385.13	226.77
385.51	226.74
385.89	226.69
386.27	226.63
386.64	226.61
387.02	226.54
387.40	226.48
387.78	226.45
388.15	226.43
388.53	226.38
388.91	226.35
389.29	226.33
389.66	226.29
390.04	226.21
390.42	226.21
390.79	226.20
391.17	226.20
391.55	226.05
391.92	226.06
392.30	226.07
392.68	226.04
393.05	226.04
393.43	226.05
393.81	226.09
394.18	226.10
394.56	226.10
394.94	226.13
395.31	226.14
395.69	226.20
396.06	226.23
396.44	226.27
396.82	226.30
397.19	226.37
397.57	226.41
397.95	226.51
398.32	226.53
398.70	226.59
399.07	226.64
399.45	226.73
399.82	226.77
400.20	226.83
400.58	226.91
400.95	226.93
401.33	227.00
401.70	227.14
402.08	227.23
402.45	227.34
402.83	227.45
403.20	227.55
403.58	227.61
403.95	227.74
404.33	227.87
404.71	227.96
405.08	228.15
405.46	228.29
405.83	228.39
406.21	228.54
406.58	228.72
406.96	228.88
407.33	229.01
407.70	229.23
408.08	229.49
408.45	229.72
408.83	229.96
409.20	230.18
409.58	230.38
409.95	230.63
410.33	230.90
410.70	231.15
411.08	231.45
411.45	231.77
411.82	232.06
412.20	232.41
412.57	232.83
412.95	233.10
413.32	233.53
413.69	234.00
414.07	234.42
414.44	234.88
414.82	235.38
415.19	235.95
415.56	236.49
415.94	237.03
416.31	237.65
416.68	238.26
417.06	238.96
417.43	239.61
417.81	240.39
418.18	241.17
418.55	242.03
418.93	242.91
419.30	243.80
419.67	244.76
420.04	245.71
420.42	246.73
420.79	247.93
421.16	249.07
421.54	250.24
421.91	251.49
422.28	252.76
422.66	254.10
423.03	255.41
423.40	256.77
423.77	258.15
424.15	259.60
424.52	261.11
424.89	262.72
425.26	264.27
425.64	265.73
426.01	267.32
426.38	268.98
426.75	270.67
427.13	272.39
427.50	274.17
427.87	276.07
428.24	277.90
428.61	279.66
428.99	281.60
429.36	283.69
429.73	285.75
430.10	287.76
430.47	289.84
430.85	291.92
431.22	294.19
431.59	296.59
431.96	298.89
432.33	301.39
432.70	303.77
433.08	306.59
433.45	309.21
433.82	311.79
434.19	314.69
434.56	317.47
434.93	320.14
435.30	322.78
435.68	325.69
436.05	328.56
436.42	331.35
436.79	333.89
437.16	336.57
437.53	339.36
437.90	342.21
438.27	344.93
438.64	347.78
439.01	350.32
439.38	352.55
439.75	354.70
440.13	357.16
440.50	359.52
440.87	361.37
441.24	363.29
441.61	365.46
441.98	366.99
442.35	368.85
442.72	370.71
443.09	372.52
443.46	373.50
443.83	374.04
444.20	374.55
444.57	375.35
444.94	375.61
445.31	375.96
445.68	376.25
446.05	376.32
446.42	375.90
446.79	375.50
447.16	375.02
447.53	374.63
447.90	373.48
448.27	372.26
448.64	370.66
449.01	369.53
449.37	367.57
449.74	365.64
450.11	363.31
450.48	360.84
450.85	358.29
451.22	356.12
451.59	354.08
451.96	352.14
452.33	349.57
452.70	347.22
453.07	344.36
453.43	341.48
453.80	338.72
454.17	336.06
454.54	333.51
454.91	330.83
455.28	328.17
455.65	325.66
456.02	323.25
456.38	321.12
456.75	318.46
457.12	316.21
457.49	313.97
457.86	311.87
458.23	309.98
458.59	308.00
458.96	305.91
459.33	304.07
459.70	302.21
460.07	300.68
460.43	298.97
460.80	297.40
461.17	295.99
461.54	294.50
461.91	293.10
462.27	291.65
462.64	290.39
463.01	289.09
463.38	287.81
463.74	286.41
464.11	285.26
464.48	284.30
464.85	283.19
465.21	282.33
465.58	281.36
465.95	280.32
466.32	279.38
466.68	278.49
467.05	277.57
467.42	276.68
467.78	275.78
468.15	274.95
468.52	274.30
468.88	273.44
469.25	272.68
469.62	272.07
469.98	271.43
470.35	270.79
470.72	270.18
471.08	269.50
471.45	269.03
471.82	268.48
472.18	267.84
472.55	267.42
472.92	266.93
473.28	266.49
473.65	266.03
474.02	265.60
474.38	265.25
474.75	264.97
475.11	264.64
475.48	264.35
475.85	264.08
476.21	263.81
476.58	263.63
476.94	263.46
477.31	263.30
477.67	263.14
478.04	263.04
478.41	262.97
478.77	263.03
479.14	262.95
479.50	262.96
479.87	263.04
480.23	263.09
480.60	263.15
480.96	263.25
481.33	263.40
481.69	263.61
482.06	263.78
482.42	263.97
482.79	264.20
483.15	264.50
483.52	264.94
483.88	265.30
484.25	265.68
484.61	266.11
484.98	266.54
485.34	267.05
485.71	267.64
486.07	268.22
486.44	268.78
486.80	269.48
487.17	270.20
487.53	271.02
487.90	271.89
488.26	272.83
488.62	273.81
488.99	274.79
489.35	275.82
489.72	276.90
490.08	278.13
490.44	279.39
490.81	280.72
491.17	282.08
491.54	283.56
491.90	285.10
492.26	286.73
492.63	288.44
492.99	290.24
493.36	292.13
493.72	294.17
494.08	296.27
494.45	298.53
494.81	300.89
495.17	303.32
495.54	305.85
495.90	308.52
496.26	311.32
496.63	314.31
496.99	317.43
497.35	320.72
497.72	324.12
498.08	327.66
498.44	331.37
498.80	335.26
499.17	339.26
499.53	343.41
499.89	347.81
500.26	352.33
500.62	357.04
500.98	362.00
501.34	367.10
501.71	372.45
502.07	377.87
502.43	383.49
502.79	389.27
503.16	395.38
503.52	401.61
503.88	407.96
504.24	414.60
504.60	421.48
504.97	428.63
505.33	435.96
505.69	443.63
506.05	451.37
506.41	459.25
506.78	467.49
507.14	475.99
507.50	484.73
507.86	493.79
508.22	503.00
508.59	512.20
508.95	521.80
509.31	531.61
509.67	541.68
510.03	551.99
510.39	562.60
510.75	573.37
511.12	584.36
511.48	595.73
511.84	607.21
512.20	618.76
512.56	630.79
512.92	642.98
513.28	655.39
513.64	667.93
514.00	680.61
514.37	693.51
514.73	706.56
515.09	719.63
515.45	732.95
515.81	746.56
516.17	760.59
516.53	774.70
516.89	788.96
517.25	803.11
517.61	817.53
517.97	831.93
518.33	846.43
518.69	861.18
519.05	876.19
519.41	891.43
519.77	906.93
520.13	922.24
520.49	937.58
520.85	952.99
521.21	968.78
521.57	985.03
521.93	1000.82
522.29	1017.22
522.65	1033.38
523.01	1049.65
523.37	1065.59
523.73	1081.76
524.09	1097.81
524.45	1114.03
524.81	1130.70
525.17	1147.52
525.53	1164.45
525.89	1181.39
526.25	1198.26
526.61	1214.51
526.97	1231.16
527.33	1247.65
527.68	1264.33
528.04	1280.80
528.40	1297.31
528.76	1314.29
529.12	1330.75
529.48	1347.55
529.84	1363.56
530.20	1380.31
530.56	1397.24
530.91	1414.76
531.27	1431.46
531.63	1448.03
531.99	1464.53
532.35	1480.40
532.71	1496.23
533.07	1512.46
533.42	1528.13
533.78	1544.23
534.14	1560.59
534.50	1575.85
534.86	1591.71
535.21	1606.73
535.57	1622.65
535.93	1638.19
536.29	1652.88
536.65	1668.03
537.00	1682.83
537.36	1698.03
537.72	1712.41
538.08	1726.68
538.44	1740.28
538.79	1754.06
539.15	1767.57
539.51	1781.28
539.87	1795.60
540.22	1809.28
540.58	1823.04
540.94	1836.43
541.29	1849.17
541.65	1861.86
542.01	1874.96
542.37	1887.17
542.72	1899.61
543.08	1911.29
543.44	1923.64
543.79	1934.92
544.15	1945.92
544.51	1957.42
544.87	1968.36
545.22	1979.07
545.58	1989.22
545.94	1999.00
546.29	2008.92
546.65	2018.86
547.01	2028.15
547.36	2036.80
547.72	2045.28
548.07	2053.00
548.43	2061.10
548.79	2069.13
549.14	2076.53
549.50	2083.96
549.86	2091.62
550.21	2098.93
550.57	2105.99
550.92	2112.50
551.28	2119.43
551.64	2126.38
551.99	2132.86
552.35	2139.02
552.70	2145.20
553.06	2151.30
553.41	2157.65
553.77	2163.61
554.13	2169.63
554.48	2175.81
554.84	2181.34
555.19	2186.62
555.55	2191.77
555.90	2196.26
556.26	2201.16
556.61	2205.99
556.97	2210.24
557.32	2214.30
557.68	2218.42
558.03	2222.95
558.39	2226.67
558.74	2231.37
559.10	2235.28
559.45	2239.05
559.81	2243.56
560.16	2247.53
560.52	2250.78
560.87	2254.25
561.23	2257.02
561.58	2259.97
561.94	2262.40
562.29	2264.83
562.64	2267.34
563.00	2270.05
563.35	2273.60
563.71	2276.67
564.06	2279.86
564.42	2282.72
564.77	2285.32
565.12	2287.60
565.48	2289.35
565.83	2291.35
566.19	2292.64
566.54	2293.59
566.89	2294.76
567.25	2295.17
567.60	2296.42
567.96	2297.96
568.31	2298.77
568.66	2299.82
569.02	2300.38
569.37	2300.86
569.72	2301.70
570.08	2302.11
570.43	2302.19
570.78	2301.57
571.14	2300.04
571.49	2298.68
571.84	2298.41
572.20	2297.31
572.55	2296.39
572.90	2294.99
573.26	2293.59
573.61	2292.02
573.96	2290.27
574.31	2287.16
574.67	2284.25
575.02	2280.72
575.37	2277.45
575.72	2273.64
576.08	2270.39
576.43	2267.09
576.78	2263.34
577.13	2260.21
577.49	2257.06
577.84	2253.61
578.19	2250.04
578.54	2246.48
578.90	2242.36
579.25	2236.76
579.60	2231.83
579.95	2226.74
580.30	2221.77
580.66	2216.61
581.01	2211.60
581.36	2206.72
581.71	2202.77
582.06	2198.21
582.42	2193.67
582.77	2188.50
583.12	2184.00
583.47	2179.19
583.82	2174.15
584.17	2168.98
584.53	2163.43
584.88	2157.76
585.23	2151.76
585.58	2146.16
585.93	2140.72
586.28	2135.95
586.63	2131.00
586.98	2125.94
587.34	2121.26
587.69	2116.30
588.04	2110.99
588.39	2105.33
588.74	2098.88
589.09	2092.61
589.44	2085.80
589.79	2079.88
590.14	2074.32
590.49	2067.77
590.84	2061.39
591.19	2055.35
591.54	2048.80
591.89	2041.32
592.25	2034.55
592.60	2027.51
592.95	2020.01
593.30	2012.57
593.65	2004.99
594.00	1997.97
594.35	1990.74
594.70	1982.89
595.05	1975.61
595.40	1968.30
595.75	1960.78
596.10	1954.42
596.45	1947.69
596.80	1941.56
597.15	1934.93
597.50	1927.76
597.85	1921.37
598.19	1914.82
598.54	1907.71
598.89	1901.14
599.24	1895.40
599.59	1888.59
599.94	1882.40
600.29	1876.04
600.64	1869.60
600.99	1862.12
601.34	1855.24
601.69	1848.24
602.04	1841.26
602.39	1833.99
602.74	1827.19
603.08	1820.44
603.43	1813.84
603.78	1806.52
604.13	1799.27
604.48	1791.76
604.83	1784.85
605.18	1777.82
605.53	1769.86
605.87	1761.97
606.22	1754.74
606.57	1746.77
606.92	1739.70
607.27	1732.54
607.62	1725.65
607.96	1718.34
608.31	1711.69
608.66	1704.04
609.01	1696.45
609.36	1688.83
609.70	1680.86
610.05	1672.76
610.40	1665.04
610.75	1656.75
611.10	1648.96
611.44	1640.70
611.79	1632.79
612.14	1624.18
612.49	1614.95
612.83	1606.59
613.18	1598.36
613.53	1590.18
613.88	1581.61
614.22	1573.23
614.57	1564.54
614.92	1556.45
615.27	1548.86
615.61	1540.55
615.96	1532.60
616.31	1525.11
616.65	1517.72
617.00	1510.11
617.35	1502.43
617.70	1494.02
618.04	1485.50
618.39	1477.43
618.74	1469.74
619.08	1461.43
619.43	1453.82
619.78	1447.01
620.12	1439.74
620.47	1432.14
620.82	1424.04
621.16	1416.66
621.51	1409.17
621.85	1401.64
622.20	1393.11
622.55	1384.75
622.89	1376.84
623.24	1369.17
623.59	1361.71
623.93	1354.23
624.28	1346.97
624.62	1339.44
624.97	1332.36
625.32	1325.55
625.66	1318.52
626.01	1311.29
626.35	1303.83
626.70	1296.08
627.04	1288.28
627.39	1280.49
627.73	1273.20
628.08	1266.22
628.43	1258.89
628.77	1251.29
629.12	1243.63
629.46	1236.51
629.81	1229.12
630.15	1221.94
630.50	1214.46
630.84	1206.27
631.19	1198.29
631.53	1190.79
631.88	1183.31
632.22	1175.67
632.57	1168.41
632.91	1160.83
633.26	1153.44
633.60	1146.07
633.95	1139.05
634.29	1132.01
634.64	1125.34
634.98	1117.91
635.32	1110.75
635.67	1104.24
636.01	1097.58
636.36	1090.89
636.70	1084.38
637.05	1077.68
637.39	1071.16
637.73	1064.61
638.08	1058.63
638.42	1052.57
638.77	1046.06
639.11	1039.43
639.45	1033.05
639.80	1026.30
640.14	1019.83
640.49	1013.34
640.83	1007.04
641.17	1000.62
641.52	994.22
641.86	987.85
642.20	981.99
642.55	975.64
642.89	969.17
643.23	962.79
643.58	956.94
643.92	950.66
644.26	944.60
644.61	938.57
644.95	932.61
645.29	926.07
645.64	919.34
645.98	913.06
646.32	907.20
646.66	901.14
647.01	895.40
647.35	889.72
647.69	883.82
648.04	878.28
648.38	872.55
648.72	866.48
649.06	860.31
649.41	854.49
649.75	848.53
650.09	842.57
650.43	836.72
650.78	830.60
651.12	824.70
651.46	819.02
651.80	813.33
652.14	807.89
652.49	802.49
652.83	797.37
653.17	791.67
653.51	785.93
653.85	780.55
654.20	774.90
654.54	768.91
654.88	763.22
655.22	757.35
655.56	751.62
655.90	746.26
656.25	741.00
656.59	735.62
656.93	730.62
657.27	725.45
657.61	720.04
657.95	714.97
658.29	709.85
658.64	704.61
658.98	699.28
659.32	693.83
659.66	688.68
660.00	683.31
660.34	678.39
660.68	673.51
661.02	668.47
661.36	663.73
661.70	659.17
662.05	654.78
662.39	650.52
662.73	646.14
663.07	641.79
663.41	637.33
663.75	632.82
664.09	628.19
664.43	623.81
664.77	619.66
665.11	615.32
665.45	611.18
665.79	607.07
666.13	602.92
666.47	598.88
666.81	594.71
667.15	590.62
667.49	586.67
667.83	582.84
668.17	578.94
668.51	574.90
668.85	570.88
669.19	567.07
669.53	563.10
669.87	559.13
670.21	555.40
670.55	551.80
670.89	548.37
671.23	544.97
671.57	541.38
671.91	537.78
672.25	534.31
672.58	530.75
672.92	527.33
673.26	524.14
673.60	520.97
673.94	517.78
674.28	514.88
674.62	511.95
674.96	508.83
675.30	505.86
675.64	502.89
675.97	500.15
676.31	497.17
676.65	494.26
676.99	491.58
677.33	488.73
677.67	485.87
678.01	482.80
678.34	479.81
678.68	476.94
679.02	474.14
679.36	471.34
679.70	468.68
680.04	465.93
680.37	463.09
680.71	460.27
681.05	457.69
681.39	454.95
681.73	452.23
682.06	449.75
682.40	447.17
682.74	444.62
683.08	442.06
683.42	439.55
683.75	437.05
684.09	434.51
684.43	432.00
684.77	429.56
685.10	427.26
685.44	424.97
685.78	422.71
686.12	420.43
686.45	418.14
686.79	415.77
687.13	413.55
687.46	411.38
687.80	409.21
688.14	407.04
688.48	404.97
688.81	402.75
689.15	400.55
689.49	398.46
689.82	396.44
690.16	394.38
690.50	392.43
690.83	390.49
691.17	388.51
691.51	386.61
691.84	384.76
692.18	382.84
692.52	380.83
692.85	378.90
693.19	377.07
693.52	375.29
693.86	373.53
694.20	371.77
694.53	369.98
694.87	368.14
695.21	366.33
695.54	364.58
695.88	362.88
696.21	361.19
696.55	359.51
696.88	357.79
697.22	356.14
697.56	354.49
697.89	352.85
698.23	351.26
698.56	349.69
698.90	348.11
699.23	346.41
699.57	344.91
699.90	343.39
700.24	341.83
700.58	340.30
700.91	338.85
701.25	337.41
701.58	336.02
701.92	334.69
702.25	333.31
702.59	331.93
702.92	330.62
703.26	329.29
703.59	328.02
703.93	326.84
704.26	325.58
704.60	324.27
704.93	322.97
705.26	321.74
705.60	320.56
705.93	319.39
706.27	318.36
706.60	317.30
706.94	316.15
707.27	315.01
707.61	313.92
707.94	312.87
708.27	311.76
708.61	310.67
708.94	309.61
709.28	308.65
709.61	307.64
709.94	306.68
710.28	305.70
710.61	304.74
710.95	303.68
711.28	302.75
711.61	301.85
711.95	300.97
712.28	299.98
712.61	298.96
712.95	298.05
713.28	297.19
713.61	296.28
713.95	295.39
714.28	294.55
714.61	293.67
714.95	292.79
715.28	291.95
715.61	291.06
715.95	290.22
716.28	289.30
716.61	288.47
716.95	287.61
717.28	286.82
717.61	285.99
717.94	285.24
718.28	284.43
718.61	283.66
718.94	282.94
719.27	282.31
719.61	281.68
719.94	281.00
720.27	280.27
720.60	279.60
720.94	278.99
721.27	278.40
721.60	277.83
721.93	277.23
722.27	276.69
722.60	276.15
722.93	275.58
723.26	275.09
723.59	274.52
723.93	273.98
724.26	273.44
724.59	272.90
724.92	272.37
725.25	271.88
725.59	271.37
725.92	270.85
726.25	270.35
726.58	269.85
726.91	269.36
727.24	268.91
727.57	268.39
727.91	267.90
728.24	267.43
728.57	266.95
728.90	266.52
729.23	266.03
729.56	265.63
729.89	265.20
730.22	264.72
730.55	264.28
730.89	263.84
731.22	263.37
731.55	262.94
731.88	262.50
732.21	262.07
732.54	261.66
732.87	261.24
733.20	260.86
733.53	260.45
733.86	260.08
734.19	259.69
734.52	259.33
734.85	259.02
735.18	258.62
735.51	258.27
735.84	257.90
736.17	257.55
736.50	257.14
736.83	256.94
737.16	256.62
737.49	256.30
737.82	255.96
738.15	255.65
738.48	255.36
738.81	255.05
739.14	254.74
739.47	254.43
739.80	254.11
740.13	253.79
740.46	253.47
740.79	253.17
741.12	252.85
741.45	252.56
741.78	252.21
742.11	251.93
742.44	251.66
742.77	251.32
743.10	251.03
743.43	250.70
743.75	250.29
744.08	250.11
744.41	249.83
744.74	249.55
745.07	249.25
745.40	249.00
745.73	248.78
746.06	248.53
746.39	248.28
746.71	248.00
747.04	247.70
747.37	247.43
747.70	247.19
748.03	246.98
748.36	246.77
748.68	246.53
749.01	246.26
749.34	245.99
749.67	245.78
750.00	245.56
750.33	245.44
750.65	245.25
750.98	244.93
751.31	244.70
751.64	244.50
751.97	244.34
752.29	244.08
752.62	243.83
752.95	243.61
753.28	243.42
753.60	243.23
753.93	243.07
754.26	242.87
754.59	242.61
754.91	242.34
755.24	242.09
755.57	241.90
755.90	241.74
756.22	241.52
756.55	241.34
756.88	241.13
757.20	240.88
757.53	240.62
757.86	240.43
758.19	240.24
758.51	240.06
758.84	239.84
759.17	239.69
759.49	239.53
759.82	239.38
760.15	239.18
760.47	239.00
760.80	238.80
761.13	238.69
761.45	238.53
761.78	238.39
762.11	238.26
762.43	238.12
762.76	237.92
763.08	237.82
763.41	237.69
763.74	237.56
764.06	237.40
764.39	237.29
764.71	237.13
765.04	236.98
765.37	236.81
765.69	236.66
766.02	236.54
766.34	236.38
766.67	236.23
767.00	236.15
767.32	236.09
767.65	236.04
767.97	235.96
768.30	235.86
768.62	235.74
768.95	235.64
769.27	235.53
769.60	235.45
769.92	235.33
770.25	235.22
770.57	235.08
770.90	234.99
771.22	234.91
771.55	234.86
771.87	234.79
772.20	234.72
772.52	234.76
772.85	234.77
773.17	234.70
773.50	234.60
773.82	234.50
774.15	234.38
774.47	234.24
774.80	234.10
775.12	234.04
775.45	234.00
775.77	233.91
776.09	233.83
776.42	233.77
776.74	233.73
777.07	233.65
777.39	233.63
777.72	233.56
778.04	233.48
778.36	233.40
778.69	233.34
779.01	233.34
779.33	233.14
779.66	232.97
779.98	232.93
780.31	232.88
780.63	232.87
780.95	232.81
781.28	232.77
781.60	232.74
781.92	232.67
782.25	232.58
782.57	232.51
782.89	232.46
783.22	232.38
783.54	232.31
783.86	232.28
784.19	232.22
784.51	232.18
784.83	232.13
785.16	232.10
785.48	232.06
785.80	231.95
786.12	231.93
786.45	231.90
786.77	231.85
787.09	231.79
787.42	231.69
787.74	231.67
788.06	231.60
788.38	231.53
788.71	231.50
789.03	231.54
789.35	231.55
789.67	231.50
789.99	231.44
790.32	231.39
790.64	231.35
790.96	231.38
791.28	231.33
791.61	231.29
791.93	231.21
792.25	231.15
792.57	231.19
792.89	231.12
793.21	231.05
793.54	231.01
793.86	230.95
794.18	230.91
794.50	230.85
794.82	230.81
795.14	230.78
795.47	230.75
795.79	230.64
796.11	230.53
796.43	230.47
796.75	230.45
797.07	230.41
797.39	230.35
797.71	230.21
798.04	230.16
798.36	230.10
798.68	230.08
799.00	230.06
799.32	229.99
799.64	229.97
799.96	229.96
800.28	229.90
800.60	229.89
800.92	229.83
801.24	229.77
801.56	229.75
801.89	229.70
802.21	229.67
802.53	229.62
802.85	229.65
803.17	229.66
803.49	229.60
803.81	229.53
804.13	229.46
804.45	229.45
804.77	229.44
805.09	229.41
805.41	229.33
805.73	229.27
806.05	229.19
806.37	229.17
806.69	229.13
807.01	229.12
807.33	229.05
807.65	229.01
807.97	229.03
808.28	228.99
808.60	228.96
808.92	228.91
809.24	228.96
809.56	228.93
809.88	228.86
810.20	228.83
810.52	228.82
810.84	228.79
811.16	228.74
811.48	228.69
811.80	228.68
812.12	228.69
812.43	228.70
812.75	228.70
813.07	228.64
813.39	228.61
813.71	228.57
814.03	228.58
814.35	228.53
814.67	228.49
814.98	228.46
815.30	228.42
815.62	228.41
815.94	228.32
816.26	228.31
816.58	228.28
816.89	228.29
817.21	228.28
817.53	228.27
817.85	228.25
818.17	228.25
818.48	228.22
818.80	228.23
819.12	228.17
819.44	228.13
819.76	228.12
820.07	228.12
820.39	228.09
820.71	228.10
821.03	228.15
821.34	228.12
821.66	228.13
821.98	228.15
822.30	228.14
822.61	228.19
822.93	228.16
823.25	228.18
823.57	228.20
823.88	228.20
824.20	228.20
824.52	228.25
824.83	228.22
825.15	228.21
825.47	228.18
825.79	228.20
826.10	228.22
826.42	228.20
826.74	228.22
827.05	228.24
827.37	228.22
827.69	228.21
828.00	228.22
828.32	228.21
828.64	228.20
828.95	228.24
829.27	228.19
829.58	228.18
829.90	228.19
830.22	228.17
830.53	228.16
830.85	228.15
831.17	228.12
831.48	228.14
831.80	228.15
832.11	228.15
832.43	228.14
832.75	228.13
833.06	228.17
833.38	228.13
833.69	228.08
834.01	228.09
834.32	228.05
834.64	228.05
834.96	228.02
835.27	228.01
835.59	227.99
835.90	227.92
836.22	227.92
836.53	227.88
836.85	227.85
837.16	227.92
837.48	227.93
837.79	227.95
838.11	227.96
838.42	227.94
838.74	227.94
839.05	227.92
839.37	227.91
839.68	227.88
840.00	227.91
840.31	227.90
840.63	227.86
840.94	227.86
841.26	227.85
841.57	227.84
841.88	227.83
842.20	227.79
842.51	227.80
842.83	227.78
843.14	227.87
843.46	227.86
843.77	227.81
844.08	227.79
844.40	227.74
844.71	227.71
845.03	227.68
845.34	227.67
845.65	227.64
845.97	227.62
846.28	227.59
846.60	227.55
846.91	227.54
847.22	227.52
847.54	227.54
847.85	227.52
848.16	227.53
848.48	227.50
848.79	227.52
849.10	227.57
849.42	227.57
849.73	227.42
850.04	227.39
850.36	227.36
850.67	227.35
850.98	227.32
851.30	227.35
851.61	227.34
851.92	227.32
852.23	227.39
852.55	227.38
852.86	227.35
853.17	227.37
853.49	227.42
853.80	227.44
854.11	227.40
854.42	227.41
854.74	227.41
855.05	227.41
855.36	227.38
855.67	227.33
855.99	227.31
856.30	227.45
856.61	227.46
856.92	227.43
857.23	227.41
857.55	227.40
857.86	227.34
858.17	227.36
858.48	227.34
858.79	227.29
859.11	227.31
859.42	227.31
859.73	227.28
860.04	227.26
860.35	227.20
860.66	227.20
860.98	227.19
861.29	227.18
861.60	227.18
861.91	227.19
862.22	227.18
862.53	227.17
862.84	227.11
863.16	227.14
863.47	227.11
863.78	227.13
864.09	227.17
864.40	227.21
864.71	227.19
865.02	227.20
865.33	227.16
865.64	227.14
865.95	227.17
866.27	227.22
866.58	227.22
866.89	227.25
867.20	227.26
867.51	227.26
867.82	227.23
868.13	227.29
868.44	227.29
868.75	227.31
869.06	227.33
869.37	227.28
869.68	227.25
869.99	227.29
870.30	227.30
870.61	227.29
870.92	227.28
871.23	227.27
871.54	227.30
871.85	227.36
872.16	227.36
872.47	227.35
872.78	227.31
873.09	227.33
873.40	227.30
873.71	227.30
874.02	227.31
874.33	227.35
874.64	227.30
874.95	227.30
875.26	227.26
875.56	227.26
875.87	227.29
876.18	227.31
876.49	227.40
876.80	227.37
877.11	227.35
877.42	227.35
877.73	227.36
878.04	227.32
878.35	227.29
878.66	227.31
878.96	227.29
879.27	227.26
879.58	227.24
879.89	227.23
880.20	227.26
880.51	227.22
880.82	227.20
881.12	227.20
881.43	227.14
881.74	227.11
882.05	227.07
882.36	227.05
882.67	227.02
882.97	226.91
883.28	226.89
883.59	226.87
883.90	226.85
884.21	226.85
884.51	226.87
884.82	226.87
885.13	226.85
885.44	226.86
885.74	226.88
886.05	226.86
886.36	226.86
886.67	226.78
886.98	226.86
887.28	226.85
887.59	226.85
887.90	226.84
888.20	226.86
888.51	226.88
888.82	226.87
889.13	226.88
889.43	226.97
889.74	226.99
890.05	226.99
890.35	226.99
890.66	226.96
890.97	226.96
891.28	226.96
891.58	226.97
891.89	226.98
892.20	226.94
892.50	226.93
892.81	226.94
893.12	227.02
893.42	226.97
893.73	226.98
894.04	226.99
894.34	227.05
894.65	227.05
894.95	227.06
895.26	227.07
895.57	227.13
895.87	227.05
896.18	227.05
896.48	227.07
896.79	227.07
897.10	227.08
897.40	227.05
897.71	227.05
898.01	227.08
898.32	227.08
898.63	227.12
898.93	227.13
899.24	227.16
899.54	227.12
899.85	227.11
900.15	227.11
900.46	227.07
900.76	227.05
901.07	227.07
901.38	227.03
901.68	227.02
901.99	226.97
902.29	226.95
902.60	226.94
902.90	226.92
903.21	226.92
903.51	226.92
903.82	226.93
904.12	226.92
904.43	226.89
904.73	226.90
905.03	226.87
905.34	226.93
905.64	226.91
905.95	226.90
906.25	226.89
906.56	226.89
906.86	226.89
907.17	226.87
907.47	226.88
907.77	226.86
908.08	226.86
908.38	226.85
908.69	226.85
908.99	226.87
909.30	226.90
909.60	226.92
909.90	226.93
910.21	226.90
910.51	226.89
910.81	226.88
911.12	226.85
911.42	226.82
911.73	226.73
912.03	226.72
912.33	226.75
912.64	226.73
912.94	226.72
913.24	226.73
913.55	226.73
913.85	226.68
914.15	226.73
914.46	226.75
914.76	226.75
915.06	226.77
915.37	226.76
915.67	226.73
915.97	226.69
916.27	226.66
916.58	226.68
916.88	226.66
917.18	226.66
917.49	226.75
917.79	226.78
918.09	226.80
918.39	226.83
918.70	226.83
919.00	226.82
919.30	226.86
919.60	226.86
919.91	226.85
920.21	226.86
920.51	226.82
920.81	226.79
921.12	226.81
921.42	226.79
921.72	226.77
922.02	226.75
922.32	226.79
922.63	226.83
922.93	226.88
923.23	226.91
923.53	226.91
923.83	226.86
924.13	226.90
924.44	226.91
924.74	226.89
925.04	226.89
925.34	226.89
925.64	226.85
925.94	226.86
926.24	226.93
926.55	226.96
926.85	226.97
927.15	227.01
927.45	227.02
927.75	227.00
928.05	227.02
928.35	227.04
928.65	227.05
928.95	227.04
929.26	227.00
929.56	226.99
929.86	227.01
930.16	226.99
930.46	226.98
930.76	226.99
931.06	226.98
931.36	226.98
931.66	227.01
931.96	227.05
932.26	227.03
932.56	226.97
932.86	226.97
933.16	226.99
933.46	226.97
933.76	226.93
934.06	227.01
934.36	227.03
934.66	227.02
934.96	227.03
935.26	227.01
935.56	227.02
935.86	227.04
936.16	227.02
936.46	227.00
936.76	226.98
937.06	226.99
937.36	227.01
937.66	226.99
937.96	226.95
938.26	226.91
938.56	226.89
938.86	226.93
939.16	226.95
939.46	226.94
939.76	226.93
940.06	226.94
940.35	226.91
940.65	226.86
940.95	226.87
941.25	226.82
941.55	226.81
941.85	226.80
942.15	226.79
942.45	226.82
942.75	226.84
943.04	226.84
943.34	226.87
943.64	226.84
943.94	226.84
944.24	226.86
944.54	226.87
944.84	226.85
945.13	226.84
945.43	226.79
945.73	226.79
946.03	226.79
946.33	226.79
946.62	226.79
946.92	226.81
947.22	226.83
947.52	226.84
947.82	226.87
948.11	226.88
948.41	226.86
948.71	226.87
949.01	226.90
949.31	226.86
949.60	226.82
949.90	226.83
950.20	226.83
950.50	226.84
950.79	226.86
951.09	226.89
951.39	226.87
951.69	226.89
951.98	226.90
952.28	226.92
952.58	226.89
952.87	226.88
953.17	226.87
953.47	226.85
953.76	226.84
954.06	226.82
954.36	226.80
954.66	226.79
954.95	226.76
955.25	226.74
955.55	226.78
955.84	226.75
956.14	226.75
956.44	226.77
956.73	226.74
957.03	226.75
957.32	226.73
957.62	226.75
957.92	226.75
958.21	226.73
958.51	226.79
958.81	226.79
959.10	226.80
959.40	226.82
959.69	226.81
959.99	226.83
960.29	226.82
960.58	226.81
960.88	226.87
961.17	226.84
961.47	226.86
961.76	226.81
962.06	226.87
962.36	226.84
962.65	226.83
962.95	226.83
963.24	226.80
963.54	226.83
963.83	226.82
964.13	226.81
964.42	226.81
964.72	226.76
965.01	226.76
965.31	226.74
965.60	226.73
965.90	226.80
966.19	226.80
966.49	226.83
966.78	226.85
967.08	226.84
967.37	226.88
967.67	226.87
967.96	226.91
968.26	226.85
968.55	226.90
968.85	226.91
969.14	226.90
969.43	226.89
969.73	226.86
970.02	226.88
970.32	226.87
970.61	226.86
970.91	226.85
971.20	226.86
971.49	226.89
971.79	226.90
972.08	226.82
972.38	226.82
972.67	226.78
972.96	226.77
973.26	226.74
973.55	226.76
973.85	226.75
974.14	226.75
974.43	226.80
974.73	226.78
975.02	226.76
975.31	226.76
975.61	226.74
975.90	226.73
976.19	226.67
976.49	226.65
976.78	226.67
977.07	226.67
977.37	226.66
977.66	226.62
977.95	226.58
978.24	226.59
978.54	226.60
978.83	226.61
979.12	226.59
979.42	226.60
979.71	226.56
980.00	226.54
980.29	226.55
980.59	226.52
980.88	226.51
981.17	226.52
981.46	226.54
981.76	226.55
982.05	226.60
982.34	226.65
982.63	226.69
982.93	226.68
983.22	226.71
983.51	226.71
983.80	226.74
984.09	226.77
984.39	226.78
984.68	226.75
984.97	226.77
985.26	226.77
985.55	226.78
985.85	226.77
986.14	226.81
986.43	226.79
986.72	226.77
987.01	226.76
987.30	226.76
987.59	226.75
987.89	226.78
988.18	226.74
988.47	226.73
988.76	226.72
989.05	226.70
989.34	226.63
989.63	226.63
989.92	226.62
990.22	226.63
990.51	226.58
990.80	226.57
991.09	226.53
991.38	226.55
991.67	226.50
991.96	226.50
992.25	226.49
992.54	226.49
992.83	226.51
993.12	226.49
993.41	226.54
993.70	226.55
993.99	226.50
994.28	226.52
994.58	226.54
994.87	226.51
995.16	226.52
995.45	226.51
995.74	226.50
996.03	226.52
996.32	226.53
996.61	226.53
996.90	226.54
997.19	226.56
997.48	226.57
997.77	226.60
998.06	226.60
998.34	226.56
998.63	226.54
998.92	226.54
999.21	226.58
999.50	226.55
999.79	226.51
1000.08	226.55
1000.37	226.52
1000.66	226.51
1000.95	226.56
1001.24	226.56
1001.53	226.59
1001.82	226.59
1002.11	226.55
1002.40	226.52
1002.68	226.57
1002.97	226.63
1003.26	226.63
1003.55	226.59
1003.84	226.60
1004.13	226.61
1004.42	226.62
1004.71	226.64
1004.99	226.61
1005.28	226.60
1005.57	226.58
1005.86	226.55
1006.15	226.52
1006.44	226.51
1006.72	226.50
1007.01	226.47
1007.30	226.46
1007.59	226.44
1007.88	226.45
1008.17	226.46
1008.45	226.46
1008.74	226.41
1009.03	226.36
1009.32	226.35
1009.60	226.35
1009.89	226.34
1010.18	226.32
1010.47	226.32
1010.76	226.29
1011.04	226.33
1011.33	226.35
1011.62	226.34
1011.91	226.40
1012.19	226.41
1012.48	226.40
1012.77	226.40
1013.05	226.44
1013.34	226.46
1013.63	226.49
1013.92	226.50
1014.20	226.49
1014.49	226.50
1014.78	226.50
1015.06	226.49
1015.35	226.48
1015.64	226.52
1015.92	226.55
1016.21	226.55
1016.50	226.56
1016.78	226.59
1017.07	226.55
1017.36	226.50
1017.64	226.53
1017.93	226.52
1018.22	226.50
1018.50	226.52
1018.79	226.54
1019.08	226.53
1019.36	226.54
1019.65	226.51
1019.93	226.54
1020.22	226.56
1020.51	226.62
1020.79	226.62
1021.08	225.97
1021.36	226.30
1021.65	226.71
1021.94	226.86
1022.22	226.70
1022.51	226.46
1022.79	227.34
1023.08	226.50
1023.36	228.01
1023.65	226.39
>>>>>End Processed Spectral Data<<<<<
