SpectraSuite Data File
++++++++++++++++++++++++++++++++++++
Date: Fri Feb 01 16:20:19 EST 2013
User: group
Dark Spectrum Present: No
Reference Spectrum Present: No
Number of Sampled Component Spectra: 1
Spectrometers: USB2E7196
Integration Time (usec): 35000 (USB2E7196)
Spectra Averaged: 100 (USB2E7196)
Boxcar Smoothing: 10 (USB2E7196)
Correct for Electrical Dark: No (USB2E7196)
Strobe/Lamp Enabled: No (USB2E7196)
Correct for Detector Non-linearity: No (USB2E7196)
Correct for Stray Light: No (USB2E7196)
Number of Pixels in Processed Spectrum: 2048
>>>>>Begin Processed Spectral Data<<<<<
339.09	0.00
339.48	214.47
339.86	215.12
340.24	216.75
340.63	218.64
341.01	220.81
341.39	221.03
341.78	221.50
342.16	223.94
342.54	223.95
342.93	212.48
343.31	223.26
343.69	223.79
344.07	224.25
344.46	224.71
344.84	225.08
345.22	225.32
345.60	225.58
345.99	225.82
346.37	225.92
346.75	226.02
347.13	226.08
347.52	226.16
347.90	226.23
348.28	226.24
348.66	226.31
349.05	226.27
349.43	226.35
349.81	226.44
350.19	226.50
350.57	226.55
350.96	226.59
351.34	226.63
351.72	226.69
352.10	226.82
352.48	226.86
352.87	226.92
353.25	226.99
353.63	227.05
354.01	227.10
354.39	227.19
354.77	227.27
355.15	227.36
355.54	227.41
355.92	227.45
356.30	227.54
356.68	227.66
357.06	227.74
357.44	227.75
357.82	227.78
358.20	227.83
358.58	227.89
358.97	227.94
359.35	228.04
359.73	228.14
360.11	228.16
360.49	228.21
360.87	228.26
361.25	228.32
361.63	228.38
362.01	228.41
362.39	228.44
362.77	228.54
363.15	228.55
363.53	228.57
363.91	228.57
364.29	228.56
364.67	228.49
365.05	228.52
365.43	228.57
365.81	228.60
366.19	228.62
366.57	228.65
366.95	228.65
367.33	228.61
367.71	228.56
368.09	228.63
368.47	228.62
368.85	228.61
369.23	228.63
369.61	228.58
369.99	228.60
370.37	228.58
370.75	228.55
371.13	228.48
371.51	228.43
371.89	228.42
372.27	228.37
372.65	228.35
373.03	228.27
373.41	228.23
373.78	228.17
374.16	228.11
374.54	228.04
374.92	227.97
375.30	227.91
375.68	227.85
376.06	227.72
376.44	227.65
376.82	227.59
377.19	227.49
377.57	227.45
377.95	227.33
378.33	227.27
378.71	227.14
379.09	227.11
379.47	227.07
379.84	226.98
380.22	226.89
380.60	226.81
380.98	226.75
381.36	226.64
381.73	226.60
382.11	226.53
382.49	226.47
382.87	226.45
383.25	226.35
383.62	226.41
384.00	226.37
384.38	226.30
384.76	226.25
385.13	226.25
385.51	226.16
385.89	226.09
386.27	226.04
386.64	226.03
387.02	225.95
387.40	225.91
387.78	225.89
388.15	225.90
388.53	225.83
388.91	225.85
389.29	225.82
389.66	225.78
390.04	225.74
390.42	225.72
390.79	225.68
391.17	225.69
391.55	225.59
391.92	225.55
392.30	225.59
392.68	225.59
393.05	225.57
393.43	225.58
393.81	225.59
394.18	225.57
394.56	225.57
394.94	225.63
395.31	225.61
395.69	225.68
396.06	225.68
396.44	225.73
396.82	225.71
397.19	225.84
397.57	225.89
397.95	225.96
398.32	225.99
398.70	226.05
399.07	226.14
399.45	226.17
399.82	226.25
400.20	226.29
400.58	226.32
400.95	226.39
401.33	226.50
401.70	226.67
402.08	226.76
402.45	226.84
402.83	226.96
403.20	227.09
403.58	227.16
403.95	227.29
404.33	227.44
404.71	227.58
405.08	227.70
405.46	227.86
405.83	228.01
406.21	228.13
406.58	228.30
406.96	228.44
407.33	228.65
407.70	228.86
408.08	229.13
408.45	229.37
408.83	229.59
409.20	229.80
409.58	230.00
409.95	230.28
410.33	230.60
410.70	230.83
411.08	231.11
411.45	231.39
411.82	231.71
412.20	232.04
412.57	232.47
412.95	232.76
413.32	233.15
413.69	233.54
414.07	234.02
414.44	234.46
414.82	234.93
415.19	235.45
415.56	236.00
415.94	236.49
416.31	237.12
416.68	237.73
417.06	238.44
417.43	239.07
417.81	239.82
418.18	240.56
418.55	241.40
418.93	242.30
419.30	243.20
419.67	244.15
420.04	245.12
420.42	246.09
420.79	247.27
421.16	248.41
421.54	249.57
421.91	250.76
422.28	252.03
422.66	253.38
423.03	254.68
423.40	255.99
423.77	257.44
424.15	258.88
424.52	260.38
424.89	261.99
425.26	263.55
425.64	264.99
426.01	266.59
426.38	268.23
426.75	269.87
427.13	271.59
427.50	273.36
427.87	275.23
428.24	277.07
428.61	278.78
428.99	280.75
429.36	282.88
429.73	284.89
430.10	286.88
430.47	288.93
430.85	291.05
431.22	293.32
431.59	295.63
431.96	297.85
432.33	300.31
432.70	302.65
433.08	305.44
433.45	308.07
433.82	310.68
434.19	313.59
434.56	316.39
434.93	319.04
435.30	321.66
435.68	324.53
436.05	327.37
436.42	330.19
436.79	332.66
437.16	335.32
437.53	338.18
437.90	341.01
438.27	343.78
438.64	346.61
439.01	349.14
439.38	351.39
439.75	353.56
440.13	356.03
440.50	358.33
440.87	360.21
441.24	362.19
441.61	364.31
441.98	365.78
442.35	367.57
442.72	369.39
443.09	371.19
443.46	372.15
443.83	372.80
444.20	373.31
444.57	374.15
444.94	374.41
445.31	374.75
445.68	375.11
446.05	375.14
446.42	374.73
446.79	374.31
447.16	373.86
447.53	373.52
447.90	372.36
448.27	371.24
448.64	369.66
449.01	368.51
449.37	366.55
449.74	364.65
450.11	362.39
450.48	359.91
450.85	357.39
451.22	355.30
451.59	353.23
451.96	351.27
452.33	348.67
452.70	346.33
453.07	343.50
453.43	340.62
453.80	337.90
454.17	335.27
454.54	332.77
454.91	330.07
455.28	327.38
455.65	324.95
456.02	322.52
456.38	320.37
456.75	317.72
457.12	315.46
457.49	313.25
457.86	311.10
458.23	309.29
458.59	307.27
458.96	305.17
459.33	303.32
459.70	301.45
460.07	299.94
460.43	298.23
460.80	296.67
461.17	295.19
461.54	293.71
461.91	292.27
462.27	290.79
462.64	289.55
463.01	288.26
463.38	286.95
463.74	285.60
464.11	284.46
464.48	283.43
464.85	282.34
465.21	281.46
465.58	280.61
465.95	279.50
466.32	278.60
466.68	277.73
467.05	276.84
467.42	275.97
467.78	275.07
468.15	274.22
468.52	273.55
468.88	272.75
469.25	271.97
469.62	271.36
469.98	270.71
470.35	270.09
470.72	269.48
471.08	268.83
471.45	268.29
471.82	267.75
472.18	267.18
472.55	266.78
472.92	266.28
473.28	265.79
473.65	265.37
474.02	264.93
474.38	264.55
474.75	264.22
475.11	263.89
475.48	263.61
475.85	263.38
476.21	263.14
476.58	262.97
476.94	262.84
477.31	262.66
477.67	262.53
478.04	262.46
478.41	262.42
478.77	262.51
479.14	262.43
479.50	262.41
479.87	262.49
480.23	262.54
480.60	262.58
480.96	262.69
481.33	262.90
481.69	263.12
482.06	263.37
482.42	263.57
482.79	263.84
483.15	264.20
483.52	264.61
483.88	264.95
484.25	265.36
484.61	265.78
484.98	266.25
485.34	266.84
485.71	267.41
486.07	268.04
486.44	268.54
486.80	269.25
487.17	269.97
487.53	270.79
487.90	271.67
488.26	272.66
488.62	273.65
488.99	274.64
489.35	275.70
489.72	276.78
490.08	278.02
490.44	279.28
490.81	280.58
491.17	281.89
491.54	283.37
491.90	284.87
492.26	286.53
492.63	288.27
492.99	290.03
493.36	291.89
493.72	293.91
494.08	296.06
494.45	298.30
494.81	300.64
495.17	303.05
495.54	305.63
495.90	308.29
496.26	311.08
496.63	314.00
496.99	317.10
497.35	320.37
497.72	323.77
498.08	327.29
498.44	331.01
498.80	334.99
499.17	339.07
499.53	343.28
499.89	347.64
500.26	352.12
500.62	356.79
500.98	361.79
501.34	366.92
501.71	372.26
502.07	377.69
502.43	383.36
502.79	389.23
503.16	395.23
503.52	401.54
503.88	407.94
504.24	414.59
504.60	421.50
504.97	428.62
505.33	435.99
505.69	443.69
506.05	451.45
506.41	459.30
506.78	467.45
507.14	475.91
507.50	484.64
507.86	493.72
508.22	502.95
508.59	512.16
508.95	521.74
509.31	531.51
509.67	541.66
510.03	552.01
510.39	562.60
510.75	573.48
511.12	584.42
511.48	595.79
511.84	607.30
512.20	618.77
512.56	630.79
512.92	642.88
513.28	655.22
513.64	667.66
514.00	680.36
514.37	693.24
514.73	706.27
515.09	719.28
515.45	732.57
515.81	746.14
516.17	760.12
516.53	774.20
516.89	788.37
517.25	802.49
517.61	816.86
517.97	831.27
518.33	845.70
518.69	860.45
519.05	875.39
519.41	890.49
519.77	906.05
520.13	921.44
520.49	936.85
520.85	952.19
521.21	967.85
521.57	984.01
521.93	999.75
522.29	1016.05
522.65	1032.30
523.01	1048.41
523.37	1064.37
523.73	1080.50
524.09	1096.60
524.45	1112.87
524.81	1129.53
525.17	1146.23
525.53	1163.06
525.89	1179.80
526.25	1196.60
526.61	1212.96
526.97	1229.61
527.33	1246.08
527.68	1262.61
528.04	1279.02
528.40	1295.61
528.76	1312.67
529.12	1329.24
529.48	1346.09
529.84	1362.11
530.20	1378.65
530.56	1395.65
530.91	1412.96
531.27	1429.66
531.63	1446.05
531.99	1462.58
532.35	1478.45
532.71	1494.29
533.07	1510.55
533.42	1526.47
533.78	1542.41
534.14	1558.69
534.50	1574.08
534.86	1589.87
535.21	1604.95
535.57	1620.72
535.93	1636.13
536.29	1650.89
536.65	1665.83
537.00	1680.54
537.36	1695.71
537.72	1710.26
538.08	1724.57
538.44	1738.28
538.79	1752.07
539.15	1765.62
539.51	1779.33
539.87	1793.66
540.22	1807.43
540.58	1821.12
540.94	1834.25
541.29	1847.05
541.65	1859.47
542.01	1872.59
542.37	1884.76
542.72	1897.14
543.08	1908.91
543.44	1921.34
543.79	1932.45
544.15	1943.35
544.51	1954.87
544.87	1965.82
545.22	1976.40
545.58	1986.61
545.94	1996.40
546.29	2006.18
546.65	2016.01
547.01	2025.08
547.36	2033.73
547.72	2042.02
548.07	2049.77
548.43	2057.88
548.79	2065.82
549.14	2073.49
549.50	2080.68
549.86	2088.35
550.21	2095.78
550.57	2102.94
550.92	2109.50
551.28	2116.35
551.64	2123.43
551.99	2129.86
552.35	2135.93
552.70	2142.11
553.06	2148.12
553.41	2154.40
553.77	2160.37
554.13	2166.41
554.48	2172.62
554.84	2178.02
555.19	2183.37
555.55	2188.51
555.90	2193.10
556.26	2197.94
556.61	2202.51
556.97	2206.94
557.32	2210.94
557.68	2214.92
558.03	2219.19
558.39	2222.75
558.74	2227.57
559.10	2231.53
559.45	2235.15
559.81	2239.49
560.16	2243.37
560.52	2246.58
560.87	2250.03
561.23	2252.85
561.58	2255.72
561.94	2258.18
562.29	2260.71
562.64	2263.36
563.00	2266.02
563.35	2269.55
563.71	2272.71
564.06	2275.98
564.42	2278.85
564.77	2281.45
565.12	2283.74
565.48	2285.65
565.83	2287.51
566.19	2288.82
566.54	2289.67
566.89	2290.87
567.25	2291.62
567.60	2292.89
567.96	2294.56
568.31	2295.38
568.66	2296.47
569.02	2297.07
569.37	2297.48
569.72	2298.21
570.08	2298.43
570.43	2298.57
570.78	2298.08
571.14	2296.66
571.49	2295.28
571.84	2294.99
572.20	2294.00
572.55	2293.00
572.90	2291.55
573.26	2290.38
573.61	2288.69
573.96	2287.08
574.31	2284.18
574.67	2281.10
575.02	2277.61
575.37	2274.15
575.72	2270.41
576.08	2267.09
576.43	2263.95
576.78	2260.23
577.13	2257.01
577.49	2253.97
577.84	2250.37
578.19	2246.62
578.54	2243.04
578.90	2238.92
579.25	2233.32
579.60	2228.37
579.95	2223.48
580.30	2218.67
580.66	2213.33
581.01	2208.46
581.36	2203.48
581.71	2199.36
582.06	2194.98
582.42	2190.43
582.77	2185.35
583.12	2180.96
583.47	2176.37
583.82	2171.42
584.17	2166.31
584.53	2160.88
584.88	2155.19
585.23	2149.49
585.58	2144.11
585.93	2138.73
586.28	2134.02
586.63	2129.13
586.98	2124.05
587.34	2119.37
587.69	2114.30
588.04	2109.17
588.39	2103.58
588.74	2097.27
589.09	2091.11
589.44	2084.32
589.79	2078.47
590.14	2072.95
590.49	2066.15
590.84	2059.73
591.19	2053.56
591.54	2047.15
591.89	2039.89
592.25	2033.14
592.60	2026.03
592.95	2018.53
593.30	2011.17
593.65	2003.58
594.00	1996.44
594.35	1989.26
594.70	1981.21
595.05	1974.09
595.40	1966.95
595.75	1959.53
596.10	1953.28
596.45	1946.68
596.80	1940.68
597.15	1934.03
597.50	1926.99
597.85	1920.71
598.19	1914.13
598.54	1907.21
598.89	1900.63
599.24	1894.80
599.59	1888.09
599.94	1881.87
600.29	1875.48
600.64	1868.89
600.99	1861.57
601.34	1854.79
601.69	1847.97
602.04	1841.23
602.39	1833.93
602.74	1827.07
603.08	1820.21
603.43	1813.48
603.78	1806.23
604.13	1798.98
604.48	1791.81
604.83	1784.94
605.18	1777.96
605.53	1770.04
605.87	1762.03
606.22	1754.83
606.57	1746.98
606.92	1739.86
607.27	1732.68
607.62	1725.82
607.96	1718.58
608.31	1711.90
608.66	1704.37
609.01	1696.79
609.36	1689.04
609.70	1681.04
610.05	1673.06
610.40	1665.49
610.75	1657.20
611.10	1649.51
611.44	1641.05
611.79	1632.92
612.14	1624.24
612.49	1615.12
612.83	1606.67
613.18	1598.62
613.53	1590.45
613.88	1581.77
614.22	1573.41
614.57	1564.83
614.92	1556.79
615.27	1549.27
615.61	1540.89
615.96	1532.78
616.31	1525.04
616.65	1517.78
617.00	1510.15
617.35	1502.28
617.70	1493.82
618.04	1485.24
618.39	1476.98
618.74	1469.39
619.08	1461.15
619.43	1453.52
619.78	1446.59
620.12	1439.48
620.47	1431.87
620.82	1423.67
621.16	1416.27
621.51	1408.74
621.85	1401.12
622.20	1392.52
622.55	1384.09
622.89	1376.38
623.24	1368.73
623.59	1361.33
623.93	1353.80
624.28	1346.57
624.62	1339.16
624.97	1332.07
625.32	1325.37
625.66	1318.36
626.01	1311.23
626.35	1303.76
626.70	1296.06
627.04	1288.31
627.39	1280.46
627.73	1273.03
628.08	1266.15
628.43	1258.93
628.77	1251.46
629.12	1243.95
629.46	1236.77
629.81	1229.34
630.15	1222.03
630.50	1214.71
630.84	1206.63
631.19	1198.68
631.53	1191.15
631.88	1183.57
632.22	1175.92
632.57	1168.55
632.91	1160.96
633.26	1153.45
633.60	1146.05
633.95	1138.95
634.29	1132.02
634.64	1125.33
634.98	1118.03
635.32	1110.87
635.67	1104.25
636.01	1097.56
636.36	1090.57
636.70	1084.08
637.05	1077.51
637.39	1071.05
637.73	1064.39
638.08	1058.38
638.42	1052.41
638.77	1045.98
639.11	1039.45
639.45	1033.10
639.80	1026.45
640.14	1020.04
640.49	1013.57
640.83	1007.24
641.17	1001.01
641.52	994.56
641.86	988.11
642.20	982.17
642.55	975.90
642.89	969.39
643.23	962.92
643.58	957.31
643.92	951.12
644.26	945.06
644.61	939.05
644.95	933.15
645.29	926.58
645.64	919.79
645.98	913.48
646.32	907.54
646.66	901.44
647.01	895.65
647.35	889.96
647.69	884.12
648.04	878.59
648.38	872.68
648.72	866.72
649.06	860.68
649.41	854.75
649.75	848.78
650.09	842.74
650.43	836.90
650.78	830.67
651.12	824.69
651.46	819.00
651.80	813.25
652.14	807.90
652.49	802.53
652.83	797.38
653.17	791.61
653.51	785.93
653.85	780.57
654.20	774.95
654.54	768.93
654.88	763.11
655.22	757.19
655.56	751.58
655.90	746.13
656.25	740.81
656.59	735.48
656.93	730.42
657.27	725.36
657.61	719.89
657.95	714.76
658.29	709.69
658.64	704.45
658.98	699.07
659.32	693.54
659.66	688.37
660.00	683.11
660.34	678.27
660.68	673.38
661.02	668.32
661.36	663.59
661.70	659.09
662.05	654.75
662.39	650.45
662.73	645.97
663.07	641.56
663.41	637.14
663.75	632.64
664.09	628.02
664.43	623.61
664.77	619.53
665.11	615.34
665.45	611.19
665.79	607.07
666.13	603.01
666.47	598.88
666.81	594.64
667.15	590.45
667.49	586.49
667.83	582.62
668.17	578.71
668.51	574.68
668.85	570.63
669.19	566.80
669.53	562.96
669.87	559.09
670.21	555.44
670.55	551.84
670.89	548.43
671.23	545.00
671.57	541.43
671.91	537.87
672.25	534.30
672.58	530.78
672.92	527.33
673.26	524.11
673.60	520.91
673.94	517.80
674.28	514.91
674.62	511.96
674.96	508.82
675.30	505.93
675.64	502.99
675.97	500.22
676.31	497.29
676.65	494.38
676.99	491.63
677.33	488.74
677.67	485.87
678.01	482.81
678.34	479.79
678.68	477.00
679.02	474.19
679.36	471.51
679.70	468.77
680.04	466.00
680.37	463.10
680.71	460.36
681.05	457.75
681.39	454.99
681.73	452.35
682.06	449.92
682.40	447.32
682.74	444.76
683.08	442.20
683.42	439.65
683.75	437.10
684.09	434.54
684.43	432.06
684.77	429.60
685.10	427.29
685.44	425.00
685.78	422.70
686.12	420.44
686.45	418.09
686.79	415.82
687.13	413.66
687.46	411.54
687.80	409.38
688.14	407.20
688.48	405.14
688.81	402.81
689.15	400.57
689.49	398.41
689.82	396.37
690.16	394.30
690.50	392.34
690.83	390.41
691.17	388.43
691.51	386.47
691.84	384.64
692.18	382.62
692.52	380.61
692.85	378.65
693.19	376.75
693.52	374.94
693.86	373.10
694.20	371.31
694.53	369.49
694.87	367.62
695.21	365.79
695.54	363.98
695.88	362.27
696.21	360.57
696.55	358.92
696.88	357.17
697.22	355.49
697.56	353.86
697.89	352.16
698.23	350.56
698.56	348.96
698.90	347.36
699.23	345.77
699.57	344.23
699.90	342.69
700.24	341.12
700.58	339.57
700.91	338.08
701.25	336.65
701.58	335.23
701.92	333.86
702.25	332.47
702.59	331.11
702.92	329.76
703.26	328.45
703.59	327.15
703.93	325.95
704.26	324.73
704.60	323.43
704.93	322.18
705.26	320.94
705.60	319.75
705.93	318.56
706.27	317.52
706.60	316.45
706.94	315.36
707.27	314.21
707.61	313.12
707.94	312.07
708.27	310.94
708.61	309.87
708.94	308.86
709.28	307.89
709.61	306.93
709.94	306.02
710.28	304.98
710.61	304.02
710.95	302.97
711.28	302.01
711.61	301.07
711.95	300.16
712.28	299.19
712.61	298.22
712.95	297.28
713.28	296.40
713.61	295.52
713.95	294.66
714.28	293.86
714.61	293.03
714.95	292.19
715.28	291.36
715.61	290.50
715.95	289.65
716.28	288.78
716.61	287.96
716.95	287.12
717.28	286.39
717.61	285.63
717.94	284.89
718.28	284.09
718.61	283.36
718.94	282.69
719.27	282.09
719.61	281.48
719.94	280.85
720.27	280.12
720.60	279.51
720.94	278.87
721.27	278.28
721.60	277.68
721.93	277.12
722.27	276.56
722.60	276.04
722.93	275.48
723.26	274.97
723.59	274.36
723.93	273.85
724.26	273.31
724.59	272.75
724.92	272.22
725.25	271.80
725.59	271.28
725.92	270.80
726.25	270.30
726.58	269.78
726.91	269.28
727.24	268.83
727.57	268.33
727.91	267.84
728.24	267.37
728.57	266.90
728.90	266.38
729.23	265.91
729.56	265.44
729.89	264.99
730.22	264.53
730.55	264.11
730.89	263.68
731.22	263.21
731.55	262.76
731.88	262.33
732.21	261.87
732.54	261.41
732.87	260.94
733.20	260.51
733.53	260.11
733.86	259.75
734.19	259.32
734.52	258.93
734.85	258.62
735.18	258.16
735.51	257.83
735.84	257.48
736.17	257.13
736.50	256.73
736.83	256.49
737.16	256.16
737.49	255.84
737.82	255.47
738.15	255.14
738.48	254.82
738.81	254.49
739.14	254.15
739.47	253.87
739.80	253.54
740.13	253.23
740.46	252.88
740.79	252.52
741.12	252.18
741.45	251.87
741.78	251.49
742.11	251.23
742.44	250.85
742.77	250.55
743.10	250.24
743.43	249.94
743.75	249.53
744.08	249.36
744.41	249.05
744.74	248.79
745.07	248.47
745.40	248.22
745.73	247.95
746.06	247.68
746.39	247.38
746.71	247.15
747.04	246.84
747.37	246.60
747.70	246.38
748.03	246.16
748.36	245.93
748.68	245.72
749.01	245.48
749.34	245.28
749.67	245.04
750.00	244.79
750.33	244.64
750.65	244.45
750.98	244.09
751.31	243.89
751.64	243.67
751.97	243.53
752.29	243.30
752.62	243.08
752.95	242.88
753.28	242.69
753.60	242.48
753.93	242.34
754.26	242.15
754.59	241.90
754.91	241.72
755.24	241.51
755.57	241.30
755.90	241.13
756.22	240.95
756.55	240.76
756.88	240.56
757.20	240.32
757.53	240.12
757.86	239.94
758.19	239.77
758.51	239.61
758.84	239.40
759.17	239.21
759.49	239.09
759.82	238.96
760.15	238.82
760.47	238.64
760.80	238.47
761.13	238.29
761.45	238.13
761.78	237.97
762.11	237.84
762.43	237.72
762.76	237.57
763.08	237.44
763.41	237.34
763.74	237.24
764.06	237.09
764.39	236.93
764.71	236.77
765.04	236.64
765.37	236.50
765.69	236.37
766.02	236.28
766.34	236.13
766.67	235.96
767.00	235.87
767.32	235.82
767.65	235.75
767.97	235.68
768.30	235.59
768.62	235.49
768.95	235.37
769.27	235.24
769.60	235.12
769.92	234.97
770.25	234.82
770.57	234.71
770.90	234.65
771.22	234.57
771.55	234.51
771.87	234.43
772.20	234.32
772.52	234.28
772.85	234.31
773.17	234.23
773.50	234.15
773.82	234.03
774.15	233.84
774.47	233.72
774.80	233.62
775.12	233.51
775.45	233.45
775.77	233.37
776.09	233.31
776.42	233.27
776.74	233.20
777.07	233.16
777.39	233.07
777.72	232.94
778.04	232.87
778.36	232.80
778.69	232.76
779.01	232.67
779.33	232.55
779.66	232.36
779.98	232.28
780.31	232.21
780.63	232.19
780.95	232.19
781.28	232.10
781.60	232.03
781.92	231.96
782.25	231.87
782.57	231.82
782.89	231.74
783.22	231.64
783.54	231.55
783.86	231.49
784.19	231.46
784.51	231.48
784.83	231.44
785.16	231.37
785.48	231.29
785.80	231.26
786.12	231.21
786.45	231.16
786.77	231.12
787.09	231.09
787.42	231.01
787.74	230.94
788.06	230.88
788.38	230.83
788.71	230.79
789.03	230.77
789.35	230.74
789.67	230.70
789.99	230.70
790.32	230.69
790.64	230.65
790.96	230.67
791.28	230.56
791.61	230.50
791.93	230.45
792.25	230.40
792.57	230.43
792.89	230.37
793.21	230.35
793.54	230.31
793.86	230.25
794.18	230.20
794.50	230.17
794.82	230.14
795.14	230.10
795.47	230.08
795.79	230.05
796.11	229.97
796.43	229.92
796.75	229.88
797.07	229.85
797.39	229.83
797.71	229.73
798.04	229.72
798.36	229.71
798.68	229.71
799.00	229.70
799.32	229.61
799.64	229.61
799.96	229.55
800.28	229.52
800.60	229.51
800.92	229.48
801.24	229.45
801.56	229.44
801.89	229.44
802.21	229.44
802.53	229.39
802.85	229.42
803.17	229.47
803.49	229.40
803.81	229.37
804.13	229.29
804.45	229.27
804.77	229.24
805.09	229.17
805.41	229.11
805.73	229.07
806.05	229.03
806.37	229.04
806.69	229.06
807.01	229.04
807.33	229.02
807.65	228.98
807.97	229.00
808.28	228.97
808.60	228.95
808.92	228.90
809.24	228.92
809.56	228.87
809.88	228.80
810.20	228.80
810.52	228.81
810.84	228.78
811.16	228.71
811.48	228.67
811.80	228.70
812.12	228.68
812.43	228.65
812.75	228.63
813.07	228.57
813.39	228.50
813.71	228.46
814.03	228.39
814.35	228.37
814.67	228.31
814.98	228.29
815.30	228.22
815.62	228.18
815.94	228.10
816.26	228.15
816.58	228.07
816.89	228.06
817.21	227.99
817.53	227.97
817.85	227.96
818.17	227.97
818.48	227.90
818.80	227.89
819.12	227.83
819.44	227.79
819.76	227.74
820.07	227.74
820.39	227.75
820.71	227.74
821.03	227.71
821.34	227.69
821.66	227.68
821.98	227.69
822.30	227.65
822.61	227.68
822.93	227.58
823.25	227.57
823.57	227.58
823.88	227.57
824.20	227.58
824.52	227.57
824.83	227.50
825.15	227.48
825.47	227.47
825.79	227.50
826.10	227.49
826.42	227.50
826.74	227.48
827.05	227.46
827.37	227.46
827.69	227.43
828.00	227.43
828.32	227.39
828.64	227.37
828.95	227.41
829.27	227.39
829.58	227.37
829.90	227.39
830.22	227.36
830.53	227.34
830.85	227.30
831.17	227.28
831.48	227.30
831.80	227.34
832.11	227.35
832.43	227.32
832.75	227.30
833.06	227.35
833.38	227.34
833.69	227.31
834.01	227.30
834.32	227.29
834.64	227.27
834.96	227.26
835.27	227.29
835.59	227.24
835.90	227.20
836.22	227.22
836.53	227.20
836.85	227.16
837.16	227.25
837.48	227.29
837.79	227.32
838.11	227.34
838.42	227.32
838.74	227.32
839.05	227.31
839.37	227.29
839.68	227.21
840.00	227.17
840.31	227.19
840.63	227.18
840.94	227.16
841.26	227.16
841.57	227.17
841.88	227.13
842.20	227.15
842.51	227.17
842.83	227.16
843.14	227.25
843.46	227.24
843.77	227.19
844.08	227.16
844.40	227.11
844.71	227.10
845.03	227.08
845.34	227.05
845.65	227.03
845.97	227.05
846.28	227.05
846.60	227.10
846.91	227.07
847.22	227.06
847.54	227.09
847.85	227.04
848.16	227.00
848.48	226.99
848.79	227.01
849.10	226.98
849.42	226.97
849.73	226.87
850.04	226.89
850.36	226.83
850.67	226.85
850.98	226.86
851.30	226.85
851.61	226.85
851.92	226.84
852.23	226.90
852.55	226.91
852.86	226.92
853.17	226.88
853.49	226.92
853.80	226.95
854.11	226.96
854.42	226.99
854.74	227.01
855.05	227.00
855.36	226.91
855.67	226.92
855.99	226.91
856.30	227.04
856.61	227.01
856.92	227.01
857.23	226.98
857.55	226.98
857.86	226.94
858.17	226.92
858.48	226.91
858.79	226.87
859.11	226.89
859.42	226.86
859.73	226.84
860.04	226.81
860.35	226.76
860.66	226.75
860.98	226.75
861.29	226.73
861.60	226.71
861.91	226.75
862.22	226.72
862.53	226.69
862.84	226.55
863.16	226.58
863.47	226.57
863.78	226.58
864.09	226.56
864.40	226.56
864.71	226.58
865.02	226.60
865.33	226.55
865.64	226.49
865.95	226.50
866.27	226.57
866.58	226.53
866.89	226.54
867.20	226.53
867.51	226.50
867.82	226.52
868.13	226.54
868.44	226.51
868.75	226.58
869.06	226.57
869.37	226.59
869.68	226.54
869.99	226.55
870.30	226.52
870.61	226.56
870.92	226.54
871.23	226.52
871.54	226.53
871.85	226.60
872.16	226.62
872.47	226.61
872.78	226.58
873.09	226.62
873.40	226.60
873.71	226.58
874.02	226.58
874.33	226.56
874.64	226.55
874.95	226.60
875.26	226.54
875.56	226.54
875.87	226.54
876.18	226.56
876.49	226.65
876.80	226.64
877.11	226.61
877.42	226.61
877.73	226.60
878.04	226.58
878.35	226.55
878.66	226.54
878.96	226.53
879.27	226.48
879.58	226.46
879.89	226.46
880.20	226.50
880.51	226.52
880.82	226.51
881.12	226.54
881.43	226.51
881.74	226.49
882.05	226.48
882.36	226.47
882.67	226.48
882.97	226.40
883.28	226.36
883.59	226.35
883.90	226.40
884.21	226.42
884.51	226.37
884.82	226.37
885.13	226.36
885.44	226.34
885.74	226.36
886.05	226.31
886.36	226.31
886.67	226.27
886.98	226.30
887.28	226.27
887.59	226.24
887.90	226.20
888.20	226.24
888.51	226.26
888.82	226.26
889.13	226.23
889.43	226.30
889.74	226.32
890.05	226.28
890.35	226.23
890.66	226.23
890.97	226.23
891.28	226.22
891.58	226.24
891.89	226.28
892.20	226.28
892.50	226.28
892.81	226.27
893.12	226.27
893.42	226.21
893.73	226.25
894.04	226.23
894.34	226.26
894.65	226.22
894.95	226.24
895.26	226.20
895.57	226.27
895.87	226.15
896.18	226.15
896.48	226.18
896.79	226.20
897.10	226.19
897.40	226.18
897.71	226.19
898.01	226.17
898.32	226.15
898.63	226.16
898.93	226.17
899.24	226.20
899.54	226.18
899.85	226.20
900.15	226.19
900.46	226.23
900.76	226.26
901.07	226.24
901.38	226.23
901.68	226.24
901.99	226.19
902.29	226.18
902.60	226.19
902.90	226.17
903.21	226.19
903.51	226.18
903.82	226.23
904.12	226.22
904.43	226.22
904.73	226.24
905.03	226.20
905.34	226.30
905.64	226.25
905.95	226.27
906.25	226.26
906.56	226.25
906.86	226.24
907.17	226.20
907.47	226.21
907.77	226.19
908.08	226.19
908.38	226.18
908.69	226.22
908.99	226.23
909.30	226.25
909.60	226.23
909.90	226.25
910.21	226.20
910.51	226.19
910.81	226.17
911.12	226.16
911.42	226.14
911.73	226.04
912.03	226.09
912.33	226.09
912.64	226.09
912.94	226.07
913.24	226.06
913.55	226.08
913.85	226.10
914.15	226.14
914.46	226.15
914.76	226.16
915.06	226.16
915.37	226.15
915.67	226.15
915.97	226.17
916.27	226.17
916.58	226.20
916.88	226.20
917.18	226.21
917.49	226.27
917.79	226.30
918.09	226.35
918.39	226.37
918.70	226.34
919.00	226.36
919.30	226.41
919.60	226.40
919.91	226.37
920.21	226.37
920.51	226.32
920.81	226.29
921.12	226.32
921.42	226.30
921.72	226.31
922.02	226.29
922.32	226.27
922.63	226.27
922.93	226.32
923.23	226.35
923.53	226.33
923.83	226.29
924.13	226.31
924.44	226.29
924.74	226.31
925.04	226.35
925.34	226.33
925.64	226.28
925.94	226.30
926.24	226.37
926.55	226.37
926.85	226.38
927.15	226.39
927.45	226.37
927.75	226.36
928.05	226.37
928.35	226.37
928.65	226.41
928.95	226.39
929.26	226.32
929.56	226.33
929.86	226.33
930.16	226.30
930.46	226.28
930.76	226.25
931.06	226.18
931.36	226.16
931.66	226.15
931.96	226.19
932.26	226.16
932.56	226.11
932.86	226.08
933.16	226.10
933.46	226.10
933.76	226.10
934.06	226.14
934.36	226.17
934.66	226.17
934.96	226.15
935.26	226.14
935.56	226.15
935.86	226.12
936.16	226.12
936.46	226.13
936.76	226.11
937.06	226.09
937.36	226.10
937.66	226.11
937.96	226.08
938.26	226.05
938.56	226.07
938.86	226.06
939.16	226.08
939.46	226.08
939.76	226.07
940.06	226.03
940.35	225.99
940.65	225.91
940.95	225.92
941.25	225.89
941.55	225.87
941.85	225.87
942.15	225.88
942.45	225.89
942.75	225.88
943.04	225.89
943.34	225.92
943.64	225.91
943.94	225.88
944.24	225.92
944.54	225.92
944.84	225.89
945.13	225.92
945.43	225.92
945.73	225.89
946.03	225.88
946.33	225.87
946.62	225.86
946.92	225.87
947.22	225.87
947.52	225.89
947.82	225.91
948.11	225.88
948.41	225.85
948.71	225.86
949.01	225.87
949.31	225.89
949.60	225.89
949.90	225.96
950.20	225.99
950.50	225.99
950.79	225.96
951.09	225.98
951.39	225.96
951.69	225.94
951.98	225.98
952.28	226.00
952.58	226.03
952.87	226.03
953.17	226.04
953.47	226.05
953.76	226.02
954.06	226.02
954.36	226.04
954.66	226.06
954.95	226.10
955.25	226.10
955.55	226.11
955.84	226.06
956.14	226.02
956.44	226.00
956.73	225.99
957.03	226.05
957.32	226.08
957.62	226.09
957.92	226.12
958.21	226.11
958.51	226.22
958.81	226.24
959.10	226.23
959.40	226.26
959.69	226.24
959.99	226.29
960.29	226.27
960.58	226.29
960.88	226.33
961.17	226.30
961.47	226.29
961.76	226.28
962.06	226.35
962.36	226.35
962.65	226.36
962.95	226.33
963.24	226.31
963.54	226.30
963.83	226.28
964.13	226.27
964.42	226.28
964.72	226.20
965.01	226.18
965.31	226.20
965.60	226.21
965.90	226.30
966.19	226.26
966.49	226.25
966.78	226.22
967.08	226.23
967.37	226.23
967.67	226.21
967.96	226.23
968.26	226.20
968.55	226.21
968.85	226.25
969.14	226.25
969.43	226.23
969.73	226.23
970.02	226.26
970.32	226.24
970.61	226.22
970.91	226.18
971.20	226.17
971.49	226.14
971.79	226.16
972.08	226.09
972.38	226.12
972.67	226.16
972.96	226.23
973.26	226.19
973.55	226.22
973.85	226.23
974.14	226.22
974.43	226.26
974.73	226.21
975.02	226.17
975.31	226.17
975.61	226.17
975.90	226.17
976.19	226.15
976.49	226.19
976.78	226.18
977.07	226.20
977.37	226.20
977.66	226.23
977.95	226.18
978.24	226.17
978.54	226.22
978.83	226.22
979.12	226.20
979.42	226.20
979.71	226.19
980.00	226.20
980.29	226.18
980.59	226.14
980.88	226.20
981.17	226.22
981.46	226.27
981.76	226.30
982.05	226.32
982.34	226.35
982.63	226.34
982.93	226.38
983.22	226.44
983.51	226.46
983.80	226.48
984.09	226.50
984.39	226.50
984.68	226.45
984.97	226.42
985.26	226.39
985.55	226.39
985.85	226.36
986.14	226.37
986.43	226.39
986.72	226.36
987.01	226.34
987.30	226.31
987.59	226.28
987.89	226.27
988.18	226.23
988.47	226.20
988.76	226.18
989.05	226.14
989.34	226.08
989.63	226.12
989.92	226.12
990.22	226.10
990.51	226.09
990.80	226.08
991.09	226.08
991.38	226.10
991.67	226.09
991.96	226.11
992.25	226.11
992.54	226.07
992.83	226.08
993.12	226.04
993.41	226.06
993.70	226.07
993.99	226.10
994.28	226.10
994.58	226.10
994.87	226.10
995.16	226.12
995.45	226.12
995.74	226.06
996.03	226.01
996.32	226.02
996.61	226.03
996.90	226.03
997.19	226.02
997.48	226.01
997.77	226.02
998.06	225.99
998.34	225.96
998.63	225.99
998.92	226.01
999.21	226.04
999.50	226.04
999.79	226.02
1000.08	225.97
1000.37	225.98
1000.66	225.98
1000.95	225.97
1001.24	225.94
1001.53	225.95
1001.82	225.94
1002.11	225.97
1002.40	225.94
1002.68	225.97
1002.97	226.05
1003.26	226.03
1003.55	226.04
1003.84	226.01
1004.13	226.06
1004.42	226.03
1004.71	226.06
1004.99	226.03
1005.28	226.04
1005.57	226.02
1005.86	226.04
1006.15	226.06
1006.44	226.03
1006.72	226.03
1007.01	226.06
1007.30	226.10
1007.59	226.09
1007.88	226.11
1008.17	226.12
1008.45	226.12
1008.74	226.08
1009.03	226.04
1009.32	226.02
1009.60	226.02
1009.89	226.03
1010.18	226.00
1010.47	226.03
1010.76	226.01
1011.04	226.01
1011.33	226.06
1011.62	226.09
1011.91	226.09
1012.19	226.11
1012.48	226.15
1012.77	226.15
1013.05	226.22
1013.34	226.21
1013.63	226.22
1013.92	226.25
1014.20	226.22
1014.49	226.22
1014.78	226.25
1015.06	226.21
1015.35	226.23
1015.64	226.27
1015.92	226.29
1016.21	226.29
1016.50	226.28
1016.78	226.27
1017.07	226.30
1017.36	226.27
1017.64	226.22
1017.93	226.19
1018.22	226.16
1018.50	226.14
1018.79	226.12
1019.08	226.04
1019.36	226.07
1019.65	226.05
1019.93	226.06
1020.22	226.09
1020.51	226.13
1020.79	226.11
1021.08	225.60
1021.36	225.74
1021.65	225.93
1021.94	226.28
1022.22	226.46
1022.51	226.45
1022.79	226.50
1023.08	226.02
1023.36	226.96
1023.65	225.58
>>>>>End Processed Spectral Data<<<<<
