SpectraSuite Data File
++++++++++++++++++++++++++++++++++++
Date: Fri Feb 01 15:41:12 EST 2013
User: group
Dark Spectrum Present: No
Reference Spectrum Present: No
Number of Sampled Component Spectra: 1
Spectrometers: USB2E7196
Integration Time (usec): 35000 (USB2E7196)
Spectra Averaged: 100 (USB2E7196)
Boxcar Smoothing: 10 (USB2E7196)
Correct for Electrical Dark: No (USB2E7196)
Strobe/Lamp Enabled: No (USB2E7196)
Correct for Detector Non-linearity: No (USB2E7196)
Correct for Stray Light: No (USB2E7196)
Number of Pixels in Processed Spectrum: 2048
>>>>>Begin Processed Spectral Data<<<<<
339.09	0.00
339.48	214.99
339.86	216.55
340.24	217.24
340.63	219.24
341.01	221.37
341.39	221.96
341.78	223.11
342.16	223.99
342.54	224.67
342.93	213.16
343.31	223.94
343.69	224.46
344.07	224.91
344.46	225.35
344.84	225.70
345.22	225.98
345.60	226.26
345.99	226.45
346.37	226.59
346.75	226.70
347.13	226.78
347.52	226.85
347.90	226.92
348.28	226.99
348.66	227.00
349.05	227.00
349.43	227.05
349.81	227.12
350.19	227.15
350.57	227.21
350.96	227.25
351.34	227.33
351.72	227.43
352.10	227.54
352.48	227.65
352.87	227.72
353.25	227.76
353.63	227.81
354.01	227.88
354.39	227.96
354.77	228.00
355.15	228.09
355.54	228.13
355.92	228.15
356.30	228.22
356.68	228.37
357.06	228.44
357.44	228.50
357.82	228.56
358.20	228.67
358.58	228.77
358.97	228.87
359.35	228.95
359.73	229.03
360.11	229.04
360.49	229.07
360.87	229.14
361.25	229.22
361.63	229.25
362.01	229.31
362.39	229.36
362.77	229.43
363.15	229.45
363.53	229.49
363.91	229.55
364.29	229.58
364.67	229.48
365.05	229.46
365.43	229.49
365.81	229.47
366.19	229.52
366.57	229.50
366.95	229.47
367.33	229.41
367.71	229.40
368.09	229.44
368.47	229.42
368.85	229.38
369.23	229.38
369.61	229.31
369.99	229.28
370.37	229.24
370.75	229.24
371.13	229.20
371.51	229.15
371.89	229.10
372.27	229.03
372.65	229.00
373.03	228.99
373.41	228.94
373.78	228.90
374.16	228.76
374.54	228.68
374.92	228.62
375.30	228.59
375.68	228.49
376.06	228.42
376.44	228.33
376.82	228.26
377.19	228.15
377.57	228.08
377.95	227.95
378.33	227.89
378.71	227.78
379.09	227.71
379.47	227.67
379.84	227.57
380.22	227.51
380.60	227.42
380.98	227.33
381.36	227.26
381.73	227.17
382.11	227.13
382.49	227.08
382.87	227.00
383.25	226.94
383.62	227.01
384.00	226.94
384.38	226.91
384.76	226.89
385.13	226.88
385.51	226.82
385.89	226.79
386.27	226.79
386.64	226.75
387.02	226.69
387.40	226.62
387.78	226.57
388.15	226.52
388.53	226.50
388.91	226.47
389.29	226.43
389.66	226.43
390.04	226.39
390.42	226.39
390.79	226.38
391.17	226.35
391.55	226.22
391.92	226.20
392.30	226.20
392.68	226.18
393.05	226.20
393.43	226.23
393.81	226.24
394.18	226.21
394.56	226.22
394.94	226.28
395.31	226.31
395.69	226.37
396.06	226.42
396.44	226.46
396.82	226.48
397.19	226.55
397.57	226.57
397.95	226.64
398.32	226.68
398.70	226.77
399.07	226.84
399.45	226.91
399.82	226.99
400.20	227.06
400.58	227.13
400.95	227.16
401.33	227.25
401.70	227.39
402.08	227.48
402.45	227.59
402.83	227.68
403.20	227.79
403.58	227.89
403.95	228.00
404.33	228.15
404.71	228.31
405.08	228.52
405.46	228.66
405.83	228.80
406.21	228.93
406.58	229.08
406.96	229.23
407.33	229.41
407.70	229.61
408.08	229.89
408.45	230.13
408.83	230.35
409.20	230.59
409.58	230.82
409.95	231.07
410.33	231.33
410.70	231.58
411.08	231.89
411.45	232.22
411.82	232.55
412.20	232.89
412.57	233.28
412.95	233.55
413.32	233.94
413.69	234.38
414.07	234.80
414.44	235.24
414.82	235.74
415.19	236.29
415.56	236.86
415.94	237.37
416.31	237.96
416.68	238.62
417.06	239.32
417.43	239.97
417.81	240.73
418.18	241.53
418.55	242.39
418.93	243.22
419.30	244.10
419.67	245.05
420.04	246.03
420.42	247.00
420.79	248.19
421.16	249.38
421.54	250.55
421.91	251.75
422.28	253.06
422.66	254.39
423.03	255.69
423.40	256.96
423.77	258.41
424.15	259.85
424.52	261.29
424.89	262.89
425.26	264.44
425.64	265.87
426.01	267.44
426.38	269.09
426.75	270.77
427.13	272.48
427.50	274.26
427.87	276.15
428.24	278.03
428.61	279.74
428.99	281.64
429.36	283.75
429.73	285.89
430.10	287.89
430.47	289.90
430.85	292.00
431.22	294.29
431.59	296.62
431.96	298.86
432.33	301.33
432.70	303.72
433.08	306.52
433.45	309.18
433.82	311.78
434.19	314.70
434.56	317.53
434.93	320.19
435.30	322.79
435.68	325.64
436.05	328.52
436.42	331.37
436.79	333.94
437.16	336.63
437.53	339.44
437.90	342.26
438.27	345.07
438.64	347.90
439.01	350.45
439.38	352.77
439.75	354.93
440.13	357.48
440.50	359.81
440.87	361.69
441.24	363.62
441.61	365.80
441.98	367.25
442.35	369.06
442.72	370.91
443.09	372.73
443.46	373.73
443.83	374.26
444.20	374.79
444.57	375.60
444.94	375.92
445.31	376.25
445.68	376.58
446.05	376.65
446.42	376.29
446.79	375.92
447.16	375.46
447.53	375.19
447.90	374.03
448.27	372.88
448.64	371.29
449.01	370.16
449.37	368.19
449.74	366.31
450.11	364.02
450.48	361.53
450.85	359.02
451.22	356.87
451.59	354.86
451.96	352.90
452.33	350.32
452.70	347.95
453.07	345.13
453.43	342.24
453.80	339.48
454.17	336.81
454.54	334.26
454.91	331.50
455.28	328.82
455.65	326.30
456.02	323.85
456.38	321.76
456.75	319.11
457.12	316.85
457.49	314.64
457.86	312.49
458.23	310.71
458.59	308.67
458.96	306.61
459.33	304.76
459.70	302.92
460.07	301.38
460.43	299.64
460.80	298.01
461.17	296.57
461.54	295.09
461.91	293.66
462.27	292.22
462.64	290.99
463.01	289.61
463.38	288.34
463.74	286.97
464.11	285.74
464.48	284.69
464.85	283.59
465.21	282.69
465.58	281.77
465.95	280.64
466.32	279.75
466.68	278.82
467.05	277.91
467.42	277.01
467.78	276.06
468.15	275.17
468.52	274.48
468.88	273.65
469.25	272.88
469.62	272.24
469.98	271.51
470.35	270.88
470.72	270.26
471.08	269.63
471.45	269.06
471.82	268.51
472.18	267.92
472.55	267.47
472.92	266.94
473.28	266.49
473.65	266.03
474.02	265.58
474.38	265.20
474.75	264.89
475.11	264.51
475.48	264.26
475.85	264.05
476.21	263.82
476.58	263.60
476.94	263.44
477.31	263.26
477.67	263.11
478.04	263.00
478.41	262.94
478.77	262.96
479.14	262.94
479.50	262.94
479.87	263.02
480.23	263.11
480.60	263.20
480.96	263.28
481.33	263.49
481.69	263.67
482.06	263.89
482.42	264.07
482.79	264.35
483.15	264.65
483.52	265.04
483.88	265.41
484.25	265.77
484.61	266.17
484.98	266.65
485.34	267.22
485.71	267.82
486.07	268.40
486.44	268.93
486.80	269.61
487.17	270.35
487.53	271.16
487.90	272.04
488.26	272.99
488.62	273.99
488.99	274.96
489.35	276.01
489.72	277.13
490.08	278.35
490.44	279.60
490.81	280.96
491.17	282.32
491.54	283.81
491.90	285.38
492.26	287.03
492.63	288.75
492.99	290.58
493.36	292.44
493.72	294.52
494.08	296.68
494.45	298.94
494.81	301.27
495.17	303.66
495.54	306.21
495.90	308.86
496.26	311.64
496.63	314.61
496.99	317.73
497.35	321.00
497.72	324.41
498.08	327.91
498.44	331.58
498.80	335.50
499.17	339.50
499.53	343.69
499.89	348.08
500.26	352.57
500.62	357.19
500.98	362.17
501.34	367.22
501.71	372.52
502.07	377.92
502.43	383.58
502.79	389.41
503.16	395.46
503.52	401.71
503.88	408.17
504.24	414.81
504.60	421.69
504.97	428.83
505.33	436.15
505.69	443.84
506.05	451.61
506.41	459.46
506.78	467.64
507.14	476.06
507.50	484.75
507.86	493.73
508.22	502.90
508.59	512.12
508.95	521.70
509.31	531.47
509.67	541.61
510.03	551.97
510.39	562.52
510.75	573.30
511.12	584.22
511.48	595.46
511.84	606.85
512.20	618.38
512.56	630.32
512.92	642.47
513.28	654.79
513.64	667.31
514.00	680.03
514.37	692.92
514.73	705.99
515.09	719.12
515.45	732.48
515.81	746.08
516.17	760.03
516.53	774.20
516.89	788.35
517.25	802.52
517.61	816.93
517.97	831.41
518.33	845.83
518.69	860.63
519.05	875.59
519.41	890.81
519.77	906.38
520.13	921.84
520.49	937.25
520.85	952.66
521.21	968.40
521.57	984.65
521.93	1000.47
522.29	1016.84
522.65	1033.03
523.01	1049.18
523.37	1065.26
523.73	1081.37
524.09	1097.44
524.45	1113.76
524.81	1130.33
525.17	1147.03
525.53	1163.98
525.89	1180.90
526.25	1197.68
526.61	1214.10
526.97	1230.91
527.33	1247.34
527.68	1263.92
528.04	1280.40
528.40	1297.19
528.76	1314.23
529.12	1330.76
529.48	1347.66
529.84	1363.70
530.20	1380.26
530.56	1397.40
530.91	1414.95
531.27	1431.82
531.63	1448.29
531.99	1464.97
532.35	1481.02
532.71	1496.96
533.07	1513.18
533.42	1529.09
533.78	1545.23
534.14	1561.62
534.50	1576.97
534.86	1592.76
535.21	1607.99
535.57	1623.92
535.93	1639.33
536.29	1654.06
536.65	1669.24
537.00	1684.02
537.36	1699.29
537.72	1713.92
538.08	1728.23
538.44	1741.85
538.79	1755.67
539.15	1769.46
539.51	1783.25
539.87	1797.66
540.22	1811.46
540.58	1825.30
540.94	1838.76
541.29	1851.76
541.65	1864.36
542.01	1877.49
542.37	1889.92
542.72	1902.41
543.08	1914.23
543.44	1926.73
543.79	1937.98
544.15	1949.07
544.51	1960.65
544.87	1971.67
545.22	1982.41
545.58	1992.64
545.94	2002.43
546.29	2012.29
546.65	2022.00
547.01	2031.23
547.36	2039.89
547.72	2048.22
548.07	2055.94
548.43	2064.07
548.79	2072.05
549.14	2079.53
549.50	2086.97
549.86	2094.72
550.21	2101.96
550.57	2108.98
550.92	2115.35
551.28	2122.51
551.64	2129.46
551.99	2135.92
552.35	2142.05
552.70	2148.25
553.06	2154.26
553.41	2160.66
553.77	2166.71
554.13	2172.76
554.48	2178.86
554.84	2184.33
555.19	2189.72
555.55	2194.93
555.90	2199.36
556.26	2204.09
556.61	2208.88
556.97	2213.07
557.32	2217.13
557.68	2221.19
558.03	2225.62
558.39	2229.44
558.74	2234.15
559.10	2237.85
559.45	2241.52
559.81	2245.95
560.16	2249.74
560.52	2253.04
560.87	2256.35
561.23	2259.14
561.58	2262.27
561.94	2264.64
562.29	2266.99
562.64	2269.78
563.00	2272.46
563.35	2275.99
563.71	2279.15
564.06	2282.45
564.42	2285.28
564.77	2287.76
565.12	2290.01
565.48	2291.87
565.83	2293.72
566.19	2294.78
566.54	2295.82
566.89	2296.89
567.25	2297.41
567.60	2298.74
567.96	2300.35
568.31	2301.28
568.66	2302.27
569.02	2302.68
569.37	2303.03
569.72	2303.87
570.08	2303.88
570.43	2303.84
570.78	2303.16
571.14	2301.61
571.49	2300.11
571.84	2299.95
572.20	2298.70
572.55	2297.71
572.90	2296.20
573.26	2294.83
573.61	2293.26
573.96	2291.43
574.31	2288.53
574.67	2285.57
575.02	2282.00
575.37	2278.68
575.72	2274.84
576.08	2271.66
576.43	2268.33
576.78	2264.82
577.13	2261.73
577.49	2258.55
577.84	2254.98
578.19	2251.21
578.54	2247.59
578.90	2243.38
579.25	2237.57
579.60	2232.59
579.95	2227.53
580.30	2222.48
580.66	2217.17
581.01	2212.09
581.36	2207.23
581.71	2203.05
582.06	2198.49
582.42	2193.81
582.77	2188.49
583.12	2183.84
583.47	2178.86
583.82	2173.81
584.17	2168.38
584.53	2162.82
584.88	2157.36
585.23	2151.53
585.58	2145.98
585.93	2140.45
586.28	2135.73
586.63	2130.70
586.98	2125.71
587.34	2120.93
587.69	2115.94
588.04	2110.68
588.39	2105.08
588.74	2098.57
589.09	2092.36
589.44	2085.55
589.79	2079.63
590.14	2073.96
590.49	2067.42
590.84	2061.01
591.19	2054.96
591.54	2048.51
591.89	2041.07
592.25	2034.08
592.60	2026.85
592.95	2019.33
593.30	2012.04
593.65	2004.28
594.00	1997.18
594.35	1989.94
594.70	1981.91
595.05	1974.60
595.40	1967.24
595.75	1959.64
596.10	1953.42
596.45	1946.59
596.80	1940.28
597.15	1933.54
597.50	1926.38
597.85	1919.87
598.19	1913.16
598.54	1905.93
598.89	1899.27
599.24	1893.29
599.59	1886.55
599.94	1880.35
600.29	1874.00
600.64	1867.31
600.99	1859.95
601.34	1853.19
601.69	1846.15
602.04	1839.26
602.39	1832.01
602.74	1825.22
603.08	1818.50
603.43	1811.78
603.78	1804.53
604.13	1797.27
604.48	1789.99
604.83	1783.21
605.18	1776.13
605.53	1768.20
605.87	1760.25
606.22	1753.02
606.57	1745.10
606.92	1737.81
607.27	1730.54
607.62	1723.63
607.96	1716.37
608.31	1709.69
608.66	1702.03
609.01	1694.43
609.36	1686.86
609.70	1678.80
610.05	1670.66
610.40	1662.87
610.75	1654.52
611.10	1646.87
611.44	1638.61
611.79	1630.72
612.14	1621.95
612.49	1612.90
612.83	1604.47
613.18	1596.30
613.53	1588.21
613.88	1579.63
614.22	1571.39
614.57	1562.88
614.92	1554.74
615.27	1547.12
615.61	1538.76
615.96	1530.87
616.31	1523.29
616.65	1515.89
617.00	1508.39
617.35	1500.77
617.70	1492.44
618.04	1483.88
618.39	1475.64
618.74	1467.94
619.08	1459.56
619.43	1452.02
619.78	1445.19
620.12	1438.10
620.47	1430.71
620.82	1422.46
621.16	1415.03
621.51	1407.41
621.85	1399.80
622.20	1391.34
622.55	1383.02
622.89	1375.17
623.24	1367.53
623.59	1360.12
623.93	1352.61
624.28	1345.30
624.62	1337.74
624.97	1330.66
625.32	1323.92
625.66	1316.90
626.01	1309.81
626.35	1302.37
626.70	1294.58
627.04	1286.76
627.39	1278.93
627.73	1271.53
628.08	1264.69
628.43	1257.42
628.77	1249.95
629.12	1242.36
629.46	1235.30
629.81	1227.94
630.15	1220.75
630.50	1213.24
630.84	1205.05
631.19	1197.14
631.53	1189.81
631.88	1182.24
632.22	1174.52
632.57	1167.29
632.91	1159.73
633.26	1152.20
633.60	1144.87
633.95	1137.85
634.29	1130.87
634.64	1124.30
634.98	1116.95
635.32	1109.75
635.67	1103.23
636.01	1096.69
636.36	1089.84
636.70	1083.27
637.05	1076.65
637.39	1070.28
637.73	1063.75
638.08	1057.87
638.42	1051.92
638.77	1045.27
639.11	1038.67
639.45	1032.34
639.80	1025.60
640.14	1019.19
640.49	1012.73
640.83	1006.41
641.17	1000.10
641.52	993.72
641.86	987.22
642.20	981.28
642.55	975.05
642.89	968.56
643.23	962.02
643.58	956.32
643.92	950.11
644.26	943.98
644.61	937.96
644.95	931.93
645.29	925.28
645.64	918.51
645.98	912.29
646.32	906.47
646.66	900.45
647.01	894.62
647.35	888.88
647.69	883.08
648.04	877.60
648.38	871.77
648.72	865.78
649.06	859.74
649.41	853.86
649.75	847.79
650.09	841.78
650.43	836.00
650.78	829.81
651.12	823.81
651.46	818.15
651.80	812.28
652.14	806.91
652.49	801.69
652.83	796.50
653.17	790.71
653.51	784.98
653.85	779.57
654.20	773.93
654.54	767.96
654.88	762.20
655.22	756.27
655.56	750.67
655.90	745.20
656.25	739.95
656.59	734.64
656.93	729.64
657.27	724.51
657.61	719.08
657.95	713.96
658.29	708.92
658.64	703.76
658.98	698.49
659.32	693.01
659.66	687.75
660.00	682.41
660.34	677.54
660.68	672.73
661.02	667.65
661.36	662.99
661.70	658.47
662.05	654.08
662.39	649.75
662.73	645.25
663.07	640.89
663.41	636.44
663.75	631.89
664.09	627.31
664.43	622.96
664.77	618.86
665.11	614.66
665.45	610.53
665.79	606.36
666.13	602.27
666.47	598.19
666.81	594.01
667.15	589.97
667.49	586.12
667.83	582.33
668.17	578.43
668.51	574.32
668.85	570.32
669.19	566.52
669.53	562.66
669.87	558.84
670.21	555.13
670.55	551.51
670.89	548.14
671.23	544.69
671.57	541.17
671.91	537.63
672.25	534.14
672.58	530.66
672.92	527.36
673.26	524.20
673.60	521.06
673.94	517.96
674.28	515.03
674.62	512.07
674.96	508.89
675.30	506.01
675.64	503.06
675.97	500.31
676.31	497.46
676.65	494.54
676.99	491.82
677.33	488.97
677.67	486.15
678.01	483.11
678.34	480.17
678.68	477.31
679.02	474.47
679.36	471.73
679.70	468.99
680.04	466.20
680.37	463.31
680.71	460.55
681.05	457.91
681.39	455.22
681.73	452.56
682.06	450.04
682.40	447.52
682.74	445.03
683.08	442.48
683.42	439.88
683.75	437.36
684.09	434.81
684.43	432.33
684.77	429.84
685.10	427.50
685.44	425.17
685.78	422.87
686.12	420.64
686.45	418.34
686.79	416.04
687.13	413.81
687.46	411.64
687.80	409.49
688.14	407.29
688.48	405.19
688.81	402.93
689.15	400.81
689.49	398.62
689.82	396.53
690.16	394.47
690.50	392.50
690.83	390.60
691.17	388.60
691.51	386.73
691.84	384.94
692.18	383.02
692.52	381.03
692.85	379.15
693.19	377.24
693.52	375.45
693.86	373.63
694.20	371.83
694.53	370.06
694.87	368.20
695.21	366.43
695.54	364.68
695.88	362.97
696.21	361.25
696.55	359.61
696.88	357.91
697.22	356.23
697.56	354.62
697.89	352.98
698.23	351.38
698.56	349.73
698.90	348.13
699.23	346.46
699.57	344.92
699.90	343.34
700.24	341.79
700.58	340.22
700.91	338.75
701.25	337.34
701.58	335.95
701.92	334.61
702.25	333.24
702.59	331.85
702.92	330.54
703.26	329.24
703.59	327.92
703.93	326.74
704.26	325.49
704.60	324.19
704.93	322.87
705.26	321.61
705.60	320.47
705.93	319.32
706.27	318.33
706.60	317.27
706.94	316.23
707.27	315.13
707.61	314.09
707.94	313.04
708.27	311.96
708.61	310.86
708.94	309.86
709.28	308.89
709.61	307.95
709.94	306.96
710.28	305.92
710.61	304.95
710.95	303.87
711.28	302.99
711.61	302.03
711.95	301.15
712.28	300.23
712.61	299.24
712.95	298.28
713.28	297.34
713.61	296.45
713.95	295.54
714.28	294.70
714.61	293.83
714.95	292.99
715.28	292.11
715.61	291.25
715.95	290.40
716.28	289.49
716.61	288.58
716.95	287.78
717.28	287.06
717.61	286.29
717.94	285.58
718.28	284.74
718.61	284.03
718.94	283.32
719.27	282.67
719.61	282.06
719.94	281.42
720.27	280.73
720.60	280.07
720.94	279.43
721.27	278.81
721.60	278.22
721.93	277.63
722.27	277.11
722.60	276.57
722.93	275.97
723.26	275.47
723.59	274.94
723.93	274.39
724.26	273.85
724.59	273.29
724.92	272.76
725.25	272.29
725.59	271.76
725.92	271.27
726.25	270.74
726.58	270.22
726.91	269.73
727.24	269.25
727.57	268.79
727.91	268.31
728.24	267.87
728.57	267.41
728.90	266.92
729.23	266.41
729.56	265.98
729.89	265.55
730.22	265.07
730.55	264.64
730.89	264.20
731.22	263.75
731.55	263.33
731.88	262.90
732.21	262.44
732.54	261.99
732.87	261.55
733.20	261.19
733.53	260.82
733.86	260.46
734.19	260.03
734.52	259.65
734.85	259.34
735.18	258.92
735.51	258.52
735.84	258.21
736.17	257.86
736.50	257.44
736.83	257.17
737.16	256.87
737.49	256.52
737.82	256.16
738.15	255.83
738.48	255.49
738.81	255.17
739.14	254.87
739.47	254.56
739.80	254.24
740.13	253.91
740.46	253.55
740.79	253.17
741.12	252.89
741.45	252.56
741.78	252.22
742.11	251.94
742.44	251.65
742.77	251.31
743.10	251.01
743.43	250.72
743.75	250.35
744.08	250.15
744.41	249.83
744.74	249.60
745.07	249.29
745.40	249.02
745.73	248.78
746.06	248.50
746.39	248.24
746.71	248.00
747.04	247.69
747.37	247.43
747.70	247.19
748.03	246.93
748.36	246.71
748.68	246.46
749.01	246.21
749.34	246.00
749.67	245.75
750.00	245.53
750.33	245.37
750.65	245.17
750.98	244.83
751.31	244.65
751.64	244.41
751.97	244.28
752.29	244.06
752.62	243.80
752.95	243.59
753.28	243.38
753.60	243.14
753.93	242.96
754.26	242.75
754.59	242.57
754.91	242.38
755.24	242.17
755.57	241.96
755.90	241.78
756.22	241.56
756.55	241.37
756.88	241.16
757.20	240.94
757.53	240.73
757.86	240.58
758.19	240.42
758.51	240.25
758.84	240.03
759.17	239.89
759.49	239.73
759.82	239.63
760.15	239.49
760.47	239.35
760.80	239.18
761.13	239.06
761.45	238.91
761.78	238.78
762.11	238.63
762.43	238.52
762.76	238.35
763.08	238.23
763.41	238.13
763.74	238.03
764.06	237.89
764.39	237.75
764.71	237.61
765.04	237.47
765.37	237.32
765.69	237.17
766.02	237.06
766.34	236.94
766.67	236.76
767.00	236.68
767.32	236.64
767.65	236.59
767.97	236.47
768.30	236.37
768.62	236.25
768.95	236.16
769.27	236.00
769.60	235.93
769.92	235.83
770.25	235.68
770.57	235.57
770.90	235.45
771.22	235.35
771.55	235.26
771.87	235.21
772.20	235.13
772.52	235.14
772.85	235.13
773.17	235.01
773.50	234.91
773.82	234.80
774.15	234.62
774.47	234.47
774.80	234.36
775.12	234.24
775.45	234.15
775.77	234.02
776.09	233.98
776.42	233.89
776.74	233.82
777.07	233.77
777.39	233.68
777.72	233.61
778.04	233.55
778.36	233.45
778.69	233.32
779.01	233.22
779.33	233.07
779.66	232.91
779.98	232.83
780.31	232.78
780.63	232.74
780.95	232.71
781.28	232.66
781.60	232.58
781.92	232.54
782.25	232.50
782.57	232.47
782.89	232.39
783.22	232.33
783.54	232.25
783.86	232.15
784.19	232.07
784.51	232.03
784.83	231.95
785.16	231.90
785.48	231.86
785.80	231.82
786.12	231.72
786.45	231.67
786.77	231.65
787.09	231.58
787.42	231.51
787.74	231.44
788.06	231.38
788.38	231.35
788.71	231.28
789.03	231.23
789.35	231.18
789.67	231.12
789.99	231.10
790.32	231.06
790.64	231.06
790.96	231.12
791.28	231.06
791.61	231.01
791.93	230.98
792.25	230.94
792.57	230.96
792.89	230.95
793.21	230.90
793.54	230.84
793.86	230.82
794.18	230.78
794.50	230.74
794.82	230.71
795.14	230.69
795.47	230.70
795.79	230.68
796.11	230.63
796.43	230.59
796.75	230.54
797.07	230.49
797.39	230.44
797.71	230.34
798.04	230.30
798.36	230.30
798.68	230.25
799.00	230.27
799.32	230.19
799.64	230.19
799.96	230.17
800.28	230.18
800.60	230.13
800.92	230.12
801.24	230.11
801.56	230.10
801.89	230.06
802.21	230.02
802.53	229.97
802.85	229.98
803.17	230.02
803.49	229.96
803.81	229.95
804.13	229.90
804.45	229.85
804.77	229.86
805.09	229.83
805.41	229.83
805.73	229.74
806.05	229.73
806.37	229.73
806.69	229.71
807.01	229.68
807.33	229.63
807.65	229.59
807.97	229.61
808.28	229.57
808.60	229.54
808.92	229.48
809.24	229.51
809.56	229.44
809.88	229.39
810.20	229.42
810.52	229.39
810.84	229.36
811.16	229.37
811.48	229.34
811.80	229.35
812.12	229.30
812.43	229.31
812.75	229.28
813.07	229.21
813.39	229.18
813.71	229.14
814.03	229.15
814.35	229.13
814.67	229.08
814.98	229.07
815.30	229.05
815.62	229.03
815.94	228.96
816.26	228.99
816.58	228.95
816.89	228.92
817.21	228.89
817.53	228.91
817.85	228.90
818.17	228.86
818.48	228.82
818.80	228.85
819.12	228.80
819.44	228.77
819.76	228.75
820.07	228.75
820.39	228.76
820.71	228.71
821.03	228.70
821.34	228.70
821.66	228.69
821.98	228.67
822.30	228.63
822.61	228.69
822.93	228.61
823.25	228.60
823.57	228.56
823.88	228.57
824.20	228.53
824.52	228.48
824.83	228.47
825.15	228.44
825.47	228.39
825.79	228.38
826.10	228.37
826.42	228.36
826.74	228.32
827.05	228.30
827.37	228.32
827.69	228.28
828.00	228.27
828.32	228.23
828.64	228.21
828.95	228.27
829.27	228.18
829.58	228.15
829.90	228.16
830.22	228.17
830.53	228.11
830.85	228.08
831.17	228.06
831.48	228.08
831.80	228.03
832.11	228.03
832.43	228.04
832.75	228.01
833.06	228.05
833.38	228.02
833.69	227.99
834.01	227.98
834.32	227.97
834.64	227.89
834.96	227.89
835.27	227.88
835.59	227.84
835.90	227.84
836.22	227.86
836.53	227.81
836.85	227.81
837.16	227.91
837.48	227.92
837.79	227.93
838.11	227.92
838.42	227.91
838.74	227.90
839.05	227.88
839.37	227.85
839.68	227.75
840.00	227.75
840.31	227.77
840.63	227.74
840.94	227.73
841.26	227.72
841.57	227.73
841.88	227.71
842.20	227.71
842.51	227.70
842.83	227.70
843.14	227.78
843.46	227.77
843.77	227.70
844.08	227.69
844.40	227.67
844.71	227.63
845.03	227.67
845.34	227.68
845.65	227.68
845.97	227.72
846.28	227.76
846.60	227.77
846.91	227.74
847.22	227.76
847.54	227.77
847.85	227.82
848.16	227.81
848.48	227.82
848.79	227.87
849.10	227.89
849.42	227.88
849.73	227.81
850.04	227.82
850.36	227.79
850.67	227.81
850.98	227.82
851.30	227.85
851.61	227.82
851.92	227.79
852.23	227.81
852.55	227.77
852.86	227.76
853.17	227.77
853.49	227.79
853.80	227.80
854.11	227.80
854.42	227.81
854.74	227.78
855.05	227.78
855.36	227.69
855.67	227.68
855.99	227.66
856.30	227.77
856.61	227.76
856.92	227.75
857.23	227.75
857.55	227.73
857.86	227.69
858.17	227.70
858.48	227.69
858.79	227.70
859.11	227.73
859.42	227.72
859.73	227.69
860.04	227.66
860.35	227.63
860.66	227.59
860.98	227.53
861.29	227.57
861.60	227.56
861.91	227.61
862.22	227.58
862.53	227.59
862.84	227.46
863.16	227.52
863.47	227.51
863.78	227.48
864.09	227.51
864.40	227.51
864.71	227.49
865.02	227.47
865.33	227.44
865.64	227.43
865.95	227.44
866.27	227.50
866.58	227.47
866.89	227.48
867.20	227.48
867.51	227.47
867.82	227.45
868.13	227.47
868.44	227.40
868.75	227.43
869.06	227.39
869.37	227.41
869.68	227.33
869.99	227.34
870.30	227.35
870.61	227.36
870.92	227.36
871.23	227.35
871.54	227.38
871.85	227.38
872.16	227.36
872.47	227.39
872.78	227.33
873.09	227.37
873.40	227.35
873.71	227.37
874.02	227.38
874.33	227.37
874.64	227.35
874.95	227.38
875.26	227.35
875.56	227.36
875.87	227.31
876.18	227.34
876.49	227.41
876.80	227.41
877.11	227.38
877.42	227.38
877.73	227.38
878.04	227.34
878.35	227.35
878.66	227.35
878.96	227.31
879.27	227.29
879.58	227.25
879.89	227.28
880.20	227.27
880.51	227.25
880.82	227.27
881.12	227.28
881.43	227.26
881.74	227.25
882.05	227.26
882.36	227.28
882.67	227.27
882.97	227.18
883.28	227.19
883.59	227.19
883.90	227.24
884.21	227.26
884.51	227.26
884.82	227.24
885.13	227.28
885.44	227.29
885.74	227.30
886.05	227.33
886.36	227.29
886.67	227.27
886.98	227.37
887.28	227.35
887.59	227.35
887.90	227.35
888.20	227.33
888.51	227.32
888.82	227.31
889.13	227.33
889.43	227.42
889.74	227.39
890.05	227.40
890.35	227.37
890.66	227.37
890.97	227.37
891.28	227.41
891.58	227.39
891.89	227.40
892.20	227.41
892.50	227.37
892.81	227.38
893.12	227.39
893.42	227.34
893.73	227.35
894.04	227.36
894.34	227.37
894.65	227.38
894.95	227.39
895.26	227.44
895.57	227.47
895.87	227.37
896.18	227.38
896.48	227.40
896.79	227.39
897.10	227.38
897.40	227.41
897.71	227.38
898.01	227.38
898.32	227.37
898.63	227.38
898.93	227.42
899.24	227.43
899.54	227.42
899.85	227.39
900.15	227.40
900.46	227.38
900.76	227.40
901.07	227.39
901.38	227.39
901.68	227.38
901.99	227.30
902.29	227.31
902.60	227.33
902.90	227.29
903.21	227.29
903.51	227.29
903.82	227.28
904.12	227.28
904.43	227.26
904.73	227.28
905.03	227.26
905.34	227.32
905.64	227.32
905.95	227.31
906.25	227.32
906.56	227.29
906.86	227.28
907.17	227.24
907.47	227.24
907.77	227.22
908.08	227.18
908.38	227.20
908.69	227.20
908.99	227.20
909.30	227.20
909.60	227.19
909.90	227.20
910.21	227.16
910.51	227.15
910.81	227.13
911.12	227.12
911.42	227.11
911.73	226.98
912.03	226.98
912.33	226.98
912.64	226.97
912.94	226.97
913.24	226.96
913.55	226.96
913.85	226.93
914.15	226.94
914.46	226.96
914.76	226.94
915.06	226.90
915.37	226.83
915.67	226.80
915.97	226.78
916.27	226.72
916.58	226.72
916.88	226.73
917.18	226.75
917.49	226.82
917.79	226.79
918.09	226.82
918.39	226.81
918.70	226.82
919.00	226.81
919.30	226.83
919.60	226.80
919.91	226.80
920.21	226.81
920.51	226.79
920.81	226.75
921.12	226.76
921.42	226.76
921.72	226.82
922.02	226.84
922.32	226.86
922.63	226.91
922.93	226.97
923.23	226.98
923.53	226.96
923.83	226.87
924.13	226.90
924.44	226.89
924.74	226.93
925.04	226.94
925.34	226.94
925.64	226.88
925.94	226.89
926.24	226.95
926.55	226.96
926.85	227.00
927.15	227.00
927.45	226.99
927.75	227.01
928.05	226.98
928.35	226.97
928.65	227.01
928.95	226.97
929.26	226.93
929.56	226.93
929.86	226.91
930.16	226.88
930.46	226.86
930.76	226.87
931.06	226.83
931.36	226.80
931.66	226.82
931.96	226.89
932.26	226.92
932.56	226.86
932.86	226.87
933.16	226.86
933.46	226.90
933.76	226.93
934.06	226.95
934.36	227.00
934.66	227.02
934.96	227.00
935.26	227.02
935.56	227.05
935.86	227.03
936.16	227.08
936.46	227.12
936.76	227.14
937.06	227.17
937.36	227.19
937.66	227.22
937.96	227.21
938.26	227.17
938.56	227.16
938.86	227.16
939.16	227.22
939.46	227.20
939.76	227.19
940.06	227.19
940.35	227.19
940.65	227.11
940.95	227.12
941.25	227.10
941.55	227.09
941.85	227.09
942.15	227.09
942.45	227.10
942.75	227.10
943.04	227.11
943.34	227.09
943.64	227.05
943.94	227.03
944.24	227.02
944.54	227.04
944.84	227.03
945.13	227.05
945.43	227.01
945.73	227.01
946.03	227.01
946.33	227.00
946.62	226.99
946.92	227.00
947.22	227.03
947.52	227.03
947.82	227.03
948.11	227.00
948.41	226.99
948.71	226.96
949.01	226.95
949.31	226.96
949.60	226.96
949.90	227.00
950.20	226.98
950.50	226.98
950.79	226.98
951.09	226.99
951.39	227.01
951.69	227.00
951.98	227.03
952.28	227.03
952.58	227.02
952.87	227.03
953.17	227.07
953.47	227.02
953.76	227.01
954.06	227.02
954.36	226.99
954.66	226.98
954.95	227.00
955.25	227.03
955.55	226.99
955.84	226.96
956.14	226.95
956.44	226.96
956.73	226.95
957.03	226.94
957.32	226.94
957.62	226.90
957.92	226.91
958.21	226.88
958.51	226.97
958.81	226.98
959.10	226.98
959.40	226.97
959.69	226.97
959.99	227.00
960.29	226.96
960.58	226.97
960.88	227.00
961.17	227.02
961.47	226.99
961.76	226.99
962.06	227.04
962.36	226.99
962.65	227.02
962.95	227.01
963.24	227.04
963.54	227.03
963.83	227.01
964.13	227.02
964.42	227.01
964.72	226.95
965.01	226.96
965.31	226.95
965.60	226.92
965.90	226.97
966.19	226.92
966.49	226.94
966.78	226.91
967.08	226.92
967.37	226.90
967.67	226.90
967.96	226.94
968.26	226.91
968.55	226.92
968.85	226.91
969.14	226.92
969.43	226.91
969.73	226.88
970.02	226.89
970.32	226.88
970.61	226.86
970.91	226.82
971.20	226.82
971.49	226.81
971.79	226.84
972.08	226.80
972.38	226.84
972.67	226.85
972.96	226.89
973.26	226.86
973.55	226.88
973.85	226.86
974.14	226.85
974.43	226.87
974.73	226.88
975.02	226.85
975.31	226.82
975.61	226.79
975.90	226.79
976.19	226.78
976.49	226.79
976.78	226.79
977.07	226.75
977.37	226.76
977.66	226.75
977.95	226.72
978.24	226.72
978.54	226.72
978.83	226.65
979.12	226.65
979.42	226.63
979.71	226.60
980.00	226.61
980.29	226.59
980.59	226.56
980.88	226.57
981.17	226.59
981.46	226.59
981.76	226.59
982.05	226.60
982.34	226.61
982.63	226.57
982.93	226.57
983.22	226.62
983.51	226.63
983.80	226.64
984.09	226.66
984.39	226.63
984.68	226.61
984.97	226.64
985.26	226.59
985.55	226.64
985.85	226.64
986.14	226.64
986.43	226.65
986.72	226.63
987.01	226.60
987.30	226.58
987.59	226.59
987.89	226.58
988.18	226.56
988.47	226.53
988.76	226.54
989.05	226.58
989.34	226.59
989.63	226.58
989.92	226.57
990.22	226.56
990.51	226.57
990.80	226.57
991.09	226.58
991.38	226.60
991.67	226.58
991.96	226.56
992.25	226.56
992.54	226.54
992.83	226.60
993.12	226.57
993.41	226.62
993.70	226.68
993.99	226.73
994.28	226.77
994.58	226.80
994.87	226.82
995.16	226.80
995.45	226.77
995.74	226.75
996.03	226.77
996.32	226.79
996.61	226.80
996.90	226.80
997.19	226.84
997.48	226.88
997.77	226.87
998.06	226.87
998.34	226.87
998.63	226.90
998.92	226.89
999.21	226.94
999.50	226.94
999.79	226.88
1000.08	226.88
1000.37	226.88
1000.66	226.91
1000.95	226.92
1001.24	226.93
1001.53	226.97
1001.82	227.00
1002.11	226.96
1002.40	226.98
1002.68	227.02
1002.97	227.07
1003.26	227.03
1003.55	227.03
1003.84	227.07
1004.13	227.10
1004.42	227.12
1004.71	227.10
1004.99	227.10
1005.28	227.15
1005.57	227.13
1005.86	227.12
1006.15	227.09
1006.44	227.07
1006.72	227.08
1007.01	227.07
1007.30	227.09
1007.59	227.07
1007.88	227.04
1008.17	227.07
1008.45	227.04
1008.74	227.02
1009.03	226.94
1009.32	226.96
1009.60	226.94
1009.89	226.93
1010.18	226.88
1010.47	226.88
1010.76	226.88
1011.04	226.90
1011.33	226.86
1011.62	226.89
1011.91	226.91
1012.19	226.95
1012.48	226.97
1012.77	226.96
1013.05	226.98
1013.34	226.98
1013.63	226.97
1013.92	226.98
1014.20	226.97
1014.49	226.97
1014.78	226.97
1015.06	226.97
1015.35	226.96
1015.64	226.99
1015.92	226.96
1016.21	226.98
1016.50	226.99
1016.78	227.04
1017.07	226.99
1017.36	226.97
1017.64	226.93
1017.93	226.92
1018.22	226.88
1018.50	226.85
1018.79	226.85
1019.08	226.81
1019.36	226.79
1019.65	226.76
1019.93	226.78
1020.22	226.79
1020.51	226.84
1020.79	226.81
1021.08	226.55
1021.36	226.57
1021.65	226.87
1021.94	226.88
1022.22	226.66
1022.51	226.28
1022.79	227.34
1023.08	226.92
1023.36	228.08
1023.65	226.25
>>>>>End Processed Spectral Data<<<<<
