SpectraSuite Data File
++++++++++++++++++++++++++++++++++++
Date: Fri Feb 01 15:28:24 EST 2013
User: group
Dark Spectrum Present: No
Reference Spectrum Present: No
Number of Sampled Component Spectra: 1
Spectrometers: USB2E7196
Integration Time (usec): 35000 (USB2E7196)
Spectra Averaged: 100 (USB2E7196)
Boxcar Smoothing: 10 (USB2E7196)
Correct for Electrical Dark: No (USB2E7196)
Strobe/Lamp Enabled: No (USB2E7196)
Correct for Detector Non-linearity: No (USB2E7196)
Correct for Stray Light: No (USB2E7196)
Number of Pixels in Processed Spectrum: 2048
>>>>>Begin Processed Spectral Data<<<<<
339.09	0.00
339.48	215.20
339.86	216.76
340.24	217.69
340.63	219.73
341.01	222.62
341.39	221.87
341.78	223.21
342.16	224.38
342.54	224.95
342.93	213.39
343.31	224.18
343.69	224.72
344.07	225.17
344.46	225.60
344.84	225.95
345.22	226.18
345.60	226.43
345.99	226.63
346.37	226.77
346.75	226.87
347.13	226.92
347.52	226.95
347.90	227.05
348.28	227.08
348.66	227.13
349.05	227.11
349.43	227.10
349.81	227.16
350.19	227.22
350.57	227.27
350.96	227.35
351.34	227.42
351.72	227.47
352.10	227.55
352.48	227.62
352.87	227.67
353.25	227.71
353.63	227.78
354.01	227.81
354.39	227.89
354.77	227.97
355.15	228.08
355.54	228.15
355.92	228.20
356.30	228.27
356.68	228.41
357.06	228.48
357.44	228.55
357.82	228.60
358.20	228.67
358.58	228.72
358.97	228.77
359.35	228.85
359.73	228.93
360.11	229.01
360.49	229.06
360.87	229.12
361.25	229.17
361.63	229.22
362.01	229.28
362.39	229.32
362.77	229.36
363.15	229.34
363.53	229.38
363.91	229.39
364.29	229.40
364.67	229.35
365.05	229.39
365.43	229.41
365.81	229.42
366.19	229.48
366.57	229.54
366.95	229.54
367.33	229.52
367.71	229.47
368.09	229.45
368.47	229.46
368.85	229.44
369.23	229.43
369.61	229.36
369.99	229.39
370.37	229.37
370.75	229.37
371.13	229.31
371.51	229.23
371.89	229.20
372.27	229.15
372.65	229.06
373.03	229.00
373.41	228.93
373.78	228.86
374.16	228.75
374.54	228.66
374.92	228.59
375.30	228.50
375.68	228.46
376.06	228.40
376.44	228.32
376.82	228.23
377.19	228.18
377.57	228.15
377.95	228.04
378.33	227.94
378.71	227.81
379.09	227.77
379.47	227.71
379.84	227.63
380.22	227.55
380.60	227.50
380.98	227.41
381.36	227.37
381.73	227.33
382.11	227.25
382.49	227.19
382.87	227.10
383.25	227.09
383.62	227.13
384.00	227.05
384.38	226.97
384.76	226.97
385.13	226.91
385.51	226.85
385.89	226.77
386.27	226.72
386.64	226.72
387.02	226.66
387.40	226.65
387.78	226.59
388.15	226.57
388.53	226.52
388.91	226.51
389.29	226.46
389.66	226.38
390.04	226.36
390.42	226.33
390.79	226.33
391.17	226.28
391.55	226.15
391.92	226.15
392.30	226.19
392.68	226.12
393.05	226.13
393.43	226.16
393.81	226.19
394.18	226.19
394.56	226.18
394.94	226.24
395.31	226.25
395.69	226.34
396.06	226.36
396.44	226.40
396.82	226.45
397.19	226.51
397.57	226.58
397.95	226.68
398.32	226.73
398.70	226.78
399.07	226.88
399.45	226.96
399.82	227.00
400.20	227.04
400.58	227.14
400.95	227.20
401.33	227.31
401.70	227.44
402.08	227.57
402.45	227.66
402.83	227.79
403.20	227.93
403.58	228.04
403.95	228.19
404.33	228.33
404.71	228.44
405.08	228.64
405.46	228.78
405.83	228.92
406.21	229.08
406.58	229.27
406.96	229.44
407.33	229.64
407.70	229.87
408.08	230.17
408.45	230.40
408.83	230.64
409.20	230.82
409.58	231.02
409.95	231.27
410.33	231.55
410.70	231.77
411.08	232.05
411.45	232.36
411.82	232.70
412.20	233.05
412.57	233.49
412.95	233.83
413.32	234.26
413.69	234.65
414.07	235.09
414.44	235.57
414.82	236.03
415.19	236.58
415.56	237.12
415.94	237.64
416.31	238.29
416.68	238.93
417.06	239.69
417.43	240.39
417.81	241.13
418.18	241.92
418.55	242.79
418.93	243.66
419.30	244.53
419.67	245.44
420.04	246.40
420.42	247.41
420.79	248.54
421.16	249.67
421.54	250.89
421.91	252.12
422.28	253.39
422.66	254.74
423.03	256.01
423.40	257.33
423.77	258.78
424.15	260.19
424.52	261.68
424.89	263.22
425.26	264.80
425.64	266.26
426.01	267.83
426.38	269.45
426.75	271.14
427.13	272.87
427.50	274.67
427.87	276.55
428.24	278.37
428.61	280.15
428.99	282.09
429.36	284.15
429.73	286.21
430.10	288.18
430.47	290.21
430.85	292.33
431.22	294.61
431.59	296.97
431.96	299.20
432.33	301.64
432.70	303.99
433.08	306.79
433.45	309.43
433.82	312.07
434.19	314.99
434.56	317.81
434.93	320.44
435.30	323.09
435.68	325.98
436.05	328.85
436.42	331.63
436.79	334.16
437.16	336.87
437.53	339.68
437.90	342.54
438.27	345.28
438.64	348.14
439.01	350.71
439.38	352.95
439.75	355.14
440.13	357.68
440.50	360.08
440.87	361.93
441.24	363.87
441.61	366.01
441.98	367.49
442.35	369.27
442.72	371.18
443.09	372.94
443.46	373.90
443.83	374.48
444.20	374.98
444.57	375.82
444.94	376.12
445.31	376.50
445.68	376.85
446.05	376.93
446.42	376.50
446.79	376.09
447.16	375.65
447.53	375.35
447.90	374.13
448.27	372.96
448.64	371.38
449.01	370.24
449.37	368.29
449.74	366.38
450.11	364.10
450.48	361.60
450.85	359.08
451.22	356.99
451.59	354.92
451.96	352.99
452.33	350.41
452.70	348.01
453.07	345.16
453.43	342.23
453.80	339.48
454.17	336.83
454.54	334.29
454.91	331.56
455.28	328.86
455.65	326.39
456.02	323.96
456.38	321.79
456.75	319.14
457.12	316.87
457.49	314.66
457.86	312.50
458.23	310.66
458.59	308.65
458.96	306.52
459.33	304.70
459.70	302.85
460.07	301.30
460.43	299.64
460.80	297.99
461.17	296.56
461.54	295.02
461.91	293.59
462.27	292.16
462.64	290.92
463.01	289.55
463.38	288.27
463.74	286.87
464.11	285.75
464.48	284.72
464.85	283.61
465.21	282.73
465.58	281.82
465.95	280.71
466.32	279.78
466.68	278.91
467.05	278.00
467.42	277.11
467.78	276.20
468.15	275.28
468.52	274.64
468.88	273.78
469.25	273.02
469.62	272.39
469.98	271.67
470.35	271.05
470.72	270.45
471.08	269.78
471.45	269.23
471.82	268.65
472.18	268.04
472.55	267.60
472.92	267.06
473.28	266.58
473.65	266.13
474.02	265.67
474.38	265.26
474.75	264.94
475.11	264.57
475.48	264.31
475.85	264.09
476.21	263.83
476.58	263.62
476.94	263.50
477.31	263.34
477.67	263.21
478.04	263.02
478.41	262.94
478.77	262.96
479.14	262.91
479.50	262.93
479.87	262.98
480.23	263.05
480.60	263.12
480.96	263.19
481.33	263.41
481.69	263.62
482.06	263.84
482.42	264.01
482.79	264.26
483.15	264.54
483.52	264.92
483.88	265.30
484.25	265.68
484.61	266.06
484.98	266.49
485.34	267.01
485.71	267.61
486.07	268.24
486.44	268.79
486.80	269.46
487.17	270.19
487.53	270.99
487.90	271.82
488.26	272.76
488.62	273.72
488.99	274.67
489.35	275.69
489.72	276.81
490.08	278.04
490.44	279.27
490.81	280.61
491.17	281.94
491.54	283.42
491.90	284.95
492.26	286.60
492.63	288.34
492.99	290.15
493.36	292.02
493.72	294.04
494.08	296.19
494.45	298.46
494.81	300.81
495.17	303.26
495.54	305.84
495.90	308.52
496.26	311.36
496.63	314.34
496.99	317.44
497.35	320.71
497.72	324.09
498.08	327.64
498.44	331.32
498.80	335.25
499.17	339.27
499.53	343.48
499.89	347.85
500.26	352.40
500.62	357.07
500.98	362.10
501.34	367.19
501.71	372.52
502.07	377.94
502.43	383.58
502.79	389.40
503.16	395.47
503.52	401.76
503.88	408.20
504.24	414.88
504.60	421.83
504.97	428.96
505.33	436.29
505.69	444.03
506.05	451.79
506.41	459.73
506.78	467.91
507.14	476.33
507.50	485.10
507.86	494.13
508.22	503.36
508.59	512.59
508.95	522.22
509.31	532.08
509.67	542.17
510.03	552.40
510.39	562.98
510.75	573.80
511.12	584.78
511.48	596.07
511.84	607.46
512.20	618.95
512.56	630.95
512.92	643.16
513.28	655.49
513.64	668.01
514.00	680.69
514.37	693.68
514.73	706.78
515.09	719.82
515.45	733.14
515.81	746.73
516.17	760.74
516.53	774.83
516.89	788.92
517.25	803.28
517.61	817.81
517.97	832.25
518.33	846.75
518.69	861.54
519.05	876.62
519.41	891.84
519.77	907.47
520.13	922.93
520.49	938.36
520.85	953.80
521.21	969.52
521.57	985.82
521.93	1001.65
522.29	1018.11
522.65	1034.33
523.01	1050.53
523.37	1066.62
523.73	1082.85
524.09	1098.99
524.45	1115.41
524.81	1131.94
525.17	1148.84
525.53	1165.85
525.89	1182.78
526.25	1199.60
526.61	1216.03
526.97	1232.83
527.33	1249.28
527.68	1265.93
528.04	1282.57
528.40	1299.24
528.76	1316.42
529.12	1332.98
529.48	1349.93
529.84	1366.07
530.20	1382.87
530.56	1399.99
530.91	1417.36
531.27	1434.17
531.63	1450.68
531.99	1467.42
532.35	1483.59
532.71	1499.40
533.07	1515.67
533.42	1531.57
533.78	1547.67
534.14	1563.98
534.50	1579.33
534.86	1595.25
535.21	1610.42
535.57	1626.42
535.93	1641.90
536.29	1656.70
536.65	1671.96
537.00	1686.80
537.36	1702.12
537.72	1716.61
538.08	1730.97
538.44	1744.84
538.79	1758.68
539.15	1772.46
539.51	1786.23
539.87	1800.53
540.22	1814.37
540.58	1828.11
540.94	1841.56
541.29	1854.42
541.65	1867.11
542.01	1880.49
542.37	1892.78
542.72	1905.42
543.08	1917.16
543.44	1929.59
543.79	1940.86
544.15	1951.77
544.51	1963.24
544.87	1974.22
545.22	1985.18
545.58	1995.53
545.94	2005.33
546.29	2015.31
546.65	2025.26
547.01	2034.42
547.36	2043.21
547.72	2051.66
548.07	2059.71
548.43	2067.96
548.79	2076.18
549.14	2083.80
549.50	2091.21
549.86	2099.08
550.21	2106.27
550.57	2113.50
550.92	2120.28
551.28	2127.41
551.64	2134.46
551.99	2141.13
552.35	2147.33
552.70	2153.49
553.06	2159.49
553.41	2165.89
553.77	2172.08
554.13	2178.14
554.48	2184.29
554.84	2189.69
555.19	2195.10
555.55	2200.17
555.90	2204.61
556.26	2209.38
556.61	2214.07
556.97	2218.32
557.32	2222.50
557.68	2226.68
558.03	2230.97
558.39	2234.68
558.74	2239.28
559.10	2243.24
559.45	2246.81
559.81	2250.99
560.16	2254.78
560.52	2257.98
560.87	2261.30
561.23	2263.82
561.58	2266.75
561.94	2269.23
562.29	2271.65
562.64	2274.30
563.00	2276.88
563.35	2280.39
563.71	2283.57
564.06	2286.76
564.42	2289.53
564.77	2291.94
565.12	2294.12
565.48	2295.99
565.83	2297.72
566.19	2299.05
566.54	2300.05
566.89	2301.33
567.25	2302.10
567.60	2303.50
567.96	2305.13
568.31	2306.10
568.66	2307.17
569.02	2307.71
569.37	2307.98
569.72	2308.77
570.08	2308.94
570.43	2309.00
570.78	2308.29
571.14	2306.65
571.49	2305.35
571.84	2305.02
572.20	2303.80
572.55	2302.78
572.90	2301.08
573.26	2299.66
573.61	2297.93
573.96	2295.97
574.31	2292.86
574.67	2289.67
575.02	2285.96
575.37	2282.58
575.72	2278.61
576.08	2275.26
576.43	2271.85
576.78	2268.14
577.13	2264.99
577.49	2261.71
577.84	2258.21
578.19	2254.29
578.54	2250.61
578.90	2246.19
579.25	2240.56
579.60	2235.64
579.95	2230.53
580.30	2225.45
580.66	2220.20
581.01	2215.10
581.36	2210.18
581.71	2205.84
582.06	2201.35
582.42	2196.69
582.77	2191.15
583.12	2186.54
583.47	2181.60
583.82	2176.46
584.17	2171.19
584.53	2165.50
584.88	2159.77
585.23	2153.68
585.58	2148.27
585.93	2142.92
586.28	2138.13
586.63	2132.84
586.98	2127.64
587.34	2122.97
587.69	2118.15
588.04	2112.81
588.39	2107.09
588.74	2100.46
589.09	2094.25
589.44	2087.32
589.79	2081.17
590.14	2075.60
590.49	2068.94
590.84	2062.59
591.19	2056.56
591.54	2050.00
591.89	2042.55
592.25	2035.70
592.60	2028.63
592.95	2020.95
593.30	2013.44
593.65	2005.81
594.00	1998.86
594.35	1991.49
594.70	1983.17
595.05	1975.72
595.40	1968.46
595.75	1960.94
596.10	1954.62
596.45	1947.83
596.80	1941.53
597.15	1934.91
597.50	1927.75
597.85	1921.36
598.19	1914.62
598.54	1907.45
598.89	1900.88
599.24	1895.01
599.59	1888.33
599.94	1882.07
600.29	1875.76
600.64	1869.17
600.99	1861.66
601.34	1854.68
601.69	1847.72
602.04	1841.03
602.39	1833.71
602.74	1826.84
603.08	1820.14
603.43	1813.47
603.78	1806.17
604.13	1798.98
604.48	1791.74
604.83	1784.92
605.18	1777.83
605.53	1769.67
605.87	1761.61
606.22	1754.18
606.57	1746.06
606.92	1738.66
607.27	1731.38
607.62	1724.32
607.96	1716.90
608.31	1710.20
608.66	1702.63
609.01	1695.05
609.36	1687.30
609.70	1679.18
610.05	1670.92
610.40	1663.05
610.75	1654.52
611.10	1646.82
611.44	1638.49
611.79	1630.39
612.14	1621.65
612.49	1612.53
612.83	1604.34
613.18	1596.21
613.53	1588.14
613.88	1579.79
614.22	1571.53
614.57	1563.08
614.92	1555.14
615.27	1547.59
615.61	1539.31
615.96	1531.20
616.31	1523.56
616.65	1516.24
617.00	1508.78
617.35	1501.24
617.70	1492.87
618.04	1484.53
618.39	1476.29
618.74	1468.59
619.08	1460.34
619.43	1452.72
619.78	1445.83
620.12	1438.69
620.47	1431.21
620.82	1423.16
621.16	1415.68
621.51	1408.09
621.85	1400.34
622.20	1391.74
622.55	1383.39
622.89	1375.62
623.24	1368.08
623.59	1360.72
623.93	1353.16
624.28	1345.87
624.62	1338.24
624.97	1331.13
625.32	1324.43
625.66	1317.42
626.01	1310.27
626.35	1302.67
626.70	1295.02
627.04	1287.21
627.39	1279.31
627.73	1271.93
628.08	1265.03
628.43	1257.65
628.77	1250.23
629.12	1242.58
629.46	1235.41
629.81	1227.94
630.15	1220.63
630.50	1213.21
630.84	1204.94
631.19	1197.05
631.53	1189.56
631.88	1182.03
632.22	1174.38
632.57	1167.04
632.91	1159.44
633.26	1151.97
633.60	1144.69
633.95	1137.71
634.29	1130.73
634.64	1124.09
634.98	1116.66
635.32	1109.46
635.67	1102.93
636.01	1096.31
636.36	1089.53
636.70	1083.03
637.05	1076.55
637.39	1070.07
637.73	1063.54
638.08	1057.77
638.42	1051.86
638.77	1045.40
639.11	1038.84
639.45	1032.49
639.80	1025.77
640.14	1019.35
640.49	1012.90
640.83	1006.65
641.17	1000.25
641.52	993.95
641.86	987.49
642.20	981.68
642.55	975.35
642.89	968.77
643.23	962.25
643.58	956.52
643.92	950.28
644.26	944.16
644.61	938.19
644.95	932.13
645.29	925.45
645.64	918.64
645.98	912.23
646.32	906.38
646.66	900.33
647.01	894.52
647.35	888.83
647.69	882.95
648.04	877.35
648.38	871.59
648.72	865.49
649.06	859.47
649.41	853.62
649.75	847.55
650.09	841.64
650.43	835.82
650.78	829.64
651.12	823.74
651.46	818.00
651.80	812.21
652.14	806.84
652.49	801.38
652.83	796.20
653.17	790.57
653.51	784.76
653.85	779.38
654.20	773.73
654.54	767.70
654.88	761.96
655.22	756.04
655.56	750.23
655.90	744.78
656.25	739.49
656.59	734.07
656.93	729.07
657.27	723.94
657.61	718.55
657.95	713.39
658.29	708.23
658.64	703.03
658.98	697.67
659.32	692.21
659.66	687.11
660.00	681.72
660.34	676.81
660.68	671.97
661.02	666.91
661.36	662.26
661.70	657.84
662.05	653.58
662.39	649.37
662.73	645.05
663.07	640.72
663.41	636.24
663.75	631.75
664.09	627.20
664.43	622.87
664.77	618.74
665.11	614.60
665.45	610.57
665.79	606.48
666.13	602.33
666.47	598.34
666.81	594.13
667.15	590.08
667.49	586.21
667.83	582.41
668.17	578.54
668.51	574.41
668.85	570.39
669.19	566.47
669.53	562.60
669.87	558.69
670.21	554.98
670.55	551.40
670.89	547.98
671.23	544.56
671.57	541.00
671.91	537.46
672.25	533.98
672.58	530.44
672.92	527.07
673.26	523.97
673.60	520.72
673.94	517.69
674.28	514.88
674.62	511.88
674.96	508.76
675.30	505.77
675.64	502.87
675.97	500.11
676.31	497.25
676.65	494.29
676.99	491.61
677.33	488.74
677.67	485.88
678.01	482.85
678.34	479.89
678.68	477.03
679.02	474.22
679.36	471.42
679.70	468.71
680.04	465.99
680.37	463.09
680.71	460.32
681.05	457.69
681.39	454.92
681.73	452.30
682.06	449.77
682.40	447.18
682.74	444.67
683.08	442.09
683.42	439.50
683.75	437.06
684.09	434.49
684.43	432.03
684.77	429.57
685.10	427.22
685.44	424.94
685.78	422.67
686.12	420.39
686.45	418.14
686.79	415.80
687.13	413.59
687.46	411.46
687.80	409.30
688.14	407.09
688.48	405.05
688.81	402.78
689.15	400.70
689.49	398.61
689.82	396.57
690.16	394.54
690.50	392.59
690.83	390.58
691.17	388.58
691.51	386.70
691.84	384.85
692.18	382.94
692.52	380.95
692.85	378.99
693.19	377.14
693.52	375.30
693.86	373.53
694.20	371.75
694.53	369.98
694.87	368.16
695.21	366.35
695.54	364.48
695.88	362.76
696.21	361.02
696.55	359.34
696.88	357.61
697.22	355.89
697.56	354.28
697.89	352.67
698.23	351.09
698.56	349.45
698.90	347.86
699.23	346.19
699.57	344.63
699.90	343.10
700.24	341.53
700.58	340.00
700.91	338.50
701.25	337.01
701.58	335.60
701.92	334.23
702.25	332.86
702.59	331.53
702.92	330.23
703.26	328.91
703.59	327.63
703.93	326.48
704.26	325.24
704.60	323.90
704.93	322.61
705.26	321.39
705.60	320.24
705.93	319.08
706.27	318.08
706.60	316.97
706.94	315.89
707.27	314.80
707.61	313.74
707.94	312.70
708.27	311.64
708.61	310.58
708.94	309.59
709.28	308.66
709.61	307.68
709.94	306.77
710.28	305.76
710.61	304.82
710.95	303.79
711.28	302.91
711.61	301.98
711.95	301.08
712.28	300.14
712.61	299.17
712.95	298.27
713.28	297.34
713.61	296.49
713.95	295.60
714.28	294.79
714.61	293.95
714.95	293.09
715.28	292.27
715.61	291.42
715.95	290.55
716.28	289.62
716.61	288.79
716.95	287.90
717.28	287.18
717.61	286.39
717.94	285.66
718.28	284.85
718.61	284.15
718.94	283.46
719.27	282.79
719.61	282.12
719.94	281.47
720.27	280.75
720.60	280.09
720.94	279.43
721.27	278.81
721.60	278.23
721.93	277.66
722.27	277.11
722.60	276.53
722.93	276.01
723.26	275.53
723.59	274.99
723.93	274.49
724.26	273.92
724.59	273.36
724.92	272.81
725.25	272.32
725.59	271.80
725.92	271.31
726.25	270.76
726.58	270.28
726.91	269.79
727.24	269.35
727.57	268.85
727.91	268.37
728.24	267.88
728.57	267.38
728.90	266.92
729.23	266.41
729.56	265.98
729.89	265.46
730.22	264.96
730.55	264.47
730.89	264.02
731.22	263.58
731.55	263.13
731.88	262.70
732.21	262.26
732.54	261.83
732.87	261.33
733.20	260.97
733.53	260.56
733.86	260.18
734.19	259.78
734.52	259.40
734.85	259.06
735.18	258.64
735.51	258.29
735.84	257.91
736.17	257.53
736.50	257.12
736.83	256.90
737.16	256.55
737.49	256.22
737.82	255.88
738.15	255.58
738.48	255.26
738.81	254.93
739.14	254.59
739.47	254.26
739.80	254.00
740.13	253.68
740.46	253.37
740.79	253.05
741.12	252.70
741.45	252.42
741.78	252.13
742.11	251.85
742.44	251.52
742.77	251.24
743.10	250.94
743.43	250.65
743.75	250.24
744.08	250.09
744.41	249.81
744.74	249.54
745.07	249.24
745.40	248.98
745.73	248.78
746.06	248.53
746.39	248.26
746.71	248.00
747.04	247.76
747.37	247.50
747.70	247.25
748.03	247.02
748.36	246.72
748.68	246.50
749.01	246.25
749.34	246.02
749.67	245.81
750.00	245.61
750.33	245.44
750.65	245.26
750.98	244.96
751.31	244.78
751.64	244.54
751.97	244.38
752.29	244.16
752.62	243.88
752.95	243.66
753.28	243.46
753.60	243.27
753.93	243.09
754.26	242.87
754.59	242.67
754.91	242.47
755.24	242.33
755.57	242.09
755.90	241.93
756.22	241.76
756.55	241.55
756.88	241.36
757.20	241.16
757.53	240.98
757.86	240.80
758.19	240.63
758.51	240.46
758.84	240.24
759.17	240.07
759.49	239.94
759.82	239.81
760.15	239.65
760.47	239.46
760.80	239.28
761.13	239.18
761.45	239.02
761.78	238.91
762.11	238.74
762.43	238.61
762.76	238.46
763.08	238.32
763.41	238.18
763.74	238.06
764.06	237.90
764.39	237.75
764.71	237.60
765.04	237.44
765.37	237.32
765.69	237.19
766.02	237.07
766.34	236.95
766.67	236.81
767.00	236.72
767.32	236.65
767.65	236.57
767.97	236.42
768.30	236.32
768.62	236.18
768.95	236.06
769.27	235.96
769.60	235.84
769.92	235.72
770.25	235.58
770.57	235.44
770.90	235.35
771.22	235.24
771.55	235.14
771.87	235.09
772.20	234.98
772.52	234.99
772.85	235.02
773.17	234.91
773.50	234.81
773.82	234.70
774.15	234.59
774.47	234.45
774.80	234.36
775.12	234.25
775.45	234.14
775.77	234.10
776.09	234.01
776.42	233.95
776.74	233.92
777.07	233.85
777.39	233.81
777.72	233.74
778.04	233.71
778.36	233.64
778.69	233.52
779.01	233.50
779.33	233.34
779.66	233.16
779.98	233.08
780.31	233.01
780.63	233.04
780.95	233.01
781.28	232.96
781.60	232.91
781.92	232.85
782.25	232.82
782.57	232.72
782.89	232.66
783.22	232.56
783.54	232.48
783.86	232.44
784.19	232.36
784.51	232.29
784.83	232.21
785.16	232.15
785.48	232.11
785.80	232.01
786.12	231.97
786.45	231.90
786.77	231.88
787.09	231.85
787.42	231.72
787.74	231.64
788.06	231.59
788.38	231.55
788.71	231.49
789.03	231.46
789.35	231.45
789.67	231.40
789.99	231.38
790.32	231.34
790.64	231.29
790.96	231.30
791.28	231.26
791.61	231.22
791.93	231.19
792.25	231.15
792.57	231.20
792.89	231.15
793.21	231.10
793.54	231.05
793.86	230.97
794.18	230.96
794.50	230.91
794.82	230.88
795.14	230.83
795.47	230.83
795.79	230.75
796.11	230.70
796.43	230.66
796.75	230.63
797.07	230.62
797.39	230.61
797.71	230.55
798.04	230.54
798.36	230.49
798.68	230.46
799.00	230.45
799.32	230.34
799.64	230.32
799.96	230.32
800.28	230.31
800.60	230.30
800.92	230.24
801.24	230.23
801.56	230.18
801.89	230.13
802.21	230.11
802.53	230.10
802.85	230.08
803.17	230.11
803.49	230.04
803.81	229.98
804.13	229.95
804.45	229.90
804.77	229.85
805.09	229.86
805.41	229.80
805.73	229.75
806.05	229.68
806.37	229.64
806.69	229.59
807.01	229.56
807.33	229.56
807.65	229.51
807.97	229.54
808.28	229.52
808.60	229.50
808.92	229.46
809.24	229.50
809.56	229.48
809.88	229.42
810.20	229.44
810.52	229.42
810.84	229.38
811.16	229.34
811.48	229.31
811.80	229.31
812.12	229.31
812.43	229.30
812.75	229.31
813.07	229.30
813.39	229.26
813.71	229.22
814.03	229.16
814.35	229.13
814.67	229.03
814.98	229.00
815.30	229.02
815.62	228.99
815.94	228.90
816.26	228.93
816.58	228.88
816.89	228.84
817.21	228.82
817.53	228.82
817.85	228.80
818.17	228.79
818.48	228.73
818.80	228.71
819.12	228.70
819.44	228.71
819.76	228.69
820.07	228.71
820.39	228.69
820.71	228.68
821.03	228.66
821.34	228.67
821.66	228.68
821.98	228.66
822.30	228.63
822.61	228.69
822.93	228.63
823.25	228.64
823.57	228.64
823.88	228.65
824.20	228.62
824.52	228.63
824.83	228.63
825.15	228.61
825.47	228.61
825.79	228.60
826.10	228.55
826.42	228.52
826.74	228.48
827.05	228.49
827.37	228.51
827.69	228.55
828.00	228.55
828.32	228.53
828.64	228.50
828.95	228.58
829.27	228.56
829.58	228.49
829.90	228.45
830.22	228.45
830.53	228.39
830.85	228.37
831.17	228.34
831.48	228.30
831.80	228.29
832.11	228.25
832.43	228.23
832.75	228.22
833.06	228.30
833.38	228.30
833.69	228.29
834.01	228.28
834.32	228.23
834.64	228.20
834.96	228.20
835.27	228.16
835.59	228.09
835.90	228.04
836.22	228.07
836.53	228.07
836.85	228.03
837.16	228.11
837.48	228.10
837.79	228.13
838.11	228.12
838.42	228.11
838.74	228.13
839.05	228.10
839.37	228.05
839.68	227.93
840.00	227.88
840.31	227.88
840.63	227.84
840.94	227.83
841.26	227.85
841.57	227.83
841.88	227.85
842.20	227.81
842.51	227.76
842.83	227.75
843.14	227.83
843.46	227.82
843.77	227.79
844.08	227.79
844.40	227.75
844.71	227.76
845.03	227.76
845.34	227.75
845.65	227.72
845.97	227.78
846.28	227.81
846.60	227.83
846.91	227.80
847.22	227.81
847.54	227.84
847.85	227.82
848.16	227.80
848.48	227.80
848.79	227.86
849.10	227.89
849.42	227.90
849.73	227.80
850.04	227.82
850.36	227.78
850.67	227.79
850.98	227.79
851.30	227.80
851.61	227.77
851.92	227.76
852.23	227.82
852.55	227.78
852.86	227.81
853.17	227.79
853.49	227.84
853.80	227.84
854.11	227.81
854.42	227.81
854.74	227.76
855.05	227.75
855.36	227.68
855.67	227.70
855.99	227.70
856.30	227.83
856.61	227.81
856.92	227.81
857.23	227.81
857.55	227.81
857.86	227.80
858.17	227.81
858.48	227.79
858.79	227.77
859.11	227.79
859.42	227.76
859.73	227.76
860.04	227.73
860.35	227.72
860.66	227.70
860.98	227.70
861.29	227.73
861.60	227.71
861.91	227.73
862.22	227.71
862.53	227.69
862.84	227.61
863.16	227.65
863.47	227.63
863.78	227.63
864.09	227.62
864.40	227.60
864.71	227.63
865.02	227.68
865.33	227.66
865.64	227.64
865.95	227.62
866.27	227.71
866.58	227.68
866.89	227.68
867.20	227.67
867.51	227.66
867.82	227.62
868.13	227.66
868.44	227.67
868.75	227.64
869.06	227.61
869.37	227.60
869.68	227.54
869.99	227.55
870.30	227.57
870.61	227.58
870.92	227.57
871.23	227.55
871.54	227.51
871.85	227.54
872.16	227.53
872.47	227.55
872.78	227.50
873.09	227.54
873.40	227.51
873.71	227.55
874.02	227.53
874.33	227.56
874.64	227.57
874.95	227.58
875.26	227.59
875.56	227.62
875.87	227.60
876.18	227.60
876.49	227.71
876.80	227.66
877.11	227.63
877.42	227.67
877.73	227.64
878.04	227.64
878.35	227.65
878.66	227.64
878.96	227.63
879.27	227.58
879.58	227.56
879.89	227.54
880.20	227.56
880.51	227.56
880.82	227.56
881.12	227.54
881.43	227.48
881.74	227.48
882.05	227.46
882.36	227.46
882.67	227.46
882.97	227.33
883.28	227.29
883.59	227.31
883.90	227.27
884.21	227.28
884.51	227.26
884.82	227.21
885.13	227.20
885.44	227.20
885.74	227.21
886.05	227.21
886.36	227.24
886.67	227.22
886.98	227.30
887.28	227.29
887.59	227.31
887.90	227.33
888.20	227.33
888.51	227.34
888.82	227.29
889.13	227.28
889.43	227.37
889.74	227.38
890.05	227.36
890.35	227.35
890.66	227.34
890.97	227.33
891.28	227.36
891.58	227.39
891.89	227.39
892.20	227.38
892.50	227.36
892.81	227.36
893.12	227.33
893.42	227.25
893.73	227.23
894.04	227.21
894.34	227.25
894.65	227.23
894.95	227.21
895.26	227.28
895.57	227.35
895.87	227.27
896.18	227.32
896.48	227.31
896.79	227.31
897.10	227.30
897.40	227.30
897.71	227.31
898.01	227.27
898.32	227.27
898.63	227.29
898.93	227.25
899.24	227.25
899.54	227.25
899.85	227.26
900.15	227.27
900.46	227.26
900.76	227.22
901.07	227.22
901.38	227.22
901.68	227.21
901.99	227.14
902.29	227.18
902.60	227.15
902.90	227.15
903.21	227.15
903.51	227.18
903.82	227.20
904.12	227.18
904.43	227.20
904.73	227.18
905.03	227.14
905.34	227.24
905.64	227.20
905.95	227.19
906.25	227.17
906.56	227.18
906.86	227.17
907.17	227.18
907.47	227.21
907.77	227.20
908.08	227.20
908.38	227.22
908.69	227.20
908.99	227.24
909.30	227.25
909.60	227.25
909.90	227.24
910.21	227.22
910.51	227.19
910.81	227.20
911.12	227.21
911.42	227.23
911.73	227.19
912.03	227.20
912.33	227.22
912.64	227.23
912.94	227.21
913.24	227.19
913.55	227.20
913.85	227.17
914.15	227.21
914.46	227.20
914.76	227.18
915.06	227.20
915.37	227.15
915.67	227.17
915.97	227.17
916.27	227.17
916.58	227.19
916.88	227.22
917.18	227.20
917.49	227.27
917.79	227.26
918.09	227.29
918.39	227.32
918.70	227.31
919.00	227.30
919.30	227.33
919.60	227.35
919.91	227.33
920.21	227.35
920.51	227.30
920.81	227.30
921.12	227.34
921.42	227.30
921.72	227.30
922.02	227.29
922.32	227.32
922.63	227.32
922.93	227.34
923.23	227.34
923.53	227.32
923.83	227.24
924.13	227.27
924.44	227.24
924.74	227.25
925.04	227.31
925.34	227.31
925.64	227.26
925.94	227.24
926.24	227.29
926.55	227.27
926.85	227.31
927.15	227.28
927.45	227.25
927.75	227.23
928.05	227.25
928.35	227.27
928.65	227.27
928.95	227.25
929.26	227.22
929.56	227.25
929.86	227.29
930.16	227.29
930.46	227.27
930.76	227.27
931.06	227.23
931.36	227.17
931.66	227.20
931.96	227.23
932.26	227.24
932.56	227.23
932.86	227.24
933.16	227.23
933.46	227.25
933.76	227.25
934.06	227.29
934.36	227.35
934.66	227.33
934.96	227.30
935.26	227.32
935.56	227.34
935.86	227.26
936.16	227.25
936.46	227.23
936.76	227.22
937.06	227.21
937.36	227.26
937.66	227.28
937.96	227.27
938.26	227.22
938.56	227.23
938.86	227.21
939.16	227.25
939.46	227.25
939.76	227.26
940.06	227.26
940.35	227.24
940.65	227.12
940.95	227.09
941.25	227.07
941.55	227.07
941.85	227.06
942.15	227.11
942.45	227.11
942.75	227.11
943.04	227.12
943.34	227.13
943.64	227.10
943.94	227.05
944.24	227.06
944.54	227.10
944.84	227.06
945.13	227.03
945.43	226.97
945.73	226.95
946.03	226.91
946.33	226.88
946.62	226.88
946.92	226.92
947.22	226.94
947.52	226.99
947.82	226.98
948.11	226.97
948.41	226.98
948.71	226.99
949.01	226.98
949.31	226.97
949.60	226.94
949.90	226.95
950.20	226.96
950.50	226.94
950.79	226.92
951.09	226.97
951.39	226.99
951.69	226.97
951.98	227.00
952.28	227.02
952.58	227.00
952.87	227.02
953.17	227.00
953.47	226.96
953.76	226.95
954.06	226.94
954.36	226.93
954.66	226.90
954.95	226.92
955.25	226.96
955.55	226.95
955.84	226.97
956.14	226.97
956.44	226.98
956.73	226.99
957.03	227.00
957.32	226.99
957.62	227.01
957.92	227.03
958.21	226.99
958.51	227.09
958.81	227.19
959.10	227.18
959.40	227.20
959.69	227.24
959.99	227.22
960.29	227.23
960.58	227.20
960.88	227.23
961.17	227.23
961.47	227.22
961.76	227.22
962.06	227.23
962.36	227.26
962.65	227.25
962.95	227.26
963.24	227.23
963.54	227.20
963.83	227.15
964.13	227.16
964.42	227.16
964.72	227.07
965.01	227.03
965.31	227.03
965.60	227.01
965.90	227.07
966.19	227.05
966.49	227.08
966.78	227.10
967.08	227.10
967.37	227.08
967.67	227.05
967.96	227.06
968.26	227.05
968.55	227.02
968.85	227.00
969.14	226.97
969.43	226.99
969.73	227.00
970.02	226.98
970.32	227.00
970.61	227.02
970.91	227.00
971.20	227.01
971.49	227.00
971.79	226.99
972.08	226.94
972.38	226.93
972.67	226.90
972.96	226.88
973.26	226.87
973.55	226.86
973.85	226.86
974.14	226.86
974.43	226.87
974.73	226.83
975.02	226.85
975.31	226.87
975.61	226.89
975.90	226.89
976.19	226.89
976.49	226.90
976.78	226.88
977.07	226.85
977.37	226.84
977.66	226.84
977.95	226.82
978.24	226.80
978.54	226.81
978.83	226.76
979.12	226.79
979.42	226.80
979.71	226.82
980.00	226.81
980.29	226.80
980.59	226.78
980.88	226.82
981.17	226.81
981.46	226.81
981.76	226.76
982.05	226.79
982.34	226.81
982.63	226.81
982.93	226.79
983.22	226.85
983.51	226.84
983.80	226.87
984.09	226.91
984.39	226.90
984.68	226.88
984.97	226.92
985.26	226.89
985.55	226.87
985.85	226.84
986.14	226.83
986.43	226.84
986.72	226.83
987.01	226.82
987.30	226.82
987.59	226.81
987.89	226.81
988.18	226.79
988.47	226.77
988.76	226.75
989.05	226.74
989.34	226.74
989.63	226.75
989.92	226.74
990.22	226.74
990.51	226.77
990.80	226.80
991.09	226.78
991.38	226.80
991.67	226.81
991.96	226.81
992.25	226.86
992.54	226.82
992.83	226.83
993.12	226.79
993.41	226.83
993.70	226.88
993.99	226.91
994.28	226.95
994.58	226.97
994.87	226.98
995.16	227.01
995.45	226.98
995.74	226.98
996.03	226.97
996.32	226.99
996.61	227.02
996.90	227.02
997.19	227.03
997.48	227.03
997.77	227.03
998.06	227.04
998.34	227.03
998.63	227.07
998.92	227.08
999.21	227.12
999.50	227.06
999.79	227.01
1000.08	227.04
1000.37	227.00
1000.66	226.97
1000.95	227.02
1001.24	227.03
1001.53	227.06
1001.82	227.03
1002.11	226.97
1002.40	226.97
1002.68	226.97
1002.97	227.02
1003.26	227.02
1003.55	227.00
1003.84	227.02
1004.13	227.05
1004.42	227.03
1004.71	227.03
1004.99	226.99
1005.28	226.99
1005.57	226.98
1005.86	226.99
1006.15	226.95
1006.44	226.91
1006.72	226.92
1007.01	226.89
1007.30	226.86
1007.59	226.83
1007.88	226.82
1008.17	226.85
1008.45	226.83
1008.74	226.73
1009.03	226.72
1009.32	226.72
1009.60	226.71
1009.89	226.67
1010.18	226.61
1010.47	226.58
1010.76	226.55
1011.04	226.55
1011.33	226.57
1011.62	226.58
1011.91	226.58
1012.19	226.55
1012.48	226.56
1012.77	226.58
1013.05	226.62
1013.34	226.61
1013.63	226.61
1013.92	226.62
1014.20	226.61
1014.49	226.61
1014.78	226.66
1015.06	226.60
1015.35	226.59
1015.64	226.65
1015.92	226.66
1016.21	226.68
1016.50	226.71
1016.78	226.72
1017.07	226.74
1017.36	226.75
1017.64	226.76
1017.93	226.77
1018.22	226.76
1018.50	226.76
1018.79	226.71
1019.08	226.67
1019.36	226.68
1019.65	226.70
1019.93	226.76
1020.22	226.79
1020.51	226.85
1020.79	226.84
1021.08	226.21
1021.36	226.06
1021.65	226.14
1021.94	226.85
1022.22	227.02
1022.51	226.99
1022.79	227.95
1023.08	226.87
1023.36	228.17
1023.65	226.42
>>>>>End Processed Spectral Data<<<<<
