SpectraSuite Data File
++++++++++++++++++++++++++++++++++++
Date: Fri Feb 01 14:56:25 EST 2013
User: group
Dark Spectrum Present: No
Reference Spectrum Present: No
Number of Sampled Component Spectra: 1
Spectrometers: USB2E7196
Integration Time (usec): 35000 (USB2E7196)
Spectra Averaged: 100 (USB2E7196)
Boxcar Smoothing: 10 (USB2E7196)
Correct for Electrical Dark: No (USB2E7196)
Strobe/Lamp Enabled: No (USB2E7196)
Correct for Detector Non-linearity: No (USB2E7196)
Correct for Stray Light: No (USB2E7196)
Number of Pixels in Processed Spectrum: 2048
>>>>>Begin Processed Spectral Data<<<<<
339.09	0.00
339.48	214.98
339.86	216.81
340.24	218.17
340.63	220.18
341.01	222.62
341.39	221.53
341.78	223.48
342.16	224.22
342.54	225.10
342.93	213.47
343.31	224.28
343.69	224.84
344.07	225.32
344.46	225.73
344.84	226.08
345.22	226.30
345.60	226.60
345.99	226.76
346.37	226.89
346.75	226.98
347.13	227.05
347.52	227.12
347.90	227.21
348.28	227.23
348.66	227.28
349.05	227.31
349.43	227.35
349.81	227.40
350.19	227.44
350.57	227.51
350.96	227.60
351.34	227.67
351.72	227.76
352.10	227.82
352.48	227.90
352.87	227.95
353.25	228.01
353.63	228.06
354.01	228.18
354.39	228.27
354.77	228.34
355.15	228.45
355.54	228.51
355.92	228.58
356.30	228.69
356.68	228.82
357.06	228.86
357.44	228.87
357.82	228.92
358.20	228.98
358.58	229.07
358.97	229.11
359.35	229.21
359.73	229.26
360.11	229.33
360.49	229.35
360.87	229.37
361.25	229.42
361.63	229.46
362.01	229.50
362.39	229.54
362.77	229.58
363.15	229.60
363.53	229.62
363.91	229.61
364.29	229.60
364.67	229.53
365.05	229.54
365.43	229.56
365.81	229.59
366.19	229.60
366.57	229.59
366.95	229.56
367.33	229.49
367.71	229.45
368.09	229.44
368.47	229.44
368.85	229.42
369.23	229.42
369.61	229.37
369.99	229.35
370.37	229.29
370.75	229.32
371.13	229.24
371.51	229.18
371.89	229.15
372.27	229.08
372.65	229.02
373.03	228.97
373.41	228.91
373.78	228.85
374.16	228.75
374.54	228.66
374.92	228.58
375.30	228.53
375.68	228.43
376.06	228.36
376.44	228.27
376.82	228.20
377.19	228.10
377.57	228.02
377.95	227.91
378.33	227.84
378.71	227.70
379.09	227.63
379.47	227.57
379.84	227.49
380.22	227.43
380.60	227.36
380.98	227.25
381.36	227.21
381.73	227.10
382.11	227.03
382.49	226.96
382.87	226.89
383.25	226.81
383.62	226.87
384.00	226.78
384.38	226.74
384.76	226.71
385.13	226.74
385.51	226.68
385.89	226.62
386.27	226.58
386.64	226.56
387.02	226.52
387.40	226.48
387.78	226.40
388.15	226.33
388.53	226.27
388.91	226.27
389.29	226.20
389.66	226.21
390.04	226.17
390.42	226.18
390.79	226.16
391.17	226.15
391.55	226.06
391.92	226.07
392.30	226.07
392.68	226.04
393.05	226.04
393.43	226.08
393.81	226.08
394.18	226.08
394.56	226.07
394.94	226.14
395.31	226.15
395.69	226.25
396.06	226.37
396.44	226.45
396.82	226.46
397.19	226.59
397.57	226.63
397.95	226.72
398.32	226.76
398.70	226.84
399.07	226.93
399.45	226.99
399.82	227.05
400.20	227.10
400.58	227.18
400.95	227.19
401.33	227.28
401.70	227.48
402.08	227.61
402.45	227.75
402.83	227.88
403.20	228.03
403.58	228.14
403.95	228.24
404.33	228.38
404.71	228.55
405.08	228.76
405.46	228.92
405.83	229.14
406.21	229.30
406.58	229.49
406.96	229.68
407.33	229.89
407.70	230.08
408.08	230.41
408.45	230.64
408.83	230.91
409.20	231.11
409.58	231.27
409.95	231.52
410.33	231.78
410.70	232.02
411.08	232.33
411.45	232.65
411.82	232.93
412.20	233.28
412.57	233.69
412.95	233.94
413.32	234.35
413.69	234.73
414.07	235.16
414.44	235.62
414.82	236.09
415.19	236.65
415.56	237.26
415.94	237.80
416.31	238.45
416.68	239.08
417.06	239.80
417.43	240.50
417.81	241.29
418.18	242.09
418.55	242.92
418.93	243.78
419.30	244.65
419.67	245.64
420.04	246.58
420.42	247.54
420.79	248.73
421.16	249.90
421.54	251.08
421.91	252.31
422.28	253.58
422.66	254.89
423.03	256.19
423.40	257.47
423.77	258.87
424.15	260.20
424.52	261.67
424.89	263.30
425.26	264.83
425.64	266.24
426.01	267.80
426.38	269.47
426.75	271.10
427.13	272.82
427.50	274.59
427.87	276.46
428.24	278.32
428.61	280.07
428.99	281.98
429.36	284.07
429.73	286.11
430.10	288.10
430.47	290.18
430.85	292.31
431.22	294.54
431.59	296.93
431.96	299.24
432.33	301.75
432.70	304.13
433.08	306.96
433.45	309.62
433.82	312.26
434.19	315.13
434.56	317.99
434.93	320.65
435.30	323.23
435.68	326.13
436.05	328.97
436.42	331.74
436.79	334.28
437.16	336.98
437.53	339.84
437.90	342.70
438.27	345.38
438.64	348.19
439.01	350.82
439.38	353.08
439.75	355.29
440.13	357.75
440.50	360.08
440.87	361.91
441.24	363.84
441.61	365.96
441.98	367.49
442.35	369.29
442.72	371.16
443.09	373.01
443.46	374.03
443.83	374.67
444.20	375.23
444.57	376.08
444.94	376.41
445.31	376.73
445.68	377.04
446.05	377.17
446.42	376.78
446.79	376.32
447.16	375.87
447.53	375.50
447.90	374.36
448.27	373.20
448.64	371.62
449.01	370.49
449.37	368.52
449.74	366.61
450.11	364.34
450.48	361.82
450.85	359.33
451.22	357.20
451.59	355.14
451.96	353.20
452.33	350.56
452.70	348.23
453.07	345.42
453.43	342.55
453.80	339.82
454.17	337.14
454.54	334.64
454.91	331.89
455.28	329.25
455.65	326.76
456.02	324.32
456.38	322.20
456.75	319.54
457.12	317.32
457.49	315.10
457.86	312.95
458.23	311.12
458.59	309.05
458.96	306.91
459.33	305.01
459.70	303.15
460.07	301.65
460.43	299.91
460.80	298.26
461.17	296.84
461.54	295.31
461.91	293.88
462.27	292.40
462.64	291.16
463.01	289.80
463.38	288.51
463.74	287.13
464.11	285.93
464.48	284.88
464.85	283.73
465.21	282.83
465.58	281.90
465.95	280.79
466.32	279.89
466.68	278.98
467.05	278.08
467.42	277.15
467.78	276.21
468.15	275.29
468.52	274.62
468.88	273.73
469.25	272.96
469.62	272.33
469.98	271.65
470.35	271.01
470.72	270.37
471.08	269.68
471.45	269.14
471.82	268.59
472.18	268.00
472.55	267.58
472.92	267.03
473.28	266.53
473.65	266.09
474.02	265.63
474.38	265.25
474.75	264.92
475.11	264.58
475.48	264.28
475.85	264.04
476.21	263.79
476.58	263.58
476.94	263.41
477.31	263.24
477.67	263.07
478.04	262.91
478.41	262.82
478.77	262.84
479.14	262.75
479.50	262.77
479.87	262.80
480.23	262.88
480.60	262.95
480.96	263.05
481.33	263.21
481.69	263.40
482.06	263.60
482.42	263.81
482.79	264.06
483.15	264.38
483.52	264.73
483.88	265.05
484.25	265.41
484.61	265.82
484.98	266.26
485.34	266.82
485.71	267.43
486.07	268.05
486.44	268.62
486.80	269.30
487.17	269.99
487.53	270.80
487.90	271.64
488.26	272.57
488.62	273.58
488.99	274.53
489.35	275.56
489.72	276.67
490.08	277.86
490.44	279.06
490.81	280.36
491.17	281.73
491.54	283.23
491.90	284.80
492.26	286.45
492.63	288.17
492.99	289.91
493.36	291.74
493.72	293.74
494.08	295.81
494.45	298.06
494.81	300.42
495.17	302.85
495.54	305.35
495.90	308.02
496.26	310.78
496.63	313.74
496.99	316.84
497.35	320.09
497.72	323.47
498.08	326.98
498.44	330.65
498.80	334.50
499.17	338.48
499.53	342.58
499.89	346.92
500.26	351.39
500.62	356.04
500.98	361.01
501.34	366.07
501.71	371.42
502.07	376.84
502.43	382.43
502.79	388.25
503.16	394.33
503.52	400.56
503.88	406.91
504.24	413.52
504.60	420.37
504.97	427.45
505.33	434.75
505.69	442.44
506.05	450.13
506.41	458.04
506.78	466.23
507.14	474.72
507.50	483.46
507.86	492.52
508.22	501.67
508.59	510.91
508.95	520.47
509.31	530.25
509.67	540.32
510.03	550.58
510.39	561.03
510.75	571.80
511.12	582.75
511.48	594.05
511.84	605.41
512.20	616.92
512.56	628.88
512.92	641.14
513.28	653.48
513.64	665.97
514.00	678.73
514.37	691.63
514.73	704.65
515.09	717.70
515.45	730.87
515.81	744.49
516.17	758.49
516.53	772.65
516.89	786.80
517.25	801.03
517.61	815.47
517.97	829.98
518.33	844.42
518.69	859.24
519.05	874.33
519.41	889.56
519.77	905.17
520.13	920.67
520.49	936.07
520.85	951.55
521.21	967.37
521.57	983.55
521.93	999.38
522.29	1015.87
522.65	1032.15
523.01	1048.48
523.37	1064.56
523.73	1080.79
524.09	1096.86
524.45	1113.31
524.81	1130.05
525.17	1147.00
525.53	1163.95
525.89	1180.89
526.25	1197.75
526.61	1214.22
526.97	1231.08
527.33	1247.68
527.68	1264.40
528.04	1280.89
528.40	1297.61
528.76	1314.69
529.12	1331.40
529.48	1348.38
529.84	1364.46
530.20	1381.12
530.56	1398.34
530.91	1415.80
531.27	1432.58
531.63	1449.17
531.99	1465.83
532.35	1481.90
532.71	1497.79
533.07	1514.12
533.42	1530.18
533.78	1546.27
534.14	1562.69
534.50	1578.31
534.86	1594.18
535.21	1609.30
535.57	1625.44
535.93	1640.96
536.29	1655.91
536.65	1671.11
537.00	1686.01
537.36	1701.38
537.72	1716.05
538.08	1730.46
538.44	1744.40
538.79	1758.44
539.15	1772.30
539.51	1786.11
539.87	1800.45
540.22	1814.36
540.58	1828.34
540.94	1841.75
541.29	1854.89
541.65	1867.51
542.01	1880.64
542.37	1892.98
542.72	1905.56
543.08	1917.28
543.44	1929.77
543.79	1941.02
544.15	1952.04
544.51	1963.71
544.87	1974.78
545.22	1985.62
545.58	1995.89
545.94	2005.75
546.29	2015.54
546.65	2025.38
547.01	2034.68
547.36	2043.50
547.72	2051.98
548.07	2059.72
548.43	2067.81
548.79	2075.79
549.14	2083.34
549.50	2090.76
549.86	2098.66
550.21	2105.80
550.57	2113.03
550.92	2119.53
551.28	2126.64
551.64	2133.73
551.99	2140.12
552.35	2146.32
552.70	2152.30
553.06	2158.18
553.41	2164.44
553.77	2170.61
554.13	2176.66
554.48	2182.67
554.84	2187.95
555.19	2193.30
555.55	2198.45
555.90	2202.91
556.26	2207.71
556.61	2212.43
556.97	2216.40
557.32	2220.37
557.68	2224.66
558.03	2228.92
558.39	2232.72
558.74	2237.14
559.10	2240.92
559.45	2244.55
559.81	2248.68
560.16	2252.51
560.52	2255.77
560.87	2259.16
561.23	2261.67
561.58	2264.48
561.94	2267.01
562.29	2269.44
562.64	2272.00
563.00	2274.62
563.35	2277.97
563.71	2281.01
564.06	2284.04
564.42	2286.96
564.77	2289.29
565.12	2291.33
565.48	2293.01
565.83	2294.66
566.19	2295.91
566.54	2296.80
566.89	2297.81
567.25	2298.24
567.60	2299.66
567.96	2301.06
568.31	2301.86
568.66	2302.78
569.02	2303.17
569.37	2303.30
569.72	2303.97
570.08	2303.85
570.43	2303.67
570.78	2302.91
571.14	2301.24
571.49	2299.78
571.84	2299.28
572.20	2297.91
572.55	2296.83
572.90	2295.22
573.26	2293.63
573.61	2291.73
573.96	2289.59
574.31	2286.46
574.67	2283.24
575.02	2279.38
575.37	2275.80
575.72	2271.61
576.08	2268.13
576.43	2264.78
576.78	2260.95
577.13	2257.53
577.49	2254.27
577.84	2250.57
578.19	2246.74
578.54	2242.89
578.90	2238.47
579.25	2232.87
579.60	2227.74
579.95	2222.48
580.30	2217.30
580.66	2212.03
581.01	2206.94
581.36	2201.84
581.71	2197.44
582.06	2192.92
582.42	2188.23
582.77	2182.92
583.12	2178.33
583.47	2173.32
583.82	2168.01
584.17	2162.61
584.53	2157.03
584.88	2151.21
585.23	2145.28
585.58	2139.75
585.93	2134.16
586.28	2129.26
586.63	2123.98
586.98	2118.87
587.34	2114.08
587.69	2108.98
588.04	2103.48
588.39	2097.68
588.74	2091.27
589.09	2084.99
589.44	2077.95
589.79	2071.79
590.14	2066.09
590.49	2059.28
590.84	2052.78
591.19	2046.75
591.54	2040.07
591.89	2032.40
592.25	2025.52
592.60	2018.26
592.95	2010.46
593.30	2003.05
593.65	1995.42
594.00	1988.21
594.35	1980.77
594.70	1972.66
595.05	1965.30
595.40	1958.11
595.75	1950.61
596.10	1944.16
596.45	1937.19
596.80	1931.06
597.15	1924.28
597.50	1917.05
597.85	1910.64
598.19	1903.97
598.54	1896.75
598.89	1890.16
599.24	1884.28
599.59	1877.44
599.94	1871.06
600.29	1864.71
600.64	1857.96
600.99	1850.32
601.34	1843.52
601.69	1836.59
602.04	1829.57
602.39	1822.07
602.74	1815.08
603.08	1808.29
603.43	1801.67
603.78	1794.60
604.13	1787.36
604.48	1779.95
604.83	1773.00
605.18	1765.86
605.53	1757.81
605.87	1749.79
606.22	1742.56
606.57	1734.72
606.92	1727.50
607.27	1720.32
607.62	1713.32
607.96	1706.10
608.31	1699.47
608.66	1691.76
609.01	1684.28
609.36	1676.67
609.70	1668.88
610.05	1660.77
610.40	1653.00
610.75	1644.79
611.10	1637.13
611.44	1628.70
611.79	1620.77
612.14	1612.24
612.49	1603.28
612.83	1595.09
613.18	1586.98
613.53	1579.01
613.88	1570.49
614.22	1562.23
614.57	1553.74
614.92	1545.81
615.27	1538.29
615.61	1530.11
615.96	1522.21
616.31	1514.61
616.65	1507.35
617.00	1499.74
617.35	1492.20
617.70	1483.89
618.04	1475.29
618.39	1467.05
618.74	1459.55
619.08	1451.42
619.43	1444.02
619.78	1437.17
620.12	1429.97
620.47	1422.48
620.82	1414.33
621.16	1406.96
621.51	1399.37
621.85	1391.82
622.20	1383.39
622.55	1375.17
622.89	1367.43
623.24	1359.86
623.59	1352.57
623.93	1345.09
624.28	1337.96
624.62	1330.43
624.97	1323.32
625.32	1316.70
625.66	1309.71
626.01	1302.56
626.35	1295.08
626.70	1287.28
627.04	1279.45
627.39	1271.79
627.73	1264.47
628.08	1257.65
628.43	1250.35
628.77	1243.00
629.12	1235.50
629.46	1228.32
629.81	1220.88
630.15	1213.59
630.50	1206.26
630.84	1198.06
631.19	1190.25
631.53	1182.87
631.88	1175.43
632.22	1167.88
632.57	1160.52
632.91	1153.07
633.26	1145.64
633.60	1138.39
633.95	1131.34
634.29	1124.40
634.64	1117.72
634.98	1110.41
635.32	1103.26
635.67	1096.75
636.01	1090.13
636.36	1083.33
636.70	1076.97
637.05	1070.52
637.39	1064.15
637.73	1057.58
638.08	1051.77
638.42	1045.81
638.77	1039.29
639.11	1032.73
639.45	1026.50
639.80	1019.90
640.14	1013.44
640.49	1006.99
640.83	1000.71
641.17	994.52
641.52	988.18
641.86	981.90
642.20	976.17
642.55	969.89
642.89	963.41
643.23	957.02
643.58	951.33
643.92	945.12
644.26	939.03
644.61	933.08
644.95	927.07
645.29	920.49
645.64	913.78
645.98	907.50
646.32	901.74
646.66	895.70
647.01	889.97
647.35	884.33
647.69	878.58
648.04	873.11
648.38	867.31
648.72	861.36
649.06	855.16
649.41	849.32
649.75	843.31
650.09	837.38
650.43	831.62
650.78	825.50
651.12	819.61
651.46	813.92
651.80	808.14
652.14	802.88
652.49	797.50
652.83	792.40
653.17	786.73
653.51	780.98
653.85	775.60
654.20	769.93
654.54	763.94
654.88	758.31
655.22	752.43
655.56	746.79
655.90	741.46
656.25	736.30
656.59	730.96
656.93	725.94
657.27	720.79
657.61	715.41
657.95	710.32
658.29	705.26
658.64	700.10
658.98	694.91
659.32	689.43
659.66	684.32
660.00	678.96
660.34	674.10
660.68	669.28
661.02	664.29
661.36	659.66
661.70	655.21
662.05	650.80
662.39	646.48
662.73	642.09
663.07	637.77
663.41	633.34
663.75	628.82
664.09	624.33
664.43	620.07
664.77	616.02
665.11	611.82
665.45	607.69
665.79	603.62
666.13	599.55
666.47	595.54
666.81	591.35
667.15	587.37
667.49	583.52
667.83	579.73
668.17	575.79
668.51	571.71
668.85	567.77
669.19	563.94
669.53	560.19
669.87	556.31
670.21	552.61
670.55	549.02
670.89	545.66
671.23	542.25
671.57	538.74
671.91	535.19
672.25	531.75
672.58	528.28
672.92	524.93
673.26	521.73
673.60	518.58
673.94	515.58
674.28	512.66
674.62	509.74
674.96	506.66
675.30	503.81
675.64	500.91
675.97	498.20
676.31	495.39
676.65	492.44
676.99	489.77
677.33	486.92
677.67	484.12
678.01	481.09
678.34	478.12
678.68	475.30
679.02	472.52
679.36	469.78
679.70	467.12
680.04	464.36
680.37	461.51
680.71	458.73
681.05	456.09
681.39	453.41
681.73	450.77
682.06	448.25
682.40	445.73
682.74	443.24
683.08	440.64
683.42	438.04
683.75	435.61
684.09	433.14
684.43	430.72
684.77	428.28
685.10	425.96
685.44	423.67
685.78	421.35
686.12	419.11
686.45	416.83
686.79	414.60
687.13	412.45
687.46	410.33
687.80	408.21
688.14	406.04
688.48	404.00
688.81	401.80
689.15	399.69
689.49	397.56
689.82	395.53
690.16	393.52
690.50	391.63
690.83	389.72
691.17	387.73
691.51	385.88
691.84	384.08
692.18	382.17
692.52	380.26
692.85	378.41
693.19	376.54
693.52	374.77
693.86	372.93
694.20	371.16
694.53	369.39
694.87	367.63
695.21	365.89
695.54	364.08
695.88	362.36
696.21	360.69
696.55	358.96
696.88	357.31
697.22	355.67
697.56	354.08
697.89	352.40
698.23	350.76
698.56	349.12
698.90	347.53
699.23	345.86
699.57	344.33
699.90	342.80
700.24	341.27
700.58	339.72
700.91	338.23
701.25	336.76
701.58	335.40
701.92	334.01
702.25	332.61
702.59	331.25
702.92	329.91
703.26	328.57
703.59	327.36
703.93	326.16
704.26	324.96
704.60	323.66
704.93	322.39
705.26	321.24
705.60	320.13
705.93	318.98
706.27	317.98
706.60	316.91
706.94	315.82
707.27	314.67
707.61	313.62
707.94	312.59
708.27	311.54
708.61	310.48
708.94	309.50
709.28	308.57
709.61	307.64
709.94	306.69
710.28	305.72
710.61	304.79
710.95	303.69
711.28	302.78
711.61	301.82
711.95	300.97
712.28	299.98
712.61	298.96
712.95	298.04
713.28	297.19
713.61	296.33
713.95	295.46
714.28	294.66
714.61	293.82
714.95	292.97
715.28	292.11
715.61	291.24
715.95	290.36
716.28	289.46
716.61	288.65
716.95	287.84
717.28	287.08
717.61	286.29
717.94	285.57
718.28	284.75
718.61	284.01
718.94	283.26
719.27	282.60
719.61	281.97
719.94	281.32
720.27	280.58
720.60	279.87
720.94	279.25
721.27	278.67
721.60	278.05
721.93	277.44
722.27	276.87
722.60	276.30
722.93	275.71
723.26	275.18
723.59	274.62
723.93	274.10
724.26	273.54
724.59	272.99
724.92	272.49
725.25	271.96
725.59	271.44
725.92	270.98
726.25	270.46
726.58	269.94
726.91	269.44
727.24	268.97
727.57	268.50
727.91	267.98
728.24	267.49
728.57	267.06
728.90	266.67
729.23	266.20
729.56	265.79
729.89	265.38
730.22	264.89
730.55	264.40
730.89	263.97
731.22	263.53
731.55	263.09
731.88	262.66
732.21	262.26
732.54	261.84
732.87	261.42
733.20	261.02
733.53	260.63
733.86	260.26
734.19	259.88
734.52	259.51
734.85	259.22
735.18	258.81
735.51	258.44
735.84	258.05
736.17	257.70
736.50	257.31
736.83	257.05
737.16	256.72
737.49	256.42
737.82	256.09
738.15	255.78
738.48	255.44
738.81	255.09
739.14	254.77
739.47	254.44
739.80	254.12
740.13	253.85
740.46	253.54
740.79	253.24
741.12	252.93
741.45	252.62
741.78	252.24
742.11	252.00
742.44	251.66
742.77	251.35
743.10	251.05
743.43	250.78
743.75	250.44
744.08	250.31
744.41	250.03
744.74	249.76
745.07	249.44
745.40	249.23
745.73	249.02
746.06	248.78
746.39	248.54
746.71	248.31
747.04	248.01
747.37	247.78
747.70	247.53
748.03	247.24
748.36	247.03
748.68	246.79
749.01	246.55
749.34	246.27
749.67	246.07
750.00	245.86
750.33	245.69
750.65	245.45
750.98	245.08
751.31	244.90
751.64	244.66
751.97	244.53
752.29	244.28
752.62	244.01
752.95	243.78
753.28	243.54
753.60	243.33
753.93	243.19
754.26	242.96
754.59	242.71
754.91	242.54
755.24	242.32
755.57	242.15
755.90	241.96
756.22	241.81
756.55	241.60
756.88	241.38
757.20	241.17
757.53	240.97
757.86	240.81
758.19	240.62
758.51	240.46
758.84	240.23
759.17	240.05
759.49	239.91
759.82	239.79
760.15	239.69
760.47	239.49
760.80	239.30
761.13	239.18
761.45	239.03
761.78	238.91
762.11	238.78
762.43	238.63
762.76	238.47
763.08	238.33
763.41	238.21
763.74	238.09
764.06	237.91
764.39	237.77
764.71	237.63
765.04	237.48
765.37	237.34
765.69	237.20
766.02	237.10
766.34	236.96
766.67	236.80
767.00	236.69
767.32	236.66
767.65	236.58
767.97	236.46
768.30	236.36
768.62	236.22
768.95	236.11
769.27	236.01
769.60	235.97
769.92	235.88
770.25	235.77
770.57	235.71
770.90	235.58
771.22	235.49
771.55	235.39
771.87	235.30
772.20	235.22
772.52	235.26
772.85	235.29
773.17	235.20
773.50	235.09
773.82	234.94
774.15	234.83
774.47	234.73
774.80	234.60
775.12	234.52
775.45	234.46
775.77	234.37
776.09	234.29
776.42	234.20
776.74	234.15
777.07	234.06
777.39	233.94
777.72	233.88
778.04	233.83
778.36	233.76
778.69	233.73
779.01	233.69
779.33	233.54
779.66	233.38
779.98	233.32
780.31	233.29
780.63	233.29
780.95	233.22
781.28	233.13
781.60	233.10
781.92	233.03
782.25	232.98
782.57	232.93
782.89	232.88
783.22	232.82
783.54	232.74
783.86	232.71
784.19	232.64
784.51	232.64
784.83	232.57
785.16	232.55
785.48	232.49
785.80	232.40
786.12	232.36
786.45	232.26
786.77	232.20
787.09	232.16
787.42	232.07
787.74	232.00
788.06	231.98
788.38	231.94
788.71	231.89
789.03	231.85
789.35	231.83
789.67	231.78
789.99	231.76
790.32	231.73
790.64	231.69
790.96	231.75
791.28	231.66
791.61	231.64
791.93	231.55
792.25	231.51
792.57	231.55
792.89	231.48
793.21	231.47
793.54	231.43
793.86	231.36
794.18	231.31
794.50	231.25
794.82	231.21
795.14	231.16
795.47	231.14
795.79	231.10
796.11	231.03
796.43	230.98
796.75	230.91
797.07	230.85
797.39	230.79
797.71	230.68
798.04	230.66
798.36	230.63
798.68	230.60
799.00	230.55
799.32	230.48
799.64	230.45
799.96	230.40
800.28	230.37
800.60	230.33
800.92	230.31
801.24	230.29
801.56	230.28
801.89	230.25
802.21	230.22
802.53	230.12
802.85	230.11
803.17	230.14
803.49	230.11
803.81	230.09
804.13	230.08
804.45	230.07
804.77	230.02
805.09	229.99
805.41	229.94
805.73	229.90
806.05	229.83
806.37	229.83
806.69	229.81
807.01	229.78
807.33	229.80
807.65	229.76
807.97	229.78
808.28	229.74
808.60	229.75
808.92	229.70
809.24	229.78
809.56	229.76
809.88	229.66
810.20	229.64
810.52	229.64
810.84	229.58
811.16	229.54
811.48	229.50
811.80	229.48
812.12	229.48
812.43	229.50
812.75	229.52
813.07	229.49
813.39	229.44
813.71	229.41
814.03	229.36
814.35	229.35
814.67	229.30
814.98	229.28
815.30	229.25
815.62	229.23
815.94	229.17
816.26	229.14
816.58	229.13
816.89	229.11
817.21	229.05
817.53	229.05
817.85	229.05
818.17	229.06
818.48	229.03
818.80	229.04
819.12	228.99
819.44	228.94
819.76	228.91
820.07	228.91
820.39	228.91
820.71	228.91
821.03	228.90
821.34	228.87
821.66	228.87
821.98	228.83
822.30	228.81
822.61	228.83
822.93	228.81
823.25	228.78
823.57	228.78
823.88	228.78
824.20	228.76
824.52	228.74
824.83	228.71
825.15	228.71
825.47	228.66
825.79	228.65
826.10	228.63
826.42	228.60
826.74	228.59
827.05	228.56
827.37	228.57
827.69	228.56
828.00	228.58
828.32	228.55
828.64	228.52
828.95	228.56
829.27	228.54
829.58	228.54
829.90	228.52
830.22	228.50
830.53	228.48
830.85	228.43
831.17	228.41
831.48	228.38
831.80	228.35
832.11	228.35
832.43	228.31
832.75	228.32
833.06	228.38
833.38	228.36
833.69	228.33
834.01	228.32
834.32	228.29
834.64	228.28
834.96	228.25
835.27	228.26
835.59	228.24
835.90	228.20
836.22	228.19
836.53	228.21
836.85	228.18
837.16	228.26
837.48	228.29
837.79	228.32
838.11	228.34
838.42	228.35
838.74	228.38
839.05	228.38
839.37	228.38
839.68	228.33
840.00	228.29
840.31	228.32
840.63	228.31
840.94	228.31
841.26	228.28
841.57	228.28
841.88	228.29
842.20	228.24
842.51	228.23
842.83	228.23
843.14	228.31
843.46	228.29
843.77	228.24
844.08	228.19
844.40	228.14
844.71	228.13
845.03	228.09
845.34	228.04
845.65	228.07
845.97	228.02
846.28	228.02
846.60	228.03
846.91	228.00
847.22	228.01
847.54	228.04
847.85	228.04
848.16	228.04
848.48	228.03
848.79	228.07
849.10	228.06
849.42	228.08
849.73	227.95
850.04	227.98
850.36	227.94
850.67	227.98
850.98	227.99
851.30	227.99
851.61	227.99
851.92	228.00
852.23	228.00
852.55	227.99
852.86	227.98
853.17	227.99
853.49	228.00
853.80	228.01
854.11	227.99
854.42	228.01
854.74	228.00
855.05	228.01
855.36	227.91
855.67	227.89
855.99	227.86
856.30	227.99
856.61	227.97
856.92	227.97
857.23	227.98
857.55	227.95
857.86	227.93
858.17	227.93
858.48	227.93
858.79	227.91
859.11	227.92
859.42	227.92
859.73	227.89
860.04	227.86
860.35	227.82
860.66	227.77
860.98	227.75
861.29	227.72
861.60	227.69
861.91	227.76
862.22	227.74
862.53	227.73
862.84	227.58
863.16	227.61
863.47	227.59
863.78	227.56
864.09	227.56
864.40	227.58
864.71	227.59
865.02	227.59
865.33	227.58
865.64	227.57
865.95	227.54
866.27	227.61
866.58	227.61
866.89	227.62
867.20	227.60
867.51	227.59
867.82	227.59
868.13	227.61
868.44	227.59
868.75	227.62
869.06	227.62
869.37	227.64
869.68	227.57
869.99	227.60
870.30	227.58
870.61	227.62
870.92	227.59
871.23	227.60
871.54	227.60
871.85	227.59
872.16	227.63
872.47	227.64
872.78	227.58
873.09	227.58
873.40	227.57
873.71	227.60
874.02	227.60
874.33	227.60
874.64	227.60
874.95	227.60
875.26	227.59
875.56	227.60
875.87	227.60
876.18	227.58
876.49	227.68
876.80	227.70
877.11	227.67
877.42	227.68
877.73	227.66
878.04	227.66
878.35	227.67
878.66	227.66
878.96	227.64
879.27	227.66
879.58	227.65
879.89	227.64
880.20	227.69
880.51	227.67
880.82	227.68
881.12	227.69
881.43	227.69
881.74	227.70
882.05	227.67
882.36	227.68
882.67	227.72
882.97	227.60
883.28	227.57
883.59	227.56
883.90	227.57
884.21	227.60
884.51	227.57
884.82	227.54
885.13	227.55
885.44	227.56
885.74	227.57
886.05	227.59
886.36	227.56
886.67	227.55
886.98	227.63
887.28	227.63
887.59	227.62
887.90	227.59
888.20	227.58
888.51	227.62
888.82	227.62
889.13	227.60
889.43	227.68
889.74	227.70
890.05	227.70
890.35	227.67
890.66	227.64
890.97	227.63
891.28	227.64
891.58	227.63
891.89	227.64
892.20	227.60
892.50	227.60
892.81	227.60
893.12	227.56
893.42	227.47
893.73	227.44
894.04	227.45
894.34	227.48
894.65	227.47
894.95	227.44
895.26	227.41
895.57	227.44
895.87	227.37
896.18	227.37
896.48	227.40
896.79	227.41
897.10	227.43
897.40	227.45
897.71	227.46
898.01	227.45
898.32	227.45
898.63	227.47
898.93	227.48
899.24	227.47
899.54	227.45
899.85	227.46
900.15	227.49
900.46	227.46
900.76	227.46
901.07	227.45
901.38	227.48
901.68	227.52
901.99	227.47
902.29	227.45
902.60	227.45
902.90	227.44
903.21	227.42
903.51	227.40
903.82	227.40
904.12	227.40
904.43	227.39
904.73	227.36
905.03	227.34
905.34	227.41
905.64	227.42
905.95	227.45
906.25	227.44
906.56	227.45
906.86	227.45
907.17	227.41
907.47	227.41
907.77	227.37
908.08	227.33
908.38	227.35
908.69	227.35
908.99	227.36
909.30	227.36
909.60	227.36
909.90	227.35
910.21	227.33
910.51	227.30
910.81	227.31
911.12	227.32
911.42	227.34
911.73	227.24
912.03	227.26
912.33	227.27
912.64	227.24
912.94	227.21
913.24	227.22
913.55	227.23
913.85	227.24
914.15	227.24
914.46	227.26
914.76	227.24
915.06	227.25
915.37	227.24
915.67	227.25
915.97	227.26
916.27	227.27
916.58	227.27
916.88	227.27
917.18	227.25
917.49	227.32
917.79	227.32
918.09	227.34
918.39	227.35
918.70	227.35
919.00	227.39
919.30	227.43
919.60	227.40
919.91	227.38
920.21	227.38
920.51	227.39
920.81	227.36
921.12	227.40
921.42	227.38
921.72	227.38
922.02	227.40
922.32	227.44
922.63	227.44
922.93	227.47
923.23	227.48
923.53	227.49
923.83	227.41
924.13	227.42
924.44	227.40
924.74	227.40
925.04	227.41
925.34	227.39
925.64	227.36
925.94	227.35
926.24	227.41
926.55	227.38
926.85	227.36
927.15	227.37
927.45	227.33
927.75	227.36
928.05	227.36
928.35	227.31
928.65	227.31
928.95	227.29
929.26	227.27
929.56	227.31
929.86	227.34
930.16	227.33
930.46	227.32
930.76	227.33
931.06	227.32
931.36	227.30
931.66	227.31
931.96	227.32
932.26	227.34
932.56	227.29
932.86	227.33
933.16	227.33
933.46	227.31
933.76	227.32
934.06	227.31
934.36	227.35
934.66	227.35
934.96	227.31
935.26	227.34
935.56	227.33
935.86	227.32
936.16	227.28
936.46	227.27
936.76	227.25
937.06	227.27
937.36	227.25
937.66	227.27
937.96	227.29
938.26	227.28
938.56	227.24
938.86	227.24
939.16	227.26
939.46	227.32
939.76	227.35
940.06	227.35
940.35	227.35
940.65	227.33
940.95	227.35
941.25	227.34
941.55	227.29
941.85	227.28
942.15	227.28
942.45	227.33
942.75	227.33
943.04	227.37
943.34	227.37
943.64	227.38
943.94	227.36
944.24	227.33
944.54	227.32
944.84	227.35
945.13	227.35
945.43	227.34
945.73	227.30
946.03	227.24
946.33	227.24
946.62	227.22
946.92	227.20
947.22	227.19
947.52	227.19
947.82	227.26
948.11	227.27
948.41	227.26
948.71	227.19
949.01	227.21
949.31	227.19
949.60	227.18
949.90	227.18
950.20	227.18
950.50	227.18
950.79	227.17
951.09	227.17
951.39	227.17
951.69	227.17
951.98	227.21
952.28	227.21
952.58	227.21
952.87	227.19
953.17	227.18
953.47	227.18
953.76	227.20
954.06	227.17
954.36	227.16
954.66	227.15
954.95	227.20
955.25	227.19
955.55	227.17
955.84	227.17
956.14	227.17
956.44	227.17
956.73	227.16
957.03	227.15
957.32	227.17
957.62	227.13
957.92	227.16
958.21	227.15
958.51	227.29
958.81	227.28
959.10	227.32
959.40	227.34
959.69	227.34
959.99	227.35
960.29	227.33
960.58	227.31
960.88	227.37
961.17	227.36
961.47	227.39
961.76	227.38
962.06	227.39
962.36	227.40
962.65	227.39
962.95	227.41
963.24	227.41
963.54	227.38
963.83	227.41
964.13	227.39
964.42	227.34
964.72	227.29
965.01	227.31
965.31	227.33
965.60	227.30
965.90	227.36
966.19	227.32
966.49	227.36
966.78	227.35
967.08	227.32
967.37	227.33
967.67	227.30
967.96	227.33
968.26	227.34
968.55	227.34
968.85	227.30
969.14	227.32
969.43	227.32
969.73	227.35
970.02	227.37
970.32	227.36
970.61	227.36
970.91	227.32
971.20	227.32
971.49	227.29
971.79	227.28
972.08	227.22
972.38	227.24
972.67	227.23
972.96	227.25
973.26	227.24
973.55	227.29
973.85	227.30
974.14	227.31
974.43	227.28
974.73	227.24
975.02	227.28
975.31	227.27
975.61	227.26
975.90	227.24
976.19	227.21
976.49	227.19
976.78	227.20
977.07	227.19
977.37	227.16
977.66	227.18
977.95	227.21
978.24	227.19
978.54	227.20
978.83	227.17
979.12	227.17
979.42	227.18
979.71	227.14
980.00	227.14
980.29	227.11
980.59	227.12
980.88	227.18
981.17	227.14
981.46	227.12
981.76	227.15
982.05	227.16
982.34	227.14
982.63	227.16
982.93	227.16
983.22	227.19
983.51	227.20
983.80	227.19
984.09	227.18
984.39	227.21
984.68	227.20
984.97	227.18
985.26	227.17
985.55	227.14
985.85	227.10
986.14	227.12
986.43	227.14
986.72	227.14
987.01	227.07
987.30	227.10
987.59	227.07
987.89	227.08
988.18	227.06
988.47	227.07
988.76	227.05
989.05	227.05
989.34	227.02
989.63	227.03
989.92	226.98
990.22	226.98
990.51	226.97
990.80	226.93
991.09	226.94
991.38	226.96
991.67	226.98
991.96	226.95
992.25	226.95
992.54	226.92
992.83	226.91
993.12	226.91
993.41	226.92
993.70	227.00
993.99	226.99
994.28	227.01
994.58	227.00
994.87	227.01
995.16	226.99
995.45	226.96
995.74	226.94
996.03	226.99
996.32	227.00
996.61	226.99
996.90	227.01
997.19	227.01
997.48	226.99
997.77	226.97
998.06	226.98
998.34	226.94
998.63	226.95
998.92	226.91
999.21	226.94
999.50	226.92
999.79	226.88
1000.08	226.85
1000.37	226.81
1000.66	226.80
1000.95	226.82
1001.24	226.83
1001.53	226.86
1001.82	226.87
1002.11	226.83
1002.40	226.81
1002.68	226.83
1002.97	226.91
1003.26	226.93
1003.55	226.92
1003.84	226.92
1004.13	226.95
1004.42	226.98
1004.71	226.98
1004.99	227.00
1005.28	227.00
1005.57	227.02
1005.86	227.00
1006.15	227.02
1006.44	227.04
1006.72	227.05
1007.01	227.04
1007.30	227.05
1007.59	227.02
1007.88	227.03
1008.17	227.04
1008.45	227.05
1008.74	227.05
1009.03	227.00
1009.32	227.03
1009.60	227.04
1009.89	227.01
1010.18	226.98
1010.47	226.99
1010.76	227.00
1011.04	227.02
1011.33	227.03
1011.62	227.03
1011.91	227.05
1012.19	227.06
1012.48	227.06
1012.77	227.07
1013.05	227.10
1013.34	227.12
1013.63	227.16
1013.92	227.16
1014.20	227.15
1014.49	227.15
1014.78	227.13
1015.06	227.09
1015.35	227.08
1015.64	227.12
1015.92	227.18
1016.21	227.21
1016.50	227.21
1016.78	227.25
1017.07	227.25
1017.36	227.23
1017.64	227.22
1017.93	227.25
1018.22	227.25
1018.50	227.23
1018.79	227.25
1019.08	227.23
1019.36	227.23
1019.65	227.20
1019.93	227.21
1020.22	227.22
1020.51	227.29
1020.79	227.28
1021.08	226.97
1021.36	226.63
1021.65	227.52
1021.94	227.10
1022.22	227.19
1022.51	226.74
1022.79	227.20
1023.08	227.11
1023.36	228.30
1023.65	226.75
>>>>>End Processed Spectral Data<<<<<
