SpectraSuite Data File
++++++++++++++++++++++++++++++++++++
Date: Fri Feb 01 15:02:11 EST 2013
User: group
Dark Spectrum Present: No
Reference Spectrum Present: No
Number of Sampled Component Spectra: 1
Spectrometers: USB2E7196
Integration Time (usec): 35000 (USB2E7196)
Spectra Averaged: 100 (USB2E7196)
Boxcar Smoothing: 10 (USB2E7196)
Correct for Electrical Dark: No (USB2E7196)
Strobe/Lamp Enabled: No (USB2E7196)
Correct for Detector Non-linearity: No (USB2E7196)
Correct for Stray Light: No (USB2E7196)
Number of Pixels in Processed Spectrum: 2048
>>>>>Begin Processed Spectral Data<<<<<
339.09	0.00
339.48	215.28
339.86	217.10
340.24	218.04
340.63	219.06
341.01	222.45
341.39	221.89
341.78	223.59
342.16	224.67
342.54	224.86
342.93	213.53
343.31	224.32
343.69	224.89
344.07	225.33
344.46	225.76
344.84	226.13
345.22	226.35
345.60	226.60
345.99	226.79
346.37	226.94
346.75	227.02
347.13	227.07
347.52	227.11
347.90	227.16
348.28	227.19
348.66	227.23
349.05	227.22
349.43	227.25
349.81	227.29
350.19	227.28
350.57	227.37
350.96	227.41
351.34	227.50
351.72	227.57
352.10	227.67
352.48	227.74
352.87	227.82
353.25	227.92
353.63	227.97
354.01	228.03
354.39	228.09
354.77	228.19
355.15	228.27
355.54	228.32
355.92	228.41
356.30	228.49
356.68	228.63
357.06	228.69
357.44	228.76
357.82	228.83
358.20	228.93
358.58	228.99
358.97	229.04
359.35	229.10
359.73	229.14
360.11	229.18
360.49	229.25
360.87	229.28
361.25	229.33
361.63	229.39
362.01	229.45
362.39	229.47
362.77	229.50
363.15	229.55
363.53	229.59
363.91	229.58
364.29	229.58
364.67	229.50
365.05	229.51
365.43	229.55
365.81	229.56
366.19	229.57
366.57	229.60
366.95	229.59
367.33	229.56
367.71	229.54
368.09	229.54
368.47	229.49
368.85	229.48
369.23	229.46
369.61	229.43
369.99	229.39
370.37	229.36
370.75	229.38
371.13	229.34
371.51	229.30
371.89	229.28
372.27	229.25
372.65	229.20
373.03	229.15
373.41	229.05
373.78	228.98
374.16	228.91
374.54	228.81
374.92	228.76
375.30	228.73
375.68	228.64
376.06	228.58
376.44	228.47
376.82	228.40
377.19	228.31
377.57	228.19
377.95	228.11
378.33	228.03
378.71	227.90
379.09	227.81
379.47	227.74
379.84	227.64
380.22	227.56
380.60	227.48
380.98	227.37
381.36	227.29
381.73	227.20
382.11	227.14
382.49	227.05
382.87	226.95
383.25	226.85
383.62	226.90
384.00	226.82
384.38	226.79
384.76	226.74
385.13	226.72
385.51	226.69
385.89	226.60
386.27	226.53
386.64	226.51
387.02	226.46
387.40	226.40
387.78	226.34
388.15	226.31
388.53	226.25
388.91	226.24
389.29	226.24
389.66	226.24
390.04	226.23
390.42	226.25
390.79	226.24
391.17	226.23
391.55	226.10
391.92	226.10
392.30	226.11
392.68	226.10
393.05	226.10
393.43	226.11
393.81	226.16
394.18	226.20
394.56	226.19
394.94	226.24
395.31	226.27
395.69	226.37
396.06	226.39
396.44	226.44
396.82	226.49
397.19	226.55
397.57	226.61
397.95	226.69
398.32	226.69
398.70	226.78
399.07	226.88
399.45	226.96
399.82	227.04
400.20	227.10
400.58	227.20
400.95	227.25
401.33	227.39
401.70	227.56
402.08	227.67
402.45	227.79
402.83	227.89
403.20	228.02
403.58	228.12
403.95	228.24
404.33	228.42
404.71	228.56
405.08	228.77
405.46	228.90
405.83	229.06
406.21	229.23
406.58	229.41
406.96	229.59
407.33	229.78
407.70	229.98
408.08	230.26
408.45	230.46
408.83	230.69
409.20	230.90
409.58	231.09
409.95	231.35
410.33	231.64
410.70	231.90
411.08	232.21
411.45	232.53
411.82	232.89
412.20	233.24
412.57	233.65
412.95	233.94
413.32	234.39
413.69	234.80
414.07	235.26
414.44	235.75
414.82	236.23
415.19	236.80
415.56	237.39
415.94	237.95
416.31	238.60
416.68	239.25
417.06	239.99
417.43	240.67
417.81	241.42
418.18	242.18
418.55	243.01
418.93	243.87
419.30	244.76
419.67	245.69
420.04	246.65
420.42	247.66
420.79	248.83
421.16	249.93
421.54	251.13
421.91	252.32
422.28	253.54
422.66	254.87
423.03	256.18
423.40	257.48
423.77	258.90
424.15	260.33
424.52	261.79
424.89	263.36
425.26	264.90
425.64	266.36
426.01	267.95
426.38	269.64
426.75	271.28
427.13	273.02
427.50	274.86
427.87	276.71
428.24	278.55
428.61	280.32
428.99	282.31
429.36	284.36
429.73	286.49
430.10	288.51
430.47	290.58
430.85	292.68
431.22	294.92
431.59	297.27
431.96	299.51
432.33	301.99
432.70	304.34
433.08	307.17
433.45	309.83
433.82	312.46
434.19	315.35
434.56	318.19
434.93	320.81
435.30	323.45
435.68	326.35
436.05	329.21
436.42	331.94
436.79	334.46
437.16	337.16
437.53	339.96
437.90	342.80
438.27	345.52
438.64	348.35
439.01	350.96
439.38	353.16
439.75	355.31
440.13	357.83
440.50	360.16
440.87	361.98
441.24	363.89
441.61	366.07
441.98	367.56
442.35	369.37
442.72	371.25
443.09	373.07
443.46	374.06
443.83	374.65
444.20	375.19
444.57	376.03
444.94	376.32
445.31	376.66
445.68	377.01
446.05	377.08
446.42	376.70
446.79	376.25
447.16	375.83
447.53	375.53
447.90	374.34
448.27	373.22
448.64	371.64
449.01	370.54
449.37	368.60
449.74	366.70
450.11	364.45
450.48	361.95
450.85	359.39
451.22	357.27
451.59	355.23
451.96	353.28
452.33	350.69
452.70	348.38
453.07	345.56
453.43	342.67
453.80	339.91
454.17	337.27
454.54	334.77
454.91	332.06
455.28	329.39
455.65	326.94
456.02	324.52
456.38	322.39
456.75	319.73
457.12	317.41
457.49	315.23
457.86	313.07
458.23	311.25
458.59	309.20
458.96	307.10
459.33	305.26
459.70	303.41
460.07	301.90
460.43	300.16
460.80	298.51
461.17	297.05
461.54	295.56
461.91	294.09
462.27	292.63
462.64	291.39
463.01	290.04
463.38	288.77
463.74	287.36
464.11	286.19
464.48	285.16
464.85	284.05
465.21	283.13
465.58	282.21
465.95	281.13
466.32	280.21
466.68	279.33
467.05	278.42
467.42	277.51
467.78	276.53
468.15	275.67
468.52	275.03
468.88	274.13
469.25	273.34
469.62	272.73
469.98	272.05
470.35	271.40
470.72	270.79
471.08	270.06
471.45	269.52
471.82	268.98
472.18	268.35
472.55	267.84
472.92	267.27
473.28	266.77
473.65	266.28
474.02	265.80
474.38	265.39
474.75	265.05
475.11	264.65
475.48	264.40
475.85	264.12
476.21	263.88
476.58	263.71
476.94	263.58
477.31	263.41
477.67	263.23
478.04	263.12
478.41	263.03
478.77	263.04
479.14	262.99
479.50	262.99
479.87	263.07
480.23	263.16
480.60	263.25
480.96	263.30
481.33	263.52
481.69	263.71
482.06	263.87
482.42	264.04
482.79	264.31
483.15	264.60
483.52	264.98
483.88	265.28
484.25	265.64
484.61	266.04
484.98	266.44
485.34	266.96
485.71	267.52
486.07	268.11
486.44	268.69
486.80	269.38
487.17	270.05
487.53	270.83
487.90	271.67
488.26	272.57
488.62	273.57
488.99	274.51
489.35	275.54
489.72	276.69
490.08	277.88
490.44	279.11
490.81	280.43
491.17	281.74
491.54	283.21
491.90	284.76
492.26	286.36
492.63	288.11
492.99	289.92
493.36	291.82
493.72	293.86
494.08	295.92
494.45	298.14
494.81	300.50
495.17	302.93
495.54	305.52
495.90	308.21
496.26	311.02
496.63	313.93
496.99	317.04
497.35	320.28
497.72	323.69
498.08	327.20
498.44	330.83
498.80	334.77
499.17	338.78
499.53	342.92
499.89	347.27
500.26	351.73
500.62	356.33
500.98	361.26
501.34	366.31
501.71	371.64
502.07	377.04
502.43	382.64
502.79	388.42
503.16	394.41
503.52	400.67
503.88	407.03
504.24	413.67
504.60	420.55
504.97	427.64
505.33	434.94
505.69	442.60
506.05	450.37
506.41	458.23
506.78	466.40
507.14	474.81
507.50	483.53
507.86	492.51
508.22	501.72
508.59	510.93
508.95	520.54
509.31	530.32
509.67	540.45
510.03	550.80
510.39	561.39
510.75	572.34
511.12	583.28
511.48	594.65
511.84	606.06
512.20	617.55
512.56	629.49
512.92	641.68
513.28	654.05
513.64	666.62
514.00	679.34
514.37	692.24
514.73	705.30
515.09	718.32
515.45	731.65
515.81	745.29
516.17	759.33
516.53	773.45
516.89	787.70
517.25	801.90
517.61	816.32
517.97	830.72
518.33	845.11
518.69	859.95
519.05	874.94
519.41	890.21
519.77	905.86
520.13	921.40
520.49	936.84
520.85	952.31
521.21	967.99
521.57	984.23
521.93	999.99
522.29	1016.49
522.65	1032.91
523.01	1049.25
523.37	1065.39
523.73	1081.56
524.09	1097.75
524.45	1114.16
524.81	1130.80
525.17	1147.66
525.53	1164.69
525.89	1181.52
526.25	1198.35
526.61	1214.83
526.97	1231.64
527.33	1248.08
527.68	1264.72
528.04	1281.19
528.40	1297.91
528.76	1315.15
529.12	1331.94
529.48	1348.96
529.84	1365.06
530.20	1381.65
530.56	1398.70
530.91	1416.04
531.27	1432.77
531.63	1449.32
531.99	1465.84
532.35	1481.88
532.71	1497.84
533.07	1514.14
533.42	1530.21
533.78	1546.34
534.14	1562.76
534.50	1578.12
534.86	1594.11
535.21	1609.42
535.57	1625.56
535.93	1641.15
536.29	1655.87
536.65	1670.93
537.00	1685.90
537.36	1701.30
537.72	1716.02
538.08	1730.42
538.44	1744.39
538.79	1758.51
539.15	1772.27
539.51	1786.22
539.87	1800.67
540.22	1814.49
540.58	1828.40
540.94	1841.85
541.29	1854.94
541.65	1867.65
542.01	1881.01
542.37	1893.29
542.72	1905.74
543.08	1917.50
543.44	1930.02
543.79	1941.31
544.15	1952.38
544.51	1963.90
544.87	1974.98
545.22	1985.75
545.58	1996.09
545.94	2005.87
546.29	2015.80
546.65	2025.60
547.01	2034.76
547.36	2043.54
547.72	2052.01
548.07	2059.92
548.43	2068.17
548.79	2076.05
549.14	2083.59
549.50	2091.02
549.86	2099.01
550.21	2106.20
550.57	2113.31
550.92	2119.84
551.28	2126.98
551.64	2134.00
551.99	2140.41
552.35	2146.47
552.70	2152.59
553.06	2158.55
553.41	2164.85
553.77	2170.94
554.13	2177.07
554.48	2183.15
554.84	2188.53
555.19	2193.84
555.55	2198.83
555.90	2203.18
556.26	2208.02
556.61	2212.56
556.97	2216.61
557.32	2220.57
557.68	2224.74
558.03	2229.06
558.39	2232.74
558.74	2237.25
559.10	2241.01
559.45	2244.76
559.81	2249.08
560.16	2252.88
560.52	2255.95
560.87	2259.44
561.23	2261.99
561.58	2264.84
561.94	2267.37
562.29	2269.77
562.64	2272.40
563.00	2275.03
563.35	2278.32
563.71	2281.47
564.06	2284.79
564.42	2287.82
564.77	2290.26
565.12	2292.40
565.48	2294.21
565.83	2296.00
566.19	2297.30
566.54	2298.20
566.89	2299.24
567.25	2299.78
567.60	2301.04
567.96	2302.70
568.31	2303.38
568.66	2304.22
569.02	2304.64
569.37	2304.82
569.72	2305.39
570.08	2305.32
570.43	2305.11
570.78	2304.47
571.14	2302.83
571.49	2301.33
571.84	2300.66
572.20	2299.16
572.55	2298.11
572.90	2296.41
573.26	2294.75
573.61	2292.79
573.96	2290.82
574.31	2287.65
574.67	2284.32
575.02	2280.54
575.37	2277.00
575.72	2272.87
576.08	2269.57
576.43	2266.18
576.78	2262.38
577.13	2259.20
577.49	2256.00
577.84	2252.45
578.19	2248.64
578.54	2244.67
578.90	2240.19
579.25	2234.59
579.60	2229.62
579.95	2224.49
580.30	2219.32
580.66	2214.03
581.01	2209.02
581.36	2204.08
581.71	2199.88
582.06	2195.24
582.42	2190.66
582.77	2185.27
583.12	2180.73
583.47	2175.59
583.82	2170.36
584.17	2165.06
584.53	2159.41
584.88	2153.67
585.23	2147.68
585.58	2142.00
585.93	2136.67
586.28	2132.06
586.63	2126.87
586.98	2121.67
587.34	2116.88
587.69	2112.00
588.04	2106.66
588.39	2100.88
588.74	2094.14
589.09	2087.77
589.44	2080.92
589.79	2074.80
590.14	2068.98
590.49	2062.29
590.84	2055.95
591.19	2049.88
591.54	2043.27
591.89	2035.72
592.25	2028.82
592.60	2021.61
592.95	2013.93
593.30	2006.31
593.65	1998.35
594.00	1991.11
594.35	1983.82
594.70	1975.50
595.05	1968.01
595.40	1960.57
595.75	1953.01
596.10	1946.74
596.45	1939.76
596.80	1933.53
597.15	1926.74
597.50	1919.59
597.85	1913.14
598.19	1906.43
598.54	1899.19
598.89	1892.41
599.24	1886.59
599.59	1879.66
599.94	1873.41
600.29	1867.08
600.64	1860.51
600.99	1853.00
601.34	1846.14
601.69	1839.13
602.04	1832.15
602.39	1824.77
602.74	1817.96
603.08	1811.18
603.43	1804.50
603.78	1797.30
604.13	1790.08
604.48	1782.77
604.83	1775.94
605.18	1768.89
605.53	1760.84
605.87	1752.86
606.22	1745.75
606.57	1737.75
606.92	1730.56
607.27	1723.28
607.62	1716.35
607.96	1709.01
608.31	1702.34
608.66	1694.64
609.01	1687.01
609.36	1679.63
609.70	1671.70
610.05	1663.51
610.40	1655.91
610.75	1647.51
611.10	1639.96
611.44	1631.71
611.79	1623.75
612.14	1615.16
612.49	1605.97
612.83	1597.64
613.18	1589.56
613.53	1581.37
613.88	1572.87
614.22	1564.60
614.57	1556.14
614.92	1548.14
615.27	1540.57
615.61	1532.30
615.96	1524.48
616.31	1517.00
616.65	1509.58
617.00	1502.06
617.35	1494.52
617.70	1486.11
618.04	1477.68
618.39	1469.39
618.74	1461.71
619.08	1453.38
619.43	1445.84
619.78	1438.98
620.12	1431.82
620.47	1424.29
620.82	1416.33
621.16	1408.97
621.51	1401.32
621.85	1393.72
622.20	1385.21
622.55	1377.01
622.89	1369.33
623.24	1361.75
623.59	1354.40
623.93	1346.90
624.28	1339.76
624.62	1332.29
624.97	1325.13
625.32	1318.43
625.66	1311.50
626.01	1304.33
626.35	1296.90
626.70	1289.23
627.04	1281.53
627.39	1273.85
627.73	1266.50
628.08	1259.54
628.43	1252.20
628.77	1244.97
629.12	1237.39
629.46	1230.30
629.81	1222.92
630.15	1215.70
630.50	1208.22
630.84	1200.06
631.19	1192.15
631.53	1184.68
631.88	1177.16
632.22	1169.57
632.57	1162.31
632.91	1154.71
633.26	1147.33
633.60	1140.11
633.95	1133.07
634.29	1126.15
634.64	1119.52
634.98	1112.19
635.32	1105.04
635.67	1098.47
636.01	1091.84
636.36	1085.03
636.70	1078.58
637.05	1072.00
637.39	1065.57
637.73	1059.18
638.08	1053.35
638.42	1047.48
638.77	1040.99
639.11	1034.40
639.45	1028.08
639.80	1021.45
640.14	1015.11
640.49	1008.65
640.83	1002.40
641.17	996.10
641.52	989.72
641.86	983.29
642.20	977.47
642.55	971.33
642.89	964.86
643.23	958.37
643.58	952.61
643.92	946.39
644.26	940.35
644.61	934.41
644.95	928.34
645.29	921.72
645.64	915.00
645.98	908.74
646.32	902.96
646.66	897.04
647.01	891.20
647.35	885.55
647.69	879.75
648.04	874.28
648.38	868.57
648.72	862.65
649.06	856.64
649.41	850.77
649.75	844.74
650.09	838.87
650.43	833.13
650.78	827.08
651.12	821.14
651.46	815.47
651.80	809.69
652.14	804.38
652.49	799.09
652.83	793.95
653.17	788.27
653.51	782.58
653.85	777.14
654.20	771.52
654.54	765.51
654.88	759.82
655.22	753.90
655.56	748.23
655.90	742.84
656.25	737.58
656.59	732.21
656.93	727.15
657.27	721.97
657.61	716.58
657.95	711.55
658.29	706.46
658.64	701.18
658.98	695.92
659.32	690.43
659.66	685.26
660.00	679.94
660.34	675.03
660.68	670.17
661.02	665.26
661.36	660.68
661.70	656.28
662.05	651.93
662.39	647.61
662.73	643.18
663.07	638.80
663.41	634.32
663.75	629.90
664.09	625.35
664.43	621.05
664.77	616.90
665.11	612.64
665.45	608.61
665.79	604.63
666.13	600.45
666.47	596.39
666.81	592.21
667.15	588.24
667.49	584.34
667.83	580.54
668.17	576.57
668.51	572.46
668.85	568.40
669.19	564.57
669.53	560.76
669.87	556.90
670.21	553.22
670.55	549.65
670.89	546.26
671.23	542.86
671.57	539.35
671.91	535.89
672.25	532.47
672.58	528.95
672.92	525.61
673.26	522.52
673.60	519.40
673.94	516.33
674.28	513.39
674.62	510.52
674.96	507.42
675.30	504.49
675.64	501.57
675.97	498.82
676.31	495.99
676.65	493.06
676.99	490.40
677.33	487.54
677.67	484.73
678.01	481.70
678.34	478.72
678.68	475.88
679.02	473.06
679.36	470.28
679.70	467.58
680.04	464.79
680.37	461.94
680.71	459.21
681.05	456.60
681.39	453.88
681.73	451.18
682.06	448.65
682.40	446.13
682.74	443.68
683.08	441.21
683.42	438.62
683.75	436.14
684.09	433.61
684.43	431.19
684.77	428.75
685.10	426.44
685.44	424.21
685.78	421.91
686.12	419.71
686.45	417.44
686.79	415.17
687.13	413.03
687.46	410.88
687.80	408.74
688.14	406.56
688.48	404.54
688.81	402.30
689.15	400.22
689.49	398.12
689.82	396.02
690.16	393.92
690.50	391.96
690.83	390.03
691.17	388.07
691.51	386.17
691.84	384.37
692.18	382.45
692.52	380.45
692.85	378.59
693.19	376.71
693.52	374.90
693.86	373.08
694.20	371.31
694.53	369.54
694.87	367.67
695.21	365.90
695.54	364.07
695.88	362.41
696.21	360.68
696.55	358.99
696.88	357.31
697.22	355.65
697.56	354.05
697.89	352.41
698.23	350.80
698.56	349.22
698.90	347.61
699.23	345.95
699.57	344.41
699.90	342.86
700.24	341.31
700.58	339.77
700.91	338.28
701.25	336.85
701.58	335.48
701.92	334.13
702.25	332.77
702.59	331.43
702.92	330.07
703.26	328.78
703.59	327.51
703.93	326.32
704.26	325.09
704.60	323.78
704.93	322.57
705.26	321.31
705.60	320.12
705.93	318.99
706.27	317.98
706.60	316.95
706.94	315.85
707.27	314.77
707.61	313.73
707.94	312.74
708.27	311.64
708.61	310.52
708.94	309.54
709.28	308.55
709.61	307.60
709.94	306.63
710.28	305.61
710.61	304.65
710.95	303.59
711.28	302.71
711.61	301.79
711.95	300.83
712.28	299.94
712.61	298.96
712.95	298.02
713.28	297.12
713.61	296.21
713.95	295.32
714.28	294.46
714.61	293.59
714.95	292.72
715.28	291.86
715.61	291.01
715.95	290.13
716.28	289.25
716.61	288.40
716.95	287.63
717.28	286.89
717.61	286.11
717.94	285.40
718.28	284.53
718.61	283.81
718.94	283.14
719.27	282.44
719.61	281.81
719.94	281.17
720.27	280.47
720.60	279.81
720.94	279.21
721.27	278.64
721.60	278.08
721.93	277.50
722.27	276.93
722.60	276.35
722.93	275.82
723.26	275.31
723.59	274.73
723.93	274.18
724.26	273.63
724.59	273.12
724.92	272.60
725.25	272.18
725.59	271.65
725.92	271.10
726.25	270.60
726.58	270.09
726.91	269.60
727.24	269.15
727.57	268.69
727.91	268.17
728.24	267.69
728.57	267.17
728.90	266.71
729.23	266.25
729.56	265.86
729.89	265.38
730.22	264.90
730.55	264.48
730.89	264.04
731.22	263.58
731.55	263.14
731.88	262.72
732.21	262.26
732.54	261.83
732.87	261.47
733.20	261.05
733.53	260.65
733.86	260.22
734.19	259.82
734.52	259.43
734.85	259.13
735.18	258.71
735.51	258.36
735.84	257.99
736.17	257.64
736.50	257.26
736.83	257.02
737.16	256.69
737.49	256.37
737.82	256.01
738.15	255.70
738.48	255.39
738.81	255.04
739.14	254.72
739.47	254.39
739.80	254.10
740.13	253.80
740.46	253.48
740.79	253.19
741.12	252.90
741.45	252.57
741.78	252.20
742.11	251.95
742.44	251.63
742.77	251.33
743.10	251.02
743.43	250.69
743.75	250.32
744.08	250.17
744.41	249.88
744.74	249.62
745.07	249.28
745.40	249.03
745.73	248.82
746.06	248.56
746.39	248.33
746.71	248.03
747.04	247.76
747.37	247.49
747.70	247.25
748.03	246.98
748.36	246.76
748.68	246.52
749.01	246.24
749.34	246.01
749.67	245.80
750.00	245.57
750.33	245.44
750.65	245.22
750.98	244.88
751.31	244.63
751.64	244.40
751.97	244.29
752.29	244.06
752.62	243.79
752.95	243.55
753.28	243.33
753.60	243.10
753.93	242.92
754.26	242.72
754.59	242.48
754.91	242.29
755.24	242.11
755.57	241.93
755.90	241.74
756.22	241.54
756.55	241.35
756.88	241.17
757.20	240.94
757.53	240.72
757.86	240.58
758.19	240.46
758.51	240.32
758.84	240.10
759.17	239.93
759.49	239.77
759.82	239.69
760.15	239.57
760.47	239.46
760.80	239.31
761.13	239.23
761.45	239.12
761.78	238.96
762.11	238.80
762.43	238.63
762.76	238.50
763.08	238.38
763.41	238.25
763.74	238.12
764.06	237.99
764.39	237.87
764.71	237.71
765.04	237.53
765.37	237.39
765.69	237.23
766.02	237.12
766.34	237.02
766.67	236.86
767.00	236.70
767.32	236.63
767.65	236.60
767.97	236.46
768.30	236.35
768.62	236.22
768.95	236.13
769.27	236.09
769.60	235.99
769.92	235.87
770.25	235.74
770.57	235.63
770.90	235.52
771.22	235.41
771.55	235.32
771.87	235.28
772.20	235.21
772.52	235.22
772.85	235.25
773.17	235.16
773.50	235.07
773.82	234.98
774.15	234.83
774.47	234.69
774.80	234.60
775.12	234.52
775.45	234.47
775.77	234.38
776.09	234.27
776.42	234.21
776.74	234.17
777.07	234.08
777.39	234.03
777.72	233.98
778.04	233.95
778.36	233.88
778.69	233.79
779.01	233.73
779.33	233.56
779.66	233.38
779.98	233.28
780.31	233.25
780.63	233.23
780.95	233.17
781.28	233.10
781.60	233.03
781.92	232.96
782.25	232.90
782.57	232.85
782.89	232.77
783.22	232.67
783.54	232.60
783.86	232.57
784.19	232.52
784.51	232.49
784.83	232.39
785.16	232.31
785.48	232.27
785.80	232.21
786.12	232.18
786.45	232.13
786.77	232.11
787.09	232.03
787.42	231.95
787.74	231.88
788.06	231.85
788.38	231.80
788.71	231.77
789.03	231.73
789.35	231.71
789.67	231.69
789.99	231.66
790.32	231.62
790.64	231.57
790.96	231.60
791.28	231.51
791.61	231.46
791.93	231.41
792.25	231.36
792.57	231.39
792.89	231.31
793.21	231.25
793.54	231.19
793.86	231.14
794.18	231.12
794.50	231.07
794.82	231.00
795.14	230.97
795.47	230.93
795.79	230.87
796.11	230.80
796.43	230.75
796.75	230.75
797.07	230.71
797.39	230.67
797.71	230.55
798.04	230.51
798.36	230.47
798.68	230.45
799.00	230.40
799.32	230.31
799.64	230.34
799.96	230.31
800.28	230.31
800.60	230.26
800.92	230.23
801.24	230.21
801.56	230.18
801.89	230.13
802.21	230.12
802.53	230.09
802.85	230.05
803.17	230.06
803.49	229.99
803.81	229.95
804.13	229.94
804.45	229.88
804.77	229.86
805.09	229.85
805.41	229.83
805.73	229.79
806.05	229.72
806.37	229.64
806.69	229.62
807.01	229.56
807.33	229.56
807.65	229.47
807.97	229.50
808.28	229.50
808.60	229.46
808.92	229.42
809.24	229.49
809.56	229.49
809.88	229.43
810.20	229.39
810.52	229.39
810.84	229.34
811.16	229.35
811.48	229.34
811.80	229.40
812.12	229.37
812.43	229.41
812.75	229.39
813.07	229.38
813.39	229.39
813.71	229.37
814.03	229.34
814.35	229.35
814.67	229.30
814.98	229.28
815.30	229.27
815.62	229.22
815.94	229.13
816.26	229.12
816.58	229.11
816.89	229.09
817.21	229.05
817.53	229.06
817.85	229.03
818.17	229.02
818.48	228.93
818.80	228.94
819.12	228.87
819.44	228.85
819.76	228.86
820.07	228.83
820.39	228.82
820.71	228.82
821.03	228.80
821.34	228.78
821.66	228.75
821.98	228.75
822.30	228.75
822.61	228.78
822.93	228.72
823.25	228.67
823.57	228.66
823.88	228.64
824.20	228.62
824.52	228.64
824.83	228.62
825.15	228.62
825.47	228.61
825.79	228.63
826.10	228.60
826.42	228.54
826.74	228.50
827.05	228.47
827.37	228.44
827.69	228.41
828.00	228.40
828.32	228.40
828.64	228.37
828.95	228.40
829.27	228.35
829.58	228.34
829.90	228.33
830.22	228.34
830.53	228.33
830.85	228.27
831.17	228.22
831.48	228.20
831.80	228.17
832.11	228.14
832.43	228.12
832.75	228.11
833.06	228.15
833.38	228.13
833.69	228.12
834.01	228.12
834.32	228.14
834.64	228.08
834.96	228.04
835.27	228.01
835.59	227.97
835.90	227.95
836.22	227.97
836.53	227.96
836.85	227.92
837.16	228.00
837.48	228.01
837.79	228.04
838.11	228.02
838.42	228.04
838.74	228.01
839.05	228.01
839.37	228.01
839.68	227.95
840.00	227.97
840.31	227.99
840.63	228.03
840.94	228.00
841.26	228.03
841.57	228.04
841.88	228.06
842.20	228.02
842.51	228.00
842.83	228.00
843.14	228.10
843.46	228.10
843.77	228.04
844.08	228.02
844.40	227.98
844.71	227.98
845.03	227.95
845.34	227.96
845.65	227.97
845.97	227.96
846.28	227.94
846.60	227.92
846.91	227.91
847.22	227.86
847.54	227.88
847.85	227.86
848.16	227.85
848.48	227.85
848.79	227.87
849.10	227.89
849.42	227.89
849.73	227.79
850.04	227.79
850.36	227.77
850.67	227.76
850.98	227.77
851.30	227.74
851.61	227.74
851.92	227.76
852.23	227.78
852.55	227.79
852.86	227.78
853.17	227.81
853.49	227.83
853.80	227.85
854.11	227.86
854.42	227.89
854.74	227.87
855.05	227.85
855.36	227.84
855.67	227.82
855.99	227.81
856.30	227.92
856.61	227.92
856.92	227.89
857.23	227.88
857.55	227.88
857.86	227.87
858.17	227.87
858.48	227.83
858.79	227.82
859.11	227.81
859.42	227.80
859.73	227.76
860.04	227.74
860.35	227.70
860.66	227.64
860.98	227.63
861.29	227.67
861.60	227.66
861.91	227.66
862.22	227.62
862.53	227.62
862.84	227.50
863.16	227.53
863.47	227.52
863.78	227.52
864.09	227.50
864.40	227.55
864.71	227.53
865.02	227.53
865.33	227.48
865.64	227.47
865.95	227.50
866.27	227.55
866.58	227.51
866.89	227.52
867.20	227.51
867.51	227.48
867.82	227.44
868.13	227.45
868.44	227.43
868.75	227.46
869.06	227.44
869.37	227.41
869.68	227.35
869.99	227.37
870.30	227.36
870.61	227.34
870.92	227.31
871.23	227.32
871.54	227.32
871.85	227.33
872.16	227.30
872.47	227.26
872.78	227.19
873.09	227.22
873.40	227.22
873.71	227.22
874.02	227.23
874.33	227.25
874.64	227.22
874.95	227.23
875.26	227.23
875.56	227.23
875.87	227.23
876.18	227.26
876.49	227.38
876.80	227.36
877.11	227.37
877.42	227.33
877.73	227.34
878.04	227.33
878.35	227.33
878.66	227.37
878.96	227.40
879.27	227.41
879.58	227.37
879.89	227.35
880.20	227.36
880.51	227.36
880.82	227.34
881.12	227.34
881.43	227.30
881.74	227.27
882.05	227.27
882.36	227.27
882.67	227.25
882.97	227.12
883.28	227.15
883.59	227.14
883.90	227.16
884.21	227.18
884.51	227.17
884.82	227.16
885.13	227.16
885.44	227.16
885.74	227.19
886.05	227.21
886.36	227.21
886.67	227.21
886.98	227.27
887.28	227.26
887.59	227.26
887.90	227.29
888.20	227.29
888.51	227.30
888.82	227.31
889.13	227.32
889.43	227.42
889.74	227.44
890.05	227.43
890.35	227.45
890.66	227.40
890.97	227.41
891.28	227.42
891.58	227.44
891.89	227.47
892.20	227.45
892.50	227.44
892.81	227.46
893.12	227.45
893.42	227.41
893.73	227.44
894.04	227.42
894.34	227.42
894.65	227.45
894.95	227.45
895.26	227.48
895.57	227.52
895.87	227.43
896.18	227.45
896.48	227.47
896.79	227.43
897.10	227.47
897.40	227.45
897.71	227.46
898.01	227.41
898.32	227.40
898.63	227.38
898.93	227.42
899.24	227.43
899.54	227.42
899.85	227.43
900.15	227.42
900.46	227.46
900.76	227.49
901.07	227.50
901.38	227.51
901.68	227.47
901.99	227.42
902.29	227.40
902.60	227.36
902.90	227.36
903.21	227.40
903.51	227.37
903.82	227.38
904.12	227.39
904.43	227.44
904.73	227.42
905.03	227.42
905.34	227.48
905.64	227.47
905.95	227.50
906.25	227.47
906.56	227.46
906.86	227.42
907.17	227.39
907.47	227.36
907.77	227.34
908.08	227.31
908.38	227.30
908.69	227.32
908.99	227.36
909.30	227.30
909.60	227.25
909.90	227.26
910.21	227.26
910.51	227.23
910.81	227.18
911.12	227.17
911.42	227.16
911.73	227.05
912.03	227.06
912.33	227.06
912.64	227.05
912.94	227.05
913.24	227.05
913.55	227.05
913.85	227.07
914.15	227.09
914.46	227.11
914.76	227.11
915.06	227.09
915.37	227.05
915.67	227.07
915.97	227.11
916.27	227.11
916.58	227.12
916.88	227.10
917.18	227.11
917.49	227.18
917.79	227.19
918.09	227.22
918.39	227.21
918.70	227.22
919.00	227.23
919.30	227.26
919.60	227.25
919.91	227.24
920.21	227.23
920.51	227.21
920.81	227.22
921.12	227.25
921.42	227.27
921.72	227.28
922.02	227.28
922.32	227.31
922.63	227.29
922.93	227.36
923.23	227.39
923.53	227.38
923.83	227.34
924.13	227.37
924.44	227.37
924.74	227.41
925.04	227.42
925.34	227.42
925.64	227.43
925.94	227.46
926.24	227.52
926.55	227.50
926.85	227.50
927.15	227.50
927.45	227.51
927.75	227.50
928.05	227.53
928.35	227.54
928.65	227.53
928.95	227.55
929.26	227.52
929.56	227.54
929.86	227.57
930.16	227.55
930.46	227.53
930.76	227.53
931.06	227.48
931.36	227.44
931.66	227.47
931.96	227.48
932.26	227.46
932.56	227.39
932.86	227.43
933.16	227.44
933.46	227.42
933.76	227.37
934.06	227.36
934.36	227.39
934.66	227.36
934.96	227.33
935.26	227.33
935.56	227.33
935.86	227.33
936.16	227.30
936.46	227.31
936.76	227.28
937.06	227.27
937.36	227.27
937.66	227.27
937.96	227.24
938.26	227.19
938.56	227.16
938.86	227.17
939.16	227.16
939.46	227.15
939.76	227.16
940.06	227.15
940.35	227.16
940.65	227.11
940.95	227.13
941.25	227.10
941.55	227.07
941.85	227.03
942.15	227.02
942.45	227.04
942.75	227.01
943.04	227.02
943.34	227.04
943.64	227.01
943.94	227.01
944.24	227.03
944.54	227.03
944.84	227.07
945.13	227.10
945.43	227.10
945.73	227.09
946.03	227.09
946.33	227.10
946.62	227.08
946.92	227.08
947.22	227.08
947.52	227.10
947.82	227.13
948.11	227.14
948.41	227.09
948.71	227.09
949.01	227.10
949.31	227.07
949.60	227.07
949.90	227.10
950.20	227.11
950.50	227.07
950.79	227.07
951.09	227.07
951.39	227.04
951.69	227.03
951.98	227.04
952.28	227.06
952.58	227.07
952.87	227.07
953.17	227.04
953.47	227.04
953.76	227.04
954.06	227.00
954.36	226.97
954.66	226.98
954.95	227.03
955.25	227.05
955.55	227.07
955.84	227.07
956.14	227.09
956.44	227.09
956.73	227.07
957.03	227.06
957.32	227.06
957.62	227.05
957.92	227.04
958.21	227.04
958.51	227.09
958.81	227.12
959.10	227.14
959.40	227.22
959.69	227.22
959.99	227.23
960.29	227.24
960.58	227.26
960.88	227.31
961.17	227.27
961.47	227.25
961.76	227.28
962.06	227.27
962.36	227.28
962.65	227.25
962.95	227.31
963.24	227.32
963.54	227.33
963.83	227.34
964.13	227.37
964.42	227.34
964.72	227.31
965.01	227.28
965.31	227.30
965.60	227.25
965.90	227.31
966.19	227.33
966.49	227.34
966.78	227.38
967.08	227.35
967.37	227.37
967.67	227.36
967.96	227.36
968.26	227.37
968.55	227.36
968.85	227.42
969.14	227.39
969.43	227.38
969.73	227.39
970.02	227.40
970.32	227.36
970.61	227.38
970.91	227.36
971.20	227.39
971.49	227.39
971.79	227.42
972.08	227.37
972.38	227.38
972.67	227.38
972.96	227.37
973.26	227.38
973.55	227.40
973.85	227.38
974.14	227.39
974.43	227.39
974.73	227.37
975.02	227.35
975.31	227.40
975.61	227.38
975.90	227.34
976.19	227.34
976.49	227.36
976.78	227.35
977.07	227.36
977.37	227.32
977.66	227.29
977.95	227.21
978.24	227.22
978.54	227.19
978.83	227.14
979.12	227.11
979.42	227.09
979.71	227.06
980.00	227.05
980.29	227.03
980.59	226.97
980.88	226.99
981.17	226.95
981.46	226.89
981.76	226.88
982.05	226.90
982.34	226.87
982.63	226.86
982.93	226.85
983.22	226.85
983.51	226.85
983.80	226.84
984.09	226.87
984.39	226.84
984.68	226.82
984.97	226.83
985.26	226.84
985.55	226.83
985.85	226.81
986.14	226.87
986.43	226.88
986.72	226.88
987.01	226.83
987.30	226.85
987.59	226.86
987.89	226.88
988.18	226.88
988.47	226.84
988.76	226.85
989.05	226.82
989.34	226.80
989.63	226.83
989.92	226.84
990.22	226.85
990.51	226.86
990.80	226.85
991.09	226.84
991.38	226.85
991.67	226.82
991.96	226.80
992.25	226.78
992.54	226.79
992.83	226.82
993.12	226.85
993.41	226.85
993.70	226.88
993.99	226.90
994.28	226.91
994.58	226.96
994.87	226.94
995.16	226.96
995.45	226.95
995.74	226.88
996.03	226.88
996.32	226.89
996.61	226.92
996.90	226.94
997.19	226.96
997.48	226.97
997.77	226.97
998.06	226.99
998.34	226.96
998.63	226.93
998.92	226.90
999.21	226.89
999.50	226.90
999.79	226.85
1000.08	226.84
1000.37	226.86
1000.66	226.88
1000.95	226.92
1001.24	226.96
1001.53	227.01
1001.82	227.05
1002.11	227.06
1002.40	227.08
1002.68	227.09
1002.97	227.15
1003.26	227.17
1003.55	227.16
1003.84	227.21
1004.13	227.23
1004.42	227.22
1004.71	227.23
1004.99	227.25
1005.28	227.27
1005.57	227.27
1005.86	227.31
1006.15	227.31
1006.44	227.29
1006.72	227.32
1007.01	227.29
1007.30	227.27
1007.59	227.25
1007.88	227.23
1008.17	227.24
1008.45	227.21
1008.74	227.20
1009.03	227.21
1009.32	227.20
1009.60	227.19
1009.89	227.15
1010.18	227.14
1010.47	227.15
1010.76	227.16
1011.04	227.16
1011.33	227.15
1011.62	227.18
1011.91	227.16
1012.19	227.14
1012.48	227.14
1012.77	227.08
1013.05	227.15
1013.34	227.12
1013.63	227.09
1013.92	227.12
1014.20	227.10
1014.49	227.10
1014.78	227.08
1015.06	227.02
1015.35	226.99
1015.64	227.01
1015.92	227.03
1016.21	227.03
1016.50	227.03
1016.78	227.04
1017.07	227.03
1017.36	227.01
1017.64	226.96
1017.93	226.94
1018.22	226.93
1018.50	226.91
1018.79	226.90
1019.08	226.83
1019.36	226.84
1019.65	226.85
1019.93	226.84
1020.22	226.84
1020.51	226.89
1020.79	226.86
1021.08	226.53
1021.36	226.71
1021.65	226.73
1021.94	226.57
1022.22	226.87
1022.51	226.91
1022.79	226.92
1023.08	226.98
1023.36	227.73
1023.65	226.47
>>>>>End Processed Spectral Data<<<<<
