SpectraSuite Data File
++++++++++++++++++++++++++++++++++++
Date: Fri Feb 01 16:10:34 EST 2013
User: group
Dark Spectrum Present: No
Reference Spectrum Present: No
Number of Sampled Component Spectra: 1
Spectrometers: USB2E7196
Integration Time (usec): 35000 (USB2E7196)
Spectra Averaged: 100 (USB2E7196)
Boxcar Smoothing: 10 (USB2E7196)
Correct for Electrical Dark: No (USB2E7196)
Strobe/Lamp Enabled: No (USB2E7196)
Correct for Detector Non-linearity: No (USB2E7196)
Correct for Stray Light: No (USB2E7196)
Number of Pixels in Processed Spectrum: 2048
>>>>>Begin Processed Spectral Data<<<<<
339.09	0.00
339.48	214.80
339.86	216.00
340.24	217.45
340.63	218.62
341.01	221.02
341.39	221.22
341.78	222.24
342.16	224.68
342.54	224.05
342.93	212.77
343.31	223.53
343.69	224.09
344.07	224.55
344.46	225.00
344.84	225.39
345.22	225.62
345.60	225.87
345.99	226.11
346.37	226.21
346.75	226.33
347.13	226.36
347.52	226.42
347.90	226.50
348.28	226.52
348.66	226.58
349.05	226.59
349.43	226.64
349.81	226.65
350.19	226.70
350.57	226.77
350.96	226.81
351.34	226.90
351.72	226.94
352.10	227.01
352.48	227.05
352.87	227.09
353.25	227.19
353.63	227.25
354.01	227.30
354.39	227.37
354.77	227.43
355.15	227.59
355.54	227.64
355.92	227.69
356.30	227.77
356.68	227.89
357.06	227.96
357.44	228.03
357.82	228.09
358.20	228.15
358.58	228.19
358.97	228.26
359.35	228.32
359.73	228.41
360.11	228.49
360.49	228.57
360.87	228.63
361.25	228.69
361.63	228.79
362.01	228.85
362.39	228.89
362.77	228.98
363.15	228.97
363.53	229.05
363.91	229.06
364.29	229.10
364.67	229.04
365.05	229.07
365.43	229.09
365.81	229.17
366.19	229.23
366.57	229.31
366.95	229.32
367.33	229.31
367.71	229.28
368.09	229.29
368.47	229.27
368.85	229.23
369.23	229.22
369.61	229.14
369.99	229.11
370.37	229.13
370.75	229.11
371.13	229.04
371.51	228.98
371.89	228.92
372.27	228.90
372.65	228.86
373.03	228.79
373.41	228.72
373.78	228.64
374.16	228.54
374.54	228.43
374.92	228.36
375.30	228.31
375.68	228.25
376.06	228.16
376.44	228.10
376.82	228.09
377.19	228.03
377.57	227.94
377.95	227.88
378.33	227.78
378.71	227.65
379.09	227.62
379.47	227.54
379.84	227.47
380.22	227.39
380.60	227.29
380.98	227.25
381.36	227.16
381.73	227.09
382.11	227.05
382.49	227.02
382.87	226.93
383.25	226.87
383.62	226.92
384.00	226.86
384.38	226.79
384.76	226.75
385.13	226.71
385.51	226.70
385.89	226.62
386.27	226.58
386.64	226.54
387.02	226.46
387.40	226.42
387.78	226.42
388.15	226.37
388.53	226.39
388.91	226.33
389.29	226.31
389.66	226.29
390.04	226.22
390.42	226.17
390.79	226.17
391.17	226.14
391.55	226.05
391.92	226.03
392.30	226.00
392.68	225.97
393.05	226.01
393.43	225.97
393.81	226.00
394.18	225.96
394.56	225.98
394.94	226.03
395.31	226.05
395.69	226.07
396.06	226.11
396.44	226.12
396.82	226.14
397.19	226.22
397.57	226.24
397.95	226.35
398.32	226.39
398.70	226.46
399.07	226.53
399.45	226.55
399.82	226.61
400.20	226.69
400.58	226.75
400.95	226.73
401.33	226.85
401.70	226.99
402.08	227.11
402.45	227.20
402.83	227.31
403.20	227.45
403.58	227.53
403.95	227.66
404.33	227.76
404.71	227.91
405.08	228.04
405.46	228.19
405.83	228.33
406.21	228.47
406.58	228.63
406.96	228.80
407.33	228.99
407.70	229.16
408.08	229.46
408.45	229.69
408.83	229.93
409.20	230.12
409.58	230.28
409.95	230.53
410.33	230.84
410.70	231.08
411.08	231.38
411.45	231.69
411.82	232.01
412.20	232.38
412.57	232.79
412.95	233.13
413.32	233.56
413.69	233.91
414.07	234.36
414.44	234.84
414.82	235.30
415.19	235.83
415.56	236.40
415.94	236.94
416.31	237.58
416.68	238.21
417.06	238.93
417.43	239.63
417.81	240.39
418.18	241.15
418.55	242.00
418.93	242.87
419.30	243.77
419.67	244.69
420.04	245.65
420.42	246.61
420.79	247.79
421.16	248.93
421.54	250.18
421.91	251.39
422.28	252.66
422.66	254.01
423.03	255.32
423.40	256.63
423.77	258.04
424.15	259.46
424.52	260.95
424.89	262.59
425.26	264.15
425.64	265.59
426.01	267.13
426.38	268.77
426.75	270.44
427.13	272.15
427.50	273.92
427.87	275.77
428.24	277.63
428.61	279.35
428.99	281.27
429.36	283.33
429.73	285.42
430.10	287.40
430.47	289.46
430.85	291.64
431.22	293.87
431.59	296.28
431.96	298.49
432.33	301.00
432.70	303.37
433.08	306.16
433.45	308.81
433.82	311.47
434.19	314.36
434.56	317.13
434.93	319.81
435.30	322.40
435.68	325.31
436.05	328.14
436.42	330.91
436.79	333.44
437.16	336.14
437.53	338.95
437.90	341.74
438.27	344.42
438.64	347.17
439.01	349.75
439.38	351.95
439.75	354.12
440.13	356.57
440.50	358.83
440.87	360.67
441.24	362.58
441.61	364.71
441.98	366.18
442.35	367.98
442.72	369.84
443.09	371.67
443.46	372.62
443.83	373.20
444.20	373.70
444.57	374.51
444.94	374.77
445.31	375.09
445.68	375.47
446.05	375.51
446.42	375.14
446.79	374.75
447.16	374.27
447.53	373.96
447.90	372.80
448.27	371.64
448.64	370.07
449.01	368.95
449.37	367.03
449.74	365.16
450.11	362.93
450.48	360.43
450.85	357.92
451.22	355.81
451.59	353.80
451.96	351.86
452.33	349.31
452.70	346.96
453.07	344.15
453.43	341.24
453.80	338.54
454.17	335.86
454.54	333.27
454.91	330.55
455.28	327.86
455.65	325.42
456.02	323.00
456.38	320.82
456.75	318.16
457.12	315.89
457.49	313.65
457.86	311.45
458.23	309.64
458.59	307.58
458.96	305.48
459.33	303.61
459.70	301.76
460.07	300.26
460.43	298.61
460.80	296.99
461.17	295.57
461.54	294.05
461.91	292.68
462.27	291.25
462.64	290.04
463.01	288.68
463.38	287.36
463.74	285.99
464.11	284.87
464.48	283.82
464.85	282.71
465.21	281.84
465.58	280.96
465.95	279.85
466.32	278.96
466.68	278.09
467.05	277.22
467.42	276.34
467.78	275.36
468.15	274.40
468.52	273.74
468.88	272.88
469.25	272.10
469.62	271.42
469.98	270.74
470.35	270.09
470.72	269.50
471.08	268.90
471.45	268.40
471.82	267.85
472.18	267.26
472.55	266.84
472.92	266.29
473.28	265.81
473.65	265.35
474.02	264.92
474.38	264.58
474.75	264.28
475.11	263.96
475.48	263.75
475.85	263.57
476.21	263.35
476.58	263.18
476.94	263.04
477.31	262.93
477.67	262.83
478.04	262.73
478.41	262.69
478.77	262.68
479.14	262.62
479.50	262.62
479.87	262.73
480.23	262.79
480.60	262.90
480.96	263.02
481.33	263.24
481.69	263.42
482.06	263.59
482.42	263.75
482.79	263.98
483.15	264.28
483.52	264.64
483.88	264.99
484.25	265.35
484.61	265.79
484.98	266.20
485.34	266.74
485.71	267.34
486.07	267.92
486.44	268.49
486.80	269.19
487.17	269.88
487.53	270.70
487.90	271.58
488.26	272.48
488.62	273.46
488.99	274.42
489.35	275.45
489.72	276.61
490.08	277.82
490.44	279.10
490.81	280.43
491.17	281.79
491.54	283.25
491.90	284.80
492.26	286.45
492.63	288.20
492.99	289.98
493.36	291.88
493.72	293.96
494.08	296.07
494.45	298.34
494.81	300.76
495.17	303.18
495.54	305.69
495.90	308.40
496.26	311.18
496.63	314.16
496.99	317.31
497.35	320.57
497.72	323.97
498.08	327.49
498.44	331.19
498.80	335.14
499.17	339.19
499.53	343.41
499.89	347.81
500.26	352.34
500.62	357.08
500.98	362.06
501.34	367.12
501.71	372.48
502.07	377.98
502.43	383.58
502.79	389.42
503.16	395.52
503.52	401.85
503.88	408.29
504.24	414.95
504.60	421.89
504.97	429.04
505.33	436.39
505.69	444.09
506.05	451.84
506.41	459.75
506.78	467.94
507.14	476.38
507.50	485.04
507.86	494.09
508.22	503.25
508.59	512.43
508.95	522.03
509.31	531.85
509.67	541.93
510.03	552.28
510.39	562.85
510.75	573.66
511.12	584.50
511.48	595.82
511.84	607.32
512.20	618.80
512.56	630.70
512.92	642.93
513.28	655.33
513.64	667.88
514.00	680.62
514.37	693.57
514.73	706.58
515.09	719.69
515.45	732.98
515.81	746.58
516.17	760.56
516.53	774.77
516.89	788.92
517.25	803.09
517.61	817.47
517.97	831.90
518.33	846.29
518.69	861.15
519.05	876.03
519.41	891.08
519.77	906.59
520.13	922.03
520.49	937.31
520.85	952.73
521.21	968.33
521.57	984.46
521.93	1000.22
522.29	1016.56
522.65	1032.82
523.01	1048.92
523.37	1064.96
523.73	1081.19
524.09	1097.21
524.45	1113.44
524.81	1130.01
525.17	1146.72
525.53	1163.65
525.89	1180.52
526.25	1197.22
526.61	1213.68
526.97	1230.30
527.33	1246.77
527.68	1263.28
528.04	1279.71
528.40	1296.13
528.76	1313.10
529.12	1329.55
529.48	1346.39
529.84	1362.47
530.20	1378.98
530.56	1396.17
530.91	1413.53
531.27	1430.22
531.63	1446.56
531.99	1463.14
532.35	1478.99
532.71	1494.73
533.07	1510.83
533.42	1526.70
533.78	1542.78
534.14	1558.89
534.50	1574.27
534.86	1590.04
535.21	1605.15
535.57	1620.99
535.93	1636.44
536.29	1651.24
536.65	1666.31
537.00	1680.95
537.36	1696.14
537.72	1710.59
538.08	1724.79
538.44	1738.46
538.79	1752.20
539.15	1765.82
539.51	1779.52
539.87	1793.83
540.22	1807.52
540.58	1821.18
540.94	1834.44
541.29	1847.12
541.65	1859.74
542.01	1872.90
542.37	1885.09
542.72	1897.57
543.08	1909.24
543.44	1921.67
543.79	1932.86
544.15	1943.68
544.51	1955.31
544.87	1966.28
545.22	1976.98
545.58	1987.12
545.94	1996.80
546.29	2006.60
546.65	2016.34
547.01	2025.43
547.36	2034.15
547.72	2042.68
548.07	2050.45
548.43	2058.52
548.79	2066.61
549.14	2074.13
549.50	2081.50
549.86	2089.16
550.21	2096.34
550.57	2103.55
550.92	2109.94
551.28	2117.04
551.64	2124.11
551.99	2130.48
552.35	2136.54
552.70	2142.80
553.06	2148.74
553.41	2155.11
553.77	2161.24
554.13	2167.40
554.48	2173.68
554.84	2179.10
555.19	2184.40
555.55	2189.63
555.90	2194.24
556.26	2199.06
556.61	2203.84
556.97	2208.12
557.32	2212.30
557.68	2216.44
558.03	2220.79
558.39	2224.51
558.74	2229.06
559.10	2232.90
559.45	2236.51
559.81	2240.88
560.16	2244.61
560.52	2247.96
560.87	2251.24
561.23	2253.82
561.58	2256.76
561.94	2259.22
562.29	2261.63
562.64	2264.32
563.00	2266.96
563.35	2270.47
563.71	2273.62
564.06	2276.77
564.42	2279.58
564.77	2282.07
565.12	2284.48
565.48	2286.37
565.83	2288.28
566.19	2289.65
566.54	2290.54
566.89	2291.75
567.25	2292.31
567.60	2293.62
567.96	2295.31
568.31	2296.21
568.66	2297.36
569.02	2297.98
569.37	2298.28
569.72	2299.19
570.08	2299.36
570.43	2299.41
570.78	2298.81
571.14	2297.34
571.49	2296.02
571.84	2295.80
572.20	2294.72
572.55	2293.59
572.90	2292.02
573.26	2290.73
573.61	2288.90
573.96	2287.33
574.31	2284.40
574.67	2281.40
575.02	2277.90
575.37	2274.46
575.72	2270.77
576.08	2267.50
576.43	2264.13
576.78	2260.42
577.13	2257.07
577.49	2253.91
577.84	2250.50
578.19	2246.72
578.54	2243.14
578.90	2239.07
579.25	2233.53
579.60	2228.70
579.95	2223.69
580.30	2218.71
580.66	2213.45
581.01	2208.67
581.36	2203.89
581.71	2199.77
582.06	2195.35
582.42	2190.87
582.77	2185.60
583.12	2181.13
583.47	2176.36
583.82	2171.42
584.17	2166.43
584.53	2161.16
584.88	2155.73
585.23	2150.03
585.58	2144.57
585.93	2139.04
586.28	2134.24
586.63	2129.17
586.98	2124.10
587.34	2119.43
587.69	2114.56
588.04	2109.36
588.39	2103.74
588.74	2097.21
589.09	2091.14
589.44	2084.45
589.79	2078.55
590.14	2073.08
590.49	2066.44
590.84	2060.10
591.19	2054.12
591.54	2047.67
591.89	2040.32
592.25	2033.47
592.60	2026.22
592.95	2018.75
593.30	2011.54
593.65	2004.00
594.00	1996.99
594.35	1989.80
594.70	1981.84
595.05	1974.77
595.40	1967.65
595.75	1960.16
596.10	1953.96
596.45	1947.19
596.80	1941.04
597.15	1934.39
597.50	1927.22
597.85	1920.80
598.19	1914.20
598.54	1907.04
598.89	1900.32
599.24	1894.36
599.59	1887.71
599.94	1881.49
600.29	1875.21
600.64	1868.57
600.99	1861.10
601.34	1854.30
601.69	1847.31
602.04	1840.42
602.39	1833.13
602.74	1826.26
603.08	1819.56
603.43	1812.88
603.78	1805.53
604.13	1798.27
604.48	1791.03
604.83	1784.23
605.18	1777.29
605.53	1769.39
605.87	1761.41
606.22	1754.18
606.57	1746.23
606.92	1738.80
607.27	1731.72
607.62	1724.75
607.96	1717.57
608.31	1710.99
608.66	1703.44
609.01	1695.89
609.36	1688.32
609.70	1680.11
610.05	1672.10
610.40	1664.38
610.75	1656.09
611.10	1648.40
611.44	1640.06
611.79	1632.01
612.14	1623.46
612.49	1614.27
612.83	1605.87
613.18	1597.80
613.53	1589.73
613.88	1581.16
614.22	1572.92
614.57	1564.29
614.92	1556.27
615.27	1548.73
615.61	1540.38
615.96	1532.22
616.31	1524.63
616.65	1517.30
617.00	1509.76
617.35	1501.98
617.70	1493.54
618.04	1484.90
618.39	1476.78
618.74	1469.10
619.08	1460.80
619.43	1453.12
619.78	1446.26
620.12	1439.05
620.47	1431.48
620.82	1423.28
621.16	1415.99
621.51	1408.47
621.85	1400.77
622.20	1392.25
622.55	1383.79
622.89	1375.95
623.24	1368.38
623.59	1360.99
623.93	1353.48
624.28	1346.42
624.62	1338.94
624.97	1331.84
625.32	1325.12
625.66	1318.14
626.01	1311.02
626.35	1303.53
626.70	1295.75
627.04	1288.05
627.39	1280.19
627.73	1272.74
628.08	1265.88
628.43	1258.56
628.77	1251.07
629.12	1243.61
629.46	1236.45
629.81	1229.10
630.15	1221.85
630.50	1214.45
630.84	1206.18
631.19	1198.20
631.53	1190.62
631.88	1183.07
632.22	1175.49
632.57	1168.12
632.91	1160.55
633.26	1153.08
633.60	1145.75
633.95	1138.69
634.29	1131.63
634.64	1125.04
634.98	1117.72
635.32	1110.49
635.67	1103.93
636.01	1097.32
636.36	1090.48
636.70	1083.83
637.05	1077.24
637.39	1070.79
637.73	1064.23
638.08	1058.36
638.42	1052.39
638.77	1045.95
639.11	1039.36
639.45	1032.97
639.80	1026.40
640.14	1019.93
640.49	1013.41
640.83	1007.08
641.17	1000.82
641.52	994.43
641.86	987.89
642.20	981.98
642.55	975.64
642.89	969.11
643.23	962.59
643.58	956.84
643.92	950.72
644.26	944.67
644.61	938.59
644.95	932.58
645.29	925.98
645.64	919.23
645.98	912.88
646.32	907.12
646.66	901.14
647.01	895.24
647.35	889.51
647.69	883.65
648.04	878.08
648.38	872.24
648.72	866.30
649.06	860.25
649.41	854.51
649.75	848.60
650.09	842.62
650.43	836.84
650.78	830.70
651.12	824.77
651.46	819.02
651.80	813.28
652.14	807.95
652.49	802.57
652.83	797.37
653.17	791.68
653.51	785.85
653.85	780.43
654.20	774.85
654.54	768.91
654.88	763.13
655.22	757.27
655.56	751.66
655.90	746.10
656.25	740.89
656.59	735.40
656.93	730.29
657.27	725.19
657.61	719.67
657.95	714.56
658.29	709.48
658.64	704.25
658.98	698.94
659.32	693.40
659.66	688.24
660.00	682.95
660.34	678.07
660.68	673.17
661.02	668.10
661.36	663.37
661.70	658.86
662.05	654.55
662.39	650.25
662.73	645.74
663.07	641.43
663.41	636.96
663.75	632.56
664.09	628.00
664.43	623.62
664.77	619.57
665.11	615.31
665.45	611.16
665.79	607.05
666.13	602.93
666.47	598.93
666.81	594.78
667.15	590.65
667.49	586.68
667.83	582.84
668.17	578.96
668.51	574.90
668.85	570.85
669.19	567.06
669.53	563.25
669.87	559.38
670.21	555.63
670.55	551.97
670.89	548.49
671.23	545.02
671.57	541.44
671.91	537.88
672.25	534.32
672.58	530.77
672.92	527.35
673.26	524.18
673.60	521.02
673.94	517.89
674.28	515.00
674.62	512.02
674.96	508.87
675.30	505.96
675.64	503.02
675.97	500.25
676.31	497.30
676.65	494.31
676.99	491.64
677.33	488.80
677.67	486.04
678.01	483.04
678.34	480.14
678.68	477.32
679.02	474.51
679.36	471.79
679.70	469.14
680.04	466.42
680.37	463.55
680.71	460.72
681.05	458.08
681.39	455.35
681.73	452.71
682.06	450.24
682.40	447.66
682.74	445.14
683.08	442.58
683.42	440.07
683.75	437.65
684.09	435.08
684.43	432.62
684.77	430.12
685.10	427.76
685.44	425.44
685.78	423.14
686.12	420.88
686.45	418.55
686.79	416.26
687.13	414.06
687.46	411.94
687.80	409.75
688.14	407.54
688.48	405.47
688.81	403.22
689.15	401.07
689.49	398.88
689.82	396.83
690.16	394.75
690.50	392.74
690.83	390.76
691.17	388.77
691.51	386.86
691.84	384.99
692.18	383.03
692.52	381.04
692.85	379.09
693.19	377.23
693.52	375.40
693.86	373.51
694.20	371.67
694.53	369.86
694.87	368.03
695.21	366.24
695.54	364.42
695.88	362.69
696.21	360.95
696.55	359.32
696.88	357.63
697.22	355.94
697.56	354.28
697.89	352.64
698.23	351.02
698.56	349.39
698.90	347.85
699.23	346.20
699.57	344.64
699.90	343.09
700.24	341.54
700.58	340.01
700.91	338.53
701.25	337.08
701.58	335.68
701.92	334.32
702.25	332.93
702.59	331.54
702.92	330.25
703.26	328.95
703.59	327.63
703.93	326.39
704.26	325.18
704.60	323.89
704.93	322.61
705.26	321.34
705.60	320.15
705.93	318.95
706.27	317.95
706.60	316.85
706.94	315.75
707.27	314.63
707.61	313.57
707.94	312.52
708.27	311.46
708.61	310.39
708.94	309.39
709.28	308.39
709.61	307.40
709.94	306.37
710.28	305.33
710.61	304.35
710.95	303.29
711.28	302.37
711.61	301.45
711.95	300.53
712.28	299.60
712.61	298.61
712.95	297.69
713.28	296.74
713.61	295.89
713.95	294.99
714.28	294.16
714.61	293.27
714.95	292.40
715.28	291.49
715.61	290.62
715.95	289.75
716.28	288.91
716.61	288.05
716.95	287.30
717.28	286.57
717.61	285.81
717.94	285.06
718.28	284.25
718.61	283.50
718.94	282.78
719.27	282.13
719.61	281.49
719.94	280.83
720.27	280.16
720.60	279.51
720.94	278.90
721.27	278.32
721.60	277.75
721.93	277.18
722.27	276.68
722.60	276.14
722.93	275.58
723.26	275.04
723.59	274.51
723.93	273.96
724.26	273.42
724.59	272.85
724.92	272.32
725.25	271.84
725.59	271.34
725.92	270.86
726.25	270.33
726.58	269.86
726.91	269.37
727.24	268.91
727.57	268.45
727.91	267.92
728.24	267.42
728.57	266.93
728.90	266.51
729.23	266.05
729.56	265.62
729.89	265.17
730.22	264.69
730.55	264.27
730.89	263.83
731.22	263.36
731.55	262.97
731.88	262.56
732.21	262.11
732.54	261.69
732.87	261.23
733.20	260.83
733.53	260.41
733.86	260.02
734.19	259.61
734.52	259.21
734.85	258.93
735.18	258.53
735.51	258.17
735.84	257.78
736.17	257.44
736.50	257.04
736.83	256.81
737.16	256.47
737.49	256.10
737.82	255.72
738.15	255.41
738.48	255.06
738.81	254.73
739.14	254.42
739.47	254.13
739.80	253.84
740.13	253.52
740.46	253.23
740.79	252.89
741.12	252.60
741.45	252.28
741.78	251.92
742.11	251.63
742.44	251.29
742.77	250.99
743.10	250.64
743.43	250.34
743.75	249.97
744.08	249.82
744.41	249.57
744.74	249.31
745.07	249.03
745.40	248.76
745.73	248.54
746.06	248.25
746.39	247.95
746.71	247.68
747.04	247.43
747.37	247.13
747.70	246.90
748.03	246.62
748.36	246.37
748.68	246.13
749.01	245.87
749.34	245.67
749.67	245.45
750.00	245.20
750.33	244.98
750.65	244.73
750.98	244.37
751.31	244.13
751.64	243.92
751.97	243.72
752.29	243.52
752.62	243.26
752.95	243.04
753.28	242.83
753.60	242.62
753.93	242.41
754.26	242.21
754.59	241.97
754.91	241.77
755.24	241.56
755.57	241.39
755.90	241.18
756.22	240.96
756.55	240.76
756.88	240.57
757.20	240.34
757.53	240.19
757.86	240.02
758.19	239.84
758.51	239.68
758.84	239.47
759.17	239.26
759.49	239.09
759.82	238.96
760.15	238.81
760.47	238.65
760.80	238.50
761.13	238.38
761.45	238.23
761.78	238.11
762.11	237.98
762.43	237.81
762.76	237.73
763.08	237.61
763.41	237.48
763.74	237.35
764.06	237.26
764.39	237.09
764.71	236.98
765.04	236.87
765.37	236.72
765.69	236.63
766.02	236.53
766.34	236.42
766.67	236.28
767.00	236.16
767.32	236.10
767.65	236.04
767.97	235.94
768.30	235.84
768.62	235.73
768.95	235.64
769.27	235.54
769.60	235.38
769.92	235.29
770.25	235.18
770.57	235.06
770.90	234.96
771.22	234.88
771.55	234.78
771.87	234.71
772.20	234.64
772.52	234.61
772.85	234.63
773.17	234.55
773.50	234.46
773.82	234.39
774.15	234.25
774.47	234.11
774.80	233.99
775.12	233.94
775.45	233.85
775.77	233.78
776.09	233.71
776.42	233.68
776.74	233.61
777.07	233.53
777.39	233.49
777.72	233.42
778.04	233.35
778.36	233.29
778.69	233.21
779.01	233.16
779.33	233.02
779.66	232.83
779.98	232.75
780.31	232.67
780.63	232.65
780.95	232.65
781.28	232.57
781.60	232.52
781.92	232.41
782.25	232.36
782.57	232.27
782.89	232.19
783.22	232.13
783.54	232.06
783.86	232.03
784.19	231.94
784.51	231.92
784.83	231.88
785.16	231.79
785.48	231.73
785.80	231.66
786.12	231.59
786.45	231.56
786.77	231.53
787.09	231.48
787.42	231.40
787.74	231.33
788.06	231.29
788.38	231.24
788.71	231.20
789.03	231.18
789.35	231.16
789.67	231.11
789.99	231.03
790.32	231.01
790.64	230.97
790.96	231.00
791.28	230.91
791.61	230.85
791.93	230.81
792.25	230.74
792.57	230.77
792.89	230.73
793.21	230.66
793.54	230.62
793.86	230.57
794.18	230.53
794.50	230.48
794.82	230.45
795.14	230.42
795.47	230.37
795.79	230.31
796.11	230.26
796.43	230.22
796.75	230.21
797.07	230.16
797.39	230.12
797.71	230.00
798.04	229.98
798.36	229.94
798.68	229.92
799.00	229.90
799.32	229.78
799.64	229.77
799.96	229.78
800.28	229.78
800.60	229.74
800.92	229.70
801.24	229.65
801.56	229.62
801.89	229.56
802.21	229.56
802.53	229.53
802.85	229.53
803.17	229.56
803.49	229.50
803.81	229.45
804.13	229.42
804.45	229.39
804.77	229.37
805.09	229.34
805.41	229.29
805.73	229.25
806.05	229.23
806.37	229.18
806.69	229.12
807.01	229.03
807.33	229.04
807.65	228.97
807.97	228.98
808.28	228.93
808.60	228.91
808.92	228.86
809.24	228.88
809.56	228.83
809.88	228.79
810.20	228.77
810.52	228.80
810.84	228.74
811.16	228.73
811.48	228.70
811.80	228.70
812.12	228.66
812.43	228.66
812.75	228.65
813.07	228.64
813.39	228.65
813.71	228.65
814.03	228.61
814.35	228.62
814.67	228.57
814.98	228.56
815.30	228.56
815.62	228.53
815.94	228.48
816.26	228.50
816.58	228.45
816.89	228.46
817.21	228.41
817.53	228.40
817.85	228.39
818.17	228.37
818.48	228.32
818.80	228.34
819.12	228.31
819.44	228.28
819.76	228.25
820.07	228.21
820.39	228.19
820.71	228.18
821.03	228.19
821.34	228.19
821.66	228.17
821.98	228.18
822.30	228.17
822.61	228.18
822.93	228.13
823.25	228.12
823.57	228.08
823.88	228.09
824.20	228.10
824.52	228.10
824.83	228.11
825.15	228.11
825.47	228.12
825.79	228.11
826.10	228.14
826.42	228.11
826.74	228.10
827.05	228.09
827.37	228.10
827.69	228.07
828.00	228.04
828.32	228.05
828.64	228.01
828.95	228.04
829.27	228.01
829.58	227.97
829.90	227.96
830.22	227.98
830.53	227.94
830.85	227.89
831.17	227.85
831.48	227.83
831.80	227.82
832.11	227.78
832.43	227.76
832.75	227.72
833.06	227.79
833.38	227.76
833.69	227.76
834.01	227.74
834.32	227.74
834.64	227.72
834.96	227.71
835.27	227.71
835.59	227.66
835.90	227.62
836.22	227.62
836.53	227.60
836.85	227.53
837.16	227.58
837.48	227.55
837.79	227.60
838.11	227.61
838.42	227.55
838.74	227.57
839.05	227.55
839.37	227.53
839.68	227.43
840.00	227.38
840.31	227.39
840.63	227.37
840.94	227.33
841.26	227.30
841.57	227.26
841.88	227.23
842.20	227.21
842.51	227.21
842.83	227.24
843.14	227.30
843.46	227.33
843.77	227.29
844.08	227.31
844.40	227.25
844.71	227.22
845.03	227.20
845.34	227.15
845.65	227.13
845.97	227.09
846.28	227.06
846.60	227.08
846.91	227.05
847.22	227.02
847.54	227.03
847.85	227.07
848.16	227.05
848.48	227.07
848.79	227.10
849.10	227.10
849.42	227.06
849.73	226.95
850.04	226.94
850.36	226.91
850.67	226.90
850.98	226.89
851.30	226.93
851.61	226.94
851.92	226.95
852.23	227.00
852.55	227.06
852.86	227.11
853.17	227.10
853.49	227.13
853.80	227.15
854.11	227.17
854.42	227.16
854.74	227.18
855.05	227.16
855.36	227.13
855.67	227.14
855.99	227.14
856.30	227.31
856.61	227.28
856.92	227.29
857.23	227.31
857.55	227.31
857.86	227.25
858.17	227.29
858.48	227.30
858.79	227.25
859.11	227.25
859.42	227.23
859.73	227.24
860.04	227.22
860.35	227.19
860.66	227.16
860.98	227.16
861.29	227.18
861.60	227.19
861.91	227.20
862.22	227.21
862.53	227.20
862.84	227.06
863.16	227.07
863.47	227.07
863.78	227.08
864.09	227.09
864.40	227.15
864.71	227.12
865.02	227.14
865.33	227.16
865.64	227.16
865.95	227.18
866.27	227.23
866.58	227.25
866.89	227.26
867.20	227.27
867.51	227.26
867.82	227.25
868.13	227.28
868.44	227.26
868.75	227.25
869.06	227.26
869.37	227.25
869.68	227.28
869.99	227.29
870.30	227.31
870.61	227.33
870.92	227.28
871.23	227.28
871.54	227.29
871.85	227.32
872.16	227.34
872.47	227.34
872.78	227.29
873.09	227.26
873.40	227.27
873.71	227.23
874.02	227.21
874.33	227.17
874.64	227.14
874.95	227.14
875.26	227.11
875.56	227.11
875.87	227.12
876.18	227.08
876.49	227.15
876.80	227.10
877.11	227.04
877.42	227.05
877.73	227.08
878.04	227.06
878.35	227.06
878.66	227.03
878.96	227.00
879.27	227.01
879.58	227.00
879.89	226.97
880.20	227.03
880.51	227.02
880.82	227.04
881.12	227.04
881.43	227.02
881.74	227.01
882.05	226.98
882.36	226.96
882.67	227.00
882.97	226.91
883.28	226.88
883.59	226.89
883.90	226.92
884.21	226.90
884.51	226.90
884.82	226.85
885.13	226.86
885.44	226.85
885.74	226.83
886.05	226.85
886.36	226.86
886.67	226.81
886.98	226.83
887.28	226.83
887.59	226.82
887.90	226.85
888.20	226.84
888.51	226.87
888.82	226.86
889.13	226.86
889.43	226.93
889.74	226.92
890.05	226.91
890.35	226.87
890.66	226.87
890.97	226.82
891.28	226.80
891.58	226.77
891.89	226.77
892.20	226.75
892.50	226.72
892.81	226.69
893.12	226.70
893.42	226.67
893.73	226.67
894.04	226.68
894.34	226.66
894.65	226.68
894.95	226.68
895.26	226.70
895.57	226.72
895.87	226.63
896.18	226.64
896.48	226.63
896.79	226.63
897.10	226.65
897.40	226.67
897.71	226.69
898.01	226.71
898.32	226.73
898.63	226.74
898.93	226.73
899.24	226.76
899.54	226.74
899.85	226.76
900.15	226.79
900.46	226.80
900.76	226.80
901.07	226.78
901.38	226.74
901.68	226.74
901.99	226.68
902.29	226.69
902.60	226.70
902.90	226.70
903.21	226.68
903.51	226.66
903.82	226.70
904.12	226.69
904.43	226.68
904.73	226.67
905.03	226.67
905.34	226.78
905.64	226.76
905.95	226.77
906.25	226.77
906.56	226.72
906.86	226.70
907.17	226.70
907.47	226.68
907.77	226.69
908.08	226.69
908.38	226.71
908.69	226.70
908.99	226.71
909.30	226.70
909.60	226.72
909.90	226.70
910.21	226.68
910.51	226.70
910.81	226.73
911.12	226.71
911.42	226.72
911.73	226.64
912.03	226.64
912.33	226.67
912.64	226.62
912.94	226.67
913.24	226.68
913.55	226.67
913.85	226.70
914.15	226.71
914.46	226.69
914.76	226.70
915.06	226.71
915.37	226.72
915.67	226.77
915.97	226.77
916.27	226.76
916.58	226.76
916.88	226.76
917.18	226.73
917.49	226.78
917.79	226.78
918.09	226.78
918.39	226.81
918.70	226.79
919.00	226.85
919.30	226.84
919.60	226.81
919.91	226.80
920.21	226.79
920.51	226.80
920.81	226.80
921.12	226.79
921.42	226.78
921.72	226.78
922.02	226.76
922.32	226.80
922.63	226.81
922.93	226.83
923.23	226.77
923.53	226.76
923.83	226.72
924.13	226.73
924.44	226.68
924.74	226.67
925.04	226.72
925.34	226.71
925.64	226.66
925.94	226.66
926.24	226.74
926.55	226.70
926.85	226.66
927.15	226.65
927.45	226.66
927.75	226.64
928.05	226.60
928.35	226.58
928.65	226.55
928.95	226.57
929.26	226.54
929.56	226.55
929.86	226.57
930.16	226.56
930.46	226.52
930.76	226.56
931.06	226.52
931.36	226.49
931.66	226.47
931.96	226.49
932.26	226.48
932.56	226.43
932.86	226.46
933.16	226.51
933.46	226.50
933.76	226.47
934.06	226.50
934.36	226.56
934.66	226.56
934.96	226.56
935.26	226.55
935.56	226.52
935.86	226.53
936.16	226.46
936.46	226.44
936.76	226.45
937.06	226.42
937.36	226.41
937.66	226.38
937.96	226.35
938.26	226.34
938.56	226.32
938.86	226.35
939.16	226.37
939.46	226.34
939.76	226.35
940.06	226.37
940.35	226.35
940.65	226.28
940.95	226.32
941.25	226.27
941.55	226.25
941.85	226.27
942.15	226.28
942.45	226.34
942.75	226.34
943.04	226.32
943.34	226.36
943.64	226.39
943.94	226.40
944.24	226.42
944.54	226.42
944.84	226.44
945.13	226.42
945.43	226.40
945.73	226.39
946.03	226.39
946.33	226.38
946.62	226.35
946.92	226.33
947.22	226.32
947.52	226.37
947.82	226.40
948.11	226.40
948.41	226.37
948.71	226.34
949.01	226.37
949.31	226.41
949.60	226.39
949.90	226.40
950.20	226.43
950.50	226.46
950.79	226.47
951.09	226.46
951.39	226.44
951.69	226.45
951.98	226.50
952.28	226.51
952.58	226.49
952.87	226.52
953.17	226.57
953.47	226.56
953.76	226.53
954.06	226.50
954.36	226.50
954.66	226.52
954.95	226.57
955.25	226.58
955.55	226.59
955.84	226.57
956.14	226.60
956.44	226.61
956.73	226.57
957.03	226.58
957.32	226.64
957.62	226.65
957.92	226.67
958.21	226.65
958.51	226.78
958.81	226.81
959.10	226.81
959.40	226.81
959.69	226.82
959.99	226.87
960.29	226.87
960.58	226.90
960.88	226.92
961.17	226.89
961.47	226.88
961.76	226.88
962.06	226.93
962.36	226.91
962.65	226.91
962.95	226.92
963.24	226.90
963.54	226.85
963.83	226.84
964.13	226.82
964.42	226.78
964.72	226.68
965.01	226.67
965.31	226.68
965.60	226.66
965.90	226.71
966.19	226.66
966.49	226.66
966.78	226.61
967.08	226.60
967.37	226.59
967.67	226.58
967.96	226.56
968.26	226.49
968.55	226.49
968.85	226.46
969.14	226.45
969.43	226.44
969.73	226.44
970.02	226.43
970.32	226.42
970.61	226.43
970.91	226.35
971.20	226.36
971.49	226.32
971.79	226.33
972.08	226.26
972.38	226.28
972.67	226.24
972.96	226.28
973.26	226.24
973.55	226.29
973.85	226.26
974.14	226.29
974.43	226.30
974.73	226.29
975.02	226.27
975.31	226.28
975.61	226.25
975.90	226.24
976.19	226.24
976.49	226.24
976.78	226.27
977.07	226.30
977.37	226.29
977.66	226.31
977.95	226.28
978.24	226.28
978.54	226.28
978.83	226.29
979.12	226.26
979.42	226.30
979.71	226.26
980.00	226.26
980.29	226.25
980.59	226.24
980.88	226.27
981.17	226.26
981.46	226.24
981.76	226.27
982.05	226.32
982.34	226.34
982.63	226.35
982.93	226.33
983.22	226.36
983.51	226.38
983.80	226.40
984.09	226.42
984.39	226.43
984.68	226.43
984.97	226.45
985.26	226.47
985.55	226.44
985.85	226.43
986.14	226.49
986.43	226.50
986.72	226.52
987.01	226.48
987.30	226.51
987.59	226.53
987.89	226.51
988.18	226.50
988.47	226.50
988.76	226.49
989.05	226.49
989.34	226.47
989.63	226.47
989.92	226.46
990.22	226.44
990.51	226.43
990.80	226.45
991.09	226.45
991.38	226.45
991.67	226.46
991.96	226.47
992.25	226.43
992.54	226.38
992.83	226.35
993.12	226.34
993.41	226.37
993.70	226.41
993.99	226.45
994.28	226.45
994.58	226.48
994.87	226.47
995.16	226.43
995.45	226.42
995.74	226.40
996.03	226.43
996.32	226.46
996.61	226.49
996.90	226.49
997.19	226.51
997.48	226.52
997.77	226.50
998.06	226.49
998.34	226.50
998.63	226.53
998.92	226.56
999.21	226.57
999.50	226.55
999.79	226.52
1000.08	226.51
1000.37	226.51
1000.66	226.47
1000.95	226.49
1001.24	226.53
1001.53	226.54
1001.82	226.52
1002.11	226.49
1002.40	226.51
1002.68	226.51
1002.97	226.55
1003.26	226.52
1003.55	226.50
1003.84	226.48
1004.13	226.52
1004.42	226.50
1004.71	226.51
1004.99	226.49
1005.28	226.58
1005.57	226.58
1005.86	226.57
1006.15	226.56
1006.44	226.56
1006.72	226.56
1007.01	226.55
1007.30	226.55
1007.59	226.56
1007.88	226.58
1008.17	226.55
1008.45	226.52
1008.74	226.50
1009.03	226.44
1009.32	226.43
1009.60	226.43
1009.89	226.44
1010.18	226.41
1010.47	226.40
1010.76	226.36
1011.04	226.34
1011.33	226.31
1011.62	226.31
1011.91	226.28
1012.19	226.29
1012.48	226.27
1012.77	226.27
1013.05	226.31
1013.34	226.29
1013.63	226.29
1013.92	226.28
1014.20	226.31
1014.49	226.33
1014.78	226.32
1015.06	226.31
1015.35	226.30
1015.64	226.32
1015.92	226.38
1016.21	226.39
1016.50	226.38
1016.78	226.43
1017.07	226.47
1017.36	226.42
1017.64	226.40
1017.93	226.44
1018.22	226.43
1018.50	226.46
1018.79	226.46
1019.08	226.42
1019.36	226.43
1019.65	226.42
1019.93	226.46
1020.22	226.47
1020.51	226.52
1020.79	226.53
1021.08	226.23
1021.36	226.58
1021.65	226.46
1021.94	226.61
1022.22	226.15
1022.51	226.14
1022.79	227.12
1023.08	226.92
1023.36	227.81
1023.65	226.43
>>>>>End Processed Spectral Data<<<<<
