SpectraSuite Data File
++++++++++++++++++++++++++++++++++++
Date: Fri Feb 01 15:50:20 EST 2013
User: group
Dark Spectrum Present: No
Reference Spectrum Present: No
Number of Sampled Component Spectra: 1
Spectrometers: USB2E7196
Integration Time (usec): 35000 (USB2E7196)
Spectra Averaged: 100 (USB2E7196)
Boxcar Smoothing: 10 (USB2E7196)
Correct for Electrical Dark: No (USB2E7196)
Strobe/Lamp Enabled: No (USB2E7196)
Correct for Detector Non-linearity: No (USB2E7196)
Correct for Stray Light: No (USB2E7196)
Number of Pixels in Processed Spectrum: 2048
>>>>>Begin Processed Spectral Data<<<<<
339.09	0.00
339.48	214.92
339.86	216.20
340.24	217.75
340.63	219.16
341.01	222.81
341.39	221.88
341.78	223.12
342.16	224.48
342.54	224.76
342.93	213.30
343.31	224.08
343.69	224.60
344.07	225.09
344.46	225.55
344.84	225.92
345.22	226.11
345.60	226.37
345.99	226.56
346.37	226.69
346.75	226.80
347.13	226.86
347.52	226.91
347.90	227.01
348.28	227.03
348.66	227.09
349.05	227.11
349.43	227.10
349.81	227.15
350.19	227.19
350.57	227.28
350.96	227.35
351.34	227.40
351.72	227.52
352.10	227.57
352.48	227.59
352.87	227.63
353.25	227.68
353.63	227.73
354.01	227.79
354.39	227.85
354.77	227.92
355.15	228.02
355.54	228.07
355.92	228.10
356.30	228.15
356.68	228.24
357.06	228.29
357.44	228.36
357.82	228.39
358.20	228.48
358.58	228.51
358.97	228.57
359.35	228.68
359.73	228.73
360.11	228.80
360.49	228.86
360.87	228.91
361.25	229.00
361.63	229.06
362.01	229.08
362.39	229.12
362.77	229.15
363.15	229.18
363.53	229.18
363.91	229.19
364.29	229.23
364.67	229.17
365.05	229.18
365.43	229.20
365.81	229.26
366.19	229.27
366.57	229.28
366.95	229.27
367.33	229.20
367.71	229.17
368.09	229.17
368.47	229.16
368.85	229.13
369.23	229.10
369.61	229.02
369.99	229.04
370.37	229.02
370.75	229.02
371.13	228.96
371.51	228.87
371.89	228.83
372.27	228.76
372.65	228.72
373.03	228.66
373.41	228.60
373.78	228.53
374.16	228.43
374.54	228.34
374.92	228.27
375.30	228.23
375.68	228.17
376.06	228.11
376.44	228.04
376.82	228.00
377.19	227.92
377.57	227.85
377.95	227.73
378.33	227.63
378.71	227.50
379.09	227.41
379.47	227.42
379.84	227.38
380.22	227.32
380.60	227.25
380.98	227.19
381.36	227.10
381.73	227.00
382.11	226.97
382.49	226.94
382.87	226.87
383.25	226.82
383.62	226.85
384.00	226.79
384.38	226.73
384.76	226.68
385.13	226.72
385.51	226.68
385.89	226.65
386.27	226.64
386.64	226.60
387.02	226.59
387.40	226.52
387.78	226.48
388.15	226.46
388.53	226.42
388.91	226.40
389.29	226.36
389.66	226.39
390.04	226.37
390.42	226.35
390.79	226.33
391.17	226.29
391.55	226.21
391.92	226.21
392.30	226.22
392.68	226.21
393.05	226.16
393.43	226.17
393.81	226.16
394.18	226.15
394.56	226.22
394.94	226.27
395.31	226.29
395.69	226.37
396.06	226.38
396.44	226.44
396.82	226.49
397.19	226.60
397.57	226.62
397.95	226.66
398.32	226.72
398.70	226.79
399.07	226.88
399.45	226.93
399.82	226.97
400.20	227.04
400.58	227.14
400.95	227.18
401.33	227.28
401.70	227.46
402.08	227.55
402.45	227.63
402.83	227.75
403.20	227.86
403.58	227.95
403.95	228.09
404.33	228.19
404.71	228.29
405.08	228.45
405.46	228.58
405.83	228.74
406.21	228.87
406.58	229.01
406.96	229.18
407.33	229.37
407.70	229.56
408.08	229.86
408.45	230.09
408.83	230.31
409.20	230.53
409.58	230.70
409.95	230.97
410.33	231.24
410.70	231.49
411.08	231.79
411.45	232.07
411.82	232.37
412.20	232.72
412.57	233.15
412.95	233.46
413.32	233.88
413.69	234.29
414.07	234.72
414.44	235.22
414.82	235.72
415.19	236.28
415.56	236.85
415.94	237.37
416.31	237.96
416.68	238.57
417.06	239.30
417.43	239.98
417.81	240.75
418.18	241.54
418.55	242.36
418.93	243.22
419.30	244.09
419.67	245.04
420.04	245.97
420.42	246.95
420.79	248.18
421.16	249.32
421.54	250.49
421.91	251.72
422.28	252.97
422.66	254.28
423.03	255.59
423.40	256.92
423.77	258.33
424.15	259.74
424.52	261.25
424.89	262.85
425.26	264.41
425.64	265.83
426.01	267.40
426.38	269.02
426.75	270.70
427.13	272.38
427.50	274.20
427.87	276.13
428.24	278.01
428.61	279.67
428.99	281.59
429.36	283.70
429.73	285.72
430.10	287.71
430.47	289.78
430.85	291.91
431.22	294.16
431.59	296.57
431.96	298.83
432.33	301.31
432.70	303.67
433.08	306.48
433.45	309.11
433.82	311.75
434.19	314.64
434.56	317.46
434.93	320.19
435.30	322.79
435.68	325.64
436.05	328.41
436.42	331.23
436.79	333.76
437.16	336.47
437.53	339.29
437.90	342.14
438.27	344.83
438.64	347.59
439.01	350.17
439.38	352.37
439.75	354.52
440.13	357.00
440.50	359.36
440.87	361.20
441.24	363.13
441.61	365.26
441.98	366.79
442.35	368.56
442.72	370.40
443.09	372.20
443.46	373.18
443.83	373.79
444.20	374.32
444.57	375.16
444.94	375.41
445.31	375.81
445.68	376.13
446.05	376.22
446.42	375.87
446.79	375.46
447.16	375.01
447.53	374.72
447.90	373.59
448.27	372.38
448.64	370.83
449.01	369.69
449.37	367.73
449.74	365.82
450.11	363.61
450.48	361.16
450.85	358.64
451.22	356.49
451.59	354.47
451.96	352.52
452.33	349.89
452.70	347.54
453.07	344.66
453.43	341.74
453.80	339.01
454.17	336.31
454.54	333.76
454.91	331.01
455.28	328.37
455.65	325.88
456.02	323.44
456.38	321.27
456.75	318.63
457.12	316.36
457.49	314.11
457.86	311.93
458.23	310.06
458.59	308.04
458.96	305.99
459.33	304.16
459.70	302.29
460.07	300.80
460.43	299.12
460.80	297.54
461.17	296.13
461.54	294.62
461.91	293.24
462.27	291.75
462.64	290.55
463.01	289.15
463.38	287.85
463.74	286.50
464.11	285.35
464.48	284.36
464.85	283.25
465.21	282.40
465.58	281.47
465.95	280.35
466.32	279.45
466.68	278.55
467.05	277.62
467.42	276.73
467.78	275.79
468.15	274.91
468.52	274.23
468.88	273.37
469.25	272.58
469.62	271.92
469.98	271.30
470.35	270.65
470.72	270.06
471.08	269.42
471.45	268.88
471.82	268.30
472.18	267.67
472.55	267.25
472.92	266.73
473.28	266.31
473.65	265.90
474.02	265.43
474.38	265.05
474.75	264.72
475.11	264.37
475.48	264.11
475.85	263.85
476.21	263.66
476.58	263.49
476.94	263.35
477.31	263.21
477.67	263.06
478.04	262.94
478.41	262.89
478.77	262.95
479.14	262.88
479.50	262.93
479.87	263.01
480.23	263.07
480.60	263.15
480.96	263.20
481.33	263.39
481.69	263.57
482.06	263.81
482.42	264.05
482.79	264.30
483.15	264.65
483.52	265.06
483.88	265.39
484.25	265.77
484.61	266.19
484.98	266.65
485.34	267.21
485.71	267.82
486.07	268.41
486.44	268.94
486.80	269.64
487.17	270.37
487.53	271.19
487.90	272.06
488.26	272.99
488.62	273.99
488.99	274.96
489.35	276.02
489.72	277.14
490.08	278.33
490.44	279.56
490.81	280.88
491.17	282.22
491.54	283.72
491.90	285.28
492.26	286.96
492.63	288.68
492.99	290.45
493.36	292.32
493.72	294.39
494.08	296.52
494.45	298.76
494.81	301.12
495.17	303.53
495.54	306.13
495.90	308.82
496.26	311.65
496.63	314.67
496.99	317.77
497.35	321.05
497.72	324.48
498.08	328.07
498.44	331.78
498.80	335.74
499.17	339.80
499.53	343.98
499.89	348.32
500.26	352.84
500.62	357.52
500.98	362.53
501.34	367.61
501.71	372.90
502.07	378.35
502.43	383.98
502.79	389.83
503.16	395.87
503.52	402.13
503.88	408.50
504.24	415.07
504.60	421.94
504.97	429.06
505.33	436.39
505.69	444.04
506.05	451.76
506.41	459.69
506.78	467.81
507.14	476.29
507.50	485.04
507.86	494.01
508.22	503.15
508.59	512.30
508.95	521.87
509.31	531.64
509.67	541.77
510.03	552.05
510.39	562.64
510.75	573.40
511.12	584.36
511.48	595.72
511.84	607.22
512.20	618.76
512.56	630.72
512.92	642.87
513.28	655.19
513.64	667.67
514.00	680.35
514.37	693.26
514.73	706.25
515.09	719.25
515.45	732.56
515.81	746.12
516.17	760.09
516.53	774.24
516.89	788.52
517.25	802.74
517.61	817.14
517.97	831.53
518.33	846.05
518.69	860.86
519.05	875.76
519.41	890.96
519.77	906.51
520.13	922.00
520.49	937.37
520.85	952.82
521.21	968.65
521.57	984.90
521.93	1000.67
522.29	1017.02
522.65	1033.30
523.01	1049.52
523.37	1065.67
523.73	1081.96
524.09	1097.97
524.45	1114.34
524.81	1130.82
525.17	1147.59
525.53	1164.56
525.89	1181.36
526.25	1198.08
526.61	1214.45
526.97	1231.14
527.33	1247.60
527.68	1264.03
528.04	1280.48
528.40	1297.13
528.76	1314.08
529.12	1330.56
529.48	1347.42
529.84	1363.43
530.20	1380.03
530.56	1397.12
530.91	1414.50
531.27	1431.17
531.63	1447.72
531.99	1464.22
532.35	1480.19
532.71	1496.05
533.07	1512.32
533.42	1528.19
533.78	1544.29
534.14	1560.60
534.50	1575.89
534.86	1591.66
535.21	1606.94
535.57	1622.89
535.93	1638.37
536.29	1653.19
536.65	1668.16
537.00	1682.93
537.36	1698.21
537.72	1712.70
538.08	1726.95
538.44	1740.73
538.79	1754.48
539.15	1768.08
539.51	1781.65
539.87	1795.93
540.22	1809.69
540.58	1823.37
540.94	1836.74
541.29	1849.51
541.65	1862.05
542.01	1875.30
542.37	1887.78
542.72	1900.14
543.08	1911.93
543.44	1924.28
543.79	1935.48
544.15	1946.57
544.51	1958.25
544.87	1969.25
545.22	1980.03
545.58	1990.40
545.94	2000.00
546.29	2009.93
546.65	2019.74
547.01	2029.12
547.36	2037.96
547.72	2046.46
548.07	2054.25
548.43	2062.41
548.79	2070.44
549.14	2078.05
549.50	2085.41
549.86	2092.89
550.21	2100.18
550.57	2107.31
550.92	2113.82
551.28	2120.86
551.64	2127.94
551.99	2134.29
552.35	2140.46
552.70	2146.62
553.06	2152.48
553.41	2159.09
553.77	2165.14
554.13	2171.23
554.48	2177.31
554.84	2182.70
555.19	2187.97
555.55	2193.11
555.90	2197.59
556.26	2202.56
556.61	2207.38
556.97	2211.56
557.32	2215.80
557.68	2219.92
558.03	2224.22
558.39	2228.01
558.74	2232.65
559.10	2236.45
559.45	2240.19
559.81	2244.54
560.16	2248.35
560.52	2251.66
560.87	2254.99
561.23	2257.64
561.58	2260.76
561.94	2263.29
562.29	2265.72
562.64	2268.44
563.00	2271.01
563.35	2274.50
563.71	2277.66
564.06	2280.67
564.42	2283.55
564.77	2285.86
565.12	2288.20
565.48	2290.15
565.83	2291.92
566.19	2293.10
566.54	2294.07
566.89	2295.16
567.25	2295.78
567.60	2297.13
567.96	2298.79
568.31	2299.61
568.66	2300.62
569.02	2301.07
569.37	2301.33
569.72	2302.16
570.08	2302.23
570.43	2302.31
570.78	2301.69
571.14	2300.14
571.49	2298.96
571.84	2298.64
572.20	2297.82
572.55	2296.73
572.90	2295.12
573.26	2293.71
573.61	2292.13
573.96	2290.36
574.31	2287.46
574.67	2284.41
575.02	2280.89
575.37	2277.54
575.72	2273.66
576.08	2270.55
576.43	2267.21
576.78	2263.58
577.13	2260.39
577.49	2257.30
577.84	2253.84
578.19	2250.13
578.54	2246.48
578.90	2242.30
579.25	2236.88
579.60	2231.79
579.95	2226.80
580.30	2221.92
580.66	2216.91
581.01	2212.04
581.36	2207.21
581.71	2202.99
582.06	2198.43
582.42	2193.78
582.77	2188.60
583.12	2183.98
583.47	2179.12
583.82	2174.05
584.17	2168.78
584.53	2163.20
584.88	2157.63
585.23	2151.83
585.58	2146.29
585.93	2140.76
586.28	2136.03
586.63	2130.83
586.98	2125.83
587.34	2121.02
587.69	2116.15
588.04	2110.71
588.39	2104.79
588.74	2098.31
589.09	2092.18
589.44	2085.42
589.79	2079.56
590.14	2073.97
590.49	2067.51
590.84	2061.27
591.19	2055.35
591.54	2049.00
591.89	2041.73
592.25	2034.86
592.60	2027.55
592.95	2020.09
593.30	2012.73
593.65	2005.01
594.00	1997.91
594.35	1990.55
594.70	1982.66
595.05	1975.20
595.40	1967.96
595.75	1960.65
596.10	1954.25
596.45	1947.43
596.80	1941.24
597.15	1934.56
597.50	1927.20
597.85	1920.68
598.19	1913.82
598.54	1906.62
598.89	1899.91
599.24	1894.09
599.59	1887.30
599.94	1881.23
600.29	1874.84
600.64	1868.34
600.99	1860.90
601.34	1854.11
601.69	1847.12
602.04	1840.20
602.39	1832.87
602.74	1826.07
603.08	1819.27
603.43	1812.55
603.78	1805.25
604.13	1798.13
604.48	1790.68
604.83	1783.92
605.18	1776.89
605.53	1768.87
605.87	1760.80
606.22	1753.52
606.57	1745.48
606.92	1738.28
607.27	1731.02
607.62	1724.09
607.96	1716.81
608.31	1710.20
608.66	1702.56
609.01	1695.20
609.36	1687.61
609.70	1679.76
610.05	1671.68
610.40	1663.89
610.75	1655.47
611.10	1647.87
611.44	1639.39
611.79	1631.49
612.14	1622.72
612.49	1613.67
612.83	1605.40
613.18	1597.40
613.53	1589.37
613.88	1580.87
614.22	1572.62
614.57	1564.13
614.92	1556.06
615.27	1548.37
615.61	1540.03
615.96	1532.10
616.31	1524.28
616.65	1516.93
617.00	1509.30
617.35	1501.61
617.70	1493.29
618.04	1484.83
618.39	1476.67
618.74	1469.08
619.08	1460.77
619.43	1453.23
619.78	1446.24
620.12	1438.99
620.47	1431.37
620.82	1423.18
621.16	1415.81
621.51	1408.24
621.85	1400.44
622.20	1391.90
622.55	1383.59
622.89	1375.75
623.24	1368.11
623.59	1360.81
623.93	1353.30
624.28	1346.06
624.62	1338.50
624.97	1331.35
625.32	1324.69
625.66	1317.63
626.01	1310.33
626.35	1302.91
626.70	1295.20
627.04	1287.45
627.39	1279.77
627.73	1272.47
628.08	1265.56
628.43	1258.15
628.77	1250.73
629.12	1243.29
629.46	1236.10
629.81	1228.78
630.15	1221.55
630.50	1214.07
630.84	1205.84
631.19	1197.95
631.53	1190.46
631.88	1182.93
632.22	1175.38
632.57	1168.05
632.91	1160.48
633.26	1153.17
633.60	1145.81
633.95	1138.79
634.29	1131.71
634.64	1124.94
634.98	1117.64
635.32	1110.47
635.67	1103.84
636.01	1097.16
636.36	1090.31
636.70	1083.86
637.05	1077.14
637.39	1070.61
637.73	1064.10
638.08	1058.25
638.42	1052.17
638.77	1045.63
639.11	1039.10
639.45	1032.71
639.80	1026.04
640.14	1019.57
640.49	1013.01
640.83	1006.65
641.17	1000.30
641.52	994.02
641.86	987.58
642.20	981.58
642.55	975.22
642.89	968.85
643.23	962.34
643.58	956.58
643.92	950.36
644.26	944.27
644.61	938.24
644.95	932.17
645.29	925.55
645.64	918.87
645.98	912.57
646.32	906.80
646.66	900.71
647.01	894.83
647.35	889.12
647.69	883.33
648.04	877.83
648.38	872.06
648.72	866.03
649.06	859.97
649.41	854.15
649.75	848.30
650.09	842.26
650.43	836.45
650.78	830.29
651.12	824.34
651.46	818.70
651.80	813.00
652.14	807.65
652.49	802.31
652.83	797.13
653.17	791.41
653.51	785.61
653.85	780.24
654.20	774.69
654.54	768.73
654.88	762.98
655.22	757.14
655.56	751.41
655.90	745.98
656.25	740.76
656.59	735.37
656.93	730.23
657.27	725.08
657.61	719.64
657.95	714.56
658.29	709.45
658.64	704.20
658.98	698.94
659.32	693.49
659.66	688.26
660.00	682.90
660.34	678.00
660.68	673.08
661.02	668.02
661.36	663.26
661.70	658.66
662.05	654.26
662.39	649.88
662.73	645.51
663.07	641.14
663.41	636.69
663.75	632.19
664.09	627.67
664.43	623.31
664.77	619.17
665.11	614.93
665.45	610.83
665.79	606.72
666.13	602.54
666.47	598.42
666.81	594.25
667.15	590.10
667.49	586.24
667.83	582.44
668.17	578.54
668.51	574.46
668.85	570.51
669.19	566.73
669.53	562.90
669.87	558.95
670.21	555.31
670.55	551.66
670.89	548.24
671.23	544.78
671.57	541.22
671.91	537.67
672.25	534.17
672.58	530.62
672.92	527.28
673.26	524.12
673.60	521.00
673.94	517.87
674.28	515.02
674.62	511.98
674.96	508.85
675.30	505.93
675.64	502.99
675.97	500.22
676.31	497.30
676.65	494.39
676.99	491.72
677.33	488.85
677.67	486.01
678.01	482.93
678.34	479.91
678.68	477.08
679.02	474.30
679.36	471.51
679.70	468.78
680.04	465.98
680.37	463.07
680.71	460.26
681.05	457.69
681.39	454.93
681.73	452.29
682.06	449.76
682.40	447.20
682.74	444.72
683.08	442.14
683.42	439.55
683.75	437.05
684.09	434.50
684.43	431.98
684.77	429.54
685.10	427.20
685.44	424.91
685.78	422.62
686.12	420.35
686.45	418.04
686.79	415.80
687.13	413.61
687.46	411.47
687.80	409.34
688.14	407.11
688.48	405.06
688.81	402.82
689.15	400.66
689.49	398.51
689.82	396.42
690.16	394.37
690.50	392.44
690.83	390.47
691.17	388.49
691.51	386.67
691.84	384.81
692.18	382.89
692.52	380.89
692.85	378.97
693.19	377.08
693.52	375.29
693.86	373.48
694.20	371.72
694.53	369.93
694.87	368.08
695.21	366.25
695.54	364.40
695.88	362.70
696.21	360.97
696.55	359.31
696.88	357.61
697.22	355.91
697.56	354.27
697.89	352.61
698.23	351.01
698.56	349.33
698.90	347.79
699.23	346.17
699.57	344.66
699.90	343.11
700.24	341.59
700.58	340.06
700.91	338.53
701.25	337.07
701.58	335.74
701.92	334.37
702.25	332.99
702.59	331.65
702.92	330.32
703.26	329.05
703.59	327.78
703.93	326.63
704.26	325.40
704.60	324.10
704.93	322.85
705.26	321.60
705.60	320.44
705.93	319.24
706.27	318.19
706.60	317.16
706.94	316.10
707.27	314.98
707.61	313.94
707.94	312.90
708.27	311.82
708.61	310.73
708.94	309.73
709.28	308.76
709.61	307.82
709.94	306.89
710.28	305.89
710.61	304.92
710.95	303.83
711.28	302.91
711.61	301.98
711.95	301.08
712.28	300.10
712.61	299.11
712.95	298.17
713.28	297.32
713.61	296.36
713.95	295.47
714.28	294.61
714.61	293.72
714.95	292.90
715.28	292.05
715.61	291.17
715.95	290.30
716.28	289.45
716.61	288.61
716.95	287.79
717.28	287.02
717.61	286.23
717.94	285.49
718.28	284.66
718.61	283.94
718.94	283.19
719.27	282.54
719.61	281.86
719.94	281.22
720.27	280.44
720.60	279.80
720.94	279.16
721.27	278.56
721.60	278.00
721.93	277.38
722.27	276.79
722.60	276.23
722.93	275.66
723.26	275.12
723.59	274.52
723.93	273.93
724.26	273.34
724.59	272.80
724.92	272.29
725.25	271.81
725.59	271.28
725.92	270.82
726.25	270.32
726.58	269.85
726.91	269.37
727.24	268.90
727.57	268.44
727.91	267.94
728.24	267.47
728.57	266.96
728.90	266.49
729.23	266.03
729.56	265.59
729.89	265.13
730.22	264.65
730.55	264.21
730.89	263.79
731.22	263.32
731.55	262.88
731.88	262.46
732.21	262.05
732.54	261.61
732.87	261.16
733.20	260.78
733.53	260.41
733.86	260.02
734.19	259.68
734.52	259.28
734.85	258.97
735.18	258.54
735.51	258.22
735.84	257.85
736.17	257.53
736.50	257.12
736.83	256.89
737.16	256.55
737.49	256.20
737.82	255.84
738.15	255.59
738.48	255.23
738.81	254.92
739.14	254.63
739.47	254.33
739.80	254.02
740.13	253.73
740.46	253.41
740.79	253.08
741.12	252.72
741.45	252.45
741.78	252.09
742.11	251.82
742.44	251.45
742.77	251.18
743.10	250.88
743.43	250.62
743.75	250.21
744.08	250.10
744.41	249.85
744.74	249.61
745.07	249.32
745.40	249.09
745.73	248.87
746.06	248.56
746.39	248.31
746.71	248.07
747.04	247.74
747.37	247.48
747.70	247.25
748.03	247.02
748.36	246.78
748.68	246.55
749.01	246.34
749.34	246.14
749.67	245.92
750.00	245.68
750.33	245.53
750.65	245.31
750.98	244.94
751.31	244.73
751.64	244.51
751.97	244.31
752.29	244.05
752.62	243.76
752.95	243.55
753.28	243.34
753.60	243.12
753.93	242.94
754.26	242.77
754.59	242.52
754.91	242.32
755.24	242.14
755.57	241.93
755.90	241.72
756.22	241.53
756.55	241.30
756.88	241.12
757.20	240.86
757.53	240.67
757.86	240.50
758.19	240.33
758.51	240.15
758.84	239.95
759.17	239.81
759.49	239.63
759.82	239.52
760.15	239.37
760.47	239.22
760.80	239.05
761.13	238.90
761.45	238.78
761.78	238.63
762.11	238.46
762.43	238.31
762.76	238.14
763.08	238.00
763.41	237.87
763.74	237.72
764.06	237.58
764.39	237.45
764.71	237.30
765.04	237.17
765.37	237.03
765.69	236.90
766.02	236.80
766.34	236.68
766.67	236.52
767.00	236.42
767.32	236.37
767.65	236.33
767.97	236.22
768.30	236.11
768.62	236.00
768.95	235.87
769.27	235.82
769.60	235.72
769.92	235.63
770.25	235.53
770.57	235.42
770.90	235.34
771.22	235.24
771.55	235.15
771.87	235.07
772.20	234.98
772.52	234.98
772.85	234.99
773.17	234.90
773.50	234.82
773.82	234.71
774.15	234.54
774.47	234.41
774.80	234.30
775.12	234.22
775.45	234.16
775.77	234.09
776.09	233.99
776.42	233.92
776.74	233.84
777.07	233.75
777.39	233.66
777.72	233.58
778.04	233.54
778.36	233.47
778.69	233.39
779.01	233.30
779.33	233.17
779.66	232.99
779.98	232.92
780.31	232.85
780.63	232.84
780.95	232.81
781.28	232.75
781.60	232.69
781.92	232.64
782.25	232.55
782.57	232.50
782.89	232.41
783.22	232.37
783.54	232.32
783.86	232.27
784.19	232.22
784.51	232.19
784.83	232.11
785.16	232.07
785.48	232.03
785.80	231.98
786.12	231.92
786.45	231.87
786.77	231.84
787.09	231.83
787.42	231.74
787.74	231.70
788.06	231.63
788.38	231.58
788.71	231.50
789.03	231.45
789.35	231.39
789.67	231.35
789.99	231.31
790.32	231.26
790.64	231.24
790.96	231.27
791.28	231.19
791.61	231.12
791.93	231.05
792.25	231.00
792.57	231.04
792.89	230.99
793.21	230.97
793.54	230.88
793.86	230.79
794.18	230.73
794.50	230.67
794.82	230.63
795.14	230.59
795.47	230.56
795.79	230.54
796.11	230.48
796.43	230.43
796.75	230.41
797.07	230.36
797.39	230.32
797.71	230.20
798.04	230.19
798.36	230.15
798.68	230.15
799.00	230.15
799.32	230.04
799.64	230.02
799.96	229.97
800.28	229.98
800.60	229.94
800.92	229.92
801.24	229.89
801.56	229.86
801.89	229.82
802.21	229.81
802.53	229.72
802.85	229.77
803.17	229.75
803.49	229.68
803.81	229.65
804.13	229.59
804.45	229.56
804.77	229.52
805.09	229.51
805.41	229.45
805.73	229.35
806.05	229.32
806.37	229.30
806.69	229.26
807.01	229.22
807.33	229.21
807.65	229.14
807.97	229.12
808.28	229.06
808.60	229.06
808.92	229.01
809.24	229.06
809.56	228.98
809.88	228.98
810.20	228.97
810.52	228.98
810.84	229.00
811.16	228.97
811.48	228.97
811.80	229.02
812.12	228.96
812.43	228.98
812.75	228.97
813.07	228.93
813.39	228.92
813.71	228.89
814.03	228.88
814.35	228.88
814.67	228.84
814.98	228.86
815.30	228.83
815.62	228.83
815.94	228.75
816.26	228.80
816.58	228.72
816.89	228.74
817.21	228.70
817.53	228.67
817.85	228.63
818.17	228.60
818.48	228.50
818.80	228.56
819.12	228.56
819.44	228.51
819.76	228.48
820.07	228.47
820.39	228.47
820.71	228.45
821.03	228.45
821.34	228.45
821.66	228.43
821.98	228.44
822.30	228.41
822.61	228.48
822.93	228.42
823.25	228.43
823.57	228.39
823.88	228.38
824.20	228.37
824.52	228.40
824.83	228.39
825.15	228.40
825.47	228.36
825.79	228.33
826.10	228.31
826.42	228.31
826.74	228.32
827.05	228.29
827.37	228.25
827.69	228.21
828.00	228.22
828.32	228.20
828.64	228.19
828.95	228.21
829.27	228.17
829.58	228.16
829.90	228.18
830.22	228.16
830.53	228.15
830.85	228.11
831.17	228.07
831.48	228.02
831.80	228.01
832.11	227.99
832.43	227.98
832.75	227.94
833.06	228.00
833.38	227.94
833.69	227.94
834.01	227.95
834.32	227.94
834.64	227.90
834.96	227.87
835.27	227.83
835.59	227.78
835.90	227.76
836.22	227.74
836.53	227.67
836.85	227.67
837.16	227.75
837.48	227.76
837.79	227.77
838.11	227.77
838.42	227.71
838.74	227.71
839.05	227.68
839.37	227.71
839.68	227.61
840.00	227.62
840.31	227.63
840.63	227.62
840.94	227.57
841.26	227.55
841.57	227.55
841.88	227.55
842.20	227.51
842.51	227.47
842.83	227.47
843.14	227.58
843.46	227.54
843.77	227.47
844.08	227.47
844.40	227.46
844.71	227.47
845.03	227.48
845.34	227.46
845.65	227.47
845.97	227.45
846.28	227.46
846.60	227.43
846.91	227.39
847.22	227.36
847.54	227.41
847.85	227.39
848.16	227.37
848.48	227.37
848.79	227.45
849.10	227.45
849.42	227.46
849.73	227.37
850.04	227.40
850.36	227.33
850.67	227.34
850.98	227.33
851.30	227.36
851.61	227.34
851.92	227.35
852.23	227.40
852.55	227.39
852.86	227.40
853.17	227.41
853.49	227.46
853.80	227.52
854.11	227.50
854.42	227.51
854.74	227.51
855.05	227.51
855.36	227.42
855.67	227.40
855.99	227.40
856.30	227.49
856.61	227.45
856.92	227.50
857.23	227.47
857.55	227.45
857.86	227.43
858.17	227.49
858.48	227.46
858.79	227.44
859.11	227.46
859.42	227.46
859.73	227.45
860.04	227.42
860.35	227.37
860.66	227.37
860.98	227.37
861.29	227.37
861.60	227.37
861.91	227.41
862.22	227.43
862.53	227.42
862.84	227.34
863.16	227.41
863.47	227.38
863.78	227.41
864.09	227.43
864.40	227.43
864.71	227.39
865.02	227.42
865.33	227.40
865.64	227.39
865.95	227.39
866.27	227.45
866.58	227.46
866.89	227.48
867.20	227.46
867.51	227.45
867.82	227.45
868.13	227.47
868.44	227.44
868.75	227.45
869.06	227.46
869.37	227.45
869.68	227.38
869.99	227.42
870.30	227.41
870.61	227.40
870.92	227.36
871.23	227.32
871.54	227.33
871.85	227.32
872.16	227.31
872.47	227.28
872.78	227.23
873.09	227.21
873.40	227.16
873.71	227.18
874.02	227.18
874.33	227.18
874.64	227.13
874.95	227.11
875.26	227.09
875.56	227.04
875.87	227.01
876.18	227.03
876.49	227.09
876.80	227.07
877.11	227.08
877.42	227.10
877.73	227.10
878.04	227.05
878.35	227.06
878.66	227.09
878.96	227.07
879.27	227.04
879.58	227.03
879.89	227.04
880.20	227.06
880.51	227.03
880.82	226.99
881.12	227.01
881.43	227.00
881.74	226.97
882.05	227.00
882.36	226.98
882.67	226.95
882.97	226.81
883.28	226.79
883.59	226.74
883.90	226.73
884.21	226.73
884.51	226.74
884.82	226.73
885.13	226.70
885.44	226.73
885.74	226.73
886.05	226.71
886.36	226.69
886.67	226.64
886.98	226.71
887.28	226.76
887.59	226.75
887.90	226.77
888.20	226.77
888.51	226.80
888.82	226.80
889.13	226.81
889.43	226.90
889.74	226.90
890.05	226.91
890.35	226.92
890.66	226.89
890.97	226.89
891.28	226.89
891.58	226.92
891.89	226.93
892.20	226.95
892.50	226.96
892.81	227.00
893.12	227.01
893.42	226.96
893.73	226.98
894.04	226.98
894.34	226.96
894.65	226.98
894.95	226.96
895.26	226.98
895.57	227.03
895.87	226.96
896.18	226.95
896.48	226.98
896.79	227.00
897.10	227.04
897.40	227.02
897.71	227.03
898.01	227.00
898.32	227.02
898.63	226.98
898.93	227.00
899.24	226.97
899.54	226.98
899.85	226.97
900.15	226.94
900.46	226.95
900.76	227.00
901.07	226.99
901.38	227.01
901.68	227.05
901.99	227.04
902.29	227.05
902.60	227.08
902.90	227.08
903.21	227.07
903.51	227.09
903.82	227.14
904.12	227.17
904.43	227.21
904.73	227.19
905.03	227.23
905.34	227.31
905.64	227.33
905.95	227.35
906.25	227.39
906.56	227.41
906.86	227.43
907.17	227.41
907.47	227.43
907.77	227.39
908.08	227.36
908.38	227.35
908.69	227.36
908.99	227.37
909.30	227.36
909.60	227.36
909.90	227.35
910.21	227.32
910.51	227.27
910.81	227.24
911.12	227.26
911.42	227.25
911.73	227.15
912.03	227.15
912.33	227.14
912.64	227.12
912.94	227.11
913.24	227.07
913.55	227.04
913.85	227.04
914.15	227.03
914.46	227.04
914.76	227.00
915.06	226.98
915.37	226.95
915.67	226.92
915.97	226.92
916.27	226.91
916.58	226.92
916.88	226.92
917.18	226.90
917.49	226.94
917.79	226.92
918.09	226.94
918.39	226.92
918.70	226.90
919.00	226.89
919.30	226.93
919.60	226.91
919.91	226.89
920.21	226.87
920.51	226.86
920.81	226.83
921.12	226.84
921.42	226.84
921.72	226.84
922.02	226.86
922.32	226.84
922.63	226.82
922.93	226.86
923.23	226.85
923.53	226.86
923.83	226.81
924.13	226.83
924.44	226.82
924.74	226.84
925.04	226.87
925.34	226.86
925.64	226.80
925.94	226.82
926.24	226.90
926.55	226.90
926.85	226.91
927.15	226.91
927.45	226.90
927.75	226.91
928.05	226.93
928.35	226.94
928.65	226.96
928.95	226.96
929.26	226.91
929.56	226.93
929.86	226.97
930.16	226.95
930.46	226.91
930.76	226.90
931.06	226.90
931.36	226.87
931.66	226.86
931.96	226.88
932.26	226.89
932.56	226.83
932.86	226.83
933.16	226.86
933.46	226.85
933.76	226.86
934.06	226.87
934.36	226.89
934.66	226.90
934.96	226.89
935.26	226.92
935.56	226.94
935.86	226.89
936.16	226.84
936.46	226.83
936.76	226.81
937.06	226.83
937.36	226.82
937.66	226.82
937.96	226.84
938.26	226.80
938.56	226.80
938.86	226.82
939.16	226.84
939.46	226.81
939.76	226.84
940.06	226.85
940.35	226.83
940.65	226.78
940.95	226.75
941.25	226.74
941.55	226.72
941.85	226.74
942.15	226.78
942.45	226.82
942.75	226.82
943.04	226.85
943.34	226.86
943.64	226.87
943.94	226.91
944.24	226.92
944.54	226.94
944.84	226.95
945.13	226.91
945.43	226.91
945.73	226.92
946.03	226.90
946.33	226.87
946.62	226.86
946.92	226.86
947.22	226.88
947.52	226.87
947.82	226.85
948.11	226.85
948.41	226.82
948.71	226.78
949.01	226.80
949.31	226.77
949.60	226.76
949.90	226.75
950.20	226.70
950.50	226.67
950.79	226.65
951.09	226.66
951.39	226.65
951.69	226.64
951.98	226.65
952.28	226.65
952.58	226.65
952.87	226.67
953.17	226.69
953.47	226.67
953.76	226.69
954.06	226.69
954.36	226.68
954.66	226.66
954.95	226.72
955.25	226.71
955.55	226.75
955.84	226.72
956.14	226.74
956.44	226.76
956.73	226.78
957.03	226.80
957.32	226.79
957.62	226.81
957.92	226.83
958.21	226.82
958.51	226.93
958.81	226.95
959.10	226.96
959.40	227.00
959.69	227.01
959.99	227.03
960.29	227.04
960.58	227.04
960.88	227.10
961.17	227.05
961.47	227.10
961.76	227.08
962.06	227.11
962.36	227.10
962.65	227.10
962.95	227.14
963.24	227.14
963.54	227.15
963.83	227.17
964.13	227.15
964.42	227.15
964.72	227.05
965.01	227.04
965.31	227.03
965.60	226.97
965.90	227.02
966.19	227.00
966.49	226.99
966.78	226.99
967.08	226.97
967.37	226.95
967.67	226.90
967.96	226.93
968.26	226.89
968.55	226.90
968.85	226.89
969.14	226.83
969.43	226.80
969.73	226.76
970.02	226.74
970.32	226.76
970.61	226.75
970.91	226.72
971.20	226.70
971.49	226.69
971.79	226.74
972.08	226.67
972.38	226.64
972.67	226.66
972.96	226.65
973.26	226.63
973.55	226.69
973.85	226.68
974.14	226.67
974.43	226.66
974.73	226.63
975.02	226.62
975.31	226.65
975.61	226.66
975.90	226.70
976.19	226.68
976.49	226.66
976.78	226.67
977.07	226.69
977.37	226.72
977.66	226.72
977.95	226.69
978.24	226.69
978.54	226.74
978.83	226.71
979.12	226.70
979.42	226.70
979.71	226.66
980.00	226.67
980.29	226.62
980.59	226.67
980.88	226.71
981.17	226.70
981.46	226.68
981.76	226.72
982.05	226.70
982.34	226.71
982.63	226.70
982.93	226.67
983.22	226.66
983.51	226.67
983.80	226.68
984.09	226.66
984.39	226.66
984.68	226.62
984.97	226.62
985.26	226.62
985.55	226.64
985.85	226.63
986.14	226.63
986.43	226.64
986.72	226.61
987.01	226.59
987.30	226.59
987.59	226.59
987.89	226.57
988.18	226.58
988.47	226.57
988.76	226.59
989.05	226.61
989.34	226.65
989.63	226.65
989.92	226.63
990.22	226.64
990.51	226.64
990.80	226.67
991.09	226.68
991.38	226.69
991.67	226.69
991.96	226.70
992.25	226.73
992.54	226.74
992.83	226.74
993.12	226.74
993.41	226.74
993.70	226.77
993.99	226.80
994.28	226.81
994.58	226.80
994.87	226.76
995.16	226.78
995.45	226.77
995.74	226.76
996.03	226.78
996.32	226.80
996.61	226.82
996.90	226.80
997.19	226.82
997.48	226.81
997.77	226.78
998.06	226.77
998.34	226.74
998.63	226.75
998.92	226.76
999.21	226.77
999.50	226.77
999.79	226.77
1000.08	226.76
1000.37	226.76
1000.66	226.75
1000.95	226.79
1001.24	226.78
1001.53	226.77
1001.82	226.77
1002.11	226.75
1002.40	226.76
1002.68	226.78
1002.97	226.84
1003.26	226.83
1003.55	226.82
1003.84	226.83
1004.13	226.86
1004.42	226.88
1004.71	226.90
1004.99	226.91
1005.28	226.92
1005.57	226.92
1005.86	226.84
1006.15	226.83
1006.44	226.82
1006.72	226.84
1007.01	226.82
1007.30	226.81
1007.59	226.77
1007.88	226.75
1008.17	226.78
1008.45	226.75
1008.74	226.71
1009.03	226.69
1009.32	226.67
1009.60	226.67
1009.89	226.69
1010.18	226.63
1010.47	226.59
1010.76	226.55
1011.04	226.54
1011.33	226.55
1011.62	226.55
1011.91	226.58
1012.19	226.55
1012.48	226.51
1012.77	226.51
1013.05	226.56
1013.34	226.55
1013.63	226.55
1013.92	226.57
1014.20	226.56
1014.49	226.54
1014.78	226.53
1015.06	226.49
1015.35	226.48
1015.64	226.46
1015.92	226.43
1016.21	226.45
1016.50	226.45
1016.78	226.47
1017.07	226.47
1017.36	226.46
1017.64	226.45
1017.93	226.44
1018.22	226.44
1018.50	226.46
1018.79	226.47
1019.08	226.43
1019.36	226.45
1019.65	226.45
1019.93	226.45
1020.22	226.46
1020.51	226.53
1020.79	226.50
1021.08	226.04
1021.36	226.06
1021.65	226.84
1021.94	227.00
1022.22	226.59
1022.51	226.27
1022.79	227.01
1023.08	226.67
1023.36	227.87
1023.65	225.87
>>>>>End Processed Spectral Data<<<<<
