SpectraSuite Data File
++++++++++++++++++++++++++++++++++++
Date: Fri Feb 01 15:18:19 EST 2013
User: group
Dark Spectrum Present: No
Reference Spectrum Present: No
Number of Sampled Component Spectra: 1
Spectrometers: USB2E7196
Integration Time (usec): 35000 (USB2E7196)
Spectra Averaged: 100 (USB2E7196)
Boxcar Smoothing: 10 (USB2E7196)
Correct for Electrical Dark: No (USB2E7196)
Strobe/Lamp Enabled: No (USB2E7196)
Correct for Detector Non-linearity: No (USB2E7196)
Correct for Stray Light: No (USB2E7196)
Number of Pixels in Processed Spectrum: 2048
>>>>>Begin Processed Spectral Data<<<<<
339.09	0.00
339.48	215.22
339.86	216.53
340.24	218.19
340.63	219.09
341.01	222.40
341.39	222.09
341.78	223.07
342.16	225.21
342.54	224.62
342.93	213.47
343.31	224.28
343.69	224.80
344.07	225.28
344.46	225.69
344.84	226.07
345.22	226.29
345.60	226.54
345.99	226.77
346.37	226.88
346.75	227.01
347.13	227.06
347.52	227.10
347.90	227.20
348.28	227.18
348.66	227.24
349.05	227.21
349.43	227.22
349.81	227.28
350.19	227.31
350.57	227.35
350.96	227.42
351.34	227.47
351.72	227.56
352.10	227.61
352.48	227.68
352.87	227.74
353.25	227.82
353.63	227.85
354.01	227.92
354.39	227.99
354.77	228.07
355.15	228.18
355.54	228.26
355.92	228.30
356.30	228.42
356.68	228.56
357.06	228.65
357.44	228.72
357.82	228.77
358.20	228.84
358.58	228.90
358.97	228.94
359.35	229.03
359.73	229.10
360.11	229.19
360.49	229.22
360.87	229.26
361.25	229.30
361.63	229.38
362.01	229.42
362.39	229.44
362.77	229.45
363.15	229.44
363.53	229.44
363.91	229.45
364.29	229.45
364.67	229.38
365.05	229.41
365.43	229.44
365.81	229.43
366.19	229.48
366.57	229.53
366.95	229.53
367.33	229.46
367.71	229.46
368.09	229.47
368.47	229.48
368.85	229.44
369.23	229.46
369.61	229.39
369.99	229.37
370.37	229.32
370.75	229.32
371.13	229.28
371.51	229.23
371.89	229.18
372.27	229.13
372.65	229.07
373.03	229.00
373.41	228.95
373.78	228.88
374.16	228.77
374.54	228.66
374.92	228.59
375.30	228.52
375.68	228.45
376.06	228.37
376.44	228.26
376.82	228.20
377.19	228.10
377.57	228.04
377.95	227.92
378.33	227.87
378.71	227.79
379.09	227.73
379.47	227.68
379.84	227.61
380.22	227.54
380.60	227.42
380.98	227.33
381.36	227.24
381.73	227.17
382.11	227.12
382.49	227.05
382.87	226.99
383.25	226.97
383.62	227.01
384.00	226.92
384.38	226.89
384.76	226.88
385.13	226.83
385.51	226.78
385.89	226.70
386.27	226.64
386.64	226.58
387.02	226.53
387.40	226.46
387.78	226.42
388.15	226.39
388.53	226.39
388.91	226.37
389.29	226.34
389.66	226.34
390.04	226.31
390.42	226.33
390.79	226.31
391.17	226.29
391.55	226.16
391.92	226.21
392.30	226.21
392.68	226.19
393.05	226.22
393.43	226.21
393.81	226.22
394.18	226.21
394.56	226.24
394.94	226.24
395.31	226.27
395.69	226.32
396.06	226.34
396.44	226.41
396.82	226.46
397.19	226.55
397.57	226.59
397.95	226.62
398.32	226.64
398.70	226.67
399.07	226.77
399.45	226.82
399.82	226.86
400.20	226.92
400.58	226.99
400.95	227.00
401.33	227.12
401.70	227.32
402.08	227.43
402.45	227.52
402.83	227.64
403.20	227.76
403.58	227.89
403.95	228.03
404.33	228.13
404.71	228.25
405.08	228.42
405.46	228.56
405.83	228.73
406.21	228.86
406.58	229.06
406.96	229.21
407.33	229.41
407.70	229.63
408.08	229.89
408.45	230.11
408.83	230.38
409.20	230.61
409.58	230.79
409.95	231.07
410.33	231.36
410.70	231.61
411.08	231.90
411.45	232.18
411.82	232.52
412.20	232.89
412.57	233.32
412.95	233.60
413.32	234.01
413.69	234.45
414.07	234.92
414.44	235.41
414.82	235.88
415.19	236.40
415.56	236.95
415.94	237.51
416.31	238.18
416.68	238.77
417.06	239.49
417.43	240.17
417.81	240.95
418.18	241.72
418.55	242.57
418.93	243.48
419.30	244.42
419.67	245.31
420.04	246.31
420.42	247.27
420.79	248.44
421.16	249.59
421.54	250.78
421.91	252.01
422.28	253.23
422.66	254.57
423.03	255.86
423.40	257.14
423.77	258.56
424.15	259.99
424.52	261.54
424.89	263.17
425.26	264.76
425.64	266.22
426.01	267.82
426.38	269.46
426.75	271.11
427.13	272.84
427.50	274.70
427.87	276.54
428.24	278.41
428.61	280.21
428.99	282.12
429.36	284.22
429.73	286.27
430.10	288.31
430.47	290.38
430.85	292.59
431.22	294.90
431.59	297.25
431.96	299.46
432.33	301.95
432.70	304.32
433.08	307.13
433.45	309.77
433.82	312.38
434.19	315.31
434.56	318.12
434.93	320.76
435.30	323.37
435.68	326.26
436.05	329.12
436.42	331.94
436.79	334.48
437.16	337.17
437.53	340.02
437.90	342.89
438.27	345.63
438.64	348.44
439.01	351.02
439.38	353.29
439.75	355.46
440.13	357.94
440.50	360.25
440.87	362.07
441.24	364.01
441.61	366.17
441.98	367.66
442.35	369.45
442.72	371.30
443.09	373.10
443.46	374.07
443.83	374.62
444.20	375.06
444.57	375.88
444.94	376.18
445.31	376.54
445.68	376.82
446.05	376.92
446.42	376.48
446.79	376.01
447.16	375.50
447.53	375.19
447.90	373.96
448.27	372.77
448.64	371.15
449.01	370.00
449.37	368.02
449.74	366.10
450.11	363.90
450.48	361.42
450.85	358.90
451.22	356.75
451.59	354.73
451.96	352.80
452.33	350.24
452.70	347.85
453.07	344.97
453.43	342.10
453.80	339.33
454.17	336.68
454.54	334.18
454.91	331.48
455.28	328.84
455.65	326.41
456.02	324.00
456.38	321.85
456.75	319.19
457.12	316.92
457.49	314.69
457.86	312.52
458.23	310.66
458.59	308.60
458.96	306.54
459.33	304.69
459.70	302.83
460.07	301.28
460.43	299.59
460.80	298.00
461.17	296.60
461.54	295.08
461.91	293.67
462.27	292.22
462.64	290.98
463.01	289.59
463.38	288.28
463.74	286.88
464.11	285.74
464.48	284.74
464.85	283.67
465.21	282.80
465.58	281.85
465.95	280.77
466.32	279.89
466.68	279.00
467.05	278.08
467.42	277.18
467.78	276.27
468.15	275.40
468.52	274.73
468.88	273.83
469.25	273.08
469.62	272.44
469.98	271.78
470.35	271.14
470.72	270.57
471.08	269.89
471.45	269.39
471.82	268.87
472.18	268.27
472.55	267.81
472.92	267.29
473.28	266.84
473.65	266.40
474.02	265.93
474.38	265.55
474.75	265.26
475.11	264.92
475.48	264.65
475.85	264.43
476.21	264.15
476.58	263.93
476.94	263.76
477.31	263.60
477.67	263.42
478.04	263.32
478.41	263.22
478.77	263.32
479.14	263.22
479.50	263.17
479.87	263.23
480.23	263.34
480.60	263.40
480.96	263.48
481.33	263.65
481.69	263.82
482.06	264.00
482.42	264.18
482.79	264.43
483.15	264.75
483.52	265.08
483.88	265.45
484.25	265.87
484.61	266.26
484.98	266.70
485.34	267.29
485.71	267.87
486.07	268.48
486.44	269.03
486.80	269.72
487.17	270.48
487.53	271.28
487.90	272.09
488.26	273.03
488.62	274.02
488.99	275.04
489.35	276.09
489.72	277.21
490.08	278.42
490.44	279.67
490.81	280.97
491.17	282.34
491.54	283.82
491.90	285.34
492.26	287.00
492.63	288.74
492.99	290.47
493.36	292.35
493.72	294.42
494.08	296.52
494.45	298.77
494.81	301.14
495.17	303.57
495.54	306.12
495.90	308.74
496.26	311.49
496.63	314.41
496.99	317.51
497.35	320.75
497.72	324.12
498.08	327.59
498.44	331.24
498.80	335.16
499.17	339.17
499.53	343.30
499.89	347.67
500.26	352.15
500.62	356.81
500.98	361.79
501.34	366.80
501.71	372.13
502.07	377.56
502.43	383.19
502.79	388.99
503.16	395.09
503.52	401.40
503.88	407.83
504.24	414.45
504.60	421.36
504.97	428.52
505.33	435.84
505.69	443.55
506.05	451.34
506.41	459.23
506.78	467.41
507.14	475.87
507.50	484.58
507.86	493.56
508.22	502.78
508.59	511.93
508.95	521.54
509.31	531.34
509.67	541.50
510.03	551.71
510.39	562.26
510.75	573.11
511.12	584.02
511.48	595.30
511.84	606.78
512.20	618.31
512.56	630.28
512.92	642.53
513.28	654.85
513.64	667.39
514.00	680.10
514.37	693.03
514.73	706.06
515.09	719.19
515.45	732.49
515.81	746.11
516.17	760.17
516.53	774.28
516.89	788.47
517.25	802.62
517.61	817.13
517.97	831.65
518.33	846.09
518.69	860.91
519.05	875.98
519.41	891.13
519.77	906.73
520.13	922.14
520.49	937.62
520.85	953.10
521.21	968.87
521.57	985.12
521.93	1000.94
522.29	1017.44
522.65	1033.61
523.01	1049.95
523.37	1065.96
523.73	1082.11
524.09	1098.28
524.45	1114.71
524.81	1131.35
525.17	1148.26
525.53	1165.21
525.89	1182.03
526.25	1198.85
526.61	1215.38
526.97	1232.17
527.33	1248.65
527.68	1265.34
528.04	1281.72
528.40	1298.37
528.76	1315.38
529.12	1331.99
529.48	1348.87
529.84	1364.99
530.20	1381.76
530.56	1398.85
530.91	1416.32
531.27	1433.17
531.63	1449.70
531.99	1466.29
532.35	1482.43
532.71	1498.32
533.07	1514.58
533.42	1530.60
533.78	1546.76
534.14	1563.03
534.50	1578.41
534.86	1594.38
535.21	1609.59
535.57	1625.70
535.93	1641.24
536.29	1656.23
536.65	1671.51
537.00	1686.45
537.36	1701.81
537.72	1716.36
538.08	1730.80
538.44	1744.68
538.79	1758.69
539.15	1772.50
539.51	1786.38
539.87	1800.67
540.22	1814.45
540.58	1828.24
540.94	1841.71
541.29	1854.69
541.65	1867.55
542.01	1880.96
542.37	1893.21
542.72	1905.74
543.08	1917.43
543.44	1929.91
543.79	1941.12
544.15	1952.00
544.51	1963.63
544.87	1974.68
545.22	1985.54
545.58	1995.78
545.94	2005.66
546.29	2015.54
546.65	2025.37
547.01	2034.54
547.36	2043.41
547.72	2051.98
548.07	2059.98
548.43	2068.20
548.79	2076.35
549.14	2083.71
549.50	2091.08
549.86	2099.07
550.21	2106.43
550.57	2113.70
550.92	2120.32
551.28	2127.35
551.64	2134.50
551.99	2141.01
552.35	2147.03
552.70	2153.07
553.06	2159.01
553.41	2165.40
553.77	2171.40
554.13	2177.49
554.48	2183.64
554.84	2188.96
555.19	2194.26
555.55	2199.21
555.90	2203.63
556.26	2208.41
556.61	2213.21
556.97	2217.30
557.32	2221.22
557.68	2225.36
558.03	2229.74
558.39	2233.56
558.74	2238.25
559.10	2242.09
559.45	2245.70
559.81	2250.19
560.16	2254.12
560.52	2257.41
560.87	2260.75
561.23	2263.52
561.58	2266.42
561.94	2268.86
562.29	2271.37
562.64	2274.12
563.00	2276.80
563.35	2280.23
563.71	2283.34
564.06	2286.46
564.42	2289.35
564.77	2291.82
565.12	2293.92
565.48	2295.57
565.83	2297.19
566.19	2298.49
566.54	2299.35
566.89	2300.42
567.25	2300.74
567.60	2302.09
567.96	2303.66
568.31	2304.37
568.66	2305.19
569.02	2305.76
569.37	2306.12
569.72	2306.89
570.08	2306.79
570.43	2306.72
570.78	2306.00
571.14	2304.38
571.49	2302.92
571.84	2302.56
572.20	2301.35
572.55	2300.29
572.90	2298.78
573.26	2297.41
573.61	2295.65
573.96	2293.91
574.31	2290.86
574.67	2287.80
575.02	2283.94
575.37	2280.46
575.72	2276.62
576.08	2273.37
576.43	2269.97
576.78	2266.22
577.13	2263.00
577.49	2259.86
577.84	2256.36
578.19	2252.68
578.54	2248.90
578.90	2244.66
579.25	2238.91
579.60	2233.83
579.95	2228.77
580.30	2223.63
580.66	2218.47
581.01	2213.38
581.36	2208.32
581.71	2204.01
582.06	2199.58
582.42	2195.08
582.77	2189.73
583.12	2185.00
583.47	2179.99
583.82	2174.87
584.17	2169.37
584.53	2163.78
584.88	2158.10
585.23	2152.13
585.58	2146.60
585.93	2141.10
586.28	2136.27
586.63	2131.16
586.98	2126.02
587.34	2121.33
587.69	2116.39
588.04	2110.91
588.39	2105.08
588.74	2098.58
589.09	2092.39
589.44	2085.36
589.79	2079.26
590.14	2073.52
590.49	2066.97
590.84	2060.65
591.19	2054.35
591.54	2047.90
591.89	2040.18
592.25	2033.28
592.60	2026.09
592.95	2018.28
593.30	2010.80
593.65	2003.20
594.00	1996.22
594.35	1988.93
594.70	1980.85
595.05	1973.59
595.40	1966.28
595.75	1958.63
596.10	1952.37
596.45	1945.49
596.80	1939.35
597.15	1932.71
597.50	1925.65
597.85	1919.21
598.19	1912.33
598.54	1905.36
598.89	1898.77
599.24	1892.95
599.59	1886.11
599.94	1879.87
600.29	1873.62
600.64	1866.93
600.99	1859.32
601.34	1852.37
601.69	1845.31
602.04	1838.24
602.39	1830.77
602.74	1823.87
603.08	1817.34
603.43	1810.48
603.78	1803.21
604.13	1796.06
604.48	1788.63
604.83	1781.72
605.18	1774.65
605.53	1766.83
605.87	1758.71
606.22	1751.44
606.57	1743.44
606.92	1736.13
607.27	1728.82
607.62	1721.80
607.96	1714.49
608.31	1707.74
608.66	1700.03
609.01	1692.53
609.36	1684.85
609.70	1676.87
610.05	1668.79
610.40	1661.03
610.75	1652.62
611.10	1644.90
611.44	1636.51
611.79	1628.61
612.14	1619.90
612.49	1610.80
612.83	1602.32
613.18	1594.35
613.53	1586.18
613.88	1577.76
614.22	1569.59
614.57	1561.06
614.92	1553.12
615.27	1545.59
615.61	1537.35
615.96	1529.40
616.31	1521.76
616.65	1514.51
617.00	1506.93
617.35	1499.36
617.70	1490.76
618.04	1482.28
618.39	1474.06
618.74	1466.36
619.08	1458.09
619.43	1450.52
619.78	1443.57
620.12	1436.40
620.47	1428.71
620.82	1420.57
621.16	1413.10
621.51	1405.52
621.85	1397.86
622.20	1389.25
622.55	1381.00
622.89	1373.19
623.24	1365.54
623.59	1358.19
623.93	1350.62
624.28	1343.37
624.62	1335.70
624.97	1328.77
625.32	1322.02
625.66	1315.03
626.01	1307.80
626.35	1300.26
626.70	1292.53
627.04	1284.79
627.39	1276.98
627.73	1269.54
628.08	1262.68
628.43	1255.29
628.77	1247.86
629.12	1240.29
629.46	1233.13
629.81	1225.68
630.15	1218.50
630.50	1211.19
630.84	1202.97
631.19	1195.19
631.53	1187.77
631.88	1180.33
632.22	1172.76
632.57	1165.58
632.91	1158.05
633.26	1150.69
633.60	1143.41
633.95	1136.42
634.29	1129.41
634.64	1122.77
634.98	1115.55
635.32	1108.38
635.67	1101.90
636.01	1095.29
636.36	1088.65
636.70	1082.15
637.05	1075.62
637.39	1069.21
637.73	1062.64
638.08	1056.70
638.42	1050.70
638.77	1044.20
639.11	1037.55
639.45	1031.17
639.80	1024.50
640.14	1018.05
640.49	1011.52
640.83	1005.22
641.17	998.98
641.52	992.64
641.86	986.35
642.20	980.45
642.55	974.25
642.89	967.70
643.23	961.18
643.58	955.33
643.92	949.18
644.26	943.02
644.61	937.01
644.95	930.99
645.29	924.46
645.64	917.68
645.98	911.32
646.32	905.48
646.66	899.37
647.01	893.54
647.35	887.91
647.69	882.18
648.04	876.67
648.38	870.81
648.72	864.82
649.06	858.70
649.41	852.86
649.75	846.74
650.09	840.83
650.43	834.98
650.78	828.81
651.12	822.84
651.46	817.22
651.80	811.40
652.14	806.01
652.49	800.64
652.83	795.49
653.17	789.85
653.51	784.15
653.85	778.85
654.20	773.21
654.54	767.19
654.88	761.38
655.22	755.49
655.56	749.88
655.90	744.45
656.25	739.16
656.59	733.78
656.93	728.78
657.27	723.63
657.61	718.24
657.95	713.17
658.29	708.12
658.64	702.89
658.98	697.61
659.32	692.14
659.66	686.92
660.00	681.56
660.34	676.65
660.68	671.76
661.02	666.64
661.36	661.92
661.70	657.48
662.05	653.10
662.39	648.79
662.73	644.36
663.07	640.00
663.41	635.60
663.75	631.10
664.09	626.51
664.43	622.16
664.77	618.07
665.11	613.87
665.45	609.80
665.79	605.69
666.13	601.56
666.47	597.55
666.81	593.42
667.15	589.35
667.49	585.45
667.83	581.71
668.17	577.83
668.51	573.76
668.85	569.76
669.19	565.93
669.53	562.11
669.87	558.18
670.21	554.46
670.55	550.79
670.89	547.39
671.23	544.04
671.57	540.56
671.91	537.02
672.25	533.53
672.58	529.98
672.92	526.61
673.26	523.45
673.60	520.32
673.94	517.24
674.28	514.35
674.62	511.42
674.96	508.23
675.30	505.34
675.64	502.46
675.97	499.68
676.31	496.86
676.65	493.90
676.99	491.23
677.33	488.41
677.67	485.61
678.01	482.64
678.34	479.62
678.68	476.74
679.02	473.91
679.36	471.10
679.70	468.38
680.04	465.61
680.37	462.79
680.71	459.98
681.05	457.39
681.39	454.68
681.73	452.09
682.06	449.59
682.40	447.02
682.74	444.55
683.08	442.05
683.42	439.44
683.75	436.98
684.09	434.44
684.43	432.02
684.77	429.57
685.10	427.20
685.44	424.95
685.78	422.72
686.12	420.54
686.45	418.31
686.79	416.03
687.13	413.86
687.46	411.72
687.80	409.63
688.14	407.46
688.48	405.41
688.81	403.12
689.15	401.01
689.49	398.89
689.82	396.75
690.16	394.65
690.50	392.69
690.83	390.71
691.17	388.73
691.51	386.79
691.84	384.91
692.18	382.99
692.52	380.99
692.85	379.00
693.19	377.07
693.52	375.24
693.86	373.45
694.20	371.64
694.53	369.86
694.87	367.96
695.21	366.15
695.54	364.29
695.88	362.55
696.21	360.83
696.55	359.17
696.88	357.49
697.22	355.79
697.56	354.20
697.89	352.60
698.23	351.01
698.56	349.38
698.90	347.77
699.23	346.11
699.57	344.59
699.90	343.10
700.24	341.59
700.58	340.04
700.91	338.50
701.25	337.04
701.58	335.66
701.92	334.34
702.25	332.92
702.59	331.55
702.92	330.24
703.26	328.93
703.59	327.61
703.93	326.45
704.26	325.24
704.60	323.95
704.93	322.68
705.26	321.41
705.60	320.25
705.93	319.16
706.27	318.12
706.60	317.05
706.94	315.95
707.27	314.78
707.61	313.75
707.94	312.79
708.27	311.75
708.61	310.66
708.94	309.63
709.28	308.69
709.61	307.75
709.94	306.82
710.28	305.78
710.61	304.85
710.95	303.78
711.28	302.84
711.61	301.87
711.95	300.91
712.28	299.98
712.61	299.00
712.95	298.07
713.28	297.22
713.61	296.30
713.95	295.41
714.28	294.59
714.61	293.73
714.95	292.91
715.28	292.06
715.61	291.16
715.95	290.31
716.28	289.46
716.61	288.63
716.95	287.82
717.28	287.08
717.61	286.29
717.94	285.54
718.28	284.77
718.61	284.08
718.94	283.42
719.27	282.78
719.61	282.17
719.94	281.49
720.27	280.77
720.60	280.13
720.94	279.56
721.27	278.99
721.60	278.39
721.93	277.76
722.27	277.22
722.60	276.70
722.93	276.14
723.26	275.63
723.59	275.07
723.93	274.53
724.26	274.02
724.59	273.47
724.92	272.97
725.25	272.49
725.59	271.96
725.92	271.45
726.25	270.95
726.58	270.42
726.91	269.96
727.24	269.51
727.57	269.05
727.91	268.51
728.24	268.03
728.57	267.55
728.90	267.07
729.23	266.58
729.56	266.14
729.89	265.68
730.22	265.17
730.55	264.70
730.89	264.25
731.22	263.80
731.55	263.36
731.88	262.96
732.21	262.49
732.54	262.10
732.87	261.66
733.20	261.25
733.53	260.88
733.86	260.48
734.19	260.01
734.52	259.64
734.85	259.29
735.18	258.86
735.51	258.53
735.84	258.19
736.17	257.83
736.50	257.42
736.83	257.18
737.16	256.83
737.49	256.51
737.82	256.14
738.15	255.78
738.48	255.45
738.81	255.11
739.14	254.79
739.47	254.44
739.80	254.14
740.13	253.84
740.46	253.49
740.79	253.16
741.12	252.88
741.45	252.57
741.78	252.25
742.11	251.96
742.44	251.58
742.77	251.29
743.10	250.99
743.43	250.73
743.75	250.33
744.08	250.19
744.41	249.93
744.74	249.68
745.07	249.39
745.40	249.12
745.73	248.86
746.06	248.59
746.39	248.30
746.71	248.00
747.04	247.71
747.37	247.44
747.70	247.18
748.03	246.91
748.36	246.66
748.68	246.40
749.01	246.12
749.34	245.89
749.67	245.65
750.00	245.42
750.33	245.25
750.65	245.02
750.98	244.67
751.31	244.43
751.64	244.22
751.97	244.07
752.29	243.85
752.62	243.58
752.95	243.38
753.28	243.16
753.60	242.97
753.93	242.78
754.26	242.60
754.59	242.39
754.91	242.21
755.24	242.03
755.57	241.87
755.90	241.70
756.22	241.54
756.55	241.36
756.88	241.18
757.20	240.92
757.53	240.75
757.86	240.60
758.19	240.46
758.51	240.29
758.84	240.09
759.17	239.95
759.49	239.82
759.82	239.73
760.15	239.61
760.47	239.46
760.80	239.31
761.13	239.19
761.45	239.03
761.78	238.88
762.11	238.75
762.43	238.58
762.76	238.47
763.08	238.37
763.41	238.21
763.74	238.06
764.06	237.95
764.39	237.83
764.71	237.68
765.04	237.55
765.37	237.41
765.69	237.32
766.02	237.20
766.34	237.10
766.67	236.94
767.00	236.84
767.32	236.80
767.65	236.75
767.97	236.63
768.30	236.57
768.62	236.48
768.95	236.37
769.27	236.30
769.60	236.22
769.92	236.07
770.25	235.97
770.57	235.87
770.90	235.74
771.22	235.63
771.55	235.55
771.87	235.46
772.20	235.38
772.52	235.34
772.85	235.35
773.17	235.20
773.50	235.11
773.82	234.97
774.15	234.83
774.47	234.67
774.80	234.55
775.12	234.46
775.45	234.39
775.77	234.28
776.09	234.18
776.42	234.09
776.74	234.06
777.07	233.99
777.39	233.91
777.72	233.87
778.04	233.80
778.36	233.73
778.69	233.64
779.01	233.55
779.33	233.37
779.66	233.17
779.98	233.14
780.31	233.05
780.63	233.07
780.95	232.99
781.28	232.92
781.60	232.84
781.92	232.74
782.25	232.67
782.57	232.63
782.89	232.53
783.22	232.49
783.54	232.38
783.86	232.35
784.19	232.27
784.51	232.24
784.83	232.19
785.16	232.13
785.48	232.08
785.80	232.06
786.12	232.03
786.45	231.99
786.77	231.90
787.09	231.84
787.42	231.73
787.74	231.70
788.06	231.68
788.38	231.66
788.71	231.58
789.03	231.54
789.35	231.48
789.67	231.46
789.99	231.41
790.32	231.36
790.64	231.33
790.96	231.34
791.28	231.25
791.61	231.17
791.93	231.12
792.25	231.06
792.57	231.06
792.89	230.98
793.21	230.94
793.54	230.92
793.86	230.88
794.18	230.83
794.50	230.78
794.82	230.73
795.14	230.70
795.47	230.70
795.79	230.66
796.11	230.62
796.43	230.54
796.75	230.48
797.07	230.44
797.39	230.35
797.71	230.28
798.04	230.28
798.36	230.27
798.68	230.23
799.00	230.22
799.32	230.18
799.64	230.17
799.96	230.14
800.28	230.15
800.60	230.11
800.92	230.15
801.24	230.09
801.56	230.05
801.89	230.01
802.21	230.00
802.53	229.96
802.85	229.96
803.17	230.01
803.49	229.99
803.81	229.98
804.13	229.96
804.45	229.90
804.77	229.87
805.09	229.83
805.41	229.81
805.73	229.77
806.05	229.73
806.37	229.72
806.69	229.69
807.01	229.65
807.33	229.66
807.65	229.58
807.97	229.61
808.28	229.59
808.60	229.58
808.92	229.55
809.24	229.58
809.56	229.57
809.88	229.52
810.20	229.51
810.52	229.51
810.84	229.49
811.16	229.50
811.48	229.49
811.80	229.53
812.12	229.47
812.43	229.46
812.75	229.42
813.07	229.40
813.39	229.39
813.71	229.35
814.03	229.31
814.35	229.30
814.67	229.21
814.98	229.20
815.30	229.20
815.62	229.16
815.94	229.08
816.26	229.11
816.58	229.08
816.89	229.07
817.21	229.03
817.53	229.04
817.85	229.03
818.17	229.00
818.48	228.95
818.80	228.97
819.12	228.96
819.44	228.91
819.76	228.87
820.07	228.86
820.39	228.85
820.71	228.83
821.03	228.80
821.34	228.80
821.66	228.79
821.98	228.76
822.30	228.75
822.61	228.77
822.93	228.69
823.25	228.65
823.57	228.59
823.88	228.55
824.20	228.53
824.52	228.50
824.83	228.47
825.15	228.43
825.47	228.43
825.79	228.41
826.10	228.40
826.42	228.39
826.74	228.36
827.05	228.34
827.37	228.35
827.69	228.35
828.00	228.36
828.32	228.34
828.64	228.31
828.95	228.35
829.27	228.31
829.58	228.29
829.90	228.32
830.22	228.31
830.53	228.29
830.85	228.22
831.17	228.21
831.48	228.18
831.80	228.16
832.11	228.11
832.43	228.08
832.75	228.07
833.06	228.09
833.38	228.08
833.69	228.03
834.01	228.00
834.32	227.98
834.64	227.94
834.96	227.90
835.27	227.89
835.59	227.79
835.90	227.77
836.22	227.75
836.53	227.73
836.85	227.72
837.16	227.85
837.48	227.88
837.79	227.92
838.11	227.93
838.42	227.94
838.74	227.94
839.05	227.94
839.37	227.93
839.68	227.88
840.00	227.87
840.31	227.88
840.63	227.88
840.94	227.87
841.26	227.85
841.57	227.86
841.88	227.89
842.20	227.90
842.51	227.88
842.83	227.87
843.14	227.92
843.46	227.95
843.77	227.89
844.08	227.89
844.40	227.86
844.71	227.86
845.03	227.87
845.34	227.88
845.65	227.88
845.97	227.90
846.28	227.91
846.60	227.92
846.91	227.90
847.22	227.90
847.54	227.93
847.85	227.93
848.16	227.93
848.48	227.89
848.79	227.95
849.10	227.98
849.42	227.98
849.73	227.93
850.04	227.91
850.36	227.84
850.67	227.84
850.98	227.83
851.30	227.82
851.61	227.82
851.92	227.80
852.23	227.84
852.55	227.84
852.86	227.81
853.17	227.81
853.49	227.84
853.80	227.86
854.11	227.84
854.42	227.84
854.74	227.85
855.05	227.84
855.36	227.80
855.67	227.77
855.99	227.76
856.30	227.84
856.61	227.87
856.92	227.88
857.23	227.86
857.55	227.82
857.86	227.82
858.17	227.82
858.48	227.82
858.79	227.80
859.11	227.81
859.42	227.84
859.73	227.83
860.04	227.81
860.35	227.76
860.66	227.73
860.98	227.75
861.29	227.73
861.60	227.72
861.91	227.72
862.22	227.71
862.53	227.72
862.84	227.63
863.16	227.62
863.47	227.57
863.78	227.61
864.09	227.62
864.40	227.61
864.71	227.61
865.02	227.59
865.33	227.55
865.64	227.52
865.95	227.52
866.27	227.56
866.58	227.55
866.89	227.55
867.20	227.57
867.51	227.51
867.82	227.52
868.13	227.56
868.44	227.54
868.75	227.56
869.06	227.52
869.37	227.53
869.68	227.49
869.99	227.52
870.30	227.47
870.61	227.46
870.92	227.44
871.23	227.41
871.54	227.40
871.85	227.40
872.16	227.40
872.47	227.36
872.78	227.31
873.09	227.29
873.40	227.27
873.71	227.24
874.02	227.29
874.33	227.27
874.64	227.24
874.95	227.25
875.26	227.22
875.56	227.23
875.87	227.20
876.18	227.19
876.49	227.28
876.80	227.26
877.11	227.26
877.42	227.25
877.73	227.24
878.04	227.23
878.35	227.21
878.66	227.21
878.96	227.20
879.27	227.19
879.58	227.18
879.89	227.18
880.20	227.23
880.51	227.20
880.82	227.21
881.12	227.16
881.43	227.15
881.74	227.13
882.05	227.11
882.36	227.07
882.67	227.08
882.97	226.97
883.28	226.95
883.59	226.95
883.90	226.97
884.21	227.02
884.51	227.04
884.82	227.06
885.13	227.08
885.44	227.09
885.74	227.11
886.05	227.11
886.36	227.14
886.67	227.10
886.98	227.17
887.28	227.18
887.59	227.23
887.90	227.21
888.20	227.24
888.51	227.27
888.82	227.28
889.13	227.33
889.43	227.43
889.74	227.44
890.05	227.40
890.35	227.37
890.66	227.33
890.97	227.32
891.28	227.31
891.58	227.29
891.89	227.29
892.20	227.28
892.50	227.28
892.81	227.24
893.12	227.25
893.42	227.20
893.73	227.19
894.04	227.17
894.34	227.19
894.65	227.17
894.95	227.18
895.26	227.17
895.57	227.21
895.87	227.10
896.18	227.16
896.48	227.17
896.79	227.19
897.10	227.22
897.40	227.22
897.71	227.21
898.01	227.24
898.32	227.25
898.63	227.25
898.93	227.28
899.24	227.30
899.54	227.26
899.85	227.23
900.15	227.24
900.46	227.24
900.76	227.27
901.07	227.25
901.38	227.24
901.68	227.25
901.99	227.18
902.29	227.21
902.60	227.18
902.90	227.18
903.21	227.17
903.51	227.15
903.82	227.19
904.12	227.23
904.43	227.20
904.73	227.19
905.03	227.18
905.34	227.25
905.64	227.25
905.95	227.26
906.25	227.25
906.56	227.26
906.86	227.27
907.17	227.26
907.47	227.29
907.77	227.30
908.08	227.25
908.38	227.25
908.69	227.22
908.99	227.23
909.30	227.23
909.60	227.22
909.90	227.22
910.21	227.18
910.51	227.12
910.81	227.16
911.12	227.15
911.42	227.12
911.73	227.04
912.03	227.02
912.33	227.05
912.64	227.08
912.94	227.06
913.24	227.04
913.55	226.98
913.85	226.96
914.15	226.93
914.46	226.92
914.76	226.90
915.06	226.91
915.37	226.91
915.67	226.91
915.97	226.92
916.27	226.89
916.58	226.87
916.88	226.88
917.18	226.86
917.49	226.98
917.79	226.97
918.09	226.96
918.39	227.01
918.70	226.99
919.00	226.97
919.30	227.01
919.60	227.01
919.91	227.01
920.21	227.03
920.51	227.03
920.81	227.08
921.12	227.13
921.42	227.11
921.72	227.10
922.02	227.08
922.32	227.07
922.63	227.11
922.93	227.16
923.23	227.18
923.53	227.16
923.83	227.05
924.13	227.06
924.44	227.07
924.74	227.07
925.04	227.08
925.34	227.09
925.64	227.05
925.94	227.06
926.24	227.12
926.55	227.09
926.85	227.14
927.15	227.14
927.45	227.13
927.75	227.14
928.05	227.11
928.35	227.12
928.65	227.13
928.95	227.10
929.26	227.07
929.56	227.07
929.86	227.07
930.16	227.07
930.46	227.09
930.76	227.08
931.06	227.04
931.36	227.02
931.66	227.03
931.96	227.04
932.26	227.04
932.56	226.99
932.86	227.02
933.16	226.99
933.46	226.93
933.76	226.90
934.06	226.93
934.36	226.98
934.66	226.97
934.96	226.96
935.26	227.02
935.56	227.03
935.86	227.04
936.16	227.00
936.46	227.00
936.76	226.98
937.06	226.97
937.36	226.99
937.66	227.00
937.96	227.00
938.26	227.00
938.56	226.99
938.86	226.98
939.16	227.02
939.46	227.06
939.76	227.09
940.06	227.10
940.35	227.07
940.65	227.05
940.95	227.10
941.25	227.09
941.55	227.04
941.85	227.03
942.15	227.03
942.45	227.06
942.75	227.07
943.04	227.10
943.34	227.14
943.64	227.14
943.94	227.14
944.24	227.12
944.54	227.12
944.84	227.12
945.13	227.13
945.43	227.11
945.73	227.09
946.03	227.11
946.33	227.09
946.62	227.10
946.92	227.08
947.22	227.07
947.52	227.11
947.82	227.11
948.11	227.09
948.41	227.07
948.71	227.04
949.01	227.03
949.31	227.00
949.60	226.98
949.90	227.01
950.20	227.01
950.50	227.03
950.79	227.00
951.09	227.00
951.39	226.98
951.69	226.95
951.98	226.97
952.28	226.97
952.58	226.97
952.87	226.97
953.17	226.97
953.47	226.94
953.76	226.92
954.06	226.91
954.36	226.89
954.66	226.88
954.95	226.93
955.25	226.92
955.55	226.93
955.84	226.89
956.14	226.86
956.44	226.86
956.73	226.83
957.03	226.88
957.32	226.87
957.62	226.86
957.92	226.88
958.21	226.83
958.51	226.91
958.81	226.92
959.10	226.92
959.40	226.94
959.69	226.97
959.99	226.96
960.29	226.99
960.58	226.99
960.88	227.05
961.17	227.01
961.47	227.04
961.76	227.00
962.06	227.04
962.36	227.04
962.65	227.02
962.95	227.02
963.24	226.99
963.54	226.99
963.83	227.03
964.13	227.02
964.42	227.00
964.72	226.94
965.01	226.95
965.31	226.94
965.60	226.88
965.90	226.94
966.19	226.90
966.49	226.86
966.78	226.84
967.08	226.83
967.37	226.82
967.67	226.79
967.96	226.79
968.26	226.76
968.55	226.73
968.85	226.74
969.14	226.74
969.43	226.72
969.73	226.71
970.02	226.68
970.32	226.68
970.61	226.67
970.91	226.64
971.20	226.63
971.49	226.62
971.79	226.65
972.08	226.59
972.38	226.63
972.67	226.64
972.96	226.71
973.26	226.68
973.55	226.72
973.85	226.73
974.14	226.76
974.43	226.80
974.73	226.84
975.02	226.84
975.31	226.85
975.61	226.85
975.90	226.85
976.19	226.88
976.49	226.89
976.78	226.94
977.07	226.95
977.37	226.95
977.66	226.98
977.95	226.98
978.24	227.02
978.54	227.04
978.83	227.07
979.12	227.04
979.42	227.07
979.71	227.06
980.00	227.07
980.29	227.11
980.59	227.10
980.88	227.11
981.17	227.13
981.46	227.12
981.76	227.15
982.05	227.21
982.34	227.22
982.63	227.23
982.93	227.21
983.22	227.26
983.51	227.28
983.80	227.28
984.09	227.29
984.39	227.29
984.68	227.26
984.97	227.26
985.26	227.28
985.55	227.28
985.85	227.27
986.14	227.31
986.43	227.29
986.72	227.28
987.01	227.28
987.30	227.27
987.59	227.26
987.89	227.25
988.18	227.21
988.47	227.19
988.76	227.15
989.05	227.12
989.34	227.08
989.63	227.07
989.92	227.08
990.22	227.07
990.51	227.03
990.80	227.05
991.09	227.06
991.38	227.05
991.67	227.03
991.96	227.03
992.25	226.98
992.54	226.96
992.83	226.96
993.12	226.94
993.41	226.94
993.70	226.97
993.99	226.94
994.28	226.93
994.58	226.97
994.87	226.98
995.16	226.99
995.45	227.00
995.74	226.99
996.03	226.98
996.32	226.94
996.61	226.95
996.90	226.93
997.19	226.92
997.48	226.89
997.77	226.86
998.06	226.86
998.34	226.86
998.63	226.83
998.92	226.80
999.21	226.77
999.50	226.76
999.79	226.73
1000.08	226.78
1000.37	226.79
1000.66	226.73
1000.95	226.75
1001.24	226.75
1001.53	226.72
1001.82	226.69
1002.11	226.66
1002.40	226.66
1002.68	226.68
1002.97	226.73
1003.26	226.71
1003.55	226.73
1003.84	226.73
1004.13	226.75
1004.42	226.73
1004.71	226.78
1004.99	226.77
1005.28	226.80
1005.57	226.77
1005.86	226.74
1006.15	226.71
1006.44	226.70
1006.72	226.73
1007.01	226.71
1007.30	226.68
1007.59	226.70
1007.88	226.70
1008.17	226.70
1008.45	226.69
1008.74	226.68
1009.03	226.65
1009.32	226.63
1009.60	226.64
1009.89	226.64
1010.18	226.60
1010.47	226.60
1010.76	226.59
1011.04	226.60
1011.33	226.63
1011.62	226.67
1011.91	226.72
1012.19	226.72
1012.48	226.70
1012.77	226.70
1013.05	226.76
1013.34	226.80
1013.63	226.80
1013.92	226.82
1014.20	226.85
1014.49	226.90
1014.78	226.88
1015.06	226.87
1015.35	226.88
1015.64	226.88
1015.92	226.94
1016.21	226.96
1016.50	226.95
1016.78	226.95
1017.07	226.95
1017.36	226.91
1017.64	226.90
1017.93	226.90
1018.22	226.93
1018.50	226.97
1018.79	226.95
1019.08	226.90
1019.36	226.91
1019.65	226.95
1019.93	226.96
1020.22	226.95
1020.51	226.98
1020.79	227.01
1021.08	227.54
1021.36	227.04
1021.65	226.60
1021.94	226.66
1022.22	227.33
1022.51	227.46
1022.79	227.18
1023.08	226.96
1023.36	227.74
1023.65	227.25
>>>>>End Processed Spectral Data<<<<<
