SpectraSuite Data File
++++++++++++++++++++++++++++++++++++
Date: Fri Feb 01 17:35:18 EST 2013
User: group
Dark Spectrum Present: No
Reference Spectrum Present: No
Number of Sampled Component Spectra: 1
Spectrometers: USB2E7196
Integration Time (usec): 35000 (USB2E7196)
Spectra Averaged: 100 (USB2E7196)
Boxcar Smoothing: 10 (USB2E7196)
Correct for Electrical Dark: No (USB2E7196)
Strobe/Lamp Enabled: No (USB2E7196)
Correct for Detector Non-linearity: No (USB2E7196)
Correct for Stray Light: No (USB2E7196)
Number of Pixels in Processed Spectrum: 2048
>>>>>Begin Processed Spectral Data<<<<<
339.09	0.00
339.48	212.97
339.86	215.04
340.24	215.89
340.63	217.60
341.01	220.60
341.39	219.77
341.78	221.85
342.16	223.15
342.54	222.81
342.93	211.68
343.31	222.35
343.69	222.92
344.07	223.35
344.46	223.78
344.84	224.16
345.22	224.35
345.60	224.63
345.99	224.81
346.37	224.91
346.75	225.02
347.13	225.08
347.52	225.16
347.90	225.24
348.28	225.28
348.66	225.33
349.05	225.34
349.43	225.36
349.81	225.40
350.19	225.39
350.57	225.44
350.96	225.49
351.34	225.62
351.72	225.68
352.10	225.78
352.48	225.85
352.87	225.88
353.25	225.96
353.63	226.02
354.01	226.04
354.39	226.11
354.77	226.21
355.15	226.30
355.54	226.37
355.92	226.40
356.30	226.48
356.68	226.61
357.06	226.68
357.44	226.73
357.82	226.77
358.20	226.87
358.58	226.89
358.97	227.00
359.35	227.04
359.73	227.11
360.11	227.16
360.49	227.19
360.87	227.23
361.25	227.29
361.63	227.35
362.01	227.41
362.39	227.43
362.77	227.42
363.15	227.47
363.53	227.49
363.91	227.52
364.29	227.51
364.67	227.42
365.05	227.43
365.43	227.46
365.81	227.46
366.19	227.50
366.57	227.57
366.95	227.53
367.33	227.54
367.71	227.52
368.09	227.51
368.47	227.50
368.85	227.47
369.23	227.50
369.61	227.45
369.99	227.45
370.37	227.46
370.75	227.48
371.13	227.42
371.51	227.37
371.89	227.33
372.27	227.29
372.65	227.26
373.03	227.23
373.41	227.18
373.78	227.16
374.16	227.05
374.54	226.96
374.92	226.90
375.30	226.83
375.68	226.75
376.06	226.71
376.44	226.68
376.82	226.61
377.19	226.50
377.57	226.42
377.95	226.31
378.33	226.24
378.71	226.14
379.09	226.08
379.47	226.02
379.84	225.99
380.22	225.93
380.60	225.85
380.98	225.78
381.36	225.71
381.73	225.60
382.11	225.59
382.49	225.54
382.87	225.48
383.25	225.41
383.62	225.49
384.00	225.41
384.38	225.36
384.76	225.36
385.13	225.38
385.51	225.34
385.89	225.32
386.27	225.29
386.64	225.23
387.02	225.17
387.40	225.14
387.78	225.11
388.15	225.07
388.53	225.04
388.91	225.00
389.29	224.98
389.66	225.00
390.04	224.95
390.42	224.92
390.79	224.91
391.17	224.92
391.55	224.80
391.92	224.77
392.30	224.76
392.68	224.69
393.05	224.68
393.43	224.67
393.81	224.68
394.18	224.66
394.56	224.68
394.94	224.74
395.31	224.75
395.69	224.76
396.06	224.77
396.44	224.78
396.82	224.79
397.19	224.85
397.57	224.86
397.95	224.87
398.32	224.89
398.70	224.93
399.07	224.97
399.45	224.99
399.82	225.07
400.20	225.13
400.58	225.21
400.95	225.21
401.33	225.30
401.70	225.43
402.08	225.52
402.45	225.59
402.83	225.68
403.20	225.79
403.58	225.91
403.95	226.05
404.33	226.20
404.71	226.31
405.08	226.46
405.46	226.62
405.83	226.79
406.21	226.94
406.58	227.08
406.96	227.24
407.33	227.45
407.70	227.64
408.08	227.87
408.45	228.10
408.83	228.34
409.20	228.55
409.58	228.72
409.95	228.98
410.33	229.24
410.70	229.48
411.08	229.75
411.45	230.04
411.82	230.34
412.20	230.69
412.57	231.13
412.95	231.45
413.32	231.84
413.69	232.28
414.07	232.74
414.44	233.23
414.82	233.71
415.19	234.23
415.56	234.81
415.94	235.39
416.31	236.07
416.68	236.73
417.06	237.48
417.43	238.20
417.81	238.98
418.18	239.82
418.55	240.70
418.93	241.63
419.30	242.54
419.67	243.52
420.04	244.52
420.42	245.56
420.79	246.78
421.16	248.01
421.54	249.25
421.91	250.54
422.28	251.83
422.66	253.22
423.03	254.59
423.40	255.96
423.77	257.42
424.15	258.90
424.52	260.44
424.89	262.12
425.26	263.75
425.64	265.27
426.01	266.89
426.38	268.63
426.75	270.39
427.13	272.22
427.50	274.10
427.87	276.06
428.24	277.99
428.61	279.82
428.99	281.88
429.36	284.02
429.73	286.15
430.10	288.22
430.47	290.37
430.85	292.57
431.22	294.94
431.59	297.47
431.96	299.83
432.33	302.46
432.70	304.95
433.08	307.89
433.45	310.65
433.82	313.38
434.19	316.38
434.56	319.27
434.93	322.01
435.30	324.72
435.68	327.71
436.05	330.65
436.42	333.54
436.79	336.09
437.16	338.92
437.53	341.88
437.90	344.84
438.27	347.69
438.64	350.68
439.01	353.34
439.38	355.63
439.75	357.85
440.13	360.45
440.50	362.82
440.87	364.74
441.24	366.75
441.61	368.98
441.98	370.55
442.35	372.44
442.72	374.37
443.09	376.31
443.46	377.36
443.83	377.99
444.20	378.55
444.57	379.49
444.94	379.81
445.31	380.25
445.68	380.64
446.05	380.73
446.42	380.37
446.79	379.99
447.16	379.55
447.53	379.26
447.90	378.07
448.27	376.96
448.64	375.37
449.01	374.22
449.37	372.22
449.74	370.28
450.11	367.98
450.48	365.44
450.85	362.84
451.22	360.62
451.59	358.56
451.96	356.57
452.33	353.82
452.70	351.42
453.07	348.40
453.43	345.42
453.80	342.61
454.17	339.81
454.54	337.15
454.91	334.33
455.28	331.59
455.65	329.01
456.02	326.42
456.38	324.16
456.75	321.40
457.12	319.10
457.49	316.79
457.86	314.52
458.23	312.61
458.59	310.44
458.96	308.30
459.33	306.35
459.70	304.39
460.07	302.88
460.43	301.07
460.80	299.38
461.17	297.85
461.54	296.29
461.91	294.79
462.27	293.26
462.64	291.95
463.01	290.50
463.38	289.13
463.74	287.71
464.11	286.47
464.48	285.39
464.85	284.21
465.21	283.31
465.58	282.36
465.95	281.20
466.32	280.29
466.68	279.34
467.05	278.40
467.42	277.46
467.78	276.45
468.15	275.52
468.52	274.85
468.88	273.99
469.25	273.19
469.62	272.55
469.98	271.85
470.35	271.20
470.72	270.57
471.08	269.94
471.45	269.41
471.82	268.87
472.18	268.25
472.55	267.78
472.92	267.21
473.28	266.74
473.65	266.27
474.02	265.78
474.38	265.40
474.75	265.05
475.11	264.70
475.48	264.43
475.85	264.20
476.21	263.90
476.58	263.68
476.94	263.50
477.31	263.30
477.67	263.15
478.04	263.01
478.41	262.91
478.77	262.90
479.14	262.77
479.50	262.75
479.87	262.81
480.23	262.88
480.60	262.96
480.96	263.02
481.33	263.24
481.69	263.42
482.06	263.58
482.42	263.80
482.79	264.07
483.15	264.36
483.52	264.72
483.88	265.13
484.25	265.53
484.61	265.93
484.98	266.43
485.34	267.00
485.71	267.57
486.07	268.20
486.44	268.75
486.80	269.48
487.17	270.24
487.53	271.03
487.90	271.88
488.26	272.79
488.62	273.78
488.99	274.75
489.35	275.79
489.72	276.94
490.08	278.12
490.44	279.33
490.81	280.65
491.17	282.00
491.54	283.47
491.90	285.02
492.26	286.69
492.63	288.38
492.99	290.14
493.36	292.02
493.72	294.09
494.08	296.19
494.45	298.41
494.81	300.73
495.17	303.12
495.54	305.64
495.90	308.28
496.26	311.03
496.63	313.93
496.99	317.00
497.35	320.20
497.72	323.56
498.08	327.04
498.44	330.68
498.80	334.58
499.17	338.56
499.53	342.63
499.89	346.91
500.26	351.33
500.62	355.91
500.98	360.84
501.34	365.79
501.71	371.03
502.07	376.40
502.43	381.91
502.79	387.68
503.16	393.63
503.52	399.83
503.88	406.22
504.24	412.78
504.60	419.59
504.97	426.64
505.33	433.84
505.69	441.45
506.05	449.13
506.41	456.84
506.78	464.87
507.14	473.15
507.50	481.68
507.86	490.53
508.22	499.52
508.59	508.48
508.95	517.86
509.31	527.44
509.67	537.29
510.03	547.37
510.39	557.76
510.75	568.30
511.12	578.96
511.48	589.89
511.84	601.05
512.20	612.23
512.56	623.89
512.92	635.79
513.28	647.78
513.64	659.88
514.00	672.29
514.37	684.80
514.73	697.59
515.09	710.26
515.45	723.22
515.81	736.42
516.17	750.08
516.53	763.82
516.89	777.59
517.25	791.37
517.61	805.42
517.97	819.36
518.33	833.42
518.69	847.76
519.05	862.28
519.41	877.04
519.77	892.06
520.13	907.01
520.49	921.95
520.85	936.76
521.21	951.96
521.57	967.72
521.93	983.01
522.29	998.69
522.65	1014.45
523.01	1030.10
523.37	1045.63
523.73	1061.22
524.09	1076.76
524.45	1092.45
524.81	1108.50
525.17	1124.65
525.53	1140.98
525.89	1157.24
526.25	1173.49
526.61	1189.26
526.97	1205.52
527.33	1221.52
527.68	1237.56
528.04	1253.43
528.40	1269.53
528.76	1286.12
529.12	1302.16
529.48	1318.56
529.84	1334.27
530.20	1350.43
530.56	1366.91
530.91	1383.84
531.27	1400.20
531.63	1416.17
531.99	1432.32
532.35	1447.93
532.71	1463.53
533.07	1479.32
533.42	1494.94
533.78	1510.68
534.14	1526.67
534.50	1541.55
534.86	1557.02
535.21	1571.78
535.57	1587.35
535.93	1602.54
536.29	1616.95
536.65	1631.62
537.00	1646.02
537.36	1660.99
537.72	1675.21
538.08	1689.39
538.44	1702.94
538.79	1716.59
539.15	1729.96
539.51	1743.45
539.87	1757.51
540.22	1770.90
540.58	1784.41
540.94	1797.30
541.29	1809.79
541.65	1822.29
542.01	1835.27
542.37	1847.54
542.72	1859.83
543.08	1871.57
543.44	1883.74
543.79	1894.96
544.15	1905.89
544.51	1917.27
544.87	1928.16
545.22	1938.98
545.58	1949.32
545.94	1959.08
546.29	1968.84
546.65	1978.84
547.01	1988.30
547.36	1997.10
547.72	2005.68
548.07	2013.78
548.43	2022.08
548.79	2030.11
549.14	2037.87
549.50	2045.20
549.86	2052.83
550.21	2060.26
550.57	2067.65
550.92	2074.54
551.28	2081.73
551.64	2089.08
551.99	2095.92
552.35	2102.40
552.70	2108.63
553.06	2114.74
553.41	2121.33
553.77	2127.57
554.13	2133.88
554.48	2140.16
554.84	2146.05
555.19	2151.49
555.55	2156.95
555.90	2161.70
556.26	2167.21
556.61	2172.15
556.97	2177.05
557.32	2181.69
557.68	2186.20
558.03	2190.72
558.39	2194.70
558.74	2199.61
559.10	2203.90
559.45	2208.07
559.81	2212.56
560.16	2216.75
560.52	2220.32
560.87	2224.00
561.23	2227.12
561.58	2230.28
561.94	2233.39
562.29	2235.90
562.64	2239.29
563.00	2242.21
563.35	2246.27
563.71	2249.79
564.06	2253.31
564.42	2256.55
564.77	2259.63
565.12	2262.48
565.48	2264.99
565.83	2267.46
566.19	2269.31
566.54	2270.47
566.89	2272.08
567.25	2273.39
567.60	2275.19
567.96	2277.46
568.31	2278.71
568.66	2280.27
569.02	2281.36
569.37	2282.07
569.72	2283.47
570.08	2283.93
570.43	2284.34
570.78	2284.29
571.14	2283.20
571.49	2282.33
571.84	2282.38
572.20	2281.50
572.55	2280.80
572.90	2279.40
573.26	2278.44
573.61	2277.07
573.96	2275.89
574.31	2273.27
574.67	2270.45
575.02	2267.29
575.37	2264.23
575.72	2261.16
576.08	2258.13
576.43	2255.19
576.78	2251.98
577.13	2249.02
577.49	2246.15
577.84	2243.27
578.19	2239.74
578.54	2236.41
578.90	2232.84
579.25	2227.85
579.60	2223.53
579.95	2219.08
580.30	2214.54
580.66	2209.74
581.01	2205.19
581.36	2200.57
581.71	2196.90
582.06	2192.88
582.42	2188.88
582.77	2184.13
583.12	2179.66
583.47	2175.46
583.82	2170.83
584.17	2165.83
584.53	2160.75
584.88	2155.58
585.23	2150.06
585.58	2145.00
585.93	2139.92
586.28	2135.08
586.63	2130.18
586.98	2125.17
587.34	2120.54
587.69	2115.82
588.04	2110.85
588.39	2105.56
588.74	2099.30
589.09	2093.18
589.44	2086.80
589.79	2080.71
590.14	2075.15
590.49	2068.92
590.84	2062.68
591.19	2056.94
591.54	2050.83
591.89	2043.93
592.25	2037.45
592.60	2030.53
592.95	2023.32
593.30	2016.23
593.65	2008.90
594.00	2002.08
594.35	1995.05
594.70	1987.08
595.05	1980.24
595.40	1973.05
595.75	1965.69
596.10	1959.84
596.45	1953.40
596.80	1947.41
597.15	1941.11
597.50	1934.43
597.85	1928.08
598.19	1921.64
598.54	1914.92
598.89	1908.26
599.24	1902.42
599.59	1896.02
599.94	1889.66
600.29	1883.36
600.64	1876.69
600.99	1869.40
601.34	1862.79
601.69	1855.90
602.04	1849.44
602.39	1842.23
602.74	1835.62
603.08	1828.98
603.43	1822.18
603.78	1814.86
604.13	1807.63
604.48	1800.60
604.83	1793.71
605.18	1787.09
605.53	1779.12
605.87	1770.98
606.22	1763.71
606.57	1755.81
606.92	1748.32
607.27	1741.50
607.62	1734.58
607.96	1727.51
608.31	1721.21
608.66	1713.54
609.01	1706.11
609.36	1698.50
609.70	1690.44
610.05	1682.40
610.40	1674.74
610.75	1666.48
611.10	1658.83
611.44	1650.24
611.79	1642.01
612.14	1633.18
612.49	1623.88
612.83	1615.47
613.18	1607.33
613.53	1599.29
613.88	1590.69
614.22	1582.32
614.57	1573.54
614.92	1565.49
615.27	1558.06
615.61	1549.57
615.96	1541.50
616.31	1533.66
616.65	1526.19
617.00	1518.69
617.35	1510.84
617.70	1502.50
618.04	1494.00
618.39	1485.68
618.74	1478.24
619.08	1469.94
619.43	1462.36
619.78	1455.34
620.12	1448.20
620.47	1440.49
620.82	1432.15
621.16	1424.55
621.51	1416.86
621.85	1409.04
622.20	1400.51
622.55	1391.83
622.89	1383.79
623.24	1375.98
623.59	1368.46
623.93	1360.86
624.28	1353.46
624.62	1345.91
624.97	1338.71
625.32	1331.73
625.66	1324.60
626.01	1317.36
626.35	1309.98
626.70	1302.14
627.04	1294.40
627.39	1286.49
627.73	1279.08
628.08	1272.07
628.43	1264.84
628.77	1257.52
629.12	1249.99
629.46	1242.66
629.81	1235.12
630.15	1227.86
630.50	1220.51
630.84	1212.24
631.19	1204.23
631.53	1196.55
631.88	1188.88
632.22	1181.11
632.57	1173.72
632.91	1166.10
633.26	1158.54
633.60	1150.92
633.95	1143.63
634.29	1136.36
634.64	1129.59
634.98	1122.14
635.32	1115.06
635.67	1108.40
636.01	1101.63
636.36	1094.87
636.70	1088.25
637.05	1081.64
637.39	1075.15
637.73	1068.52
638.08	1062.58
638.42	1056.50
638.77	1050.03
639.11	1043.50
639.45	1037.03
639.80	1030.35
640.14	1024.00
640.49	1017.51
640.83	1011.12
641.17	1005.01
641.52	998.64
641.86	992.07
642.20	986.21
642.55	979.72
642.89	973.19
643.23	966.56
643.58	960.68
643.92	954.57
644.26	948.61
644.61	942.44
644.95	936.43
645.29	930.00
645.64	923.19
645.98	916.86
646.32	910.75
646.66	904.74
647.01	898.90
647.35	893.17
647.69	887.14
648.04	881.58
648.38	875.67
648.72	869.81
649.06	863.84
649.41	857.86
649.75	852.01
650.09	846.02
650.43	840.28
650.78	834.18
651.12	828.10
651.46	822.29
651.80	816.64
652.14	811.20
652.49	805.68
652.83	800.57
653.17	794.92
653.51	789.34
653.85	783.89
654.20	778.25
654.54	772.18
654.88	766.48
655.22	760.69
655.56	755.03
655.90	749.47
656.25	744.17
656.59	738.86
656.93	733.74
657.27	728.64
657.61	723.12
657.95	717.91
658.29	712.78
658.64	707.41
658.98	702.00
659.32	696.52
659.66	691.37
660.00	685.99
660.34	681.01
660.68	676.03
661.02	670.95
661.36	666.24
661.70	661.78
662.05	657.34
662.39	652.99
662.73	648.50
663.07	644.10
663.41	639.60
663.75	635.15
664.09	630.50
664.43	625.98
664.77	621.94
665.11	617.67
665.45	613.55
665.79	609.54
666.13	605.49
666.47	601.37
666.81	597.21
667.15	593.08
667.49	589.17
667.83	585.28
668.17	581.28
668.51	577.20
668.85	573.19
669.19	569.26
669.53	565.42
669.87	561.55
670.21	557.84
670.55	554.14
670.89	550.66
671.23	547.23
671.57	543.81
671.91	540.23
672.25	536.76
672.58	533.24
672.92	529.80
673.26	526.49
673.60	523.31
673.94	520.27
674.28	517.25
674.62	514.20
674.96	511.08
675.30	508.20
675.64	505.26
675.97	502.39
676.31	499.59
676.65	496.62
676.99	493.84
677.33	490.90
677.67	488.06
678.01	485.04
678.34	482.10
678.68	479.10
679.02	476.26
679.36	473.44
679.70	470.63
680.04	467.85
680.37	465.01
680.71	462.17
681.05	459.44
681.39	456.74
681.73	454.11
682.06	451.63
682.40	449.11
682.74	446.52
683.08	443.96
683.42	441.31
683.75	438.76
684.09	436.16
684.43	433.73
684.77	431.30
685.10	428.86
685.44	426.51
685.78	424.26
686.12	421.97
686.45	419.65
686.79	417.39
687.13	415.18
687.46	412.99
687.80	410.81
688.14	408.51
688.48	406.47
688.81	404.25
689.15	402.04
689.49	399.84
689.82	397.73
690.16	395.59
690.50	393.63
690.83	391.70
691.17	389.70
691.51	387.75
691.84	385.88
692.18	383.98
692.52	382.01
692.85	380.00
693.19	378.13
693.52	376.25
693.86	374.37
694.20	372.56
694.53	370.76
694.87	368.89
695.21	367.11
695.54	365.23
695.88	363.43
696.21	361.69
696.55	359.96
696.88	358.25
697.22	356.58
697.56	354.83
697.89	353.17
698.23	351.55
698.56	349.94
698.90	348.31
699.23	346.65
699.57	345.08
699.90	343.53
700.24	341.95
700.58	340.45
700.91	338.99
701.25	337.50
701.58	336.13
701.92	334.77
702.25	333.37
702.59	332.01
702.92	330.69
703.26	329.35
703.59	328.06
703.93	326.86
704.26	325.60
704.60	324.35
704.93	323.02
705.26	321.77
705.60	320.55
705.93	319.35
706.27	318.29
706.60	317.21
706.94	316.12
707.27	314.93
707.61	313.83
707.94	312.75
708.27	311.67
708.61	310.55
708.94	309.53
709.28	308.55
709.61	307.56
709.94	306.58
710.28	305.57
710.61	304.56
710.95	303.50
711.28	302.55
711.61	301.60
711.95	300.69
712.28	299.70
712.61	298.73
712.95	297.79
713.28	296.86
713.61	295.90
713.95	294.98
714.28	294.17
714.61	293.28
714.95	292.43
715.28	291.55
715.61	290.70
715.95	289.81
716.28	288.91
716.61	288.08
716.95	287.23
717.28	286.43
717.61	285.65
717.94	284.89
718.28	284.08
718.61	283.35
718.94	282.66
719.27	282.00
719.61	281.32
719.94	280.65
720.27	279.93
720.60	279.31
720.94	278.65
721.27	278.03
721.60	277.45
721.93	276.85
722.27	276.29
722.60	275.73
722.93	275.11
723.26	274.57
723.59	273.99
723.93	273.42
724.26	272.86
724.59	272.29
724.92	271.70
725.25	271.19
725.59	270.61
725.92	270.04
726.25	269.51
726.58	269.03
726.91	268.47
727.24	267.99
727.57	267.48
727.91	266.99
728.24	266.53
728.57	265.97
728.90	265.48
729.23	264.98
729.56	264.53
729.89	264.07
730.22	263.56
730.55	263.10
730.89	262.66
731.22	262.21
731.55	261.78
731.88	261.35
732.21	260.90
732.54	260.47
732.87	260.06
733.20	259.64
733.53	259.23
733.86	258.89
734.19	258.53
734.52	258.13
734.85	257.78
735.18	257.33
735.51	257.01
735.84	256.63
736.17	256.27
736.50	255.83
736.83	255.57
737.16	255.24
737.49	254.90
737.82	254.55
738.15	254.22
738.48	253.86
738.81	253.58
739.14	253.27
739.47	253.00
739.80	252.70
740.13	252.40
740.46	252.06
740.79	251.75
741.12	251.40
741.45	251.09
741.78	250.76
742.11	250.49
742.44	250.17
742.77	249.91
743.10	249.63
743.43	249.34
743.75	248.96
744.08	248.84
744.41	248.55
744.74	248.26
745.07	247.98
745.40	247.72
745.73	247.45
746.06	247.18
746.39	246.87
746.71	246.58
747.04	246.30
747.37	246.04
747.70	245.76
748.03	245.52
748.36	245.32
748.68	245.08
749.01	244.82
749.34	244.58
749.67	244.30
750.00	244.08
750.33	243.93
750.65	243.73
750.98	243.36
751.31	243.15
751.64	242.94
751.97	242.77
752.29	242.56
752.62	242.31
752.95	242.07
753.28	241.85
753.60	241.64
753.93	241.47
754.26	241.24
754.59	240.98
754.91	240.76
755.24	240.52
755.57	240.31
755.90	240.13
756.22	239.93
756.55	239.76
756.88	239.53
757.20	239.28
757.53	239.07
757.86	238.91
758.19	238.72
758.51	238.58
758.84	238.37
759.17	238.19
759.49	238.05
759.82	237.93
760.15	237.82
760.47	237.69
760.80	237.51
761.13	237.39
761.45	237.27
761.78	237.12
762.11	236.98
762.43	236.83
762.76	236.66
763.08	236.54
763.41	236.39
763.74	236.28
764.06	236.15
764.39	236.01
764.71	235.88
765.04	235.75
765.37	235.58
765.69	235.44
766.02	235.31
766.34	235.17
766.67	235.03
767.00	234.90
767.32	234.83
767.65	234.76
767.97	234.66
768.30	234.53
768.62	234.43
768.95	234.34
769.27	234.25
769.60	234.16
769.92	234.00
770.25	233.89
770.57	233.76
770.90	233.65
771.22	233.53
771.55	233.42
771.87	233.33
772.20	233.24
772.52	233.26
772.85	233.27
773.17	233.19
773.50	233.09
773.82	232.99
774.15	232.85
774.47	232.71
774.80	232.59
775.12	232.50
775.45	232.42
775.77	232.35
776.09	232.24
776.42	232.16
776.74	232.11
777.07	232.01
777.39	231.93
777.72	231.82
778.04	231.76
778.36	231.67
778.69	231.62
779.01	231.53
779.33	231.36
779.66	231.21
779.98	231.12
780.31	231.03
780.63	230.98
780.95	230.98
781.28	230.93
781.60	230.85
781.92	230.83
782.25	230.77
782.57	230.68
782.89	230.61
783.22	230.56
783.54	230.51
783.86	230.49
784.19	230.42
784.51	230.44
784.83	230.37
785.16	230.33
785.48	230.25
785.80	230.21
786.12	230.17
786.45	230.13
786.77	230.10
787.09	230.04
787.42	229.96
787.74	229.87
788.06	229.82
788.38	229.78
788.71	229.72
789.03	229.64
789.35	229.64
789.67	229.62
789.99	229.58
790.32	229.51
790.64	229.47
790.96	229.52
791.28	229.41
791.61	229.36
791.93	229.27
792.25	229.21
792.57	229.25
792.89	229.18
793.21	229.13
793.54	229.05
793.86	229.04
794.18	228.99
794.50	228.95
794.82	228.89
795.14	228.88
795.47	228.83
795.79	228.81
796.11	228.73
796.43	228.70
796.75	228.65
797.07	228.64
797.39	228.59
797.71	228.50
798.04	228.48
798.36	228.45
798.68	228.45
799.00	228.44
799.32	228.35
799.64	228.35
799.96	228.29
800.28	228.30
800.60	228.22
800.92	228.22
801.24	228.19
801.56	228.16
801.89	228.12
802.21	228.09
802.53	228.03
802.85	228.05
803.17	228.03
803.49	227.99
803.81	227.93
804.13	227.91
804.45	227.88
804.77	227.86
805.09	227.83
805.41	227.77
805.73	227.75
806.05	227.69
806.37	227.67
806.69	227.64
807.01	227.60
807.33	227.60
807.65	227.52
807.97	227.53
808.28	227.48
808.60	227.43
808.92	227.39
809.24	227.45
809.56	227.39
809.88	227.36
810.20	227.36
810.52	227.40
810.84	227.33
811.16	227.25
811.48	227.24
811.80	227.28
812.12	227.27
812.43	227.23
812.75	227.23
813.07	227.15
813.39	227.16
813.71	227.12
814.03	227.11
814.35	227.12
814.67	227.05
814.98	227.05
815.30	227.06
815.62	227.05
815.94	226.95
816.26	226.97
816.58	226.93
816.89	226.91
817.21	226.85
817.53	226.88
817.85	226.90
818.17	226.88
818.48	226.81
818.80	226.80
819.12	226.80
819.44	226.77
819.76	226.81
820.07	226.77
820.39	226.79
820.71	226.80
821.03	226.81
821.34	226.79
821.66	226.77
821.98	226.75
822.30	226.75
822.61	226.82
822.93	226.76
823.25	226.77
823.57	226.74
823.88	226.76
824.20	226.73
824.52	226.69
824.83	226.64
825.15	226.64
825.47	226.63
825.79	226.64
826.10	226.59
826.42	226.55
826.74	226.55
827.05	226.50
827.37	226.47
827.69	226.43
828.00	226.40
828.32	226.41
828.64	226.37
828.95	226.40
829.27	226.35
829.58	226.35
829.90	226.34
830.22	226.36
830.53	226.34
830.85	226.33
831.17	226.32
831.48	226.31
831.80	226.28
832.11	226.27
832.43	226.26
832.75	226.25
833.06	226.28
833.38	226.25
833.69	226.23
834.01	226.21
834.32	226.21
834.64	226.18
834.96	226.18
835.27	226.17
835.59	226.11
835.90	226.06
836.22	226.04
836.53	226.04
836.85	226.00
837.16	226.05
837.48	226.02
837.79	226.05
838.11	226.03
838.42	226.03
838.74	226.02
839.05	225.99
839.37	225.97
839.68	225.93
840.00	225.90
840.31	225.91
840.63	225.89
840.94	225.85
841.26	225.83
841.57	225.84
841.88	225.87
842.20	225.87
842.51	225.86
842.83	225.84
843.14	225.88
843.46	225.88
843.77	225.84
844.08	225.83
844.40	225.81
844.71	225.83
845.03	225.82
845.34	225.81
845.65	225.80
845.97	225.82
846.28	225.84
846.60	225.88
846.91	225.84
847.22	225.83
847.54	225.83
847.85	225.85
848.16	225.81
848.48	225.78
848.79	225.78
849.10	225.80
849.42	225.79
849.73	225.69
850.04	225.67
850.36	225.62
850.67	225.66
850.98	225.65
851.30	225.69
851.61	225.68
851.92	225.69
852.23	225.74
852.55	225.76
852.86	225.73
853.17	225.74
853.49	225.78
853.80	225.82
854.11	225.86
854.42	225.87
854.74	225.87
855.05	225.91
855.36	225.89
855.67	225.90
855.99	225.93
856.30	226.06
856.61	226.06
856.92	226.08
857.23	226.05
857.55	226.04
857.86	225.98
858.17	225.99
858.48	225.98
858.79	225.99
859.11	226.01
859.42	226.02
859.73	225.99
860.04	225.99
860.35	225.96
860.66	225.93
860.98	225.92
861.29	225.94
861.60	225.92
861.91	225.93
862.22	225.92
862.53	225.91
862.84	225.79
863.16	225.82
863.47	225.80
863.78	225.80
864.09	225.82
864.40	225.83
864.71	225.83
865.02	225.84
865.33	225.79
865.64	225.77
865.95	225.76
866.27	225.85
866.58	225.82
866.89	225.86
867.20	225.85
867.51	225.84
867.82	225.80
868.13	225.82
868.44	225.82
868.75	225.81
869.06	225.80
869.37	225.78
869.68	225.76
869.99	225.74
870.30	225.73
870.61	225.71
870.92	225.73
871.23	225.70
871.54	225.68
871.85	225.71
872.16	225.68
872.47	225.66
872.78	225.57
873.09	225.60
873.40	225.53
873.71	225.50
874.02	225.50
874.33	225.49
874.64	225.46
874.95	225.40
875.26	225.41
875.56	225.37
875.87	225.38
876.18	225.36
876.49	225.44
876.80	225.46
877.11	225.42
877.42	225.36
877.73	225.36
878.04	225.35
878.35	225.29
878.66	225.29
878.96	225.24
879.27	225.24
879.58	225.19
879.89	225.16
880.20	225.19
880.51	225.15
880.82	225.13
881.12	225.12
881.43	225.12
881.74	225.09
882.05	225.09
882.36	225.08
882.67	225.06
882.97	224.94
883.28	224.91
883.59	224.93
883.90	224.92
884.21	224.93
884.51	224.91
884.82	224.90
885.13	224.87
885.44	224.89
885.74	224.87
886.05	224.86
886.36	224.90
886.67	224.87
886.98	224.96
887.28	224.97
887.59	224.96
887.90	224.97
888.20	224.96
888.51	224.96
888.82	224.95
889.13	224.97
889.43	225.04
889.74	225.05
890.05	225.06
890.35	225.09
890.66	225.08
890.97	225.08
891.28	225.09
891.58	225.12
891.89	225.13
892.20	225.13
892.50	225.15
892.81	225.12
893.12	225.10
893.42	225.03
893.73	225.02
894.04	225.02
894.34	225.01
894.65	225.01
894.95	225.02
895.26	225.03
895.57	225.08
895.87	225.00
896.18	225.00
896.48	224.99
896.79	225.00
897.10	224.98
897.40	224.99
897.71	225.01
898.01	225.00
898.32	224.99
898.63	225.00
898.93	225.00
899.24	225.03
899.54	225.04
899.85	225.05
900.15	225.06
900.46	225.07
900.76	225.10
901.07	225.11
901.38	225.11
901.68	225.13
901.99	225.07
902.29	225.08
902.60	225.09
902.90	225.10
903.21	225.06
903.51	225.09
903.82	225.10
904.12	225.10
904.43	225.11
904.73	225.11
905.03	225.10
905.34	225.19
905.64	225.17
905.95	225.15
906.25	225.15
906.56	225.16
906.86	225.18
907.17	225.15
907.47	225.16
907.77	225.13
908.08	225.12
908.38	225.09
908.69	225.11
908.99	225.15
909.30	225.15
909.60	225.17
909.90	225.15
910.21	225.13
910.51	225.10
910.81	225.09
911.12	225.08
911.42	225.07
911.73	224.94
912.03	224.96
912.33	224.97
912.64	224.95
912.94	224.94
913.24	224.90
913.55	224.92
913.85	224.91
914.15	224.93
914.46	224.90
914.76	224.89
915.06	224.88
915.37	224.81
915.67	224.78
915.97	224.78
916.27	224.78
916.58	224.78
916.88	224.78
917.18	224.76
917.49	224.84
917.79	224.86
918.09	224.87
918.39	224.91
918.70	224.90
919.00	224.93
919.30	224.96
919.60	224.96
919.91	224.92
920.21	224.90
920.51	224.87
920.81	224.88
921.12	224.91
921.42	224.90
921.72	224.91
922.02	224.93
922.32	224.96
922.63	224.95
922.93	224.99
923.23	224.99
923.53	224.97
923.83	224.89
924.13	224.87
924.44	224.91
924.74	224.91
925.04	224.96
925.34	224.92
925.64	224.88
925.94	224.91
926.24	225.00
926.55	225.01
926.85	225.05
927.15	225.04
927.45	225.02
927.75	225.00
928.05	225.01
928.35	225.01
928.65	225.00
928.95	225.02
929.26	224.97
929.56	225.02
929.86	225.05
930.16	225.06
930.46	225.06
930.76	225.06
931.06	224.98
931.36	224.91
931.66	224.95
931.96	224.99
932.26	224.95
932.56	224.91
932.86	224.92
933.16	224.90
933.46	224.90
933.76	224.92
934.06	224.96
934.36	225.02
934.66	225.02
934.96	224.99
935.26	224.97
935.56	225.02
935.86	224.98
936.16	224.96
936.46	224.96
936.76	224.96
937.06	224.95
937.36	224.96
937.66	224.98
937.96	224.99
938.26	224.96
938.56	224.97
938.86	225.02
939.16	225.03
939.46	225.03
939.76	225.06
940.06	225.06
940.35	225.06
940.65	224.98
940.95	224.99
941.25	224.99
941.55	224.99
941.85	224.98
942.15	225.01
942.45	225.01
942.75	224.99
943.04	225.01
943.34	225.00
943.64	225.02
943.94	225.01
944.24	225.01
944.54	225.01
944.84	225.02
945.13	224.95
945.43	224.94
945.73	224.94
946.03	224.92
946.33	224.90
946.62	224.88
946.92	224.89
947.22	224.89
947.52	224.91
947.82	224.93
948.11	224.93
948.41	224.91
948.71	224.91
949.01	224.93
949.31	224.92
949.60	224.92
949.90	224.93
950.20	224.89
950.50	224.89
950.79	224.88
951.09	224.90
951.39	224.90
951.69	224.89
951.98	224.91
952.28	224.93
952.58	224.93
952.87	224.95
953.17	224.95
953.47	224.91
953.76	224.88
954.06	224.85
954.36	224.82
954.66	224.81
954.95	224.84
955.25	224.84
955.55	224.84
955.84	224.80
956.14	224.80
956.44	224.82
956.73	224.78
957.03	224.78
957.32	224.76
957.62	224.73
957.92	224.74
958.21	224.71
958.51	224.79
958.81	224.79
959.10	224.80
959.40	224.82
959.69	224.84
959.99	224.86
960.29	224.91
960.58	224.92
960.88	224.92
961.17	224.89
961.47	224.88
961.76	224.86
962.06	224.90
962.36	224.91
962.65	224.93
962.95	224.94
963.24	224.92
963.54	224.89
963.83	224.92
964.13	224.92
964.42	224.92
964.72	224.85
965.01	224.82
965.31	224.78
965.60	224.73
965.90	224.81
966.19	224.77
966.49	224.73
966.78	224.69
967.08	224.74
967.37	224.79
967.67	224.78
967.96	224.77
968.26	224.76
968.55	224.74
968.85	224.76
969.14	224.75
969.43	224.76
969.73	224.78
970.02	224.77
970.32	224.75
970.61	224.76
970.91	224.73
971.20	224.77
971.49	224.80
971.79	224.82
972.08	224.77
972.38	224.80
972.67	224.80
972.96	224.85
973.26	224.80
973.55	224.81
973.85	224.80
974.14	224.82
974.43	224.85
974.73	224.85
975.02	224.81
975.31	224.81
975.61	224.80
975.90	224.82
976.19	224.82
976.49	224.82
976.78	224.83
977.07	224.83
977.37	224.85
977.66	224.87
977.95	224.87
978.24	224.87
978.54	224.90
978.83	224.89
979.12	224.87
979.42	224.89
979.71	224.89
980.00	224.92
980.29	224.98
980.59	224.97
980.88	224.96
981.17	224.96
981.46	224.97
981.76	225.00
982.05	225.01
982.34	225.04
982.63	225.05
982.93	225.04
983.22	225.09
983.51	225.10
983.80	225.09
984.09	225.09
984.39	225.11
984.68	225.08
984.97	225.10
985.26	225.10
985.55	225.11
985.85	225.09
986.14	225.11
986.43	225.10
986.72	225.11
987.01	225.13
987.30	225.14
987.59	225.15
987.89	225.17
988.18	225.14
988.47	225.12
988.76	225.14
989.05	225.12
989.34	225.11
989.63	225.12
989.92	225.13
990.22	225.12
990.51	225.08
990.80	225.09
991.09	225.08
991.38	225.09
991.67	225.04
991.96	225.02
992.25	224.98
992.54	224.96
992.83	224.93
993.12	224.94
993.41	224.94
993.70	224.96
993.99	224.95
994.28	224.96
994.58	224.97
994.87	224.96
995.16	224.99
995.45	224.95
995.74	224.92
996.03	224.92
996.32	224.95
996.61	225.00
996.90	224.98
997.19	224.99
997.48	224.96
997.77	225.02
998.06	225.05
998.34	225.05
998.63	225.04
998.92	225.00
999.21	225.01
999.50	225.01
999.79	225.01
1000.08	225.01
1000.37	225.02
1000.66	225.01
1000.95	225.01
1001.24	225.00
1001.53	225.04
1001.82	225.05
1002.11	225.01
1002.40	225.00
1002.68	225.02
1002.97	225.06
1003.26	225.03
1003.55	225.02
1003.84	224.97
1004.13	224.97
1004.42	225.00
1004.71	224.98
1004.99	225.00
1005.28	225.01
1005.57	225.01
1005.86	225.00
1006.15	225.00
1006.44	224.96
1006.72	224.98
1007.01	224.98
1007.30	224.96
1007.59	224.94
1007.88	224.91
1008.17	224.91
1008.45	224.90
1008.74	224.83
1009.03	224.82
1009.32	224.83
1009.60	224.80
1009.89	224.82
1010.18	224.77
1010.47	224.73
1010.76	224.73
1011.04	224.77
1011.33	224.75
1011.62	224.77
1011.91	224.77
1012.19	224.78
1012.48	224.78
1012.77	224.77
1013.05	224.82
1013.34	224.82
1013.63	224.77
1013.92	224.80
1014.20	224.83
1014.49	224.83
1014.78	224.87
1015.06	224.85
1015.35	224.84
1015.64	224.88
1015.92	224.90
1016.21	224.94
1016.50	224.96
1016.78	225.00
1017.07	224.99
1017.36	224.97
1017.64	224.96
1017.93	224.94
1018.22	224.93
1018.50	224.95
1018.79	224.95
1019.08	224.88
1019.36	224.92
1019.65	224.95
1019.93	225.00
1020.22	224.98
1020.51	225.05
1020.79	225.04
1021.08	224.67
1021.36	225.06
1021.65	225.01
1021.94	224.77
1022.22	225.26
1022.51	224.83
1022.79	225.83
1023.08	224.90
1023.36	226.63
1023.65	224.99
>>>>>End Processed Spectral Data<<<<<
