SpectraSuite Data File
++++++++++++++++++++++++++++++++++++
Date: Fri Feb 01 16:33:26 EST 2013
User: group
Dark Spectrum Present: No
Reference Spectrum Present: No
Number of Sampled Component Spectra: 1
Spectrometers: USB2E7196
Integration Time (usec): 35000 (USB2E7196)
Spectra Averaged: 100 (USB2E7196)
Boxcar Smoothing: 10 (USB2E7196)
Correct for Electrical Dark: No (USB2E7196)
Strobe/Lamp Enabled: No (USB2E7196)
Correct for Detector Non-linearity: No (USB2E7196)
Correct for Stray Light: No (USB2E7196)
Number of Pixels in Processed Spectrum: 2048
>>>>>Begin Processed Spectral Data<<<<<
339.09	0.00
339.48	214.07
339.86	215.74
340.24	216.99
340.63	218.54
341.01	221.37
341.39	220.89
341.78	222.71
342.16	223.76
342.54	224.40
342.93	212.61
343.31	223.35
343.69	223.91
344.07	224.39
344.46	224.84
344.84	225.22
345.22	225.43
345.60	225.72
345.99	225.89
346.37	225.99
346.75	226.10
347.13	226.20
347.52	226.26
347.90	226.33
348.28	226.35
348.66	226.40
349.05	226.39
349.43	226.41
349.81	226.47
350.19	226.52
350.57	226.58
350.96	226.65
351.34	226.74
351.72	226.80
352.10	226.87
352.48	226.94
352.87	227.00
353.25	227.08
353.63	227.13
354.01	227.21
354.39	227.33
354.77	227.36
355.15	227.43
355.54	227.51
355.92	227.54
356.30	227.62
356.68	227.74
357.06	227.80
357.44	227.86
357.82	227.91
358.20	227.97
358.58	228.00
358.97	228.05
359.35	228.13
359.73	228.20
360.11	228.25
360.49	228.27
360.87	228.31
361.25	228.36
361.63	228.41
362.01	228.43
362.39	228.45
362.77	228.50
363.15	228.50
363.53	228.48
363.91	228.52
364.29	228.51
364.67	228.41
365.05	228.45
365.43	228.46
365.81	228.47
366.19	228.49
366.57	228.54
366.95	228.54
367.33	228.47
367.71	228.44
368.09	228.44
368.47	228.42
368.85	228.36
369.23	228.38
369.61	228.29
369.99	228.29
370.37	228.24
370.75	228.26
371.13	228.19
371.51	228.15
371.89	228.10
372.27	228.08
372.65	228.03
373.03	227.94
373.41	227.87
373.78	227.80
374.16	227.73
374.54	227.63
374.92	227.56
375.30	227.55
375.68	227.47
376.06	227.42
376.44	227.33
376.82	227.29
377.19	227.20
377.57	227.15
377.95	227.06
378.33	227.00
378.71	226.88
379.09	226.83
379.47	226.80
379.84	226.74
380.22	226.65
380.60	226.59
380.98	226.56
381.36	226.49
381.73	226.43
382.11	226.36
382.49	226.33
382.87	226.23
383.25	226.14
383.62	226.22
384.00	226.16
384.38	226.12
384.76	226.07
385.13	226.05
385.51	225.99
385.89	225.94
386.27	225.88
386.64	225.87
387.02	225.83
387.40	225.79
387.78	225.71
388.15	225.70
388.53	225.70
388.91	225.70
389.29	225.68
389.66	225.68
390.04	225.61
390.42	225.60
390.79	225.63
391.17	225.64
391.55	225.52
391.92	225.49
392.30	225.47
392.68	225.48
393.05	225.44
393.43	225.45
393.81	225.43
394.18	225.42
394.56	225.43
394.94	225.50
395.31	225.48
395.69	225.57
396.06	225.56
396.44	225.59
396.82	225.59
397.19	225.66
397.57	225.67
397.95	225.76
398.32	225.76
398.70	225.80
399.07	225.88
399.45	225.93
399.82	225.98
400.20	226.05
400.58	226.11
400.95	226.17
401.33	226.25
401.70	226.41
402.08	226.50
402.45	226.56
402.83	226.64
403.20	226.74
403.58	226.80
403.95	226.95
404.33	227.06
404.71	227.17
405.08	227.36
405.46	227.45
405.83	227.57
406.21	227.72
406.58	227.86
406.96	227.97
407.33	228.14
407.70	228.31
408.08	228.57
408.45	228.78
408.83	229.02
409.20	229.25
409.58	229.43
409.95	229.68
410.33	229.96
410.70	230.19
411.08	230.49
411.45	230.79
411.82	231.07
412.20	231.41
412.57	231.82
412.95	232.11
413.32	232.54
413.69	232.97
414.07	233.41
414.44	233.87
414.82	234.35
415.19	234.92
415.56	235.49
415.94	236.02
416.31	236.65
416.68	237.30
417.06	238.03
417.43	238.68
417.81	239.48
418.18	240.24
418.55	241.13
418.93	242.00
419.30	242.91
419.67	243.87
420.04	244.86
420.42	245.85
420.79	247.02
421.16	248.19
421.54	249.35
421.91	250.56
422.28	251.81
422.66	253.16
423.03	254.47
423.40	255.80
423.77	257.25
424.15	258.67
424.52	260.14
424.89	261.73
425.26	263.31
425.64	264.74
426.01	266.35
426.38	267.98
426.75	269.67
427.13	271.40
427.50	273.20
427.87	275.03
428.24	276.89
428.61	278.63
428.99	280.58
429.36	282.70
429.73	284.78
430.10	286.82
430.47	288.87
430.85	290.95
431.22	293.16
431.59	295.51
431.96	297.74
432.33	300.22
432.70	302.58
433.08	305.38
433.45	308.02
433.82	310.63
434.19	313.51
434.56	316.27
434.93	318.88
435.30	321.47
435.68	324.39
436.05	327.18
436.42	329.94
436.79	332.46
437.16	335.15
437.53	337.95
437.90	340.73
438.27	343.46
438.64	346.29
439.01	348.88
439.38	351.08
439.75	353.24
440.13	355.73
440.50	358.03
440.87	359.87
441.24	361.81
441.61	363.91
441.98	365.36
442.35	367.15
442.72	369.04
443.09	370.81
443.46	371.77
443.83	372.36
444.20	372.81
444.57	373.60
444.94	373.84
445.31	374.17
445.68	374.51
446.05	374.56
446.42	374.15
446.79	373.71
447.16	373.27
447.53	372.92
447.90	371.71
448.27	370.55
448.64	368.96
449.01	367.77
449.37	365.80
449.74	363.92
450.11	361.63
450.48	359.14
450.85	356.63
451.22	354.45
451.59	352.40
451.96	350.48
452.33	347.88
452.70	345.56
453.07	342.72
453.43	339.78
453.80	337.02
454.17	334.38
454.54	331.87
454.91	329.16
455.28	326.53
455.65	324.07
456.02	321.63
456.38	319.48
456.75	316.85
457.12	314.61
457.49	312.38
457.86	310.24
458.23	308.38
458.59	306.34
458.96	304.29
459.33	302.47
459.70	300.66
460.07	299.16
460.43	297.44
460.80	295.83
461.17	294.45
461.54	292.98
461.91	291.56
462.27	290.10
462.64	288.86
463.01	287.49
463.38	286.23
463.74	284.90
464.11	283.76
464.48	282.74
464.85	281.67
465.21	280.86
465.58	279.97
465.95	278.90
466.32	278.02
466.68	277.14
467.05	276.27
467.42	275.40
467.78	274.52
468.15	273.68
468.52	273.03
468.88	272.21
469.25	271.49
469.62	270.89
469.98	270.23
470.35	269.64
470.72	269.05
471.08	268.39
471.45	267.85
471.82	267.35
472.18	266.77
472.55	266.35
472.92	265.83
473.28	265.40
473.65	264.96
474.02	264.59
474.38	264.25
474.75	263.98
475.11	263.62
475.48	263.37
475.85	263.14
476.21	262.96
476.58	262.78
476.94	262.60
477.31	262.45
477.67	262.29
478.04	262.19
478.41	262.14
478.77	262.22
479.14	262.19
479.50	262.15
479.87	262.26
480.23	262.32
480.60	262.41
480.96	262.49
481.33	262.74
481.69	262.90
482.06	263.08
482.42	263.21
482.79	263.48
483.15	263.79
483.52	264.16
483.88	264.45
484.25	264.81
484.61	265.25
484.98	265.68
485.34	266.28
485.71	266.85
486.07	267.45
486.44	267.97
486.80	268.63
487.17	269.37
487.53	270.12
487.90	270.98
488.26	271.90
488.62	272.87
488.99	273.83
489.35	274.88
489.72	276.02
490.08	277.24
490.44	278.49
490.81	279.83
491.17	281.18
491.54	282.70
491.90	284.27
492.26	285.93
492.63	287.66
492.99	289.42
493.36	291.33
493.72	293.38
494.08	295.51
494.45	297.80
494.81	300.16
495.17	302.63
495.54	305.18
495.90	307.88
496.26	310.70
496.63	313.68
496.99	316.81
497.35	320.04
497.72	323.51
498.08	327.04
498.44	330.73
498.80	334.64
499.17	338.71
499.53	342.89
499.89	347.29
500.26	351.86
500.62	356.58
500.98	361.55
501.34	366.65
501.71	372.00
502.07	377.45
502.43	383.08
502.79	388.94
503.16	395.02
503.52	401.31
503.88	407.76
504.24	414.43
504.60	421.32
504.97	428.53
505.33	435.84
505.69	443.64
506.05	451.45
506.41	459.40
506.78	467.55
507.14	476.06
507.50	484.83
507.86	493.84
508.22	503.12
508.59	512.33
508.95	521.92
509.31	531.81
509.67	541.88
510.03	552.23
510.39	562.78
510.75	573.53
511.12	584.44
511.48	595.75
511.84	607.17
512.20	618.70
512.56	630.65
512.92	642.77
513.28	655.04
513.64	667.53
514.00	680.24
514.37	693.13
514.73	706.13
515.09	719.14
515.45	732.43
515.81	745.87
516.17	759.86
516.53	773.91
516.89	788.08
517.25	802.21
517.61	816.61
517.97	831.01
518.33	845.49
518.69	860.28
519.05	875.11
519.41	890.19
519.77	905.61
520.13	920.95
520.49	936.31
520.85	951.67
521.21	967.27
521.57	983.41
521.93	999.18
522.29	1015.50
522.65	1031.69
523.01	1047.77
523.37	1063.83
523.73	1079.80
524.09	1095.97
524.45	1112.14
524.81	1128.75
525.17	1145.45
525.53	1162.29
525.89	1179.11
526.25	1195.89
526.61	1212.37
526.97	1229.06
527.33	1245.55
527.68	1262.06
528.04	1278.44
528.40	1294.92
528.76	1311.86
529.12	1328.38
529.48	1345.11
529.84	1361.04
530.20	1377.49
530.56	1394.34
530.91	1411.54
531.27	1428.20
531.63	1444.39
531.99	1460.88
532.35	1476.71
532.71	1492.50
533.07	1508.74
533.42	1524.41
533.78	1540.30
534.14	1556.36
534.50	1571.57
534.86	1587.21
535.21	1602.22
535.57	1618.00
535.93	1633.34
536.29	1647.90
536.65	1662.81
537.00	1677.43
537.36	1692.63
537.72	1706.98
538.08	1721.20
538.44	1734.75
538.79	1748.44
539.15	1761.87
539.51	1775.42
539.87	1789.64
540.22	1803.05
540.58	1816.46
540.94	1829.58
541.29	1842.09
541.65	1854.47
542.01	1867.58
542.37	1879.80
542.72	1892.17
543.08	1903.76
543.44	1916.00
543.79	1927.26
544.15	1938.06
544.51	1949.59
544.87	1960.39
545.22	1971.26
545.58	1981.65
545.94	1991.56
546.29	2001.48
546.65	2011.42
547.01	2020.62
547.36	2029.44
547.72	2038.02
548.07	2045.95
548.43	2054.19
548.79	2062.20
549.14	2069.88
549.50	2077.19
549.86	2084.96
550.21	2092.29
550.57	2099.55
550.92	2106.15
551.28	2113.27
551.64	2120.42
551.99	2126.93
552.35	2133.10
552.70	2139.18
553.06	2144.91
553.41	2151.15
553.77	2157.21
554.13	2163.17
554.48	2169.31
554.84	2174.69
555.19	2179.99
555.55	2185.17
555.90	2189.74
556.26	2194.86
556.61	2199.60
556.97	2203.88
557.32	2207.82
557.68	2211.79
558.03	2216.09
558.39	2219.83
558.74	2224.46
559.10	2228.27
559.45	2231.92
559.81	2236.08
560.16	2239.94
560.52	2243.32
560.87	2246.75
561.23	2249.43
561.58	2252.50
561.94	2255.08
562.29	2257.22
562.64	2259.88
563.00	2262.44
563.35	2265.90
563.71	2269.07
564.06	2272.19
564.42	2275.22
564.77	2277.93
565.12	2280.50
565.48	2282.50
565.83	2284.37
566.19	2285.79
566.54	2286.61
566.89	2287.88
567.25	2288.64
567.60	2289.90
567.96	2291.70
568.31	2292.59
568.66	2293.81
569.02	2294.42
569.37	2294.93
569.72	2296.04
570.08	2296.44
570.43	2296.61
570.78	2296.06
571.14	2294.49
571.49	2293.08
571.84	2292.69
572.20	2291.69
572.55	2290.63
572.90	2288.99
573.26	2287.84
573.61	2285.95
573.96	2284.38
574.31	2281.39
574.67	2278.52
575.02	2275.04
575.37	2271.65
575.72	2268.03
576.08	2264.59
576.43	2261.25
576.78	2257.52
577.13	2254.33
577.49	2251.12
577.84	2247.59
578.19	2243.89
578.54	2240.34
578.90	2236.33
579.25	2230.92
579.60	2225.86
579.95	2220.81
580.30	2215.83
580.66	2210.52
581.01	2205.72
581.36	2200.97
581.71	2196.79
582.06	2192.41
582.42	2188.05
582.77	2182.92
583.12	2178.41
583.47	2173.88
583.82	2169.05
584.17	2163.83
584.53	2158.41
584.88	2152.80
585.23	2147.25
585.58	2141.87
585.93	2136.41
586.28	2131.72
586.63	2126.63
586.98	2121.70
587.34	2117.07
587.69	2112.32
588.04	2107.26
588.39	2101.63
588.74	2095.08
589.09	2089.15
589.44	2082.53
589.79	2076.42
590.14	2070.85
590.49	2064.19
590.84	2057.85
591.19	2051.80
591.54	2045.39
591.89	2038.26
592.25	2031.68
592.60	2024.35
592.95	2016.96
593.30	2009.78
593.65	2002.30
594.00	1995.21
594.35	1987.93
594.70	1980.03
595.05	1972.99
595.40	1965.68
595.75	1958.32
596.10	1952.37
596.45	1945.64
596.80	1939.39
597.15	1932.93
597.50	1925.98
597.85	1919.67
598.19	1913.04
598.54	1906.01
598.89	1899.51
599.24	1893.53
599.59	1886.80
599.94	1880.73
600.29	1874.35
600.64	1867.83
600.99	1860.35
601.34	1853.63
601.69	1846.73
602.04	1839.76
602.39	1832.30
602.74	1825.50
603.08	1818.71
603.43	1811.97
603.78	1804.66
604.13	1797.57
604.48	1790.29
604.83	1783.29
605.18	1776.38
605.53	1768.49
605.87	1760.49
606.22	1752.94
606.57	1744.98
606.92	1737.52
607.27	1730.25
607.62	1723.21
607.96	1715.83
608.31	1709.36
608.66	1701.70
609.01	1694.28
609.36	1686.83
609.70	1678.87
610.05	1670.92
610.40	1663.21
610.75	1654.71
611.10	1646.92
611.44	1638.30
611.79	1630.27
612.14	1621.59
612.49	1612.30
612.83	1603.86
613.18	1595.92
613.53	1588.09
613.88	1579.64
614.22	1571.41
614.57	1562.79
614.92	1555.01
615.27	1547.58
615.61	1539.19
615.96	1531.26
616.31	1523.52
616.65	1516.14
617.00	1508.71
617.35	1500.99
617.70	1492.70
618.04	1484.34
618.39	1476.29
618.74	1468.86
619.08	1460.61
619.43	1453.11
619.78	1446.22
620.12	1439.15
620.47	1431.53
620.82	1423.31
621.16	1415.87
621.51	1408.41
621.85	1400.86
622.20	1392.27
622.55	1383.90
622.89	1376.06
623.24	1368.41
623.59	1361.04
623.93	1353.54
624.28	1346.23
624.62	1338.76
624.97	1331.52
625.32	1324.75
625.66	1317.60
626.01	1310.52
626.35	1303.12
626.70	1295.37
627.04	1287.73
627.39	1279.89
627.73	1272.45
628.08	1265.61
628.43	1258.34
628.77	1250.96
629.12	1243.47
629.46	1236.34
629.81	1228.86
630.15	1221.61
630.50	1214.28
630.84	1206.07
631.19	1198.13
631.53	1190.63
631.88	1183.01
632.22	1175.49
632.57	1168.16
632.91	1160.70
633.26	1153.16
633.60	1145.67
633.95	1138.50
634.29	1131.40
634.64	1124.65
634.98	1117.30
635.32	1110.17
635.67	1103.45
636.01	1096.75
636.36	1089.90
636.70	1083.27
637.05	1076.77
637.39	1070.33
637.73	1063.85
638.08	1057.99
638.42	1051.95
638.77	1045.50
639.11	1039.00
639.45	1032.67
639.80	1026.03
640.14	1019.66
640.49	1013.19
640.83	1006.91
641.17	1000.68
641.52	994.40
641.86	987.93
642.20	982.12
642.55	975.75
642.89	969.33
643.23	962.74
643.58	956.99
643.92	950.86
644.26	944.77
644.61	938.67
644.95	932.65
645.29	926.11
645.64	919.46
645.98	913.13
646.32	907.19
646.66	901.06
647.01	895.28
647.35	889.52
647.69	883.57
648.04	878.02
648.38	872.29
648.72	866.37
649.06	860.32
649.41	854.39
649.75	848.40
650.09	842.45
650.43	836.75
650.78	830.63
651.12	824.68
651.46	818.99
651.80	813.35
652.14	807.95
652.49	802.54
652.83	797.36
653.17	791.68
653.51	785.95
653.85	780.54
654.20	774.92
654.54	768.91
654.88	763.19
655.22	757.27
655.56	751.56
655.90	746.02
656.25	740.80
656.59	735.41
656.93	730.37
657.27	725.23
657.61	719.76
657.95	714.57
658.29	709.43
658.64	704.05
658.98	698.70
659.32	693.17
659.66	687.88
660.00	682.54
660.34	677.61
660.68	672.68
661.02	667.65
661.36	662.89
661.70	658.41
662.05	654.15
662.39	649.82
662.73	645.36
663.07	640.99
663.41	636.53
663.75	632.10
664.09	627.47
664.43	623.10
664.77	618.99
665.11	614.85
665.45	610.72
665.79	606.70
666.13	602.51
666.47	598.41
666.81	594.26
667.15	590.15
667.49	586.15
667.83	582.27
668.17	578.31
668.51	574.27
668.85	570.19
669.19	566.23
669.53	562.42
669.87	558.51
670.21	554.84
670.55	551.18
670.89	547.68
671.23	544.28
671.57	540.76
671.91	537.19
672.25	533.62
672.58	530.14
672.92	526.75
673.26	523.59
673.60	520.45
673.94	517.41
674.28	514.45
674.62	511.55
674.96	508.53
675.30	505.64
675.64	502.69
675.97	499.96
676.31	497.05
676.65	494.13
676.99	491.46
677.33	488.51
677.67	485.71
678.01	482.68
678.34	479.72
678.68	476.83
679.02	474.03
679.36	471.27
679.70	468.46
680.04	465.72
680.37	462.86
680.71	460.10
681.05	457.48
681.39	454.73
681.73	452.08
682.06	449.52
682.40	446.97
682.74	444.41
683.08	441.83
683.42	439.28
683.75	436.76
684.09	434.18
684.43	431.72
684.77	429.24
685.10	426.91
685.44	424.55
685.78	422.21
686.12	419.94
686.45	417.66
686.79	415.41
687.13	413.22
687.46	411.12
687.80	408.91
688.14	406.66
688.48	404.64
688.81	402.38
689.15	400.23
689.49	398.15
689.82	396.08
690.16	393.97
690.50	392.01
690.83	390.13
691.17	388.14
691.51	386.26
691.84	384.39
692.18	382.49
692.52	380.52
692.85	378.56
693.19	376.73
693.52	374.89
693.86	373.05
694.20	371.22
694.53	369.41
694.87	367.52
695.21	365.73
695.54	363.92
695.88	362.19
696.21	360.47
696.55	358.75
696.88	357.04
697.22	355.41
697.56	353.79
697.89	352.14
698.23	350.56
698.56	348.96
698.90	347.41
699.23	345.75
699.57	344.20
699.90	342.67
700.24	341.11
700.58	339.55
700.91	338.06
701.25	336.61
701.58	335.17
701.92	333.87
702.25	332.52
702.59	331.16
702.92	329.85
703.26	328.54
703.59	327.22
703.93	326.10
704.26	324.86
704.60	323.56
704.93	322.27
705.26	321.00
705.60	319.79
705.93	318.61
706.27	317.60
706.60	316.53
706.94	315.46
707.27	314.29
707.61	313.28
707.94	312.26
708.27	311.16
708.61	310.12
708.94	309.09
709.28	308.08
709.61	307.09
709.94	306.11
710.28	305.03
710.61	304.04
710.95	302.94
711.28	301.98
711.61	301.03
711.95	300.11
712.28	299.16
712.61	298.19
712.95	297.27
713.28	296.40
713.61	295.52
713.95	294.68
714.28	293.86
714.61	292.94
714.95	292.10
715.28	291.27
715.61	290.36
715.95	289.47
716.28	288.61
716.61	287.78
716.95	286.95
717.28	286.22
717.61	285.46
717.94	284.73
718.28	283.91
718.61	283.19
718.94	282.47
719.27	281.82
719.61	281.13
719.94	280.49
720.27	279.74
720.60	279.09
720.94	278.44
721.27	277.85
721.60	277.33
721.93	276.74
722.27	276.18
722.60	275.67
722.93	275.14
723.26	274.62
723.59	274.08
723.93	273.56
724.26	273.02
724.59	272.48
724.92	271.96
725.25	271.49
725.59	270.99
725.92	270.50
726.25	269.99
726.58	269.54
726.91	269.01
727.24	268.57
727.57	268.11
727.91	267.59
728.24	267.12
728.57	266.61
728.90	266.19
729.23	265.70
729.56	265.25
729.89	264.81
730.22	264.29
730.55	263.82
730.89	263.36
731.22	262.93
731.55	262.51
731.88	262.10
732.21	261.67
732.54	261.24
732.87	260.84
733.20	260.42
733.53	260.00
733.86	259.63
734.19	259.23
734.52	258.81
734.85	258.49
735.18	258.08
735.51	257.72
735.84	257.32
736.17	256.98
736.50	256.59
736.83	256.33
737.16	256.03
737.49	255.71
737.82	255.38
738.15	255.06
738.48	254.71
738.81	254.34
739.14	254.04
739.47	253.70
739.80	253.34
740.13	253.05
740.46	252.75
740.79	252.40
741.12	252.05
741.45	251.75
741.78	251.40
742.11	251.11
742.44	250.80
742.77	250.50
743.10	250.20
743.43	249.87
743.75	249.47
744.08	249.30
744.41	248.98
744.74	248.69
745.07	248.42
745.40	248.16
745.73	247.92
746.06	247.63
746.39	247.36
746.71	247.13
747.04	246.83
747.37	246.57
747.70	246.31
748.03	246.11
748.36	245.89
748.68	245.66
749.01	245.41
749.34	245.20
749.67	244.94
750.00	244.71
750.33	244.55
750.65	244.33
750.98	244.01
751.31	243.83
751.64	243.59
751.97	243.46
752.29	243.26
752.62	243.03
752.95	242.81
753.28	242.60
753.60	242.36
753.93	242.18
754.26	241.99
754.59	241.77
754.91	241.53
755.24	241.33
755.57	241.12
755.90	240.95
756.22	240.71
756.55	240.51
756.88	240.33
757.20	240.13
757.53	239.92
757.86	239.76
758.19	239.57
758.51	239.40
758.84	239.12
759.17	238.93
759.49	238.80
759.82	238.70
760.15	238.55
760.47	238.40
760.80	238.23
761.13	238.07
761.45	237.91
761.78	237.76
762.11	237.61
762.43	237.47
762.76	237.30
763.08	237.18
763.41	237.06
763.74	236.94
764.06	236.78
764.39	236.65
764.71	236.48
765.04	236.35
765.37	236.20
765.69	236.09
766.02	235.96
766.34	235.79
766.67	235.62
767.00	235.50
767.32	235.46
767.65	235.38
767.97	235.26
768.30	235.17
768.62	235.06
768.95	234.95
769.27	234.82
769.60	234.76
769.92	234.62
770.25	234.49
770.57	234.36
770.90	234.23
771.22	234.12
771.55	234.02
771.87	233.91
772.20	233.86
772.52	233.85
772.85	233.89
773.17	233.83
773.50	233.71
773.82	233.63
774.15	233.49
774.47	233.33
774.80	233.23
775.12	233.13
775.45	233.08
775.77	232.97
776.09	232.92
776.42	232.80
776.74	232.76
777.07	232.68
777.39	232.58
777.72	232.54
778.04	232.50
778.36	232.43
778.69	232.35
779.01	232.30
779.33	232.16
779.66	231.96
779.98	231.87
780.31	231.83
780.63	231.81
780.95	231.75
781.28	231.71
781.60	231.66
781.92	231.61
782.25	231.50
782.57	231.46
782.89	231.40
783.22	231.34
783.54	231.27
783.86	231.22
784.19	231.20
784.51	231.19
784.83	231.12
785.16	231.08
785.48	231.08
785.80	231.01
786.12	230.98
786.45	230.98
786.77	230.94
787.09	230.88
787.42	230.83
787.74	230.80
788.06	230.75
788.38	230.69
788.71	230.65
789.03	230.65
789.35	230.64
789.67	230.58
789.99	230.60
790.32	230.55
790.64	230.54
790.96	230.55
791.28	230.42
791.61	230.38
791.93	230.36
792.25	230.30
792.57	230.29
792.89	230.23
793.21	230.16
793.54	230.10
793.86	230.07
794.18	229.99
794.50	229.96
794.82	229.95
795.14	229.95
795.47	229.90
795.79	229.85
796.11	229.78
796.43	229.70
796.75	229.64
797.07	229.62
797.39	229.56
797.71	229.47
798.04	229.47
798.36	229.44
798.68	229.41
799.00	229.39
799.32	229.34
799.64	229.31
799.96	229.25
800.28	229.26
800.60	229.23
800.92	229.22
801.24	229.14
801.56	229.12
801.89	229.06
802.21	229.05
802.53	229.01
802.85	229.03
803.17	229.09
803.49	229.05
803.81	229.02
804.13	229.00
804.45	228.97
804.77	228.93
805.09	228.90
805.41	228.84
805.73	228.79
806.05	228.73
806.37	228.68
806.69	228.69
807.01	228.61
807.33	228.62
807.65	228.57
807.97	228.60
808.28	228.58
808.60	228.54
808.92	228.51
809.24	228.54
809.56	228.45
809.88	228.36
810.20	228.31
810.52	228.31
810.84	228.24
811.16	228.22
811.48	228.18
811.80	228.20
812.12	228.20
812.43	228.15
812.75	228.12
813.07	228.10
813.39	228.04
813.71	228.03
814.03	227.97
814.35	227.93
814.67	227.85
814.98	227.79
815.30	227.77
815.62	227.75
815.94	227.65
816.26	227.68
816.58	227.68
816.89	227.68
817.21	227.62
817.53	227.60
817.85	227.60
818.17	227.53
818.48	227.46
818.80	227.43
819.12	227.45
819.44	227.41
819.76	227.39
820.07	227.36
820.39	227.35
820.71	227.35
821.03	227.35
821.34	227.34
821.66	227.35
821.98	227.36
822.30	227.32
822.61	227.38
822.93	227.33
823.25	227.31
823.57	227.31
823.88	227.34
824.20	227.34
824.52	227.32
824.83	227.35
825.15	227.32
825.47	227.31
825.79	227.30
826.10	227.30
826.42	227.30
826.74	227.32
827.05	227.26
827.37	227.22
827.69	227.22
828.00	227.22
828.32	227.18
828.64	227.14
828.95	227.18
829.27	227.15
829.58	227.12
829.90	227.14
830.22	227.12
830.53	227.08
830.85	227.06
831.17	227.08
831.48	227.08
831.80	227.12
832.11	227.13
832.43	227.10
832.75	227.10
833.06	227.16
833.38	227.13
833.69	227.13
834.01	227.15
834.32	227.11
834.64	227.11
834.96	227.11
835.27	227.10
835.59	227.08
835.90	227.04
836.22	227.04
836.53	227.02
836.85	226.99
837.16	227.05
837.48	227.05
837.79	227.05
838.11	227.04
838.42	226.95
838.74	226.95
839.05	226.96
839.37	226.93
839.68	226.84
840.00	226.82
840.31	226.83
840.63	226.84
840.94	226.84
841.26	226.81
841.57	226.79
841.88	226.79
842.20	226.76
842.51	226.76
842.83	226.73
843.14	226.81
843.46	226.80
843.77	226.76
844.08	226.77
844.40	226.72
844.71	226.70
845.03	226.74
845.34	226.71
845.65	226.66
845.97	226.67
846.28	226.69
846.60	226.70
846.91	226.69
847.22	226.65
847.54	226.66
847.85	226.65
848.16	226.68
848.48	226.66
848.79	226.71
849.10	226.73
849.42	226.73
849.73	226.61
850.04	226.58
850.36	226.52
850.67	226.52
850.98	226.52
851.30	226.51
851.61	226.50
851.92	226.51
852.23	226.57
852.55	226.55
852.86	226.52
853.17	226.51
853.49	226.53
853.80	226.52
854.11	226.52
854.42	226.55
854.74	226.53
855.05	226.53
855.36	226.48
855.67	226.45
855.99	226.45
856.30	226.58
856.61	226.60
856.92	226.61
857.23	226.57
857.55	226.59
857.86	226.57
858.17	226.57
858.48	226.53
858.79	226.46
859.11	226.51
859.42	226.51
859.73	226.51
860.04	226.52
860.35	226.47
860.66	226.46
860.98	226.44
861.29	226.42
861.60	226.40
861.91	226.41
862.22	226.39
862.53	226.39
862.84	226.26
863.16	226.31
863.47	226.31
863.78	226.34
864.09	226.33
864.40	226.35
864.71	226.36
865.02	226.39
865.33	226.43
865.64	226.42
865.95	226.42
866.27	226.50
866.58	226.50
866.89	226.57
867.20	226.59
867.51	226.54
867.82	226.56
868.13	226.61
868.44	226.60
868.75	226.64
869.06	226.64
869.37	226.64
869.68	226.59
869.99	226.61
870.30	226.62
870.61	226.62
870.92	226.61
871.23	226.62
871.54	226.62
871.85	226.64
872.16	226.62
872.47	226.61
872.78	226.55
873.09	226.54
873.40	226.51
873.71	226.50
874.02	226.56
874.33	226.57
874.64	226.56
874.95	226.53
875.26	226.54
875.56	226.52
875.87	226.55
876.18	226.53
876.49	226.63
876.80	226.60
877.11	226.59
877.42	226.64
877.73	226.63
878.04	226.59
878.35	226.55
878.66	226.55
878.96	226.56
879.27	226.56
879.58	226.57
879.89	226.55
880.20	226.57
880.51	226.55
880.82	226.51
881.12	226.49
881.43	226.47
881.74	226.46
882.05	226.46
882.36	226.45
882.67	226.45
882.97	226.32
883.28	226.30
883.59	226.26
883.90	226.23
884.21	226.20
884.51	226.23
884.82	226.23
885.13	226.23
885.44	226.19
885.74	226.20
886.05	226.18
886.36	226.19
886.67	226.15
886.98	226.18
887.28	226.22
887.59	226.24
887.90	226.25
888.20	226.23
888.51	226.27
888.82	226.25
889.13	226.25
889.43	226.32
889.74	226.33
890.05	226.35
890.35	226.31
890.66	226.31
890.97	226.25
891.28	226.25
891.58	226.23
891.89	226.28
892.20	226.22
892.50	226.19
892.81	226.18
893.12	226.20
893.42	226.14
893.73	226.10
894.04	226.09
894.34	226.08
894.65	226.05
894.95	226.01
895.26	226.00
895.57	226.00
895.87	225.93
896.18	225.94
896.48	225.94
896.79	225.96
897.10	225.99
897.40	225.99
897.71	225.98
898.01	225.96
898.32	225.95
898.63	225.96
898.93	225.99
899.24	225.98
899.54	225.96
899.85	225.98
900.15	226.01
900.46	225.98
900.76	226.01
901.07	226.05
901.38	226.07
901.68	226.10
901.99	226.10
902.29	226.11
902.60	226.09
902.90	226.07
903.21	226.06
903.51	226.04
903.82	226.09
904.12	226.08
904.43	226.13
904.73	226.11
905.03	226.12
905.34	226.21
905.64	226.25
905.95	226.26
906.25	226.26
906.56	226.27
906.86	226.33
907.17	226.36
907.47	226.37
907.77	226.35
908.08	226.32
908.38	226.33
908.69	226.34
908.99	226.38
909.30	226.43
909.60	226.43
909.90	226.45
910.21	226.46
910.51	226.45
910.81	226.46
911.12	226.50
911.42	226.55
911.73	226.44
912.03	226.42
912.33	226.40
912.64	226.42
912.94	226.39
913.24	226.35
913.55	226.30
913.85	226.25
914.15	226.29
914.46	226.32
914.76	226.32
915.06	226.33
915.37	226.28
915.67	226.26
915.97	226.25
916.27	226.21
916.58	226.19
916.88	226.20
917.18	226.17
917.49	226.24
917.79	226.19
918.09	226.21
918.39	226.23
918.70	226.26
919.00	226.22
919.30	226.25
919.60	226.23
919.91	226.24
920.21	226.23
920.51	226.21
920.81	226.18
921.12	226.18
921.42	226.16
921.72	226.19
922.02	226.19
922.32	226.19
922.63	226.21
922.93	226.24
923.23	226.25
923.53	226.24
923.83	226.14
924.13	226.13
924.44	226.15
924.74	226.13
925.04	226.15
925.34	226.14
925.64	226.10
925.94	226.08
926.24	226.10
926.55	226.09
926.85	226.09
927.15	226.09
927.45	226.06
927.75	226.03
928.05	226.01
928.35	225.99
928.65	226.00
928.95	225.99
929.26	225.94
929.56	225.94
929.86	225.94
930.16	225.92
930.46	225.93
930.76	225.90
931.06	225.86
931.36	225.82
931.66	225.85
931.96	225.85
932.26	225.87
932.56	225.86
932.86	225.88
933.16	225.88
933.46	225.88
933.76	225.89
934.06	225.92
934.36	225.92
934.66	225.92
934.96	225.89
935.26	225.87
935.56	225.90
935.86	225.85
936.16	225.87
936.46	225.88
936.76	225.89
937.06	225.86
937.36	225.87
937.66	225.90
937.96	225.86
938.26	225.87
938.56	225.86
938.86	225.85
939.16	225.90
939.46	225.93
939.76	225.93
940.06	225.94
940.35	225.96
940.65	225.93
940.95	225.98
941.25	225.97
941.55	225.99
941.85	226.00
942.15	226.05
942.45	226.06
942.75	226.07
943.04	226.07
943.34	226.14
943.64	226.13
943.94	226.13
944.24	226.15
944.54	226.12
944.84	226.14
945.13	226.12
945.43	226.07
945.73	226.06
946.03	226.09
946.33	226.09
946.62	226.03
946.92	226.04
947.22	226.02
947.52	226.04
947.82	226.06
948.11	226.03
948.41	226.01
948.71	225.99
949.01	226.01
949.31	226.02
949.60	226.00
949.90	226.04
950.20	226.02
950.50	226.04
950.79	226.07
951.09	226.08
951.39	226.10
951.69	226.11
951.98	226.12
952.28	226.12
952.58	226.12
952.87	226.15
953.17	226.13
953.47	226.12
953.76	226.13
954.06	226.09
954.36	226.09
954.66	226.10
954.95	226.10
955.25	226.10
955.55	226.06
955.84	226.01
956.14	226.01
956.44	226.03
956.73	225.98
957.03	226.00
957.32	226.00
957.62	226.00
957.92	226.02
958.21	226.00
958.51	226.08
958.81	226.07
959.10	226.10
959.40	226.13
959.69	226.13
959.99	226.15
960.29	226.15
960.58	226.12
960.88	226.16
961.17	226.19
961.47	226.16
961.76	226.13
962.06	226.16
962.36	226.13
962.65	226.13
962.95	226.12
963.24	226.09
963.54	226.06
963.83	226.02
964.13	226.00
964.42	225.96
964.72	225.88
965.01	225.89
965.31	225.85
965.60	225.82
965.90	225.90
966.19	225.83
966.49	225.86
966.78	225.89
967.08	225.85
967.37	225.84
967.67	225.85
967.96	225.86
968.26	225.84
968.55	225.83
968.85	225.85
969.14	225.84
969.43	225.85
969.73	225.86
970.02	225.85
970.32	225.85
970.61	225.83
970.91	225.80
971.20	225.78
971.49	225.78
971.79	225.78
972.08	225.71
972.38	225.73
972.67	225.71
972.96	225.74
973.26	225.72
973.55	225.74
973.85	225.72
974.14	225.75
974.43	225.77
974.73	225.78
975.02	225.75
975.31	225.74
975.61	225.71
975.90	225.72
976.19	225.73
976.49	225.73
976.78	225.74
977.07	225.75
977.37	225.77
977.66	225.77
977.95	225.79
978.24	225.79
978.54	225.83
978.83	225.83
979.12	225.78
979.42	225.77
979.71	225.76
980.00	225.75
980.29	225.74
980.59	225.76
980.88	225.78
981.17	225.81
981.46	225.85
981.76	225.88
982.05	225.92
982.34	225.91
982.63	225.90
982.93	225.92
983.22	225.95
983.51	225.93
983.80	225.95
984.09	225.94
984.39	225.89
984.68	225.85
984.97	225.84
985.26	225.87
985.55	225.92
985.85	225.92
986.14	225.94
986.43	225.95
986.72	225.92
987.01	225.88
987.30	225.86
987.59	225.84
987.89	225.81
988.18	225.77
988.47	225.79
988.76	225.79
989.05	225.80
989.34	225.78
989.63	225.78
989.92	225.75
990.22	225.74
990.51	225.80
990.80	225.80
991.09	225.82
991.38	225.81
991.67	225.79
991.96	225.78
992.25	225.79
992.54	225.77
992.83	225.79
993.12	225.81
993.41	225.82
993.70	225.85
993.99	225.90
994.28	225.93
994.58	225.93
994.87	225.90
995.16	225.90
995.45	225.90
995.74	225.90
996.03	225.93
996.32	225.96
996.61	225.97
996.90	225.98
997.19	225.94
997.48	225.95
997.77	225.94
998.06	225.93
998.34	225.93
998.63	225.92
998.92	225.93
999.21	225.92
999.50	225.91
999.79	225.90
1000.08	225.84
1000.37	225.84
1000.66	225.83
1000.95	225.89
1001.24	225.90
1001.53	225.93
1001.82	225.92
1002.11	225.91
1002.40	225.93
1002.68	225.91
1002.97	225.96
1003.26	225.97
1003.55	225.96
1003.84	225.95
1004.13	225.99
1004.42	225.99
1004.71	225.99
1004.99	225.96
1005.28	225.98
1005.57	225.98
1005.86	226.01
1006.15	226.03
1006.44	225.99
1006.72	226.01
1007.01	225.99
1007.30	225.95
1007.59	225.95
1007.88	225.95
1008.17	225.96
1008.45	225.94
1008.74	225.93
1009.03	225.89
1009.32	225.91
1009.60	225.93
1009.89	225.94
1010.18	225.89
1010.47	225.87
1010.76	225.87
1011.04	225.86
1011.33	225.88
1011.62	225.85
1011.91	225.84
1012.19	225.86
1012.48	225.88
1012.77	225.85
1013.05	225.88
1013.34	225.90
1013.63	225.87
1013.92	225.90
1014.20	225.90
1014.49	225.90
1014.78	225.91
1015.06	225.88
1015.35	225.86
1015.64	225.88
1015.92	225.90
1016.21	225.91
1016.50	225.93
1016.78	225.98
1017.07	226.02
1017.36	225.99
1017.64	225.99
1017.93	226.01
1018.22	225.99
1018.50	225.98
1018.79	225.98
1019.08	225.93
1019.36	225.95
1019.65	225.93
1019.93	225.93
1020.22	225.91
1020.51	225.95
1020.79	225.96
1021.08	225.66
1021.36	226.06
1021.65	225.80
1021.94	225.48
1022.22	225.97
1022.51	225.49
1022.79	226.03
1023.08	225.80
1023.36	226.73
1023.65	226.18
>>>>>End Processed Spectral Data<<<<<
