SpectraSuite Data File
++++++++++++++++++++++++++++++++++++
Date: Fri Feb 01 16:27:33 EST 2013
User: group
Dark Spectrum Present: No
Reference Spectrum Present: No
Number of Sampled Component Spectra: 1
Spectrometers: USB2E7196
Integration Time (usec): 35000 (USB2E7196)
Spectra Averaged: 100 (USB2E7196)
Boxcar Smoothing: 10 (USB2E7196)
Correct for Electrical Dark: No (USB2E7196)
Strobe/Lamp Enabled: No (USB2E7196)
Correct for Detector Non-linearity: No (USB2E7196)
Correct for Stray Light: No (USB2E7196)
Number of Pixels in Processed Spectrum: 2048
>>>>>Begin Processed Spectral Data<<<<<
339.09	0.00
339.48	214.10
339.86	215.43
340.24	217.16
340.63	218.37
341.01	221.43
341.39	220.96
341.78	222.06
342.16	223.71
342.54	224.21
342.93	212.38
343.31	223.12
343.69	223.65
344.07	224.10
344.46	224.51
344.84	224.86
345.22	225.06
345.60	225.30
345.99	225.49
346.37	225.62
346.75	225.73
347.13	225.81
347.52	225.90
347.90	225.95
348.28	225.95
348.66	225.98
349.05	225.95
349.43	226.01
349.81	226.09
350.19	226.11
350.57	226.17
350.96	226.25
351.34	226.31
351.72	226.38
352.10	226.48
352.48	226.56
352.87	226.62
353.25	226.68
353.63	226.76
354.01	226.81
354.39	226.89
354.77	226.96
355.15	227.04
355.54	227.09
355.92	227.15
356.30	227.23
356.68	227.38
357.06	227.51
357.44	227.58
357.82	227.64
358.20	227.72
358.58	227.81
358.97	227.84
359.35	227.92
359.73	228.01
360.11	228.06
360.49	228.12
360.87	228.17
361.25	228.27
361.63	228.38
362.01	228.44
362.39	228.45
362.77	228.49
363.15	228.51
363.53	228.55
363.91	228.60
364.29	228.64
364.67	228.59
365.05	228.61
365.43	228.63
365.81	228.65
366.19	228.69
366.57	228.71
366.95	228.70
367.33	228.70
367.71	228.70
368.09	228.73
368.47	228.73
368.85	228.73
369.23	228.72
369.61	228.60
369.99	228.62
370.37	228.58
370.75	228.62
371.13	228.58
371.51	228.54
371.89	228.50
372.27	228.46
372.65	228.41
373.03	228.35
373.41	228.31
373.78	228.27
374.16	228.19
374.54	228.11
374.92	228.06
375.30	227.97
375.68	227.93
376.06	227.88
376.44	227.78
376.82	227.71
377.19	227.61
377.57	227.55
377.95	227.46
378.33	227.39
378.71	227.23
379.09	227.20
379.47	227.12
379.84	227.05
380.22	226.99
380.60	226.92
380.98	226.82
381.36	226.73
381.73	226.68
382.11	226.61
382.49	226.56
382.87	226.50
383.25	226.45
383.62	226.48
384.00	226.40
384.38	226.34
384.76	226.32
385.13	226.34
385.51	226.33
385.89	226.26
386.27	226.23
386.64	226.21
387.02	226.14
387.40	226.10
387.78	226.08
388.15	226.03
388.53	225.96
388.91	225.97
389.29	225.92
389.66	225.86
390.04	225.81
390.42	225.81
390.79	225.79
391.17	225.80
391.55	225.67
391.92	225.64
392.30	225.66
392.68	225.60
393.05	225.57
393.43	225.54
393.81	225.57
394.18	225.52
394.56	225.58
394.94	225.61
395.31	225.62
395.69	225.62
396.06	225.65
396.44	225.71
396.82	225.71
397.19	225.80
397.57	225.85
397.95	225.91
398.32	225.91
398.70	225.98
399.07	226.04
399.45	226.10
399.82	226.18
400.20	226.21
400.58	226.28
400.95	226.31
401.33	226.40
401.70	226.52
402.08	226.65
402.45	226.71
402.83	226.81
403.20	226.95
403.58	227.04
403.95	227.15
404.33	227.26
404.71	227.37
405.08	227.52
405.46	227.63
405.83	227.78
406.21	227.94
406.58	228.08
406.96	228.22
407.33	228.40
407.70	228.60
408.08	228.88
408.45	229.11
408.83	229.35
409.20	229.56
409.58	229.74
409.95	229.99
410.33	230.25
410.70	230.53
411.08	230.82
411.45	231.13
411.82	231.44
412.20	231.80
412.57	232.23
412.95	232.58
413.32	233.02
413.69	233.42
414.07	233.84
414.44	234.31
414.82	234.75
415.19	235.31
415.56	235.84
415.94	236.39
416.31	237.06
416.68	237.68
417.06	238.45
417.43	239.15
417.81	239.98
418.18	240.76
418.55	241.58
418.93	242.45
419.30	243.35
419.67	244.34
420.04	245.29
420.42	246.24
420.79	247.40
421.16	248.55
421.54	249.75
421.91	250.98
422.28	252.25
422.66	253.58
423.03	254.86
423.40	256.18
423.77	257.57
424.15	258.94
424.52	260.45
424.89	262.01
425.26	263.56
425.64	264.96
426.01	266.56
426.38	268.21
426.75	269.85
427.13	271.57
427.50	273.32
427.87	275.18
428.24	277.05
428.61	278.73
428.99	280.65
429.36	282.76
429.73	284.84
430.10	286.84
430.47	288.91
430.85	291.03
431.22	293.25
431.59	295.68
431.96	297.93
432.33	300.41
432.70	302.78
433.08	305.58
433.45	308.21
433.82	310.73
434.19	313.60
434.56	316.41
434.93	319.09
435.30	321.69
435.68	324.54
436.05	327.37
436.42	330.20
436.79	332.69
437.16	335.33
437.53	338.10
437.90	340.89
438.27	343.67
438.64	346.49
439.01	349.06
439.38	351.21
439.75	353.36
440.13	355.80
440.50	358.06
440.87	359.87
441.24	361.80
441.61	364.01
441.98	365.48
442.35	367.29
442.72	369.08
443.09	370.88
443.46	371.86
443.83	372.47
444.20	372.97
444.57	373.81
444.94	374.07
445.31	374.44
445.68	374.77
446.05	374.80
446.42	374.40
446.79	373.97
447.16	373.56
447.53	373.24
447.90	372.13
448.27	370.98
448.64	369.41
449.01	368.30
449.37	366.28
449.74	364.41
450.11	362.18
450.48	359.74
450.85	357.21
451.22	355.12
451.59	353.06
451.96	351.13
452.33	348.56
452.70	346.28
453.07	343.46
453.43	340.63
453.80	337.94
454.17	335.27
454.54	332.75
454.91	330.02
455.28	327.37
455.65	324.84
456.02	322.40
456.38	320.25
456.75	317.56
457.12	315.36
457.49	313.19
457.86	310.98
458.23	309.13
458.59	307.12
458.96	305.10
459.33	303.27
459.70	301.43
460.07	299.92
460.43	298.16
460.80	296.57
461.17	295.10
461.54	293.55
461.91	292.17
462.27	290.71
462.64	289.46
463.01	288.10
463.38	286.82
463.74	285.51
464.11	284.41
464.48	283.41
464.85	282.31
465.21	281.41
465.58	280.46
465.95	279.35
466.32	278.44
466.68	277.52
467.05	276.62
467.42	275.71
467.78	274.78
468.15	273.92
468.52	273.25
468.88	272.39
469.25	271.62
469.62	270.99
469.98	270.36
470.35	269.73
470.72	269.15
471.08	268.53
471.45	267.97
471.82	267.37
472.18	266.77
472.55	266.35
472.92	265.81
473.28	265.36
473.65	264.95
474.02	264.54
474.38	264.14
474.75	263.82
475.11	263.46
475.48	263.21
475.85	262.96
476.21	262.72
476.58	262.54
476.94	262.41
477.31	262.25
477.67	262.13
478.04	262.05
478.41	261.97
478.77	262.04
479.14	262.00
479.50	262.03
479.87	262.09
480.23	262.18
480.60	262.28
480.96	262.41
481.33	262.62
481.69	262.83
482.06	263.05
482.42	263.28
482.79	263.59
483.15	263.92
483.52	264.32
483.88	264.70
484.25	265.11
484.61	265.54
484.98	265.96
485.34	266.49
485.71	267.07
486.07	267.71
486.44	268.25
486.80	268.96
487.17	269.70
487.53	270.55
487.90	271.37
488.26	272.32
488.62	273.33
488.99	274.30
489.35	275.31
489.72	276.45
490.08	277.62
490.44	278.87
490.81	280.24
491.17	281.56
491.54	283.01
491.90	284.59
492.26	286.23
492.63	288.02
492.99	289.80
493.36	291.70
493.72	293.75
494.08	295.86
494.45	298.13
494.81	300.49
495.17	302.94
495.54	305.54
495.90	308.20
496.26	311.02
496.63	314.03
496.99	317.21
497.35	320.47
497.72	323.90
498.08	327.40
498.44	331.05
498.80	334.99
499.17	339.08
499.53	343.24
499.89	347.63
500.26	352.15
500.62	356.81
500.98	361.79
501.34	366.89
501.71	372.27
502.07	377.72
502.43	383.34
502.79	389.17
503.16	395.22
503.52	401.56
503.88	407.89
504.24	414.48
504.60	421.35
504.97	428.50
505.33	435.86
505.69	443.59
506.05	451.36
506.41	459.26
506.78	467.43
507.14	475.91
507.50	484.62
507.86	493.71
508.22	502.97
508.59	512.16
508.95	521.75
509.31	531.53
509.67	541.65
510.03	552.00
510.39	562.58
510.75	573.35
511.12	584.26
511.48	595.60
511.84	607.05
512.20	618.53
512.56	630.43
512.92	642.54
513.28	654.81
513.64	667.30
514.00	680.02
514.37	692.96
514.73	706.04
515.09	719.04
515.45	732.21
515.81	745.72
516.17	759.67
516.53	773.77
516.89	787.93
517.25	802.05
517.61	816.43
517.97	830.85
518.33	845.26
518.69	859.97
519.05	874.95
519.41	890.05
519.77	905.60
520.13	921.06
520.49	936.43
520.85	951.87
521.21	967.50
521.57	983.65
521.93	999.30
522.29	1015.56
522.65	1031.76
523.01	1047.80
523.37	1063.76
523.73	1079.92
524.09	1095.88
524.45	1112.09
524.81	1128.67
525.17	1145.42
525.53	1162.29
525.89	1179.18
526.25	1196.00
526.61	1212.22
526.97	1228.97
527.33	1245.28
527.68	1261.70
528.04	1278.15
528.40	1294.52
528.76	1311.46
529.12	1327.97
529.48	1344.79
529.84	1360.76
530.20	1377.30
530.56	1394.29
530.91	1411.62
531.27	1428.18
531.63	1444.45
531.99	1460.97
532.35	1476.70
532.71	1492.42
533.07	1508.55
533.42	1524.30
533.78	1540.23
534.14	1556.49
534.50	1571.69
534.86	1587.41
535.21	1602.65
535.57	1618.45
535.93	1633.99
536.29	1648.70
536.65	1663.71
537.00	1678.43
537.36	1693.72
537.72	1708.15
538.08	1722.60
538.44	1736.30
538.79	1750.09
539.15	1763.77
539.51	1777.34
539.87	1791.73
540.22	1805.42
540.58	1819.13
540.94	1832.25
541.29	1845.05
541.65	1857.52
542.01	1870.69
542.37	1882.97
542.72	1895.12
543.08	1906.78
543.44	1919.18
543.79	1930.37
544.15	1941.31
544.51	1952.78
544.87	1963.65
545.22	1974.39
545.58	1984.36
545.94	1994.07
546.29	2003.84
546.65	2013.65
547.01	2022.92
547.36	2031.54
547.72	2039.91
548.07	2047.62
548.43	2055.78
548.79	2063.73
549.14	2071.29
549.50	2078.39
549.86	2085.98
550.21	2093.40
550.57	2100.57
550.92	2106.96
551.28	2114.01
551.64	2121.02
551.99	2127.39
552.35	2133.42
552.70	2139.56
553.06	2145.67
553.41	2151.97
553.77	2158.02
554.13	2163.97
554.48	2170.08
554.84	2175.43
555.19	2180.75
555.55	2185.88
555.90	2190.38
556.26	2195.17
556.61	2199.91
556.97	2204.30
557.32	2208.41
557.68	2212.49
558.03	2216.58
558.39	2220.39
558.74	2224.96
559.10	2228.73
559.45	2232.47
559.81	2236.69
560.16	2240.45
560.52	2243.62
560.87	2246.97
561.23	2249.60
561.58	2252.69
561.94	2255.13
562.29	2257.54
562.64	2260.17
563.00	2262.72
563.35	2266.14
563.71	2269.32
564.06	2272.52
564.42	2275.44
564.77	2278.07
565.12	2280.32
565.48	2282.21
565.83	2284.08
566.19	2285.46
566.54	2286.35
566.89	2287.52
567.25	2288.23
567.60	2289.54
567.96	2291.29
568.31	2292.14
568.66	2293.32
569.02	2293.88
569.37	2294.36
569.72	2295.40
570.08	2295.59
570.43	2295.87
570.78	2295.36
571.14	2293.80
571.49	2292.44
571.84	2292.17
572.20	2291.07
572.55	2290.20
572.90	2288.88
573.26	2287.59
573.61	2285.90
573.96	2284.18
574.31	2281.33
574.67	2278.49
575.02	2274.89
575.37	2271.58
575.72	2267.98
576.08	2264.78
576.43	2261.50
576.78	2257.77
577.13	2254.66
577.49	2251.66
577.84	2248.03
578.19	2244.37
578.54	2241.02
578.90	2236.86
579.25	2231.35
579.60	2226.34
579.95	2221.24
580.30	2216.37
580.66	2211.24
581.01	2206.41
581.36	2201.63
581.71	2197.42
582.06	2192.93
582.42	2188.65
582.77	2183.54
583.12	2179.03
583.47	2174.29
583.82	2169.35
584.17	2164.33
584.53	2158.79
584.88	2153.15
585.23	2147.48
585.58	2142.12
585.93	2136.66
586.28	2131.99
586.63	2127.05
586.98	2122.26
587.34	2117.72
587.69	2112.89
588.04	2107.65
588.39	2102.05
588.74	2095.77
589.09	2089.74
589.44	2082.97
589.79	2076.93
590.14	2071.37
590.49	2064.86
590.84	2058.50
591.19	2052.69
591.54	2046.17
591.89	2038.84
592.25	2032.12
592.60	2024.99
592.95	2017.45
593.30	2010.08
593.65	2002.52
594.00	1995.47
594.35	1988.23
594.70	1980.18
595.05	1972.95
595.40	1965.77
595.75	1958.28
596.10	1951.98
596.45	1945.32
596.80	1939.28
597.15	1932.75
597.50	1925.64
597.85	1919.29
598.19	1912.60
598.54	1905.43
598.89	1898.79
599.24	1893.01
599.59	1886.33
599.94	1880.26
600.29	1873.99
600.64	1867.53
600.99	1860.30
601.34	1853.57
601.69	1846.52
602.04	1839.78
602.39	1832.53
602.74	1825.75
603.08	1819.01
603.43	1812.36
603.78	1804.95
604.13	1797.75
604.48	1790.54
604.83	1783.64
605.18	1776.66
605.53	1768.77
605.87	1760.89
606.22	1753.85
606.57	1746.00
606.92	1738.76
607.27	1731.44
607.62	1724.57
607.96	1717.34
608.31	1710.57
608.66	1702.89
609.01	1695.43
609.36	1687.77
609.70	1679.73
610.05	1671.55
610.40	1663.79
610.75	1655.51
611.10	1647.94
611.44	1639.54
611.79	1631.49
612.14	1622.84
612.49	1613.69
612.83	1605.38
613.18	1597.12
613.53	1588.92
613.88	1580.31
614.22	1572.09
614.57	1563.55
614.92	1555.54
615.27	1547.99
615.61	1539.78
615.96	1531.81
616.31	1524.21
616.65	1516.94
617.00	1509.33
617.35	1501.72
617.70	1493.44
618.04	1484.93
618.39	1476.72
618.74	1469.10
619.08	1460.83
619.43	1453.34
619.78	1446.45
620.12	1439.23
620.47	1431.70
620.82	1423.61
621.16	1416.17
621.51	1408.54
621.85	1400.93
622.20	1392.43
622.55	1384.07
622.89	1376.07
623.24	1368.48
623.59	1361.04
623.93	1353.46
624.28	1346.26
624.62	1338.74
624.97	1331.62
625.32	1324.87
625.66	1317.87
626.01	1310.80
626.35	1303.38
626.70	1295.50
627.04	1287.76
627.39	1280.03
627.73	1272.68
628.08	1265.74
628.43	1258.41
628.77	1251.00
629.12	1243.48
629.46	1236.31
629.81	1228.77
630.15	1221.58
630.50	1214.13
630.84	1205.96
631.19	1198.10
631.53	1190.58
631.88	1183.00
632.22	1175.40
632.57	1168.04
632.91	1160.36
633.26	1152.84
633.60	1145.45
633.95	1138.46
634.29	1131.37
634.64	1124.66
634.98	1117.28
635.32	1110.07
635.67	1103.50
636.01	1096.90
636.36	1090.12
636.70	1083.52
637.05	1077.02
637.39	1070.48
637.73	1063.96
638.08	1058.08
638.42	1051.98
638.77	1045.52
639.11	1038.89
639.45	1032.41
639.80	1025.77
640.14	1019.36
640.49	1012.85
640.83	1006.56
641.17	1000.23
641.52	993.85
641.86	987.41
642.20	981.52
642.55	975.19
642.89	968.71
643.23	962.20
643.58	956.38
643.92	950.26
644.26	944.10
644.61	938.11
644.95	932.05
645.29	925.41
645.64	918.70
645.98	912.38
646.32	906.60
646.66	900.60
647.01	894.77
647.35	889.15
647.69	883.27
648.04	877.71
648.38	871.92
648.72	865.95
649.06	859.83
649.41	854.01
649.75	848.13
650.09	842.14
650.43	836.37
650.78	830.20
651.12	824.16
651.46	818.46
651.80	812.68
652.14	807.30
652.49	801.95
652.83	796.78
653.17	791.01
653.51	785.31
653.85	779.98
654.20	774.31
654.54	768.28
654.88	762.51
655.22	756.64
655.56	751.07
655.90	745.67
656.25	740.50
656.59	735.12
656.93	730.02
657.27	724.94
657.61	719.44
657.95	714.40
658.29	709.33
658.64	704.16
658.98	699.02
659.32	693.59
659.66	688.35
660.00	683.01
660.34	678.12
660.68	673.17
661.02	668.10
661.36	663.46
661.70	658.98
662.05	654.68
662.39	650.37
662.73	645.78
663.07	641.33
663.41	636.90
663.75	632.37
664.09	627.77
664.43	623.33
664.77	619.23
665.11	614.85
665.45	610.76
665.79	606.61
666.13	602.41
666.47	598.35
666.81	594.30
667.15	590.24
667.49	586.39
667.83	582.58
668.17	578.66
668.51	574.53
668.85	570.51
669.19	566.65
669.53	562.82
669.87	558.95
670.21	555.28
670.55	551.66
670.89	548.22
671.23	544.79
671.57	541.22
671.91	537.66
672.25	534.24
672.58	530.70
672.92	527.36
673.26	524.21
673.60	521.00
673.94	517.90
674.28	514.95
674.62	511.99
674.96	508.92
675.30	506.03
675.64	503.15
675.97	500.37
676.31	497.49
676.65	494.49
676.99	491.77
677.33	488.89
677.67	486.03
678.01	482.95
678.34	480.00
678.68	477.21
679.02	474.36
679.36	471.56
679.70	468.84
680.04	466.05
680.37	463.15
680.71	460.35
681.05	457.71
681.39	454.94
681.73	452.23
682.06	449.63
682.40	447.09
682.74	444.51
683.08	441.95
683.42	439.30
683.75	436.84
684.09	434.30
684.43	431.82
684.77	429.31
685.10	427.00
685.44	424.65
685.78	422.30
686.12	420.00
686.45	417.71
686.79	415.35
687.13	413.12
687.46	410.96
687.80	408.80
688.14	406.50
688.48	404.43
688.81	402.21
689.15	400.07
689.49	397.88
689.82	395.76
690.16	393.67
690.50	391.72
690.83	389.78
691.17	387.81
691.51	385.91
691.84	384.05
692.18	382.12
692.52	380.15
692.85	378.24
693.19	376.42
693.52	374.55
693.86	372.75
694.20	371.00
694.53	369.20
694.87	367.37
695.21	365.60
695.54	363.81
695.88	362.03
696.21	360.30
696.55	358.61
696.88	356.92
697.22	355.26
697.56	353.62
697.89	351.98
698.23	350.36
698.56	348.76
698.90	347.26
699.23	345.61
699.57	344.00
699.90	342.49
700.24	340.96
700.58	339.47
700.91	337.97
701.25	336.48
701.58	335.10
701.92	333.68
702.25	332.31
702.59	330.92
702.92	329.62
703.26	328.31
703.59	327.03
703.93	325.86
704.26	324.59
704.60	323.30
704.93	322.00
705.26	320.71
705.60	319.55
705.93	318.29
706.27	317.24
706.60	316.22
706.94	315.12
707.27	313.94
707.61	312.87
707.94	311.85
708.27	310.79
708.61	309.71
708.94	308.76
709.28	307.76
709.61	306.79
709.94	305.87
710.28	304.85
710.61	303.90
710.95	302.82
711.28	301.93
711.61	301.01
711.95	300.07
712.28	299.14
712.61	298.14
712.95	297.27
713.28	296.43
713.61	295.58
713.95	294.70
714.28	293.88
714.61	293.03
714.95	292.20
715.28	291.32
715.61	290.44
715.95	289.55
716.28	288.71
716.61	287.89
716.95	287.07
717.28	286.34
717.61	285.52
717.94	284.77
718.28	283.94
718.61	283.20
718.94	282.52
719.27	281.88
719.61	281.24
719.94	280.56
720.27	279.80
720.60	279.10
720.94	278.43
721.27	277.84
721.60	277.25
721.93	276.65
722.27	276.07
722.60	275.54
722.93	274.97
723.26	274.46
723.59	273.88
723.93	273.30
724.26	272.71
724.59	272.15
724.92	271.64
725.25	271.16
725.59	270.63
725.92	270.15
726.25	269.63
726.58	269.12
726.91	268.63
727.24	268.16
727.57	267.68
727.91	267.15
728.24	266.68
728.57	266.19
728.90	265.70
729.23	265.24
729.56	264.82
729.89	264.36
730.22	263.85
730.55	263.34
730.89	262.92
731.22	262.51
731.55	262.07
731.88	261.63
732.21	261.19
732.54	260.77
732.87	260.31
733.20	259.93
733.53	259.51
733.86	259.10
734.19	258.73
734.52	258.33
734.85	258.08
735.18	257.68
735.51	257.32
735.84	256.97
736.17	256.60
736.50	256.17
736.83	255.93
737.16	255.59
737.49	255.30
737.82	254.93
738.15	254.61
738.48	254.29
738.81	253.97
739.14	253.68
739.47	253.35
739.80	253.03
740.13	252.69
740.46	252.39
740.79	252.09
741.12	251.78
741.45	251.48
741.78	251.10
742.11	250.80
742.44	250.49
742.77	250.19
743.10	249.92
743.43	249.64
743.75	249.28
744.08	249.13
744.41	248.88
744.74	248.67
745.07	248.35
745.40	248.13
745.73	247.89
746.06	247.61
746.39	247.38
746.71	247.10
747.04	246.87
747.37	246.62
747.70	246.39
748.03	246.15
748.36	245.93
748.68	245.69
749.01	245.44
749.34	245.21
749.67	245.03
750.00	244.78
750.33	244.62
750.65	244.43
750.98	244.11
751.31	243.90
751.64	243.66
751.97	243.52
752.29	243.25
752.62	243.02
752.95	242.80
753.28	242.57
753.60	242.42
753.93	242.24
754.26	242.03
754.59	241.82
754.91	241.62
755.24	241.43
755.57	241.23
755.90	241.09
756.22	240.88
756.55	240.61
756.88	240.43
757.20	240.19
757.53	239.96
757.86	239.77
758.19	239.56
758.51	239.39
758.84	239.16
759.17	238.98
759.49	238.83
759.82	238.73
760.15	238.53
760.47	238.34
760.80	238.16
761.13	238.03
761.45	237.87
761.78	237.73
762.11	237.59
762.43	237.45
762.76	237.29
763.08	237.17
763.41	237.08
763.74	236.95
764.06	236.83
764.39	236.68
764.71	236.56
765.04	236.41
765.37	236.26
765.69	236.16
766.02	236.03
766.34	235.88
766.67	235.69
767.00	235.62
767.32	235.59
767.65	235.53
767.97	235.41
768.30	235.30
768.62	235.20
768.95	235.06
769.27	234.95
769.60	234.85
769.92	234.76
770.25	234.66
770.57	234.55
770.90	234.42
771.22	234.35
771.55	234.25
771.87	234.21
772.20	234.12
772.52	234.11
772.85	234.18
773.17	234.11
773.50	234.05
773.82	234.01
774.15	233.87
774.47	233.72
774.80	233.64
775.12	233.54
775.45	233.43
775.77	233.36
776.09	233.30
776.42	233.20
776.74	233.14
777.07	233.06
777.39	232.99
777.72	232.93
778.04	232.88
778.36	232.80
778.69	232.72
779.01	232.68
779.33	232.54
779.66	232.33
779.98	232.28
780.31	232.22
780.63	232.17
780.95	232.09
781.28	232.08
781.60	231.99
781.92	231.94
782.25	231.90
782.57	231.84
782.89	231.76
783.22	231.73
783.54	231.66
783.86	231.63
784.19	231.57
784.51	231.57
784.83	231.48
785.16	231.44
785.48	231.39
785.80	231.35
786.12	231.31
786.45	231.27
786.77	231.22
787.09	231.21
787.42	231.13
787.74	231.11
788.06	231.02
788.38	231.03
788.71	231.00
789.03	230.98
789.35	230.97
789.67	230.88
789.99	230.83
790.32	230.78
790.64	230.74
790.96	230.80
791.28	230.71
791.61	230.67
791.93	230.63
792.25	230.59
792.57	230.61
792.89	230.54
793.21	230.52
793.54	230.45
793.86	230.35
794.18	230.29
794.50	230.24
794.82	230.19
795.14	230.13
795.47	230.10
795.79	230.05
796.11	229.98
796.43	229.99
796.75	229.93
797.07	229.87
797.39	229.82
797.71	229.69
798.04	229.63
798.36	229.58
798.68	229.54
799.00	229.48
799.32	229.38
799.64	229.34
799.96	229.29
800.28	229.25
800.60	229.20
800.92	229.15
801.24	229.10
801.56	229.06
801.89	228.99
802.21	228.95
802.53	228.88
802.85	228.86
803.17	228.84
803.49	228.78
803.81	228.74
804.13	228.70
804.45	228.64
804.77	228.63
805.09	228.59
805.41	228.55
805.73	228.50
806.05	228.43
806.37	228.40
806.69	228.36
807.01	228.35
807.33	228.33
807.65	228.28
807.97	228.29
808.28	228.27
808.60	228.27
808.92	228.21
809.24	228.24
809.56	228.21
809.88	228.15
810.20	228.14
810.52	228.14
810.84	228.11
811.16	228.08
811.48	228.06
811.80	228.08
812.12	228.06
812.43	228.08
812.75	228.07
813.07	228.04
813.39	228.05
813.71	228.00
814.03	227.98
814.35	227.99
814.67	227.93
814.98	227.89
815.30	227.84
815.62	227.81
815.94	227.73
816.26	227.74
816.58	227.71
816.89	227.69
817.21	227.64
817.53	227.67
817.85	227.66
818.17	227.64
818.48	227.60
818.80	227.60
819.12	227.56
819.44	227.58
819.76	227.57
820.07	227.56
820.39	227.53
820.71	227.56
821.03	227.54
821.34	227.50
821.66	227.54
821.98	227.54
822.30	227.57
822.61	227.64
822.93	227.62
823.25	227.62
823.57	227.61
823.88	227.64
824.20	227.62
824.52	227.64
824.83	227.64
825.15	227.66
825.47	227.66
825.79	227.66
826.10	227.61
826.42	227.61
826.74	227.58
827.05	227.59
827.37	227.59
827.69	227.60
828.00	227.64
828.32	227.62
828.64	227.62
828.95	227.64
829.27	227.64
829.58	227.61
829.90	227.64
830.22	227.67
830.53	227.63
830.85	227.59
831.17	227.56
831.48	227.53
831.80	227.51
832.11	227.50
832.43	227.48
832.75	227.50
833.06	227.56
833.38	227.54
833.69	227.52
834.01	227.53
834.32	227.49
834.64	227.46
834.96	227.45
835.27	227.43
835.59	227.37
835.90	227.31
836.22	227.30
836.53	227.27
836.85	227.22
837.16	227.33
837.48	227.32
837.79	227.33
838.11	227.35
838.42	227.32
838.74	227.32
839.05	227.31
839.37	227.27
839.68	227.19
840.00	227.15
840.31	227.15
840.63	227.07
840.94	227.07
841.26	227.05
841.57	227.07
841.88	227.04
842.20	227.03
842.51	227.02
842.83	227.02
843.14	227.09
843.46	227.11
843.77	226.99
844.08	226.95
844.40	226.93
844.71	226.90
845.03	226.87
845.34	226.85
845.65	226.83
845.97	226.81
846.28	226.77
846.60	226.81
846.91	226.77
847.22	226.80
847.54	226.78
847.85	226.76
848.16	226.75
848.48	226.75
848.79	226.82
849.10	226.82
849.42	226.79
849.73	226.68
850.04	226.68
850.36	226.66
850.67	226.71
850.98	226.66
851.30	226.65
851.61	226.63
851.92	226.59
852.23	226.62
852.55	226.66
852.86	226.64
853.17	226.62
853.49	226.63
853.80	226.61
854.11	226.66
854.42	226.64
854.74	226.59
855.05	226.58
855.36	226.52
855.67	226.51
855.99	226.52
856.30	226.60
856.61	226.56
856.92	226.55
857.23	226.53
857.55	226.52
857.86	226.48
858.17	226.54
858.48	226.55
858.79	226.51
859.11	226.50
859.42	226.50
859.73	226.49
860.04	226.49
860.35	226.48
860.66	226.43
860.98	226.45
861.29	226.49
861.60	226.48
861.91	226.49
862.22	226.49
862.53	226.48
862.84	226.42
863.16	226.44
863.47	226.45
863.78	226.44
864.09	226.48
864.40	226.55
864.71	226.54
865.02	226.56
865.33	226.57
865.64	226.55
865.95	226.55
866.27	226.64
866.58	226.63
866.89	226.64
867.20	226.67
867.51	226.66
867.82	226.68
868.13	226.70
868.44	226.66
868.75	226.67
869.06	226.65
869.37	226.62
869.68	226.59
869.99	226.61
870.30	226.63
870.61	226.63
870.92	226.59
871.23	226.58
871.54	226.59
871.85	226.62
872.16	226.64
872.47	226.63
872.78	226.57
873.09	226.59
873.40	226.56
873.71	226.55
874.02	226.54
874.33	226.53
874.64	226.50
874.95	226.51
875.26	226.48
875.56	226.49
875.87	226.49
876.18	226.49
876.49	226.57
876.80	226.54
877.11	226.51
877.42	226.52
877.73	226.49
878.04	226.45
878.35	226.41
878.66	226.43
878.96	226.46
879.27	226.43
879.58	226.43
879.89	226.42
880.20	226.40
880.51	226.39
880.82	226.34
881.12	226.36
881.43	226.34
881.74	226.30
882.05	226.31
882.36	226.29
882.67	226.32
882.97	226.19
883.28	226.18
883.59	226.17
883.90	226.16
884.21	226.19
884.51	226.19
884.82	226.17
885.13	226.10
885.44	226.07
885.74	226.05
886.05	226.01
886.36	226.01
886.67	226.00
886.98	226.07
887.28	226.10
887.59	226.05
887.90	226.07
888.20	226.09
888.51	226.09
888.82	226.10
889.13	226.11
889.43	226.19
889.74	226.19
890.05	226.15
890.35	226.15
890.66	226.14
890.97	226.14
891.28	226.11
891.58	226.15
891.89	226.17
892.20	226.20
892.50	226.21
892.81	226.22
893.12	226.19
893.42	226.12
893.73	226.09
894.04	226.12
894.34	226.10
894.65	226.12
894.95	226.12
895.26	226.11
895.57	226.16
895.87	226.08
896.18	226.13
896.48	226.13
896.79	226.13
897.10	226.15
897.40	226.15
897.71	226.20
898.01	226.19
898.32	226.20
898.63	226.21
898.93	226.22
899.24	226.23
899.54	226.24
899.85	226.29
900.15	226.31
900.46	226.28
900.76	226.30
901.07	226.28
901.38	226.28
901.68	226.32
901.99	226.28
902.29	226.33
902.60	226.31
902.90	226.33
903.21	226.35
903.51	226.34
903.82	226.36
904.12	226.35
904.43	226.34
904.73	226.35
905.03	226.33
905.34	226.40
905.64	226.40
905.95	226.46
906.25	226.44
906.56	226.45
906.86	226.49
907.17	226.49
907.47	226.51
907.77	226.50
908.08	226.43
908.38	226.40
908.69	226.36
908.99	226.36
909.30	226.36
909.60	226.33
909.90	226.33
910.21	226.30
910.51	226.26
910.81	226.27
911.12	226.22
911.42	226.23
911.73	226.11
912.03	226.11
912.33	226.11
912.64	226.12
912.94	226.10
913.24	226.06
913.55	226.01
913.85	226.01
914.15	226.01
914.46	226.05
914.76	226.05
915.06	226.03
915.37	226.00
915.67	226.00
915.97	226.01
916.27	225.98
916.58	225.98
916.88	226.01
917.18	226.00
917.49	226.10
917.79	226.09
918.09	226.12
918.39	226.12
918.70	226.09
919.00	226.06
919.30	226.09
919.60	226.09
919.91	226.10
920.21	226.08
920.51	226.07
920.81	226.04
921.12	226.03
921.42	226.03
921.72	226.04
922.02	226.02
922.32	226.04
922.63	226.02
922.93	226.05
923.23	226.04
923.53	226.01
923.83	225.94
924.13	225.97
924.44	225.99
924.74	226.03
925.04	226.03
925.34	226.01
925.64	225.95
925.94	225.95
926.24	226.00
926.55	225.98
926.85	226.00
927.15	226.01
927.45	226.03
927.75	226.04
928.05	226.05
928.35	226.09
928.65	226.10
928.95	226.11
929.26	226.08
929.56	226.11
929.86	226.12
930.16	226.14
930.46	226.09
930.76	226.09
931.06	226.02
931.36	226.00
931.66	226.04
931.96	226.06
932.26	226.05
932.56	226.03
932.86	226.06
933.16	226.07
933.46	226.06
933.76	226.05
934.06	226.09
934.36	226.13
934.66	226.12
934.96	226.10
935.26	226.12
935.56	226.13
935.86	226.10
936.16	226.12
936.46	226.10
936.76	226.10
937.06	226.07
937.36	226.09
937.66	226.14
937.96	226.13
938.26	226.13
938.56	226.16
938.86	226.16
939.16	226.19
939.46	226.21
939.76	226.26
940.06	226.28
940.35	226.26
940.65	226.20
940.95	226.21
941.25	226.20
941.55	226.18
941.85	226.19
942.15	226.22
942.45	226.25
942.75	226.24
943.04	226.26
943.34	226.27
943.64	226.23
943.94	226.19
944.24	226.19
944.54	226.18
944.84	226.14
945.13	226.13
945.43	226.09
945.73	226.08
946.03	226.03
946.33	226.00
946.62	226.01
946.92	226.02
947.22	226.00
947.52	226.00
947.82	226.01
948.11	226.01
948.41	226.00
948.71	225.96
949.01	225.97
949.31	225.96
949.60	225.97
949.90	226.01
950.20	226.01
950.50	225.99
950.79	225.99
951.09	225.99
951.39	225.99
951.69	225.97
951.98	225.97
952.28	225.97
952.58	225.96
952.87	225.97
953.17	225.96
953.47	225.96
953.76	225.95
954.06	225.94
954.36	225.88
954.66	225.86
954.95	225.87
955.25	225.88
955.55	225.88
955.84	225.87
956.14	225.86
956.44	225.85
956.73	225.85
957.03	225.87
957.32	225.88
957.62	225.88
957.92	225.91
958.21	225.89
958.51	226.01
958.81	226.01
959.10	226.00
959.40	226.02
959.69	226.04
959.99	226.04
960.29	226.08
960.58	226.09
960.88	226.11
961.17	226.11
961.47	226.12
961.76	226.09
962.06	226.10
962.36	226.09
962.65	226.12
962.95	226.11
963.24	226.10
963.54	226.12
963.83	226.15
964.13	226.13
964.42	226.12
964.72	226.03
965.01	226.04
965.31	226.04
965.60	226.00
965.90	226.04
966.19	226.04
966.49	226.04
966.78	226.08
967.08	226.10
967.37	226.10
967.67	226.10
967.96	226.16
968.26	226.20
968.55	226.22
968.85	226.22
969.14	226.24
969.43	226.26
969.73	226.26
970.02	226.25
970.32	226.28
970.61	226.28
970.91	226.24
971.20	226.23
971.49	226.22
971.79	226.25
972.08	226.19
972.38	226.23
972.67	226.19
972.96	226.21
973.26	226.17
973.55	226.23
973.85	226.19
974.14	226.18
974.43	226.19
974.73	226.15
975.02	226.14
975.31	226.15
975.61	226.14
975.90	226.10
976.19	226.10
976.49	226.09
976.78	226.10
977.07	226.12
977.37	226.12
977.66	226.11
977.95	226.09
978.24	226.09
978.54	226.08
978.83	226.09
979.12	226.06
979.42	226.06
979.71	226.01
980.00	226.01
980.29	225.98
980.59	225.93
980.88	225.97
981.17	225.95
981.46	225.93
981.76	225.94
982.05	225.98
982.34	225.98
982.63	225.95
982.93	225.96
983.22	225.95
983.51	225.94
983.80	225.98
984.09	225.99
984.39	226.00
984.68	225.98
984.97	225.96
985.26	226.00
985.55	225.99
985.85	225.95
986.14	225.97
986.43	225.96
986.72	225.96
987.01	225.94
987.30	225.94
987.59	225.93
987.89	225.92
988.18	225.88
988.47	225.87
988.76	225.89
989.05	225.87
989.34	225.88
989.63	225.92
989.92	225.87
990.22	225.88
990.51	225.88
990.80	225.85
991.09	225.87
991.38	225.82
991.67	225.82
991.96	225.85
992.25	225.84
992.54	225.83
992.83	225.86
993.12	225.81
993.41	225.84
993.70	225.87
993.99	225.88
994.28	225.90
994.58	225.89
994.87	225.87
995.16	225.89
995.45	225.88
995.74	225.85
996.03	225.88
996.32	225.90
996.61	225.94
996.90	225.96
997.19	225.93
997.48	225.96
997.77	225.94
998.06	225.95
998.34	225.95
998.63	225.95
998.92	225.93
999.21	225.98
999.50	225.97
999.79	225.96
1000.08	225.98
1000.37	226.01
1000.66	225.98
1000.95	226.01
1001.24	225.99
1001.53	226.01
1001.82	226.01
1002.11	225.96
1002.40	225.97
1002.68	225.98
1002.97	226.06
1003.26	226.07
1003.55	226.05
1003.84	226.07
1004.13	226.07
1004.42	226.04
1004.71	226.05
1004.99	226.05
1005.28	226.06
1005.57	226.08
1005.86	226.09
1006.15	226.05
1006.44	226.01
1006.72	226.04
1007.01	226.00
1007.30	226.03
1007.59	226.02
1007.88	226.01
1008.17	226.05
1008.45	225.99
1008.74	225.93
1009.03	225.87
1009.32	225.88
1009.60	225.86
1009.89	225.82
1010.18	225.82
1010.47	225.86
1010.76	225.86
1011.04	225.84
1011.33	225.89
1011.62	225.86
1011.91	225.86
1012.19	225.90
1012.48	225.95
1012.77	225.96
1013.05	226.03
1013.34	226.06
1013.63	226.05
1013.92	226.07
1014.20	226.07
1014.49	226.09
1014.78	226.11
1015.06	226.09
1015.35	226.07
1015.64	226.12
1015.92	226.18
1016.21	226.18
1016.50	226.19
1016.78	226.23
1017.07	226.27
1017.36	226.20
1017.64	226.21
1017.93	226.22
1018.22	226.18
1018.50	226.18
1018.79	226.19
1019.08	226.17
1019.36	226.14
1019.65	226.14
1019.93	226.19
1020.22	226.19
1020.51	226.26
1020.79	226.26
1021.08	225.88
1021.36	226.25
1021.65	226.61
1021.94	226.50
1022.22	226.15
1022.51	226.11
1022.79	227.08
1023.08	226.07
1023.36	227.39
1023.65	225.97
>>>>>End Processed Spectral Data<<<<<
