SpectraSuite Data File
++++++++++++++++++++++++++++++++++++
Date: Fri Feb 01 15:50:38 EST 2013
User: group
Dark Spectrum Present: No
Reference Spectrum Present: No
Number of Sampled Component Spectra: 1
Spectrometers: USB2E7196
Integration Time (usec): 35000 (USB2E7196)
Spectra Averaged: 100 (USB2E7196)
Boxcar Smoothing: 10 (USB2E7196)
Correct for Electrical Dark: No (USB2E7196)
Strobe/Lamp Enabled: No (USB2E7196)
Correct for Detector Non-linearity: No (USB2E7196)
Correct for Stray Light: No (USB2E7196)
Number of Pixels in Processed Spectrum: 2048
>>>>>Begin Processed Spectral Data<<<<<
339.09	0.00
339.48	215.38
339.86	216.27
340.24	217.65
340.63	219.78
341.01	222.17
341.39	222.54
341.78	223.43
342.16	224.34
342.54	225.09
342.93	213.35
343.31	224.10
343.69	224.59
344.07	225.07
344.46	225.47
344.84	225.81
345.22	226.02
345.60	226.23
345.99	226.42
346.37	226.51
346.75	226.60
347.13	226.65
347.52	226.69
347.90	226.77
348.28	226.82
348.66	226.82
349.05	226.81
349.43	226.84
349.81	226.88
350.19	226.90
350.57	226.96
350.96	227.03
351.34	227.13
351.72	227.24
352.10	227.33
352.48	227.40
352.87	227.43
353.25	227.48
353.63	227.53
354.01	227.56
354.39	227.66
354.77	227.71
355.15	227.82
355.54	227.89
355.92	227.90
356.30	227.95
356.68	228.09
357.06	228.15
357.44	228.18
357.82	228.22
358.20	228.27
358.58	228.32
358.97	228.38
359.35	228.46
359.73	228.52
360.11	228.54
360.49	228.61
360.87	228.64
361.25	228.72
361.63	228.80
362.01	228.84
362.39	228.84
362.77	228.89
363.15	228.91
363.53	228.93
363.91	228.95
364.29	228.98
364.67	228.92
365.05	228.92
365.43	228.98
365.81	229.00
366.19	229.08
366.57	229.10
366.95	229.09
367.33	229.04
367.71	229.02
368.09	229.04
368.47	229.03
368.85	229.00
369.23	228.98
369.61	228.92
369.99	228.92
370.37	228.91
370.75	228.93
371.13	228.89
371.51	228.84
371.89	228.81
372.27	228.76
372.65	228.72
373.03	228.70
373.41	228.63
373.78	228.59
374.16	228.47
374.54	228.40
374.92	228.35
375.30	228.30
375.68	228.26
376.06	228.19
376.44	228.12
376.82	228.09
377.19	228.01
377.57	227.97
377.95	227.86
378.33	227.80
378.71	227.66
379.09	227.60
379.47	227.53
379.84	227.43
380.22	227.38
380.60	227.29
380.98	227.23
381.36	227.16
381.73	227.07
382.11	227.04
382.49	226.98
382.87	226.89
383.25	226.83
383.62	226.85
384.00	226.79
384.38	226.75
384.76	226.71
385.13	226.71
385.51	226.66
385.89	226.65
386.27	226.60
386.64	226.58
387.02	226.51
387.40	226.46
387.78	226.47
388.15	226.41
388.53	226.40
388.91	226.37
389.29	226.35
389.66	226.35
390.04	226.30
390.42	226.29
390.79	226.31
391.17	226.31
391.55	226.21
391.92	226.20
392.30	226.22
392.68	226.18
393.05	226.17
393.43	226.14
393.81	226.14
394.18	226.16
394.56	226.15
394.94	226.25
395.31	226.24
395.69	226.33
396.06	226.39
396.44	226.39
396.82	226.39
397.19	226.49
397.57	226.53
397.95	226.61
398.32	226.65
398.70	226.72
399.07	226.79
399.45	226.81
399.82	226.90
400.20	226.94
400.58	227.01
400.95	227.08
401.33	227.23
401.70	227.38
402.08	227.44
402.45	227.60
402.83	227.69
403.20	227.86
403.58	227.94
403.95	228.06
404.33	228.24
404.71	228.39
405.08	228.55
405.46	228.69
405.83	228.86
406.21	229.01
406.58	229.13
406.96	229.31
407.33	229.52
407.70	229.72
408.08	230.00
408.45	230.23
408.83	230.47
409.20	230.68
409.58	230.85
409.95	231.13
410.33	231.40
410.70	231.66
411.08	231.95
411.45	232.26
411.82	232.56
412.20	232.86
412.57	233.28
412.95	233.58
413.32	233.96
413.69	234.35
414.07	234.79
414.44	235.27
414.82	235.74
415.19	236.29
415.56	236.81
415.94	237.38
416.31	238.00
416.68	238.62
417.06	239.32
417.43	240.05
417.81	240.83
418.18	241.58
418.55	242.43
418.93	243.27
419.30	244.18
419.67	245.10
420.04	246.10
420.42	247.07
420.79	248.26
421.16	249.40
421.54	250.59
421.91	251.82
422.28	253.07
422.66	254.43
423.03	255.72
423.40	257.03
423.77	258.44
424.15	259.88
424.52	261.33
424.89	262.94
425.26	264.52
425.64	265.94
426.01	267.53
426.38	269.14
426.75	270.82
427.13	272.52
427.50	274.32
427.87	276.17
428.24	278.05
428.61	279.79
428.99	281.75
429.36	283.82
429.73	285.87
430.10	287.94
430.47	289.97
430.85	292.10
431.22	294.39
431.59	296.75
431.96	299.03
432.33	301.52
432.70	303.89
433.08	306.61
433.45	309.25
433.82	311.87
434.19	314.79
434.56	317.62
434.93	320.24
435.30	322.86
435.68	325.72
436.05	328.52
436.42	331.32
436.79	333.85
437.16	336.58
437.53	339.38
437.90	342.19
438.27	344.94
438.64	347.75
439.01	350.30
439.38	352.53
439.75	354.63
440.13	357.15
440.50	359.45
440.87	361.32
441.24	363.27
441.61	365.43
441.98	366.93
442.35	368.69
442.72	370.58
443.09	372.37
443.46	373.41
443.83	374.03
444.20	374.55
444.57	375.41
444.94	375.72
445.31	376.07
445.68	376.36
446.05	376.41
446.42	376.03
446.79	375.61
447.16	375.15
447.53	374.86
447.90	373.65
448.27	372.53
448.64	370.92
449.01	369.75
449.37	367.75
449.74	365.79
450.11	363.61
450.48	361.12
450.85	358.65
451.22	356.47
451.59	354.45
451.96	352.49
452.33	349.82
452.70	347.45
453.07	344.61
453.43	341.72
453.80	339.01
454.17	336.36
454.54	333.83
454.91	331.14
455.28	328.48
455.65	326.03
456.02	323.59
456.38	321.47
456.75	318.84
457.12	316.63
457.49	314.44
457.86	312.27
458.23	310.40
458.59	308.33
458.96	306.24
459.33	304.38
459.70	302.53
460.07	301.04
460.43	299.31
460.80	297.70
461.17	296.27
461.54	294.73
461.91	293.27
462.27	291.83
462.64	290.52
463.01	289.18
463.38	287.90
463.74	286.51
464.11	285.35
464.48	284.30
464.85	283.22
465.21	282.35
465.58	281.40
465.95	280.33
466.32	279.43
466.68	278.55
467.05	277.66
467.42	276.72
467.78	275.77
468.15	274.88
468.52	274.20
468.88	273.35
469.25	272.59
469.62	272.00
469.98	271.29
470.35	270.69
470.72	270.07
471.08	269.40
471.45	268.86
471.82	268.29
472.18	267.70
472.55	267.21
472.92	266.66
473.28	266.21
473.65	265.74
474.02	265.28
474.38	264.93
474.75	264.58
475.11	264.26
475.48	264.00
475.85	263.83
476.21	263.61
476.58	263.41
476.94	263.26
477.31	263.08
477.67	262.92
478.04	262.80
478.41	262.72
478.77	262.80
479.14	262.74
479.50	262.77
479.87	262.85
480.23	262.94
480.60	263.01
480.96	263.09
481.33	263.30
481.69	263.51
482.06	263.70
482.42	263.91
482.79	264.17
483.15	264.46
483.52	264.80
483.88	265.13
484.25	265.51
484.61	265.92
484.98	266.41
485.34	266.99
485.71	267.57
486.07	268.21
486.44	268.75
486.80	269.45
487.17	270.16
487.53	270.95
487.90	271.79
488.26	272.73
488.62	273.68
488.99	274.66
489.35	275.70
489.72	276.84
490.08	278.07
490.44	279.34
490.81	280.70
491.17	282.08
491.54	283.58
491.90	285.12
492.26	286.78
492.63	288.47
492.99	290.26
493.36	292.18
493.72	294.21
494.08	296.35
494.45	298.61
494.81	300.96
495.17	303.44
495.54	306.03
495.90	308.74
496.26	311.61
496.63	314.59
496.99	317.71
497.35	320.93
497.72	324.33
498.08	327.84
498.44	331.53
498.80	335.44
499.17	339.49
499.53	343.70
499.89	348.08
500.26	352.61
500.62	357.26
500.98	362.25
501.34	367.36
501.71	372.73
502.07	378.18
502.43	383.81
502.79	389.58
503.16	395.69
503.52	401.95
503.88	408.37
504.24	415.00
504.60	421.86
504.97	429.00
505.33	436.33
505.69	444.02
506.05	451.81
506.41	459.67
506.78	467.82
507.14	476.33
507.50	485.06
507.86	494.10
508.22	503.30
508.59	512.50
508.95	522.06
509.31	531.83
509.67	541.95
510.03	552.24
510.39	562.81
510.75	573.59
511.12	584.50
511.48	595.80
511.84	607.31
512.20	618.88
512.56	630.81
512.92	642.99
513.28	655.31
513.64	667.79
514.00	680.43
514.37	693.39
514.73	706.36
515.09	719.48
515.45	732.78
515.81	746.35
516.17	760.34
516.53	774.46
516.89	788.67
517.25	802.83
517.61	817.22
517.97	831.65
518.33	846.10
518.69	860.97
519.05	875.92
519.41	891.00
519.77	906.50
520.13	922.00
520.49	937.31
520.85	952.71
521.21	968.41
521.57	984.81
521.93	1000.54
522.29	1016.99
522.65	1033.11
523.01	1049.31
523.37	1065.38
523.73	1081.53
524.09	1097.55
524.45	1113.84
524.81	1130.50
525.17	1147.34
525.53	1164.34
525.89	1181.16
526.25	1197.89
526.61	1214.26
526.97	1231.03
527.33	1247.58
527.68	1264.07
528.04	1280.55
528.40	1297.29
528.76	1314.31
529.12	1330.77
529.48	1347.59
529.84	1363.56
530.20	1380.17
530.56	1397.08
530.91	1414.46
531.27	1431.23
531.63	1447.72
531.99	1464.28
532.35	1480.13
532.71	1495.91
533.07	1512.10
533.42	1527.99
533.78	1544.09
534.14	1560.41
534.50	1575.72
534.86	1591.49
535.21	1606.78
535.57	1622.82
535.93	1638.15
536.29	1653.05
536.65	1668.10
537.00	1682.96
537.36	1698.15
537.72	1712.77
538.08	1727.23
538.44	1740.93
538.79	1754.83
539.15	1768.50
539.51	1782.14
539.87	1796.56
540.22	1810.34
540.58	1824.10
540.94	1837.41
541.29	1850.29
541.65	1862.85
542.01	1876.14
542.37	1888.39
542.72	1900.78
543.08	1912.35
543.44	1924.75
543.79	1935.86
544.15	1946.93
544.51	1958.45
544.87	1969.49
545.22	1980.21
545.58	1990.44
545.94	2000.33
546.29	2010.08
546.65	2019.91
547.01	2029.11
547.36	2037.78
547.72	2046.19
548.07	2054.03
548.43	2062.19
548.79	2070.24
549.14	2077.89
549.50	2085.23
549.86	2092.98
550.21	2100.37
550.57	2107.67
550.92	2114.23
551.28	2121.34
551.64	2128.33
551.99	2134.74
552.35	2140.83
552.70	2146.95
553.06	2153.03
553.41	2159.28
553.77	2165.31
554.13	2171.48
554.48	2177.67
554.84	2183.02
555.19	2188.38
555.55	2193.55
555.90	2197.99
556.26	2202.90
556.61	2207.44
556.97	2211.72
557.32	2215.76
557.68	2219.67
558.03	2223.92
558.39	2227.60
558.74	2232.17
559.10	2235.99
559.45	2239.67
559.81	2244.17
560.16	2248.19
560.52	2251.23
560.87	2254.75
561.23	2257.40
561.58	2260.25
561.94	2262.84
562.29	2265.25
562.64	2267.85
563.00	2270.30
563.35	2273.89
563.71	2276.76
564.06	2280.15
564.42	2282.88
564.77	2285.50
565.12	2287.81
565.48	2289.69
565.83	2291.65
566.19	2292.94
566.54	2293.92
566.89	2295.06
567.25	2295.49
567.60	2296.62
567.96	2298.30
568.31	2299.09
568.66	2300.14
569.02	2300.72
569.37	2300.99
569.72	2301.99
570.08	2302.28
570.43	2302.38
570.78	2301.67
571.14	2300.23
571.49	2298.91
571.84	2298.64
572.20	2297.46
572.55	2296.52
572.90	2294.84
573.26	2293.47
573.61	2291.81
573.96	2290.02
574.31	2287.09
574.67	2284.05
575.02	2280.50
575.37	2277.21
575.72	2273.33
576.08	2270.08
576.43	2266.77
576.78	2263.17
577.13	2259.99
577.49	2256.86
577.84	2253.42
578.19	2249.77
578.54	2246.14
578.90	2241.89
579.25	2236.30
579.60	2231.27
579.95	2226.36
580.30	2221.49
580.66	2216.26
581.01	2211.35
581.36	2206.56
581.71	2202.41
582.06	2197.96
582.42	2193.37
582.77	2188.08
583.12	2183.58
583.47	2178.78
583.82	2173.73
584.17	2168.53
584.53	2162.93
584.88	2157.20
585.23	2151.28
585.58	2145.77
585.93	2140.31
586.28	2135.42
586.63	2130.30
586.98	2125.24
587.34	2120.39
587.69	2115.51
588.04	2110.13
588.39	2104.34
588.74	2097.74
589.09	2091.54
589.44	2084.78
589.79	2078.90
590.14	2073.26
590.49	2066.61
590.84	2060.29
591.19	2054.37
591.54	2047.69
591.89	2040.19
592.25	2033.37
592.60	2026.14
592.95	2018.62
593.30	2011.24
593.65	2003.63
594.00	1996.59
594.35	1989.47
594.70	1981.44
595.05	1974.30
595.40	1967.08
595.75	1959.65
596.10	1953.34
596.45	1946.57
596.80	1940.45
597.15	1933.76
597.50	1926.58
597.85	1920.25
598.19	1913.49
598.54	1906.33
598.89	1899.89
599.24	1894.02
599.59	1887.37
599.94	1881.29
600.29	1874.88
600.64	1868.36
600.99	1861.01
601.34	1854.25
601.69	1847.18
602.04	1840.40
602.39	1832.94
602.74	1826.13
603.08	1819.33
603.43	1812.63
603.78	1805.42
604.13	1798.17
604.48	1790.80
604.83	1783.99
605.18	1776.92
605.53	1769.05
605.87	1761.02
606.22	1753.78
606.57	1745.96
606.92	1738.66
607.27	1731.41
607.62	1724.55
607.96	1717.23
608.31	1710.57
608.66	1702.98
609.01	1695.38
609.36	1687.66
609.70	1679.67
610.05	1671.45
610.40	1663.79
610.75	1655.44
611.10	1647.76
611.44	1639.34
611.79	1631.34
612.14	1622.68
612.49	1613.52
612.83	1605.05
613.18	1596.88
613.53	1588.65
613.88	1580.04
614.22	1571.75
614.57	1563.22
614.92	1555.08
615.27	1547.45
615.61	1539.12
615.96	1531.02
616.31	1523.41
616.65	1516.11
617.00	1508.54
617.35	1500.96
617.70	1492.61
618.04	1484.16
618.39	1475.78
618.74	1468.17
619.08	1459.97
619.43	1452.48
619.78	1445.65
620.12	1438.41
620.47	1430.85
620.82	1422.71
621.16	1415.28
621.51	1407.73
621.85	1400.16
622.20	1391.63
622.55	1383.34
622.89	1375.49
623.24	1367.88
623.59	1360.54
623.93	1352.95
624.28	1345.82
624.62	1338.33
624.97	1331.15
625.32	1324.43
625.66	1317.43
626.01	1310.22
626.35	1302.69
626.70	1294.79
627.04	1286.98
627.39	1279.24
627.73	1271.86
628.08	1264.98
628.43	1257.74
628.77	1250.27
629.12	1242.56
629.46	1235.47
629.81	1228.10
630.15	1220.84
630.50	1213.41
630.84	1205.17
631.19	1197.21
631.53	1189.68
631.88	1182.13
632.22	1174.57
632.57	1167.25
632.91	1159.80
633.26	1152.39
633.60	1145.10
633.95	1138.16
634.29	1131.15
634.64	1124.44
634.98	1117.11
635.32	1109.94
635.67	1103.33
636.01	1096.76
636.36	1089.96
636.70	1083.43
637.05	1076.87
637.39	1070.49
637.73	1064.04
638.08	1058.20
638.42	1052.22
638.77	1045.70
639.11	1039.11
639.45	1032.69
639.80	1025.97
640.14	1019.54
640.49	1013.02
640.83	1006.76
641.17	1000.39
641.52	994.08
641.86	987.78
642.20	981.90
642.55	975.60
642.89	969.09
643.23	962.59
643.58	956.93
643.92	950.67
644.26	944.53
644.61	938.42
644.95	932.33
645.29	925.70
645.64	918.93
645.98	912.69
646.32	906.87
646.66	900.74
647.01	895.03
647.35	889.23
647.69	883.42
648.04	877.77
648.38	872.03
648.72	866.02
649.06	859.90
649.41	854.06
649.75	848.07
650.09	842.15
650.43	836.29
650.78	830.14
651.12	824.24
651.46	818.56
651.80	812.79
652.14	807.49
652.49	802.11
652.83	797.05
653.17	791.22
653.51	785.45
653.85	780.16
654.20	774.43
654.54	768.46
654.88	762.76
655.22	756.91
655.56	751.17
655.90	745.75
656.25	740.45
656.59	735.09
656.93	730.00
657.27	724.77
657.61	719.37
657.95	714.17
658.29	709.04
658.64	703.75
658.98	698.54
659.32	693.03
659.66	687.82
660.00	682.42
660.34	677.56
660.68	672.65
661.02	667.57
661.36	662.87
661.70	658.41
662.05	654.01
662.39	649.66
662.73	645.24
663.07	640.80
663.41	636.38
663.75	631.86
664.09	627.30
664.43	622.93
664.77	618.80
665.11	614.55
665.45	610.44
665.79	606.31
666.13	602.13
666.47	598.02
666.81	593.90
667.15	589.76
667.49	585.86
667.83	582.03
668.17	578.12
668.51	574.04
668.85	570.03
669.19	566.21
669.53	562.37
669.87	558.48
670.21	554.72
670.55	551.09
670.89	547.71
671.23	544.31
671.57	540.80
671.91	537.27
672.25	533.81
672.58	530.30
672.92	526.96
673.26	523.83
673.60	520.70
673.94	517.55
674.28	514.71
674.62	511.80
674.96	508.68
675.30	505.72
675.64	502.86
675.97	500.09
676.31	497.14
676.65	494.25
676.99	491.59
677.33	488.77
677.67	485.90
678.01	482.85
678.34	479.84
678.68	476.96
679.02	474.16
679.36	471.37
679.70	468.68
680.04	465.90
680.37	463.00
680.71	460.19
681.05	457.62
681.39	454.90
681.73	452.18
682.06	449.72
682.40	447.20
682.74	444.67
683.08	442.08
683.42	439.57
683.75	437.05
684.09	434.50
684.43	432.04
684.77	429.65
685.10	427.28
685.44	425.02
685.78	422.77
686.12	420.50
686.45	418.28
686.79	415.99
687.13	413.85
687.46	411.71
687.80	409.60
688.14	407.40
688.48	405.28
688.81	403.06
689.15	400.87
689.49	398.77
689.82	396.65
690.16	394.59
690.50	392.58
690.83	390.63
691.17	388.61
691.51	386.72
691.84	384.86
692.18	382.97
692.52	380.99
692.85	379.07
693.19	377.20
693.52	375.35
693.86	373.51
694.20	371.73
694.53	369.94
694.87	368.05
695.21	366.23
695.54	364.44
695.88	362.67
696.21	360.93
696.55	359.23
696.88	357.57
697.22	355.91
697.56	354.33
697.89	352.68
698.23	351.10
698.56	349.52
698.90	347.92
699.23	346.24
699.57	344.71
699.90	343.18
700.24	341.64
700.58	340.10
700.91	338.62
701.25	337.17
701.58	335.78
701.92	334.45
702.25	333.09
702.59	331.72
702.92	330.40
703.26	329.14
703.59	327.85
703.93	326.63
704.26	325.39
704.60	324.08
704.93	322.85
705.26	321.63
705.60	320.37
705.93	319.17
706.27	318.12
706.60	317.04
706.94	315.89
707.27	314.74
707.61	313.67
707.94	312.65
708.27	311.54
708.61	310.47
708.94	309.43
709.28	308.46
709.61	307.51
709.94	306.57
710.28	305.53
710.61	304.52
710.95	303.47
711.28	302.56
711.61	301.60
711.95	300.64
712.28	299.69
712.61	298.76
712.95	297.85
713.28	296.99
713.61	296.09
713.95	295.25
714.28	294.43
714.61	293.58
714.95	292.74
715.28	291.90
715.61	291.03
715.95	290.20
716.28	289.33
716.61	288.51
716.95	287.73
717.28	287.03
717.61	286.31
717.94	285.59
718.28	284.76
718.61	284.05
718.94	283.37
719.27	282.69
719.61	282.05
719.94	281.43
720.27	280.69
720.60	280.05
720.94	279.41
721.27	278.83
721.60	278.30
721.93	277.69
722.27	277.14
722.60	276.59
722.93	276.02
723.26	275.45
723.59	274.87
723.93	274.27
724.26	273.71
724.59	273.13
724.92	272.59
725.25	272.11
725.59	271.61
725.92	271.11
726.25	270.62
726.58	270.11
726.91	269.65
727.24	269.20
727.57	268.71
727.91	268.23
728.24	267.75
728.57	267.21
728.90	266.75
729.23	266.22
729.56	265.80
729.89	265.33
730.22	264.86
730.55	264.42
730.89	263.99
731.22	263.55
731.55	263.14
731.88	262.73
732.21	262.27
732.54	261.82
732.87	261.34
733.20	260.91
733.53	260.51
733.86	260.06
734.19	259.66
734.52	259.30
734.85	258.95
735.18	258.50
735.51	258.16
735.84	257.79
736.17	257.47
736.50	257.05
736.83	256.82
737.16	256.52
737.49	256.17
737.82	255.80
738.15	255.43
738.48	255.05
738.81	254.74
739.14	254.40
739.47	254.11
739.80	253.84
740.13	253.55
740.46	253.21
740.79	252.89
741.12	252.60
741.45	252.23
741.78	251.90
742.11	251.67
742.44	251.34
742.77	251.04
743.10	250.71
743.43	250.40
743.75	249.99
744.08	249.80
744.41	249.57
744.74	249.32
745.07	249.09
745.40	248.86
745.73	248.61
746.06	248.36
746.39	248.06
746.71	247.77
747.04	247.50
747.37	247.28
747.70	247.02
748.03	246.75
748.36	246.59
748.68	246.32
749.01	246.04
749.34	245.82
749.67	245.57
750.00	245.38
750.33	245.23
750.65	245.04
750.98	244.71
751.31	244.46
751.64	244.24
751.97	244.02
752.29	243.82
752.62	243.55
752.95	243.33
753.28	243.14
753.60	242.91
753.93	242.73
754.26	242.53
754.59	242.34
754.91	242.15
755.24	241.91
755.57	241.73
755.90	241.57
756.22	241.36
756.55	241.18
756.88	240.96
757.20	240.72
757.53	240.51
757.86	240.34
758.19	240.19
758.51	240.03
758.84	239.82
759.17	239.61
759.49	239.46
759.82	239.35
760.15	239.19
760.47	239.06
760.80	238.89
761.13	238.76
761.45	238.57
761.78	238.42
762.11	238.28
762.43	238.12
762.76	237.98
763.08	237.86
763.41	237.71
763.74	237.56
764.06	237.46
764.39	237.34
764.71	237.20
765.04	237.06
765.37	236.92
765.69	236.83
766.02	236.73
766.34	236.62
766.67	236.49
767.00	236.38
767.32	236.33
767.65	236.28
767.97	236.18
768.30	236.08
768.62	235.97
768.95	235.85
769.27	235.79
769.60	235.69
769.92	235.60
770.25	235.49
770.57	235.41
770.90	235.29
771.22	235.20
771.55	235.09
771.87	234.97
772.20	234.86
772.52	234.84
772.85	234.86
773.17	234.78
773.50	234.67
773.82	234.58
774.15	234.42
774.47	234.30
774.80	234.19
775.12	234.10
775.45	234.01
775.77	233.96
776.09	233.86
776.42	233.79
776.74	233.72
777.07	233.63
777.39	233.55
777.72	233.47
778.04	233.40
778.36	233.33
778.69	233.29
779.01	233.27
779.33	233.09
779.66	232.91
779.98	232.83
780.31	232.80
780.63	232.78
780.95	232.75
781.28	232.68
781.60	232.61
781.92	232.56
782.25	232.52
782.57	232.42
782.89	232.35
783.22	232.32
783.54	232.23
783.86	232.21
784.19	232.16
784.51	232.14
784.83	232.08
785.16	232.01
785.48	231.96
785.80	231.89
786.12	231.87
786.45	231.84
786.77	231.78
787.09	231.73
787.42	231.65
787.74	231.59
788.06	231.54
788.38	231.51
788.71	231.46
789.03	231.41
789.35	231.41
789.67	231.36
789.99	231.34
790.32	231.31
790.64	231.28
790.96	231.27
791.28	231.18
791.61	231.16
791.93	231.12
792.25	231.08
792.57	231.10
792.89	231.00
793.21	230.98
793.54	230.96
793.86	230.88
794.18	230.83
794.50	230.77
794.82	230.70
795.14	230.67
795.47	230.63
795.79	230.61
796.11	230.55
796.43	230.53
796.75	230.46
797.07	230.44
797.39	230.39
797.71	230.30
798.04	230.28
798.36	230.26
798.68	230.25
799.00	230.23
799.32	230.16
799.64	230.16
799.96	230.09
800.28	230.06
800.60	230.04
800.92	230.04
801.24	230.01
801.56	230.00
801.89	229.98
802.21	229.95
802.53	229.88
802.85	229.82
803.17	229.81
803.49	229.76
803.81	229.68
804.13	229.64
804.45	229.59
804.77	229.57
805.09	229.51
805.41	229.46
805.73	229.39
806.05	229.32
806.37	229.30
806.69	229.31
807.01	229.28
807.33	229.25
807.65	229.19
807.97	229.22
808.28	229.17
808.60	229.12
808.92	229.11
809.24	229.17
809.56	229.16
809.88	229.10
810.20	229.11
810.52	229.12
810.84	229.09
811.16	229.11
811.48	229.05
811.80	229.09
812.12	229.10
812.43	229.09
812.75	229.08
813.07	229.06
813.39	229.05
813.71	229.03
814.03	229.02
814.35	229.00
814.67	228.95
814.98	228.96
815.30	228.95
815.62	228.90
815.94	228.82
816.26	228.84
816.58	228.81
816.89	228.79
817.21	228.79
817.53	228.81
817.85	228.81
818.17	228.80
818.48	228.73
818.80	228.74
819.12	228.71
819.44	228.68
819.76	228.65
820.07	228.62
820.39	228.62
820.71	228.60
821.03	228.58
821.34	228.51
821.66	228.49
821.98	228.48
822.30	228.46
822.61	228.52
822.93	228.48
823.25	228.48
823.57	228.45
823.88	228.45
824.20	228.40
824.52	228.40
824.83	228.40
825.15	228.38
825.47	228.35
825.79	228.38
826.10	228.40
826.42	228.40
826.74	228.39
827.05	228.35
827.37	228.35
827.69	228.36
828.00	228.39
828.32	228.39
828.64	228.39
828.95	228.47
829.27	228.40
829.58	228.37
829.90	228.37
830.22	228.38
830.53	228.34
830.85	228.34
831.17	228.29
831.48	228.29
831.80	228.28
832.11	228.26
832.43	228.19
832.75	228.18
833.06	228.18
833.38	228.17
833.69	228.15
834.01	228.15
834.32	228.09
834.64	228.07
834.96	228.03
835.27	228.00
835.59	227.88
835.90	227.85
836.22	227.85
836.53	227.82
836.85	227.78
837.16	227.86
837.48	227.85
837.79	227.87
838.11	227.83
838.42	227.84
838.74	227.81
839.05	227.80
839.37	227.77
839.68	227.71
840.00	227.65
840.31	227.64
840.63	227.60
840.94	227.59
841.26	227.56
841.57	227.56
841.88	227.54
842.20	227.58
842.51	227.59
842.83	227.58
843.14	227.64
843.46	227.65
843.77	227.58
844.08	227.56
844.40	227.50
844.71	227.48
845.03	227.48
845.34	227.50
845.65	227.50
845.97	227.49
846.28	227.49
846.60	227.51
846.91	227.51
847.22	227.50
847.54	227.52
847.85	227.55
848.16	227.57
848.48	227.54
848.79	227.55
849.10	227.53
849.42	227.52
849.73	227.44
850.04	227.42
850.36	227.37
850.67	227.39
850.98	227.38
851.30	227.37
851.61	227.32
851.92	227.32
852.23	227.34
852.55	227.32
852.86	227.36
853.17	227.35
853.49	227.38
853.80	227.41
854.11	227.42
854.42	227.42
854.74	227.37
855.05	227.41
855.36	227.39
855.67	227.40
855.99	227.39
856.30	227.52
856.61	227.52
856.92	227.52
857.23	227.51
857.55	227.53
857.86	227.55
858.17	227.58
858.48	227.55
858.79	227.55
859.11	227.57
859.42	227.55
859.73	227.56
860.04	227.53
860.35	227.48
860.66	227.45
860.98	227.46
861.29	227.49
861.60	227.47
861.91	227.48
862.22	227.47
862.53	227.46
862.84	227.34
863.16	227.37
863.47	227.35
863.78	227.35
864.09	227.35
864.40	227.36
864.71	227.36
865.02	227.37
865.33	227.36
865.64	227.34
865.95	227.34
866.27	227.40
866.58	227.39
866.89	227.43
867.20	227.43
867.51	227.37
867.82	227.39
868.13	227.39
868.44	227.36
868.75	227.33
869.06	227.33
869.37	227.34
869.68	227.30
869.99	227.31
870.30	227.31
870.61	227.30
870.92	227.26
871.23	227.23
871.54	227.22
871.85	227.23
872.16	227.27
872.47	227.25
872.78	227.21
873.09	227.25
873.40	227.21
873.71	227.18
874.02	227.21
874.33	227.16
874.64	227.18
874.95	227.22
875.26	227.22
875.56	227.20
875.87	227.18
876.18	227.17
876.49	227.29
876.80	227.28
877.11	227.25
877.42	227.27
877.73	227.29
878.04	227.27
878.35	227.25
878.66	227.23
878.96	227.23
879.27	227.19
879.58	227.16
879.89	227.16
880.20	227.20
880.51	227.20
880.82	227.19
881.12	227.18
881.43	227.13
881.74	227.11
882.05	227.12
882.36	227.13
882.67	227.16
882.97	227.03
883.28	227.03
883.59	227.04
883.90	227.04
884.21	227.05
884.51	227.07
884.82	227.06
885.13	227.05
885.44	227.05
885.74	227.07
886.05	227.01
886.36	227.04
886.67	226.99
886.98	226.99
887.28	227.03
887.59	226.98
887.90	227.00
888.20	226.98
888.51	226.98
888.82	226.94
889.13	226.94
889.43	227.00
889.74	226.99
890.05	227.01
890.35	227.01
890.66	226.98
890.97	226.98
891.28	226.97
891.58	226.98
891.89	226.95
892.20	226.88
892.50	226.93
892.81	226.88
893.12	226.88
893.42	226.86
893.73	226.86
894.04	226.91
894.34	226.93
894.65	226.96
894.95	226.97
895.26	226.98
895.57	227.01
895.87	226.92
896.18	226.93
896.48	226.91
896.79	226.90
897.10	226.93
897.40	226.91
897.71	226.94
898.01	226.94
898.32	226.96
898.63	227.02
898.93	226.96
899.24	227.01
899.54	227.00
899.85	227.00
900.15	226.98
900.46	226.95
900.76	226.90
901.07	226.90
901.38	226.90
901.68	226.91
901.99	226.82
902.29	226.83
902.60	226.81
902.90	226.81
903.21	226.78
903.51	226.76
903.82	226.76
904.12	226.73
904.43	226.75
904.73	226.73
905.03	226.74
905.34	226.85
905.64	226.82
905.95	226.82
906.25	226.82
906.56	226.83
906.86	226.83
907.17	226.89
907.47	226.89
907.77	226.88
908.08	226.88
908.38	226.91
908.69	226.91
908.99	226.91
909.30	226.90
909.60	226.93
909.90	226.92
910.21	226.90
910.51	226.89
910.81	226.87
911.12	226.89
911.42	226.89
911.73	226.80
912.03	226.83
912.33	226.85
912.64	226.86
912.94	226.86
913.24	226.87
913.55	226.86
913.85	226.84
914.15	226.87
914.46	226.86
914.76	226.86
915.06	226.89
915.37	226.91
915.67	226.93
915.97	226.92
916.27	226.94
916.58	226.93
916.88	226.96
917.18	226.93
917.49	226.99
917.79	227.01
918.09	227.04
918.39	227.06
918.70	227.07
919.00	227.06
919.30	227.09
919.60	227.07
919.91	227.06
920.21	227.08
920.51	227.05
920.81	227.05
921.12	227.06
921.42	227.04
921.72	227.01
922.02	226.98
922.32	227.02
922.63	227.01
922.93	227.08
923.23	227.05
923.53	227.04
923.83	226.97
924.13	226.98
924.44	226.94
924.74	226.98
925.04	226.99
925.34	226.98
925.64	226.93
925.94	226.93
926.24	226.99
926.55	226.99
926.85	227.02
927.15	227.02
927.45	227.04
927.75	227.04
928.05	227.07
928.35	227.04
928.65	227.02
928.95	227.03
929.26	226.98
929.56	227.04
929.86	227.07
930.16	227.07
930.46	227.04
930.76	227.04
931.06	226.97
931.36	226.93
931.66	226.96
931.96	226.99
932.26	226.99
932.56	226.96
932.86	226.95
933.16	226.92
933.46	226.91
933.76	226.88
934.06	226.92
934.36	226.96
934.66	227.00
934.96	226.99
935.26	226.98
935.56	226.98
935.86	226.92
936.16	226.90
936.46	226.91
936.76	226.91
937.06	226.89
937.36	226.87
937.66	226.90
937.96	226.89
938.26	226.85
938.56	226.83
938.86	226.81
939.16	226.81
939.46	226.84
939.76	226.84
940.06	226.84
940.35	226.81
940.65	226.71
940.95	226.70
941.25	226.67
941.55	226.64
941.85	226.65
942.15	226.69
942.45	226.70
942.75	226.68
943.04	226.68
943.34	226.68
943.64	226.69
943.94	226.66
944.24	226.67
944.54	226.68
944.84	226.66
945.13	226.66
945.43	226.63
945.73	226.62
946.03	226.61
946.33	226.61
946.62	226.58
946.92	226.64
947.22	226.65
947.52	226.65
947.82	226.68
948.11	226.63
948.41	226.59
948.71	226.56
949.01	226.58
949.31	226.57
949.60	226.59
949.90	226.59
950.20	226.59
950.50	226.59
950.79	226.59
951.09	226.62
951.39	226.61
951.69	226.61
951.98	226.63
952.28	226.62
952.58	226.59
952.87	226.57
953.17	226.54
953.47	226.52
953.76	226.53
954.06	226.51
954.36	226.53
954.66	226.55
954.95	226.60
955.25	226.58
955.55	226.60
955.84	226.61
956.14	226.62
956.44	226.62
956.73	226.58
957.03	226.57
957.32	226.56
957.62	226.57
957.92	226.59
958.21	226.60
958.51	226.73
958.81	226.75
959.10	226.79
959.40	226.80
959.69	226.82
959.99	226.86
960.29	226.87
960.58	226.88
960.88	226.91
961.17	226.88
961.47	226.87
961.76	226.85
962.06	226.83
962.36	226.83
962.65	226.81
962.95	226.82
963.24	226.80
963.54	226.82
963.83	226.78
964.13	226.78
964.42	226.74
964.72	226.67
965.01	226.68
965.31	226.65
965.60	226.62
965.90	226.69
966.19	226.67
966.49	226.67
966.78	226.66
967.08	226.65
967.37	226.64
967.67	226.65
967.96	226.68
968.26	226.67
968.55	226.66
968.85	226.69
969.14	226.72
969.43	226.72
969.73	226.72
970.02	226.75
970.32	226.76
970.61	226.76
970.91	226.68
971.20	226.68
971.49	226.68
971.79	226.73
972.08	226.64
972.38	226.63
972.67	226.64
972.96	226.64
973.26	226.60
973.55	226.66
973.85	226.67
974.14	226.65
974.43	226.66
974.73	226.65
975.02	226.62
975.31	226.59
975.61	226.60
975.90	226.56
976.19	226.55
976.49	226.57
976.78	226.57
977.07	226.58
977.37	226.59
977.66	226.58
977.95	226.55
978.24	226.60
978.54	226.64
978.83	226.61
979.12	226.64
979.42	226.65
979.71	226.63
980.00	226.61
980.29	226.65
980.59	226.66
980.88	226.70
981.17	226.71
981.46	226.74
981.76	226.74
982.05	226.81
982.34	226.83
982.63	226.81
982.93	226.79
983.22	226.84
983.51	226.86
983.80	226.87
984.09	226.89
984.39	226.88
984.68	226.83
984.97	226.87
985.26	226.86
985.55	226.87
985.85	226.85
986.14	226.88
986.43	226.86
986.72	226.87
987.01	226.84
987.30	226.84
987.59	226.84
987.89	226.88
988.18	226.85
988.47	226.86
988.76	226.85
989.05	226.84
989.34	226.80
989.63	226.80
989.92	226.83
990.22	226.79
990.51	226.75
990.80	226.79
991.09	226.78
991.38	226.77
991.67	226.78
991.96	226.81
992.25	226.78
992.54	226.75
992.83	226.73
993.12	226.72
993.41	226.76
993.70	226.79
993.99	226.81
994.28	226.80
994.58	226.80
994.87	226.75
995.16	226.77
995.45	226.77
995.74	226.77
996.03	226.74
996.32	226.78
996.61	226.77
996.90	226.78
997.19	226.78
997.48	226.80
997.77	226.76
998.06	226.72
998.34	226.71
998.63	226.72
998.92	226.71
999.21	226.72
999.50	226.68
999.79	226.63
1000.08	226.60
1000.37	226.61
1000.66	226.61
1000.95	226.62
1001.24	226.63
1001.53	226.65
1001.82	226.62
1002.11	226.61
1002.40	226.61
1002.68	226.64
1002.97	226.67
1003.26	226.64
1003.55	226.63
1003.84	226.63
1004.13	226.67
1004.42	226.68
1004.71	226.67
1004.99	226.64
1005.28	226.64
1005.57	226.68
1005.86	226.66
1006.15	226.64
1006.44	226.59
1006.72	226.56
1007.01	226.56
1007.30	226.59
1007.59	226.57
1007.88	226.57
1008.17	226.58
1008.45	226.51
1008.74	226.51
1009.03	226.44
1009.32	226.42
1009.60	226.39
1009.89	226.38
1010.18	226.31
1010.47	226.27
1010.76	226.29
1011.04	226.32
1011.33	226.31
1011.62	226.30
1011.91	226.35
1012.19	226.34
1012.48	226.35
1012.77	226.34
1013.05	226.40
1013.34	226.39
1013.63	226.39
1013.92	226.38
1014.20	226.44
1014.49	226.45
1014.78	226.44
1015.06	226.40
1015.35	226.44
1015.64	226.53
1015.92	226.56
1016.21	226.56
1016.50	226.57
1016.78	226.57
1017.07	226.57
1017.36	226.56
1017.64	226.55
1017.93	226.53
1018.22	226.52
1018.50	226.54
1018.79	226.57
1019.08	226.54
1019.36	226.53
1019.65	226.50
1019.93	226.54
1020.22	226.51
1020.51	226.58
1020.79	226.56
1021.08	226.36
1021.36	226.49
1021.65	226.64
1021.94	226.86
1022.22	226.86
1022.51	225.94
1022.79	227.20
1023.08	226.69
1023.36	227.52
1023.65	226.12
>>>>>End Processed Spectral Data<<<<<
