SpectraSuite Data File
++++++++++++++++++++++++++++++++++++
Date: Fri Feb 01 15:43:59 EST 2013
User: group
Dark Spectrum Present: No
Reference Spectrum Present: No
Number of Sampled Component Spectra: 1
Spectrometers: USB2E7196
Integration Time (usec): 35000 (USB2E7196)
Spectra Averaged: 100 (USB2E7196)
Boxcar Smoothing: 10 (USB2E7196)
Correct for Electrical Dark: No (USB2E7196)
Strobe/Lamp Enabled: No (USB2E7196)
Correct for Detector Non-linearity: No (USB2E7196)
Correct for Stray Light: No (USB2E7196)
Number of Pixels in Processed Spectrum: 2048
>>>>>Begin Processed Spectral Data<<<<<
339.09	0.00
339.48	214.26
339.86	215.68
340.24	217.30
340.63	219.07
341.01	221.59
341.39	221.04
341.78	223.03
342.16	223.21
342.54	224.31
342.93	212.81
343.31	223.59
343.69	224.14
344.07	224.62
344.46	225.05
344.84	225.42
345.22	225.66
345.60	225.94
345.99	226.10
346.37	226.28
346.75	226.39
347.13	226.48
347.52	226.54
347.90	226.63
348.28	226.67
348.66	226.74
349.05	226.76
349.43	226.79
349.81	226.85
350.19	226.93
350.57	226.99
350.96	227.05
351.34	227.13
351.72	227.25
352.10	227.36
352.48	227.46
352.87	227.50
353.25	227.60
353.63	227.64
354.01	227.78
354.39	227.86
354.77	227.96
355.15	228.07
355.54	228.16
355.92	228.20
356.30	228.28
356.68	228.43
357.06	228.52
357.44	228.61
357.82	228.65
358.20	228.73
358.58	228.79
358.97	228.87
359.35	228.97
359.73	229.04
360.11	229.09
360.49	229.16
360.87	229.24
361.25	229.28
361.63	229.38
362.01	229.37
362.39	229.38
362.77	229.40
363.15	229.47
363.53	229.45
363.91	229.48
364.29	229.48
364.67	229.37
365.05	229.38
365.43	229.41
365.81	229.43
366.19	229.44
366.57	229.47
366.95	229.46
367.33	229.39
367.71	229.39
368.09	229.40
368.47	229.36
368.85	229.36
369.23	229.35
369.61	229.28
369.99	229.32
370.37	229.31
370.75	229.35
371.13	229.24
371.51	229.23
371.89	229.23
372.27	229.19
372.65	229.16
373.03	229.12
373.41	229.02
373.78	228.96
374.16	228.88
374.54	228.79
374.92	228.75
375.30	228.72
375.68	228.60
376.06	228.53
376.44	228.47
376.82	228.37
377.19	228.29
377.57	228.23
377.95	228.11
378.33	228.04
378.71	227.91
379.09	227.85
379.47	227.75
379.84	227.64
380.22	227.55
380.60	227.47
380.98	227.41
381.36	227.37
381.73	227.27
382.11	227.22
382.49	227.15
382.87	227.06
383.25	226.98
383.62	227.03
384.00	226.96
384.38	226.90
384.76	226.84
385.13	226.83
385.51	226.78
385.89	226.73
386.27	226.68
386.64	226.63
387.02	226.58
387.40	226.57
387.78	226.55
388.15	226.54
388.53	226.49
388.91	226.47
389.29	226.40
389.66	226.39
390.04	226.41
390.42	226.44
390.79	226.45
391.17	226.45
391.55	226.34
391.92	226.33
392.30	226.33
392.68	226.34
393.05	226.34
393.43	226.33
393.81	226.36
394.18	226.38
394.56	226.40
394.94	226.45
395.31	226.46
395.69	226.51
396.06	226.53
396.44	226.59
396.82	226.60
397.19	226.71
397.57	226.76
397.95	226.78
398.32	226.79
398.70	226.86
399.07	226.94
399.45	226.99
399.82	227.04
400.20	227.11
400.58	227.17
400.95	227.22
401.33	227.34
401.70	227.47
402.08	227.55
402.45	227.65
402.83	227.73
403.20	227.84
403.58	227.92
403.95	228.04
404.33	228.16
404.71	228.27
405.08	228.46
405.46	228.60
405.83	228.74
406.21	228.90
406.58	229.05
406.96	229.19
407.33	229.38
407.70	229.57
408.08	229.85
408.45	230.07
408.83	230.30
409.20	230.49
409.58	230.67
409.95	230.93
410.33	231.18
410.70	231.43
411.08	231.73
411.45	232.04
411.82	232.33
412.20	232.68
412.57	233.10
412.95	233.36
413.32	233.75
413.69	234.17
414.07	234.60
414.44	235.07
414.82	235.57
415.19	236.10
415.56	236.68
415.94	237.21
416.31	237.85
416.68	238.47
417.06	239.16
417.43	239.82
417.81	240.60
418.18	241.37
418.55	242.22
418.93	243.07
419.30	243.98
419.67	244.95
420.04	245.92
420.42	246.89
420.79	248.10
421.16	249.28
421.54	250.46
421.91	251.66
422.28	252.92
422.66	254.23
423.03	255.51
423.40	256.83
423.77	258.25
424.15	259.71
424.52	261.21
424.89	262.84
425.26	264.39
425.64	265.86
426.01	267.46
426.38	269.15
426.75	270.83
427.13	272.55
427.50	274.32
427.87	276.17
428.24	278.05
428.61	279.81
428.99	281.73
429.36	283.82
429.73	285.91
430.10	287.92
430.47	289.99
430.85	292.10
431.22	294.33
431.59	296.70
431.96	298.90
432.33	301.43
432.70	303.84
433.08	306.64
433.45	309.29
433.82	311.89
434.19	314.79
434.56	317.64
434.93	320.31
435.30	322.97
435.68	325.89
436.05	328.73
436.42	331.49
436.79	334.02
437.16	336.76
437.53	339.63
437.90	342.43
438.27	345.19
438.64	348.05
439.01	350.60
439.38	352.82
439.75	354.95
440.13	357.38
440.50	359.71
440.87	361.60
441.24	363.53
441.61	365.72
441.98	367.13
442.35	368.90
442.72	370.75
443.09	372.53
443.46	373.52
443.83	374.11
444.20	374.64
444.57	375.52
444.94	375.79
445.31	376.08
445.68	376.42
446.05	376.48
446.42	376.12
446.79	375.72
447.16	375.29
447.53	375.02
447.90	373.90
448.27	372.69
448.64	371.08
449.01	369.90
449.37	367.90
449.74	366.01
450.11	363.73
450.48	361.26
450.85	358.70
451.22	356.54
451.59	354.48
451.96	352.54
452.33	349.89
452.70	347.51
453.07	344.70
453.43	341.85
453.80	339.04
454.17	336.32
454.54	333.79
454.91	331.09
455.28	328.42
455.65	325.88
456.02	323.44
456.38	321.24
456.75	318.58
457.12	316.35
457.49	314.14
457.86	311.96
458.23	310.09
458.59	308.07
458.96	305.99
459.33	304.12
459.70	302.23
460.07	300.67
460.43	298.95
460.80	297.30
461.17	295.82
461.54	294.31
461.91	292.88
462.27	291.41
462.64	290.14
463.01	288.77
463.38	287.47
463.74	286.10
464.11	284.96
464.48	283.96
464.85	282.83
465.21	281.97
465.58	281.06
465.95	279.97
466.32	279.05
466.68	278.14
467.05	277.27
467.42	276.39
467.78	275.50
468.15	274.62
468.52	273.95
468.88	273.06
469.25	272.33
469.62	271.72
469.98	271.04
470.35	270.38
470.72	269.79
471.08	269.15
471.45	268.63
471.82	268.09
472.18	267.48
472.55	267.02
472.92	266.50
473.28	266.02
473.65	265.57
474.02	265.17
474.38	264.77
474.75	264.43
475.11	264.09
475.48	263.80
475.85	263.57
476.21	263.37
476.58	263.24
476.94	263.09
477.31	262.91
477.67	262.79
478.04	262.70
478.41	262.66
478.77	262.71
479.14	262.65
479.50	262.68
479.87	262.77
480.23	262.86
480.60	262.93
480.96	263.04
481.33	263.28
481.69	263.45
482.06	263.70
482.42	263.95
482.79	264.21
483.15	264.59
483.52	264.96
483.88	265.30
484.25	265.69
484.61	266.09
484.98	266.57
485.34	267.13
485.71	267.71
486.07	268.34
486.44	268.90
486.80	269.62
487.17	270.37
487.53	271.18
487.90	272.03
488.26	272.94
488.62	273.93
488.99	274.89
489.35	275.97
489.72	277.08
490.08	278.23
490.44	279.48
490.81	280.75
491.17	282.07
491.54	283.55
491.90	285.08
492.26	286.75
492.63	288.51
492.99	290.26
493.36	292.16
493.72	294.19
494.08	296.29
494.45	298.54
494.81	300.87
495.17	303.30
495.54	305.85
495.90	308.59
496.26	311.40
496.63	314.32
496.99	317.43
497.35	320.68
497.72	324.07
498.08	327.62
498.44	331.29
498.80	335.23
499.17	339.24
499.53	343.38
499.89	347.76
500.26	352.22
500.62	356.89
500.98	361.84
501.34	366.90
501.71	372.25
502.07	377.67
502.43	383.27
502.79	389.12
503.16	395.20
503.52	401.42
503.88	407.84
504.24	414.50
504.60	421.35
504.97	428.50
505.33	435.86
505.69	443.53
506.05	451.35
506.41	459.27
506.78	467.45
507.14	476.00
507.50	484.72
507.86	493.75
508.22	502.98
508.59	512.22
508.95	521.85
509.31	531.65
509.67	541.76
510.03	552.06
510.39	562.56
510.75	573.35
511.12	584.24
511.48	595.52
511.84	607.00
512.20	618.52
512.56	630.48
512.92	642.70
513.28	655.07
513.64	667.55
514.00	680.27
514.37	693.23
514.73	706.33
515.09	719.37
515.45	732.69
515.81	746.24
516.17	760.24
516.53	774.36
516.89	788.56
517.25	802.81
517.61	817.22
517.97	831.68
518.33	846.14
518.69	860.92
519.05	875.89
519.41	891.00
519.77	906.58
520.13	922.09
520.49	937.46
520.85	952.92
521.21	968.64
521.57	984.96
521.93	1000.69
522.29	1017.08
522.65	1033.32
523.01	1049.58
523.37	1065.70
523.73	1081.77
524.09	1097.86
524.45	1114.18
524.81	1130.78
525.17	1147.70
525.53	1164.63
525.89	1181.51
526.25	1198.41
526.61	1214.87
526.97	1231.68
527.33	1248.14
527.68	1264.68
528.04	1281.11
528.40	1297.75
528.76	1314.78
529.12	1331.37
529.48	1348.39
529.84	1364.33
530.20	1380.87
530.56	1397.86
530.91	1415.21
531.27	1432.12
531.63	1448.62
531.99	1465.24
532.35	1481.14
532.71	1496.88
533.07	1513.17
533.42	1529.05
533.78	1545.16
534.14	1561.51
534.50	1576.82
534.86	1592.78
535.21	1607.97
535.57	1624.04
535.93	1639.54
536.29	1654.29
536.65	1669.30
537.00	1683.95
537.36	1699.18
537.72	1713.78
538.08	1728.15
538.44	1742.01
538.79	1755.82
539.15	1769.42
539.51	1783.22
539.87	1797.76
540.22	1811.64
540.58	1825.36
540.94	1838.68
541.29	1851.52
541.65	1864.12
542.01	1877.39
542.37	1889.61
542.72	1902.06
543.08	1913.67
543.44	1926.05
543.79	1937.44
544.15	1948.40
544.51	1960.01
544.87	1971.03
545.22	1981.93
545.58	1992.20
545.94	2001.87
546.29	2011.72
546.65	2021.57
547.01	2030.69
547.36	2039.33
547.72	2047.76
548.07	2055.54
548.43	2063.73
548.79	2071.77
549.14	2079.29
549.50	2086.62
549.86	2094.36
550.21	2101.62
550.57	2108.84
550.92	2115.33
551.28	2122.27
551.64	2129.30
551.99	2135.86
552.35	2142.03
552.70	2148.21
553.06	2154.15
553.41	2160.58
553.77	2166.55
554.13	2172.59
554.48	2178.72
554.84	2184.03
555.19	2189.33
555.55	2194.57
555.90	2199.07
556.26	2203.88
556.61	2208.74
556.97	2213.00
557.32	2217.04
557.68	2221.23
558.03	2225.70
558.39	2229.49
558.74	2234.10
559.10	2237.98
559.45	2241.67
559.81	2245.96
560.16	2249.68
560.52	2252.91
560.87	2256.23
561.23	2258.97
561.58	2261.99
561.94	2264.48
562.29	2267.04
562.64	2269.71
563.00	2272.37
563.35	2275.84
563.71	2279.08
564.06	2282.20
564.42	2285.04
564.77	2287.56
565.12	2289.77
565.48	2291.52
565.83	2293.33
566.19	2294.65
566.54	2295.60
566.89	2296.63
567.25	2297.24
567.60	2298.56
567.96	2300.28
568.31	2301.30
568.66	2302.39
569.02	2302.97
569.37	2303.26
569.72	2304.02
570.08	2304.10
570.43	2304.10
570.78	2303.54
571.14	2301.93
571.49	2300.48
571.84	2300.10
572.20	2298.93
572.55	2297.80
572.90	2296.34
573.26	2294.83
573.61	2293.22
573.96	2291.38
574.31	2288.49
574.67	2285.40
575.02	2281.74
575.37	2278.17
575.72	2274.19
576.08	2270.92
576.43	2267.50
576.78	2263.90
577.13	2260.72
577.49	2257.70
577.84	2254.06
578.19	2250.32
578.54	2246.66
578.90	2242.54
579.25	2236.97
579.60	2232.08
579.95	2227.07
580.30	2221.87
580.66	2216.80
581.01	2211.77
581.36	2206.77
581.71	2202.43
582.06	2197.95
582.42	2193.50
582.77	2188.30
583.12	2183.75
583.47	2178.87
583.82	2173.94
584.17	2168.75
584.53	2163.16
584.88	2157.50
585.23	2151.72
585.58	2146.19
585.93	2140.72
586.28	2135.86
586.63	2130.74
586.98	2125.55
587.34	2120.77
587.69	2115.94
588.04	2110.55
588.39	2104.73
588.74	2098.36
589.09	2092.23
589.44	2085.37
589.79	2079.37
590.14	2073.92
590.49	2067.25
590.84	2060.92
591.19	2054.89
591.54	2048.25
591.89	2040.76
592.25	2033.83
592.60	2026.71
592.95	2019.09
593.30	2011.70
593.65	2004.06
594.00	1997.01
594.35	1989.76
594.70	1981.68
595.05	1974.38
595.40	1967.11
595.75	1959.69
596.10	1953.48
596.45	1946.65
596.80	1940.50
597.15	1933.76
597.50	1926.58
597.85	1920.36
598.19	1913.67
598.54	1906.36
598.89	1899.77
599.24	1894.02
599.59	1887.29
599.94	1881.10
600.29	1874.89
600.64	1868.30
600.99	1860.92
601.34	1854.11
601.69	1847.23
602.04	1840.40
602.39	1833.06
602.74	1826.22
603.08	1819.36
603.43	1812.53
603.78	1805.27
604.13	1798.07
604.48	1790.73
604.83	1783.88
605.18	1776.74
605.53	1768.66
605.87	1760.79
606.22	1753.46
606.57	1745.39
606.92	1738.13
607.27	1730.95
607.62	1723.96
607.96	1716.62
608.31	1709.96
608.66	1702.35
609.01	1694.63
609.36	1687.12
609.70	1679.04
610.05	1670.88
610.40	1663.23
610.75	1654.87
611.10	1647.15
611.44	1638.89
611.79	1630.92
612.14	1622.17
612.49	1612.93
612.83	1604.63
613.18	1596.42
613.53	1588.48
613.88	1579.94
614.22	1571.73
614.57	1563.07
614.92	1554.92
615.27	1547.32
615.61	1538.93
615.96	1530.92
616.31	1523.41
616.65	1516.04
617.00	1508.52
617.35	1500.97
617.70	1492.62
618.04	1484.17
618.39	1476.09
618.74	1468.40
619.08	1460.24
619.43	1452.62
619.78	1445.65
620.12	1438.44
620.47	1431.02
620.82	1422.81
621.16	1415.51
621.51	1407.81
621.85	1400.17
622.20	1391.66
622.55	1383.35
622.89	1375.56
623.24	1367.90
623.59	1360.47
623.93	1352.98
624.28	1345.81
624.62	1338.25
624.97	1331.16
625.32	1324.47
625.66	1317.33
626.01	1310.13
626.35	1302.52
626.70	1294.82
627.04	1287.17
627.39	1279.42
627.73	1272.03
628.08	1265.05
628.43	1257.66
628.77	1250.33
629.12	1242.81
629.46	1235.60
629.81	1228.18
630.15	1220.94
630.50	1213.48
630.84	1205.36
631.19	1197.43
631.53	1190.00
631.88	1182.43
632.22	1174.80
632.57	1167.47
632.91	1159.96
633.26	1152.53
633.60	1145.23
633.95	1138.18
634.29	1131.22
634.64	1124.49
634.98	1117.12
635.32	1110.02
635.67	1103.49
636.01	1096.82
636.36	1089.96
636.70	1083.54
637.05	1076.96
637.39	1070.42
637.73	1063.96
638.08	1058.11
638.42	1052.06
638.77	1045.45
639.11	1038.80
639.45	1032.44
639.80	1025.66
640.14	1019.19
640.49	1012.74
640.83	1006.45
641.17	1000.11
641.52	993.72
641.86	987.31
642.20	981.41
642.55	975.16
642.89	968.63
643.23	962.11
643.58	956.29
643.92	950.04
644.26	943.99
644.61	938.07
644.95	931.98
645.29	925.30
645.64	918.60
645.98	912.36
646.32	906.61
646.66	900.52
647.01	894.82
647.35	889.13
647.69	883.25
648.04	877.69
648.38	871.91
648.72	865.89
649.06	859.76
649.41	853.94
649.75	847.94
650.09	842.04
650.43	836.19
650.78	830.10
651.12	824.22
651.46	818.44
651.80	812.63
652.14	807.29
652.49	801.94
652.83	796.77
653.17	791.05
653.51	785.31
653.85	779.99
654.20	774.36
654.54	768.46
654.88	762.78
655.22	756.89
655.56	751.24
655.90	745.81
656.25	740.67
656.59	735.24
656.93	730.15
657.27	724.96
657.61	719.57
657.95	714.45
658.29	709.37
658.64	704.20
658.98	698.90
659.32	693.38
659.66	688.18
660.00	682.82
660.34	677.86
660.68	672.95
661.02	667.92
661.36	663.15
661.70	658.60
662.05	654.25
662.39	649.91
662.73	645.37
663.07	640.99
663.41	636.49
663.75	631.97
664.09	627.37
664.43	622.98
664.77	618.89
665.11	614.67
665.45	610.51
665.79	606.37
666.13	602.24
666.47	598.22
666.81	594.04
667.15	589.92
667.49	586.05
667.83	582.30
668.17	578.33
668.51	574.33
668.85	570.27
669.19	566.39
669.53	562.61
669.87	558.75
670.21	555.07
670.55	551.42
670.89	548.07
671.23	544.62
671.57	541.10
671.91	537.58
672.25	534.10
672.58	530.57
672.92	527.23
673.26	524.11
673.60	520.97
673.94	517.90
674.28	515.03
674.62	512.06
674.96	508.88
675.30	506.01
675.64	503.08
675.97	500.39
676.31	497.52
676.65	494.55
676.99	491.88
677.33	489.00
677.67	486.25
678.01	483.14
678.34	480.22
678.68	477.38
679.02	474.54
679.36	471.78
679.70	469.11
680.04	466.32
680.37	463.45
680.71	460.64
681.05	457.99
681.39	455.23
681.73	452.60
682.06	450.15
682.40	447.58
682.74	445.02
683.08	442.44
683.42	439.83
683.75	437.35
684.09	434.81
684.43	432.37
684.77	429.89
685.10	427.60
685.44	425.24
685.78	422.97
686.12	420.71
686.45	418.40
686.79	416.08
687.13	413.92
687.46	411.76
687.80	409.61
688.14	407.42
688.48	405.40
688.81	403.16
689.15	400.98
689.49	398.83
689.82	396.74
690.16	394.65
690.50	392.71
690.83	390.74
691.17	388.73
691.51	386.80
691.84	384.89
692.18	382.92
692.52	380.93
692.85	378.99
693.19	377.12
693.52	375.33
693.86	373.53
694.20	371.73
694.53	369.90
694.87	368.10
695.21	366.30
695.54	364.47
695.88	362.72
696.21	361.00
696.55	359.31
696.88	357.61
697.22	355.92
697.56	354.31
697.89	352.68
698.23	351.04
698.56	349.46
698.90	347.93
699.23	346.31
699.57	344.81
699.90	343.26
700.24	341.70
700.58	340.15
700.91	338.65
701.25	337.21
701.58	335.83
701.92	334.47
702.25	333.10
702.59	331.76
702.92	330.40
703.26	329.07
703.59	327.81
703.93	326.66
704.26	325.46
704.60	324.15
704.93	322.89
705.26	321.70
705.60	320.52
705.93	319.33
706.27	318.31
706.60	317.26
706.94	316.15
707.27	315.04
707.61	313.99
707.94	312.98
708.27	311.92
708.61	310.85
708.94	309.86
709.28	308.88
709.61	307.90
709.94	306.98
710.28	305.96
710.61	304.98
710.95	303.90
711.28	302.97
711.61	302.00
711.95	301.08
712.28	300.12
712.61	299.13
712.95	298.19
713.28	297.32
713.61	296.43
713.95	295.55
714.28	294.71
714.61	293.82
714.95	292.97
715.28	292.09
715.61	291.21
715.95	290.29
716.28	289.42
716.61	288.63
716.95	287.81
717.28	287.09
717.61	286.32
717.94	285.55
718.28	284.72
718.61	284.00
718.94	283.30
719.27	282.63
719.61	281.95
719.94	281.32
720.27	280.59
720.60	279.88
720.94	279.27
721.27	278.64
721.60	278.07
721.93	277.45
722.27	276.91
722.60	276.36
722.93	275.81
723.26	275.28
723.59	274.68
723.93	274.15
724.26	273.58
724.59	272.97
724.92	272.47
725.25	271.99
725.59	271.47
725.92	270.98
726.25	270.49
726.58	270.04
726.91	269.50
727.24	268.99
727.57	268.60
727.91	268.09
728.24	267.60
728.57	267.11
728.90	266.66
729.23	266.10
729.56	265.68
729.89	265.22
730.22	264.70
730.55	264.24
730.89	263.80
731.22	263.34
731.55	262.93
731.88	262.51
732.21	262.08
732.54	261.65
732.87	261.18
733.20	260.82
733.53	260.39
733.86	260.04
734.19	259.66
734.52	259.22
734.85	258.91
735.18	258.53
735.51	258.18
735.84	257.80
736.17	257.51
736.50	257.11
736.83	256.86
737.16	256.57
737.49	256.23
737.82	255.88
738.15	255.57
738.48	255.27
738.81	254.93
739.14	254.59
739.47	254.29
739.80	253.99
740.13	253.65
740.46	253.33
740.79	252.98
741.12	252.66
741.45	252.35
741.78	251.99
742.11	251.72
742.44	251.38
742.77	251.13
743.10	250.80
743.43	250.49
743.75	250.09
744.08	249.93
744.41	249.69
744.74	249.38
745.07	249.09
745.40	248.79
745.73	248.54
746.06	248.31
746.39	248.02
746.71	247.76
747.04	247.47
747.37	247.22
747.70	247.00
748.03	246.76
748.36	246.52
748.68	246.26
749.01	246.00
749.34	245.76
749.67	245.53
750.00	245.31
750.33	245.17
750.65	244.99
750.98	244.63
751.31	244.38
751.64	244.17
751.97	244.02
752.29	243.83
752.62	243.59
752.95	243.36
753.28	243.15
753.60	242.93
753.93	242.73
754.26	242.52
754.59	242.28
754.91	242.07
755.24	241.90
755.57	241.75
755.90	241.54
756.22	241.35
756.55	241.13
756.88	240.95
757.20	240.72
757.53	240.50
757.86	240.32
758.19	240.19
758.51	240.02
758.84	239.81
759.17	239.63
759.49	239.48
759.82	239.36
760.15	239.23
760.47	239.10
760.80	238.93
761.13	238.83
761.45	238.68
761.78	238.55
762.11	238.40
762.43	238.25
762.76	238.13
763.08	238.00
763.41	237.87
763.74	237.74
764.06	237.60
764.39	237.51
764.71	237.40
765.04	237.26
765.37	237.12
765.69	236.97
766.02	236.88
766.34	236.71
766.67	236.55
767.00	236.43
767.32	236.35
767.65	236.31
767.97	236.16
768.30	236.06
768.62	235.96
768.95	235.82
769.27	235.70
769.60	235.59
769.92	235.47
770.25	235.36
770.57	235.24
770.90	235.13
771.22	235.01
771.55	234.89
771.87	234.81
772.20	234.74
772.52	234.74
772.85	234.74
773.17	234.69
773.50	234.62
773.82	234.53
774.15	234.40
774.47	234.27
774.80	234.19
775.12	234.08
775.45	234.01
775.77	233.92
776.09	233.84
776.42	233.77
776.74	233.73
777.07	233.66
777.39	233.61
777.72	233.55
778.04	233.50
778.36	233.44
778.69	233.38
779.01	233.32
779.33	233.16
779.66	232.97
779.98	232.87
780.31	232.78
780.63	232.74
780.95	232.65
781.28	232.60
781.60	232.50
781.92	232.47
782.25	232.37
782.57	232.35
782.89	232.27
783.22	232.19
783.54	232.10
783.86	232.05
784.19	231.99
784.51	231.93
784.83	231.84
785.16	231.77
785.48	231.69
785.80	231.64
786.12	231.61
786.45	231.60
786.77	231.59
787.09	231.54
787.42	231.47
787.74	231.42
788.06	231.37
788.38	231.34
788.71	231.30
789.03	231.26
789.35	231.21
789.67	231.22
789.99	231.21
790.32	231.17
790.64	231.11
790.96	231.15
791.28	231.06
791.61	231.02
791.93	231.01
792.25	230.97
792.57	230.99
792.89	230.94
793.21	230.91
793.54	230.85
793.86	230.79
794.18	230.75
794.50	230.72
794.82	230.67
795.14	230.65
795.47	230.65
795.79	230.62
796.11	230.56
796.43	230.52
796.75	230.47
797.07	230.46
797.39	230.44
797.71	230.36
798.04	230.36
798.36	230.35
798.68	230.34
799.00	230.32
799.32	230.25
799.64	230.24
799.96	230.22
800.28	230.24
800.60	230.25
800.92	230.25
801.24	230.27
801.56	230.25
801.89	230.22
802.21	230.19
802.53	230.15
802.85	230.13
803.17	230.12
803.49	230.08
803.81	230.02
804.13	230.02
804.45	229.95
804.77	229.95
805.09	229.91
805.41	229.87
805.73	229.84
806.05	229.77
806.37	229.71
806.69	229.68
807.01	229.61
807.33	229.59
807.65	229.50
807.97	229.48
808.28	229.48
808.60	229.42
808.92	229.39
809.24	229.41
809.56	229.39
809.88	229.34
810.20	229.31
810.52	229.33
810.84	229.28
811.16	229.25
811.48	229.18
811.80	229.16
812.12	229.12
812.43	229.13
812.75	229.11
813.07	229.09
813.39	229.06
813.71	229.03
814.03	228.97
814.35	228.97
814.67	228.91
814.98	228.84
815.30	228.83
815.62	228.79
815.94	228.72
816.26	228.74
816.58	228.68
816.89	228.68
817.21	228.65
817.53	228.65
817.85	228.65
818.17	228.62
818.48	228.58
818.80	228.58
819.12	228.51
819.44	228.47
819.76	228.44
820.07	228.40
820.39	228.40
820.71	228.36
821.03	228.32
821.34	228.32
821.66	228.35
821.98	228.34
822.30	228.30
822.61	228.33
822.93	228.24
823.25	228.23
823.57	228.19
823.88	228.22
824.20	228.19
824.52	228.17
824.83	228.16
825.15	228.17
825.47	228.13
825.79	228.15
826.10	228.13
826.42	228.12
826.74	228.12
827.05	228.11
827.37	228.13
827.69	228.11
828.00	228.11
828.32	228.06
828.64	228.05
828.95	228.09
829.27	228.07
829.58	228.08
829.90	228.09
830.22	228.13
830.53	228.04
830.85	227.99
831.17	227.94
831.48	227.93
831.80	227.91
832.11	227.90
832.43	227.85
832.75	227.84
833.06	227.88
833.38	227.87
833.69	227.88
834.01	227.89
834.32	227.90
834.64	227.87
834.96	227.88
835.27	227.87
835.59	227.85
835.90	227.82
836.22	227.81
836.53	227.78
836.85	227.74
837.16	227.86
837.48	227.88
837.79	227.92
838.11	227.93
838.42	227.93
838.74	227.94
839.05	227.95
839.37	227.96
839.68	227.93
840.00	227.91
840.31	227.91
840.63	227.90
840.94	227.88
841.26	227.87
841.57	227.87
841.88	227.84
842.20	227.83
842.51	227.81
842.83	227.79
843.14	227.88
843.46	227.88
843.77	227.80
844.08	227.80
844.40	227.76
844.71	227.74
845.03	227.70
845.34	227.68
845.65	227.69
845.97	227.66
846.28	227.66
846.60	227.67
846.91	227.62
847.22	227.63
847.54	227.66
847.85	227.65
848.16	227.62
848.48	227.64
848.79	227.68
849.10	227.68
849.42	227.70
849.73	227.64
850.04	227.63
850.36	227.64
850.67	227.63
850.98	227.64
851.30	227.63
851.61	227.63
851.92	227.63
852.23	227.64
852.55	227.66
852.86	227.66
853.17	227.63
853.49	227.68
853.80	227.64
854.11	227.59
854.42	227.60
854.74	227.61
855.05	227.59
855.36	227.51
855.67	227.51
855.99	227.51
856.30	227.58
856.61	227.58
856.92	227.50
857.23	227.51
857.55	227.48
857.86	227.43
858.17	227.48
858.48	227.44
858.79	227.42
859.11	227.43
859.42	227.40
859.73	227.40
860.04	227.35
860.35	227.32
860.66	227.29
860.98	227.27
861.29	227.26
861.60	227.22
861.91	227.20
862.22	227.18
862.53	227.12
862.84	227.01
863.16	227.02
863.47	227.01
863.78	226.98
864.09	227.00
864.40	227.02
864.71	226.99
865.02	227.02
865.33	227.00
865.64	226.98
865.95	226.96
866.27	227.00
866.58	226.99
866.89	227.00
867.20	227.02
867.51	227.02
867.82	226.99
868.13	227.04
868.44	227.05
868.75	227.06
869.06	227.08
869.37	227.07
869.68	227.03
869.99	227.06
870.30	227.06
870.61	227.07
870.92	227.06
871.23	227.01
871.54	227.01
871.85	227.03
872.16	227.01
872.47	227.02
872.78	226.98
873.09	227.01
873.40	227.01
873.71	227.02
874.02	227.04
874.33	227.06
874.64	227.03
874.95	227.07
875.26	227.06
875.56	227.09
875.87	227.12
876.18	227.16
876.49	227.26
876.80	227.27
877.11	227.22
877.42	227.23
877.73	227.25
878.04	227.24
878.35	227.24
878.66	227.28
878.96	227.29
879.27	227.30
879.58	227.28
879.89	227.28
880.20	227.30
880.51	227.30
880.82	227.34
881.12	227.36
881.43	227.32
881.74	227.36
882.05	227.34
882.36	227.33
882.67	227.33
882.97	227.21
883.28	227.23
883.59	227.28
883.90	227.32
884.21	227.34
884.51	227.37
884.82	227.36
885.13	227.31
885.44	227.29
885.74	227.29
886.05	227.29
886.36	227.33
886.67	227.29
886.98	227.36
887.28	227.32
887.59	227.30
887.90	227.29
888.20	227.26
888.51	227.27
888.82	227.26
889.13	227.23
889.43	227.32
889.74	227.27
890.05	227.22
890.35	227.19
890.66	227.19
890.97	227.15
891.28	227.12
891.58	227.14
891.89	227.15
892.20	227.15
892.50	227.15
892.81	227.12
893.12	227.13
893.42	227.02
893.73	227.03
894.04	227.01
894.34	227.02
894.65	227.01
894.95	226.99
895.26	226.98
895.57	227.04
895.87	226.94
896.18	226.96
896.48	226.98
896.79	226.94
897.10	226.92
897.40	226.93
897.71	226.96
898.01	226.92
898.32	226.92
898.63	226.90
898.93	226.89
899.24	226.86
899.54	226.81
899.85	226.81
900.15	226.78
900.46	226.80
900.76	226.80
901.07	226.77
901.38	226.77
901.68	226.78
901.99	226.72
902.29	226.71
902.60	226.70
902.90	226.70
903.21	226.75
903.51	226.74
903.82	226.74
904.12	226.76
904.43	226.79
904.73	226.78
905.03	226.81
905.34	226.94
905.64	226.95
905.95	226.97
906.25	226.96
906.56	226.97
906.86	226.95
907.17	226.95
907.47	226.94
907.77	226.95
908.08	226.96
908.38	226.99
908.69	227.03
908.99	227.03
909.30	227.04
909.60	227.03
909.90	227.08
910.21	227.07
910.51	227.04
910.81	227.03
911.12	227.05
911.42	227.02
911.73	226.91
912.03	226.95
912.33	227.02
912.64	227.07
912.94	227.08
913.24	227.10
913.55	227.08
913.85	227.11
914.15	227.12
914.46	227.12
914.76	227.09
915.06	227.09
915.37	227.08
915.67	227.06
915.97	227.08
916.27	227.04
916.58	227.05
916.88	227.06
917.18	227.11
917.49	227.18
917.79	227.17
918.09	227.17
918.39	227.17
918.70	227.14
919.00	227.12
919.30	227.18
919.60	227.16
919.91	227.15
920.21	227.18
920.51	227.18
920.81	227.16
921.12	227.18
921.42	227.19
921.72	227.21
922.02	227.21
922.32	227.23
922.63	227.23
922.93	227.28
923.23	227.26
923.53	227.22
923.83	227.17
924.13	227.19
924.44	227.19
924.74	227.23
925.04	227.27
925.34	227.27
925.64	227.22
925.94	227.24
926.24	227.33
926.55	227.30
926.85	227.28
927.15	227.27
927.45	227.24
927.75	227.23
928.05	227.23
928.35	227.23
928.65	227.21
928.95	227.23
929.26	227.16
929.56	227.19
929.86	227.17
930.16	227.13
930.46	227.12
930.76	227.11
931.06	227.03
931.36	226.98
931.66	226.98
931.96	226.97
932.26	226.93
932.56	226.85
932.86	226.83
933.16	226.84
933.46	226.84
933.76	226.82
934.06	226.81
934.36	226.82
934.66	226.80
934.96	226.75
935.26	226.72
935.56	226.75
935.86	226.69
936.16	226.69
936.46	226.67
936.76	226.65
937.06	226.63
937.36	226.63
937.66	226.64
937.96	226.61
938.26	226.60
938.56	226.59
938.86	226.59
939.16	226.62
939.46	226.61
939.76	226.60
940.06	226.59
940.35	226.60
940.65	226.56
940.95	226.57
941.25	226.58
941.55	226.58
941.85	226.54
942.15	226.57
942.45	226.60
942.75	226.61
943.04	226.60
943.34	226.63
943.64	226.62
943.94	226.60
944.24	226.60
944.54	226.58
944.84	226.59
945.13	226.61
945.43	226.58
945.73	226.59
946.03	226.57
946.33	226.57
946.62	226.54
946.92	226.54
947.22	226.56
947.52	226.55
947.82	226.57
948.11	226.61
948.41	226.59
948.71	226.57
949.01	226.56
949.31	226.58
949.60	226.58
949.90	226.60
950.20	226.60
950.50	226.59
950.79	226.61
951.09	226.63
951.39	226.63
951.69	226.61
951.98	226.63
952.28	226.66
952.58	226.67
952.87	226.71
953.17	226.69
953.47	226.71
953.76	226.75
954.06	226.75
954.36	226.73
954.66	226.75
954.95	226.77
955.25	226.80
955.55	226.79
955.84	226.80
956.14	226.79
956.44	226.83
956.73	226.85
957.03	226.89
957.32	226.91
957.62	226.92
957.92	226.95
958.21	226.95
958.51	227.06
958.81	227.07
959.10	227.06
959.40	227.14
959.69	227.13
959.99	227.11
960.29	227.12
960.58	227.11
960.88	227.12
961.17	227.15
961.47	227.18
961.76	227.16
962.06	227.16
962.36	227.16
962.65	227.13
962.95	227.13
963.24	227.11
963.54	227.08
963.83	227.06
964.13	227.07
964.42	227.05
964.72	226.99
965.01	227.00
965.31	227.02
965.60	226.96
965.90	227.01
966.19	226.99
966.49	226.99
966.78	226.99
967.08	226.99
967.37	226.96
967.67	226.89
967.96	226.92
968.26	226.93
968.55	226.93
968.85	226.93
969.14	226.90
969.43	226.88
969.73	226.85
970.02	226.87
970.32	226.83
970.61	226.78
970.91	226.75
971.20	226.75
971.49	226.72
971.79	226.73
972.08	226.65
972.38	226.64
972.67	226.63
972.96	226.61
973.26	226.60
973.55	226.64
973.85	226.68
974.14	226.64
974.43	226.61
974.73	226.61
975.02	226.58
975.31	226.58
975.61	226.60
975.90	226.62
976.19	226.60
976.49	226.61
976.78	226.62
977.07	226.61
977.37	226.58
977.66	226.56
977.95	226.53
978.24	226.56
978.54	226.60
978.83	226.59
979.12	226.57
979.42	226.51
979.71	226.48
980.00	226.42
980.29	226.44
980.59	226.41
980.88	226.39
981.17	226.42
981.46	226.41
981.76	226.37
982.05	226.40
982.34	226.42
982.63	226.41
982.93	226.40
983.22	226.41
983.51	226.42
983.80	226.43
984.09	226.45
984.39	226.44
984.68	226.45
984.97	226.44
985.26	226.45
985.55	226.52
985.85	226.49
986.14	226.54
986.43	226.54
986.72	226.57
987.01	226.58
987.30	226.59
987.59	226.60
987.89	226.63
988.18	226.57
988.47	226.56
988.76	226.57
989.05	226.58
989.34	226.56
989.63	226.57
989.92	226.57
990.22	226.56
990.51	226.55
990.80	226.54
991.09	226.56
991.38	226.59
991.67	226.56
991.96	226.57
992.25	226.60
992.54	226.59
992.83	226.59
993.12	226.58
993.41	226.61
993.70	226.66
993.99	226.65
994.28	226.69
994.58	226.72
994.87	226.70
995.16	226.69
995.45	226.71
995.74	226.71
996.03	226.73
996.32	226.75
996.61	226.76
996.90	226.76
997.19	226.73
997.48	226.72
997.77	226.73
998.06	226.72
998.34	226.68
998.63	226.70
998.92	226.72
999.21	226.73
999.50	226.70
999.79	226.66
1000.08	226.66
1000.37	226.66
1000.66	226.64
1000.95	226.68
1001.24	226.74
1001.53	226.78
1001.82	226.79
1002.11	226.73
1002.40	226.72
1002.68	226.71
1002.97	226.74
1003.26	226.77
1003.55	226.76
1003.84	226.76
1004.13	226.82
1004.42	226.82
1004.71	226.81
1004.99	226.77
1005.28	226.78
1005.57	226.76
1005.86	226.76
1006.15	226.78
1006.44	226.76
1006.72	226.77
1007.01	226.71
1007.30	226.69
1007.59	226.68
1007.88	226.65
1008.17	226.65
1008.45	226.65
1008.74	226.61
1009.03	226.58
1009.32	226.53
1009.60	226.55
1009.89	226.52
1010.18	226.48
1010.47	226.47
1010.76	226.46
1011.04	226.44
1011.33	226.45
1011.62	226.47
1011.91	226.47
1012.19	226.43
1012.48	226.46
1012.77	226.45
1013.05	226.55
1013.34	226.55
1013.63	226.52
1013.92	226.52
1014.20	226.55
1014.49	226.56
1014.78	226.58
1015.06	226.57
1015.35	226.62
1015.64	226.59
1015.92	226.63
1016.21	226.61
1016.50	226.60
1016.78	226.64
1017.07	226.66
1017.36	226.64
1017.64	226.64
1017.93	226.65
1018.22	226.65
1018.50	226.64
1018.79	226.65
1019.08	226.59
1019.36	226.59
1019.65	226.60
1019.93	226.63
1020.22	226.65
1020.51	226.70
1020.79	226.68
1021.08	226.26
1021.36	226.68
1021.65	226.67
1021.94	226.78
1022.22	226.68
1022.51	226.72
1022.79	226.89
1023.08	227.10
1023.36	228.03
1023.65	225.83
>>>>>End Processed Spectral Data<<<<<
