SpectraSuite Data File
++++++++++++++++++++++++++++++++++++
Date: Fri Feb 01 15:33:45 EST 2013
User: group
Dark Spectrum Present: No
Reference Spectrum Present: No
Number of Sampled Component Spectra: 1
Spectrometers: USB2E7196
Integration Time (usec): 35000 (USB2E7196)
Spectra Averaged: 100 (USB2E7196)
Boxcar Smoothing: 10 (USB2E7196)
Correct for Electrical Dark: No (USB2E7196)
Strobe/Lamp Enabled: No (USB2E7196)
Correct for Detector Non-linearity: No (USB2E7196)
Correct for Stray Light: No (USB2E7196)
Number of Pixels in Processed Spectrum: 2048
>>>>>Begin Processed Spectral Data<<<<<
339.09	0.00
339.48	215.22
339.86	216.10
340.24	218.03
340.63	218.75
341.01	222.15
341.39	222.00
341.78	222.95
342.16	223.70
342.54	224.85
342.93	213.26
343.31	224.06
343.69	224.59
344.07	225.06
344.46	225.48
344.84	225.87
345.22	226.11
345.60	226.33
345.99	226.54
346.37	226.70
346.75	226.78
347.13	226.86
347.52	226.88
347.90	226.97
348.28	226.99
348.66	227.02
349.05	227.01
349.43	227.04
349.81	227.10
350.19	227.14
350.57	227.20
350.96	227.28
351.34	227.34
351.72	227.45
352.10	227.56
352.48	227.63
352.87	227.68
353.25	227.72
353.63	227.81
354.01	227.85
354.39	227.92
354.77	228.00
355.15	228.09
355.54	228.15
355.92	228.16
356.30	228.23
356.68	228.38
357.06	228.47
357.44	228.51
357.82	228.54
358.20	228.61
358.58	228.63
358.97	228.69
359.35	228.73
359.73	228.77
360.11	228.80
360.49	228.83
360.87	228.88
361.25	228.96
361.63	229.01
362.01	229.07
362.39	229.10
362.77	229.17
363.15	229.21
363.53	229.26
363.91	229.33
364.29	229.37
364.67	229.28
365.05	229.29
365.43	229.31
365.81	229.35
366.19	229.44
366.57	229.47
366.95	229.44
367.33	229.43
367.71	229.40
368.09	229.39
368.47	229.39
368.85	229.38
369.23	229.36
369.61	229.32
369.99	229.34
370.37	229.33
370.75	229.32
371.13	229.23
371.51	229.15
371.89	229.09
372.27	229.03
372.65	228.99
373.03	228.93
373.41	228.89
373.78	228.80
374.16	228.69
374.54	228.61
374.92	228.55
375.30	228.51
375.68	228.47
376.06	228.43
376.44	228.36
376.82	228.30
377.19	228.24
377.57	228.18
377.95	228.05
378.33	227.95
378.71	227.81
379.09	227.77
379.47	227.75
379.84	227.68
380.22	227.59
380.60	227.48
380.98	227.40
381.36	227.34
381.73	227.29
382.11	227.24
382.49	227.22
382.87	227.17
383.25	227.09
383.62	227.13
384.00	227.03
384.38	226.97
384.76	226.89
385.13	226.86
385.51	226.80
385.89	226.77
386.27	226.73
386.64	226.72
387.02	226.71
387.40	226.61
387.78	226.58
388.15	226.53
388.53	226.54
388.91	226.51
389.29	226.46
389.66	226.43
390.04	226.41
390.42	226.37
390.79	226.35
391.17	226.34
391.55	226.22
391.92	226.21
392.30	226.23
392.68	226.23
393.05	226.19
393.43	226.21
393.81	226.23
394.18	226.24
394.56	226.24
394.94	226.21
395.31	226.26
395.69	226.31
396.06	226.40
396.44	226.41
396.82	226.44
397.19	226.51
397.57	226.52
397.95	226.57
398.32	226.58
398.70	226.65
399.07	226.70
399.45	226.72
399.82	226.80
400.20	226.85
400.58	226.95
400.95	227.00
401.33	227.10
401.70	227.22
402.08	227.31
402.45	227.41
402.83	227.55
403.20	227.66
403.58	227.75
403.95	227.85
404.33	227.98
404.71	228.12
405.08	228.28
405.46	228.46
405.83	228.58
406.21	228.74
406.58	228.90
406.96	229.07
407.33	229.29
407.70	229.45
408.08	229.74
408.45	229.93
408.83	230.15
409.20	230.32
409.58	230.50
409.95	230.77
410.33	231.08
410.70	231.30
411.08	231.57
411.45	231.90
411.82	232.20
412.20	232.59
412.57	233.00
412.95	233.31
413.32	233.68
413.69	234.07
414.07	234.50
414.44	234.97
414.82	235.45
415.19	235.97
415.56	236.56
415.94	237.09
416.31	237.76
416.68	238.41
417.06	239.16
417.43	239.85
417.81	240.61
418.18	241.37
418.55	242.23
418.93	243.12
419.30	244.00
419.67	244.92
420.04	245.87
420.42	246.86
420.79	248.03
421.16	249.19
421.54	250.39
421.91	251.63
422.28	252.87
422.66	254.20
423.03	255.56
423.40	256.87
423.77	258.29
424.15	259.71
424.52	261.20
424.89	262.82
425.26	264.39
425.64	265.83
426.01	267.42
426.38	269.10
426.75	270.81
427.13	272.51
427.50	274.34
427.87	276.20
428.24	278.07
428.61	279.85
428.99	281.83
429.36	283.94
429.73	285.99
430.10	288.05
430.47	290.11
430.85	292.21
431.22	294.52
431.59	296.89
431.96	299.17
432.33	301.67
432.70	304.07
433.08	306.91
433.45	309.61
433.82	312.23
434.19	315.14
434.56	317.97
434.93	320.67
435.30	323.30
435.68	326.21
436.05	329.05
436.42	331.86
436.79	334.39
437.16	337.11
437.53	339.97
437.90	342.82
438.27	345.54
438.64	348.35
439.01	350.91
439.38	353.18
439.75	355.30
440.13	357.80
440.50	360.12
440.87	361.94
441.24	363.83
441.61	365.95
441.98	367.41
442.35	369.19
442.72	371.03
443.09	372.89
443.46	373.91
443.83	374.51
444.20	374.96
444.57	375.78
444.94	376.06
445.31	376.40
445.68	376.72
446.05	376.86
446.42	376.48
446.79	376.10
447.16	375.61
447.53	375.35
447.90	374.17
448.27	372.97
448.64	371.42
449.01	370.32
449.37	368.36
449.74	366.45
450.11	364.19
450.48	361.73
450.85	359.11
451.22	356.97
451.59	354.93
451.96	353.02
452.33	350.37
452.70	347.96
453.07	345.10
453.43	342.21
453.80	339.44
454.17	336.77
454.54	334.17
454.91	331.44
455.28	328.76
455.65	326.28
456.02	323.87
456.38	321.69
456.75	319.00
457.12	316.74
457.49	314.51
457.86	312.34
458.23	310.49
458.59	308.47
458.96	306.32
459.33	304.46
459.70	302.62
460.07	301.15
460.43	299.47
460.80	297.88
461.17	296.43
461.54	294.87
461.91	293.46
462.27	292.04
462.64	290.79
463.01	289.38
463.38	288.08
463.74	286.72
464.11	285.51
464.48	284.51
464.85	283.39
465.21	282.55
465.58	281.64
465.95	280.53
466.32	279.62
466.68	278.71
467.05	277.82
467.42	276.88
467.78	275.92
468.15	275.03
468.52	274.33
468.88	273.48
469.25	272.75
469.62	272.05
469.98	271.37
470.35	270.74
470.72	270.17
471.08	269.54
471.45	269.01
471.82	268.50
472.18	267.90
472.55	267.49
472.92	266.96
473.28	266.48
473.65	266.03
474.02	265.58
474.38	265.27
474.75	264.92
475.11	264.56
475.48	264.32
475.85	264.08
476.21	263.85
476.58	263.63
476.94	263.48
477.31	263.36
477.67	263.20
478.04	263.10
478.41	263.06
478.77	263.05
479.14	262.94
479.50	262.96
479.87	263.02
480.23	263.09
480.60	263.15
480.96	263.22
481.33	263.40
481.69	263.62
482.06	263.78
482.42	263.99
482.79	264.30
483.15	264.65
483.52	265.04
483.88	265.39
484.25	265.81
484.61	266.23
484.98	266.68
485.34	267.26
485.71	267.84
486.07	268.43
486.44	269.06
486.80	269.77
487.17	270.47
487.53	271.28
487.90	272.11
488.26	273.04
488.62	274.08
488.99	275.08
489.35	276.13
489.72	277.25
490.08	278.47
490.44	279.69
490.81	281.03
491.17	282.39
491.54	283.89
491.90	285.41
492.26	287.04
492.63	288.78
492.99	290.57
493.36	292.42
493.72	294.48
494.08	296.54
494.45	298.78
494.81	301.17
495.17	303.61
495.54	306.20
495.90	308.89
496.26	311.62
496.63	314.57
496.99	317.69
497.35	320.95
497.72	324.32
498.08	327.87
498.44	331.51
498.80	335.38
499.17	339.44
499.53	343.65
499.89	348.03
500.26	352.53
500.62	357.20
500.98	362.20
501.34	367.28
501.71	372.58
502.07	378.02
502.43	383.57
502.79	389.37
503.16	395.42
503.52	401.70
503.88	408.14
504.24	414.81
504.60	421.64
504.97	428.81
505.33	436.14
505.69	443.83
506.05	451.64
506.41	459.56
506.78	467.73
507.14	476.14
507.50	484.85
507.86	493.83
508.22	502.96
508.59	512.14
508.95	521.67
509.31	531.52
509.67	541.63
510.03	552.00
510.39	562.64
510.75	573.47
511.12	584.42
511.48	595.79
511.84	607.18
512.20	618.76
512.56	630.71
512.92	642.88
513.28	655.18
513.64	667.68
514.00	680.40
514.37	693.35
514.73	706.46
515.09	719.50
515.45	732.90
515.81	746.59
516.17	760.57
516.53	774.73
516.89	788.92
517.25	803.17
517.61	817.56
517.97	832.04
518.33	846.49
518.69	861.29
519.05	876.24
519.41	891.49
519.77	907.09
520.13	922.63
520.49	938.02
520.85	953.51
521.21	969.23
521.57	985.45
521.93	1001.29
522.29	1017.68
522.65	1033.96
523.01	1050.19
523.37	1066.23
523.73	1082.46
524.09	1098.62
524.45	1114.99
524.81	1131.69
525.17	1148.57
525.53	1165.45
525.89	1182.39
526.25	1199.24
526.61	1215.65
526.97	1232.43
527.33	1248.87
527.68	1265.46
528.04	1282.02
528.40	1298.66
528.76	1315.93
529.12	1332.64
529.48	1349.44
529.84	1365.56
530.20	1382.29
530.56	1399.23
530.91	1416.64
531.27	1433.45
531.63	1449.99
531.99	1466.63
532.35	1482.57
532.71	1498.38
533.07	1514.59
533.42	1530.41
533.78	1546.54
534.14	1562.88
534.50	1578.12
534.86	1594.03
535.21	1609.28
535.57	1625.33
535.93	1640.86
536.29	1655.54
536.65	1670.69
537.00	1685.55
537.36	1700.84
537.72	1715.36
538.08	1729.94
538.44	1743.80
538.79	1757.71
539.15	1771.43
539.51	1785.06
539.87	1799.55
540.22	1813.48
540.58	1827.43
540.94	1840.92
541.29	1853.89
541.65	1866.64
542.01	1880.02
542.37	1892.34
542.72	1904.83
543.08	1916.64
543.44	1929.24
543.79	1940.41
544.15	1951.47
544.51	1962.97
544.87	1974.02
545.22	1984.89
545.58	1995.11
545.94	2004.76
546.29	2014.64
546.65	2024.51
547.01	2033.94
547.36	2042.61
547.72	2050.98
548.07	2058.75
548.43	2066.93
548.79	2074.93
549.14	2082.48
549.50	2089.85
549.86	2097.66
550.21	2104.92
550.57	2112.06
550.92	2118.35
551.28	2125.57
551.64	2132.55
551.99	2139.12
552.35	2145.21
552.70	2151.20
553.06	2157.16
553.41	2163.75
553.77	2169.93
554.13	2176.04
554.48	2182.22
554.84	2187.51
555.19	2192.96
555.55	2198.06
555.90	2202.53
556.26	2207.36
556.61	2212.02
556.97	2216.11
557.32	2220.16
557.68	2224.28
558.03	2228.50
558.39	2232.37
558.74	2236.88
559.10	2240.72
559.45	2244.43
559.81	2248.78
560.16	2252.63
560.52	2255.89
560.87	2259.24
561.23	2261.82
561.58	2264.72
561.94	2267.15
562.29	2269.78
562.64	2272.36
563.00	2275.01
563.35	2278.52
563.71	2281.68
564.06	2284.93
564.42	2287.90
564.77	2290.40
565.12	2292.61
565.48	2294.48
565.83	2296.32
566.19	2297.57
566.54	2298.60
566.89	2299.70
567.25	2300.29
567.60	2301.64
567.96	2303.28
568.31	2304.00
568.66	2305.06
569.02	2305.69
569.37	2305.95
569.72	2306.59
570.08	2306.72
570.43	2306.75
570.78	2306.07
571.14	2304.53
571.49	2303.28
571.84	2302.98
572.20	2301.82
572.55	2300.70
572.90	2299.27
573.26	2297.80
573.61	2296.11
573.96	2294.07
574.31	2291.05
574.67	2288.01
575.02	2284.42
575.37	2281.06
575.72	2277.27
576.08	2273.96
576.43	2270.55
576.78	2266.83
577.13	2263.83
577.49	2260.69
577.84	2257.24
578.19	2253.56
578.54	2249.82
578.90	2245.51
579.25	2239.87
579.60	2234.81
579.95	2229.73
580.30	2224.59
580.66	2219.30
581.01	2214.26
581.36	2209.52
581.71	2205.30
582.06	2200.73
582.42	2196.12
582.77	2190.71
583.12	2186.02
583.47	2181.02
583.82	2175.82
584.17	2170.61
584.53	2164.87
584.88	2159.10
585.23	2153.22
585.58	2147.67
585.93	2142.22
586.28	2137.29
586.63	2132.10
586.98	2127.04
587.34	2122.45
587.69	2117.50
588.04	2112.26
588.39	2106.61
588.74	2099.91
589.09	2093.68
589.44	2086.81
589.79	2080.79
590.14	2075.21
590.49	2068.83
590.84	2062.46
591.19	2056.59
591.54	2050.03
591.89	2042.60
592.25	2035.76
592.60	2028.36
592.95	2020.71
593.30	2013.26
593.65	2005.69
594.00	1998.75
594.35	1991.44
594.70	1983.28
595.05	1975.88
595.40	1968.48
595.75	1960.94
596.10	1954.68
596.45	1947.85
596.80	1941.64
597.15	1934.90
597.50	1927.69
597.85	1921.19
598.19	1914.48
598.54	1907.17
598.89	1900.34
599.24	1894.47
599.59	1887.68
599.94	1881.53
600.29	1875.13
600.64	1868.41
600.99	1860.86
601.34	1853.86
601.69	1846.85
602.04	1840.03
602.39	1832.85
602.74	1826.06
603.08	1819.21
603.43	1812.51
603.78	1805.24
604.13	1798.06
604.48	1790.81
604.83	1783.99
605.18	1776.85
605.53	1768.91
605.87	1760.89
606.22	1753.85
606.57	1745.92
606.92	1738.71
607.27	1731.54
607.62	1724.64
607.96	1717.41
608.31	1710.74
608.66	1703.17
609.01	1695.65
609.36	1687.96
609.70	1679.84
610.05	1671.79
610.40	1664.03
610.75	1655.61
611.10	1647.94
611.44	1639.56
611.79	1631.53
612.14	1622.83
612.49	1613.70
612.83	1605.25
613.18	1597.21
613.53	1589.08
613.88	1580.43
614.22	1572.09
614.57	1563.45
614.92	1555.35
615.27	1547.70
615.61	1539.35
615.96	1531.38
616.31	1523.75
616.65	1516.45
617.00	1508.88
617.35	1501.25
617.70	1493.01
618.04	1484.62
618.39	1476.34
618.74	1468.59
619.08	1460.29
619.43	1452.72
619.78	1445.78
620.12	1438.62
620.47	1431.12
620.82	1422.88
621.16	1415.54
621.51	1408.04
621.85	1400.44
622.20	1391.92
622.55	1383.68
622.89	1375.76
623.24	1368.13
623.59	1360.65
623.93	1353.12
624.28	1345.81
624.62	1338.21
624.97	1331.10
625.32	1324.31
625.66	1317.32
626.01	1310.19
626.35	1302.68
626.70	1294.91
627.04	1287.19
627.39	1279.46
627.73	1271.99
628.08	1265.07
628.43	1257.71
628.77	1250.27
629.12	1242.70
629.46	1235.56
629.81	1228.15
630.15	1220.96
630.50	1213.55
630.84	1205.37
631.19	1197.46
631.53	1189.98
631.88	1182.39
632.22	1174.71
632.57	1167.34
632.91	1159.77
633.26	1152.41
633.60	1145.20
633.95	1138.18
634.29	1131.13
634.64	1124.41
634.98	1117.00
635.32	1109.84
635.67	1103.28
636.01	1096.56
636.36	1089.66
636.70	1083.16
637.05	1076.55
637.39	1070.12
637.73	1063.62
638.08	1057.70
638.42	1051.72
638.77	1045.28
639.11	1038.60
639.45	1032.22
639.80	1025.48
640.14	1019.12
640.49	1012.48
640.83	1006.08
641.17	999.79
641.52	993.50
641.86	987.09
642.20	981.20
642.55	974.95
642.89	968.41
643.23	961.94
643.58	956.19
643.92	949.88
644.26	943.77
644.61	937.81
644.95	931.80
645.29	925.25
645.64	918.39
645.98	912.11
646.32	906.38
646.66	900.37
647.01	894.69
647.35	888.94
647.69	883.28
648.04	877.75
648.38	871.83
648.72	865.81
649.06	859.72
649.41	853.88
649.75	847.82
650.09	841.86
650.43	836.08
650.78	829.95
651.12	824.05
651.46	818.35
651.80	812.53
652.14	807.07
652.49	801.74
652.83	796.60
653.17	790.90
653.51	785.20
653.85	779.81
654.20	774.14
654.54	768.09
654.88	762.30
655.22	756.43
655.56	750.83
655.90	745.37
656.25	740.11
656.59	734.80
656.93	729.74
657.27	724.64
657.61	719.15
657.95	714.05
658.29	709.01
658.64	703.77
658.98	698.44
659.32	692.97
659.66	687.75
660.00	682.44
660.34	677.50
660.68	672.56
661.02	667.50
661.36	662.81
661.70	658.41
662.05	654.05
662.39	649.67
662.73	645.23
663.07	640.83
663.41	636.36
663.75	631.78
664.09	627.25
664.43	622.91
664.77	618.86
665.11	614.60
665.45	610.52
665.79	606.43
666.13	602.36
666.47	598.24
666.81	594.07
667.15	589.95
667.49	586.04
667.83	582.24
668.17	578.33
668.51	574.24
668.85	570.23
669.19	566.37
669.53	562.61
669.87	558.68
670.21	555.02
670.55	551.39
670.89	548.01
671.23	544.61
671.57	541.07
671.91	537.51
672.25	534.08
672.58	530.55
672.92	527.17
673.26	523.96
673.60	520.85
673.94	517.74
674.28	514.85
674.62	511.89
674.96	508.81
675.30	505.89
675.64	502.97
675.97	500.17
676.31	497.30
676.65	494.32
676.99	491.59
677.33	488.73
677.67	485.87
678.01	482.80
678.34	479.79
678.68	476.95
679.02	474.15
679.36	471.35
679.70	468.62
680.04	465.86
680.37	462.96
680.71	460.18
681.05	457.60
681.39	454.89
681.73	452.24
682.06	449.70
682.40	447.09
682.74	444.60
683.08	441.99
683.42	439.42
683.75	436.91
684.09	434.39
684.43	431.91
684.77	429.48
685.10	427.19
685.44	424.90
685.78	422.55
686.12	420.27
686.45	418.01
686.79	415.72
687.13	413.52
687.46	411.42
687.80	409.29
688.14	407.06
688.48	404.98
688.81	402.75
689.15	400.60
689.49	398.47
689.82	396.37
690.16	394.33
690.50	392.33
690.83	390.40
691.17	388.47
691.51	386.55
691.84	384.74
692.18	382.78
692.52	380.79
692.85	378.87
693.19	376.95
693.52	375.12
693.86	373.29
694.20	371.54
694.53	369.72
694.87	367.86
695.21	366.08
695.54	364.24
695.88	362.48
696.21	360.77
696.55	359.11
696.88	357.45
697.22	355.80
697.56	354.16
697.89	352.51
698.23	350.88
698.56	349.25
698.90	347.63
699.23	346.00
699.57	344.41
699.90	342.87
700.24	341.39
700.58	339.84
700.91	338.30
701.25	336.80
701.58	335.44
701.92	334.08
702.25	332.68
702.59	331.35
702.92	330.05
703.26	328.77
703.59	327.51
703.93	326.33
704.26	325.11
704.60	323.85
704.93	322.59
705.26	321.32
705.60	320.18
705.93	319.04
706.27	317.99
706.60	316.98
706.94	315.95
707.27	314.79
707.61	313.79
707.94	312.81
708.27	311.76
708.61	310.67
708.94	309.69
709.28	308.72
709.61	307.77
709.94	306.81
710.28	305.74
710.61	304.75
710.95	303.67
711.28	302.74
711.61	301.78
711.95	300.89
712.28	299.99
712.61	299.01
712.95	298.08
713.28	297.24
713.61	296.30
713.95	295.40
714.28	294.60
714.61	293.69
714.95	292.84
715.28	291.97
715.61	291.11
715.95	290.23
716.28	289.38
716.61	288.52
716.95	287.74
717.28	287.04
717.61	286.26
717.94	285.53
718.28	284.72
718.61	284.01
718.94	283.32
719.27	282.68
719.61	282.06
719.94	281.40
720.27	280.68
720.60	280.08
720.94	279.48
721.27	278.87
721.60	278.30
721.93	277.68
722.27	277.13
722.60	276.56
722.93	276.00
723.26	275.48
723.59	274.96
723.93	274.39
724.26	273.83
724.59	273.27
724.92	272.74
725.25	272.23
725.59	271.68
725.92	271.19
726.25	270.64
726.58	270.12
726.91	269.61
727.24	269.11
727.57	268.57
727.91	268.05
728.24	267.57
728.57	267.07
728.90	266.63
729.23	266.16
729.56	265.73
729.89	265.28
730.22	264.79
730.55	264.29
730.89	263.83
731.22	263.37
731.55	262.95
731.88	262.49
732.21	262.08
732.54	261.65
732.87	261.19
733.20	260.79
733.53	260.40
733.86	260.01
734.19	259.62
734.52	259.25
734.85	258.93
735.18	258.51
735.51	258.20
735.84	257.83
736.17	257.46
736.50	257.06
736.83	256.82
737.16	256.46
737.49	256.20
737.82	255.87
738.15	255.52
738.48	255.20
738.81	254.91
739.14	254.59
739.47	254.31
739.80	254.04
740.13	253.75
740.46	253.42
740.79	253.11
741.12	252.79
741.45	252.50
741.78	252.14
742.11	251.90
742.44	251.55
742.77	251.32
743.10	251.03
743.43	250.73
743.75	250.35
744.08	250.22
744.41	249.91
744.74	249.65
745.07	249.36
745.40	249.14
745.73	248.90
746.06	248.63
746.39	248.36
746.71	248.08
747.04	247.80
747.37	247.53
747.70	247.29
748.03	247.07
748.36	246.83
748.68	246.60
749.01	246.34
749.34	246.10
749.67	245.84
750.00	245.60
750.33	245.47
750.65	245.28
750.98	244.94
751.31	244.72
751.64	244.51
751.97	244.41
752.29	244.18
752.62	243.91
752.95	243.69
753.28	243.49
753.60	243.31
753.93	243.11
754.26	242.92
754.59	242.69
754.91	242.48
755.24	242.31
755.57	242.13
755.90	241.95
756.22	241.76
756.55	241.56
756.88	241.39
757.20	241.13
757.53	240.90
757.86	240.72
758.19	240.57
758.51	240.37
758.84	240.13
759.17	239.94
759.49	239.81
759.82	239.72
760.15	239.57
760.47	239.40
760.80	239.24
761.13	239.10
761.45	238.93
761.78	238.80
762.11	238.64
762.43	238.46
762.76	238.30
763.08	238.16
763.41	238.02
763.74	237.88
764.06	237.75
764.39	237.59
764.71	237.45
765.04	237.29
765.37	237.16
765.69	237.04
766.02	236.92
766.34	236.76
766.67	236.56
767.00	236.44
767.32	236.33
767.65	236.27
767.97	236.14
768.30	236.06
768.62	235.94
768.95	235.84
769.27	235.73
769.60	235.64
769.92	235.51
770.25	235.39
770.57	235.24
770.90	235.12
771.22	235.03
771.55	234.94
771.87	234.88
772.20	234.76
772.52	234.72
772.85	234.78
773.17	234.68
773.50	234.60
773.82	234.50
774.15	234.40
774.47	234.24
774.80	234.16
775.12	234.08
775.45	234.00
775.77	233.92
776.09	233.85
776.42	233.74
776.74	233.71
777.07	233.63
777.39	233.58
777.72	233.50
778.04	233.45
778.36	233.36
778.69	233.28
779.01	233.23
779.33	233.09
779.66	232.87
779.98	232.81
780.31	232.77
780.63	232.77
780.95	232.72
781.28	232.64
781.60	232.59
781.92	232.50
782.25	232.43
782.57	232.33
782.89	232.25
783.22	232.21
783.54	232.16
783.86	232.13
784.19	232.07
784.51	232.08
784.83	232.02
785.16	231.99
785.48	231.95
785.80	231.94
786.12	231.91
786.45	231.90
786.77	231.91
787.09	231.85
787.42	231.72
787.74	231.66
788.06	231.65
788.38	231.64
788.71	231.61
789.03	231.62
789.35	231.60
789.67	231.57
789.99	231.52
790.32	231.43
790.64	231.40
790.96	231.43
791.28	231.35
791.61	231.32
791.93	231.27
792.25	231.22
792.57	231.22
792.89	231.18
793.21	231.17
793.54	231.09
793.86	231.05
794.18	231.05
794.50	231.00
794.82	230.96
795.14	230.91
795.47	230.91
795.79	230.81
796.11	230.76
796.43	230.72
796.75	230.70
797.07	230.70
797.39	230.66
797.71	230.54
798.04	230.52
798.36	230.47
798.68	230.45
799.00	230.42
799.32	230.33
799.64	230.32
799.96	230.23
800.28	230.24
800.60	230.19
800.92	230.14
801.24	230.09
801.56	230.05
801.89	230.01
802.21	229.99
802.53	229.95
802.85	229.94
803.17	229.96
803.49	229.91
803.81	229.85
804.13	229.81
804.45	229.80
804.77	229.76
805.09	229.75
805.41	229.69
805.73	229.65
806.05	229.60
806.37	229.55
806.69	229.53
807.01	229.48
807.33	229.46
807.65	229.41
807.97	229.45
808.28	229.43
808.60	229.42
808.92	229.36
809.24	229.38
809.56	229.36
809.88	229.29
810.20	229.29
810.52	229.28
810.84	229.26
811.16	229.19
811.48	229.14
811.80	229.13
812.12	229.11
812.43	229.11
812.75	229.09
813.07	229.07
813.39	229.05
813.71	229.00
814.03	228.94
814.35	228.92
814.67	228.88
814.98	228.87
815.30	228.81
815.62	228.79
815.94	228.69
816.26	228.72
816.58	228.72
816.89	228.70
817.21	228.67
817.53	228.65
817.85	228.68
818.17	228.65
818.48	228.62
818.80	228.62
819.12	228.60
819.44	228.59
819.76	228.50
820.07	228.49
820.39	228.49
820.71	228.53
821.03	228.50
821.34	228.47
821.66	228.44
821.98	228.45
822.30	228.42
822.61	228.49
822.93	228.42
823.25	228.40
823.57	228.37
823.88	228.37
824.20	228.36
824.52	228.37
824.83	228.39
825.15	228.37
825.47	228.36
825.79	228.35
826.10	228.33
826.42	228.35
826.74	228.34
827.05	228.31
827.37	228.30
827.69	228.27
828.00	228.28
828.32	228.29
828.64	228.26
828.95	228.32
829.27	228.31
829.58	228.27
829.90	228.27
830.22	228.30
830.53	228.28
830.85	228.25
831.17	228.20
831.48	228.19
831.80	228.18
832.11	228.17
832.43	228.18
832.75	228.15
833.06	228.23
833.38	228.22
833.69	228.21
834.01	228.20
834.32	228.20
834.64	228.18
834.96	228.18
835.27	228.16
835.59	228.13
835.90	228.07
836.22	228.09
836.53	228.08
836.85	228.04
837.16	228.13
837.48	228.16
837.79	228.19
838.11	228.17
838.42	228.19
838.74	228.21
839.05	228.17
839.37	228.19
839.68	228.14
840.00	228.13
840.31	228.14
840.63	228.11
840.94	228.12
841.26	228.10
841.57	228.10
841.88	228.11
842.20	228.09
842.51	228.10
842.83	228.06
843.14	228.14
843.46	228.13
843.77	228.05
844.08	228.01
844.40	228.00
844.71	227.98
845.03	227.97
845.34	227.91
845.65	227.90
845.97	227.88
846.28	227.86
846.60	227.83
846.91	227.79
847.22	227.78
847.54	227.78
847.85	227.76
848.16	227.72
848.48	227.69
848.79	227.72
849.10	227.73
849.42	227.74
849.73	227.63
850.04	227.60
850.36	227.55
850.67	227.58
850.98	227.55
851.30	227.56
851.61	227.52
851.92	227.54
852.23	227.57
852.55	227.56
852.86	227.53
853.17	227.54
853.49	227.57
853.80	227.59
854.11	227.56
854.42	227.57
854.74	227.55
855.05	227.59
855.36	227.52
855.67	227.50
855.99	227.48
856.30	227.58
856.61	227.60
856.92	227.57
857.23	227.54
857.55	227.50
857.86	227.50
858.17	227.51
858.48	227.47
858.79	227.44
859.11	227.44
859.42	227.43
859.73	227.42
860.04	227.42
860.35	227.40
860.66	227.41
860.98	227.40
861.29	227.36
861.60	227.34
861.91	227.34
862.22	227.33
862.53	227.36
862.84	227.27
863.16	227.29
863.47	227.28
863.78	227.31
864.09	227.33
864.40	227.32
864.71	227.34
865.02	227.36
865.33	227.36
865.64	227.33
865.95	227.33
866.27	227.40
866.58	227.39
866.89	227.41
867.20	227.38
867.51	227.36
867.82	227.40
868.13	227.41
868.44	227.40
868.75	227.39
869.06	227.36
869.37	227.35
869.68	227.31
869.99	227.37
870.30	227.32
870.61	227.29
870.92	227.28
871.23	227.25
871.54	227.25
871.85	227.27
872.16	227.31
872.47	227.29
872.78	227.27
873.09	227.27
873.40	227.23
873.71	227.27
874.02	227.29
874.33	227.27
874.64	227.27
874.95	227.29
875.26	227.29
875.56	227.32
875.87	227.30
876.18	227.31
876.49	227.37
876.80	227.39
877.11	227.38
877.42	227.38
877.73	227.39
878.04	227.35
878.35	227.33
878.66	227.30
878.96	227.30
879.27	227.24
879.58	227.21
879.89	227.21
880.20	227.23
880.51	227.23
880.82	227.24
881.12	227.23
881.43	227.19
881.74	227.17
882.05	227.15
882.36	227.16
882.67	227.17
882.97	227.07
883.28	227.03
883.59	227.02
883.90	227.08
884.21	227.08
884.51	227.10
884.82	227.09
885.13	227.10
885.44	227.08
885.74	227.07
886.05	227.06
886.36	227.07
886.67	227.03
886.98	227.10
887.28	227.09
887.59	227.08
887.90	227.09
888.20	227.10
888.51	227.09
888.82	227.07
889.13	227.05
889.43	227.13
889.74	227.13
890.05	227.13
890.35	227.06
890.66	227.05
890.97	227.03
891.28	227.02
891.58	227.03
891.89	227.02
892.20	227.02
892.50	227.02
892.81	226.99
893.12	226.99
893.42	226.90
893.73	226.92
894.04	226.92
894.34	226.92
894.65	226.92
894.95	226.91
895.26	226.92
895.57	226.94
895.87	226.85
896.18	226.88
896.48	226.89
896.79	226.91
897.10	226.91
897.40	226.94
897.71	226.97
898.01	226.93
898.32	226.96
898.63	226.98
898.93	226.96
899.24	226.98
899.54	226.97
899.85	226.98
900.15	226.97
900.46	226.95
900.76	226.95
901.07	226.93
901.38	226.93
901.68	226.95
901.99	226.91
902.29	226.93
902.60	226.93
902.90	226.92
903.21	226.91
903.51	226.93
903.82	226.94
904.12	226.91
904.43	226.91
904.73	226.89
905.03	226.90
905.34	227.03
905.64	227.03
905.95	227.02
906.25	226.99
906.56	226.98
906.86	227.00
907.17	226.99
907.47	226.98
907.77	226.99
908.08	226.96
908.38	226.97
908.69	226.97
908.99	226.95
909.30	226.94
909.60	226.96
909.90	226.94
910.21	226.91
910.51	226.89
910.81	226.91
911.12	226.92
911.42	226.92
911.73	226.78
912.03	226.80
912.33	226.81
912.64	226.82
912.94	226.83
913.24	226.81
913.55	226.79
913.85	226.80
914.15	226.78
914.46	226.82
914.76	226.80
915.06	226.79
915.37	226.78
915.67	226.78
915.97	226.77
916.27	226.72
916.58	226.72
916.88	226.75
917.18	226.74
917.49	226.81
917.79	226.79
918.09	226.84
918.39	226.86
918.70	226.85
919.00	226.86
919.30	226.90
919.60	226.90
919.91	226.90
920.21	226.88
920.51	226.87
920.81	226.83
921.12	226.85
921.42	226.86
921.72	226.87
922.02	226.87
922.32	226.89
922.63	226.88
922.93	226.93
923.23	226.91
923.53	226.91
923.83	226.83
924.13	226.84
924.44	226.82
924.74	226.82
925.04	226.83
925.34	226.82
925.64	226.76
925.94	226.75
926.24	226.78
926.55	226.78
926.85	226.78
927.15	226.78
927.45	226.78
927.75	226.77
928.05	226.73
928.35	226.73
928.65	226.74
928.95	226.78
929.26	226.74
929.56	226.76
929.86	226.77
930.16	226.79
930.46	226.76
930.76	226.77
931.06	226.77
931.36	226.73
931.66	226.73
931.96	226.74
932.26	226.77
932.56	226.73
932.86	226.72
933.16	226.74
933.46	226.74
933.76	226.72
934.06	226.73
934.36	226.78
934.66	226.76
934.96	226.73
935.26	226.69
935.56	226.72
935.86	226.67
936.16	226.67
936.46	226.63
936.76	226.65
937.06	226.60
937.36	226.57
937.66	226.61
937.96	226.65
938.26	226.62
938.56	226.64
938.86	226.65
939.16	226.71
939.46	226.71
939.76	226.72
940.06	226.73
940.35	226.71
940.65	226.69
940.95	226.73
941.25	226.72
941.55	226.74
941.85	226.75
942.15	226.79
942.45	226.80
942.75	226.85
943.04	226.85
943.34	226.89
943.64	226.88
943.94	226.85
944.24	226.83
944.54	226.85
944.84	226.85
945.13	226.87
945.43	226.86
945.73	226.88
946.03	226.87
946.33	226.90
946.62	226.89
946.92	226.88
947.22	226.88
947.52	226.89
947.82	226.92
948.11	226.88
948.41	226.87
948.71	226.83
949.01	226.84
949.31	226.86
949.60	226.86
949.90	226.91
950.20	226.93
950.50	226.94
950.79	226.97
951.09	226.98
951.39	226.98
951.69	226.97
951.98	226.99
952.28	227.00
952.58	226.98
952.87	227.03
953.17	227.04
953.47	227.03
953.76	227.03
954.06	227.01
954.36	226.99
954.66	227.03
954.95	227.08
955.25	227.08
955.55	227.08
955.84	227.06
956.14	227.06
956.44	227.03
956.73	227.01
957.03	226.99
957.32	226.93
957.62	226.93
957.92	226.95
958.21	226.89
958.51	227.00
958.81	227.02
959.10	227.00
959.40	227.01
959.69	227.02
959.99	227.01
960.29	227.00
960.58	227.02
960.88	227.01
961.17	226.98
961.47	227.01
961.76	226.96
962.06	226.97
962.36	226.92
962.65	226.93
962.95	226.93
963.24	226.91
963.54	226.94
963.83	226.92
964.13	226.91
964.42	226.89
964.72	226.82
965.01	226.79
965.31	226.74
965.60	226.70
965.90	226.76
966.19	226.74
966.49	226.71
966.78	226.67
967.08	226.65
967.37	226.65
967.67	226.59
967.96	226.61
968.26	226.60
968.55	226.62
968.85	226.61
969.14	226.59
969.43	226.59
969.73	226.60
970.02	226.58
970.32	226.57
970.61	226.58
970.91	226.60
971.20	226.55
971.49	226.56
971.79	226.60
972.08	226.55
972.38	226.58
972.67	226.59
972.96	226.58
973.26	226.57
973.55	226.59
973.85	226.60
974.14	226.60
974.43	226.61
974.73	226.58
975.02	226.60
975.31	226.59
975.61	226.59
975.90	226.54
976.19	226.55
976.49	226.55
976.78	226.55
977.07	226.51
977.37	226.59
977.66	226.61
977.95	226.61
978.24	226.58
978.54	226.58
978.83	226.60
979.12	226.63
979.42	226.62
979.71	226.63
980.00	226.63
980.29	226.67
980.59	226.67
980.88	226.71
981.17	226.72
981.46	226.77
981.76	226.79
982.05	226.87
982.34	226.90
982.63	226.92
982.93	226.95
983.22	226.96
983.51	226.94
983.80	226.94
984.09	226.96
984.39	226.99
984.68	227.02
984.97	227.04
985.26	227.08
985.55	227.10
985.85	227.11
986.14	227.15
986.43	227.17
986.72	227.15
987.01	227.13
987.30	227.13
987.59	227.10
987.89	227.10
988.18	227.07
988.47	227.07
988.76	227.08
989.05	227.07
989.34	227.09
989.63	227.13
989.92	227.15
990.22	227.16
990.51	227.17
990.80	227.16
991.09	227.18
991.38	227.16
991.67	227.17
991.96	227.16
992.25	227.15
992.54	227.14
992.83	227.15
993.12	227.16
993.41	227.18
993.70	227.22
993.99	227.23
994.28	227.25
994.58	227.26
994.87	227.24
995.16	227.24
995.45	227.16
995.74	227.10
996.03	227.10
996.32	227.07
996.61	227.06
996.90	227.03
997.19	227.02
997.48	227.04
997.77	227.00
998.06	226.98
998.34	227.01
998.63	227.00
998.92	227.01
999.21	227.02
999.50	227.02
999.79	227.01
1000.08	227.00
1000.37	227.01
1000.66	226.96
1000.95	226.95
1001.24	226.93
1001.53	226.99
1001.82	226.97
1002.11	226.95
1002.40	226.94
1002.68	226.96
1002.97	227.02
1003.26	226.97
1003.55	226.94
1003.84	226.96
1004.13	226.98
1004.42	226.94
1004.71	226.91
1004.99	226.87
1005.28	226.83
1005.57	226.79
1005.86	226.74
1006.15	226.70
1006.44	226.65
1006.72	226.68
1007.01	226.71
1007.30	226.68
1007.59	226.68
1007.88	226.71
1008.17	226.70
1008.45	226.70
1008.74	226.65
1009.03	226.60
1009.32	226.63
1009.60	226.61
1009.89	226.56
1010.18	226.54
1010.47	226.52
1010.76	226.51
1011.04	226.54
1011.33	226.56
1011.62	226.56
1011.91	226.59
1012.19	226.63
1012.48	226.63
1012.77	226.66
1013.05	226.68
1013.34	226.73
1013.63	226.72
1013.92	226.71
1014.20	226.73
1014.49	226.74
1014.78	226.77
1015.06	226.72
1015.35	226.72
1015.64	226.74
1015.92	226.79
1016.21	226.80
1016.50	226.83
1016.78	226.85
1017.07	226.86
1017.36	226.84
1017.64	226.86
1017.93	226.87
1018.22	226.87
1018.50	226.88
1018.79	226.85
1019.08	226.83
1019.36	226.82
1019.65	226.80
1019.93	226.85
1020.22	226.85
1020.51	226.90
1020.79	226.91
1021.08	226.99
1021.36	226.67
1021.65	226.76
1021.94	227.09
1022.22	227.11
1022.51	226.39
1022.79	227.67
1023.08	226.83
1023.36	227.94
1023.65	227.30
>>>>>End Processed Spectral Data<<<<<
