SpectraSuite Data File
++++++++++++++++++++++++++++++++++++
Date: Fri Feb 01 15:01:05 EST 2013
User: group
Dark Spectrum Present: No
Reference Spectrum Present: No
Number of Sampled Component Spectra: 1
Spectrometers: USB2E7196
Integration Time (usec): 35000 (USB2E7196)
Spectra Averaged: 100 (USB2E7196)
Boxcar Smoothing: 10 (USB2E7196)
Correct for Electrical Dark: No (USB2E7196)
Strobe/Lamp Enabled: No (USB2E7196)
Correct for Detector Non-linearity: No (USB2E7196)
Correct for Stray Light: No (USB2E7196)
Number of Pixels in Processed Spectrum: 2048
>>>>>Begin Processed Spectral Data<<<<<
339.09	0.00
339.48	215.32
339.86	216.33
340.24	217.73
340.63	219.91
341.01	221.93
341.39	221.96
341.78	223.67
342.16	224.23
342.54	224.82
342.93	213.48
343.31	224.25
343.69	224.79
344.07	225.28
344.46	225.75
344.84	226.09
345.22	226.36
345.60	226.60
345.99	226.78
346.37	226.93
346.75	227.04
347.13	227.09
347.52	227.14
347.90	227.18
348.28	227.19
348.66	227.24
349.05	227.25
349.43	227.33
349.81	227.36
350.19	227.42
350.57	227.47
350.96	227.58
351.34	227.69
351.72	227.75
352.10	227.84
352.48	227.86
352.87	227.90
353.25	227.96
353.63	228.04
354.01	228.10
354.39	228.18
354.77	228.26
355.15	228.33
355.54	228.39
355.92	228.43
356.30	228.52
356.68	228.69
357.06	228.74
357.44	228.77
357.82	228.84
358.20	228.92
358.58	228.99
358.97	229.03
359.35	229.10
359.73	229.17
360.11	229.26
360.49	229.31
360.87	229.40
361.25	229.46
361.63	229.56
362.01	229.61
362.39	229.62
362.77	229.65
363.15	229.72
363.53	229.76
363.91	229.80
364.29	229.79
364.67	229.68
365.05	229.71
365.43	229.75
365.81	229.76
366.19	229.77
366.57	229.76
366.95	229.78
367.33	229.76
367.71	229.73
368.09	229.69
368.47	229.69
368.85	229.68
369.23	229.66
369.61	229.57
369.99	229.56
370.37	229.56
370.75	229.56
371.13	229.49
371.51	229.42
371.89	229.38
372.27	229.35
372.65	229.30
373.03	229.23
373.41	229.16
373.78	229.10
374.16	228.98
374.54	228.89
374.92	228.79
375.30	228.72
375.68	228.64
376.06	228.57
376.44	228.49
376.82	228.42
377.19	228.31
377.57	228.25
377.95	228.14
378.33	228.02
378.71	227.89
379.09	227.82
379.47	227.77
379.84	227.64
380.22	227.55
380.60	227.47
380.98	227.42
381.36	227.34
381.73	227.27
382.11	227.22
382.49	227.15
382.87	227.07
383.25	227.01
383.62	227.05
384.00	226.97
384.38	226.89
384.76	226.79
385.13	226.74
385.51	226.68
385.89	226.61
386.27	226.56
386.64	226.51
387.02	226.46
387.40	226.41
387.78	226.38
388.15	226.34
388.53	226.30
388.91	226.26
389.29	226.22
389.66	226.19
390.04	226.17
390.42	226.16
390.79	226.12
391.17	226.09
391.55	225.99
391.92	225.98
392.30	225.99
392.68	225.98
393.05	225.99
393.43	225.99
393.81	225.99
394.18	226.00
394.56	226.01
394.94	226.05
395.31	226.07
395.69	226.15
396.06	226.22
396.44	226.26
396.82	226.27
397.19	226.36
397.57	226.39
397.95	226.46
398.32	226.49
398.70	226.56
399.07	226.65
399.45	226.70
399.82	226.80
400.20	226.90
400.58	227.02
400.95	227.07
401.33	227.19
401.70	227.36
402.08	227.50
402.45	227.67
402.83	227.78
403.20	227.89
403.58	227.97
403.95	228.11
404.33	228.26
404.71	228.42
405.08	228.65
405.46	228.81
405.83	228.96
406.21	229.13
406.58	229.34
406.96	229.50
407.33	229.72
407.70	229.90
408.08	230.20
408.45	230.43
408.83	230.73
409.20	230.95
409.58	231.16
409.95	231.41
410.33	231.65
410.70	231.94
411.08	232.25
411.45	232.59
411.82	232.92
412.20	233.26
412.57	233.68
412.95	233.96
413.32	234.37
413.69	234.78
414.07	235.22
414.44	235.70
414.82	236.19
415.19	236.75
415.56	237.30
415.94	237.82
416.31	238.46
416.68	239.06
417.06	239.76
417.43	240.42
417.81	241.19
418.18	241.98
418.55	242.83
418.93	243.70
419.30	244.55
419.67	245.49
420.04	246.44
420.42	247.41
420.79	248.55
421.16	249.64
421.54	250.84
421.91	252.07
422.28	253.31
422.66	254.64
423.03	255.93
423.40	257.29
423.77	258.70
424.15	260.10
424.52	261.60
424.89	263.21
425.26	264.76
425.64	266.19
426.01	267.77
426.38	269.37
426.75	271.05
427.13	272.81
427.50	274.56
427.87	276.48
428.24	278.38
428.61	280.16
428.99	282.16
429.36	284.25
429.73	286.31
430.10	288.33
430.47	290.35
430.85	292.48
431.22	294.69
431.59	297.12
431.96	299.38
432.33	301.85
432.70	304.22
433.08	307.02
433.45	309.67
433.82	312.30
434.19	315.19
434.56	317.97
434.93	320.62
435.30	323.28
435.68	326.15
436.05	328.94
436.42	331.76
436.79	334.26
437.16	336.98
437.53	339.81
437.90	342.67
438.27	345.50
438.64	348.32
439.01	350.96
439.38	353.14
439.75	355.33
440.13	357.85
440.50	360.19
440.87	362.08
441.24	363.98
441.61	366.15
441.98	367.67
442.35	369.50
442.72	371.36
443.09	373.20
443.46	374.17
443.83	374.77
444.20	375.23
444.57	376.08
444.94	376.36
445.31	376.72
445.68	377.03
446.05	377.07
446.42	376.71
446.79	376.27
447.16	375.85
447.53	375.52
447.90	374.34
448.27	373.16
448.64	371.57
449.01	370.51
449.37	368.51
449.74	366.61
450.11	364.36
450.48	361.91
450.85	359.37
451.22	357.26
451.59	355.25
451.96	353.34
452.33	350.75
452.70	348.43
453.07	345.56
453.43	342.65
453.80	339.83
454.17	337.14
454.54	334.63
454.91	331.91
455.28	329.24
455.65	326.77
456.02	324.36
456.38	322.20
456.75	319.52
457.12	317.31
457.49	315.08
457.86	312.93
458.23	311.04
458.59	308.99
458.96	306.89
459.33	305.03
459.70	303.15
460.07	301.62
460.43	299.88
460.80	298.26
461.17	296.82
461.54	295.34
461.91	293.88
462.27	292.38
462.64	291.06
463.01	289.71
463.38	288.36
463.74	286.96
464.11	285.81
464.48	284.78
464.85	283.64
465.21	282.79
465.58	281.83
465.95	280.74
466.32	279.84
466.68	278.92
467.05	277.99
467.42	277.08
467.78	276.14
468.15	275.25
468.52	274.58
468.88	273.72
469.25	272.95
469.62	272.34
469.98	271.67
470.35	271.06
470.72	270.43
471.08	269.78
471.45	269.23
471.82	268.63
472.18	267.97
472.55	267.52
472.92	266.93
473.28	266.45
473.65	265.94
474.02	265.47
474.38	265.08
474.75	264.74
475.11	264.36
475.48	264.09
475.85	263.82
476.21	263.57
476.58	263.37
476.94	263.22
477.31	263.00
477.67	262.85
478.04	262.71
478.41	262.62
478.77	262.66
479.14	262.55
479.50	262.54
479.87	262.63
480.23	262.70
480.60	262.79
480.96	262.85
481.33	263.04
481.69	263.23
482.06	263.39
482.42	263.57
482.79	263.80
483.15	264.10
483.52	264.47
483.88	264.78
484.25	265.14
484.61	265.53
484.98	265.99
485.34	266.51
485.71	267.10
486.07	267.70
486.44	268.25
486.80	269.00
487.17	269.72
487.53	270.52
487.90	271.37
488.26	272.32
488.62	273.33
488.99	274.33
489.35	275.34
489.72	276.46
490.08	277.70
490.44	278.97
490.81	280.31
491.17	281.64
491.54	283.14
491.90	284.67
492.26	286.32
492.63	288.02
492.99	289.80
493.36	291.68
493.72	293.68
494.08	295.73
494.45	297.99
494.81	300.35
495.17	302.76
495.54	305.31
495.90	307.96
496.26	310.73
496.63	313.73
496.99	316.85
497.35	320.07
497.72	323.45
498.08	326.99
498.44	330.66
498.80	334.59
499.17	338.61
499.53	342.80
499.89	347.16
500.26	351.68
500.62	356.33
500.98	361.31
501.34	366.43
501.71	371.75
502.07	377.14
502.43	382.71
502.79	388.58
503.16	394.56
503.52	400.86
503.88	407.26
504.24	413.88
504.60	420.78
504.97	427.96
505.33	435.28
505.69	442.92
506.05	450.70
506.41	458.55
506.78	466.74
507.14	475.15
507.50	483.79
507.86	492.82
508.22	501.97
508.59	511.10
508.95	520.62
509.31	530.46
509.67	540.55
510.03	550.83
510.39	561.38
510.75	572.24
511.12	583.10
511.48	594.36
511.84	605.75
512.20	617.26
512.56	629.10
512.92	641.29
513.28	653.67
513.64	666.09
514.00	678.83
514.37	691.73
514.73	704.91
515.09	718.03
515.45	731.30
515.81	744.91
516.17	758.97
516.53	773.16
516.89	787.40
517.25	801.54
517.61	816.03
517.97	830.47
518.33	844.91
518.69	859.72
519.05	874.80
519.41	890.05
519.77	905.61
520.13	921.19
520.49	936.50
520.85	952.00
521.21	967.81
521.57	984.12
521.93	1000.00
522.29	1016.39
522.65	1032.79
523.01	1049.08
523.37	1065.18
523.73	1081.38
524.09	1097.38
524.45	1113.66
524.81	1130.47
525.17	1147.35
525.53	1164.28
525.89	1181.26
526.25	1198.17
526.61	1214.53
526.97	1231.26
527.33	1247.72
527.68	1264.50
528.04	1281.14
528.40	1297.77
528.76	1314.94
529.12	1331.65
529.48	1348.50
529.84	1364.60
530.20	1381.25
530.56	1398.43
530.91	1415.87
531.27	1432.78
531.63	1449.44
531.99	1466.12
532.35	1482.24
532.71	1498.20
533.07	1514.54
533.42	1530.46
533.78	1546.48
534.14	1562.85
534.50	1578.35
534.86	1594.41
535.21	1609.52
535.57	1625.56
535.93	1641.12
536.29	1655.91
536.65	1671.09
537.00	1686.03
537.36	1701.36
537.72	1716.03
538.08	1730.35
538.44	1744.35
538.79	1758.25
539.15	1772.02
539.51	1785.90
539.87	1800.17
540.22	1814.03
540.58	1827.93
540.94	1841.50
541.29	1854.71
541.65	1867.50
542.01	1880.82
542.37	1893.13
542.72	1905.68
543.08	1917.62
543.44	1930.14
543.79	1941.49
544.15	1952.32
544.51	1963.84
544.87	1974.94
545.22	1985.77
545.58	1996.11
545.94	2005.90
546.29	2015.84
546.65	2025.74
547.01	2034.91
547.36	2043.80
547.72	2052.37
548.07	2060.25
548.43	2068.36
548.79	2076.38
549.14	2083.92
549.50	2091.31
549.86	2099.21
550.21	2106.52
550.57	2113.61
550.92	2120.21
551.28	2127.35
551.64	2134.53
551.99	2141.20
552.35	2147.28
552.70	2153.43
553.06	2159.44
553.41	2165.76
553.77	2171.72
554.13	2177.90
554.48	2183.97
554.84	2189.20
555.19	2194.46
555.55	2199.55
555.90	2203.96
556.26	2208.69
556.61	2213.60
556.97	2217.77
557.32	2221.74
557.68	2225.76
558.03	2230.10
558.39	2233.79
558.74	2238.29
559.10	2241.97
559.45	2245.47
559.81	2249.84
560.16	2253.54
560.52	2256.70
560.87	2260.13
561.23	2262.82
561.58	2265.68
561.94	2268.31
562.29	2270.79
562.64	2273.32
563.00	2275.85
563.35	2279.37
563.71	2282.47
564.06	2285.46
564.42	2288.19
564.77	2290.59
565.12	2292.93
565.48	2294.58
565.83	2296.22
566.19	2297.41
566.54	2298.46
566.89	2299.50
567.25	2299.86
567.60	2301.13
567.96	2302.72
568.31	2303.36
568.66	2304.18
569.02	2304.62
569.37	2304.78
569.72	2305.39
570.08	2305.30
570.43	2305.20
570.78	2304.35
571.14	2302.62
571.49	2301.22
571.84	2300.85
572.20	2299.47
572.55	2298.20
572.90	2296.61
573.26	2295.19
573.61	2293.38
573.96	2291.46
574.31	2288.43
574.67	2285.33
575.02	2281.35
575.37	2277.87
575.72	2273.92
576.08	2270.52
576.43	2267.06
576.78	2263.17
577.13	2259.87
577.49	2256.66
577.84	2253.09
578.19	2249.22
578.54	2245.41
578.90	2240.94
579.25	2235.10
579.60	2230.09
579.95	2224.82
580.30	2219.64
580.66	2214.37
581.01	2209.30
581.36	2204.16
581.71	2199.69
582.06	2195.00
582.42	2190.42
582.77	2185.02
583.12	2180.34
583.47	2175.44
583.82	2170.07
584.17	2164.76
584.53	2159.16
584.88	2153.46
585.23	2147.43
585.58	2141.76
585.93	2136.35
586.28	2131.56
586.63	2126.44
586.98	2121.34
587.34	2116.66
587.69	2111.68
588.04	2106.16
588.39	2100.28
588.74	2093.69
589.09	2087.45
589.44	2080.48
589.79	2074.51
590.14	2068.79
590.49	2062.07
590.84	2055.58
591.19	2049.54
591.54	2042.94
591.89	2035.43
592.25	2028.56
592.60	2021.31
592.95	2013.74
593.30	2006.20
593.65	1998.49
594.00	1991.47
594.35	1984.09
594.70	1975.90
595.05	1968.62
595.40	1961.40
595.75	1953.84
596.10	1947.44
596.45	1940.66
596.80	1934.57
597.15	1927.71
597.50	1920.29
597.85	1913.94
598.19	1907.29
598.54	1900.15
598.89	1893.49
599.24	1887.52
599.59	1880.80
599.94	1874.63
600.29	1868.30
600.64	1861.70
600.99	1854.04
601.34	1847.11
601.69	1840.04
602.04	1833.15
602.39	1825.59
602.74	1818.69
603.08	1812.06
603.43	1805.52
603.78	1798.25
604.13	1790.95
604.48	1783.53
604.83	1776.83
605.18	1769.71
605.53	1761.62
605.87	1753.59
606.22	1746.30
606.57	1738.50
606.92	1731.11
607.27	1723.78
607.62	1716.81
607.96	1709.50
608.31	1702.96
608.66	1695.33
609.01	1687.80
609.36	1680.25
609.70	1672.33
610.05	1664.31
610.40	1656.55
610.75	1648.07
611.10	1640.31
611.44	1631.98
611.79	1624.29
612.14	1615.59
612.49	1606.50
612.83	1598.22
613.18	1590.10
613.53	1582.22
613.88	1573.57
614.22	1565.33
614.57	1556.86
614.92	1548.76
615.27	1541.21
615.61	1532.80
615.96	1524.80
616.31	1517.20
616.65	1509.82
617.00	1502.23
617.35	1494.42
617.70	1486.00
618.04	1477.55
618.39	1469.40
618.74	1461.86
619.08	1453.42
619.43	1445.86
619.78	1438.95
620.12	1431.71
620.47	1424.23
620.82	1415.93
621.16	1408.55
621.51	1400.95
621.85	1393.37
622.20	1384.89
622.55	1376.61
622.89	1368.82
623.24	1361.28
623.59	1354.05
623.93	1346.63
624.28	1339.43
624.62	1331.86
624.97	1324.65
625.32	1318.02
625.66	1311.06
626.01	1303.71
626.35	1296.28
626.70	1288.66
627.04	1280.96
627.39	1273.20
627.73	1265.76
628.08	1258.90
628.43	1251.61
628.77	1244.28
629.12	1236.61
629.46	1229.50
629.81	1222.12
630.15	1214.93
630.50	1207.57
630.84	1199.22
631.19	1191.30
631.53	1183.92
631.88	1176.54
632.22	1169.05
632.57	1161.73
632.91	1154.18
633.26	1146.94
633.60	1139.68
633.95	1132.66
634.29	1125.69
634.64	1119.03
634.98	1111.82
635.32	1104.70
635.67	1098.20
636.01	1091.58
636.36	1084.84
636.70	1078.48
637.05	1071.87
637.39	1065.55
637.73	1059.05
638.08	1053.33
638.42	1047.45
638.77	1040.99
639.11	1034.48
639.45	1028.19
639.80	1021.65
640.14	1015.27
640.49	1008.79
640.83	1002.53
641.17	996.31
641.52	989.93
641.86	983.66
642.20	977.85
642.55	971.70
642.89	965.18
643.23	958.80
643.58	953.10
643.92	946.87
644.26	940.83
644.61	934.82
644.95	928.81
645.29	922.18
645.64	915.42
645.98	909.19
646.32	903.34
646.66	897.30
647.01	891.47
647.35	885.81
647.69	880.01
648.04	874.58
648.38	868.80
648.72	862.87
649.06	856.85
649.41	850.98
649.75	844.95
650.09	839.08
650.43	833.17
650.78	827.06
651.12	821.11
651.46	815.44
651.80	809.66
652.14	804.28
652.49	798.90
652.83	793.74
653.17	787.92
653.51	782.18
653.85	776.79
654.20	771.17
654.54	765.25
654.88	759.55
655.22	753.68
655.56	747.99
655.90	742.54
656.25	737.24
656.59	731.92
656.93	726.86
657.27	721.74
657.61	716.41
657.95	711.33
658.29	706.32
658.64	701.16
658.98	695.91
659.32	690.38
659.66	685.25
660.00	679.95
660.34	675.09
660.68	670.24
661.02	665.20
661.36	660.46
661.70	655.96
662.05	651.55
662.39	647.13
662.73	642.70
663.07	638.36
663.41	633.93
663.75	629.36
664.09	624.80
664.43	620.41
664.77	616.26
665.11	612.06
665.45	607.94
665.79	603.83
666.13	599.70
666.47	595.68
666.81	591.48
667.15	587.38
667.49	583.53
667.83	579.75
668.17	575.87
668.51	571.93
668.85	567.95
669.19	564.18
669.53	560.37
669.87	556.49
670.21	552.84
670.55	549.23
670.89	545.80
671.23	542.39
671.57	538.97
671.91	535.52
672.25	532.01
672.58	528.50
672.92	525.12
673.26	522.02
673.60	518.97
673.94	515.91
674.28	513.05
674.62	510.17
674.96	507.12
675.30	504.26
675.64	501.31
675.97	498.58
676.31	495.70
676.65	492.82
676.99	490.11
677.33	487.28
677.67	484.50
678.01	481.53
678.34	478.59
678.68	475.73
679.02	472.96
679.36	470.30
679.70	467.63
680.04	464.85
680.37	461.97
680.71	459.19
681.05	456.62
681.39	453.94
681.73	451.32
682.06	448.78
682.40	446.22
682.74	443.73
683.08	441.17
683.42	438.66
683.75	436.21
684.09	433.71
684.43	431.28
684.77	428.85
685.10	426.58
685.44	424.30
685.78	422.03
686.12	419.74
686.45	417.46
686.79	415.20
687.13	413.11
687.46	410.99
687.80	408.85
688.14	406.68
688.48	404.65
688.81	402.45
689.15	400.35
689.49	398.29
689.82	396.21
690.16	394.17
690.50	392.23
690.83	390.32
691.17	388.42
691.51	386.54
691.84	384.75
692.18	382.85
692.52	380.91
692.85	379.02
693.19	377.22
693.52	375.40
693.86	373.61
694.20	371.82
694.53	370.05
694.87	368.21
695.21	366.44
695.54	364.59
695.88	362.83
696.21	361.08
696.55	359.31
696.88	357.67
697.22	356.00
697.56	354.41
697.89	352.71
698.23	351.04
698.56	349.45
698.90	347.81
699.23	346.11
699.57	344.56
699.90	342.99
700.24	341.43
700.58	339.84
700.91	338.32
701.25	336.87
701.58	335.49
701.92	334.13
702.25	332.74
702.59	331.40
702.92	330.07
703.26	328.75
703.59	327.53
703.93	326.31
704.26	325.06
704.60	323.70
704.93	322.44
705.26	321.21
705.60	320.06
705.93	318.90
706.27	317.93
706.60	316.89
706.94	315.85
707.27	314.69
707.61	313.67
707.94	312.64
708.27	311.53
708.61	310.46
708.94	309.43
709.28	308.44
709.61	307.44
709.94	306.46
710.28	305.46
710.61	304.52
710.95	303.42
711.28	302.48
711.61	301.55
711.95	300.66
712.28	299.72
712.61	298.70
712.95	297.77
713.28	296.87
713.61	296.00
713.95	295.02
714.28	294.22
714.61	293.37
714.95	292.49
715.28	291.68
715.61	290.80
715.95	289.96
716.28	289.13
716.61	288.31
716.95	287.53
717.28	286.80
717.61	285.99
717.94	285.29
718.28	284.50
718.61	283.82
718.94	283.12
719.27	282.45
719.61	281.82
719.94	281.18
720.27	280.45
720.60	279.74
720.94	279.17
721.27	278.56
721.60	277.95
721.93	277.42
722.27	276.88
722.60	276.35
722.93	275.80
723.26	275.32
723.59	274.76
723.93	274.24
724.26	273.71
724.59	273.18
724.92	272.67
725.25	272.19
725.59	271.67
725.92	271.18
726.25	270.71
726.58	270.21
726.91	269.73
727.24	269.28
727.57	268.85
727.91	268.36
728.24	267.95
728.57	267.50
728.90	267.03
729.23	266.52
729.56	266.12
729.89	265.67
730.22	265.17
730.55	264.75
730.89	264.31
731.22	263.88
731.55	263.46
731.88	263.05
732.21	262.64
732.54	262.21
732.87	261.79
733.20	261.42
733.53	261.06
733.86	260.67
734.19	260.26
734.52	259.84
734.85	259.53
735.18	259.11
735.51	258.75
735.84	258.36
736.17	258.02
736.50	257.62
736.83	257.39
737.16	257.02
737.49	256.67
737.82	256.31
738.15	255.98
738.48	255.64
738.81	255.31
739.14	254.99
739.47	254.67
739.80	254.34
740.13	254.01
740.46	253.66
740.79	253.34
741.12	253.04
741.45	252.75
741.78	252.39
742.11	252.08
742.44	251.73
742.77	251.43
743.10	251.12
743.43	250.81
743.75	250.35
744.08	250.21
744.41	249.89
744.74	249.61
745.07	249.30
745.40	249.05
745.73	248.78
746.06	248.51
746.39	248.21
746.71	247.94
747.04	247.66
747.37	247.38
747.70	247.10
748.03	246.86
748.36	246.62
748.68	246.37
749.01	246.11
749.34	245.89
749.67	245.66
750.00	245.45
750.33	245.30
750.65	245.10
750.98	244.77
751.31	244.57
751.64	244.39
751.97	244.21
752.29	243.99
752.62	243.75
752.95	243.55
753.28	243.37
753.60	243.14
753.93	242.97
754.26	242.78
754.59	242.60
754.91	242.41
755.24	242.23
755.57	242.04
755.90	241.85
756.22	241.65
756.55	241.47
756.88	241.27
757.20	241.04
757.53	240.88
757.86	240.70
758.19	240.57
758.51	240.40
758.84	240.22
759.17	240.02
759.49	239.88
759.82	239.74
760.15	239.60
760.47	239.49
760.80	239.32
761.13	239.20
761.45	239.10
761.78	238.98
762.11	238.86
762.43	238.72
762.76	238.60
763.08	238.49
763.41	238.35
763.74	238.24
764.06	238.11
764.39	238.01
764.71	237.90
765.04	237.77
765.37	237.65
765.69	237.52
766.02	237.44
766.34	237.31
766.67	237.16
767.00	237.07
767.32	237.01
767.65	236.97
767.97	236.90
768.30	236.74
768.62	236.62
768.95	236.46
769.27	236.36
769.60	236.30
769.92	236.18
770.25	236.07
770.57	235.96
770.90	235.85
771.22	235.71
771.55	235.64
771.87	235.54
772.20	235.42
772.52	235.46
772.85	235.45
773.17	235.36
773.50	235.25
773.82	235.14
774.15	235.00
774.47	234.84
774.80	234.74
775.12	234.67
775.45	234.57
775.77	234.53
776.09	234.46
776.42	234.36
776.74	234.34
777.07	234.23
777.39	234.14
777.72	234.06
778.04	233.97
778.36	233.87
778.69	233.79
779.01	233.76
779.33	233.52
779.66	233.35
779.98	233.31
780.31	233.26
780.63	233.23
780.95	233.15
781.28	233.06
781.60	232.95
781.92	232.88
782.25	232.80
782.57	232.72
782.89	232.61
783.22	232.52
783.54	232.42
783.86	232.40
784.19	232.30
784.51	232.27
784.83	232.22
785.16	232.12
785.48	232.05
785.80	231.96
786.12	231.94
786.45	231.90
786.77	231.83
787.09	231.76
787.42	231.67
787.74	231.63
788.06	231.61
788.38	231.59
788.71	231.52
789.03	231.49
789.35	231.44
789.67	231.40
789.99	231.41
790.32	231.34
790.64	231.29
790.96	231.34
791.28	231.25
791.61	231.19
791.93	231.17
792.25	231.14
792.57	231.16
792.89	231.12
793.21	231.08
793.54	231.03
793.86	230.99
794.18	230.97
794.50	230.90
794.82	230.84
795.14	230.84
795.47	230.85
795.79	230.85
796.11	230.79
796.43	230.76
796.75	230.69
797.07	230.67
797.39	230.64
797.71	230.54
798.04	230.54
798.36	230.52
798.68	230.49
799.00	230.47
799.32	230.41
799.64	230.40
799.96	230.42
800.28	230.40
800.60	230.39
800.92	230.38
801.24	230.39
801.56	230.38
801.89	230.33
802.21	230.29
802.53	230.23
802.85	230.25
803.17	230.26
803.49	230.23
803.81	230.19
804.13	230.17
804.45	230.14
804.77	230.14
805.09	230.14
805.41	230.09
805.73	230.06
806.05	230.00
806.37	229.99
806.69	229.93
807.01	229.93
807.33	229.90
807.65	229.82
807.97	229.82
808.28	229.78
808.60	229.77
808.92	229.73
809.24	229.77
809.56	229.72
809.88	229.70
810.20	229.69
810.52	229.69
810.84	229.67
811.16	229.65
811.48	229.60
811.80	229.60
812.12	229.62
812.43	229.59
812.75	229.61
813.07	229.57
813.39	229.55
813.71	229.49
814.03	229.44
814.35	229.46
814.67	229.38
814.98	229.36
815.30	229.34
815.62	229.30
815.94	229.21
816.26	229.24
816.58	229.16
816.89	229.15
817.21	229.12
817.53	229.09
817.85	229.09
818.17	229.08
818.48	229.02
818.80	229.00
819.12	229.00
819.44	228.93
819.76	228.88
820.07	228.85
820.39	228.83
820.71	228.84
821.03	228.77
821.34	228.73
821.66	228.69
821.98	228.66
822.30	228.62
822.61	228.64
822.93	228.55
823.25	228.55
823.57	228.49
823.88	228.46
824.20	228.41
824.52	228.39
824.83	228.32
825.15	228.29
825.47	228.26
825.79	228.23
826.10	228.20
826.42	228.21
826.74	228.17
827.05	228.14
827.37	228.09
827.69	228.12
828.00	228.10
828.32	228.12
828.64	228.08
828.95	228.14
829.27	228.08
829.58	228.09
829.90	228.07
830.22	228.12
830.53	228.07
830.85	228.07
831.17	228.04
831.48	228.04
831.80	228.05
832.11	228.03
832.43	228.01
832.75	228.03
833.06	228.07
833.38	228.07
833.69	228.06
834.01	228.06
834.32	228.03
834.64	228.06
834.96	228.00
835.27	228.02
835.59	227.97
835.90	228.00
836.22	228.02
836.53	228.01
836.85	227.97
837.16	228.08
837.48	228.10
837.79	228.11
838.11	228.14
838.42	228.12
838.74	228.12
839.05	228.11
839.37	228.09
839.68	228.04
840.00	228.07
840.31	228.11
840.63	228.10
840.94	228.12
841.26	228.13
841.57	228.16
841.88	228.16
842.20	228.16
842.51	228.15
842.83	228.14
843.14	228.24
843.46	228.26
843.77	228.21
844.08	228.17
844.40	228.15
844.71	228.15
845.03	228.13
845.34	228.14
845.65	228.15
845.97	228.16
846.28	228.17
846.60	228.14
846.91	228.12
847.22	228.13
847.54	228.11
847.85	228.09
848.16	228.09
848.48	228.06
848.79	228.11
849.10	228.11
849.42	228.13
849.73	228.07
850.04	228.04
850.36	228.02
850.67	228.06
850.98	228.04
851.30	228.02
851.61	228.06
851.92	228.06
852.23	228.07
852.55	228.07
852.86	228.07
853.17	228.05
853.49	228.05
853.80	228.07
854.11	228.05
854.42	228.04
854.74	228.03
855.05	228.02
855.36	227.94
855.67	227.91
855.99	227.87
856.30	227.95
856.61	227.94
856.92	227.90
857.23	227.86
857.55	227.87
857.86	227.84
858.17	227.84
858.48	227.78
858.79	227.74
859.11	227.73
859.42	227.69
859.73	227.68
860.04	227.65
860.35	227.62
860.66	227.59
860.98	227.61
861.29	227.62
861.60	227.65
861.91	227.67
862.22	227.63
862.53	227.60
862.84	227.48
863.16	227.49
863.47	227.49
863.78	227.49
864.09	227.48
864.40	227.50
864.71	227.48
865.02	227.47
865.33	227.45
865.64	227.42
865.95	227.39
866.27	227.46
866.58	227.42
866.89	227.39
867.20	227.38
867.51	227.33
867.82	227.29
868.13	227.27
868.44	227.22
868.75	227.24
869.06	227.22
869.37	227.20
869.68	227.16
869.99	227.17
870.30	227.20
870.61	227.21
870.92	227.19
871.23	227.19
871.54	227.26
871.85	227.28
872.16	227.30
872.47	227.31
872.78	227.23
873.09	227.29
873.40	227.32
873.71	227.33
874.02	227.32
874.33	227.33
874.64	227.32
874.95	227.38
875.26	227.40
875.56	227.42
875.87	227.43
876.18	227.45
876.49	227.53
876.80	227.51
877.11	227.48
877.42	227.46
877.73	227.46
878.04	227.44
878.35	227.48
878.66	227.48
878.96	227.51
879.27	227.51
879.58	227.49
879.89	227.49
880.20	227.56
880.51	227.60
880.82	227.61
881.12	227.63
881.43	227.57
881.74	227.52
882.05	227.55
882.36	227.57
882.67	227.59
882.97	227.51
883.28	227.53
883.59	227.57
883.90	227.62
884.21	227.66
884.51	227.65
884.82	227.63
885.13	227.65
885.44	227.68
885.74	227.71
886.05	227.75
886.36	227.73
886.67	227.70
886.98	227.74
887.28	227.75
887.59	227.75
887.90	227.79
888.20	227.82
888.51	227.80
888.82	227.80
889.13	227.82
889.43	227.89
889.74	227.87
890.05	227.86
890.35	227.83
890.66	227.81
890.97	227.82
891.28	227.79
891.58	227.79
891.89	227.75
892.20	227.77
892.50	227.74
892.81	227.74
893.12	227.74
893.42	227.69
893.73	227.68
894.04	227.66
894.34	227.67
894.65	227.69
894.95	227.69
895.26	227.68
895.57	227.70
895.87	227.62
896.18	227.60
896.48	227.60
896.79	227.58
897.10	227.58
897.40	227.52
897.71	227.51
898.01	227.50
898.32	227.50
898.63	227.44
898.93	227.44
899.24	227.42
899.54	227.38
899.85	227.36
900.15	227.35
900.46	227.32
900.76	227.26
901.07	227.24
901.38	227.22
901.68	227.19
901.99	227.10
902.29	227.08
902.60	227.08
902.90	227.04
903.21	227.02
903.51	227.02
903.82	227.03
904.12	227.02
904.43	227.01
904.73	227.00
905.03	227.02
905.34	227.08
905.64	227.06
905.95	227.05
906.25	227.03
906.56	227.05
906.86	227.06
907.17	227.07
907.47	227.05
907.77	227.03
908.08	227.00
908.38	227.01
908.69	227.00
908.99	227.01
909.30	227.01
909.60	227.04
909.90	227.05
910.21	227.04
910.51	227.02
910.81	227.02
911.12	227.05
911.42	227.01
911.73	226.93
912.03	226.94
912.33	226.97
912.64	226.96
912.94	226.90
913.24	226.86
913.55	226.87
913.85	226.86
914.15	226.90
914.46	226.89
914.76	226.88
915.06	226.90
915.37	226.86
915.67	226.86
915.97	226.82
916.27	226.80
916.58	226.82
916.88	226.85
917.18	226.84
917.49	226.89
917.79	226.93
918.09	226.94
918.39	226.97
918.70	226.96
919.00	226.98
919.30	227.09
919.60	227.15
919.91	227.12
920.21	227.15
920.51	227.12
920.81	227.17
921.12	227.21
921.42	227.23
921.72	227.26
922.02	227.29
922.32	227.33
922.63	227.34
922.93	227.38
923.23	227.40
923.53	227.40
923.83	227.33
924.13	227.37
924.44	227.39
924.74	227.44
925.04	227.46
925.34	227.48
925.64	227.41
925.94	227.39
926.24	227.48
926.55	227.46
926.85	227.48
927.15	227.47
927.45	227.45
927.75	227.45
928.05	227.44
928.35	227.42
928.65	227.43
928.95	227.42
929.26	227.41
929.56	227.43
929.86	227.44
930.16	227.44
930.46	227.37
930.76	227.34
931.06	227.28
931.36	227.24
931.66	227.24
931.96	227.25
932.26	227.27
932.56	227.19
932.86	227.23
933.16	227.21
933.46	227.21
933.76	227.18
934.06	227.18
934.36	227.22
934.66	227.23
934.96	227.21
935.26	227.20
935.56	227.17
935.86	227.10
936.16	227.10
936.46	227.07
936.76	227.09
937.06	227.07
937.36	227.09
937.66	227.11
937.96	227.10
938.26	227.09
938.56	227.07
938.86	227.08
939.16	227.06
939.46	227.07
939.76	227.07
940.06	227.08
940.35	227.04
940.65	227.00
940.95	226.97
941.25	226.93
941.55	226.94
941.85	226.96
942.15	226.98
942.45	226.99
942.75	227.00
943.04	227.01
943.34	227.02
943.64	226.98
943.94	226.96
944.24	226.94
944.54	226.92
944.84	226.90
945.13	226.88
945.43	226.86
945.73	226.86
946.03	226.86
946.33	226.86
946.62	226.84
946.92	226.83
947.22	226.85
947.52	226.87
947.82	226.87
948.11	226.82
948.41	226.83
948.71	226.79
949.01	226.79
949.31	226.76
949.60	226.78
949.90	226.80
950.20	226.85
950.50	226.85
950.79	226.88
951.09	226.90
951.39	226.92
951.69	226.89
951.98	226.93
952.28	226.96
952.58	226.96
952.87	226.99
953.17	227.02
953.47	227.02
953.76	227.05
954.06	227.07
954.36	227.11
954.66	227.12
954.95	227.15
955.25	227.17
955.55	227.20
955.84	227.19
956.14	227.20
956.44	227.19
956.73	227.17
957.03	227.19
957.32	227.20
957.62	227.19
957.92	227.24
958.21	227.19
958.51	227.30
958.81	227.32
959.10	227.33
959.40	227.34
959.69	227.34
959.99	227.34
960.29	227.34
960.58	227.30
960.88	227.36
961.17	227.35
961.47	227.34
961.76	227.36
962.06	227.36
962.36	227.36
962.65	227.36
962.95	227.35
963.24	227.32
963.54	227.30
963.83	227.31
964.13	227.29
964.42	227.32
964.72	227.22
965.01	227.24
965.31	227.24
965.60	227.23
965.90	227.31
966.19	227.29
966.49	227.30
966.78	227.31
967.08	227.27
967.37	227.27
967.67	227.28
967.96	227.25
968.26	227.22
968.55	227.22
968.85	227.19
969.14	227.22
969.43	227.23
969.73	227.20
970.02	227.22
970.32	227.22
970.61	227.22
970.91	227.17
971.20	227.12
971.49	227.10
971.79	227.10
972.08	227.00
972.38	226.97
972.67	226.96
972.96	226.95
973.26	226.94
973.55	226.98
973.85	226.95
974.14	226.93
974.43	226.95
974.73	226.95
975.02	226.94
975.31	226.91
975.61	226.88
975.90	226.89
976.19	226.83
976.49	226.83
976.78	226.79
977.07	226.77
977.37	226.78
977.66	226.79
977.95	226.77
978.24	226.78
978.54	226.81
978.83	226.80
979.12	226.77
979.42	226.76
979.71	226.74
980.00	226.76
980.29	226.80
980.59	226.81
980.88	226.85
981.17	226.85
981.46	226.91
981.76	226.94
982.05	226.98
982.34	227.01
982.63	227.03
982.93	227.08
983.22	227.14
983.51	227.15
983.80	227.17
984.09	227.19
984.39	227.19
984.68	227.20
984.97	227.20
985.26	227.24
985.55	227.24
985.85	227.23
986.14	227.24
986.43	227.22
986.72	227.24
987.01	227.23
987.30	227.27
987.59	227.24
987.89	227.26
988.18	227.23
988.47	227.24
988.76	227.27
989.05	227.24
989.34	227.21
989.63	227.26
989.92	227.25
990.22	227.26
990.51	227.30
990.80	227.31
991.09	227.35
991.38	227.36
991.67	227.37
991.96	227.38
992.25	227.38
992.54	227.41
992.83	227.37
993.12	227.34
993.41	227.38
993.70	227.41
993.99	227.46
994.28	227.49
994.58	227.49
994.87	227.46
995.16	227.48
995.45	227.48
995.74	227.43
996.03	227.47
996.32	227.49
996.61	227.49
996.90	227.49
997.19	227.45
997.48	227.44
997.77	227.46
998.06	227.46
998.34	227.44
998.63	227.42
998.92	227.43
999.21	227.46
999.50	227.42
999.79	227.40
1000.08	227.36
1000.37	227.34
1000.66	227.30
1000.95	227.33
1001.24	227.35
1001.53	227.36
1001.82	227.31
1002.11	227.28
1002.40	227.23
1002.68	227.25
1002.97	227.28
1003.26	227.26
1003.55	227.23
1003.84	227.21
1004.13	227.21
1004.42	227.19
1004.71	227.18
1004.99	227.16
1005.28	227.14
1005.57	227.12
1005.86	227.10
1006.15	227.05
1006.44	227.00
1006.72	227.01
1007.01	226.93
1007.30	226.91
1007.59	226.90
1007.88	226.90
1008.17	226.88
1008.45	226.89
1008.74	226.80
1009.03	226.75
1009.32	226.73
1009.60	226.75
1009.89	226.73
1010.18	226.71
1010.47	226.68
1010.76	226.67
1011.04	226.64
1011.33	226.65
1011.62	226.63
1011.91	226.62
1012.19	226.65
1012.48	226.65
1012.77	226.65
1013.05	226.73
1013.34	226.70
1013.63	226.68
1013.92	226.67
1014.20	226.67
1014.49	226.65
1014.78	226.69
1015.06	226.65
1015.35	226.65
1015.64	226.68
1015.92	226.66
1016.21	226.65
1016.50	226.66
1016.78	226.65
1017.07	226.69
1017.36	226.65
1017.64	226.66
1017.93	226.69
1018.22	226.67
1018.50	226.68
1018.79	226.66
1019.08	226.63
1019.36	226.64
1019.65	226.64
1019.93	226.72
1020.22	226.74
1020.51	226.77
1020.79	226.76
1021.08	226.66
1021.36	226.50
1021.65	226.31
1021.94	227.12
1022.22	226.50
1022.51	226.57
1022.79	227.82
1023.08	226.80
1023.36	227.29
1023.65	226.77
>>>>>End Processed Spectral Data<<<<<
