SpectraSuite Data File
++++++++++++++++++++++++++++++++++++
Date: Fri Feb 01 16:08:52 EST 2013
User: group
Dark Spectrum Present: No
Reference Spectrum Present: No
Number of Sampled Component Spectra: 1
Spectrometers: USB2E7196
Integration Time (usec): 35000 (USB2E7196)
Spectra Averaged: 100 (USB2E7196)
Boxcar Smoothing: 10 (USB2E7196)
Correct for Electrical Dark: No (USB2E7196)
Strobe/Lamp Enabled: No (USB2E7196)
Correct for Detector Non-linearity: No (USB2E7196)
Correct for Stray Light: No (USB2E7196)
Number of Pixels in Processed Spectrum: 2048
>>>>>Begin Processed Spectral Data<<<<<
339.09	0.00
339.48	214.05
339.86	215.98
340.24	216.98
340.63	218.85
341.01	221.20
341.39	221.88
341.78	222.67
342.16	224.00
342.54	224.00
342.93	212.66
343.31	223.44
343.69	224.02
344.07	224.48
344.46	224.92
344.84	225.31
345.22	225.56
345.60	225.77
345.99	225.95
346.37	226.06
346.75	226.17
347.13	226.27
347.52	226.33
347.90	226.39
348.28	226.44
348.66	226.49
349.05	226.47
349.43	226.49
349.81	226.58
350.19	226.63
350.57	226.67
350.96	226.78
351.34	226.86
351.72	226.92
352.10	227.00
352.48	227.06
352.87	227.11
353.25	227.16
353.63	227.22
354.01	227.30
354.39	227.38
354.77	227.44
355.15	227.55
355.54	227.61
355.92	227.65
356.30	227.70
356.68	227.85
357.06	227.92
357.44	228.00
357.82	228.03
358.20	228.10
358.58	228.16
358.97	228.19
359.35	228.26
359.73	228.32
360.11	228.40
360.49	228.45
360.87	228.49
361.25	228.53
361.63	228.61
362.01	228.67
362.39	228.69
362.77	228.77
363.15	228.79
363.53	228.83
363.91	228.87
364.29	228.91
364.67	228.84
365.05	228.88
365.43	228.90
365.81	228.94
366.19	228.97
366.57	229.01
366.95	229.02
367.33	228.98
367.71	229.00
368.09	229.01
368.47	228.99
368.85	229.01
369.23	229.03
369.61	228.98
369.99	228.96
370.37	228.94
370.75	228.93
371.13	228.89
371.51	228.84
371.89	228.81
372.27	228.77
372.65	228.70
373.03	228.64
373.41	228.59
373.78	228.51
374.16	228.44
374.54	228.34
374.92	228.27
375.30	228.20
375.68	228.12
376.06	228.01
376.44	227.93
376.82	227.81
377.19	227.75
377.57	227.69
377.95	227.58
378.33	227.51
378.71	227.41
379.09	227.35
379.47	227.29
379.84	227.23
380.22	227.19
380.60	227.11
380.98	227.06
381.36	226.98
381.73	226.92
382.11	226.86
382.49	226.80
382.87	226.74
383.25	226.69
383.62	226.75
384.00	226.67
384.38	226.62
384.76	226.64
385.13	226.62
385.51	226.53
385.89	226.49
386.27	226.43
386.64	226.38
387.02	226.31
387.40	226.27
387.78	226.23
388.15	226.17
388.53	226.16
388.91	226.10
389.29	226.07
389.66	226.04
390.04	226.00
390.42	226.00
390.79	225.98
391.17	225.98
391.55	225.86
391.92	225.88
392.30	225.89
392.68	225.84
393.05	225.84
393.43	225.85
393.81	225.87
394.18	225.88
394.56	225.90
394.94	225.94
395.31	225.93
395.69	225.96
396.06	226.02
396.44	226.07
396.82	226.10
397.19	226.19
397.57	226.24
397.95	226.31
398.32	226.34
398.70	226.40
399.07	226.49
399.45	226.54
399.82	226.63
400.20	226.69
400.58	226.75
400.95	226.78
401.33	226.90
401.70	227.04
402.08	227.17
402.45	227.28
402.83	227.38
403.20	227.52
403.58	227.60
403.95	227.71
404.33	227.87
404.71	227.99
405.08	228.17
405.46	228.32
405.83	228.49
406.21	228.64
406.58	228.83
406.96	229.00
407.33	229.20
407.70	229.40
408.08	229.71
408.45	229.96
408.83	230.22
409.20	230.43
409.58	230.62
409.95	230.90
410.33	231.13
410.70	231.42
411.08	231.71
411.45	232.03
411.82	232.32
412.20	232.62
412.57	233.03
412.95	233.29
413.32	233.71
413.69	234.08
414.07	234.49
414.44	234.95
414.82	235.40
415.19	235.91
415.56	236.44
415.94	236.97
416.31	237.57
416.68	238.20
417.06	238.91
417.43	239.60
417.81	240.29
418.18	241.09
418.55	241.89
418.93	242.77
419.30	243.65
419.67	244.60
420.04	245.56
420.42	246.56
420.79	247.75
421.16	248.89
421.54	250.08
421.91	251.30
422.28	252.53
422.66	253.88
423.03	255.22
423.40	256.51
423.77	257.91
424.15	259.33
424.52	260.80
424.89	262.41
425.26	263.96
425.64	265.42
426.01	267.02
426.38	268.67
426.75	270.37
427.13	272.16
427.50	273.99
427.87	275.83
428.24	277.69
428.61	279.42
428.99	281.36
429.36	283.47
429.73	285.53
430.10	287.51
430.47	289.54
430.85	291.61
431.22	293.88
431.59	296.25
431.96	298.52
432.33	300.98
432.70	303.35
433.08	306.10
433.45	308.76
433.82	311.36
434.19	314.25
434.56	317.03
434.93	319.63
435.30	322.20
435.68	325.12
436.05	327.93
436.42	330.75
436.79	333.24
437.16	335.93
437.53	338.73
437.90	341.56
438.27	344.30
438.64	347.08
439.01	349.64
439.38	351.79
439.75	353.90
440.13	356.39
440.50	358.69
440.87	360.54
441.24	362.45
441.61	364.55
441.98	366.02
442.35	367.81
442.72	369.63
443.09	371.42
443.46	372.42
443.83	372.99
444.20	373.49
444.57	374.33
444.94	374.62
445.31	374.96
445.68	375.28
446.05	375.37
446.42	375.01
446.79	374.58
447.16	374.23
447.53	373.91
447.90	372.77
448.27	371.62
448.64	370.11
449.01	368.97
449.37	367.03
449.74	365.18
450.11	362.94
450.48	360.47
450.85	357.98
451.22	355.82
451.59	353.77
451.96	351.81
452.33	349.25
452.70	346.89
453.07	344.12
453.43	341.26
453.80	338.51
454.17	335.86
454.54	333.35
454.91	330.61
455.28	327.97
455.65	325.49
456.02	323.06
456.38	320.90
456.75	318.22
457.12	315.99
457.49	313.78
457.86	311.60
458.23	309.78
458.59	307.73
458.96	305.66
459.33	303.83
459.70	301.98
460.07	300.48
460.43	298.78
460.80	297.15
461.17	295.75
461.54	294.24
461.91	292.84
462.27	291.39
462.64	290.13
463.01	288.78
463.38	287.51
463.74	286.13
464.11	284.99
464.48	284.02
464.85	282.92
465.21	282.04
465.58	281.15
465.95	280.03
466.32	279.11
466.68	278.22
467.05	277.36
467.42	276.50
467.78	275.53
468.15	274.63
468.52	273.96
468.88	273.10
469.25	272.37
469.62	271.76
469.98	271.07
470.35	270.47
470.72	269.90
471.08	269.24
471.45	268.73
471.82	268.16
472.18	267.55
472.55	267.08
472.92	266.55
473.28	266.06
473.65	265.62
474.02	265.17
474.38	264.81
474.75	264.46
475.11	264.11
475.48	263.86
475.85	263.62
476.21	263.42
476.58	263.21
476.94	263.06
477.31	262.90
477.67	262.74
478.04	262.61
478.41	262.53
478.77	262.58
479.14	262.49
479.50	262.46
479.87	262.54
480.23	262.64
480.60	262.72
480.96	262.81
481.33	263.04
481.69	263.25
482.06	263.42
482.42	263.63
482.79	263.87
483.15	264.19
483.52	264.56
483.88	264.91
484.25	265.34
484.61	265.72
484.98	266.15
485.34	266.73
485.71	267.35
486.07	267.99
486.44	268.56
486.80	269.30
487.17	270.07
487.53	270.91
487.90	271.77
488.26	272.72
488.62	273.70
488.99	274.70
489.35	275.76
489.72	276.92
490.08	278.13
490.44	279.41
490.81	280.76
491.17	282.15
491.54	283.61
491.90	285.14
492.26	286.81
492.63	288.52
492.99	290.30
493.36	292.17
493.72	294.20
494.08	296.32
494.45	298.55
494.81	300.89
495.17	303.30
495.54	305.83
495.90	308.48
496.26	311.33
496.63	314.26
496.99	317.39
497.35	320.66
497.72	324.07
498.08	327.59
498.44	331.24
498.80	335.22
499.17	339.28
499.53	343.47
499.89	347.89
500.26	352.47
500.62	357.13
500.98	362.08
501.34	367.20
501.71	372.54
502.07	378.03
502.43	383.67
502.79	389.53
503.16	395.65
503.52	401.95
503.88	408.34
504.24	414.97
504.60	421.83
504.97	428.99
505.33	436.34
505.69	444.05
506.05	451.87
506.41	459.70
506.78	467.88
507.14	476.35
507.50	485.06
507.86	494.12
508.22	503.35
508.59	512.58
508.95	522.13
509.31	531.98
509.67	542.08
510.03	552.39
510.39	562.95
510.75	573.72
511.12	584.68
511.48	595.93
511.84	607.41
512.20	618.95
512.56	630.90
512.92	643.07
513.28	655.46
513.64	667.89
514.00	680.69
514.37	693.61
514.73	706.65
515.09	719.67
515.45	732.86
515.81	746.44
516.17	760.47
516.53	774.54
516.89	788.67
517.25	802.76
517.61	817.17
517.97	831.53
518.33	846.02
518.69	860.76
519.05	875.79
519.41	890.92
519.77	906.45
520.13	921.74
520.49	937.00
520.85	952.28
521.21	967.95
521.57	984.06
521.93	999.83
522.29	1016.10
522.65	1032.27
523.01	1048.45
523.37	1064.43
523.73	1080.50
524.09	1096.55
524.45	1112.82
524.81	1129.47
525.17	1146.15
525.53	1162.97
525.89	1179.71
526.25	1196.55
526.61	1212.84
526.97	1229.50
527.33	1245.78
527.68	1262.31
528.04	1278.83
528.40	1295.38
528.76	1312.45
529.12	1329.00
529.48	1345.76
529.84	1361.73
530.20	1378.32
530.56	1395.37
530.91	1412.69
531.27	1429.37
531.63	1445.83
531.99	1462.31
532.35	1478.19
532.71	1494.04
533.07	1510.27
533.42	1526.16
533.78	1542.09
534.14	1558.28
534.50	1573.54
534.86	1589.57
535.21	1604.68
535.57	1620.45
535.93	1635.84
536.29	1650.53
536.65	1665.45
537.00	1680.09
537.36	1695.37
537.72	1709.89
538.08	1724.25
538.44	1737.95
538.79	1751.68
539.15	1765.27
539.51	1779.02
539.87	1793.36
540.22	1807.03
540.58	1820.65
540.94	1833.89
541.29	1846.67
541.65	1859.37
542.01	1872.66
542.37	1884.80
542.72	1897.25
543.08	1909.02
543.44	1921.40
543.79	1932.51
544.15	1943.57
544.51	1955.13
544.87	1966.08
545.22	1976.68
545.58	1986.64
545.94	1996.40
546.29	2006.27
546.65	2016.12
547.01	2025.22
547.36	2033.86
547.72	2042.27
548.07	2050.14
548.43	2058.27
548.79	2066.31
549.14	2073.82
549.50	2080.97
549.86	2088.57
550.21	2095.88
550.57	2103.16
550.92	2109.71
551.28	2116.83
551.64	2123.78
551.99	2130.32
552.35	2136.44
552.70	2142.76
553.06	2148.87
553.41	2155.28
553.77	2161.37
554.13	2167.35
554.48	2173.54
554.84	2179.06
555.19	2184.42
555.55	2189.72
555.90	2194.24
556.26	2199.16
556.61	2203.83
556.97	2208.10
557.32	2212.24
557.68	2216.26
558.03	2220.49
558.39	2224.22
558.74	2228.71
559.10	2232.52
559.45	2236.19
559.81	2240.45
560.16	2244.20
560.52	2247.35
560.87	2250.61
561.23	2253.29
561.58	2256.21
561.94	2258.70
562.29	2260.93
562.64	2263.62
563.00	2266.07
563.35	2269.55
563.71	2272.46
564.06	2275.73
564.42	2278.62
564.77	2281.16
565.12	2283.61
565.48	2285.52
565.83	2287.44
566.19	2288.78
566.54	2289.79
566.89	2290.88
567.25	2291.53
567.60	2292.90
567.96	2294.68
568.31	2295.66
568.66	2296.84
569.02	2297.47
569.37	2297.82
569.72	2298.80
570.08	2299.05
570.43	2299.17
570.78	2298.47
571.14	2297.12
571.49	2295.77
571.84	2295.46
572.20	2294.48
572.55	2293.45
572.90	2291.91
573.26	2290.49
573.61	2288.84
573.96	2286.99
574.31	2284.04
574.67	2280.99
575.02	2277.42
575.37	2274.00
575.72	2270.20
576.08	2266.77
576.43	2263.50
576.78	2259.86
577.13	2256.64
577.49	2253.33
577.84	2249.91
578.19	2246.32
578.54	2242.74
578.90	2238.46
579.25	2232.98
579.60	2227.91
579.95	2222.86
580.30	2217.81
580.66	2212.73
581.01	2207.72
581.36	2202.85
581.71	2198.73
582.06	2194.43
582.42	2189.87
582.77	2184.68
583.12	2180.24
583.47	2175.66
583.82	2170.70
584.17	2165.48
584.53	2160.08
584.88	2154.65
585.23	2148.82
585.58	2143.30
585.93	2137.86
586.28	2133.14
586.63	2128.07
586.98	2123.10
587.34	2118.51
587.69	2113.64
588.04	2108.39
588.39	2102.84
588.74	2096.42
589.09	2090.29
589.44	2083.41
589.79	2077.45
590.14	2071.85
590.49	2065.17
590.84	2058.71
591.19	2052.69
591.54	2046.19
591.89	2038.87
592.25	2032.03
592.60	2024.90
592.95	2017.49
593.30	2010.10
593.65	2002.62
594.00	1995.61
594.35	1988.39
594.70	1980.27
595.05	1973.29
595.40	1966.03
595.75	1958.61
596.10	1952.56
596.45	1945.87
596.80	1939.70
597.15	1933.09
597.50	1926.21
597.85	1919.88
598.19	1913.25
598.54	1906.22
598.89	1899.61
599.24	1893.82
599.59	1887.11
599.94	1880.92
600.29	1874.55
600.64	1867.90
600.99	1860.52
601.34	1853.80
601.69	1846.88
602.04	1840.15
602.39	1832.70
602.74	1825.88
603.08	1819.16
603.43	1812.40
603.78	1805.12
604.13	1797.94
604.48	1790.72
604.83	1783.74
605.18	1776.69
605.53	1768.73
605.87	1760.73
606.22	1753.57
606.57	1745.41
606.92	1738.14
607.27	1730.99
607.62	1724.08
607.96	1716.96
608.31	1710.31
608.66	1702.67
609.01	1695.13
609.36	1687.52
609.70	1679.43
610.05	1671.38
610.40	1663.67
610.75	1655.24
611.10	1647.64
611.44	1639.35
611.79	1631.40
612.14	1622.69
612.49	1613.49
612.83	1605.24
613.18	1597.16
613.53	1589.12
613.88	1580.65
614.22	1572.30
614.57	1563.67
614.92	1555.66
615.27	1548.16
615.61	1539.84
615.96	1531.78
616.31	1524.10
616.65	1516.64
617.00	1509.08
617.35	1501.41
617.70	1493.10
618.04	1484.69
618.39	1476.44
618.74	1468.73
619.08	1460.31
619.43	1452.72
619.78	1445.94
620.12	1438.65
620.47	1431.05
620.82	1422.81
621.16	1415.46
621.51	1407.92
621.85	1400.27
622.20	1391.71
622.55	1383.29
622.89	1375.39
623.24	1367.82
623.59	1360.34
623.93	1352.93
624.28	1345.72
624.62	1338.26
624.97	1331.08
625.32	1324.30
625.66	1317.29
626.01	1310.14
626.35	1302.77
626.70	1295.00
627.04	1287.13
627.39	1279.35
627.73	1272.00
628.08	1265.16
628.43	1257.77
628.77	1250.31
629.12	1242.84
629.46	1235.70
629.81	1228.23
630.15	1221.05
630.50	1213.64
630.84	1205.58
631.19	1197.56
631.53	1190.05
631.88	1182.41
632.22	1174.88
632.57	1167.62
632.91	1160.06
633.26	1152.65
633.60	1145.25
633.95	1138.12
634.29	1131.14
634.64	1124.44
634.98	1117.05
635.32	1109.92
635.67	1103.28
636.01	1096.75
636.36	1089.96
636.70	1083.41
637.05	1076.93
637.39	1070.47
637.73	1063.98
638.08	1058.01
638.42	1052.08
638.77	1045.75
639.11	1039.21
639.45	1032.67
639.80	1025.95
640.14	1019.57
640.49	1013.04
640.83	1006.80
641.17	1000.61
641.52	994.32
641.86	987.86
642.20	981.90
642.55	975.49
642.89	969.04
643.23	962.58
643.58	956.81
643.92	950.60
644.26	944.54
644.61	938.48
644.95	932.46
645.29	925.93
645.64	919.18
645.98	912.73
646.32	906.91
646.66	900.91
647.01	895.09
647.35	889.32
647.69	883.49
648.04	877.94
648.38	872.19
648.72	866.19
649.06	860.17
649.41	854.36
649.75	848.47
650.09	842.59
650.43	836.79
650.78	830.54
651.12	824.63
651.46	818.92
651.80	813.18
652.14	807.86
652.49	802.49
652.83	797.34
653.17	791.65
653.51	785.88
653.85	780.47
654.20	774.92
654.54	768.89
654.88	763.18
655.22	757.24
655.56	751.45
655.90	745.99
656.25	740.77
656.59	735.40
656.93	730.26
657.27	725.12
657.61	719.60
657.95	714.51
658.29	709.38
658.64	704.09
658.98	698.78
659.32	693.22
659.66	687.99
660.00	682.68
660.34	677.77
660.68	672.86
661.02	667.82
661.36	663.10
661.70	658.61
662.05	654.24
662.39	649.94
662.73	645.61
663.07	641.24
663.41	636.73
663.75	632.23
664.09	627.66
664.43	623.25
664.77	619.19
665.11	614.91
665.45	610.82
665.79	606.69
666.13	602.60
666.47	598.52
666.81	594.40
667.15	590.27
667.49	586.41
667.83	582.64
668.17	578.77
668.51	574.66
668.85	570.67
669.19	566.79
669.53	562.91
669.87	558.97
670.21	555.25
670.55	551.59
670.89	548.21
671.23	544.77
671.57	541.23
671.91	537.69
672.25	534.20
672.58	530.66
672.92	527.28
673.26	524.10
673.60	520.88
673.94	517.70
674.28	514.77
674.62	511.74
674.96	508.56
675.30	505.65
675.64	502.70
675.97	499.92
676.31	497.07
676.65	494.18
676.99	491.48
677.33	488.60
677.67	485.82
678.01	482.76
678.34	479.81
678.68	476.96
679.02	474.12
679.36	471.37
679.70	468.67
680.04	465.94
680.37	463.08
680.71	460.31
681.05	457.73
681.39	455.03
681.73	452.35
682.06	449.88
682.40	447.32
682.74	444.84
683.08	442.32
683.42	439.72
683.75	437.26
684.09	434.74
684.43	432.30
684.77	429.85
685.10	427.51
685.44	425.24
685.78	422.97
686.12	420.71
686.45	418.41
686.79	416.14
687.13	413.89
687.46	411.76
687.80	409.62
688.14	407.35
688.48	405.27
688.81	403.06
689.15	400.88
689.49	398.72
689.82	396.62
690.16	394.47
690.50	392.53
690.83	390.52
691.17	388.52
691.51	386.56
691.84	384.71
692.18	382.78
692.52	380.79
692.85	378.83
693.19	376.95
693.52	375.15
693.86	373.28
694.20	371.53
694.53	369.63
694.87	367.79
695.21	366.06
695.54	364.23
695.88	362.50
696.21	360.76
696.55	359.10
696.88	357.35
697.22	355.67
697.56	354.02
697.89	352.38
698.23	350.77
698.56	349.17
698.90	347.55
699.23	345.90
699.57	344.34
699.90	342.77
700.24	341.21
700.58	339.66
700.91	338.18
701.25	336.72
701.58	335.39
701.92	334.02
702.25	332.59
702.59	331.25
702.92	329.91
703.26	328.62
703.59	327.29
703.93	326.15
704.26	324.96
704.60	323.60
704.93	322.34
705.26	321.06
705.60	319.90
705.93	318.77
706.27	317.74
706.60	316.67
706.94	315.60
707.27	314.44
707.61	313.37
707.94	312.34
708.27	311.22
708.61	310.11
708.94	309.10
709.28	308.14
709.61	307.15
709.94	306.22
710.28	305.16
710.61	304.20
710.95	303.10
711.28	302.18
711.61	301.26
711.95	300.36
712.28	299.43
712.61	298.44
712.95	297.48
713.28	296.60
713.61	295.70
713.95	294.81
714.28	294.01
714.61	293.15
714.95	292.29
715.28	291.44
715.61	290.63
715.95	289.76
716.28	288.92
716.61	288.10
716.95	287.27
717.28	286.58
717.61	285.80
717.94	285.09
718.28	284.30
718.61	283.60
718.94	282.90
719.27	282.22
719.61	281.58
719.94	280.93
720.27	280.20
720.60	279.50
720.94	278.87
721.27	278.26
721.60	277.72
721.93	277.13
722.27	276.62
722.60	276.03
722.93	275.48
723.26	274.92
723.59	274.34
723.93	273.79
724.26	273.19
724.59	272.66
724.92	272.11
725.25	271.61
725.59	271.12
725.92	270.61
726.25	270.12
726.58	269.65
726.91	269.16
727.24	268.69
727.57	268.23
727.91	267.72
728.24	267.26
728.57	266.77
728.90	266.34
729.23	265.82
729.56	265.41
729.89	264.94
730.22	264.45
730.55	264.01
730.89	263.59
731.22	263.17
731.55	262.73
731.88	262.33
732.21	261.94
732.54	261.50
732.87	261.05
733.20	260.65
733.53	260.25
733.86	259.86
734.19	259.45
734.52	259.11
734.85	258.80
735.18	258.35
735.51	257.95
735.84	257.57
736.17	257.23
736.50	256.79
736.83	256.56
737.16	256.26
737.49	255.90
737.82	255.56
738.15	255.23
738.48	254.87
738.81	254.54
739.14	254.15
739.47	253.82
739.80	253.54
740.13	253.25
740.46	252.91
740.79	252.61
741.12	252.31
741.45	251.97
741.78	251.62
742.11	251.39
742.44	251.08
742.77	250.78
743.10	250.50
743.43	250.26
743.75	249.85
744.08	249.72
744.41	249.47
744.74	249.19
745.07	248.90
745.40	248.64
745.73	248.42
746.06	248.18
746.39	247.91
746.71	247.65
747.04	247.34
747.37	247.08
747.70	246.84
748.03	246.60
748.36	246.37
748.68	246.14
749.01	245.88
749.34	245.68
749.67	245.43
750.00	245.19
750.33	245.03
750.65	244.84
750.98	244.48
751.31	244.23
751.64	244.01
751.97	243.88
752.29	243.67
752.62	243.41
752.95	243.20
753.28	243.01
753.60	242.80
753.93	242.64
754.26	242.46
754.59	242.24
754.91	242.02
755.24	241.81
755.57	241.61
755.90	241.43
756.22	241.23
756.55	241.06
756.88	240.87
757.20	240.60
757.53	240.42
757.86	240.25
758.19	240.12
758.51	239.93
758.84	239.70
759.17	239.54
759.49	239.37
759.82	239.23
760.15	239.06
760.47	238.89
760.80	238.70
761.13	238.57
761.45	238.38
761.78	238.25
762.11	238.14
762.43	237.99
762.76	237.82
763.08	237.67
763.41	237.51
763.74	237.36
764.06	237.21
764.39	237.06
764.71	236.93
765.04	236.77
765.37	236.63
765.69	236.51
766.02	236.38
766.34	236.26
766.67	236.11
767.00	236.03
767.32	235.98
767.65	235.93
767.97	235.78
768.30	235.70
768.62	235.59
768.95	235.45
769.27	235.34
769.60	235.24
769.92	235.12
770.25	235.01
770.57	234.90
770.90	234.83
771.22	234.75
771.55	234.62
771.87	234.54
772.20	234.48
772.52	234.49
772.85	234.51
773.17	234.40
773.50	234.31
773.82	234.20
774.15	234.08
774.47	233.94
774.80	233.84
775.12	233.73
775.45	233.64
775.77	233.57
776.09	233.50
776.42	233.42
776.74	233.40
777.07	233.30
777.39	233.22
777.72	233.14
778.04	233.06
778.36	232.99
778.69	232.95
779.01	232.88
779.33	232.66
779.66	232.54
779.98	232.48
780.31	232.41
780.63	232.43
780.95	232.38
781.28	232.36
781.60	232.32
781.92	232.28
782.25	232.25
782.57	232.20
782.89	232.17
783.22	232.12
783.54	232.03
783.86	232.02
784.19	232.00
784.51	231.96
784.83	231.90
785.16	231.86
785.48	231.83
785.80	231.78
786.12	231.79
786.45	231.69
786.77	231.68
787.09	231.66
787.42	231.55
787.74	231.54
788.06	231.46
788.38	231.43
788.71	231.40
789.03	231.39
789.35	231.36
789.67	231.27
789.99	231.24
790.32	231.16
790.64	231.11
790.96	231.15
791.28	231.12
791.61	231.10
791.93	231.10
792.25	231.02
792.57	231.03
792.89	230.97
793.21	230.93
793.54	230.86
793.86	230.77
794.18	230.72
794.50	230.65
794.82	230.60
795.14	230.53
795.47	230.50
795.79	230.42
796.11	230.34
796.43	230.33
796.75	230.32
797.07	230.31
797.39	230.27
797.71	230.15
798.04	230.11
798.36	230.05
798.68	229.97
799.00	229.93
799.32	229.86
799.64	229.83
799.96	229.80
800.28	229.81
800.60	229.78
800.92	229.77
801.24	229.71
801.56	229.67
801.89	229.65
802.21	229.64
802.53	229.58
802.85	229.56
803.17	229.55
803.49	229.47
803.81	229.42
804.13	229.37
804.45	229.30
804.77	229.26
805.09	229.19
805.41	229.14
805.73	229.11
806.05	229.06
806.37	229.04
806.69	229.01
807.01	228.92
807.33	228.90
807.65	228.84
807.97	228.84
808.28	228.83
808.60	228.81
808.92	228.74
809.24	228.78
809.56	228.75
809.88	228.71
810.20	228.67
810.52	228.66
810.84	228.63
811.16	228.63
811.48	228.61
811.80	228.64
812.12	228.62
812.43	228.64
812.75	228.60
813.07	228.55
813.39	228.56
813.71	228.54
814.03	228.52
814.35	228.52
814.67	228.48
814.98	228.44
815.30	228.41
815.62	228.38
815.94	228.31
816.26	228.34
816.58	228.33
816.89	228.32
817.21	228.30
817.53	228.29
817.85	228.30
818.17	228.29
818.48	228.25
818.80	228.29
819.12	228.25
819.44	228.24
819.76	228.20
820.07	228.18
820.39	228.17
820.71	228.17
821.03	228.16
821.34	228.18
821.66	228.19
821.98	228.21
822.30	228.21
822.61	228.27
822.93	228.21
823.25	228.20
823.57	228.20
823.88	228.22
824.20	228.23
824.52	228.23
824.83	228.22
825.15	228.19
825.47	228.15
825.79	228.14
826.10	228.14
826.42	228.15
826.74	228.15
827.05	228.16
827.37	228.16
827.69	228.13
828.00	228.12
828.32	228.11
828.64	228.09
828.95	228.14
829.27	228.07
829.58	228.07
829.90	228.07
830.22	228.07
830.53	228.04
830.85	228.03
831.17	228.00
831.48	227.98
831.80	228.00
832.11	227.96
832.43	227.96
832.75	227.92
833.06	228.00
833.38	227.99
833.69	227.97
834.01	227.98
834.32	227.98
834.64	227.97
834.96	227.94
835.27	227.94
835.59	227.87
835.90	227.87
836.22	227.85
836.53	227.82
836.85	227.84
837.16	227.92
837.48	227.90
837.79	227.91
838.11	227.92
838.42	227.90
838.74	227.92
839.05	227.89
839.37	227.87
839.68	227.76
840.00	227.73
840.31	227.73
840.63	227.66
840.94	227.61
841.26	227.55
841.57	227.53
841.88	227.52
842.20	227.55
842.51	227.47
842.83	227.45
843.14	227.55
843.46	227.48
843.77	227.39
844.08	227.37
844.40	227.31
844.71	227.27
845.03	227.25
845.34	227.21
845.65	227.19
845.97	227.19
846.28	227.19
846.60	227.21
846.91	227.18
847.22	227.18
847.54	227.17
847.85	227.18
848.16	227.17
848.48	227.12
848.79	227.13
849.10	227.18
849.42	227.17
849.73	227.07
850.04	227.06
850.36	227.03
850.67	227.03
850.98	227.03
851.30	227.02
851.61	227.03
851.92	227.04
852.23	227.07
852.55	227.02
852.86	227.01
853.17	227.00
853.49	227.01
853.80	227.01
854.11	227.04
854.42	227.03
854.74	227.00
855.05	227.01
855.36	226.93
855.67	226.93
855.99	226.92
856.30	226.99
856.61	227.00
856.92	226.99
857.23	226.98
857.55	226.99
857.86	226.97
858.17	226.97
858.48	226.91
858.79	226.93
859.11	226.98
859.42	226.99
859.73	226.98
860.04	226.98
860.35	226.97
860.66	226.96
860.98	226.96
861.29	226.98
861.60	226.98
861.91	227.05
862.22	227.04
862.53	227.06
862.84	226.97
863.16	227.02
863.47	227.00
863.78	227.01
864.09	227.02
864.40	227.08
864.71	227.11
865.02	227.15
865.33	227.12
865.64	227.09
865.95	227.09
866.27	227.16
866.58	227.15
866.89	227.18
867.20	227.17
867.51	227.19
867.82	227.21
868.13	227.21
868.44	227.16
868.75	227.17
869.06	227.14
869.37	227.18
869.68	227.11
869.99	227.17
870.30	227.19
870.61	227.21
870.92	227.17
871.23	227.15
871.54	227.16
871.85	227.18
872.16	227.22
872.47	227.22
872.78	227.16
873.09	227.16
873.40	227.16
873.71	227.17
874.02	227.18
874.33	227.16
874.64	227.16
874.95	227.17
875.26	227.15
875.56	227.19
875.87	227.15
876.18	227.18
876.49	227.27
876.80	227.22
877.11	227.19
877.42	227.19
877.73	227.18
878.04	227.15
878.35	227.13
878.66	227.12
878.96	227.10
879.27	227.08
879.58	227.06
879.89	227.04
880.20	227.06
880.51	227.05
880.82	227.00
881.12	227.01
881.43	227.02
881.74	226.95
882.05	226.91
882.36	226.90
882.67	226.89
882.97	226.75
883.28	226.76
883.59	226.75
883.90	226.74
884.21	226.74
884.51	226.73
884.82	226.69
885.13	226.67
885.44	226.66
885.74	226.63
886.05	226.61
886.36	226.59
886.67	226.53
886.98	226.58
887.28	226.63
887.59	226.63
887.90	226.61
888.20	226.62
888.51	226.65
888.82	226.66
889.13	226.63
889.43	226.71
889.74	226.68
890.05	226.66
890.35	226.65
890.66	226.60
890.97	226.61
891.28	226.59
891.58	226.60
891.89	226.57
892.20	226.62
892.50	226.62
892.81	226.62
893.12	226.61
893.42	226.52
893.73	226.49
894.04	226.48
894.34	226.49
894.65	226.49
894.95	226.44
895.26	226.43
895.57	226.48
895.87	226.37
896.18	226.36
896.48	226.35
896.79	226.37
897.10	226.42
897.40	226.43
897.71	226.46
898.01	226.47
898.32	226.48
898.63	226.46
898.93	226.45
899.24	226.44
899.54	226.46
899.85	226.44
900.15	226.43
900.46	226.44
900.76	226.43
901.07	226.45
901.38	226.50
901.68	226.50
901.99	226.48
902.29	226.51
902.60	226.52
902.90	226.54
903.21	226.54
903.51	226.55
903.82	226.56
904.12	226.58
904.43	226.57
904.73	226.59
905.03	226.58
905.34	226.70
905.64	226.69
905.95	226.70
906.25	226.73
906.56	226.75
906.86	226.74
907.17	226.75
907.47	226.75
907.77	226.73
908.08	226.73
908.38	226.73
908.69	226.74
908.99	226.78
909.30	226.76
909.60	226.75
909.90	226.73
910.21	226.71
910.51	226.68
910.81	226.67
911.12	226.67
911.42	226.69
911.73	226.59
912.03	226.59
912.33	226.61
912.64	226.64
912.94	226.61
913.24	226.62
913.55	226.60
913.85	226.59
914.15	226.63
914.46	226.63
914.76	226.61
915.06	226.58
915.37	226.53
915.67	226.51
915.97	226.51
916.27	226.49
916.58	226.49
916.88	226.49
917.18	226.50
917.49	226.57
917.79	226.56
918.09	226.58
918.39	226.64
918.70	226.66
919.00	226.63
919.30	226.69
919.60	226.68
919.91	226.68
920.21	226.70
920.51	226.66
920.81	226.67
921.12	226.68
921.42	226.71
921.72	226.75
922.02	226.78
922.32	226.77
922.63	226.76
922.93	226.81
923.23	226.84
923.53	226.83
923.83	226.79
924.13	226.80
924.44	226.76
924.74	226.77
925.04	226.75
925.34	226.75
925.64	226.75
925.94	226.72
926.24	226.78
926.55	226.78
926.85	226.79
927.15	226.79
927.45	226.84
927.75	226.83
928.05	226.82
928.35	226.81
928.65	226.86
928.95	226.89
929.26	226.85
929.56	226.83
929.86	226.81
930.16	226.79
930.46	226.75
930.76	226.78
931.06	226.70
931.36	226.68
931.66	226.70
931.96	226.69
932.26	226.71
932.56	226.64
932.86	226.61
933.16	226.62
933.46	226.59
933.76	226.53
934.06	226.53
934.36	226.57
934.66	226.58
934.96	226.54
935.26	226.53
935.56	226.53
935.86	226.54
936.16	226.54
936.46	226.53
936.76	226.57
937.06	226.58
937.36	226.60
937.66	226.60
937.96	226.56
938.26	226.52
938.56	226.49
938.86	226.50
939.16	226.53
939.46	226.52
939.76	226.54
940.06	226.55
940.35	226.51
940.65	226.47
940.95	226.45
941.25	226.43
941.55	226.41
941.85	226.42
942.15	226.44
942.45	226.44
942.75	226.42
943.04	226.42
943.34	226.42
943.64	226.43
943.94	226.44
944.24	226.46
944.54	226.46
944.84	226.46
945.13	226.46
945.43	226.44
945.73	226.45
946.03	226.45
946.33	226.44
946.62	226.41
946.92	226.40
947.22	226.41
947.52	226.44
947.82	226.44
948.11	226.43
948.41	226.41
948.71	226.39
949.01	226.43
949.31	226.42
949.60	226.40
949.90	226.38
950.20	226.34
950.50	226.32
950.79	226.35
951.09	226.37
951.39	226.35
951.69	226.37
951.98	226.39
952.28	226.39
952.58	226.37
952.87	226.42
953.17	226.44
953.47	226.45
953.76	226.43
954.06	226.44
954.36	226.42
954.66	226.39
954.95	226.43
955.25	226.42
955.55	226.42
955.84	226.40
956.14	226.43
956.44	226.49
956.73	226.46
957.03	226.44
957.32	226.43
957.62	226.44
957.92	226.44
958.21	226.45
958.51	226.55
958.81	226.56
959.10	226.55
959.40	226.54
959.69	226.53
959.99	226.56
960.29	226.57
960.58	226.56
960.88	226.62
961.17	226.61
961.47	226.61
961.76	226.61
962.06	226.62
962.36	226.58
962.65	226.54
962.95	226.59
963.24	226.60
963.54	226.62
963.83	226.61
964.13	226.60
964.42	226.54
964.72	226.44
965.01	226.46
965.31	226.48
965.60	226.45
965.90	226.55
966.19	226.52
966.49	226.51
966.78	226.51
967.08	226.49
967.37	226.49
967.67	226.48
967.96	226.47
968.26	226.49
968.55	226.51
968.85	226.49
969.14	226.47
969.43	226.44
969.73	226.40
970.02	226.39
970.32	226.38
970.61	226.37
970.91	226.37
971.20	226.34
971.49	226.31
971.79	226.33
972.08	226.24
972.38	226.25
972.67	226.23
972.96	226.26
973.26	226.23
973.55	226.25
973.85	226.25
974.14	226.26
974.43	226.25
974.73	226.23
975.02	226.25
975.31	226.25
975.61	226.27
975.90	226.27
976.19	226.28
976.49	226.33
976.78	226.37
977.07	226.36
977.37	226.38
977.66	226.39
977.95	226.38
978.24	226.38
978.54	226.38
978.83	226.38
979.12	226.37
979.42	226.37
979.71	226.35
980.00	226.36
980.29	226.35
980.59	226.36
980.88	226.36
981.17	226.37
981.46	226.37
981.76	226.37
982.05	226.43
982.34	226.43
982.63	226.40
982.93	226.38
983.22	226.39
983.51	226.37
983.80	226.37
984.09	226.38
984.39	226.39
984.68	226.38
984.97	226.38
985.26	226.37
985.55	226.39
985.85	226.36
986.14	226.34
986.43	226.37
986.72	226.34
987.01	226.31
987.30	226.32
987.59	226.34
987.89	226.33
988.18	226.29
988.47	226.25
988.76	226.24
989.05	226.24
989.34	226.27
989.63	226.30
989.92	226.33
990.22	226.34
990.51	226.32
990.80	226.31
991.09	226.30
991.38	226.31
991.67	226.30
991.96	226.30
992.25	226.32
992.54	226.29
992.83	226.30
993.12	226.33
993.41	226.35
993.70	226.39
993.99	226.42
994.28	226.43
994.58	226.48
994.87	226.50
995.16	226.46
995.45	226.41
995.74	226.37
996.03	226.35
996.32	226.35
996.61	226.37
996.90	226.38
997.19	226.37
997.48	226.39
997.77	226.39
998.06	226.38
998.34	226.36
998.63	226.36
998.92	226.35
999.21	226.36
999.50	226.37
999.79	226.32
1000.08	226.29
1000.37	226.25
1000.66	226.21
1000.95	226.21
1001.24	226.22
1001.53	226.24
1001.82	226.23
1002.11	226.20
1002.40	226.21
1002.68	226.27
1002.97	226.32
1003.26	226.32
1003.55	226.28
1003.84	226.28
1004.13	226.32
1004.42	226.31
1004.71	226.31
1004.99	226.31
1005.28	226.34
1005.57	226.30
1005.86	226.27
1006.15	226.24
1006.44	226.27
1006.72	226.29
1007.01	226.29
1007.30	226.27
1007.59	226.28
1007.88	226.28
1008.17	226.32
1008.45	226.31
1008.74	226.23
1009.03	226.21
1009.32	226.24
1009.60	226.24
1009.89	226.22
1010.18	226.20
1010.47	226.19
1010.76	226.18
1011.04	226.17
1011.33	226.16
1011.62	226.19
1011.91	226.22
1012.19	226.25
1012.48	226.24
1012.77	226.25
1013.05	226.29
1013.34	226.30
1013.63	226.28
1013.92	226.31
1014.20	226.29
1014.49	226.28
1014.78	226.30
1015.06	226.26
1015.35	226.24
1015.64	226.28
1015.92	226.28
1016.21	226.26
1016.50	226.29
1016.78	226.32
1017.07	226.33
1017.36	226.30
1017.64	226.27
1017.93	226.27
1018.22	226.29
1018.50	226.30
1018.79	226.27
1019.08	226.25
1019.36	226.28
1019.65	226.30
1019.93	226.32
1020.22	226.33
1020.51	226.38
1020.79	226.36
1021.08	226.82
1021.36	226.27
1021.65	225.93
1021.94	226.74
1022.22	226.49
1022.51	226.63
1022.79	226.72
1023.08	226.36
1023.36	227.15
1023.65	226.03
>>>>>End Processed Spectral Data<<<<<
