SpectraSuite Data File
++++++++++++++++++++++++++++++++++++
Date: Fri Feb 01 17:35:10 EST 2013
User: group
Dark Spectrum Present: No
Reference Spectrum Present: No
Number of Sampled Component Spectra: 1
Spectrometers: USB2E7196
Integration Time (usec): 35000 (USB2E7196)
Spectra Averaged: 100 (USB2E7196)
Boxcar Smoothing: 10 (USB2E7196)
Correct for Electrical Dark: No (USB2E7196)
Strobe/Lamp Enabled: No (USB2E7196)
Correct for Detector Non-linearity: No (USB2E7196)
Correct for Stray Light: No (USB2E7196)
Number of Pixels in Processed Spectrum: 2048
>>>>>Begin Processed Spectral Data<<<<<
339.09	0.00
339.48	212.98
339.86	214.36
340.24	215.49
340.63	217.57
341.01	220.38
341.39	220.51
341.78	221.18
342.16	222.08
342.54	222.98
342.93	211.46
343.31	222.17
343.69	222.68
344.07	223.13
344.46	223.58
344.84	223.92
345.22	224.12
345.60	224.34
345.99	224.53
346.37	224.65
346.75	224.70
347.13	224.77
347.52	224.84
347.90	224.86
348.28	224.88
348.66	224.91
349.05	224.88
349.43	224.91
349.81	224.95
350.19	224.99
350.57	225.06
350.96	225.12
351.34	225.18
351.72	225.30
352.10	225.40
352.48	225.47
352.87	225.52
353.25	225.60
353.63	225.66
354.01	225.71
354.39	225.79
354.77	225.91
355.15	225.99
355.54	226.02
355.92	226.11
356.30	226.16
356.68	226.30
357.06	226.37
357.44	226.42
357.82	226.46
358.20	226.52
358.58	226.54
358.97	226.65
359.35	226.72
359.73	226.79
360.11	226.86
360.49	226.89
360.87	226.97
361.25	227.03
361.63	227.11
362.01	227.18
362.39	227.23
362.77	227.27
363.15	227.35
363.53	227.42
363.91	227.43
364.29	227.47
364.67	227.43
365.05	227.44
365.43	227.47
365.81	227.54
366.19	227.62
366.57	227.70
366.95	227.69
367.33	227.68
367.71	227.69
368.09	227.67
368.47	227.70
368.85	227.72
369.23	227.72
369.61	227.65
369.99	227.67
370.37	227.66
370.75	227.68
371.13	227.60
371.51	227.53
371.89	227.51
372.27	227.48
372.65	227.43
373.03	227.40
373.41	227.37
373.78	227.32
374.16	227.19
374.54	227.08
374.92	227.03
375.30	226.97
375.68	226.88
376.06	226.83
376.44	226.75
376.82	226.66
377.19	226.60
377.57	226.55
377.95	226.47
378.33	226.45
378.71	226.32
379.09	226.28
379.47	226.25
379.84	226.17
380.22	226.13
380.60	226.04
380.98	225.97
381.36	225.87
381.73	225.80
382.11	225.78
382.49	225.76
382.87	225.70
383.25	225.64
383.62	225.71
384.00	225.63
384.38	225.61
384.76	225.55
385.13	225.55
385.51	225.51
385.89	225.44
386.27	225.36
386.64	225.33
387.02	225.27
387.40	225.21
387.78	225.20
388.15	225.13
388.53	225.08
388.91	225.07
389.29	225.05
389.66	225.01
390.04	224.96
390.42	224.92
390.79	224.88
391.17	224.84
391.55	224.71
391.92	224.74
392.30	224.71
392.68	224.68
393.05	224.62
393.43	224.59
393.81	224.58
394.18	224.54
394.56	224.54
394.94	224.55
395.31	224.55
395.69	224.59
396.06	224.60
396.44	224.64
396.82	224.65
397.19	224.70
397.57	224.74
397.95	224.81
398.32	224.82
398.70	224.89
399.07	224.96
399.45	225.00
399.82	225.00
400.20	225.02
400.58	225.11
400.95	225.16
401.33	225.27
401.70	225.41
402.08	225.48
402.45	225.58
402.83	225.70
403.20	225.80
403.58	225.87
403.95	226.01
404.33	226.15
404.71	226.27
405.08	226.43
405.46	226.56
405.83	226.66
406.21	226.81
406.58	226.96
406.96	227.12
407.33	227.29
407.70	227.53
408.08	227.82
408.45	228.02
408.83	228.25
409.20	228.44
409.58	228.61
409.95	228.90
410.33	229.18
410.70	229.47
411.08	229.78
411.45	230.10
411.82	230.40
412.20	230.74
412.57	231.17
412.95	231.51
413.32	231.93
413.69	232.38
414.07	232.83
414.44	233.32
414.82	233.81
415.19	234.40
415.56	234.95
415.94	235.51
416.31	236.19
416.68	236.84
417.06	237.58
417.43	238.30
417.81	239.09
418.18	239.89
418.55	240.75
418.93	241.66
419.30	242.59
419.67	243.61
420.04	244.65
420.42	245.71
420.79	246.95
421.16	248.16
421.54	249.41
421.91	250.69
422.28	252.02
422.66	253.47
423.03	254.82
423.40	256.21
423.77	257.66
424.15	259.16
424.52	260.72
424.89	262.43
425.26	264.05
425.64	265.55
426.01	267.23
426.38	268.95
426.75	270.67
427.13	272.50
427.50	274.35
427.87	276.31
428.24	278.23
428.61	280.04
428.99	282.03
429.36	284.23
429.73	286.39
430.10	288.48
430.47	290.58
430.85	292.86
431.22	295.21
431.59	297.69
431.96	300.01
432.33	302.62
432.70	305.13
433.08	308.06
433.45	310.83
433.82	313.53
434.19	316.55
434.56	319.50
434.93	322.30
435.30	325.00
435.68	327.99
436.05	330.95
436.42	333.86
436.79	336.52
437.16	339.30
437.53	342.23
437.90	345.18
438.27	348.07
438.64	350.95
439.01	353.66
439.38	356.05
439.75	358.29
440.13	360.88
440.50	363.28
440.87	365.21
441.24	367.28
441.61	369.51
441.98	371.07
442.35	372.94
442.72	374.86
443.09	376.82
443.46	377.87
443.83	378.51
444.20	379.07
444.57	379.93
444.94	380.23
445.31	380.59
445.68	380.95
446.05	381.01
446.42	380.65
446.79	380.24
447.16	379.78
447.53	379.48
447.90	378.29
448.27	377.11
448.64	375.49
449.01	374.33
449.37	372.34
449.74	370.39
450.11	368.09
450.48	365.51
450.85	362.86
451.22	360.67
451.59	358.53
451.96	356.52
452.33	353.84
452.70	351.38
453.07	348.45
453.43	345.44
453.80	342.56
454.17	339.74
454.54	337.06
454.91	334.20
455.28	331.39
455.65	328.78
456.02	326.20
456.38	323.93
456.75	321.10
457.12	318.75
457.49	316.42
457.86	314.15
458.23	312.18
458.59	310.07
458.96	307.87
459.33	305.95
459.70	303.97
460.07	302.40
460.43	300.64
460.80	298.95
461.17	297.46
461.54	295.86
461.91	294.37
462.27	292.84
462.64	291.54
463.01	290.15
463.38	288.82
463.74	287.42
464.11	286.24
464.48	285.19
464.85	284.04
465.21	283.11
465.58	282.16
465.95	281.04
466.32	280.07
466.68	279.12
467.05	278.18
467.42	277.27
467.78	276.28
468.15	275.37
468.52	274.68
468.88	273.76
469.25	272.95
469.62	272.33
469.98	271.67
470.35	271.02
470.72	270.40
471.08	269.73
471.45	269.15
471.82	268.56
472.18	267.95
472.55	267.43
472.92	266.92
473.28	266.41
473.65	265.96
474.02	265.44
474.38	265.10
474.75	264.75
475.11	264.41
475.48	264.12
475.85	263.86
476.21	263.64
476.58	263.47
476.94	263.36
477.31	263.18
477.67	263.04
478.04	262.92
478.41	262.84
478.77	262.87
479.14	262.82
479.50	262.85
479.87	262.93
480.23	263.03
480.60	263.08
480.96	263.18
481.33	263.39
481.69	263.62
482.06	263.79
482.42	263.97
482.79	264.23
483.15	264.58
483.52	264.96
483.88	265.28
484.25	265.64
484.61	266.10
484.98	266.51
485.34	267.02
485.71	267.59
486.07	268.20
486.44	268.75
486.80	269.43
487.17	270.15
487.53	270.92
487.90	271.74
488.26	272.65
488.62	273.57
488.99	274.54
489.35	275.61
489.72	276.72
490.08	277.90
490.44	279.06
490.81	280.35
491.17	281.68
491.54	283.13
491.90	284.65
492.26	286.22
492.63	287.97
492.99	289.77
493.36	291.68
493.72	293.70
494.08	295.78
494.45	297.99
494.81	300.38
495.17	302.80
495.54	305.35
495.90	307.99
496.26	310.80
496.63	313.72
496.99	316.75
497.35	319.97
497.72	323.39
498.08	326.92
498.44	330.54
498.80	334.42
499.17	338.43
499.53	342.56
499.89	346.88
500.26	351.35
500.62	355.90
500.98	360.72
501.34	365.70
501.71	370.95
502.07	376.37
502.43	381.81
502.79	387.52
503.16	393.51
503.52	399.71
503.88	406.01
504.24	412.51
504.60	419.26
504.97	426.29
505.33	433.47
505.69	441.01
506.05	448.71
506.41	456.41
506.78	464.44
507.14	472.71
507.50	481.22
507.86	490.05
508.22	499.09
508.59	508.17
508.95	517.50
509.31	527.08
509.67	536.90
510.03	546.95
510.39	557.23
510.75	567.74
511.12	578.41
511.48	589.40
511.84	600.63
512.20	611.87
512.56	623.47
512.92	635.30
513.28	647.42
513.64	659.47
514.00	671.91
514.37	684.45
514.73	697.17
515.09	709.84
515.45	722.76
515.81	735.94
516.17	749.49
516.53	763.31
516.89	777.13
517.25	790.89
517.61	804.91
517.97	819.01
518.33	832.99
518.69	847.44
519.05	862.04
519.41	876.69
519.77	891.70
520.13	906.72
520.49	921.67
520.85	936.46
521.21	951.72
521.57	967.50
521.93	982.86
522.29	998.74
522.65	1014.49
523.01	1030.12
523.37	1045.69
523.73	1061.37
524.09	1076.93
524.45	1092.66
524.81	1108.78
525.17	1124.99
525.53	1141.30
525.89	1157.68
526.25	1173.94
526.61	1189.83
526.97	1206.19
527.33	1222.25
527.68	1238.27
528.04	1254.27
528.40	1270.40
528.76	1286.91
529.12	1302.98
529.48	1319.37
529.84	1334.92
530.20	1351.07
530.56	1367.61
530.91	1384.51
531.27	1400.85
531.63	1416.82
531.99	1432.97
532.35	1448.60
532.71	1464.18
533.07	1480.05
533.42	1495.64
533.78	1511.33
534.14	1527.25
534.50	1542.02
534.86	1557.47
535.21	1572.39
535.57	1587.90
535.93	1602.97
536.29	1617.42
536.65	1632.17
537.00	1646.39
537.36	1661.44
537.72	1675.61
538.08	1689.80
538.44	1703.38
538.79	1716.98
539.15	1730.35
539.51	1743.74
539.87	1757.76
540.22	1771.20
540.58	1784.67
540.94	1797.51
541.29	1809.95
541.65	1822.45
542.01	1835.54
542.37	1847.69
542.72	1859.82
543.08	1871.47
543.44	1883.65
543.79	1894.99
544.15	1905.78
544.51	1917.41
544.87	1928.16
545.22	1939.10
545.58	1949.28
545.94	1959.03
546.29	1968.94
546.65	1978.90
547.01	1988.24
547.36	1997.01
547.72	2005.58
548.07	2013.77
548.43	2022.14
548.79	2030.24
549.14	2037.94
549.50	2045.40
549.86	2053.23
550.21	2060.77
550.57	2068.29
550.92	2075.35
551.28	2082.42
551.64	2089.75
551.99	2096.46
552.35	2103.00
552.70	2109.30
553.06	2115.64
553.41	2122.18
553.77	2128.46
554.13	2134.77
554.48	2141.28
554.84	2147.33
555.19	2152.80
555.55	2158.23
555.90	2163.07
556.26	2168.56
556.61	2173.56
556.97	2178.37
557.32	2182.97
557.68	2187.58
558.03	2192.03
558.39	2195.89
558.74	2200.93
559.10	2205.15
559.45	2209.26
559.81	2213.80
560.16	2217.93
560.52	2221.49
560.87	2225.23
561.23	2228.25
561.58	2231.42
561.94	2234.30
562.29	2236.73
562.64	2239.99
563.00	2242.73
563.35	2246.60
563.71	2250.00
564.06	2253.40
564.42	2256.75
564.77	2259.72
565.12	2262.54
565.48	2265.00
565.83	2267.54
566.19	2269.44
566.54	2270.64
566.89	2272.26
567.25	2273.49
567.60	2275.20
567.96	2277.27
568.31	2278.57
568.66	2280.11
569.02	2281.26
569.37	2282.10
569.72	2283.55
570.08	2284.17
570.43	2284.72
570.78	2284.76
571.14	2283.66
571.49	2282.78
571.84	2282.58
572.20	2281.89
572.55	2281.23
572.90	2279.94
573.26	2278.91
573.61	2277.49
573.96	2276.35
574.31	2273.74
574.67	2271.07
575.02	2267.86
575.37	2264.88
575.72	2261.75
576.08	2258.71
576.43	2255.60
576.78	2252.30
577.13	2249.25
577.49	2246.29
577.84	2243.26
578.19	2239.81
578.54	2236.74
578.90	2233.10
579.25	2228.10
579.60	2223.54
579.95	2218.92
580.30	2214.28
580.66	2209.38
581.01	2204.81
581.36	2200.17
581.71	2196.51
582.06	2192.46
582.42	2188.46
582.77	2183.67
583.12	2179.44
583.47	2175.17
583.82	2170.69
584.17	2165.84
584.53	2160.75
584.88	2155.75
585.23	2150.33
585.58	2145.08
585.93	2139.70
586.28	2135.02
586.63	2130.24
586.98	2125.34
587.34	2120.73
587.69	2116.24
588.04	2111.46
588.39	2105.95
588.74	2099.81
589.09	2093.82
589.44	2087.33
589.79	2081.31
590.14	2075.77
590.49	2069.27
590.84	2063.12
591.19	2057.36
591.54	2051.15
591.89	2044.27
592.25	2037.62
592.60	2030.63
592.95	2023.45
593.30	2016.41
593.65	2009.06
594.00	2002.11
594.35	1994.97
594.70	1987.04
595.05	1980.04
595.40	1972.73
595.75	1965.47
596.10	1959.49
596.45	1953.01
596.80	1946.88
597.15	1940.74
597.50	1934.13
597.85	1927.75
598.19	1921.27
598.54	1914.45
598.89	1907.95
599.24	1902.02
599.59	1895.64
599.94	1889.57
600.29	1883.19
600.64	1876.62
600.99	1869.50
601.34	1862.87
601.69	1856.07
602.04	1849.50
602.39	1842.24
602.74	1835.58
603.08	1829.12
603.43	1822.43
603.78	1815.15
604.13	1808.03
604.48	1800.89
604.83	1794.04
605.18	1787.48
605.53	1779.59
605.87	1771.52
606.22	1764.37
606.57	1756.45
606.92	1748.92
607.27	1741.95
607.62	1735.25
607.96	1728.12
608.31	1721.63
608.66	1714.11
609.01	1706.67
609.36	1699.15
609.70	1691.15
610.05	1683.25
610.40	1675.60
610.75	1667.30
611.10	1659.60
611.44	1651.18
611.79	1642.91
612.14	1634.19
612.49	1624.84
612.83	1616.37
613.18	1608.25
613.53	1599.97
613.88	1591.47
614.22	1583.26
614.57	1574.34
614.92	1566.16
615.27	1558.73
615.61	1550.30
615.96	1542.06
616.31	1534.35
616.65	1526.86
617.00	1519.15
617.35	1511.23
617.70	1502.76
618.04	1494.30
618.39	1486.00
618.74	1478.31
619.08	1470.00
619.43	1462.21
619.78	1454.97
620.12	1447.79
620.47	1440.16
620.82	1431.86
621.16	1424.21
621.51	1416.42
621.85	1408.69
622.20	1400.14
622.55	1391.55
622.89	1383.55
623.24	1375.78
623.59	1368.10
623.93	1360.50
624.28	1353.22
624.62	1345.64
624.97	1338.24
625.32	1331.25
625.66	1324.13
626.01	1316.92
626.35	1309.57
626.70	1301.66
627.04	1294.15
627.39	1286.29
627.73	1278.77
628.08	1271.86
628.43	1264.64
628.77	1257.33
629.12	1249.74
629.46	1242.52
629.81	1234.91
630.15	1227.54
630.50	1220.17
630.84	1212.07
631.19	1203.91
631.53	1196.27
631.88	1188.63
632.22	1180.98
632.57	1173.52
632.91	1165.82
633.26	1158.38
633.60	1150.79
633.95	1143.59
634.29	1136.25
634.64	1129.27
634.98	1121.88
635.32	1114.70
635.67	1107.96
636.01	1101.11
636.36	1094.35
636.70	1087.76
637.05	1081.18
637.39	1074.67
637.73	1068.20
638.08	1062.25
638.42	1056.23
638.77	1049.85
639.11	1043.35
639.45	1036.91
639.80	1030.27
640.14	1023.89
640.49	1017.35
640.83	1011.05
641.17	1004.93
641.52	998.66
641.86	992.35
642.20	986.40
642.55	979.92
642.89	973.43
643.23	966.76
643.58	960.91
643.92	954.68
644.26	948.74
644.61	942.60
644.95	936.63
645.29	930.02
645.64	923.34
645.98	916.87
646.32	910.83
646.66	904.75
647.01	898.93
647.35	893.25
647.69	887.31
648.04	881.63
648.38	875.80
648.72	869.92
649.06	863.90
649.41	858.00
649.75	852.14
650.09	846.25
650.43	840.61
650.78	834.42
651.12	828.42
651.46	822.51
651.80	816.83
652.14	811.32
652.49	805.99
652.83	800.87
653.17	795.26
653.51	789.61
653.85	784.18
654.20	778.53
654.54	772.51
654.88	766.74
655.22	760.91
655.56	755.12
655.90	749.51
656.25	744.23
656.59	738.86
656.93	733.75
657.27	728.56
657.61	723.04
657.95	717.97
658.29	712.88
658.64	707.62
658.98	702.34
659.32	696.82
659.66	691.61
660.00	686.20
660.34	681.24
660.68	676.35
661.02	671.26
661.36	666.53
661.70	662.05
662.05	657.74
662.39	653.52
662.73	649.05
663.07	644.69
663.41	640.30
663.75	635.87
664.09	631.26
664.43	626.87
664.77	622.79
665.11	618.61
665.45	614.42
665.79	610.46
666.13	606.29
666.47	602.19
666.81	597.94
667.15	593.81
667.49	589.80
667.83	585.87
668.17	582.04
668.51	577.96
668.85	573.88
669.19	569.87
669.53	565.93
669.87	562.10
670.21	558.39
670.55	554.66
670.89	551.18
671.23	547.71
671.57	544.11
671.91	540.56
672.25	536.92
672.58	533.36
672.92	529.80
673.26	526.57
673.60	523.37
673.94	520.30
674.28	517.36
674.62	514.41
674.96	511.26
675.30	508.33
675.64	505.46
675.97	502.58
676.31	499.73
676.65	496.76
676.99	494.07
677.33	491.16
677.67	488.26
678.01	485.22
678.34	482.22
678.68	479.33
679.02	476.53
679.36	473.77
679.70	470.99
680.04	468.20
680.37	465.32
680.71	462.53
681.05	459.82
681.39	457.07
681.73	454.37
682.06	451.88
682.40	449.27
682.74	446.61
683.08	444.03
683.42	441.42
683.75	438.91
684.09	436.22
684.43	433.72
684.77	431.21
685.10	428.81
685.44	426.44
685.78	424.11
686.12	421.74
686.45	419.37
686.79	417.11
687.13	414.95
687.46	412.72
687.80	410.49
688.14	408.25
688.48	406.17
688.81	403.94
689.15	401.74
689.49	399.54
689.82	397.42
690.16	395.34
690.50	393.36
690.83	391.39
691.17	389.37
691.51	387.41
691.84	385.58
692.18	383.67
692.52	381.73
692.85	379.77
693.19	377.88
693.52	376.06
693.86	374.24
694.20	372.40
694.53	370.64
694.87	368.81
695.21	366.98
695.54	365.12
695.88	363.35
696.21	361.65
696.55	359.98
696.88	358.33
697.22	356.65
697.56	354.99
697.89	353.40
698.23	351.84
698.56	350.21
698.90	348.64
699.23	347.01
699.57	345.46
699.90	343.91
700.24	342.38
700.58	340.84
700.91	339.37
701.25	337.92
701.58	336.56
701.92	335.19
702.25	333.84
702.59	332.47
702.92	331.16
703.26	329.83
703.59	328.54
703.93	327.33
704.26	326.12
704.60	324.87
704.93	323.55
705.26	322.26
705.60	321.07
705.93	319.86
706.27	318.76
706.60	317.70
706.94	316.58
707.27	315.45
707.61	314.36
707.94	313.29
708.27	312.17
708.61	311.03
708.94	309.97
709.28	308.95
709.61	308.00
709.94	307.02
710.28	305.98
710.61	304.95
710.95	303.84
711.28	302.87
711.61	301.85
711.95	300.91
712.28	299.96
712.61	298.99
712.95	298.01
713.28	297.08
713.61	296.15
713.95	295.27
714.28	294.42
714.61	293.52
714.95	292.62
715.28	291.78
715.61	290.87
715.95	290.01
716.28	289.15
716.61	288.26
716.95	287.37
717.28	286.56
717.61	285.77
717.94	285.02
718.28	284.20
718.61	283.47
718.94	282.76
719.27	282.04
719.61	281.35
719.94	280.71
720.27	279.99
720.60	279.28
720.94	278.63
721.27	278.00
721.60	277.41
721.93	276.83
722.27	276.24
722.60	275.69
722.93	275.11
723.26	274.58
723.59	274.00
723.93	273.48
724.26	272.91
724.59	272.32
724.92	271.73
725.25	271.21
725.59	270.64
725.92	270.08
726.25	269.58
726.58	269.06
726.91	268.51
727.24	268.03
727.57	267.59
727.91	267.05
728.24	266.53
728.57	266.03
728.90	265.53
729.23	265.01
729.56	264.58
729.89	264.10
730.22	263.55
730.55	263.09
730.89	262.65
731.22	262.23
731.55	261.82
731.88	261.43
732.21	260.98
732.54	260.59
732.87	260.20
733.20	259.79
733.53	259.39
733.86	259.05
734.19	258.61
734.52	258.21
734.85	257.92
735.18	257.55
735.51	257.24
735.84	256.88
736.17	256.55
736.50	256.14
736.83	255.93
737.16	255.63
737.49	255.31
737.82	254.97
738.15	254.62
738.48	254.30
738.81	253.94
739.14	253.61
739.47	253.28
739.80	253.01
740.13	252.72
740.46	252.43
740.79	252.12
741.12	251.86
741.45	251.56
741.78	251.22
742.11	250.95
742.44	250.57
742.77	250.30
743.10	249.99
743.43	249.69
743.75	249.29
744.08	249.15
744.41	248.89
744.74	248.61
745.07	248.39
745.40	248.15
745.73	247.96
746.06	247.66
746.39	247.44
746.71	247.13
747.04	246.85
747.37	246.56
747.70	246.30
748.03	246.04
748.36	245.80
748.68	245.56
749.01	245.31
749.34	245.07
749.67	244.85
750.00	244.63
750.33	244.47
750.65	244.28
750.98	243.93
751.31	243.68
751.64	243.49
751.97	243.26
752.29	243.03
752.62	242.76
752.95	242.60
753.28	242.34
753.60	242.13
753.93	241.95
754.26	241.81
754.59	241.60
754.91	241.41
755.24	241.19
755.57	240.96
755.90	240.76
756.22	240.56
756.55	240.37
756.88	240.13
757.20	239.88
757.53	239.67
757.86	239.49
758.19	239.31
758.51	239.13
758.84	238.90
759.17	238.71
759.49	238.51
759.82	238.35
760.15	238.18
760.47	238.01
760.80	237.76
761.13	237.56
761.45	237.35
761.78	237.15
762.11	237.00
762.43	236.86
762.76	236.68
763.08	236.54
763.41	236.39
763.74	236.26
764.06	236.13
764.39	235.92
764.71	235.73
765.04	235.59
765.37	235.40
765.69	235.28
766.02	235.15
766.34	235.02
766.67	234.87
767.00	234.77
767.32	234.69
767.65	234.67
767.97	234.53
768.30	234.43
768.62	234.30
768.95	234.18
769.27	234.06
769.60	233.96
769.92	233.80
770.25	233.65
770.57	233.54
770.90	233.41
771.22	233.34
771.55	233.23
771.87	233.10
772.20	233.00
772.52	232.97
772.85	232.97
773.17	232.89
773.50	232.76
773.82	232.63
774.15	232.48
774.47	232.32
774.80	232.23
775.12	232.14
775.45	232.04
775.77	231.94
776.09	231.81
776.42	231.73
776.74	231.69
777.07	231.63
777.39	231.57
777.72	231.47
778.04	231.41
778.36	231.36
778.69	231.33
779.01	231.28
779.33	231.12
779.66	230.95
779.98	230.86
780.31	230.84
780.63	230.83
780.95	230.82
781.28	230.77
781.60	230.72
781.92	230.67
782.25	230.65
782.57	230.62
782.89	230.58
783.22	230.54
783.54	230.48
783.86	230.45
784.19	230.37
784.51	230.38
784.83	230.30
785.16	230.25
785.48	230.21
785.80	230.15
786.12	230.14
786.45	230.08
786.77	230.08
787.09	230.03
787.42	229.98
787.74	229.92
788.06	229.88
788.38	229.86
788.71	229.80
789.03	229.75
789.35	229.72
789.67	229.68
789.99	229.66
790.32	229.61
790.64	229.58
790.96	229.65
791.28	229.58
791.61	229.57
791.93	229.54
792.25	229.46
792.57	229.50
792.89	229.45
793.21	229.42
793.54	229.38
793.86	229.33
794.18	229.26
794.50	229.21
794.82	229.17
795.14	229.13
795.47	229.10
795.79	229.08
796.11	229.00
796.43	228.98
796.75	228.91
797.07	228.88
797.39	228.83
797.71	228.68
798.04	228.65
798.36	228.62
798.68	228.56
799.00	228.53
799.32	228.45
799.64	228.41
799.96	228.39
800.28	228.35
800.60	228.30
800.92	228.27
801.24	228.22
801.56	228.19
801.89	228.15
802.21	228.11
802.53	228.04
802.85	228.03
803.17	228.05
803.49	227.99
803.81	227.95
804.13	227.91
804.45	227.86
804.77	227.82
805.09	227.76
805.41	227.73
805.73	227.64
806.05	227.59
806.37	227.55
806.69	227.49
807.01	227.45
807.33	227.44
807.65	227.36
807.97	227.37
808.28	227.34
808.60	227.32
808.92	227.27
809.24	227.34
809.56	227.28
809.88	227.18
810.20	227.20
810.52	227.18
810.84	227.13
811.16	227.10
811.48	227.09
811.80	227.15
812.12	227.11
812.43	227.17
812.75	227.19
813.07	227.15
813.39	227.14
813.71	227.13
814.03	227.08
814.35	227.07
814.67	227.01
814.98	226.96
815.30	226.93
815.62	226.89
815.94	226.79
816.26	226.83
816.58	226.80
816.89	226.81
817.21	226.77
817.53	226.75
817.85	226.74
818.17	226.73
818.48	226.65
818.80	226.67
819.12	226.61
819.44	226.56
819.76	226.57
820.07	226.55
820.39	226.47
820.71	226.50
821.03	226.53
821.34	226.52
821.66	226.55
821.98	226.55
822.30	226.56
822.61	226.60
822.93	226.54
823.25	226.52
823.57	226.51
823.88	226.55
824.20	226.55
824.52	226.58
824.83	226.56
825.15	226.53
825.47	226.53
825.79	226.54
826.10	226.52
826.42	226.50
826.74	226.50
827.05	226.52
827.37	226.51
827.69	226.49
828.00	226.49
828.32	226.49
828.64	226.45
828.95	226.47
829.27	226.43
829.58	226.43
829.90	226.44
830.22	226.42
830.53	226.36
830.85	226.35
831.17	226.29
831.48	226.27
831.80	226.30
832.11	226.30
832.43	226.26
832.75	226.22
833.06	226.25
833.38	226.23
833.69	226.20
834.01	226.20
834.32	226.17
834.64	226.14
834.96	226.13
835.27	226.13
835.59	226.10
835.90	226.07
836.22	226.08
836.53	226.04
836.85	226.02
837.16	226.13
837.48	226.13
837.79	226.17
838.11	226.17
838.42	226.14
838.74	226.12
839.05	226.14
839.37	226.14
839.68	226.07
840.00	226.05
840.31	226.05
840.63	226.03
840.94	226.03
841.26	226.01
841.57	225.98
841.88	225.96
842.20	225.97
842.51	225.94
842.83	225.92
843.14	226.02
843.46	226.01
843.77	225.93
844.08	225.89
844.40	225.84
844.71	225.80
845.03	225.73
845.34	225.72
845.65	225.69
845.97	225.68
846.28	225.66
846.60	225.67
846.91	225.65
847.22	225.60
847.54	225.61
847.85	225.60
848.16	225.60
848.48	225.59
848.79	225.61
849.10	225.62
849.42	225.62
849.73	225.50
850.04	225.49
850.36	225.44
850.67	225.45
850.98	225.44
851.30	225.46
851.61	225.48
851.92	225.47
852.23	225.49
852.55	225.47
852.86	225.48
853.17	225.47
853.49	225.50
853.80	225.53
854.11	225.53
854.42	225.55
854.74	225.51
855.05	225.53
855.36	225.49
855.67	225.48
855.99	225.43
856.30	225.55
856.61	225.52
856.92	225.51
857.23	225.52
857.55	225.50
857.86	225.50
858.17	225.51
858.48	225.49
858.79	225.42
859.11	225.47
859.42	225.47
859.73	225.44
860.04	225.44
860.35	225.38
860.66	225.34
860.98	225.34
861.29	225.35
861.60	225.32
861.91	225.31
862.22	225.29
862.53	225.30
862.84	225.18
863.16	225.22
863.47	225.22
863.78	225.21
864.09	225.21
864.40	225.20
864.71	225.24
865.02	225.27
865.33	225.29
865.64	225.26
865.95	225.24
866.27	225.34
866.58	225.30
866.89	225.34
867.20	225.35
867.51	225.33
867.82	225.33
868.13	225.35
868.44	225.37
868.75	225.37
869.06	225.37
869.37	225.40
869.68	225.36
869.99	225.37
870.30	225.38
870.61	225.40
870.92	225.38
871.23	225.34
871.54	225.36
871.85	225.38
872.16	225.39
872.47	225.42
872.78	225.35
873.09	225.35
873.40	225.35
873.71	225.35
874.02	225.35
874.33	225.37
874.64	225.36
874.95	225.39
875.26	225.40
875.56	225.42
875.87	225.39
876.18	225.40
876.49	225.50
876.80	225.49
877.11	225.51
877.42	225.53
877.73	225.54
878.04	225.49
878.35	225.51
878.66	225.52
878.96	225.49
879.27	225.47
879.58	225.51
879.89	225.48
880.20	225.51
880.51	225.51
880.82	225.49
881.12	225.48
881.43	225.44
881.74	225.43
882.05	225.40
882.36	225.44
882.67	225.42
882.97	225.32
883.28	225.28
883.59	225.25
883.90	225.26
884.21	225.28
884.51	225.30
884.82	225.26
885.13	225.25
885.44	225.25
885.74	225.26
886.05	225.27
886.36	225.32
886.67	225.28
886.98	225.35
887.28	225.36
887.59	225.34
887.90	225.35
888.20	225.33
888.51	225.35
888.82	225.29
889.13	225.29
889.43	225.37
889.74	225.41
890.05	225.39
890.35	225.36
890.66	225.33
890.97	225.30
891.28	225.27
891.58	225.27
891.89	225.28
892.20	225.26
892.50	225.21
892.81	225.19
893.12	225.18
893.42	225.10
893.73	225.08
894.04	225.09
894.34	225.09
894.65	225.10
894.95	225.09
895.26	225.11
895.57	225.17
895.87	225.07
896.18	225.02
896.48	225.05
896.79	225.04
897.10	225.03
897.40	225.02
897.71	225.04
898.01	225.04
898.32	225.05
898.63	225.03
898.93	225.03
899.24	225.04
899.54	225.04
899.85	225.07
900.15	225.11
900.46	225.12
900.76	225.15
901.07	225.15
901.38	225.14
901.68	225.18
901.99	225.14
902.29	225.13
902.60	225.17
902.90	225.14
903.21	225.10
903.51	225.14
903.82	225.17
904.12	225.16
904.43	225.15
904.73	225.11
905.03	225.12
905.34	225.21
905.64	225.22
905.95	225.20
906.25	225.19
906.56	225.18
906.86	225.17
907.17	225.15
907.47	225.17
907.77	225.16
908.08	225.14
908.38	225.12
908.69	225.15
908.99	225.13
909.30	225.16
909.60	225.18
909.90	225.18
910.21	225.16
910.51	225.16
910.81	225.19
911.12	225.25
911.42	225.26
911.73	225.17
912.03	225.19
912.33	225.22
912.64	225.22
912.94	225.15
913.24	225.15
913.55	225.13
913.85	225.11
914.15	225.11
914.46	225.14
914.76	225.12
915.06	225.07
915.37	225.10
915.67	225.08
915.97	225.11
916.27	225.10
916.58	225.10
916.88	225.11
917.18	225.09
917.49	225.11
917.79	225.13
918.09	225.13
918.39	225.12
918.70	225.11
919.00	225.08
919.30	225.17
919.60	225.18
919.91	225.19
920.21	225.20
920.51	225.20
920.81	225.17
921.12	225.19
921.42	225.21
921.72	225.21
922.02	225.17
922.32	225.18
922.63	225.16
922.93	225.22
923.23	225.19
923.53	225.18
923.83	225.09
924.13	225.07
924.44	225.08
924.74	225.06
925.04	225.07
925.34	225.06
925.64	225.00
925.94	224.95
926.24	224.97
926.55	224.94
926.85	224.91
927.15	224.88
927.45	224.87
927.75	224.89
928.05	224.89
928.35	224.90
928.65	224.93
928.95	224.91
929.26	224.85
929.56	224.86
929.86	224.86
930.16	224.86
930.46	224.84
930.76	224.84
931.06	224.83
931.36	224.78
931.66	224.80
931.96	224.79
932.26	224.79
932.56	224.78
932.86	224.76
933.16	224.77
933.46	224.76
933.76	224.74
934.06	224.74
934.36	224.75
934.66	224.73
934.96	224.68
935.26	224.69
935.56	224.71
935.86	224.69
936.16	224.70
936.46	224.66
936.76	224.64
937.06	224.61
937.36	224.60
937.66	224.60
937.96	224.60
938.26	224.60
938.56	224.61
938.86	224.64
939.16	224.70
939.46	224.71
939.76	224.71
940.06	224.72
940.35	224.71
940.65	224.68
940.95	224.68
941.25	224.68
941.55	224.70
941.85	224.71
942.15	224.75
942.45	224.79
942.75	224.83
943.04	224.83
943.34	224.90
943.64	224.90
943.94	224.93
944.24	224.93
944.54	224.93
944.84	224.96
945.13	224.92
945.43	224.90
945.73	224.91
946.03	224.94
946.33	224.95
946.62	224.95
946.92	224.95
947.22	224.99
947.52	225.00
947.82	225.00
948.11	225.01
948.41	224.98
948.71	224.97
949.01	225.00
949.31	225.01
949.60	224.96
949.90	224.98
950.20	224.99
950.50	224.98
950.79	225.01
951.09	225.00
951.39	225.01
951.69	224.97
951.98	225.00
952.28	225.01
952.58	225.01
952.87	225.00
953.17	225.03
953.47	225.02
953.76	225.02
954.06	225.00
954.36	224.95
954.66	224.93
954.95	224.96
955.25	224.96
955.55	224.97
955.84	224.99
956.14	225.02
956.44	224.99
956.73	224.97
957.03	224.98
957.32	224.96
957.62	224.92
957.92	224.99
958.21	224.97
958.51	225.07
958.81	225.09
959.10	225.09
959.40	225.08
959.69	225.06
959.99	225.08
960.29	225.09
960.58	225.10
960.88	225.17
961.17	225.12
961.47	225.11
961.76	225.14
962.06	225.13
962.36	225.09
962.65	225.07
962.95	225.08
963.24	225.03
963.54	225.02
963.83	225.06
964.13	225.01
964.42	225.00
964.72	224.94
965.01	224.92
965.31	224.92
965.60	224.90
965.90	224.99
966.19	224.95
966.49	224.93
966.78	224.92
967.08	224.87
967.37	224.90
967.67	224.88
967.96	224.83
968.26	224.84
968.55	224.87
968.85	224.86
969.14	224.85
969.43	224.86
969.73	224.88
970.02	224.83
970.32	224.86
970.61	224.82
970.91	224.75
971.20	224.70
971.49	224.69
971.79	224.71
972.08	224.63
972.38	224.68
972.67	224.67
972.96	224.68
973.26	224.69
973.55	224.72
973.85	224.74
974.14	224.74
974.43	224.74
974.73	224.72
975.02	224.72
975.31	224.75
975.61	224.77
975.90	224.77
976.19	224.77
976.49	224.76
976.78	224.81
977.07	224.85
977.37	224.90
977.66	224.92
977.95	224.92
978.24	224.91
978.54	224.91
978.83	224.91
979.12	224.92
979.42	224.88
979.71	224.87
980.00	224.86
980.29	224.88
980.59	224.86
980.88	224.89
981.17	224.91
981.46	224.93
981.76	224.92
982.05	224.96
982.34	225.01
982.63	225.02
982.93	225.02
983.22	225.06
983.51	225.06
983.80	225.07
984.09	225.06
984.39	225.05
984.68	225.07
984.97	225.08
985.26	225.07
985.55	225.11
985.85	225.10
986.14	225.11
986.43	225.15
986.72	225.15
987.01	225.11
987.30	225.11
987.59	225.08
987.89	225.10
988.18	225.09
988.47	225.07
988.76	225.03
989.05	225.01
989.34	224.99
989.63	224.98
989.92	224.97
990.22	224.95
990.51	224.93
990.80	224.91
991.09	224.96
991.38	224.95
991.67	224.92
991.96	224.89
992.25	224.90
992.54	224.83
992.83	224.84
993.12	224.82
993.41	224.85
993.70	224.89
993.99	224.88
994.28	224.87
994.58	224.84
994.87	224.81
995.16	224.83
995.45	224.83
995.74	224.80
996.03	224.80
996.32	224.80
996.61	224.82
996.90	224.80
997.19	224.76
997.48	224.76
997.77	224.75
998.06	224.76
998.34	224.73
998.63	224.73
998.92	224.76
999.21	224.75
999.50	224.75
999.79	224.69
1000.08	224.66
1000.37	224.64
1000.66	224.65
1000.95	224.71
1001.24	224.70
1001.53	224.65
1001.82	224.63
1002.11	224.60
1002.40	224.62
1002.68	224.64
1002.97	224.74
1003.26	224.70
1003.55	224.70
1003.84	224.72
1004.13	224.73
1004.42	224.73
1004.71	224.75
1004.99	224.69
1005.28	224.73
1005.57	224.69
1005.86	224.69
1006.15	224.69
1006.44	224.68
1006.72	224.68
1007.01	224.65
1007.30	224.66
1007.59	224.65
1007.88	224.67
1008.17	224.70
1008.45	224.65
1008.74	224.63
1009.03	224.57
1009.32	224.57
1009.60	224.58
1009.89	224.54
1010.18	224.52
1010.47	224.49
1010.76	224.48
1011.04	224.50
1011.33	224.51
1011.62	224.53
1011.91	224.55
1012.19	224.54
1012.48	224.55
1012.77	224.57
1013.05	224.62
1013.34	224.60
1013.63	224.63
1013.92	224.65
1014.20	224.66
1014.49	224.72
1014.78	224.73
1015.06	224.68
1015.35	224.69
1015.64	224.72
1015.92	224.74
1016.21	224.77
1016.50	224.78
1016.78	224.79
1017.07	224.82
1017.36	224.81
1017.64	224.78
1017.93	224.83
1018.22	224.88
1018.50	224.86
1018.79	224.84
1019.08	224.81
1019.36	224.83
1019.65	224.82
1019.93	224.83
1020.22	224.82
1020.51	224.83
1020.79	224.83
1021.08	225.32
1021.36	224.41
1021.65	224.64
1021.94	224.70
1022.22	225.07
1022.51	224.30
1022.79	225.27
1023.08	224.68
1023.36	225.62
1023.65	224.69
>>>>>End Processed Spectral Data<<<<<
