SpectraSuite Data File
++++++++++++++++++++++++++++++++++++
Date: Fri Feb 01 18:08:19 EST 2013
User: group
Dark Spectrum Present: No
Reference Spectrum Present: No
Number of Sampled Component Spectra: 1
Spectrometers: USB2E7196
Integration Time (usec): 35000 (USB2E7196)
Spectra Averaged: 100 (USB2E7196)
Boxcar Smoothing: 10 (USB2E7196)
Correct for Electrical Dark: No (USB2E7196)
Strobe/Lamp Enabled: No (USB2E7196)
Correct for Detector Non-linearity: No (USB2E7196)
Correct for Stray Light: No (USB2E7196)
Number of Pixels in Processed Spectrum: 2048
>>>>>Begin Processed Spectral Data<<<<<
339.09	0.00
339.48	213.34
339.86	214.33
340.24	215.88
340.63	217.92
341.01	220.21
341.39	220.18
341.78	222.06
342.16	222.81
342.54	223.45
342.93	211.58
343.31	222.27
343.69	222.80
344.07	223.26
344.46	223.69
344.84	224.03
345.22	224.29
345.60	224.55
345.99	224.72
346.37	224.84
346.75	224.94
347.13	225.00
347.52	225.08
347.90	225.14
348.28	225.22
348.66	225.30
349.05	225.29
349.43	225.32
349.81	225.39
350.19	225.45
350.57	225.52
350.96	225.61
351.34	225.68
351.72	225.76
352.10	225.87
352.48	225.96
352.87	226.03
353.25	226.08
353.63	226.12
354.01	226.16
354.39	226.25
354.77	226.32
355.15	226.42
355.54	226.51
355.92	226.56
356.30	226.58
356.68	226.69
357.06	226.78
357.44	226.86
357.82	226.90
358.20	226.94
358.58	226.99
358.97	227.05
359.35	227.14
359.73	227.21
360.11	227.23
360.49	227.27
360.87	227.27
361.25	227.31
361.63	227.39
362.01	227.44
362.39	227.45
362.77	227.48
363.15	227.50
363.53	227.50
363.91	227.50
364.29	227.52
364.67	227.42
365.05	227.44
365.43	227.44
365.81	227.45
366.19	227.51
366.57	227.55
366.95	227.52
367.33	227.47
367.71	227.49
368.09	227.50
368.47	227.51
368.85	227.53
369.23	227.52
369.61	227.45
369.99	227.47
370.37	227.45
370.75	227.46
371.13	227.38
371.51	227.31
371.89	227.29
372.27	227.28
372.65	227.30
373.03	227.25
373.41	227.19
373.78	227.16
374.16	227.07
374.54	226.99
374.92	226.95
375.30	226.92
375.68	226.81
376.06	226.77
376.44	226.71
376.82	226.63
377.19	226.58
377.57	226.54
377.95	226.42
378.33	226.35
378.71	226.22
379.09	226.15
379.47	226.14
379.84	226.05
380.22	225.97
380.60	225.83
380.98	225.74
381.36	225.67
381.73	225.58
382.11	225.52
382.49	225.50
382.87	225.44
383.25	225.40
383.62	225.48
384.00	225.40
384.38	225.31
384.76	225.28
385.13	225.27
385.51	225.23
385.89	225.21
386.27	225.19
386.64	225.18
387.02	225.17
387.40	225.13
387.78	225.08
388.15	225.06
388.53	225.05
388.91	225.08
389.29	225.07
389.66	225.07
390.04	225.04
390.42	225.00
390.79	224.96
391.17	224.89
391.55	224.76
391.92	224.75
392.30	224.77
392.68	224.74
393.05	224.72
393.43	224.73
393.81	224.75
394.18	224.72
394.56	224.73
394.94	224.77
395.31	224.73
395.69	224.80
396.06	224.80
396.44	224.84
396.82	224.83
397.19	224.89
397.57	224.91
397.95	224.98
398.32	224.97
398.70	225.02
399.07	225.14
399.45	225.17
399.82	225.22
400.20	225.27
400.58	225.36
400.95	225.39
401.33	225.46
401.70	225.60
402.08	225.69
402.45	225.78
402.83	225.86
403.20	226.00
403.58	226.12
403.95	226.30
404.33	226.43
404.71	226.55
405.08	226.75
405.46	226.93
405.83	227.07
406.21	227.25
406.58	227.45
406.96	227.61
407.33	227.85
407.70	228.11
408.08	228.43
408.45	228.72
408.83	229.04
409.20	229.31
409.58	229.53
409.95	229.87
410.33	230.23
410.70	230.57
411.08	230.93
411.45	231.32
411.82	231.72
412.20	232.19
412.57	232.76
412.95	233.17
413.32	233.68
413.69	234.26
414.07	234.87
414.44	235.50
414.82	236.15
415.19	236.89
415.56	237.63
415.94	238.38
416.31	239.24
416.68	240.05
417.06	241.03
417.43	241.93
417.81	242.98
418.18	244.01
418.55	245.16
418.93	246.35
419.30	247.60
419.67	248.86
420.04	250.17
420.42	251.53
420.79	253.11
421.16	254.69
421.54	256.26
421.91	257.89
422.28	259.60
422.66	261.43
423.03	263.15
423.40	265.00
423.77	266.94
424.15	268.90
424.52	270.95
424.89	273.13
425.26	275.25
425.64	277.23
426.01	279.43
426.38	281.69
426.75	283.99
427.13	286.32
427.50	288.79
427.87	291.33
428.24	293.87
428.61	296.26
428.99	298.88
429.36	301.78
429.73	304.61
430.10	307.35
430.47	310.18
430.85	313.13
431.22	316.17
431.59	319.34
431.96	322.34
432.33	325.75
432.70	329.00
433.08	332.86
433.45	336.47
433.82	340.02
434.19	343.94
434.56	347.72
434.93	351.37
435.30	354.95
435.68	358.95
436.05	362.81
436.42	366.71
436.79	370.15
437.16	373.79
437.53	377.70
437.90	381.61
438.27	385.36
438.64	389.24
439.01	392.77
439.38	395.85
439.75	398.86
440.13	402.25
440.50	405.46
440.87	407.99
441.24	410.70
441.61	413.69
441.98	415.79
442.35	418.32
442.72	420.80
443.09	423.27
443.46	424.54
443.83	425.35
444.20	425.99
444.57	427.15
444.94	427.63
445.31	428.08
445.68	428.49
446.05	428.57
446.42	428.00
446.79	427.42
447.16	426.81
447.53	426.33
447.90	424.75
448.27	423.12
448.64	420.95
449.01	419.31
449.37	416.59
449.74	413.96
450.11	410.86
450.48	407.54
450.85	404.13
451.22	401.21
451.59	398.47
451.96	395.79
452.33	392.27
452.70	389.02
453.07	385.12
453.43	381.20
453.80	377.46
454.17	373.83
454.54	370.38
454.91	366.70
455.28	363.06
455.65	359.65
456.02	356.26
456.38	353.32
456.75	349.67
457.12	346.60
457.49	343.58
457.86	340.60
458.23	338.02
458.59	335.14
458.96	332.29
459.33	329.68
459.70	327.11
460.07	324.99
460.43	322.63
460.80	320.42
461.17	318.38
461.54	316.28
461.91	314.33
462.27	312.31
462.64	310.58
463.01	308.73
463.38	306.94
463.74	305.12
464.11	303.53
464.48	302.09
464.85	300.58
465.21	299.33
465.58	298.08
465.95	296.60
466.32	295.37
466.68	294.11
467.05	292.90
467.42	291.68
467.78	290.46
468.15	289.27
468.52	288.33
468.88	287.21
469.25	286.13
469.62	285.28
469.98	284.35
470.35	283.46
470.72	282.59
471.08	281.70
471.45	280.94
471.82	280.17
472.18	279.34
472.55	278.70
472.92	278.01
473.28	277.35
473.65	276.74
474.02	276.14
474.38	275.64
474.75	275.18
475.11	274.69
475.48	274.28
475.85	273.91
476.21	273.53
476.58	273.21
476.94	272.96
477.31	272.63
477.67	272.36
478.04	272.17
478.41	272.06
478.77	272.02
479.14	271.88
479.50	271.84
479.87	271.85
480.23	271.85
480.60	271.83
480.96	271.83
481.33	271.94
481.69	272.11
482.06	272.23
482.42	272.35
482.79	272.58
483.15	272.83
483.52	273.15
483.88	273.49
484.25	273.87
484.61	274.30
484.98	274.72
485.34	275.28
485.71	275.85
486.07	276.43
486.44	276.98
486.80	277.67
487.17	278.37
487.53	279.23
487.90	280.08
488.26	281.05
488.62	282.12
488.99	283.15
489.35	284.22
489.72	285.39
490.08	286.63
490.44	287.89
490.81	289.32
491.17	290.76
491.54	292.29
491.90	293.86
492.26	295.55
492.63	297.36
492.99	299.22
493.36	301.22
493.72	303.37
494.08	305.62
494.45	307.97
494.81	310.49
495.17	313.02
495.54	315.79
495.90	318.58
496.26	321.48
496.63	324.64
496.99	327.91
497.35	331.37
497.72	334.98
498.08	338.72
498.44	342.59
498.80	346.70
499.17	350.99
499.53	355.47
499.89	360.16
500.26	364.99
500.62	369.97
500.98	375.26
501.34	380.69
501.71	386.28
502.07	392.10
502.43	398.10
502.79	404.28
503.16	410.70
503.52	417.42
503.88	424.25
504.24	431.29
504.60	438.63
504.97	446.25
505.33	454.05
505.69	462.32
506.05	470.63
506.41	479.06
506.78	487.77
507.14	496.81
507.50	506.16
507.86	515.79
508.22	525.65
508.59	535.48
508.95	545.67
509.31	556.22
509.67	567.06
510.03	578.01
510.39	589.41
510.75	601.03
511.12	612.74
511.48	624.93
511.84	637.18
512.20	649.61
512.56	662.42
512.92	675.49
513.28	688.79
513.64	702.28
514.00	716.05
514.37	730.10
514.73	744.23
515.09	758.17
515.45	772.52
515.81	787.20
516.17	802.29
516.53	817.74
516.89	833.12
517.25	848.47
517.61	864.14
517.97	879.95
518.33	895.55
518.69	911.61
519.05	927.90
519.41	944.54
519.77	961.47
520.13	978.46
520.49	995.38
520.85	1012.20
521.21	1029.37
521.57	1047.20
521.93	1064.30
522.29	1082.19
522.65	1100.20
523.01	1118.07
523.37	1135.76
523.73	1153.70
524.09	1171.30
524.45	1189.27
524.81	1207.60
525.17	1226.15
525.53	1244.73
525.89	1263.58
526.25	1282.33
526.61	1300.47
526.97	1319.10
527.33	1337.36
527.68	1355.76
528.04	1374.08
528.40	1392.60
528.76	1411.54
529.12	1430.03
529.48	1449.02
529.84	1466.96
530.20	1485.50
530.56	1504.46
530.91	1524.01
531.27	1542.87
531.63	1561.39
531.99	1580.15
532.35	1598.26
532.71	1616.30
533.07	1634.65
533.42	1652.65
533.78	1670.84
534.14	1689.39
534.50	1706.94
534.86	1725.10
535.21	1742.50
535.57	1760.64
535.93	1778.40
536.29	1795.44
536.65	1812.60
537.00	1829.52
537.36	1847.22
537.72	1863.90
538.08	1880.81
538.44	1896.84
538.79	1912.93
539.15	1928.88
539.51	1944.84
539.87	1961.55
540.22	1977.59
540.58	1993.74
540.94	2009.24
541.29	2024.24
541.65	2039.16
542.01	2054.61
542.37	2069.25
542.72	2083.99
543.08	2098.24
543.44	2113.09
543.79	2126.75
544.15	2140.07
544.51	2154.05
544.87	2167.22
545.22	2180.51
545.58	2192.93
545.94	2204.84
546.29	2216.97
546.65	2229.22
547.01	2240.81
547.36	2251.71
547.72	2262.35
548.07	2272.30
548.43	2282.80
548.79	2293.07
549.14	2302.77
549.50	2312.12
549.86	2321.88
550.21	2331.22
550.57	2340.37
550.92	2348.80
551.28	2357.77
551.64	2366.97
551.99	2375.48
552.35	2383.71
552.70	2391.72
553.06	2399.66
553.41	2407.99
553.77	2415.77
554.13	2423.76
554.48	2431.78
554.84	2439.24
555.19	2446.30
555.55	2453.35
555.90	2459.65
556.26	2466.34
556.61	2472.96
556.97	2479.21
557.32	2485.03
557.68	2490.81
558.03	2496.89
558.39	2502.22
558.74	2508.70
559.10	2514.24
559.45	2519.54
559.81	2525.49
560.16	2531.13
560.52	2535.88
560.87	2540.79
561.23	2545.01
561.58	2549.30
561.94	2553.23
562.29	2556.78
562.64	2561.06
563.00	2564.84
563.35	2569.68
563.71	2574.10
564.06	2578.57
564.42	2582.67
564.77	2586.62
565.12	2590.40
565.48	2593.38
565.83	2596.50
566.19	2598.97
566.54	2600.91
566.89	2603.22
567.25	2604.82
567.60	2607.00
567.96	2609.84
568.31	2611.77
568.66	2613.96
569.02	2615.43
569.37	2616.60
569.72	2618.58
570.08	2619.49
570.43	2620.46
570.78	2620.78
571.14	2619.91
571.49	2619.04
571.84	2619.35
572.20	2618.90
572.55	2618.22
572.90	2617.07
573.26	2616.23
573.61	2614.95
573.96	2613.67
574.31	2610.92
574.67	2608.31
575.02	2604.92
575.37	2601.68
575.72	2597.98
576.08	2594.59
576.43	2591.38
576.78	2587.82
577.13	2584.57
577.49	2581.47
577.84	2577.98
578.19	2574.04
578.54	2570.48
578.90	2566.36
579.25	2560.45
579.60	2555.18
579.95	2550.04
580.30	2544.80
580.66	2539.19
581.01	2533.81
581.36	2528.52
581.71	2524.06
582.06	2519.26
582.42	2514.47
582.77	2508.88
583.12	2503.97
583.47	2499.08
583.82	2493.95
584.17	2488.34
584.53	2482.44
584.88	2476.25
585.23	2470.02
585.58	2463.90
585.93	2458.02
586.28	2452.72
586.63	2447.38
586.98	2441.81
587.34	2436.53
587.69	2431.15
588.04	2425.44
588.39	2419.05
588.74	2411.89
589.09	2405.11
589.44	2397.58
589.79	2390.82
590.14	2384.49
590.49	2377.16
590.84	2370.08
591.19	2363.16
591.54	2355.91
591.89	2347.64
592.25	2340.20
592.60	2332.09
592.95	2323.72
593.30	2315.27
593.65	2306.59
594.00	2298.50
594.35	2290.18
594.70	2280.96
595.05	2272.88
595.40	2264.60
595.75	2256.20
596.10	2249.17
596.45	2241.44
596.80	2234.21
597.15	2226.63
597.50	2218.47
597.85	2210.77
598.19	2203.09
598.54	2194.98
598.89	2187.25
599.24	2180.42
599.59	2172.77
599.94	2165.58
600.29	2158.18
600.64	2150.56
600.99	2142.06
601.34	2134.09
601.69	2125.84
602.04	2118.01
602.39	2109.32
602.74	2101.33
603.08	2093.50
603.43	2085.55
603.78	2076.99
604.13	2068.66
604.48	2060.18
604.83	2052.21
605.18	2044.42
605.53	2035.05
605.87	2025.74
606.22	2017.12
606.57	2007.77
606.92	1998.89
607.27	1990.37
607.62	1982.29
607.96	1973.75
608.31	1966.01
608.66	1957.03
609.01	1948.28
609.36	1939.33
609.70	1930.03
610.05	1920.64
610.40	1911.42
610.75	1901.63
611.10	1892.59
611.44	1882.60
611.79	1873.16
612.14	1863.02
612.49	1851.97
612.83	1841.96
613.18	1832.18
613.53	1822.62
613.88	1812.49
614.22	1802.86
614.57	1792.65
614.92	1783.10
615.27	1774.23
615.61	1764.31
615.96	1754.90
616.31	1745.83
616.65	1737.20
617.00	1728.29
617.35	1719.09
617.70	1709.39
618.04	1699.31
618.39	1689.58
618.74	1680.69
619.08	1670.90
619.43	1661.70
619.78	1653.57
620.12	1645.20
620.47	1636.41
620.82	1626.77
621.16	1617.99
621.51	1608.90
621.85	1599.96
622.20	1589.88
622.55	1579.94
622.89	1570.78
623.24	1561.61
623.59	1552.76
623.93	1543.77
624.28	1535.11
624.62	1526.26
624.97	1517.77
625.32	1509.84
625.66	1501.59
626.01	1493.13
626.35	1484.34
626.70	1475.20
627.04	1466.06
627.39	1456.81
627.73	1448.00
628.08	1439.88
628.43	1431.35
628.77	1422.73
629.12	1413.80
629.46	1405.34
629.81	1396.45
630.15	1387.84
630.50	1379.13
630.84	1369.51
631.19	1360.05
631.53	1351.03
631.88	1342.10
632.22	1333.05
632.57	1324.23
632.91	1315.25
633.26	1306.47
633.60	1297.65
633.95	1289.20
634.29	1280.86
634.64	1272.88
634.98	1264.18
635.32	1255.74
635.67	1247.90
636.01	1239.94
636.36	1231.88
636.70	1224.08
637.05	1216.49
637.39	1208.76
637.73	1201.10
638.08	1194.19
638.42	1187.18
638.77	1179.68
639.11	1171.92
639.45	1164.34
639.80	1156.68
640.14	1149.19
640.49	1141.51
640.83	1134.08
641.17	1126.82
641.52	1119.44
641.86	1111.86
642.20	1105.01
642.55	1097.49
642.89	1089.85
643.23	1082.19
643.58	1075.46
643.92	1068.31
644.26	1061.16
644.61	1054.01
644.95	1046.98
645.29	1039.31
645.64	1031.41
645.98	1024.03
646.32	1017.10
646.66	1010.05
647.01	1003.27
647.35	996.59
647.69	989.61
648.04	983.14
648.38	976.40
648.72	969.52
649.06	962.46
649.41	955.53
649.75	948.71
650.09	941.82
650.43	935.14
650.78	927.90
651.12	920.94
651.46	914.32
651.80	907.78
652.14	901.47
652.49	895.26
652.83	889.27
653.17	882.70
653.51	876.13
653.85	869.86
654.20	863.20
654.54	856.14
654.88	849.48
655.22	842.64
655.56	836.02
655.90	829.53
656.25	823.46
656.59	817.27
656.93	811.28
657.27	805.28
657.61	798.91
657.95	793.05
658.29	787.16
658.64	780.97
658.98	774.79
659.32	768.44
659.66	762.30
660.00	756.15
660.34	750.38
660.68	744.62
661.02	738.88
661.36	733.51
661.70	728.28
662.05	723.25
662.39	718.22
662.73	712.98
663.07	707.97
663.41	702.80
663.75	697.54
664.09	692.23
664.43	687.14
664.77	682.37
665.11	677.38
665.45	672.59
665.79	667.90
666.13	663.09
666.47	658.34
666.81	653.58
667.15	648.79
667.49	644.25
667.83	639.83
668.17	635.20
668.51	630.39
668.85	625.70
669.19	621.25
669.53	616.75
669.87	612.34
670.21	607.92
670.55	603.65
670.89	599.65
671.23	595.70
671.57	591.56
671.91	587.45
672.25	583.39
672.58	579.30
672.92	575.28
673.26	571.57
673.60	567.90
673.94	564.23
674.28	560.82
674.62	557.39
674.96	553.78
675.30	550.42
675.64	547.03
675.97	543.82
676.31	540.45
676.65	537.15
676.99	533.99
677.33	530.70
677.67	527.50
678.01	524.08
678.34	520.63
678.68	517.27
679.02	514.00
679.36	510.78
679.70	507.58
680.04	504.38
680.37	501.13
680.71	497.90
681.05	494.87
681.39	491.67
681.73	488.55
682.06	485.67
682.40	482.71
682.74	479.81
683.08	476.86
683.42	473.91
683.75	471.00
684.09	468.02
684.43	465.19
684.77	462.31
685.10	459.48
685.44	456.80
685.78	454.21
686.12	451.58
686.45	448.94
686.79	446.31
687.13	443.74
687.46	441.17
687.80	438.65
688.14	436.06
688.48	433.71
688.81	431.10
689.15	428.55
689.49	426.04
689.82	423.55
690.16	421.08
690.50	418.79
690.83	416.53
691.17	414.22
691.51	411.96
691.84	409.81
692.18	407.61
692.52	405.27
692.85	402.99
693.19	400.79
693.52	398.64
693.86	396.48
694.20	394.39
694.53	392.29
694.87	390.15
695.21	388.07
695.54	385.95
695.88	383.91
696.21	381.93
696.55	379.97
696.88	378.02
697.22	376.10
697.56	374.14
697.89	372.22
698.23	370.37
698.56	368.52
698.90	366.69
699.23	364.78
699.57	363.02
699.90	361.23
700.24	359.47
700.58	357.70
700.91	355.95
701.25	354.29
701.58	352.70
701.92	351.07
702.25	349.47
702.59	347.86
702.92	346.33
703.26	344.81
703.59	343.32
703.93	341.90
704.26	340.51
704.60	339.00
704.93	337.52
705.26	336.06
705.60	334.68
705.93	333.32
706.27	332.13
706.60	330.86
706.94	329.56
707.27	328.25
707.61	326.99
707.94	325.79
708.27	324.51
708.61	323.22
708.94	322.02
709.28	320.86
709.61	319.74
709.94	318.65
710.28	317.46
710.61	316.30
710.95	315.10
711.28	313.96
711.61	312.90
711.95	311.80
712.28	310.69
712.61	309.53
712.95	308.41
713.28	307.31
713.61	306.29
713.95	305.28
714.28	304.24
714.61	303.20
714.95	302.19
715.28	301.20
715.61	300.17
715.95	299.18
716.28	298.16
716.61	297.16
716.95	296.13
717.28	295.22
717.61	294.31
717.94	293.43
718.28	292.48
718.61	291.59
718.94	290.78
719.27	290.00
719.61	289.23
719.94	288.47
720.27	287.70
720.60	286.90
720.94	286.18
721.27	285.48
721.60	284.79
721.93	284.07
722.27	283.42
722.60	282.78
722.93	282.12
723.26	281.55
723.59	280.92
723.93	280.29
724.26	279.67
724.59	279.02
724.92	278.38
725.25	277.83
725.59	277.19
725.92	276.56
726.25	275.93
726.58	275.35
726.91	274.74
727.24	274.14
727.57	273.57
727.91	272.95
728.24	272.40
728.57	271.85
728.90	271.35
729.23	270.76
729.56	270.24
729.89	269.69
730.22	269.07
730.55	268.51
730.89	268.01
731.22	267.48
731.55	266.96
731.88	266.44
732.21	265.93
732.54	265.44
732.87	264.96
733.20	264.51
733.53	264.06
733.86	263.62
734.19	263.20
734.52	262.76
734.85	262.42
735.18	261.97
735.51	261.55
735.84	261.08
736.17	260.69
736.50	260.22
736.83	259.95
737.16	259.56
737.49	259.18
737.82	258.78
738.15	258.40
738.48	258.02
738.81	257.65
739.14	257.30
739.47	256.97
739.80	256.60
740.13	256.25
740.46	255.88
740.79	255.48
741.12	255.03
741.45	254.68
741.78	254.26
742.11	253.91
742.44	253.56
742.77	253.24
743.10	252.92
743.43	252.58
743.75	252.14
744.08	251.96
744.41	251.65
744.74	251.34
745.07	251.00
745.40	250.73
745.73	250.46
746.06	250.10
746.39	249.80
746.71	249.52
747.04	249.20
747.37	248.90
747.70	248.67
748.03	248.43
748.36	248.16
748.68	247.88
749.01	247.59
749.34	247.30
749.67	247.02
750.00	246.73
750.33	246.53
750.65	246.27
750.98	245.90
751.31	245.62
751.64	245.42
751.97	245.23
752.29	244.95
752.62	244.67
752.95	244.45
753.28	244.17
753.60	243.92
753.93	243.73
754.26	243.48
754.59	243.21
754.91	242.98
755.24	242.76
755.57	242.51
755.90	242.29
756.22	242.04
756.55	241.84
756.88	241.64
757.20	241.40
757.53	241.17
757.86	240.96
758.19	240.80
758.51	240.55
758.84	240.33
759.17	240.15
759.49	239.97
759.82	239.81
760.15	239.67
760.47	239.47
760.80	239.29
761.13	239.18
761.45	238.99
761.78	238.81
762.11	238.64
762.43	238.47
762.76	238.33
763.08	238.24
763.41	238.08
763.74	237.92
764.06	237.75
764.39	237.62
764.71	237.48
765.04	237.30
765.37	237.16
765.69	236.98
766.02	236.83
766.34	236.66
766.67	236.50
767.00	236.40
767.32	236.33
767.65	236.24
767.97	236.07
768.30	235.95
768.62	235.82
768.95	235.68
769.27	235.56
769.60	235.44
769.92	235.27
770.25	235.12
770.57	234.96
770.90	234.85
771.22	234.71
771.55	234.61
771.87	234.53
772.20	234.40
772.52	234.39
772.85	234.39
773.17	234.28
773.50	234.17
773.82	234.00
774.15	233.87
774.47	233.69
774.80	233.58
775.12	233.47
775.45	233.38
775.77	233.27
776.09	233.19
776.42	233.08
776.74	233.02
777.07	232.96
777.39	232.90
777.72	232.80
778.04	232.75
778.36	232.65
778.69	232.56
779.01	232.50
779.33	232.34
779.66	232.13
779.98	232.04
780.31	231.95
780.63	231.94
780.95	231.88
781.28	231.83
781.60	231.74
781.92	231.67
782.25	231.62
782.57	231.56
782.89	231.48
783.22	231.42
783.54	231.33
783.86	231.25
784.19	231.15
784.51	231.11
784.83	231.04
785.16	230.96
785.48	230.89
785.80	230.82
786.12	230.75
786.45	230.71
786.77	230.68
787.09	230.64
787.42	230.51
787.74	230.46
788.06	230.41
788.38	230.33
788.71	230.27
789.03	230.19
789.35	230.18
789.67	230.13
789.99	230.09
790.32	230.02
790.64	229.96
790.96	230.03
791.28	229.95
791.61	229.87
791.93	229.81
792.25	229.77
792.57	229.78
792.89	229.77
793.21	229.76
793.54	229.68
793.86	229.60
794.18	229.58
794.50	229.48
794.82	229.41
795.14	229.41
795.47	229.38
795.79	229.34
796.11	229.24
796.43	229.19
796.75	229.13
797.07	229.09
797.39	229.06
797.71	228.93
798.04	228.87
798.36	228.82
798.68	228.79
799.00	228.78
799.32	228.71
799.64	228.66
799.96	228.60
800.28	228.59
800.60	228.57
800.92	228.54
801.24	228.52
801.56	228.53
801.89	228.47
802.21	228.47
802.53	228.43
802.85	228.42
803.17	228.45
803.49	228.42
803.81	228.37
804.13	228.34
804.45	228.31
804.77	228.27
805.09	228.26
805.41	228.21
805.73	228.12
806.05	228.06
806.37	228.04
806.69	227.99
807.01	227.94
807.33	227.92
807.65	227.82
807.97	227.86
808.28	227.80
808.60	227.77
808.92	227.71
809.24	227.73
809.56	227.68
809.88	227.63
810.20	227.61
810.52	227.63
810.84	227.57
811.16	227.53
811.48	227.53
811.80	227.53
812.12	227.51
812.43	227.53
812.75	227.49
813.07	227.43
813.39	227.44
813.71	227.43
814.03	227.39
814.35	227.39
814.67	227.29
814.98	227.24
815.30	227.23
815.62	227.21
815.94	227.15
816.26	227.19
816.58	227.14
816.89	227.11
817.21	227.08
817.53	227.11
817.85	227.08
818.17	227.06
818.48	227.01
818.80	227.02
819.12	226.96
819.44	226.92
819.76	226.89
820.07	226.88
820.39	226.84
820.71	226.84
821.03	226.83
821.34	226.83
821.66	226.82
821.98	226.81
822.30	226.75
822.61	226.77
822.93	226.68
823.25	226.66
823.57	226.62
823.88	226.60
824.20	226.54
824.52	226.57
824.83	226.54
825.15	226.50
825.47	226.47
825.79	226.46
826.10	226.43
826.42	226.40
826.74	226.39
827.05	226.36
827.37	226.36
827.69	226.31
828.00	226.32
828.32	226.33
828.64	226.30
828.95	226.38
829.27	226.33
829.58	226.32
829.90	226.33
830.22	226.36
830.53	226.31
830.85	226.30
831.17	226.20
831.48	226.22
831.80	226.22
832.11	226.23
832.43	226.24
832.75	226.24
833.06	226.29
833.38	226.25
833.69	226.24
834.01	226.23
834.32	226.22
834.64	226.20
834.96	226.17
835.27	226.21
835.59	226.15
835.90	226.13
836.22	226.12
836.53	226.12
836.85	226.11
837.16	226.20
837.48	226.24
837.79	226.30
838.11	226.26
838.42	226.25
838.74	226.24
839.05	226.26
839.37	226.28
839.68	226.24
840.00	226.22
840.31	226.24
840.63	226.21
840.94	226.21
841.26	226.17
841.57	226.16
841.88	226.11
842.20	226.09
842.51	226.09
842.83	226.09
843.14	226.16
843.46	226.12
843.77	226.07
844.08	226.03
844.40	226.01
844.71	226.03
845.03	225.99
845.34	225.97
845.65	225.91
845.97	225.91
846.28	225.92
846.60	225.94
846.91	225.91
847.22	225.94
847.54	225.96
847.85	225.96
848.16	225.95
848.48	225.94
848.79	225.98
849.10	226.00
849.42	225.99
849.73	225.87
850.04	225.88
850.36	225.82
850.67	225.81
850.98	225.80
851.30	225.81
851.61	225.82
851.92	225.81
852.23	225.86
852.55	225.84
852.86	225.83
853.17	225.82
853.49	225.85
853.80	225.85
854.11	225.83
854.42	225.84
854.74	225.82
855.05	225.83
855.36	225.76
855.67	225.72
855.99	225.72
856.30	225.84
856.61	225.84
856.92	225.85
857.23	225.85
857.55	225.81
857.86	225.79
858.17	225.81
858.48	225.76
858.79	225.73
859.11	225.72
859.42	225.68
859.73	225.67
860.04	225.63
860.35	225.57
860.66	225.55
860.98	225.54
861.29	225.54
861.60	225.51
861.91	225.54
862.22	225.55
862.53	225.51
862.84	225.37
863.16	225.38
863.47	225.34
863.78	225.34
864.09	225.36
864.40	225.33
864.71	225.32
865.02	225.31
865.33	225.25
865.64	225.26
865.95	225.27
866.27	225.34
866.58	225.31
866.89	225.32
867.20	225.32
867.51	225.30
867.82	225.33
868.13	225.35
868.44	225.35
868.75	225.32
869.06	225.34
869.37	225.36
869.68	225.32
869.99	225.33
870.30	225.31
870.61	225.36
870.92	225.35
871.23	225.32
871.54	225.36
871.85	225.40
872.16	225.37
872.47	225.35
872.78	225.27
873.09	225.32
873.40	225.34
873.71	225.34
874.02	225.33
874.33	225.28
874.64	225.26
874.95	225.27
875.26	225.26
875.56	225.29
875.87	225.27
876.18	225.26
876.49	225.39
876.80	225.42
877.11	225.38
877.42	225.40
877.73	225.42
878.04	225.42
878.35	225.44
878.66	225.50
878.96	225.51
879.27	225.49
879.58	225.48
879.89	225.46
880.20	225.49
880.51	225.51
880.82	225.54
881.12	225.52
881.43	225.48
881.74	225.49
882.05	225.43
882.36	225.48
882.67	225.48
882.97	225.37
883.28	225.33
883.59	225.30
883.90	225.32
884.21	225.38
884.51	225.36
884.82	225.35
885.13	225.30
885.44	225.28
885.74	225.32
886.05	225.29
886.36	225.30
886.67	225.27
886.98	225.33
887.28	225.31
887.59	225.33
887.90	225.34
888.20	225.33
888.51	225.37
888.82	225.33
889.13	225.35
889.43	225.44
889.74	225.45
890.05	225.48
890.35	225.45
890.66	225.39
890.97	225.40
891.28	225.36
891.58	225.36
891.89	225.38
892.20	225.36
892.50	225.37
892.81	225.36
893.12	225.36
893.42	225.30
893.73	225.30
894.04	225.31
894.34	225.33
894.65	225.32
894.95	225.30
895.26	225.31
895.57	225.37
895.87	225.25
896.18	225.28
896.48	225.24
896.79	225.25
897.10	225.29
897.40	225.27
897.71	225.28
898.01	225.30
898.32	225.29
898.63	225.29
898.93	225.29
899.24	225.28
899.54	225.27
899.85	225.26
900.15	225.26
900.46	225.24
900.76	225.27
901.07	225.26
901.38	225.25
901.68	225.23
901.99	225.16
902.29	225.15
902.60	225.15
902.90	225.18
903.21	225.18
903.51	225.15
903.82	225.16
904.12	225.15
904.43	225.14
904.73	225.13
905.03	225.12
905.34	225.22
905.64	225.20
905.95	225.20
906.25	225.17
906.56	225.17
906.86	225.17
907.17	225.15
907.47	225.15
907.77	225.16
908.08	225.16
908.38	225.17
908.69	225.17
908.99	225.15
909.30	225.14
909.60	225.11
909.90	225.14
910.21	225.16
910.51	225.18
910.81	225.18
911.12	225.21
911.42	225.21
911.73	225.10
912.03	225.13
912.33	225.16
912.64	225.19
912.94	225.20
913.24	225.18
913.55	225.17
913.85	225.17
914.15	225.15
914.46	225.18
914.76	225.16
915.06	225.15
915.37	225.11
915.67	225.10
915.97	225.10
916.27	225.05
916.58	225.06
916.88	225.04
917.18	225.02
917.49	225.09
917.79	225.09
918.09	225.11
918.39	225.12
918.70	225.13
919.00	225.14
919.30	225.16
919.60	225.19
919.91	225.17
920.21	225.17
920.51	225.18
920.81	225.19
921.12	225.21
921.42	225.24
921.72	225.29
922.02	225.30
922.32	225.30
922.63	225.30
922.93	225.34
923.23	225.32
923.53	225.31
923.83	225.23
924.13	225.24
924.44	225.19
924.74	225.18
925.04	225.15
925.34	225.14
925.64	225.11
925.94	225.06
926.24	225.10
926.55	225.13
926.85	225.14
927.15	225.11
927.45	225.14
927.75	225.12
928.05	225.11
928.35	225.13
928.65	225.16
928.95	225.18
929.26	225.12
929.56	225.13
929.86	225.17
930.16	225.18
930.46	225.16
930.76	225.20
931.06	225.17
931.36	225.18
931.66	225.17
931.96	225.17
932.26	225.22
932.56	225.19
932.86	225.17
933.16	225.18
933.46	225.19
933.76	225.13
934.06	225.13
934.36	225.17
934.66	225.14
934.96	225.12
935.26	225.13
935.56	225.17
935.86	225.16
936.16	225.14
936.46	225.12
936.76	225.13
937.06	225.11
937.36	225.11
937.66	225.09
937.96	225.10
938.26	225.04
938.56	225.03
938.86	225.03
939.16	225.03
939.46	225.03
939.76	225.01
940.06	225.01
940.35	225.00
940.65	224.94
940.95	224.96
941.25	224.95
941.55	224.91
941.85	224.86
942.15	224.88
942.45	224.93
942.75	224.93
943.04	224.91
943.34	224.89
943.64	224.89
943.94	224.84
944.24	224.84
944.54	224.87
944.84	224.85
945.13	224.82
945.43	224.83
945.73	224.78
946.03	224.79
946.33	224.78
946.62	224.76
946.92	224.76
947.22	224.74
947.52	224.75
947.82	224.77
948.11	224.78
948.41	224.76
948.71	224.74
949.01	224.74
949.31	224.76
949.60	224.77
949.90	224.81
950.20	224.81
950.50	224.81
950.79	224.79
951.09	224.84
951.39	224.83
951.69	224.81
951.98	224.87
952.28	224.89
952.58	224.89
952.87	224.94
953.17	224.96
953.47	224.96
953.76	224.93
954.06	224.91
954.36	224.90
954.66	224.90
954.95	224.91
955.25	224.93
955.55	224.95
955.84	224.93
956.14	224.93
956.44	224.95
956.73	224.93
957.03	224.97
957.32	224.93
957.62	224.94
957.92	224.97
958.21	224.94
958.51	225.07
958.81	225.11
959.10	225.08
959.40	225.10
959.69	225.11
959.99	225.12
960.29	225.13
960.58	225.15
960.88	225.17
961.17	225.16
961.47	225.18
961.76	225.12
962.06	225.14
962.36	225.15
962.65	225.16
962.95	225.19
963.24	225.14
963.54	225.15
963.83	225.17
964.13	225.13
964.42	225.14
964.72	225.01
965.01	224.98
965.31	225.00
965.60	224.97
965.90	225.05
966.19	225.03
966.49	225.00
966.78	224.96
967.08	224.96
967.37	224.94
967.67	224.93
967.96	225.01
968.26	224.99
968.55	224.98
968.85	224.97
969.14	224.93
969.43	224.96
969.73	224.95
970.02	224.92
970.32	224.95
970.61	224.95
970.91	224.94
971.20	224.92
971.49	224.90
971.79	224.92
972.08	224.85
972.38	224.87
972.67	224.91
972.96	224.94
973.26	224.91
973.55	224.93
973.85	224.90
974.14	224.87
974.43	224.90
974.73	224.91
975.02	224.91
975.31	224.90
975.61	224.91
975.90	224.91
976.19	224.94
976.49	224.94
976.78	224.91
977.07	224.89
977.37	224.90
977.66	224.92
977.95	224.87
978.24	224.89
978.54	224.90
978.83	224.87
979.12	224.86
979.42	224.84
979.71	224.82
980.00	224.84
980.29	224.87
980.59	224.87
980.88	224.87
981.17	224.88
981.46	224.90
981.76	224.92
982.05	224.96
982.34	224.93
982.63	224.94
982.93	224.97
983.22	225.03
983.51	225.04
983.80	225.02
984.09	225.03
984.39	225.01
984.68	225.02
984.97	225.03
985.26	225.02
985.55	225.05
985.85	225.07
986.14	225.06
986.43	225.06
986.72	225.03
987.01	225.00
987.30	224.99
987.59	225.00
987.89	224.96
988.18	224.95
988.47	224.94
988.76	224.91
989.05	224.88
989.34	224.85
989.63	224.89
989.92	224.88
990.22	224.90
990.51	224.91
990.80	224.89
991.09	224.88
991.38	224.91
991.67	224.90
991.96	224.83
992.25	224.87
992.54	224.83
992.83	224.83
993.12	224.83
993.41	224.85
993.70	224.88
993.99	224.91
994.28	224.91
994.58	224.94
994.87	224.94
995.16	224.95
995.45	224.95
995.74	224.90
996.03	224.93
996.32	224.94
996.61	224.97
996.90	224.94
997.19	224.94
997.48	224.94
997.77	224.92
998.06	224.97
998.34	224.97
998.63	224.98
998.92	224.99
999.21	225.00
999.50	224.99
999.79	224.95
1000.08	224.93
1000.37	224.92
1000.66	224.90
1000.95	224.92
1001.24	224.91
1001.53	224.92
1001.82	224.92
1002.11	224.90
1002.40	224.90
1002.68	224.91
1002.97	225.00
1003.26	224.98
1003.55	224.97
1003.84	224.98
1004.13	224.99
1004.42	224.95
1004.71	224.96
1004.99	224.94
1005.28	224.95
1005.57	224.92
1005.86	224.91
1006.15	224.91
1006.44	224.90
1006.72	224.90
1007.01	224.86
1007.30	224.86
1007.59	224.82
1007.88	224.80
1008.17	224.75
1008.45	224.72
1008.74	224.66
1009.03	224.59
1009.32	224.58
1009.60	224.58
1009.89	224.58
1010.18	224.55
1010.47	224.51
1010.76	224.50
1011.04	224.47
1011.33	224.48
1011.62	224.49
1011.91	224.48
1012.19	224.47
1012.48	224.45
1012.77	224.47
1013.05	224.51
1013.34	224.52
1013.63	224.56
1013.92	224.58
1014.20	224.61
1014.49	224.58
1014.78	224.59
1015.06	224.56
1015.35	224.55
1015.64	224.55
1015.92	224.56
1016.21	224.58
1016.50	224.58
1016.78	224.59
1017.07	224.60
1017.36	224.60
1017.64	224.58
1017.93	224.59
1018.22	224.60
1018.50	224.62
1018.79	224.58
1019.08	224.55
1019.36	224.55
1019.65	224.52
1019.93	224.53
1020.22	224.54
1020.51	224.64
1020.79	224.63
1021.08	224.78
1021.36	224.52
1021.65	224.12
1021.94	224.59
1022.22	224.77
1022.51	224.34
1022.79	224.90
1023.08	224.47
1023.36	226.39
1023.65	224.58
>>>>>End Processed Spectral Data<<<<<
