SpectraSuite Data File
++++++++++++++++++++++++++++++++++++
Date: Fri Feb 01 15:06:29 EST 2013
User: group
Dark Spectrum Present: No
Reference Spectrum Present: No
Number of Sampled Component Spectra: 1
Spectrometers: USB2E7196
Integration Time (usec): 35000 (USB2E7196)
Spectra Averaged: 100 (USB2E7196)
Boxcar Smoothing: 10 (USB2E7196)
Correct for Electrical Dark: No (USB2E7196)
Strobe/Lamp Enabled: No (USB2E7196)
Correct for Detector Non-linearity: No (USB2E7196)
Correct for Stray Light: No (USB2E7196)
Number of Pixels in Processed Spectrum: 2048
>>>>>Begin Processed Spectral Data<<<<<
339.09	0.00
339.48	214.55
339.86	216.49
340.24	218.33
340.63	218.64
341.01	222.26
341.39	223.26
341.78	223.80
342.16	224.06
342.54	224.70
342.93	213.41
343.31	224.20
343.69	224.77
344.07	225.22
344.46	225.63
344.84	226.04
345.22	226.27
345.60	226.44
345.99	226.63
346.37	226.79
346.75	226.91
347.13	226.98
347.52	227.05
347.90	227.14
348.28	227.16
348.66	227.21
349.05	227.19
349.43	227.26
349.81	227.28
350.19	227.36
350.57	227.42
350.96	227.54
351.34	227.62
351.72	227.73
352.10	227.86
352.48	227.92
352.87	227.96
353.25	228.03
353.63	228.13
354.01	228.16
354.39	228.23
354.77	228.33
355.15	228.42
355.54	228.49
355.92	228.52
356.30	228.60
356.68	228.73
357.06	228.82
357.44	228.86
357.82	228.93
358.20	228.98
358.58	229.02
358.97	229.06
359.35	229.14
359.73	229.19
360.11	229.20
360.49	229.26
360.87	229.32
361.25	229.42
361.63	229.49
362.01	229.58
362.39	229.60
362.77	229.62
363.15	229.62
363.53	229.63
363.91	229.64
364.29	229.64
364.67	229.58
365.05	229.59
365.43	229.60
365.81	229.64
366.19	229.68
366.57	229.71
366.95	229.68
367.33	229.65
367.71	229.61
368.09	229.65
368.47	229.59
368.85	229.56
369.23	229.48
369.61	229.41
369.99	229.37
370.37	229.35
370.75	229.33
371.13	229.29
371.51	229.25
371.89	229.22
372.27	229.18
372.65	229.10
373.03	229.05
373.41	228.99
373.78	228.93
374.16	228.81
374.54	228.73
374.92	228.66
375.30	228.57
375.68	228.51
376.06	228.40
376.44	228.32
376.82	228.25
377.19	228.20
377.57	228.12
377.95	228.02
378.33	227.95
378.71	227.84
379.09	227.77
379.47	227.71
379.84	227.63
380.22	227.52
380.60	227.45
380.98	227.36
381.36	227.25
381.73	227.16
382.11	227.10
382.49	227.01
382.87	226.93
383.25	226.86
383.62	226.90
384.00	226.86
384.38	226.83
384.76	226.79
385.13	226.78
385.51	226.73
385.89	226.66
386.27	226.60
386.64	226.55
387.02	226.51
387.40	226.43
387.78	226.39
388.15	226.37
388.53	226.33
388.91	226.29
389.29	226.27
389.66	226.27
390.04	226.26
390.42	226.26
390.79	226.25
391.17	226.27
391.55	226.13
391.92	226.13
392.30	226.14
392.68	226.11
393.05	226.08
393.43	226.10
393.81	226.11
394.18	226.15
394.56	226.18
394.94	226.22
395.31	226.29
395.69	226.35
396.06	226.43
396.44	226.48
396.82	226.54
397.19	226.65
397.57	226.71
397.95	226.77
398.32	226.81
398.70	226.90
399.07	226.98
399.45	227.08
399.82	227.13
400.20	227.22
400.58	227.32
400.95	227.39
401.33	227.51
401.70	227.69
402.08	227.78
402.45	227.90
402.83	228.01
403.20	228.13
403.58	228.26
403.95	228.39
404.33	228.53
404.71	228.66
405.08	228.86
405.46	228.98
405.83	229.13
406.21	229.28
406.58	229.47
406.96	229.66
407.33	229.86
407.70	230.08
408.08	230.36
408.45	230.57
408.83	230.81
409.20	231.00
409.58	231.20
409.95	231.46
410.33	231.72
410.70	231.99
411.08	232.29
411.45	232.57
411.82	232.86
412.20	233.21
412.57	233.64
412.95	233.89
413.32	234.30
413.69	234.71
414.07	235.18
414.44	235.62
414.82	236.07
415.19	236.60
415.56	237.15
415.94	237.69
416.31	238.32
416.68	238.94
417.06	239.66
417.43	240.34
417.81	241.13
418.18	241.92
418.55	242.77
418.93	243.61
419.30	244.51
419.67	245.47
420.04	246.45
420.42	247.43
420.79	248.65
421.16	249.81
421.54	250.98
421.91	252.14
422.28	253.40
422.66	254.72
423.03	256.06
423.40	257.40
423.77	258.79
424.15	260.23
424.52	261.70
424.89	263.28
425.26	264.83
425.64	266.25
426.01	267.85
426.38	269.48
426.75	271.16
427.13	272.89
427.50	274.68
427.87	276.55
428.24	278.43
428.61	280.18
428.99	282.17
429.36	284.25
429.73	286.36
430.10	288.39
430.47	290.49
430.85	292.54
431.22	294.77
431.59	297.14
431.96	299.39
432.33	301.89
432.70	304.31
433.08	307.12
433.45	309.76
433.82	312.42
434.19	315.30
434.56	318.13
434.93	320.82
435.30	323.44
435.68	326.31
436.05	329.13
436.42	331.91
436.79	334.43
437.16	337.16
437.53	339.99
437.90	342.83
438.27	345.58
438.64	348.46
439.01	351.11
439.38	353.37
439.75	355.55
440.13	358.09
440.50	360.47
440.87	362.33
441.24	364.30
441.61	366.45
441.98	367.96
442.35	369.75
442.72	371.56
443.09	373.33
443.46	374.37
443.83	374.93
444.20	375.41
444.57	376.23
444.94	376.55
445.31	376.92
445.68	377.28
446.05	377.37
446.42	377.01
446.79	376.54
447.16	376.10
447.53	375.80
447.90	374.58
448.27	373.36
448.64	371.78
449.01	370.63
449.37	368.62
449.74	366.72
450.11	364.47
450.48	362.07
450.85	359.58
451.22	357.43
451.59	355.46
451.96	353.54
452.33	350.94
452.70	348.56
453.07	345.74
453.43	342.78
453.80	339.97
454.17	337.28
454.54	334.72
454.91	332.01
455.28	329.31
455.65	326.81
456.02	324.37
456.38	322.20
456.75	319.54
457.12	317.29
457.49	315.07
457.86	312.91
458.23	311.00
458.59	308.94
458.96	306.82
459.33	304.93
459.70	303.05
460.07	301.53
460.43	299.79
460.80	298.15
461.17	296.72
461.54	295.19
461.91	293.74
462.27	292.28
462.64	290.99
463.01	289.63
463.38	288.37
463.74	286.98
464.11	285.83
464.48	284.76
464.85	283.65
465.21	282.76
465.58	281.81
465.95	280.70
466.32	279.77
466.68	278.86
467.05	277.98
467.42	277.09
467.78	276.16
468.15	275.26
468.52	274.56
468.88	273.72
469.25	273.00
469.62	272.37
469.98	271.70
470.35	271.08
470.72	270.44
471.08	269.78
471.45	269.22
471.82	268.60
472.18	268.00
472.55	267.53
472.92	266.99
473.28	266.50
473.65	266.06
474.02	265.62
474.38	265.20
474.75	264.82
475.11	264.44
475.48	264.13
475.85	263.94
476.21	263.68
476.58	263.49
476.94	263.30
477.31	263.12
477.67	262.94
478.04	262.83
478.41	262.78
478.77	262.82
479.14	262.76
479.50	262.78
479.87	262.85
480.23	262.94
480.60	263.00
480.96	263.11
481.33	263.32
481.69	263.49
482.06	263.72
482.42	264.00
482.79	264.27
483.15	264.58
483.52	264.93
483.88	265.33
484.25	265.69
484.61	266.13
484.98	266.54
485.34	267.13
485.71	267.70
486.07	268.29
486.44	268.85
486.80	269.56
487.17	270.34
487.53	271.17
487.90	271.99
488.26	272.95
488.62	273.94
488.99	274.88
489.35	275.92
489.72	277.07
490.08	278.23
490.44	279.50
490.81	280.84
491.17	282.19
491.54	283.65
491.90	285.21
492.26	286.85
492.63	288.61
492.99	290.36
493.36	292.22
493.72	294.25
494.08	296.32
494.45	298.54
494.81	300.89
495.17	303.28
495.54	305.91
495.90	308.58
496.26	311.36
496.63	314.32
496.99	317.44
497.35	320.64
497.72	324.02
498.08	327.51
498.44	331.15
498.80	335.08
499.17	339.04
499.53	343.19
499.89	347.50
500.26	352.00
500.62	356.61
500.98	361.59
501.34	366.67
501.71	372.02
502.07	377.46
502.43	383.04
502.79	388.87
503.16	394.85
503.52	401.16
503.88	407.59
504.24	414.23
504.60	421.12
504.97	428.31
505.33	435.64
505.69	443.29
506.05	451.08
506.41	458.90
506.78	467.08
507.14	475.51
507.50	484.27
507.86	493.29
508.22	502.49
508.59	511.66
508.95	521.20
509.31	530.97
509.67	541.10
510.03	551.44
510.39	562.02
510.75	572.84
511.12	583.67
511.48	594.96
511.84	606.44
512.20	617.98
512.56	629.83
512.92	642.06
513.28	654.38
513.64	666.84
514.00	679.60
514.37	692.49
514.73	705.53
515.09	718.61
515.45	731.94
515.81	745.60
516.17	759.67
516.53	773.83
516.89	788.00
517.25	802.12
517.61	816.43
517.97	830.86
518.33	845.30
518.69	860.26
519.05	875.26
519.41	890.43
519.77	905.98
520.13	921.50
520.49	936.85
520.85	952.36
521.21	968.11
521.57	984.43
521.93	1000.27
522.29	1016.80
522.65	1033.06
523.01	1049.24
523.37	1065.35
523.73	1081.58
524.09	1097.78
524.45	1114.24
524.81	1131.00
525.17	1148.01
525.53	1165.02
525.89	1181.91
526.25	1198.70
526.61	1215.09
526.97	1231.81
527.33	1248.34
527.68	1265.00
528.04	1281.62
528.40	1298.33
528.76	1315.54
529.12	1332.16
529.48	1349.20
529.84	1365.26
530.20	1381.95
530.56	1399.18
530.91	1416.64
531.27	1433.43
531.63	1449.83
531.99	1466.41
532.35	1482.41
532.71	1498.40
533.07	1514.70
533.42	1530.70
533.78	1546.69
534.14	1563.13
534.50	1578.55
534.86	1594.53
535.21	1609.67
535.57	1625.59
535.93	1641.09
536.29	1655.78
536.65	1670.88
537.00	1685.60
537.36	1700.89
537.72	1715.60
538.08	1730.09
538.44	1743.97
538.79	1757.91
539.15	1771.86
539.51	1785.75
539.87	1800.23
540.22	1814.00
540.58	1827.89
540.94	1841.33
541.29	1854.48
541.65	1867.26
542.01	1880.69
542.37	1892.95
542.72	1905.66
543.08	1917.42
543.44	1929.94
543.79	1941.42
544.15	1952.52
544.51	1964.19
544.87	1975.39
545.22	1986.15
545.58	1996.28
545.94	2006.07
546.29	2016.13
546.65	2025.87
547.01	2035.05
547.36	2043.79
547.72	2052.36
548.07	2060.19
548.43	2068.34
548.79	2076.39
549.14	2083.91
549.50	2091.27
549.86	2099.09
550.21	2106.38
550.57	2113.68
550.92	2120.43
551.28	2127.35
551.64	2134.42
551.99	2140.95
552.35	2146.89
552.70	2153.00
553.06	2158.93
553.41	2165.15
553.77	2171.12
554.13	2177.21
554.48	2183.32
554.84	2188.69
555.19	2193.90
555.55	2198.93
555.90	2203.35
556.26	2208.13
556.61	2212.91
556.97	2216.92
557.32	2221.02
557.68	2225.05
558.03	2229.33
558.39	2232.93
558.74	2237.48
559.10	2241.42
559.45	2244.91
559.81	2249.38
560.16	2253.04
560.52	2256.30
560.87	2259.67
561.23	2262.16
561.58	2265.19
561.94	2267.63
562.29	2269.94
562.64	2272.59
563.00	2275.24
563.35	2278.66
563.71	2281.73
564.06	2284.85
564.42	2287.77
564.77	2290.12
565.12	2292.30
565.48	2294.00
565.83	2295.60
566.19	2296.98
566.54	2297.87
566.89	2298.98
567.25	2299.33
567.60	2300.68
567.96	2302.21
568.31	2302.98
568.66	2303.92
569.02	2304.31
569.37	2304.66
569.72	2305.39
570.08	2305.21
570.43	2305.12
570.78	2304.44
571.14	2302.81
571.49	2301.28
571.84	2301.00
572.20	2299.76
572.55	2298.63
572.90	2297.00
573.26	2295.46
573.61	2293.57
573.96	2291.51
574.31	2288.43
574.67	2285.29
575.02	2281.59
575.37	2278.14
575.72	2274.29
576.08	2271.05
576.43	2267.59
576.78	2263.73
577.13	2260.53
577.49	2257.50
577.84	2253.86
578.19	2250.11
578.54	2246.16
578.90	2241.73
579.25	2235.99
579.60	2230.94
579.95	2225.81
580.30	2220.74
580.66	2215.56
581.01	2210.52
581.36	2205.46
581.71	2201.22
582.06	2196.68
582.42	2192.10
582.77	2186.75
583.12	2182.03
583.47	2176.93
583.82	2171.69
584.17	2166.22
584.53	2160.64
584.88	2154.86
585.23	2149.05
585.58	2143.50
585.93	2138.16
586.28	2133.43
586.63	2128.21
586.98	2123.07
587.34	2118.27
587.69	2113.39
588.04	2108.00
588.39	2102.07
588.74	2095.52
589.09	2089.22
589.44	2082.29
589.79	2076.23
590.14	2070.54
590.49	2063.93
590.84	2057.55
591.19	2051.54
591.54	2045.04
591.89	2037.46
592.25	2030.46
592.60	2023.12
592.95	2015.33
593.30	2007.98
593.65	2000.29
594.00	1993.21
594.35	1985.79
594.70	1977.72
595.05	1970.28
595.40	1962.94
595.75	1955.53
596.10	1949.16
596.45	1942.25
596.80	1936.07
597.15	1929.29
597.50	1922.07
597.85	1915.51
598.19	1908.85
598.54	1901.67
598.89	1895.00
599.24	1889.18
599.59	1882.41
599.94	1876.13
600.29	1869.83
600.64	1863.04
600.99	1855.42
601.34	1848.41
601.69	1841.37
602.04	1834.35
602.39	1827.00
602.74	1820.09
603.08	1813.35
603.43	1806.56
603.78	1799.34
604.13	1792.05
604.48	1784.64
604.83	1777.70
605.18	1770.68
605.53	1762.53
605.87	1754.35
606.22	1747.14
606.57	1739.17
606.92	1731.93
607.27	1724.76
607.62	1717.72
607.96	1710.39
608.31	1703.80
608.66	1696.23
609.01	1688.78
609.36	1681.21
609.70	1673.09
610.05	1665.02
610.40	1657.32
610.75	1649.07
611.10	1641.32
611.44	1632.94
611.79	1625.10
612.14	1616.41
612.49	1607.30
612.83	1599.00
613.18	1591.02
613.53	1582.92
613.88	1574.34
614.22	1566.11
614.57	1557.62
614.92	1549.63
615.27	1542.12
615.61	1533.77
615.96	1525.81
616.31	1518.20
616.65	1510.90
617.00	1503.43
617.35	1495.80
617.70	1487.47
618.04	1478.88
618.39	1470.77
618.74	1463.23
619.08	1454.85
619.43	1447.32
619.78	1440.54
620.12	1433.29
620.47	1425.86
620.82	1417.72
621.16	1410.41
621.51	1402.81
621.85	1395.16
622.20	1386.66
622.55	1378.44
622.89	1370.68
623.24	1363.12
623.59	1355.73
623.93	1348.12
624.28	1340.91
624.62	1333.41
624.97	1326.23
625.32	1319.66
625.66	1312.59
626.01	1305.32
626.35	1297.91
626.70	1290.29
627.04	1282.51
627.39	1274.89
627.73	1267.48
628.08	1260.67
628.43	1253.22
628.77	1245.79
629.12	1238.24
629.46	1231.15
629.81	1223.82
630.15	1216.65
630.50	1209.30
630.84	1201.16
631.19	1193.33
631.53	1185.93
631.88	1178.48
632.22	1170.87
632.57	1163.56
632.91	1156.13
633.26	1148.78
633.60	1141.51
633.95	1134.47
634.29	1127.45
634.64	1120.79
634.98	1113.46
635.32	1106.36
635.67	1100.01
636.01	1093.41
636.36	1086.57
636.70	1080.12
637.05	1073.51
637.39	1067.01
637.73	1060.49
638.08	1054.71
638.42	1048.87
638.77	1042.39
639.11	1035.71
639.45	1029.35
639.80	1022.76
640.14	1016.35
640.49	1009.93
640.83	1003.69
641.17	997.40
641.52	991.17
641.86	984.87
642.20	979.03
642.55	972.72
642.89	966.17
643.23	959.76
643.58	954.15
643.92	947.95
644.26	941.91
644.61	935.99
644.95	929.92
645.29	923.26
645.64	916.50
645.98	910.17
646.32	904.44
646.66	898.40
647.01	892.55
647.35	886.85
647.69	881.01
648.04	875.48
648.38	869.73
648.72	863.65
649.06	857.49
649.41	851.58
649.75	845.56
650.09	839.57
650.43	833.76
650.78	827.53
651.12	821.58
651.46	815.81
651.80	809.89
652.14	804.47
652.49	799.16
652.83	794.02
653.17	788.40
653.51	782.67
653.85	777.31
654.20	771.74
654.54	765.72
654.88	759.98
655.22	754.11
655.56	748.42
655.90	743.05
656.25	737.89
656.59	732.56
656.93	727.49
657.27	722.32
657.61	716.86
657.95	711.74
658.29	706.71
658.64	701.51
658.98	696.35
659.32	690.92
659.66	685.66
660.00	680.29
660.34	675.35
660.68	670.49
661.02	665.52
661.36	660.80
661.70	656.40
662.05	652.13
662.39	647.83
662.73	643.43
663.07	639.08
663.41	634.66
663.75	630.18
664.09	625.68
664.43	621.39
664.77	617.30
665.11	613.07
665.45	608.91
665.79	604.84
666.13	600.70
666.47	596.61
666.81	592.48
667.15	588.39
667.49	584.51
667.83	580.74
668.17	576.80
668.51	572.79
668.85	568.73
669.19	564.86
669.53	560.95
669.87	557.08
670.21	553.38
670.55	549.67
670.89	546.33
671.23	542.91
671.57	539.39
671.91	535.92
672.25	532.46
672.58	529.02
672.92	525.70
673.26	522.64
673.60	519.65
673.94	516.60
674.28	513.76
674.62	510.78
674.96	507.68
675.30	504.79
675.64	501.94
675.97	499.26
676.31	496.45
676.65	493.59
676.99	490.93
677.33	488.07
677.67	485.28
678.01	482.26
678.34	479.28
678.68	476.42
679.02	473.60
679.36	470.94
679.70	468.27
680.04	465.53
680.37	462.66
680.71	459.87
681.05	457.27
681.39	454.54
681.73	451.88
682.06	449.32
682.40	446.86
682.74	444.34
683.08	441.74
683.42	439.14
683.75	436.70
684.09	434.16
684.43	431.76
684.77	429.34
685.10	427.08
685.44	424.82
685.78	422.59
686.12	420.36
686.45	418.04
686.79	415.75
687.13	413.51
687.46	411.35
687.80	409.15
688.14	406.95
688.48	404.92
688.81	402.69
689.15	400.55
689.49	398.33
689.82	396.23
690.16	394.20
690.50	392.27
690.83	390.28
691.17	388.30
691.51	386.37
691.84	384.53
692.18	382.52
692.52	380.51
692.85	378.58
693.19	376.68
693.52	374.88
693.86	373.01
694.20	371.24
694.53	369.43
694.87	367.56
695.21	365.78
695.54	363.96
695.88	362.27
696.21	360.51
696.55	358.84
696.88	357.15
697.22	355.47
697.56	353.85
697.89	352.18
698.23	350.56
698.56	348.89
698.90	347.28
699.23	345.62
699.57	344.10
699.90	342.57
700.24	341.09
700.58	339.52
700.91	338.03
701.25	336.55
701.58	335.22
701.92	333.89
702.25	332.50
702.59	331.14
702.92	329.85
703.26	328.57
703.59	327.33
703.93	326.15
704.26	324.96
704.60	323.66
704.93	322.41
705.26	321.19
705.60	320.09
705.93	318.94
706.27	317.95
706.60	316.88
706.94	315.79
707.27	314.66
707.61	313.58
707.94	312.56
708.27	311.50
708.61	310.41
708.94	309.42
709.28	308.50
709.61	307.53
709.94	306.57
710.28	305.56
710.61	304.60
710.95	303.54
711.28	302.58
711.61	301.62
711.95	300.70
712.28	299.73
712.61	298.74
712.95	297.84
713.28	296.96
713.61	296.11
713.95	295.21
714.28	294.36
714.61	293.55
714.95	292.73
715.28	291.88
715.61	291.02
715.95	290.19
716.28	289.31
716.61	288.48
716.95	287.72
717.28	286.98
717.61	286.21
717.94	285.49
718.28	284.70
718.61	284.03
718.94	283.39
719.27	282.77
719.61	282.16
719.94	281.50
720.27	280.78
720.60	280.11
720.94	279.52
721.27	278.92
721.60	278.37
721.93	277.78
722.27	277.26
722.60	276.74
722.93	276.14
723.26	275.60
723.59	275.05
723.93	274.49
724.26	273.96
724.59	273.41
724.92	272.90
725.25	272.41
725.59	271.88
725.92	271.38
726.25	270.87
726.58	270.36
726.91	269.86
727.24	269.36
727.57	268.88
727.91	268.36
728.24	267.93
728.57	267.41
728.90	266.92
729.23	266.41
729.56	265.97
729.89	265.50
730.22	265.01
730.55	264.56
730.89	264.10
731.22	263.66
731.55	263.22
731.88	262.77
732.21	262.32
732.54	261.88
732.87	261.42
733.20	261.02
733.53	260.64
733.86	260.29
734.19	259.92
734.52	259.56
734.85	259.25
735.18	258.80
735.51	258.48
735.84	258.11
736.17	257.75
736.50	257.35
736.83	257.13
737.16	256.81
737.49	256.49
737.82	256.14
738.15	255.76
738.48	255.40
738.81	255.07
739.14	254.76
739.47	254.44
739.80	254.14
740.13	253.84
740.46	253.50
740.79	253.12
741.12	252.79
741.45	252.47
741.78	252.10
742.11	251.81
742.44	251.47
742.77	251.20
743.10	250.96
743.43	250.65
743.75	250.27
744.08	250.10
744.41	249.83
744.74	249.57
745.07	249.32
745.40	249.10
745.73	248.88
746.06	248.60
746.39	248.35
746.71	248.07
747.04	247.76
747.37	247.49
747.70	247.27
748.03	247.03
748.36	246.79
748.68	246.58
749.01	246.37
749.34	246.12
749.67	245.87
750.00	245.63
750.33	245.47
750.65	245.26
750.98	244.95
751.31	244.72
751.64	244.52
751.97	244.36
752.29	244.16
752.62	243.89
752.95	243.67
753.28	243.48
753.60	243.28
753.93	243.15
754.26	242.98
754.59	242.74
754.91	242.53
755.24	242.34
755.57	242.16
755.90	241.99
756.22	241.82
756.55	241.64
756.88	241.44
757.20	241.21
757.53	241.02
757.86	240.83
758.19	240.67
758.51	240.48
758.84	240.26
759.17	240.09
759.49	239.99
759.82	239.91
760.15	239.79
760.47	239.67
760.80	239.50
761.13	239.37
761.45	239.26
761.78	239.12
762.11	239.00
762.43	238.87
762.76	238.71
763.08	238.56
763.41	238.43
763.74	238.27
764.06	238.16
764.39	238.03
764.71	237.89
765.04	237.76
765.37	237.66
765.69	237.52
766.02	237.37
766.34	237.22
766.67	237.06
767.00	236.91
767.32	236.82
767.65	236.74
767.97	236.62
768.30	236.48
768.62	236.39
768.95	236.24
769.27	236.09
769.60	236.00
769.92	235.88
770.25	235.79
770.57	235.68
770.90	235.55
771.22	235.44
771.55	235.38
771.87	235.28
772.20	235.18
772.52	235.18
772.85	235.23
773.17	235.15
773.50	235.03
773.82	234.93
774.15	234.82
774.47	234.71
774.80	234.61
775.12	234.55
775.45	234.42
775.77	234.37
776.09	234.31
776.42	234.24
776.74	234.21
777.07	234.11
777.39	234.06
777.72	233.98
778.04	233.94
778.36	233.84
778.69	233.76
779.01	233.70
779.33	233.57
779.66	233.40
779.98	233.32
780.31	233.25
780.63	233.23
780.95	233.18
781.28	233.08
781.60	233.03
781.92	232.94
782.25	232.92
782.57	232.84
782.89	232.78
783.22	232.67
783.54	232.58
783.86	232.56
784.19	232.48
784.51	232.46
784.83	232.39
785.16	232.35
785.48	232.31
785.80	232.24
786.12	232.14
786.45	232.08
786.77	232.01
787.09	231.96
787.42	231.90
787.74	231.85
788.06	231.81
788.38	231.72
788.71	231.65
789.03	231.61
789.35	231.59
789.67	231.50
789.99	231.50
790.32	231.45
790.64	231.37
790.96	231.42
791.28	231.34
791.61	231.30
791.93	231.26
792.25	231.23
792.57	231.26
792.89	231.22
793.21	231.18
793.54	231.13
793.86	231.08
794.18	231.04
794.50	230.98
794.82	230.92
795.14	230.90
795.47	230.89
795.79	230.83
796.11	230.77
796.43	230.76
796.75	230.71
797.07	230.68
797.39	230.65
797.71	230.55
798.04	230.50
798.36	230.45
798.68	230.42
799.00	230.38
799.32	230.27
799.64	230.28
799.96	230.24
800.28	230.23
800.60	230.22
800.92	230.18
801.24	230.13
801.56	230.12
801.89	230.09
802.21	230.06
802.53	230.01
802.85	230.01
803.17	230.05
803.49	229.99
803.81	229.98
804.13	229.94
804.45	229.91
804.77	229.89
805.09	229.89
805.41	229.81
805.73	229.79
806.05	229.75
806.37	229.73
806.69	229.70
807.01	229.68
807.33	229.69
807.65	229.64
807.97	229.66
808.28	229.60
808.60	229.59
808.92	229.57
809.24	229.64
809.56	229.57
809.88	229.53
810.20	229.54
810.52	229.52
810.84	229.52
811.16	229.46
811.48	229.43
811.80	229.42
812.12	229.42
812.43	229.38
812.75	229.36
813.07	229.35
813.39	229.35
813.71	229.30
814.03	229.23
814.35	229.22
814.67	229.15
814.98	229.18
815.30	229.18
815.62	229.15
815.94	229.05
816.26	229.08
816.58	229.00
816.89	228.96
817.21	228.92
817.53	228.88
817.85	228.88
818.17	228.88
818.48	228.82
818.80	228.81
819.12	228.80
819.44	228.76
819.76	228.68
820.07	228.69
820.39	228.66
820.71	228.65
821.03	228.63
821.34	228.60
821.66	228.57
821.98	228.51
822.30	228.51
822.61	228.53
822.93	228.44
823.25	228.43
823.57	228.43
823.88	228.43
824.20	228.42
824.52	228.41
824.83	228.36
825.15	228.34
825.47	228.34
825.79	228.34
826.10	228.33
826.42	228.32
826.74	228.28
827.05	228.27
827.37	228.26
827.69	228.24
828.00	228.25
828.32	228.24
828.64	228.24
828.95	228.27
829.27	228.27
829.58	228.31
829.90	228.33
830.22	228.33
830.53	228.29
830.85	228.28
831.17	228.27
831.48	228.27
831.80	228.27
832.11	228.27
832.43	228.25
832.75	228.24
833.06	228.32
833.38	228.29
833.69	228.27
834.01	228.25
834.32	228.27
834.64	228.23
834.96	228.21
835.27	228.18
835.59	228.11
835.90	228.05
836.22	228.00
836.53	227.98
836.85	227.94
837.16	228.01
837.48	227.97
837.79	227.94
838.11	227.93
838.42	227.91
838.74	227.87
839.05	227.84
839.37	227.80
839.68	227.71
840.00	227.69
840.31	227.73
840.63	227.72
840.94	227.68
841.26	227.67
841.57	227.68
841.88	227.68
842.20	227.67
842.51	227.68
842.83	227.68
843.14	227.75
843.46	227.72
843.77	227.65
844.08	227.70
844.40	227.72
844.71	227.72
845.03	227.71
845.34	227.71
845.65	227.72
845.97	227.72
846.28	227.72
846.60	227.71
846.91	227.70
847.22	227.70
847.54	227.70
847.85	227.74
848.16	227.72
848.48	227.73
848.79	227.78
849.10	227.77
849.42	227.79
849.73	227.72
850.04	227.72
850.36	227.73
850.67	227.72
850.98	227.72
851.30	227.73
851.61	227.72
851.92	227.76
852.23	227.76
852.55	227.79
852.86	227.80
853.17	227.82
853.49	227.83
853.80	227.82
854.11	227.82
854.42	227.84
854.74	227.80
855.05	227.81
855.36	227.75
855.67	227.78
855.99	227.81
856.30	227.91
856.61	227.93
856.92	227.94
857.23	227.95
857.55	227.91
857.86	227.87
858.17	227.94
858.48	227.92
858.79	227.95
859.11	227.96
859.42	227.91
859.73	227.90
860.04	227.90
860.35	227.90
860.66	227.93
860.98	227.93
861.29	227.97
861.60	227.95
861.91	227.98
862.22	227.96
862.53	227.93
862.84	227.86
863.16	227.86
863.47	227.82
863.78	227.80
864.09	227.85
864.40	227.89
864.71	227.83
865.02	227.80
865.33	227.75
865.64	227.71
865.95	227.74
866.27	227.78
866.58	227.77
866.89	227.81
867.20	227.75
867.51	227.70
867.82	227.67
868.13	227.69
868.44	227.64
868.75	227.67
869.06	227.67
869.37	227.64
869.68	227.63
869.99	227.64
870.30	227.61
870.61	227.60
870.92	227.56
871.23	227.57
871.54	227.60
871.85	227.62
872.16	227.66
872.47	227.61
872.78	227.55
873.09	227.52
873.40	227.45
873.71	227.48
874.02	227.48
874.33	227.47
874.64	227.42
874.95	227.44
875.26	227.39
875.56	227.36
875.87	227.38
876.18	227.36
876.49	227.46
876.80	227.48
877.11	227.46
877.42	227.44
877.73	227.41
878.04	227.40
878.35	227.39
878.66	227.39
878.96	227.43
879.27	227.44
879.58	227.47
879.89	227.47
880.20	227.47
880.51	227.46
880.82	227.50
881.12	227.52
881.43	227.50
881.74	227.51
882.05	227.52
882.36	227.48
882.67	227.51
882.97	227.40
883.28	227.40
883.59	227.40
883.90	227.45
884.21	227.48
884.51	227.50
884.82	227.47
885.13	227.46
885.44	227.45
885.74	227.44
886.05	227.43
886.36	227.46
886.67	227.43
886.98	227.48
887.28	227.48
887.59	227.50
887.90	227.50
888.20	227.48
888.51	227.50
888.82	227.54
889.13	227.53
889.43	227.61
889.74	227.59
890.05	227.59
890.35	227.57
890.66	227.58
890.97	227.54
891.28	227.58
891.58	227.56
891.89	227.56
892.20	227.53
892.50	227.54
892.81	227.55
893.12	227.56
893.42	227.52
893.73	227.52
894.04	227.50
894.34	227.54
894.65	227.55
894.95	227.53
895.26	227.49
895.57	227.52
895.87	227.41
896.18	227.45
896.48	227.47
896.79	227.47
897.10	227.46
897.40	227.47
897.71	227.47
898.01	227.48
898.32	227.50
898.63	227.51
898.93	227.48
899.24	227.47
899.54	227.48
899.85	227.48
900.15	227.47
900.46	227.48
900.76	227.49
901.07	227.46
901.38	227.45
901.68	227.47
901.99	227.40
902.29	227.44
902.60	227.38
902.90	227.38
903.21	227.40
903.51	227.39
903.82	227.38
904.12	227.38
904.43	227.39
904.73	227.37
905.03	227.38
905.34	227.49
905.64	227.49
905.95	227.48
906.25	227.46
906.56	227.47
906.86	227.46
907.17	227.42
907.47	227.42
907.77	227.42
908.08	227.37
908.38	227.38
908.69	227.36
908.99	227.39
909.30	227.35
909.60	227.32
909.90	227.34
910.21	227.31
910.51	227.27
910.81	227.24
911.12	227.24
911.42	227.23
911.73	227.11
912.03	227.12
912.33	227.10
912.64	227.05
912.94	227.03
913.24	227.03
913.55	227.02
913.85	227.02
914.15	227.02
914.46	227.06
914.76	227.03
915.06	227.02
915.37	226.98
915.67	227.01
915.97	227.01
916.27	226.97
916.58	226.95
916.88	226.95
917.18	226.99
917.49	227.04
917.79	227.02
918.09	227.04
918.39	227.03
918.70	227.05
919.00	227.05
919.30	227.11
919.60	227.09
919.91	227.07
920.21	227.09
920.51	227.12
920.81	227.11
921.12	227.18
921.42	227.17
921.72	227.19
922.02	227.18
922.32	227.20
922.63	227.22
922.93	227.28
923.23	227.30
923.53	227.28
923.83	227.25
924.13	227.28
924.44	227.27
924.74	227.31
925.04	227.36
925.34	227.42
925.64	227.35
925.94	227.36
926.24	227.39
926.55	227.35
926.85	227.37
927.15	227.40
927.45	227.36
927.75	227.38
928.05	227.40
928.35	227.40
928.65	227.44
928.95	227.47
929.26	227.47
929.56	227.47
929.86	227.49
930.16	227.47
930.46	227.47
930.76	227.53
931.06	227.48
931.36	227.43
931.66	227.43
931.96	227.45
932.26	227.49
932.56	227.50
932.86	227.51
933.16	227.48
933.46	227.46
933.76	227.47
934.06	227.53
934.36	227.57
934.66	227.59
934.96	227.55
935.26	227.55
935.56	227.57
935.86	227.59
936.16	227.59
936.46	227.59
936.76	227.56
937.06	227.53
937.36	227.55
937.66	227.54
937.96	227.54
938.26	227.53
938.56	227.52
938.86	227.50
939.16	227.53
939.46	227.52
939.76	227.53
940.06	227.51
940.35	227.46
940.65	227.39
940.95	227.39
941.25	227.39
941.55	227.35
941.85	227.32
942.15	227.32
942.45	227.34
942.75	227.34
943.04	227.35
943.34	227.35
943.64	227.34
943.94	227.38
944.24	227.36
944.54	227.37
944.84	227.34
945.13	227.32
945.43	227.31
945.73	227.30
946.03	227.28
946.33	227.29
946.62	227.28
946.92	227.26
947.22	227.24
947.52	227.26
947.82	227.25
948.11	227.24
948.41	227.21
948.71	227.19
949.01	227.18
949.31	227.20
949.60	227.20
949.90	227.20
950.20	227.17
950.50	227.14
950.79	227.13
951.09	227.18
951.39	227.19
951.69	227.18
951.98	227.20
952.28	227.20
952.58	227.21
952.87	227.21
953.17	227.23
953.47	227.23
953.76	227.20
954.06	227.20
954.36	227.18
954.66	227.18
954.95	227.16
955.25	227.16
955.55	227.15
955.84	227.12
956.14	227.12
956.44	227.10
956.73	227.12
957.03	227.12
957.32	227.11
957.62	227.09
957.92	227.11
958.21	227.12
958.51	227.21
958.81	227.20
959.10	227.19
959.40	227.20
959.69	227.19
959.99	227.18
960.29	227.17
960.58	227.17
960.88	227.23
961.17	227.21
961.47	227.22
961.76	227.19
962.06	227.20
962.36	227.19
962.65	227.20
962.95	227.18
963.24	227.17
963.54	227.17
963.83	227.17
964.13	227.18
964.42	227.13
964.72	227.06
965.01	227.07
965.31	227.10
965.60	227.09
965.90	227.13
966.19	227.15
966.49	227.16
966.78	227.16
967.08	227.13
967.37	227.13
967.67	227.15
967.96	227.15
968.26	227.16
968.55	227.18
968.85	227.17
969.14	227.21
969.43	227.24
969.73	227.24
970.02	227.21
970.32	227.22
970.61	227.23
970.91	227.21
971.20	227.21
971.49	227.16
971.79	227.17
972.08	227.15
972.38	227.11
972.67	227.12
972.96	227.16
973.26	227.15
973.55	227.22
973.85	227.19
974.14	227.21
974.43	227.20
974.73	227.21
975.02	227.23
975.31	227.19
975.61	227.15
975.90	227.14
976.19	227.17
976.49	227.14
976.78	227.15
977.07	227.14
977.37	227.13
977.66	227.16
977.95	227.12
978.24	227.10
978.54	227.14
978.83	227.13
979.12	227.09
979.42	227.10
979.71	227.06
980.00	227.05
980.29	227.03
980.59	227.01
980.88	227.00
981.17	226.97
981.46	227.00
981.76	226.99
982.05	226.98
982.34	226.99
982.63	226.99
982.93	226.98
983.22	227.02
983.51	227.00
983.80	227.00
984.09	227.00
984.39	226.97
984.68	226.95
984.97	226.94
985.26	226.93
985.55	226.93
985.85	226.87
986.14	226.89
986.43	226.90
986.72	226.91
987.01	226.88
987.30	226.87
987.59	226.83
987.89	226.81
988.18	226.80
988.47	226.79
988.76	226.78
989.05	226.78
989.34	226.77
989.63	226.78
989.92	226.79
990.22	226.78
990.51	226.78
990.80	226.77
991.09	226.78
991.38	226.81
991.67	226.80
991.96	226.84
992.25	226.84
992.54	226.82
992.83	226.80
993.12	226.77
993.41	226.79
993.70	226.84
993.99	226.87
994.28	226.90
994.58	226.92
994.87	226.90
995.16	226.89
995.45	226.89
995.74	226.87
996.03	226.89
996.32	226.92
996.61	226.97
996.90	226.97
997.19	226.97
997.48	226.96
997.77	226.94
998.06	226.93
998.34	226.93
998.63	226.95
998.92	226.97
999.21	227.00
999.50	227.01
999.79	226.98
1000.08	226.99
1000.37	226.98
1000.66	226.97
1000.95	227.02
1001.24	227.03
1001.53	227.02
1001.82	227.03
1002.11	227.02
1002.40	227.03
1002.68	227.06
1002.97	227.15
1003.26	227.12
1003.55	227.12
1003.84	227.13
1004.13	227.16
1004.42	227.17
1004.71	227.14
1004.99	227.14
1005.28	227.18
1005.57	227.21
1005.86	227.20
1006.15	227.21
1006.44	227.18
1006.72	227.21
1007.01	227.17
1007.30	227.17
1007.59	227.18
1007.88	227.18
1008.17	227.14
1008.45	227.11
1008.74	227.06
1009.03	227.02
1009.32	227.04
1009.60	227.05
1009.89	227.04
1010.18	227.02
1010.47	227.02
1010.76	227.03
1011.04	227.03
1011.33	227.03
1011.62	227.02
1011.91	227.03
1012.19	227.02
1012.48	227.06
1012.77	227.03
1013.05	227.09
1013.34	227.09
1013.63	227.06
1013.92	227.07
1014.20	227.09
1014.49	227.11
1014.78	227.15
1015.06	227.11
1015.35	227.11
1015.64	227.11
1015.92	227.15
1016.21	227.14
1016.50	227.11
1016.78	227.15
1017.07	227.16
1017.36	227.14
1017.64	227.12
1017.93	227.12
1018.22	227.10
1018.50	227.07
1018.79	227.08
1019.08	226.99
1019.36	227.00
1019.65	227.02
1019.93	227.04
1020.22	227.06
1020.51	227.06
1020.79	227.00
1021.08	226.62
1021.36	226.75
1021.65	227.17
1021.94	226.18
1022.22	227.06
1022.51	227.08
1022.79	227.39
1023.08	227.34
1023.36	227.39
1023.65	226.48
>>>>>End Processed Spectral Data<<<<<
