SpectraSuite Data File
++++++++++++++++++++++++++++++++++++
Date: Fri Feb 01 16:03:06 EST 2013
User: group
Dark Spectrum Present: No
Reference Spectrum Present: No
Number of Sampled Component Spectra: 1
Spectrometers: USB2E7196
Integration Time (usec): 35000 (USB2E7196)
Spectra Averaged: 100 (USB2E7196)
Boxcar Smoothing: 10 (USB2E7196)
Correct for Electrical Dark: No (USB2E7196)
Strobe/Lamp Enabled: No (USB2E7196)
Correct for Detector Non-linearity: No (USB2E7196)
Correct for Stray Light: No (USB2E7196)
Number of Pixels in Processed Spectrum: 2048
>>>>>Begin Processed Spectral Data<<<<<
339.09	0.00
339.48	214.94
339.86	216.62
340.24	217.29
340.63	219.21
341.01	221.33
341.39	221.76
341.78	223.22
342.16	223.78
342.54	224.68
342.93	213.01
343.31	223.79
343.69	224.32
344.07	224.77
344.46	225.22
344.84	225.60
345.22	225.86
345.60	226.09
345.99	226.26
346.37	226.40
346.75	226.49
347.13	226.54
347.52	226.61
347.90	226.68
348.28	226.71
348.66	226.76
349.05	226.78
349.43	226.86
349.81	226.88
350.19	226.90
350.57	226.98
350.96	227.05
351.34	227.12
351.72	227.20
352.10	227.30
352.48	227.37
352.87	227.45
353.25	227.49
353.63	227.59
354.01	227.68
354.39	227.77
354.77	227.86
355.15	228.00
355.54	228.07
355.92	228.11
356.30	228.20
356.68	228.34
357.06	228.38
357.44	228.40
357.82	228.46
358.20	228.55
358.58	228.60
358.97	228.66
359.35	228.74
359.73	228.82
360.11	228.86
360.49	228.93
360.87	228.94
361.25	229.03
361.63	229.06
362.01	229.13
362.39	229.17
362.77	229.20
363.15	229.18
363.53	229.21
363.91	229.26
364.29	229.25
364.67	229.16
365.05	229.19
365.43	229.23
365.81	229.27
366.19	229.31
366.57	229.35
366.95	229.34
367.33	229.30
367.71	229.27
368.09	229.24
368.47	229.22
368.85	229.17
369.23	229.14
369.61	229.12
369.99	229.09
370.37	229.05
370.75	229.07
371.13	229.02
371.51	228.96
371.89	228.94
372.27	228.88
372.65	228.83
373.03	228.77
373.41	228.71
373.78	228.61
374.16	228.49
374.54	228.38
374.92	228.34
375.30	228.28
375.68	228.21
376.06	228.12
376.44	228.05
376.82	227.99
377.19	227.91
377.57	227.83
377.95	227.71
378.33	227.60
378.71	227.46
379.09	227.42
379.47	227.34
379.84	227.23
380.22	227.15
380.60	227.09
380.98	226.99
381.36	226.90
381.73	226.83
382.11	226.75
382.49	226.71
382.87	226.60
383.25	226.51
383.62	226.57
384.00	226.53
384.38	226.43
384.76	226.40
385.13	226.38
385.51	226.33
385.89	226.25
386.27	226.24
386.64	226.21
387.02	226.14
387.40	226.09
387.78	226.08
388.15	226.05
388.53	225.99
388.91	225.98
389.29	225.97
389.66	225.98
390.04	225.99
390.42	225.99
390.79	225.97
391.17	226.00
391.55	225.88
391.92	225.90
392.30	225.93
392.68	225.94
393.05	225.96
393.43	225.96
393.81	226.01
394.18	226.00
394.56	226.02
394.94	226.07
395.31	226.12
395.69	226.17
396.06	226.22
396.44	226.26
396.82	226.31
397.19	226.38
397.57	226.40
397.95	226.46
398.32	226.49
398.70	226.57
399.07	226.66
399.45	226.72
399.82	226.78
400.20	226.84
400.58	226.92
400.95	226.93
401.33	227.03
401.70	227.15
402.08	227.26
402.45	227.38
402.83	227.50
403.20	227.61
403.58	227.70
403.95	227.84
404.33	228.00
404.71	228.13
405.08	228.32
405.46	228.45
405.83	228.62
406.21	228.74
406.58	228.90
406.96	229.05
407.33	229.24
407.70	229.41
408.08	229.69
408.45	229.90
408.83	230.13
409.20	230.33
409.58	230.54
409.95	230.77
410.33	231.04
410.70	231.26
411.08	231.53
411.45	231.84
411.82	232.17
412.20	232.51
412.57	232.92
412.95	233.19
413.32	233.65
413.69	234.04
414.07	234.51
414.44	235.00
414.82	235.43
415.19	235.99
415.56	236.53
415.94	237.07
416.31	237.70
416.68	238.36
417.06	239.10
417.43	239.79
417.81	240.57
418.18	241.36
418.55	242.20
418.93	243.05
419.30	243.93
419.67	244.84
420.04	245.81
420.42	246.77
420.79	247.95
421.16	249.05
421.54	250.21
421.91	251.41
422.28	252.66
422.66	254.01
423.03	255.29
423.40	256.63
423.77	258.02
424.15	259.46
424.52	260.93
424.89	262.49
425.26	263.99
425.64	265.44
426.01	267.02
426.38	268.68
426.75	270.36
427.13	272.07
427.50	273.87
427.87	275.73
428.24	277.59
428.61	279.38
428.99	281.33
429.36	283.44
429.73	285.46
430.10	287.49
430.47	289.55
430.85	291.69
431.22	293.94
431.59	296.32
431.96	298.52
432.33	301.00
432.70	303.39
433.08	306.24
433.45	308.88
433.82	311.48
434.19	314.35
434.56	317.13
434.93	319.82
435.30	322.46
435.68	325.32
436.05	328.13
436.42	330.85
436.79	333.41
437.16	336.11
437.53	339.02
437.90	341.81
438.27	344.56
438.64	347.36
439.01	349.93
439.38	352.10
439.75	354.29
440.13	356.83
440.50	359.17
440.87	361.00
441.24	362.90
441.61	365.13
441.98	366.63
442.35	368.45
442.72	370.30
443.09	372.09
443.46	373.14
443.83	373.80
444.20	374.33
444.57	375.14
444.94	375.45
445.31	375.74
445.68	376.08
446.05	376.14
446.42	375.76
446.79	375.36
447.16	375.00
447.53	374.68
447.90	373.46
448.27	372.28
448.64	370.71
449.01	369.61
449.37	367.56
449.74	365.67
450.11	363.44
450.48	360.99
450.85	358.45
451.22	356.30
451.59	354.27
451.96	352.38
452.33	349.77
452.70	347.41
453.07	344.57
453.43	341.70
453.80	338.96
454.17	336.28
454.54	333.72
454.91	330.98
455.28	328.33
455.65	325.87
456.02	323.44
456.38	321.30
456.75	318.67
457.12	316.47
457.49	314.25
457.86	312.06
458.23	310.21
458.59	308.16
458.96	306.05
459.33	304.17
459.70	302.27
460.07	300.76
460.43	299.06
460.80	297.45
461.17	295.99
461.54	294.52
461.91	293.12
462.27	291.72
462.64	290.47
463.01	289.13
463.38	287.83
463.74	286.47
464.11	285.31
464.48	284.25
464.85	283.14
465.21	282.29
465.58	281.35
465.95	280.25
466.32	279.37
466.68	278.45
467.05	277.57
467.42	276.67
467.78	275.75
468.15	274.85
468.52	274.20
468.88	273.33
469.25	272.53
469.62	271.91
469.98	271.16
470.35	270.51
470.72	269.91
471.08	269.24
471.45	268.70
471.82	268.13
472.18	267.53
472.55	267.08
472.92	266.57
473.28	266.15
473.65	265.70
474.02	265.24
474.38	264.90
474.75	264.55
475.11	264.22
475.48	263.98
475.85	263.75
476.21	263.53
476.58	263.35
476.94	263.23
477.31	263.06
477.67	262.92
478.04	262.85
478.41	262.76
478.77	262.79
479.14	262.73
479.50	262.76
479.87	262.82
480.23	262.91
480.60	262.93
480.96	263.01
481.33	263.23
481.69	263.45
482.06	263.66
482.42	263.88
482.79	264.15
483.15	264.44
483.52	264.84
483.88	265.16
484.25	265.55
484.61	266.00
484.98	266.43
485.34	267.06
485.71	267.63
486.07	268.22
486.44	268.78
486.80	269.49
487.17	270.23
487.53	271.03
487.90	271.87
488.26	272.84
488.62	273.82
488.99	274.78
489.35	275.82
489.72	276.94
490.08	278.13
490.44	279.40
490.81	280.75
491.17	282.09
491.54	283.62
491.90	285.20
492.26	286.83
492.63	288.59
492.99	290.31
493.36	292.22
493.72	294.28
494.08	296.39
494.45	298.67
494.81	301.02
495.17	303.52
495.54	306.13
495.90	308.80
496.26	311.65
496.63	314.58
496.99	317.70
497.35	320.99
497.72	324.42
498.08	327.96
498.44	331.61
498.80	335.58
499.17	339.59
499.53	343.77
499.89	348.17
500.26	352.70
500.62	357.40
500.98	362.38
501.34	367.52
501.71	372.85
502.07	378.30
502.43	383.88
502.79	389.67
503.16	395.74
503.52	402.04
503.88	408.50
504.24	415.20
504.60	422.08
504.97	429.20
505.33	436.56
505.69	444.26
506.05	452.05
506.41	459.92
506.78	468.11
507.14	476.52
507.50	485.21
507.86	494.22
508.22	503.44
508.59	512.68
508.95	522.27
509.31	532.14
509.67	542.24
510.03	552.65
510.39	563.22
510.75	574.00
511.12	584.97
511.48	596.22
511.84	607.63
512.20	619.15
512.56	631.11
512.92	643.28
513.28	655.57
513.64	668.03
514.00	680.79
514.37	693.69
514.73	706.81
515.09	719.88
515.45	733.18
515.81	746.79
516.17	760.74
516.53	774.76
516.89	788.90
517.25	803.03
517.61	817.42
517.97	831.88
518.33	846.37
518.69	861.21
519.05	876.18
519.41	891.37
519.77	906.84
520.13	922.33
520.49	937.62
520.85	953.02
521.21	968.76
521.57	984.99
521.93	1000.82
522.29	1017.12
522.65	1033.27
523.01	1049.44
523.37	1065.37
523.73	1081.53
524.09	1097.66
524.45	1113.93
524.81	1130.56
525.17	1147.32
525.53	1164.16
525.89	1180.91
526.25	1197.66
526.61	1214.00
526.97	1230.68
527.33	1247.19
527.68	1263.68
528.04	1280.16
528.40	1296.76
528.76	1313.73
529.12	1330.24
529.48	1347.04
529.84	1363.10
530.20	1379.74
530.56	1396.83
530.91	1414.18
531.27	1430.98
531.63	1447.48
531.99	1464.12
532.35	1479.95
532.71	1495.77
533.07	1512.06
533.42	1527.93
533.78	1543.84
534.14	1560.09
534.50	1575.50
534.86	1591.41
535.21	1606.55
535.57	1622.48
535.93	1638.06
536.29	1652.89
536.65	1667.81
537.00	1682.69
537.36	1697.84
537.72	1712.37
538.08	1726.69
538.44	1740.40
538.79	1754.16
539.15	1767.72
539.51	1781.32
539.87	1795.71
540.22	1809.52
540.58	1823.24
540.94	1836.65
541.29	1849.60
541.65	1862.23
542.01	1875.40
542.37	1887.64
542.72	1900.14
543.08	1911.85
543.44	1924.18
543.79	1935.38
544.15	1946.42
544.51	1957.86
544.87	1968.98
545.22	1979.76
545.58	1989.84
545.94	1999.72
546.29	2009.69
546.65	2019.47
547.01	2028.72
547.36	2037.46
547.72	2045.84
548.07	2053.55
548.43	2061.59
548.79	2069.55
549.14	2077.00
549.50	2084.25
549.86	2091.97
550.21	2099.26
550.57	2106.42
550.92	2112.89
551.28	2119.84
551.64	2126.92
551.99	2133.32
552.35	2139.39
552.70	2145.49
553.06	2151.54
553.41	2157.94
553.77	2163.82
554.13	2170.04
554.48	2176.25
554.84	2181.65
555.19	2187.03
555.55	2192.21
555.90	2196.71
556.26	2201.53
556.61	2206.37
556.97	2210.57
557.32	2214.63
557.68	2218.67
558.03	2222.90
558.39	2226.67
558.74	2231.31
559.10	2235.19
559.45	2238.90
559.81	2243.26
560.16	2247.24
560.52	2250.48
560.87	2253.78
561.23	2256.59
561.58	2259.72
561.94	2262.30
562.29	2264.63
562.64	2267.19
563.00	2269.84
563.35	2273.30
563.71	2276.52
564.06	2279.66
564.42	2282.63
564.77	2285.12
565.12	2287.50
565.48	2289.49
565.83	2291.26
566.19	2292.62
566.54	2293.61
566.89	2294.74
567.25	2295.20
567.60	2296.44
567.96	2298.11
568.31	2299.15
568.66	2300.10
569.02	2300.38
569.37	2300.61
569.72	2301.57
570.08	2301.82
570.43	2301.93
570.78	2301.36
571.14	2299.85
571.49	2298.62
571.84	2298.33
572.20	2297.18
572.55	2296.15
572.90	2294.65
573.26	2293.33
573.61	2291.71
573.96	2289.83
574.31	2286.91
574.67	2284.09
575.02	2280.52
575.37	2277.12
575.72	2273.15
576.08	2269.91
576.43	2266.69
576.78	2262.99
577.13	2259.88
577.49	2256.76
577.84	2253.21
578.19	2249.58
578.54	2245.97
578.90	2241.75
579.25	2236.13
579.60	2231.23
579.95	2226.22
580.30	2221.18
580.66	2215.95
581.01	2211.04
581.36	2206.17
581.71	2201.95
582.06	2197.35
582.42	2192.81
582.77	2187.68
583.12	2183.12
583.47	2178.42
583.82	2173.47
584.17	2168.21
584.53	2162.50
584.88	2156.92
585.23	2151.18
585.58	2145.68
585.93	2140.20
586.28	2135.32
586.63	2130.32
586.98	2125.28
587.34	2120.57
587.69	2115.67
588.04	2110.49
588.39	2104.71
588.74	2098.34
589.09	2092.22
589.44	2085.52
589.79	2079.62
590.14	2074.06
590.49	2067.54
590.84	2061.22
591.19	2055.09
591.54	2048.77
591.89	2041.44
592.25	2034.62
592.60	2027.49
592.95	2019.84
593.30	2012.51
593.65	2005.05
594.00	1998.16
594.35	1990.89
594.70	1982.89
595.05	1975.78
595.40	1968.55
595.75	1961.10
596.10	1954.81
596.45	1948.09
596.80	1941.93
597.15	1935.21
597.50	1928.03
597.85	1921.63
598.19	1914.81
598.54	1907.66
598.89	1900.99
599.24	1895.32
599.59	1888.54
599.94	1882.25
600.29	1876.08
600.64	1869.51
600.99	1862.07
601.34	1855.20
601.69	1848.32
602.04	1841.43
602.39	1834.07
602.74	1827.11
603.08	1820.40
603.43	1813.74
603.78	1806.36
604.13	1799.19
604.48	1791.80
604.83	1784.87
605.18	1777.79
605.53	1769.83
605.87	1761.97
606.22	1754.72
606.57	1746.74
606.92	1739.45
607.27	1732.23
607.62	1725.32
607.96	1717.99
608.31	1711.33
608.66	1703.68
609.01	1696.00
609.36	1688.38
609.70	1680.36
610.05	1672.41
610.40	1664.61
610.75	1656.28
611.10	1648.52
611.44	1640.13
611.79	1632.26
612.14	1623.64
612.49	1614.65
612.83	1606.40
613.18	1598.23
613.53	1590.11
613.88	1581.46
614.22	1573.07
614.57	1564.59
614.92	1556.39
615.27	1548.79
615.61	1540.44
615.96	1532.33
616.31	1524.77
616.65	1517.39
617.00	1509.73
617.35	1502.05
617.70	1493.77
618.04	1485.25
618.39	1477.22
618.74	1469.49
619.08	1461.13
619.43	1453.63
619.78	1446.64
620.12	1439.34
620.47	1431.86
620.82	1423.76
621.16	1416.40
621.51	1408.96
621.85	1401.27
622.20	1392.79
622.55	1384.57
622.89	1376.76
623.24	1369.23
623.59	1361.93
623.93	1354.44
624.28	1347.24
624.62	1339.63
624.97	1332.45
625.32	1325.64
625.66	1318.63
626.01	1311.52
626.35	1304.06
626.70	1296.27
627.04	1288.49
627.39	1280.72
627.73	1273.23
628.08	1266.21
628.43	1258.90
628.77	1251.52
629.12	1244.02
629.46	1236.92
629.81	1229.44
630.15	1222.21
630.50	1214.77
630.84	1206.41
631.19	1198.46
631.53	1190.91
631.88	1183.49
632.22	1175.89
632.57	1168.68
632.91	1161.17
633.26	1153.64
633.60	1146.40
633.95	1139.35
634.29	1132.33
634.64	1125.71
634.98	1118.39
635.32	1111.22
635.67	1104.66
636.01	1098.04
636.36	1091.16
636.70	1084.63
637.05	1078.10
637.39	1071.66
637.73	1065.06
638.08	1059.26
638.42	1053.27
638.77	1046.94
639.11	1040.24
639.45	1033.86
639.80	1027.16
640.14	1020.73
640.49	1014.28
640.83	1007.86
641.17	1001.46
641.52	995.12
641.86	988.65
642.20	982.80
642.55	976.54
642.89	969.99
643.23	963.50
643.58	957.81
643.92	951.60
644.26	945.41
644.61	939.28
644.95	933.29
645.29	926.66
645.64	919.91
645.98	913.60
646.32	907.79
646.66	901.71
647.01	895.90
647.35	890.13
647.69	884.19
648.04	878.65
648.38	872.88
648.72	866.80
649.06	860.72
649.41	854.81
649.75	848.82
650.09	842.85
650.43	837.02
650.78	830.85
651.12	824.88
651.46	819.17
651.80	813.41
652.14	808.00
652.49	802.61
652.83	797.56
653.17	791.70
653.51	786.00
653.85	780.61
654.20	774.89
654.54	768.81
654.88	763.20
655.22	757.37
655.56	751.70
655.90	746.39
656.25	741.10
656.59	735.67
656.93	730.63
657.27	725.50
657.61	719.98
657.95	714.84
658.29	709.73
658.64	704.49
658.98	699.20
659.32	693.75
659.66	688.58
660.00	683.12
660.34	678.26
660.68	673.31
661.02	668.30
661.36	663.62
661.70	659.15
662.05	654.76
662.39	650.37
662.73	645.90
663.07	641.51
663.41	637.09
663.75	632.66
664.09	628.05
664.43	623.62
664.77	619.53
665.11	615.22
665.45	611.12
665.79	607.06
666.13	602.95
666.47	598.86
666.81	594.71
667.15	590.55
667.49	586.65
667.83	582.84
668.17	578.91
668.51	574.80
668.85	570.78
669.19	566.90
669.53	563.05
669.87	559.22
670.21	555.46
670.55	551.85
670.89	548.43
671.23	545.03
671.57	541.51
671.91	537.95
672.25	534.44
672.58	530.85
672.92	527.42
673.26	524.23
673.60	521.05
673.94	517.93
674.28	515.03
674.62	512.10
674.96	509.01
675.30	506.08
675.64	503.17
675.97	500.40
676.31	497.54
676.65	494.61
676.99	491.88
677.33	488.96
677.67	486.16
678.01	483.13
678.34	480.12
678.68	477.28
679.02	474.47
679.36	471.74
679.70	469.10
680.04	466.36
680.37	463.53
680.71	460.76
681.05	458.13
681.39	455.43
681.73	452.73
682.06	450.16
682.40	447.56
682.74	445.04
683.08	442.49
683.42	439.88
683.75	437.38
684.09	434.85
684.43	432.45
684.77	429.97
685.10	427.62
685.44	425.33
685.78	423.01
686.12	420.72
686.45	418.46
686.79	416.14
687.13	413.98
687.46	411.80
687.80	409.66
688.14	407.43
688.48	405.37
688.81	403.13
689.15	401.02
689.49	398.89
689.82	396.77
690.16	394.73
690.50	392.77
690.83	390.80
691.17	388.79
691.51	386.85
691.84	384.97
692.18	383.02
692.52	381.03
692.85	379.12
693.19	377.29
693.52	375.47
693.86	373.66
694.20	371.82
694.53	370.03
694.87	368.22
695.21	366.41
695.54	364.58
695.88	362.82
696.21	361.05
696.55	359.37
696.88	357.76
697.22	356.07
697.56	354.43
697.89	352.78
698.23	351.17
698.56	349.58
698.90	347.98
699.23	346.30
699.57	344.79
699.90	343.22
700.24	341.65
700.58	340.14
700.91	338.58
701.25	337.12
701.58	335.72
701.92	334.31
702.25	332.95
702.59	331.60
702.92	330.27
703.26	329.00
703.59	327.78
703.93	326.55
704.26	325.32
704.60	324.03
704.93	322.78
705.26	321.53
705.60	320.35
705.93	319.19
706.27	318.18
706.60	317.10
706.94	316.06
707.27	314.91
707.61	313.83
707.94	312.87
708.27	311.77
708.61	310.70
708.94	309.71
709.28	308.70
709.61	307.74
709.94	306.81
710.28	305.77
710.61	304.74
710.95	303.68
711.28	302.78
711.61	301.83
711.95	300.91
712.28	299.97
712.61	299.00
712.95	298.06
713.28	297.18
713.61	296.29
713.95	295.40
714.28	294.58
714.61	293.72
714.95	292.86
715.28	292.05
715.61	291.15
715.95	290.26
716.28	289.42
716.61	288.56
716.95	287.76
717.28	287.01
717.61	286.21
717.94	285.49
718.28	284.66
718.61	283.93
718.94	283.25
719.27	282.59
719.61	281.94
719.94	281.27
720.27	280.53
720.60	279.82
720.94	279.18
721.27	278.57
721.60	277.98
721.93	277.37
722.27	276.78
722.60	276.26
722.93	275.68
723.26	275.11
723.59	274.55
723.93	273.96
724.26	273.40
724.59	272.87
724.92	272.31
725.25	271.79
725.59	271.25
725.92	270.67
726.25	270.15
726.58	269.63
726.91	269.11
727.24	268.68
727.57	268.24
727.91	267.73
728.24	267.26
728.57	266.79
728.90	266.32
729.23	265.81
729.56	265.38
729.89	264.94
730.22	264.47
730.55	263.99
730.89	263.57
731.22	263.15
731.55	262.73
731.88	262.30
732.21	261.91
732.54	261.46
732.87	261.05
733.20	260.68
733.53	260.27
733.86	259.92
734.19	259.47
734.52	259.07
734.85	258.76
735.18	258.36
735.51	257.99
735.84	257.62
736.17	257.28
736.50	256.90
736.83	256.64
737.16	256.33
737.49	255.99
737.82	255.67
738.15	255.34
738.48	255.00
738.81	254.67
739.14	254.33
739.47	254.03
739.80	253.74
740.13	253.43
740.46	253.07
740.79	252.73
741.12	252.44
741.45	252.12
741.78	251.78
742.11	251.46
742.44	251.15
742.77	250.86
743.10	250.57
743.43	250.23
743.75	249.86
744.08	249.73
744.41	249.48
744.74	249.21
745.07	248.92
745.40	248.64
745.73	248.42
746.06	248.20
746.39	247.99
746.71	247.73
747.04	247.44
747.37	247.21
747.70	247.01
748.03	246.78
748.36	246.58
748.68	246.35
749.01	246.15
749.34	245.91
749.67	245.67
750.00	245.47
750.33	245.33
750.65	245.17
750.98	244.81
751.31	244.61
751.64	244.41
751.97	244.24
752.29	244.06
752.62	243.82
752.95	243.59
753.28	243.37
753.60	243.15
753.93	243.03
754.26	242.88
754.59	242.65
754.91	242.45
755.24	242.23
755.57	242.06
755.90	241.87
756.22	241.72
756.55	241.55
756.88	241.33
757.20	241.12
757.53	240.90
757.86	240.72
758.19	240.57
758.51	240.38
758.84	240.17
759.17	240.02
759.49	239.84
759.82	239.73
760.15	239.56
760.47	239.45
760.80	239.25
761.13	239.12
761.45	238.98
761.78	238.85
762.11	238.71
762.43	238.53
762.76	238.38
763.08	238.23
763.41	238.10
763.74	237.97
764.06	237.82
764.39	237.66
764.71	237.53
765.04	237.37
765.37	237.24
765.69	237.10
766.02	236.94
766.34	236.80
766.67	236.62
767.00	236.50
767.32	236.40
767.65	236.36
767.97	236.24
768.30	236.13
768.62	236.00
768.95	235.88
769.27	235.76
769.60	235.70
769.92	235.59
770.25	235.45
770.57	235.33
770.90	235.22
771.22	235.12
771.55	235.03
771.87	234.94
772.20	234.83
772.52	234.82
772.85	234.84
773.17	234.77
773.50	234.68
773.82	234.58
774.15	234.46
774.47	234.28
774.80	234.14
775.12	233.99
775.45	233.91
775.77	233.83
776.09	233.79
776.42	233.67
776.74	233.61
777.07	233.54
777.39	233.47
777.72	233.36
778.04	233.29
778.36	233.21
778.69	233.12
779.01	233.06
779.33	232.88
779.66	232.69
779.98	232.62
780.31	232.53
780.63	232.49
780.95	232.42
781.28	232.36
781.60	232.30
781.92	232.27
782.25	232.19
782.57	232.12
782.89	232.01
783.22	231.96
783.54	231.86
783.86	231.83
784.19	231.79
784.51	231.79
784.83	231.72
785.16	231.68
785.48	231.63
785.80	231.59
786.12	231.54
786.45	231.50
786.77	231.45
787.09	231.41
787.42	231.32
787.74	231.28
788.06	231.20
788.38	231.16
788.71	231.08
789.03	231.08
789.35	231.05
789.67	231.01
789.99	230.96
790.32	230.95
790.64	230.91
790.96	230.93
791.28	230.83
791.61	230.80
791.93	230.76
792.25	230.71
792.57	230.73
792.89	230.72
793.21	230.70
793.54	230.64
793.86	230.63
794.18	230.63
794.50	230.56
794.82	230.55
795.14	230.52
795.47	230.56
795.79	230.52
796.11	230.47
796.43	230.44
796.75	230.39
797.07	230.34
797.39	230.31
797.71	230.19
798.04	230.17
798.36	230.11
798.68	230.09
799.00	230.08
799.32	230.00
799.64	229.99
799.96	229.95
800.28	229.95
800.60	229.89
800.92	229.84
801.24	229.82
801.56	229.80
801.89	229.78
802.21	229.71
802.53	229.62
802.85	229.61
803.17	229.60
803.49	229.55
803.81	229.50
804.13	229.46
804.45	229.43
804.77	229.43
805.09	229.41
805.41	229.34
805.73	229.28
806.05	229.20
806.37	229.15
806.69	229.13
807.01	229.09
807.33	229.11
807.65	229.06
807.97	229.08
808.28	229.06
808.60	229.03
808.92	229.03
809.24	229.08
809.56	229.05
809.88	229.05
810.20	229.04
810.52	229.04
810.84	229.00
811.16	228.98
811.48	228.93
811.80	228.96
812.12	228.95
812.43	228.96
812.75	228.97
813.07	228.94
813.39	228.93
813.71	228.88
814.03	228.81
814.35	228.79
814.67	228.76
814.98	228.73
815.30	228.71
815.62	228.66
815.94	228.58
816.26	228.62
816.58	228.54
816.89	228.56
817.21	228.52
817.53	228.52
817.85	228.50
818.17	228.49
818.48	228.44
818.80	228.48
819.12	228.44
819.44	228.42
819.76	228.41
820.07	228.40
820.39	228.38
820.71	228.40
821.03	228.40
821.34	228.38
821.66	228.40
821.98	228.38
822.30	228.37
822.61	228.40
822.93	228.34
823.25	228.36
823.57	228.34
823.88	228.32
824.20	228.30
824.52	228.31
824.83	228.30
825.15	228.31
825.47	228.27
825.79	228.28
826.10	228.25
826.42	228.23
826.74	228.25
827.05	228.27
827.37	228.24
827.69	228.26
828.00	228.27
828.32	228.24
828.64	228.23
828.95	228.26
829.27	228.24
829.58	228.24
829.90	228.24
830.22	228.23
830.53	228.24
830.85	228.27
831.17	228.23
831.48	228.22
831.80	228.22
832.11	228.23
832.43	228.21
832.75	228.21
833.06	228.27
833.38	228.21
833.69	228.20
834.01	228.20
834.32	228.13
834.64	228.09
834.96	228.10
835.27	228.09
835.59	228.05
835.90	228.02
836.22	227.98
836.53	227.95
836.85	227.94
837.16	228.01
837.48	227.99
837.79	228.01
838.11	228.01
838.42	227.98
838.74	227.92
839.05	227.90
839.37	227.91
839.68	227.81
840.00	227.83
840.31	227.84
840.63	227.83
840.94	227.83
841.26	227.80
841.57	227.74
841.88	227.74
842.20	227.72
842.51	227.68
842.83	227.68
843.14	227.77
843.46	227.75
843.77	227.66
844.08	227.66
844.40	227.63
844.71	227.59
845.03	227.53
845.34	227.54
845.65	227.55
845.97	227.54
846.28	227.53
846.60	227.52
846.91	227.47
847.22	227.48
847.54	227.50
847.85	227.49
848.16	227.47
848.48	227.44
848.79	227.45
849.10	227.46
849.42	227.46
849.73	227.35
850.04	227.35
850.36	227.33
850.67	227.32
850.98	227.28
851.30	227.29
851.61	227.29
851.92	227.25
852.23	227.26
852.55	227.27
852.86	227.31
853.17	227.26
853.49	227.29
853.80	227.27
854.11	227.25
854.42	227.25
854.74	227.25
855.05	227.27
855.36	227.23
855.67	227.25
855.99	227.20
856.30	227.30
856.61	227.27
856.92	227.26
857.23	227.24
857.55	227.23
857.86	227.24
858.17	227.26
858.48	227.29
858.79	227.27
859.11	227.28
859.42	227.27
859.73	227.28
860.04	227.27
860.35	227.24
860.66	227.24
860.98	227.24
861.29	227.29
861.60	227.27
861.91	227.29
862.22	227.26
862.53	227.29
862.84	227.19
863.16	227.21
863.47	227.23
863.78	227.24
864.09	227.27
864.40	227.29
864.71	227.29
865.02	227.29
865.33	227.30
865.64	227.25
865.95	227.24
866.27	227.31
866.58	227.32
866.89	227.34
867.20	227.35
867.51	227.32
867.82	227.28
868.13	227.31
868.44	227.30
868.75	227.34
869.06	227.33
869.37	227.35
869.68	227.31
869.99	227.29
870.30	227.29
870.61	227.31
870.92	227.28
871.23	227.23
871.54	227.24
871.85	227.23
872.16	227.25
872.47	227.22
872.78	227.16
873.09	227.17
873.40	227.15
873.71	227.15
874.02	227.18
874.33	227.17
874.64	227.15
874.95	227.14
875.26	227.10
875.56	227.10
875.87	227.06
876.18	227.07
876.49	227.15
876.80	227.13
877.11	227.10
877.42	227.08
877.73	227.09
878.04	227.07
878.35	227.08
878.66	227.05
878.96	227.05
879.27	227.01
879.58	226.97
879.89	226.98
880.20	226.96
880.51	226.92
880.82	226.91
881.12	226.89
881.43	226.92
881.74	226.92
882.05	226.91
882.36	226.91
882.67	226.94
882.97	226.87
883.28	226.82
883.59	226.80
883.90	226.83
884.21	226.86
884.51	226.83
884.82	226.79
885.13	226.81
885.44	226.81
885.74	226.83
886.05	226.81
886.36	226.75
886.67	226.73
886.98	226.77
887.28	226.76
887.59	226.75
887.90	226.70
888.20	226.67
888.51	226.66
888.82	226.65
889.13	226.63
889.43	226.67
889.74	226.69
890.05	226.70
890.35	226.69
890.66	226.69
890.97	226.66
891.28	226.64
891.58	226.65
891.89	226.65
892.20	226.62
892.50	226.62
892.81	226.65
893.12	226.67
893.42	226.64
893.73	226.65
894.04	226.64
894.34	226.66
894.65	226.67
894.95	226.69
895.26	226.71
895.57	226.76
895.87	226.68
896.18	226.69
896.48	226.66
896.79	226.68
897.10	226.66
897.40	226.72
897.71	226.77
898.01	226.73
898.32	226.73
898.63	226.74
898.93	226.76
899.24	226.76
899.54	226.76
899.85	226.77
900.15	226.77
900.46	226.79
900.76	226.79
901.07	226.77
901.38	226.76
901.68	226.74
901.99	226.69
902.29	226.70
902.60	226.67
902.90	226.67
903.21	226.67
903.51	226.66
903.82	226.65
904.12	226.65
904.43	226.69
904.73	226.66
905.03	226.64
905.34	226.73
905.64	226.73
905.95	226.73
906.25	226.74
906.56	226.76
906.86	226.74
907.17	226.71
907.47	226.72
907.77	226.71
908.08	226.73
908.38	226.72
908.69	226.78
908.99	226.83
909.30	226.84
909.60	226.83
909.90	226.85
910.21	226.85
910.51	226.81
910.81	226.82
911.12	226.85
911.42	226.88
911.73	226.78
912.03	226.79
912.33	226.81
912.64	226.81
912.94	226.76
913.24	226.76
913.55	226.83
913.85	226.83
914.15	226.86
914.46	226.87
914.76	226.87
915.06	226.83
915.37	226.81
915.67	226.80
915.97	226.82
916.27	226.80
916.58	226.79
916.88	226.79
917.18	226.78
917.49	226.85
917.79	226.84
918.09	226.85
918.39	226.90
918.70	226.90
919.00	226.91
919.30	227.00
919.60	227.00
919.91	226.93
920.21	226.94
920.51	226.90
920.81	226.87
921.12	226.89
921.42	226.89
921.72	226.89
922.02	226.95
922.32	226.92
922.63	226.91
922.93	226.98
923.23	226.99
923.53	226.98
923.83	226.92
924.13	226.90
924.44	226.91
924.74	226.88
925.04	226.89
925.34	226.85
925.64	226.81
925.94	226.80
926.24	226.87
926.55	226.85
926.85	226.89
927.15	226.92
927.45	226.93
927.75	226.92
928.05	226.91
928.35	226.84
928.65	226.86
928.95	226.88
929.26	226.85
929.56	226.86
929.86	226.85
930.16	226.84
930.46	226.87
930.76	226.86
931.06	226.82
931.36	226.80
931.66	226.86
931.96	226.84
932.26	226.85
932.56	226.82
932.86	226.83
933.16	226.83
933.46	226.77
933.76	226.72
934.06	226.72
934.36	226.76
934.66	226.80
934.96	226.78
935.26	226.74
935.56	226.76
935.86	226.77
936.16	226.79
936.46	226.76
936.76	226.75
937.06	226.72
937.36	226.73
937.66	226.74
937.96	226.67
938.26	226.66
938.56	226.64
938.86	226.62
939.16	226.60
939.46	226.57
939.76	226.59
940.06	226.62
940.35	226.60
940.65	226.54
940.95	226.49
941.25	226.43
941.55	226.45
941.85	226.42
942.15	226.42
942.45	226.39
942.75	226.42
943.04	226.41
943.34	226.46
943.64	226.49
943.94	226.46
944.24	226.50
944.54	226.46
944.84	226.47
945.13	226.51
945.43	226.49
945.73	226.53
946.03	226.54
946.33	226.52
946.62	226.55
946.92	226.58
947.22	226.62
947.52	226.64
947.82	226.65
948.11	226.66
948.41	226.64
948.71	226.65
949.01	226.66
949.31	226.66
949.60	226.65
949.90	226.64
950.20	226.63
950.50	226.61
950.79	226.65
951.09	226.66
951.39	226.66
951.69	226.68
951.98	226.70
952.28	226.70
952.58	226.69
952.87	226.70
953.17	226.69
953.47	226.65
953.76	226.67
954.06	226.67
954.36	226.66
954.66	226.68
954.95	226.68
955.25	226.68
955.55	226.69
955.84	226.68
956.14	226.67
956.44	226.69
956.73	226.69
957.03	226.69
957.32	226.67
957.62	226.65
957.92	226.66
958.21	226.67
958.51	226.78
958.81	226.79
959.10	226.80
959.40	226.83
959.69	226.91
959.99	226.91
960.29	226.91
960.58	226.92
960.88	226.95
961.17	226.95
961.47	226.95
961.76	226.93
962.06	226.94
962.36	226.96
962.65	226.96
962.95	226.98
963.24	226.97
963.54	227.00
963.83	227.01
964.13	227.04
964.42	227.00
964.72	226.90
965.01	226.92
965.31	226.90
965.60	226.86
965.90	226.89
966.19	226.88
966.49	226.87
966.78	226.82
967.08	226.80
967.37	226.83
967.67	226.79
967.96	226.86
968.26	226.86
968.55	226.85
968.85	226.85
969.14	226.83
969.43	226.84
969.73	226.81
970.02	226.80
970.32	226.77
970.61	226.77
970.91	226.75
971.20	226.73
971.49	226.73
971.79	226.75
972.08	226.66
972.38	226.66
972.67	226.65
972.96	226.67
973.26	226.66
973.55	226.63
973.85	226.65
974.14	226.59
974.43	226.55
974.73	226.54
975.02	226.52
975.31	226.52
975.61	226.53
975.90	226.51
976.19	226.49
976.49	226.49
976.78	226.49
977.07	226.51
977.37	226.51
977.66	226.51
977.95	226.49
978.24	226.52
978.54	226.52
978.83	226.53
979.12	226.53
979.42	226.52
979.71	226.52
980.00	226.53
980.29	226.52
980.59	226.53
980.88	226.55
981.17	226.51
981.46	226.49
981.76	226.47
982.05	226.52
982.34	226.51
982.63	226.51
982.93	226.48
983.22	226.50
983.51	226.51
983.80	226.52
984.09	226.54
984.39	226.53
984.68	226.53
984.97	226.51
985.26	226.49
985.55	226.50
985.85	226.50
986.14	226.51
986.43	226.51
986.72	226.52
987.01	226.50
987.30	226.53
987.59	226.54
987.89	226.55
988.18	226.53
988.47	226.51
988.76	226.51
989.05	226.52
989.34	226.50
989.63	226.51
989.92	226.52
990.22	226.50
990.51	226.50
990.80	226.45
991.09	226.44
991.38	226.46
991.67	226.42
991.96	226.41
992.25	226.42
992.54	226.41
992.83	226.41
993.12	226.42
993.41	226.42
993.70	226.49
993.99	226.51
994.28	226.51
994.58	226.53
994.87	226.54
995.16	226.54
995.45	226.53
995.74	226.49
996.03	226.49
996.32	226.47
996.61	226.49
996.90	226.56
997.19	226.57
997.48	226.56
997.77	226.54
998.06	226.53
998.34	226.48
998.63	226.48
998.92	226.49
999.21	226.49
999.50	226.50
999.79	226.41
1000.08	226.38
1000.37	226.37
1000.66	226.34
1000.95	226.32
1001.24	226.34
1001.53	226.34
1001.82	226.34
1002.11	226.30
1002.40	226.32
1002.68	226.33
1002.97	226.39
1003.26	226.38
1003.55	226.35
1003.84	226.40
1004.13	226.46
1004.42	226.46
1004.71	226.48
1004.99	226.46
1005.28	226.47
1005.57	226.47
1005.86	226.49
1006.15	226.49
1006.44	226.47
1006.72	226.51
1007.01	226.48
1007.30	226.47
1007.59	226.44
1007.88	226.43
1008.17	226.45
1008.45	226.43
1008.74	226.42
1009.03	226.36
1009.32	226.35
1009.60	226.34
1009.89	226.32
1010.18	226.29
1010.47	226.31
1010.76	226.27
1011.04	226.25
1011.33	226.26
1011.62	226.30
1011.91	226.32
1012.19	226.32
1012.48	226.35
1012.77	226.35
1013.05	226.46
1013.34	226.49
1013.63	226.51
1013.92	226.56
1014.20	226.57
1014.49	226.58
1014.78	226.57
1015.06	226.54
1015.35	226.57
1015.64	226.64
1015.92	226.63
1016.21	226.64
1016.50	226.65
1016.78	226.66
1017.07	226.72
1017.36	226.68
1017.64	226.65
1017.93	226.64
1018.22	226.65
1018.50	226.64
1018.79	226.64
1019.08	226.57
1019.36	226.55
1019.65	226.55
1019.93	226.55
1020.22	226.57
1020.51	226.63
1020.79	226.62
1021.08	226.36
1021.36	226.43
1021.65	226.58
1021.94	226.76
1022.22	226.40
1022.51	226.20
1022.79	227.10
1023.08	227.19
1023.36	227.78
1023.65	226.25
>>>>>End Processed Spectral Data<<<<<
