SpectraSuite Data File
++++++++++++++++++++++++++++++++++++
Date: Fri Feb 01 16:18:01 EST 2013
User: group
Dark Spectrum Present: No
Reference Spectrum Present: No
Number of Sampled Component Spectra: 1
Spectrometers: USB2E7196
Integration Time (usec): 35000 (USB2E7196)
Spectra Averaged: 100 (USB2E7196)
Boxcar Smoothing: 10 (USB2E7196)
Correct for Electrical Dark: No (USB2E7196)
Strobe/Lamp Enabled: No (USB2E7196)
Correct for Detector Non-linearity: No (USB2E7196)
Correct for Stray Light: No (USB2E7196)
Number of Pixels in Processed Spectrum: 2048
>>>>>Begin Processed Spectral Data<<<<<
339.09	0.00
339.48	213.87
339.86	215.16
340.24	216.46
340.63	218.20
341.01	220.88
341.39	221.23
341.78	221.99
342.16	223.42
342.54	223.16
342.93	212.33
343.31	223.08
343.69	223.64
344.07	224.13
344.46	224.58
344.84	224.95
345.22	225.19
345.60	225.43
345.99	225.64
346.37	225.77
346.75	225.91
347.13	226.01
347.52	226.06
347.90	226.15
348.28	226.21
348.66	226.25
349.05	226.26
349.43	226.30
349.81	226.31
350.19	226.34
350.57	226.40
350.96	226.46
351.34	226.54
351.72	226.61
352.10	226.71
352.48	226.78
352.87	226.86
353.25	226.94
353.63	227.02
354.01	227.08
354.39	227.15
354.77	227.24
355.15	227.32
355.54	227.38
355.92	227.38
356.30	227.44
356.68	227.56
357.06	227.63
357.44	227.70
357.82	227.76
358.20	227.80
358.58	227.87
358.97	227.97
359.35	228.03
359.73	228.11
360.11	228.16
360.49	228.24
360.87	228.25
361.25	228.32
361.63	228.38
362.01	228.42
362.39	228.45
362.77	228.47
363.15	228.51
363.53	228.53
363.91	228.61
364.29	228.60
364.67	228.51
365.05	228.53
365.43	228.55
365.81	228.57
366.19	228.64
366.57	228.69
366.95	228.63
367.33	228.60
367.71	228.59
368.09	228.55
368.47	228.52
368.85	228.49
369.23	228.49
369.61	228.40
369.99	228.41
370.37	228.42
370.75	228.40
371.13	228.33
371.51	228.29
371.89	228.22
372.27	228.19
372.65	228.16
373.03	228.10
373.41	228.03
373.78	227.97
374.16	227.84
374.54	227.72
374.92	227.70
375.30	227.65
375.68	227.57
376.06	227.51
376.44	227.43
376.82	227.41
377.19	227.31
377.57	227.27
377.95	227.16
378.33	227.05
378.71	226.95
379.09	226.90
379.47	226.86
379.84	226.78
380.22	226.71
380.60	226.62
380.98	226.50
381.36	226.43
381.73	226.36
382.11	226.32
382.49	226.27
382.87	226.17
383.25	226.10
383.62	226.14
384.00	226.07
384.38	226.02
384.76	225.95
385.13	225.91
385.51	225.84
385.89	225.81
386.27	225.78
386.64	225.74
387.02	225.70
387.40	225.63
387.78	225.64
388.15	225.63
388.53	225.60
388.91	225.60
389.29	225.58
389.66	225.56
390.04	225.51
390.42	225.48
390.79	225.49
391.17	225.48
391.55	225.37
391.92	225.36
392.30	225.34
392.68	225.36
393.05	225.39
393.43	225.42
393.81	225.40
394.18	225.42
394.56	225.44
394.94	225.47
395.31	225.49
395.69	225.53
396.06	225.54
396.44	225.57
396.82	225.62
397.19	225.70
397.57	225.74
397.95	225.83
398.32	225.86
398.70	225.91
399.07	225.98
399.45	226.06
399.82	226.14
400.20	226.23
400.58	226.29
400.95	226.30
401.33	226.42
401.70	226.57
402.08	226.62
402.45	226.71
402.83	226.81
403.20	226.90
403.58	226.97
403.95	227.12
404.33	227.29
404.71	227.41
405.08	227.59
405.46	227.74
405.83	227.89
406.21	228.05
406.58	228.23
406.96	228.38
407.33	228.53
407.70	228.72
408.08	228.98
408.45	229.20
408.83	229.48
409.20	229.68
409.58	229.87
409.95	230.16
410.33	230.41
410.70	230.67
411.08	230.98
411.45	231.33
411.82	231.63
412.20	231.99
412.57	232.39
412.95	232.68
413.32	233.05
413.69	233.42
414.07	233.84
414.44	234.29
414.82	234.77
415.19	235.32
415.56	235.86
415.94	236.38
416.31	237.01
416.68	237.60
417.06	238.30
417.43	238.95
417.81	239.68
418.18	240.44
418.55	241.27
418.93	242.11
419.30	242.97
419.67	243.86
420.04	244.76
420.42	245.76
420.79	246.96
421.16	248.14
421.54	249.36
421.91	250.57
422.28	251.82
422.66	253.15
423.03	254.46
423.40	255.79
423.77	257.19
424.15	258.58
424.52	260.06
424.89	261.64
425.26	263.23
425.64	264.69
426.01	266.32
426.38	267.93
426.75	269.65
427.13	271.38
427.50	273.20
427.87	275.10
428.24	276.96
428.61	278.69
428.99	280.61
429.36	282.72
429.73	284.76
430.10	286.79
430.47	288.86
430.85	290.98
431.22	293.25
431.59	295.62
431.96	297.86
432.33	300.33
432.70	302.71
433.08	305.53
433.45	308.20
433.82	310.76
434.19	313.68
434.56	316.47
434.93	319.09
435.30	321.69
435.68	324.54
436.05	327.37
436.42	330.16
436.79	332.67
437.16	335.38
437.53	338.24
437.90	341.08
438.27	343.79
438.64	346.60
439.01	349.14
439.38	351.35
439.75	353.54
440.13	355.98
440.50	358.34
440.87	360.17
441.24	362.05
441.61	364.24
441.98	365.69
442.35	367.49
442.72	369.35
443.09	371.14
443.46	372.15
443.83	372.71
444.20	373.22
444.57	374.07
444.94	374.31
445.31	374.70
445.68	375.00
446.05	375.09
446.42	374.70
446.79	374.32
447.16	373.88
447.53	373.50
447.90	372.40
448.27	371.22
448.64	369.62
449.01	368.52
449.37	366.51
449.74	364.67
450.11	362.39
450.48	359.96
450.85	357.48
451.22	355.34
451.59	353.30
451.96	351.38
452.33	348.75
452.70	346.43
453.07	343.56
453.43	340.68
453.80	337.94
454.17	335.30
454.54	332.73
454.91	330.05
455.28	327.47
455.65	324.97
456.02	322.55
456.38	320.42
456.75	317.75
457.12	315.53
457.49	313.28
457.86	311.14
458.23	309.25
458.59	307.22
458.96	305.17
459.33	303.36
459.70	301.48
460.07	300.01
460.43	298.31
460.80	296.72
461.17	295.29
461.54	293.77
461.91	292.38
462.27	290.96
462.64	289.73
463.01	288.34
463.38	287.06
463.74	285.68
464.11	284.52
464.48	283.49
464.85	282.37
465.21	281.53
465.58	280.65
465.95	279.57
466.32	278.66
466.68	277.72
467.05	276.82
467.42	275.92
467.78	274.98
468.15	274.08
468.52	273.36
468.88	272.49
469.25	271.70
469.62	271.07
469.98	270.40
470.35	269.78
470.72	269.20
471.08	268.59
471.45	268.05
471.82	267.52
472.18	266.93
472.55	266.51
472.92	265.97
473.28	265.47
473.65	265.05
474.02	264.57
474.38	264.19
474.75	263.87
475.11	263.53
475.48	263.25
475.85	263.01
476.21	262.80
476.58	262.62
476.94	262.50
477.31	262.33
477.67	262.14
478.04	262.00
478.41	261.94
478.77	261.96
479.14	261.90
479.50	261.89
479.87	261.97
480.23	262.07
480.60	262.18
480.96	262.26
481.33	262.44
481.69	262.65
482.06	262.87
482.42	263.08
482.79	263.33
483.15	263.63
483.52	264.02
483.88	264.40
484.25	264.80
484.61	265.24
484.98	265.66
485.34	266.26
485.71	266.84
486.07	267.43
486.44	267.99
486.80	268.72
487.17	269.46
487.53	270.25
487.90	271.10
488.26	272.00
488.62	273.02
488.99	274.03
489.35	275.07
489.72	276.22
490.08	277.43
490.44	278.70
490.81	280.03
491.17	281.38
491.54	282.84
491.90	284.36
492.26	286.01
492.63	287.79
492.99	289.57
493.36	291.48
493.72	293.55
494.08	295.68
494.45	297.91
494.81	300.27
495.17	302.73
495.54	305.35
495.90	308.08
496.26	310.91
496.63	313.90
496.99	317.06
497.35	320.35
497.72	323.76
498.08	327.27
498.44	330.97
498.80	334.94
499.17	338.98
499.53	343.17
499.89	347.57
500.26	352.07
500.62	356.78
500.98	361.75
501.34	366.82
501.71	372.16
502.07	377.65
502.43	383.33
502.79	389.15
503.16	395.16
503.52	401.46
503.88	407.82
504.24	414.47
504.60	421.35
504.97	428.48
505.33	435.85
505.69	443.60
506.05	451.42
506.41	459.32
506.78	467.51
507.14	475.97
507.50	484.66
507.86	493.70
508.22	502.93
508.59	512.19
508.95	521.80
509.31	531.61
509.67	541.76
510.03	552.03
510.39	562.60
510.75	573.41
511.12	584.27
511.48	595.66
511.84	607.11
512.20	618.65
512.56	630.61
512.92	642.75
513.28	655.09
513.64	667.53
514.00	680.15
514.37	693.12
514.73	706.22
515.09	719.31
515.45	732.58
515.81	746.11
516.17	760.05
516.53	774.17
516.89	788.32
517.25	802.39
517.61	816.81
517.97	831.26
518.33	845.61
518.69	860.40
519.05	875.37
519.41	890.47
519.77	905.94
520.13	921.38
520.49	936.75
520.85	952.12
521.21	967.87
521.57	984.16
521.93	999.81
522.29	1016.08
522.65	1032.24
523.01	1048.40
523.37	1064.44
523.73	1080.59
524.09	1096.67
524.45	1113.03
524.81	1129.68
525.17	1146.54
525.53	1163.52
525.89	1180.46
526.25	1197.31
526.61	1213.67
526.97	1230.47
527.33	1246.95
527.68	1263.42
528.04	1279.76
528.40	1296.33
528.76	1313.39
529.12	1329.90
529.48	1346.85
529.84	1362.80
530.20	1379.41
530.56	1396.37
530.91	1413.71
531.27	1430.28
531.63	1446.67
531.99	1463.15
532.35	1478.98
532.71	1494.76
533.07	1510.82
533.42	1526.66
533.78	1542.62
534.14	1558.90
534.50	1574.13
534.86	1589.93
535.21	1605.16
535.57	1621.18
535.93	1636.66
536.29	1651.29
536.65	1666.28
537.00	1680.90
537.36	1696.34
537.72	1710.79
538.08	1725.11
538.44	1738.86
538.79	1752.82
539.15	1766.46
539.51	1780.10
539.87	1794.50
540.22	1808.10
540.58	1821.87
540.94	1835.15
541.29	1847.96
541.65	1860.50
542.01	1873.62
542.37	1885.92
542.72	1898.08
543.08	1909.85
543.44	1922.14
543.79	1933.34
544.15	1944.25
544.51	1955.82
544.87	1966.62
545.22	1977.49
545.58	1987.70
545.94	1997.44
546.29	2007.21
546.65	2016.99
547.01	2026.24
547.36	2034.90
547.72	2043.47
548.07	2051.29
548.43	2059.43
548.79	2067.54
549.14	2075.02
549.50	2082.36
549.86	2090.11
550.21	2097.54
550.57	2104.67
550.92	2111.21
551.28	2118.28
551.64	2125.32
551.99	2131.74
552.35	2137.91
552.70	2144.04
553.06	2149.93
553.41	2156.27
553.77	2162.36
554.13	2168.33
554.48	2174.47
554.84	2179.89
555.19	2185.09
555.55	2190.19
555.90	2194.59
556.26	2199.47
556.61	2204.41
556.97	2208.78
557.32	2212.81
557.68	2216.96
558.03	2221.16
558.39	2224.85
558.74	2229.65
559.10	2233.64
559.45	2237.37
559.81	2241.67
560.16	2245.35
560.52	2248.64
560.87	2251.98
561.23	2254.62
561.58	2257.73
561.94	2260.24
562.29	2262.61
562.64	2265.16
563.00	2267.66
563.35	2271.28
563.71	2274.31
564.06	2277.39
564.42	2280.15
564.77	2282.64
565.12	2284.92
565.48	2286.80
565.83	2288.71
566.19	2289.82
566.54	2290.59
566.89	2291.86
567.25	2292.28
567.60	2293.72
567.96	2295.53
568.31	2296.39
568.66	2297.58
569.02	2298.19
569.37	2298.57
569.72	2299.42
570.08	2299.76
570.43	2299.92
570.78	2299.30
571.14	2297.84
571.49	2296.30
571.84	2296.01
572.20	2295.10
572.55	2293.97
572.90	2292.61
573.26	2291.19
573.61	2289.58
573.96	2287.98
574.31	2284.94
574.67	2282.10
575.02	2278.52
575.37	2275.04
575.72	2271.34
576.08	2268.00
576.43	2264.63
576.78	2260.98
577.13	2257.92
577.49	2254.90
577.84	2251.48
578.19	2247.91
578.54	2244.24
578.90	2240.24
579.25	2234.64
579.60	2229.39
579.95	2224.66
580.30	2219.49
580.66	2214.38
581.01	2209.52
581.36	2204.73
581.71	2200.70
582.06	2196.34
582.42	2191.88
582.77	2186.85
583.12	2182.40
583.47	2177.68
583.82	2172.76
584.17	2167.61
584.53	2162.20
584.88	2156.54
585.23	2150.80
585.58	2145.29
585.93	2139.97
586.28	2135.24
586.63	2130.27
586.98	2125.48
587.34	2120.76
587.69	2116.09
588.04	2110.98
588.39	2105.27
588.74	2098.80
589.09	2092.48
589.44	2085.86
589.79	2079.97
590.14	2074.31
590.49	2067.79
590.84	2061.42
591.19	2055.43
591.54	2049.06
591.89	2041.91
592.25	2035.06
592.60	2027.96
592.95	2020.49
593.30	2013.14
593.65	2005.60
594.00	1998.73
594.35	1991.44
594.70	1983.37
595.05	1976.07
595.40	1968.79
595.75	1961.26
596.10	1955.11
596.45	1948.60
596.80	1942.46
597.15	1935.80
597.50	1928.83
597.85	1922.23
598.19	1915.68
598.54	1908.62
598.89	1901.83
599.24	1895.80
599.59	1889.27
599.94	1883.03
600.29	1876.76
600.64	1870.21
600.99	1862.86
601.34	1855.99
601.69	1849.07
602.04	1842.29
602.39	1835.09
602.74	1828.29
603.08	1821.53
603.43	1814.79
603.78	1807.47
604.13	1800.16
604.48	1792.80
604.83	1785.80
605.18	1779.07
605.53	1771.03
605.87	1763.11
606.22	1755.96
606.57	1747.95
606.92	1740.63
607.27	1733.49
607.62	1726.32
607.96	1718.95
608.31	1712.28
608.66	1704.74
609.01	1697.17
609.36	1689.47
609.70	1681.46
610.05	1673.42
610.40	1665.89
610.75	1657.44
611.10	1649.74
611.44	1641.37
611.79	1633.46
612.14	1624.84
612.49	1615.60
612.83	1607.19
613.18	1598.99
613.53	1590.88
613.88	1582.31
614.22	1573.97
614.57	1565.40
614.92	1557.54
615.27	1550.02
615.61	1541.59
615.96	1533.46
616.31	1525.81
616.65	1518.51
617.00	1510.87
617.35	1503.07
617.70	1494.69
618.04	1486.22
618.39	1477.94
618.74	1470.36
619.08	1462.08
619.43	1454.46
619.78	1447.49
620.12	1440.39
620.47	1432.92
620.82	1424.75
621.16	1417.37
621.51	1409.77
621.85	1402.09
622.20	1393.49
622.55	1385.09
622.89	1377.33
623.24	1369.68
623.59	1362.27
623.93	1354.74
624.28	1347.57
624.62	1340.09
624.97	1332.89
625.32	1326.20
625.66	1319.15
626.01	1311.82
626.35	1304.33
626.70	1296.47
627.04	1288.71
627.39	1280.84
627.73	1273.34
628.08	1266.39
628.43	1259.02
628.77	1251.61
629.12	1244.05
629.46	1236.94
629.81	1229.51
630.15	1222.19
630.50	1214.76
630.84	1206.57
631.19	1198.62
631.53	1191.01
631.88	1183.43
632.22	1175.85
632.57	1168.41
632.91	1160.87
633.26	1153.44
633.60	1146.00
633.95	1138.99
634.29	1132.02
634.64	1125.42
634.98	1118.02
635.32	1110.81
635.67	1104.17
636.01	1097.56
636.36	1090.74
636.70	1084.22
637.05	1077.67
637.39	1071.29
637.73	1064.80
638.08	1058.86
638.42	1052.87
638.77	1046.47
639.11	1039.89
639.45	1033.46
639.80	1026.84
640.14	1020.43
640.49	1013.92
640.83	1007.70
641.17	1001.47
641.52	995.02
641.86	988.43
642.20	982.60
642.55	976.35
642.89	969.90
643.23	963.25
643.58	957.43
643.92	951.09
644.26	945.03
644.61	938.92
644.95	932.91
645.29	926.32
645.64	919.53
645.98	913.16
646.32	907.31
646.66	901.17
647.01	895.28
647.35	889.54
647.69	883.73
648.04	878.08
648.38	872.23
648.72	866.25
649.06	860.24
649.41	854.33
649.75	848.34
650.09	842.42
650.43	836.64
650.78	830.50
651.12	824.62
651.46	818.81
651.80	812.98
652.14	807.59
652.49	802.28
652.83	797.10
653.17	791.38
653.51	785.61
653.85	780.30
654.20	774.70
654.54	768.74
654.88	762.93
655.22	757.05
655.56	751.35
655.90	745.96
656.25	740.66
656.59	735.30
656.93	730.24
657.27	725.05
657.61	719.70
657.95	714.61
658.29	709.57
658.64	704.44
658.98	699.17
659.32	693.66
659.66	688.38
660.00	683.09
660.34	678.13
660.68	673.25
661.02	668.24
661.36	663.62
661.70	659.10
662.05	654.78
662.39	650.50
662.73	646.05
663.07	641.62
663.41	637.21
663.75	632.65
664.09	628.07
664.43	623.66
664.77	619.49
665.11	615.24
665.45	611.05
665.79	606.90
666.13	602.80
666.47	598.73
666.81	594.56
667.15	590.38
667.49	586.50
667.83	582.67
668.17	578.69
668.51	574.53
668.85	570.48
669.19	566.58
669.53	562.68
669.87	558.78
670.21	555.06
670.55	551.43
670.89	548.08
671.23	544.60
671.57	541.07
671.91	537.50
672.25	533.92
672.58	530.32
672.92	526.87
673.26	523.64
673.60	520.44
673.94	517.32
674.28	514.42
674.62	511.51
674.96	508.37
675.30	505.45
675.64	502.50
675.97	499.67
676.31	496.79
676.65	493.90
676.99	491.19
677.33	488.32
677.67	485.48
678.01	482.39
678.34	479.42
678.68	476.56
679.02	473.72
679.36	470.98
679.70	468.34
680.04	465.59
680.37	462.71
680.71	459.92
681.05	457.33
681.39	454.60
681.73	451.88
682.06	449.33
682.40	446.77
682.74	444.24
683.08	441.69
683.42	439.15
683.75	436.62
684.09	434.06
684.43	431.62
684.77	429.11
685.10	426.73
685.44	424.37
685.78	422.05
686.12	419.81
686.45	417.49
686.79	415.18
687.13	412.98
687.46	410.86
687.80	408.70
688.14	406.47
688.48	404.43
688.81	402.16
689.15	400.04
689.49	397.84
689.82	395.77
690.16	393.68
690.50	391.73
690.83	389.80
691.17	387.85
691.51	385.89
691.84	384.08
692.18	382.15
692.52	380.23
692.85	378.31
693.19	376.46
693.52	374.62
693.86	372.78
694.20	371.02
694.53	369.24
694.87	367.41
695.21	365.65
695.54	363.75
695.88	362.05
696.21	360.35
696.55	358.73
696.88	357.04
697.22	355.42
697.56	353.78
697.89	352.14
698.23	350.53
698.56	349.02
698.90	347.43
699.23	345.84
699.57	344.31
699.90	342.78
700.24	341.26
700.58	339.78
700.91	338.31
701.25	336.88
701.58	335.49
701.92	334.13
702.25	332.76
702.59	331.42
702.92	330.12
703.26	328.76
703.59	327.47
703.93	326.27
704.26	325.06
704.60	323.77
704.93	322.50
705.26	321.21
705.60	319.99
705.93	318.86
706.27	317.81
706.60	316.73
706.94	315.63
707.27	314.49
707.61	313.41
707.94	312.37
708.27	311.28
708.61	310.16
708.94	309.15
709.28	308.19
709.61	307.26
709.94	306.30
710.28	305.27
710.61	304.30
710.95	303.22
711.28	302.26
711.61	301.28
711.95	300.37
712.28	299.43
712.61	298.41
712.95	297.45
713.28	296.55
713.61	295.63
713.95	294.77
714.28	293.93
714.61	293.04
714.95	292.19
715.28	291.33
715.61	290.47
715.95	289.61
716.28	288.68
716.61	287.80
716.95	286.93
717.28	286.16
717.61	285.40
717.94	284.64
718.28	283.86
718.61	283.11
718.94	282.36
719.27	281.71
719.61	281.07
719.94	280.41
720.27	279.67
720.60	278.99
720.94	278.33
721.27	277.70
721.60	277.13
721.93	276.46
722.27	275.90
722.60	275.34
722.93	274.75
723.26	274.25
723.59	273.69
723.93	273.13
724.26	272.59
724.59	271.99
724.92	271.48
725.25	270.91
725.59	270.38
725.92	269.87
726.25	269.34
726.58	268.82
726.91	268.30
727.24	267.82
727.57	267.37
727.91	266.86
728.24	266.39
728.57	265.91
728.90	265.51
729.23	265.00
729.56	264.57
729.89	264.06
730.22	263.59
730.55	263.13
730.89	262.69
731.22	262.24
731.55	261.81
731.88	261.40
732.21	261.02
732.54	260.58
732.87	260.17
733.20	259.79
733.53	259.43
733.86	259.04
734.19	258.67
734.52	258.28
734.85	258.03
735.18	257.62
735.51	257.28
735.84	256.88
736.17	256.55
736.50	256.15
736.83	255.92
737.16	255.56
737.49	255.26
737.82	254.98
738.15	254.69
738.48	254.38
738.81	254.06
739.14	253.72
739.47	253.43
739.80	253.13
740.13	252.81
740.46	252.46
740.79	252.18
741.12	251.89
741.45	251.59
741.78	251.21
742.11	250.94
742.44	250.60
742.77	250.36
743.10	250.07
743.43	249.77
743.75	249.45
744.08	249.36
744.41	249.06
744.74	248.79
745.07	248.49
745.40	248.29
745.73	248.07
746.06	247.83
746.39	247.60
746.71	247.32
747.04	247.08
747.37	246.86
747.70	246.62
748.03	246.35
748.36	246.15
748.68	245.92
749.01	245.65
749.34	245.44
749.67	245.21
750.00	244.99
750.33	244.83
750.65	244.62
750.98	244.26
751.31	244.03
751.64	243.83
751.97	243.67
752.29	243.42
752.62	243.14
752.95	242.93
753.28	242.69
753.60	242.50
753.93	242.30
754.26	242.08
754.59	241.85
754.91	241.65
755.24	241.44
755.57	241.24
755.90	241.08
756.22	240.87
756.55	240.68
756.88	240.48
757.20	240.25
757.53	240.02
757.86	239.80
758.19	239.66
758.51	239.47
758.84	239.27
759.17	239.11
759.49	238.94
759.82	238.78
760.15	238.63
760.47	238.47
760.80	238.31
761.13	238.17
761.45	238.02
761.78	237.86
762.11	237.70
762.43	237.52
762.76	237.36
763.08	237.23
763.41	237.06
763.74	236.92
764.06	236.76
764.39	236.65
764.71	236.52
765.04	236.34
765.37	236.18
765.69	236.04
766.02	235.87
766.34	235.74
766.67	235.63
767.00	235.54
767.32	235.47
767.65	235.38
767.97	235.28
768.30	235.17
768.62	235.07
768.95	234.98
769.27	234.88
769.60	234.81
769.92	234.68
770.25	234.58
770.57	234.46
770.90	234.39
771.22	234.27
771.55	234.17
771.87	234.09
772.20	234.01
772.52	233.99
772.85	234.05
773.17	233.98
773.50	233.87
773.82	233.76
774.15	233.64
774.47	233.53
774.80	233.43
775.12	233.33
775.45	233.23
775.77	233.14
776.09	233.05
776.42	232.94
776.74	232.91
777.07	232.81
777.39	232.76
777.72	232.69
778.04	232.61
778.36	232.56
778.69	232.50
779.01	232.48
779.33	232.34
779.66	232.18
779.98	232.10
780.31	232.03
780.63	232.01
780.95	231.95
781.28	231.88
781.60	231.85
781.92	231.81
782.25	231.75
782.57	231.71
782.89	231.66
783.22	231.60
783.54	231.54
783.86	231.50
784.19	231.46
784.51	231.43
784.83	231.38
785.16	231.32
785.48	231.28
785.80	231.23
786.12	231.20
786.45	231.12
786.77	231.10
787.09	231.05
787.42	231.00
787.74	230.98
788.06	230.95
788.38	230.89
788.71	230.87
789.03	230.86
789.35	230.83
789.67	230.81
789.99	230.78
790.32	230.73
790.64	230.71
790.96	230.76
791.28	230.68
791.61	230.66
791.93	230.66
792.25	230.61
792.57	230.62
792.89	230.57
793.21	230.52
793.54	230.47
793.86	230.42
794.18	230.39
794.50	230.31
794.82	230.25
795.14	230.23
795.47	230.18
795.79	230.13
796.11	230.06
796.43	229.99
796.75	229.94
797.07	229.94
797.39	229.88
797.71	229.77
798.04	229.75
798.36	229.68
798.68	229.61
799.00	229.60
799.32	229.50
799.64	229.47
799.96	229.46
800.28	229.47
800.60	229.42
800.92	229.39
801.24	229.34
801.56	229.33
801.89	229.28
802.21	229.25
802.53	229.18
802.85	229.16
803.17	229.18
803.49	229.11
803.81	229.06
804.13	229.01
804.45	228.96
804.77	228.94
805.09	228.92
805.41	228.89
805.73	228.82
806.05	228.75
806.37	228.70
806.69	228.67
807.01	228.62
807.33	228.61
807.65	228.52
807.97	228.54
808.28	228.51
808.60	228.45
808.92	228.42
809.24	228.45
809.56	228.40
809.88	228.34
810.20	228.34
810.52	228.29
810.84	228.26
811.16	228.24
811.48	228.19
811.80	228.21
812.12	228.19
812.43	228.17
812.75	228.19
813.07	228.18
813.39	228.14
813.71	228.08
814.03	228.05
814.35	228.04
814.67	227.96
814.98	227.93
815.30	227.93
815.62	227.90
815.94	227.83
816.26	227.85
816.58	227.78
816.89	227.79
817.21	227.77
817.53	227.75
817.85	227.71
818.17	227.73
818.48	227.68
818.80	227.66
819.12	227.65
819.44	227.61
819.76	227.58
820.07	227.59
820.39	227.60
820.71	227.61
821.03	227.58
821.34	227.58
821.66	227.58
821.98	227.57
822.30	227.55
822.61	227.59
822.93	227.55
823.25	227.55
823.57	227.53
823.88	227.53
824.20	227.52
824.52	227.56
824.83	227.54
825.15	227.50
825.47	227.50
825.79	227.51
826.10	227.50
826.42	227.49
826.74	227.47
827.05	227.43
827.37	227.43
827.69	227.45
828.00	227.44
828.32	227.42
828.64	227.39
828.95	227.46
829.27	227.42
829.58	227.41
829.90	227.46
830.22	227.46
830.53	227.44
830.85	227.40
831.17	227.35
831.48	227.31
831.80	227.30
832.11	227.29
832.43	227.24
832.75	227.24
833.06	227.28
833.38	227.24
833.69	227.28
834.01	227.24
834.32	227.21
834.64	227.21
834.96	227.18
835.27	227.20
835.59	227.11
835.90	227.05
836.22	227.03
836.53	226.96
836.85	226.93
837.16	227.02
837.48	227.04
837.79	227.05
838.11	227.04
838.42	227.01
838.74	227.00
839.05	227.02
839.37	227.02
839.68	226.92
840.00	226.89
840.31	226.88
840.63	226.87
840.94	226.88
841.26	226.86
841.57	226.84
841.88	226.82
842.20	226.81
842.51	226.83
842.83	226.82
843.14	226.92
843.46	226.92
843.77	226.89
844.08	226.89
844.40	226.87
844.71	226.89
845.03	226.89
845.34	226.90
845.65	226.86
845.97	226.80
846.28	226.81
846.60	226.83
846.91	226.80
847.22	226.79
847.54	226.79
847.85	226.76
848.16	226.76
848.48	226.75
848.79	226.77
849.10	226.79
849.42	226.80
849.73	226.68
850.04	226.67
850.36	226.58
850.67	226.58
850.98	226.59
851.30	226.55
851.61	226.52
851.92	226.53
852.23	226.60
852.55	226.62
852.86	226.61
853.17	226.62
853.49	226.63
853.80	226.64
854.11	226.60
854.42	226.61
854.74	226.60
855.05	226.59
855.36	226.54
855.67	226.50
855.99	226.48
856.30	226.59
856.61	226.57
856.92	226.59
857.23	226.58
857.55	226.55
857.86	226.54
858.17	226.61
858.48	226.58
858.79	226.51
859.11	226.51
859.42	226.52
859.73	226.48
860.04	226.47
860.35	226.46
860.66	226.46
860.98	226.47
861.29	226.48
861.60	226.45
861.91	226.49
862.22	226.49
862.53	226.50
862.84	226.40
863.16	226.43
863.47	226.42
863.78	226.43
864.09	226.45
864.40	226.46
864.71	226.45
865.02	226.48
865.33	226.48
865.64	226.46
865.95	226.46
866.27	226.55
866.58	226.52
866.89	226.51
867.20	226.51
867.51	226.50
867.82	226.50
868.13	226.54
868.44	226.50
868.75	226.51
869.06	226.50
869.37	226.50
869.68	226.48
869.99	226.50
870.30	226.49
870.61	226.50
870.92	226.48
871.23	226.47
871.54	226.44
871.85	226.49
872.16	226.49
872.47	226.47
872.78	226.39
873.09	226.46
873.40	226.46
873.71	226.46
874.02	226.48
874.33	226.48
874.64	226.43
874.95	226.48
875.26	226.47
875.56	226.48
875.87	226.46
876.18	226.42
876.49	226.50
876.80	226.47
877.11	226.45
877.42	226.45
877.73	226.46
878.04	226.46
878.35	226.43
878.66	226.44
878.96	226.45
879.27	226.43
879.58	226.36
879.89	226.37
880.20	226.41
880.51	226.40
880.82	226.38
881.12	226.42
881.43	226.40
881.74	226.40
882.05	226.40
882.36	226.41
882.67	226.41
882.97	226.30
883.28	226.32
883.59	226.29
883.90	226.30
884.21	226.28
884.51	226.27
884.82	226.25
885.13	226.25
885.44	226.26
885.74	226.26
886.05	226.29
886.36	226.28
886.67	226.24
886.98	226.25
887.28	226.28
887.59	226.26
887.90	226.26
888.20	226.23
888.51	226.20
888.82	226.18
889.13	226.21
889.43	226.26
889.74	226.24
890.05	226.25
890.35	226.23
890.66	226.21
890.97	226.18
891.28	226.17
891.58	226.15
891.89	226.14
892.20	226.12
892.50	226.09
892.81	226.07
893.12	226.04
893.42	226.01
893.73	226.00
894.04	225.99
894.34	226.01
894.65	226.03
894.95	226.05
895.26	226.05
895.57	226.12
895.87	226.06
896.18	226.04
896.48	226.07
896.79	226.09
897.10	226.11
897.40	226.16
897.71	226.17
898.01	226.20
898.32	226.20
898.63	226.22
898.93	226.24
899.24	226.26
899.54	226.32
899.85	226.34
900.15	226.34
900.46	226.36
900.76	226.38
901.07	226.37
901.38	226.41
901.68	226.42
901.99	226.36
902.29	226.36
902.60	226.38
902.90	226.37
903.21	226.38
903.51	226.39
903.82	226.42
904.12	226.40
904.43	226.42
904.73	226.46
905.03	226.47
905.34	226.58
905.64	226.59
905.95	226.57
906.25	226.56
906.56	226.58
906.86	226.60
907.17	226.59
907.47	226.60
907.77	226.56
908.08	226.57
908.38	226.57
908.69	226.60
908.99	226.61
909.30	226.62
909.60	226.62
909.90	226.58
910.21	226.55
910.51	226.57
910.81	226.55
911.12	226.52
911.42	226.53
911.73	226.45
912.03	226.44
912.33	226.44
912.64	226.43
912.94	226.37
913.24	226.31
913.55	226.30
913.85	226.28
914.15	226.30
914.46	226.31
914.76	226.30
915.06	226.28
915.37	226.27
915.67	226.29
915.97	226.25
916.27	226.27
916.58	226.27
916.88	226.26
917.18	226.26
917.49	226.31
917.79	226.32
918.09	226.31
918.39	226.34
918.70	226.35
919.00	226.33
919.30	226.41
919.60	226.41
919.91	226.39
920.21	226.41
920.51	226.39
920.81	226.36
921.12	226.37
921.42	226.36
921.72	226.36
922.02	226.29
922.32	226.29
922.63	226.25
922.93	226.26
923.23	226.25
923.53	226.21
923.83	226.14
924.13	226.10
924.44	226.12
924.74	226.14
925.04	226.12
925.34	226.11
925.64	226.05
925.94	226.07
926.24	226.10
926.55	226.08
926.85	226.07
927.15	226.06
927.45	226.02
927.75	226.02
928.05	226.01
928.35	226.02
928.65	226.03
928.95	226.04
929.26	225.99
929.56	225.99
929.86	226.00
930.16	226.00
930.46	225.99
930.76	225.95
931.06	225.88
931.36	225.87
931.66	225.88
931.96	225.91
932.26	225.87
932.56	225.84
932.86	225.85
933.16	225.85
933.46	225.85
933.76	225.85
934.06	225.86
934.36	225.89
934.66	225.89
934.96	225.89
935.26	225.89
935.56	225.92
935.86	225.92
936.16	225.92
936.46	225.92
936.76	225.93
937.06	225.93
937.36	225.94
937.66	225.97
937.96	225.99
938.26	225.98
938.56	226.00
938.86	226.00
939.16	226.00
939.46	226.02
939.76	226.03
940.06	226.06
940.35	226.03
940.65	226.00
940.95	226.01
941.25	226.00
941.55	226.00
941.85	225.99
942.15	226.03
942.45	226.06
942.75	226.01
943.04	226.03
943.34	226.03
943.64	226.02
943.94	226.00
944.24	225.97
944.54	225.95
944.84	225.93
945.13	225.94
945.43	225.94
945.73	225.91
946.03	225.91
946.33	225.89
946.62	225.91
946.92	225.93
947.22	225.95
947.52	225.94
947.82	225.96
948.11	225.97
948.41	225.94
948.71	225.93
949.01	225.98
949.31	225.95
949.60	225.96
949.90	226.00
950.20	225.99
950.50	226.01
950.79	226.03
951.09	226.06
951.39	226.06
951.69	226.04
951.98	226.06
952.28	226.06
952.58	226.05
952.87	226.03
953.17	226.04
953.47	226.01
953.76	226.02
954.06	225.99
954.36	225.95
954.66	225.99
954.95	225.99
955.25	225.99
955.55	226.00
955.84	226.02
956.14	226.04
956.44	226.05
956.73	226.02
957.03	226.02
957.32	226.01
957.62	226.01
957.92	226.04
958.21	226.01
958.51	226.09
958.81	226.11
959.10	226.12
959.40	226.10
959.69	226.11
959.99	226.11
960.29	226.11
960.58	226.09
960.88	226.08
961.17	226.07
961.47	226.08
961.76	226.04
962.06	226.04
962.36	226.00
962.65	225.99
962.95	226.01
963.24	225.96
963.54	225.98
963.83	225.97
964.13	225.97
964.42	225.94
964.72	225.86
965.01	225.82
965.31	225.82
965.60	225.81
965.90	225.88
966.19	225.86
966.49	225.85
966.78	225.88
967.08	225.88
967.37	225.90
967.67	225.86
967.96	225.90
968.26	225.89
968.55	225.91
968.85	225.93
969.14	225.91
969.43	225.94
969.73	225.87
970.02	225.85
970.32	225.84
970.61	225.84
970.91	225.86
971.20	225.87
971.49	225.86
971.79	225.86
972.08	225.81
972.38	225.82
972.67	225.82
972.96	225.82
973.26	225.81
973.55	225.85
973.85	225.86
974.14	225.81
974.43	225.81
974.73	225.80
975.02	225.75
975.31	225.79
975.61	225.79
975.90	225.79
976.19	225.80
976.49	225.80
976.78	225.86
977.07	225.85
977.37	225.87
977.66	225.89
977.95	225.90
978.24	225.91
978.54	225.95
978.83	225.96
979.12	225.96
979.42	226.00
979.71	225.97
980.00	225.95
980.29	225.99
980.59	225.97
980.88	225.96
981.17	226.01
981.46	226.00
981.76	226.01
982.05	226.07
982.34	226.08
982.63	226.08
982.93	226.02
983.22	226.04
983.51	226.06
983.80	226.09
984.09	226.08
984.39	226.06
984.68	226.03
984.97	226.05
985.26	226.03
985.55	226.03
985.85	225.99
986.14	226.04
986.43	226.04
986.72	226.02
987.01	226.02
987.30	225.99
987.59	225.98
987.89	225.96
988.18	225.90
988.47	225.88
988.76	225.89
989.05	225.91
989.34	225.89
989.63	225.90
989.92	225.86
990.22	225.85
990.51	225.83
990.80	225.80
991.09	225.79
991.38	225.81
991.67	225.79
991.96	225.75
992.25	225.71
992.54	225.70
992.83	225.70
993.12	225.69
993.41	225.71
993.70	225.74
993.99	225.74
994.28	225.78
994.58	225.81
994.87	225.77
995.16	225.75
995.45	225.73
995.74	225.66
996.03	225.65
996.32	225.66
996.61	225.64
996.90	225.66
997.19	225.66
997.48	225.67
997.77	225.66
998.06	225.69
998.34	225.68
998.63	225.66
998.92	225.67
999.21	225.68
999.50	225.65
999.79	225.62
1000.08	225.62
1000.37	225.61
1000.66	225.60
1000.95	225.66
1001.24	225.69
1001.53	225.72
1001.82	225.74
1002.11	225.72
1002.40	225.72
1002.68	225.79
1002.97	225.83
1003.26	225.81
1003.55	225.77
1003.84	225.78
1004.13	225.83
1004.42	225.85
1004.71	225.87
1004.99	225.87
1005.28	225.90
1005.57	225.93
1005.86	225.93
1006.15	225.92
1006.44	225.92
1006.72	225.94
1007.01	225.92
1007.30	225.93
1007.59	225.94
1007.88	225.92
1008.17	225.97
1008.45	226.00
1008.74	225.97
1009.03	225.93
1009.32	225.98
1009.60	225.98
1009.89	225.99
1010.18	225.93
1010.47	225.94
1010.76	225.95
1011.04	225.95
1011.33	225.98
1011.62	225.99
1011.91	226.04
1012.19	226.06
1012.48	226.05
1012.77	226.07
1013.05	226.11
1013.34	226.10
1013.63	226.13
1013.92	226.18
1014.20	226.18
1014.49	226.17
1014.78	226.22
1015.06	226.22
1015.35	226.23
1015.64	226.23
1015.92	226.27
1016.21	226.30
1016.50	226.31
1016.78	226.31
1017.07	226.31
1017.36	226.26
1017.64	226.25
1017.93	226.24
1018.22	226.25
1018.50	226.27
1018.79	226.27
1019.08	226.25
1019.36	226.23
1019.65	226.19
1019.93	226.22
1020.22	226.24
1020.51	226.27
1020.79	226.27
1021.08	226.08
1021.36	226.38
1021.65	226.55
1021.94	226.42
1022.22	225.62
1022.51	225.85
1022.79	227.09
1023.08	226.30
1023.36	227.18
1023.65	226.80
>>>>>End Processed Spectral Data<<<<<
