SpectraSuite Data File
++++++++++++++++++++++++++++++++++++
Date: Fri Feb 01 15:59:29 EST 2013
User: group
Dark Spectrum Present: No
Reference Spectrum Present: No
Number of Sampled Component Spectra: 1
Spectrometers: USB2E7196
Integration Time (usec): 35000 (USB2E7196)
Spectra Averaged: 100 (USB2E7196)
Boxcar Smoothing: 10 (USB2E7196)
Correct for Electrical Dark: No (USB2E7196)
Strobe/Lamp Enabled: No (USB2E7196)
Correct for Detector Non-linearity: No (USB2E7196)
Correct for Stray Light: No (USB2E7196)
Number of Pixels in Processed Spectrum: 2048
>>>>>Begin Processed Spectral Data<<<<<
339.09	0.00
339.48	214.80
339.86	216.33
340.24	218.15
340.63	218.73
341.01	222.31
341.39	221.79
341.78	222.70
342.16	224.26
342.54	224.94
342.93	213.15
343.31	223.92
343.69	224.45
344.07	224.93
344.46	225.32
344.84	225.72
345.22	225.96
345.60	226.20
345.99	226.38
346.37	226.53
346.75	226.62
347.13	226.66
347.52	226.70
347.90	226.82
348.28	226.84
348.66	226.86
349.05	226.84
349.43	226.86
349.81	226.91
350.19	226.97
350.57	227.04
350.96	227.12
351.34	227.17
351.72	227.24
352.10	227.34
352.48	227.42
352.87	227.47
353.25	227.50
353.63	227.58
354.01	227.66
354.39	227.69
354.77	227.77
355.15	227.88
355.54	227.94
355.92	227.95
356.30	228.01
356.68	228.17
357.06	228.24
357.44	228.29
357.82	228.33
358.20	228.40
358.58	228.46
358.97	228.50
359.35	228.60
359.73	228.69
360.11	228.72
360.49	228.80
360.87	228.83
361.25	228.87
361.63	228.91
362.01	228.94
362.39	228.97
362.77	229.00
363.15	229.00
363.53	229.04
363.91	229.06
364.29	229.11
364.67	229.04
365.05	229.05
365.43	229.10
365.81	229.13
366.19	229.17
366.57	229.20
366.95	229.22
367.33	229.18
367.71	229.19
368.09	229.19
368.47	229.15
368.85	229.14
369.23	229.17
369.61	229.13
369.99	229.16
370.37	229.18
370.75	229.18
371.13	229.14
371.51	229.12
371.89	229.11
372.27	229.08
372.65	229.03
373.03	228.98
373.41	228.91
373.78	228.84
374.16	228.71
374.54	228.63
374.92	228.54
375.30	228.51
375.68	228.40
376.06	228.36
376.44	228.31
376.82	228.23
377.19	228.15
377.57	228.08
377.95	228.00
378.33	227.90
378.71	227.77
379.09	227.73
379.47	227.65
379.84	227.56
380.22	227.46
380.60	227.38
380.98	227.31
381.36	227.22
381.73	227.15
382.11	227.09
382.49	227.04
382.87	226.99
383.25	226.92
383.62	226.99
384.00	226.89
384.38	226.83
384.76	226.84
385.13	226.82
385.51	226.80
385.89	226.73
386.27	226.70
386.64	226.67
387.02	226.59
387.40	226.53
387.78	226.50
388.15	226.50
388.53	226.45
388.91	226.40
389.29	226.41
389.66	226.40
390.04	226.39
390.42	226.37
390.79	226.30
391.17	226.30
391.55	226.14
391.92	226.16
392.30	226.16
392.68	226.10
393.05	226.08
393.43	226.11
393.81	226.10
394.18	226.07
394.56	226.10
394.94	226.17
395.31	226.19
395.69	226.24
396.06	226.25
396.44	226.28
396.82	226.31
397.19	226.36
397.57	226.37
397.95	226.41
398.32	226.44
398.70	226.50
399.07	226.58
399.45	226.68
399.82	226.72
400.20	226.76
400.58	226.85
400.95	226.87
401.33	226.93
401.70	227.08
402.08	227.18
402.45	227.28
402.83	227.37
403.20	227.47
403.58	227.56
403.95	227.68
404.33	227.85
404.71	227.97
405.08	228.16
405.46	228.33
405.83	228.52
406.21	228.68
406.58	228.88
406.96	229.03
407.33	229.16
407.70	229.36
408.08	229.62
408.45	229.83
408.83	230.07
409.20	230.28
409.58	230.45
409.95	230.71
410.33	230.96
410.70	231.22
411.08	231.54
411.45	231.85
411.82	232.14
412.20	232.49
412.57	232.93
412.95	233.21
413.32	233.62
413.69	234.00
414.07	234.42
414.44	234.90
414.82	235.38
415.19	235.97
415.56	236.51
415.94	237.07
416.31	237.69
416.68	238.34
417.06	239.05
417.43	239.78
417.81	240.56
418.18	241.35
418.55	242.13
418.93	242.99
419.30	243.90
419.67	244.85
420.04	245.80
420.42	246.76
420.79	247.95
421.16	249.11
421.54	250.30
421.91	251.54
422.28	252.78
422.66	254.13
423.03	255.46
423.40	256.79
423.77	258.20
424.15	259.63
424.52	261.12
424.89	262.75
425.26	264.29
425.64	265.72
426.01	267.30
426.38	268.99
426.75	270.68
427.13	272.41
427.50	274.24
427.87	276.13
428.24	278.00
428.61	279.79
428.99	281.72
429.36	283.81
429.73	285.86
430.10	287.89
430.47	289.95
430.85	292.02
431.22	294.29
431.59	296.66
431.96	298.89
432.33	301.38
432.70	303.79
433.08	306.58
433.45	309.21
433.82	311.84
434.19	314.73
434.56	317.54
434.93	320.24
435.30	322.84
435.68	325.72
436.05	328.52
436.42	331.26
436.79	333.78
437.16	336.48
437.53	339.35
437.90	342.13
438.27	344.87
438.64	347.72
439.01	350.29
439.38	352.51
439.75	354.67
440.13	357.18
440.50	359.45
440.87	361.27
441.24	363.20
441.61	365.33
441.98	366.80
442.35	368.58
442.72	370.40
443.09	372.18
443.46	373.13
443.83	373.75
444.20	374.25
444.57	375.08
444.94	375.37
445.31	375.68
445.68	376.09
446.05	376.12
446.42	375.74
446.79	375.33
447.16	374.88
447.53	374.60
447.90	373.37
448.27	372.20
448.64	370.67
449.01	369.51
449.37	367.51
449.74	365.65
450.11	363.38
450.48	360.88
450.85	358.35
451.22	356.23
451.59	354.19
451.96	352.29
452.33	349.66
452.70	347.29
453.07	344.47
453.43	341.52
453.80	338.78
454.17	336.12
454.54	333.56
454.91	330.83
455.28	328.11
455.65	325.62
456.02	323.23
456.38	321.08
456.75	318.44
457.12	316.27
457.49	314.03
457.86	311.85
458.23	310.02
458.59	308.01
458.96	305.94
459.33	304.06
459.70	302.18
460.07	300.66
460.43	298.93
460.80	297.30
461.17	295.88
461.54	294.38
461.91	292.93
462.27	291.50
462.64	290.25
463.01	288.95
463.38	287.65
463.74	286.25
464.11	285.08
464.48	284.06
464.85	282.90
465.21	282.02
465.58	281.14
465.95	280.06
466.32	279.15
466.68	278.24
467.05	277.37
467.42	276.51
467.78	275.61
468.15	274.77
468.52	274.13
468.88	273.24
469.25	272.48
469.62	271.86
469.98	271.19
470.35	270.58
470.72	270.00
471.08	269.38
471.45	268.86
471.82	268.33
472.18	267.74
472.55	267.30
472.92	266.77
473.28	266.29
473.65	265.84
474.02	265.39
474.38	265.03
474.75	264.74
475.11	264.37
475.48	264.10
475.85	263.89
476.21	263.67
476.58	263.55
476.94	263.41
477.31	263.26
477.67	263.12
478.04	263.00
478.41	262.91
478.77	262.95
479.14	262.91
479.50	262.91
479.87	262.99
480.23	263.11
480.60	263.23
480.96	263.37
481.33	263.58
481.69	263.79
482.06	263.97
482.42	264.12
482.79	264.41
483.15	264.74
483.52	265.09
483.88	265.45
484.25	265.80
484.61	266.17
484.98	266.63
485.34	267.21
485.71	267.81
486.07	268.40
486.44	268.96
486.80	269.64
487.17	270.39
487.53	271.17
487.90	272.01
488.26	272.94
488.62	273.89
488.99	274.86
489.35	275.92
489.72	277.06
490.08	278.32
490.44	279.52
490.81	280.85
491.17	282.22
491.54	283.69
491.90	285.23
492.26	286.88
492.63	288.64
492.99	290.37
493.36	292.25
493.72	294.28
494.08	296.38
494.45	298.64
494.81	301.00
495.17	303.45
495.54	306.04
495.90	308.69
496.26	311.48
496.63	314.45
496.99	317.59
497.35	320.87
497.72	324.23
498.08	327.78
498.44	331.46
498.80	335.39
499.17	339.37
499.53	343.56
499.89	347.97
500.26	352.47
500.62	357.20
500.98	362.17
501.34	367.28
501.71	372.65
502.07	378.14
502.43	383.75
502.79	389.58
503.16	395.66
503.52	401.96
503.88	408.42
504.24	415.07
504.60	422.03
504.97	429.18
505.33	436.53
505.69	444.23
506.05	451.98
506.41	459.89
506.78	468.09
507.14	476.57
507.50	485.26
507.86	494.27
508.22	503.43
508.59	512.70
508.95	522.30
509.31	532.09
509.67	542.12
510.03	552.46
510.39	563.05
510.75	573.85
511.12	584.74
511.48	596.07
511.84	607.53
512.20	618.92
512.56	630.84
512.92	643.04
513.28	655.36
513.64	667.89
514.00	680.55
514.37	693.48
514.73	706.56
515.09	719.62
515.45	732.90
515.81	746.48
516.17	760.36
516.53	774.45
516.89	788.58
517.25	802.73
517.61	817.12
517.97	831.46
518.33	845.90
518.69	860.69
519.05	875.66
519.41	890.78
519.77	906.38
520.13	921.75
520.49	937.05
520.85	952.44
521.21	968.19
521.57	984.44
521.93	1000.14
522.29	1016.50
522.65	1032.68
523.01	1048.87
523.37	1064.89
523.73	1081.14
524.09	1097.10
524.45	1113.47
524.81	1130.06
525.17	1146.84
525.53	1163.78
525.89	1180.59
526.25	1197.35
526.61	1213.72
526.97	1230.47
527.33	1246.87
527.68	1263.57
528.04	1280.16
528.40	1296.74
528.76	1313.64
529.12	1330.26
529.48	1347.18
529.84	1363.12
530.20	1379.78
530.56	1396.80
530.91	1414.24
531.27	1430.86
531.63	1447.32
531.99	1463.79
532.35	1479.80
532.71	1495.69
533.07	1511.89
533.42	1527.87
533.78	1543.98
534.14	1560.20
534.50	1575.56
534.86	1591.34
535.21	1606.42
535.57	1622.14
535.93	1637.62
536.29	1652.44
536.65	1667.41
537.00	1682.14
537.36	1697.42
537.72	1711.98
538.08	1726.33
538.44	1740.07
538.79	1754.00
539.15	1767.72
539.51	1781.43
539.87	1795.81
540.22	1809.53
540.58	1823.21
540.94	1836.41
541.29	1849.28
541.65	1861.92
542.01	1875.06
542.37	1887.28
542.72	1899.75
543.08	1911.51
543.44	1923.79
543.79	1935.04
544.15	1945.84
544.51	1957.43
544.87	1968.35
545.22	1979.05
545.58	1989.37
545.94	1999.01
546.29	2008.84
546.65	2018.75
547.01	2027.95
547.36	2036.62
547.72	2045.11
548.07	2052.94
548.43	2061.12
548.79	2069.18
549.14	2076.60
549.50	2083.84
549.86	2091.64
550.21	2098.84
550.57	2106.04
550.92	2112.73
551.28	2119.78
551.64	2126.91
551.99	2133.24
552.35	2139.32
552.70	2145.42
553.06	2151.35
553.41	2157.73
553.77	2163.77
554.13	2169.81
554.48	2176.04
554.84	2181.34
555.19	2186.62
555.55	2191.77
555.90	2196.15
556.26	2200.90
556.61	2205.76
556.97	2210.04
557.32	2214.15
557.68	2218.22
558.03	2222.60
558.39	2226.25
558.74	2230.67
559.10	2234.52
559.45	2238.29
559.81	2242.73
560.16	2246.55
560.52	2249.70
560.87	2253.18
561.23	2255.84
561.58	2258.85
561.94	2261.31
562.29	2263.70
562.64	2266.32
563.00	2268.95
563.35	2272.39
563.71	2275.58
564.06	2278.67
564.42	2281.51
564.77	2283.97
565.12	2286.39
565.48	2288.18
565.83	2290.03
566.19	2291.25
566.54	2292.24
566.89	2293.28
567.25	2293.82
567.60	2295.20
567.96	2296.88
568.31	2297.63
568.66	2298.79
569.02	2299.15
569.37	2299.48
569.72	2300.28
570.08	2300.34
570.43	2300.38
570.78	2299.98
571.14	2298.37
571.49	2297.05
571.84	2296.86
572.20	2295.80
572.55	2294.71
572.90	2293.18
573.26	2291.86
573.61	2290.57
573.96	2288.71
574.31	2285.81
574.67	2282.80
575.02	2279.11
575.37	2275.74
575.72	2271.94
576.08	2268.66
576.43	2265.32
576.78	2261.69
577.13	2258.68
577.49	2255.82
577.84	2252.31
578.19	2248.53
578.54	2245.02
578.90	2240.76
579.25	2235.19
579.60	2230.17
579.95	2225.15
580.30	2220.17
580.66	2214.91
581.01	2209.83
581.36	2205.07
581.71	2200.84
582.06	2196.32
582.42	2191.96
582.77	2186.76
583.12	2182.22
583.47	2177.39
583.82	2172.44
584.17	2167.10
584.53	2161.44
584.88	2155.71
585.23	2150.02
585.58	2144.55
585.93	2139.16
586.28	2134.48
586.63	2129.46
586.98	2124.58
587.34	2119.75
587.69	2114.79
588.04	2109.42
588.39	2103.80
588.74	2097.34
589.09	2091.30
589.44	2084.63
589.79	2078.63
590.14	2073.00
590.49	2066.51
590.84	2060.24
591.19	2054.38
591.54	2048.10
591.89	2040.73
592.25	2033.88
592.60	2026.67
592.95	2019.13
593.30	2011.65
593.65	2004.11
594.00	1997.15
594.35	1989.77
594.70	1981.80
595.05	1974.69
595.40	1967.66
595.75	1960.09
596.10	1953.84
596.45	1947.07
596.80	1940.98
597.15	1934.29
597.50	1927.13
597.85	1920.77
598.19	1913.96
598.54	1906.69
598.89	1899.96
599.24	1894.17
599.59	1887.53
599.94	1881.44
600.29	1874.99
600.64	1868.48
600.99	1861.00
601.34	1854.07
601.69	1847.17
602.04	1840.44
602.39	1833.12
602.74	1826.36
603.08	1819.61
603.43	1812.82
603.78	1805.59
604.13	1798.26
604.48	1790.99
604.83	1784.24
605.18	1777.05
605.53	1769.03
605.87	1761.04
606.22	1753.82
606.57	1745.92
606.92	1738.59
607.27	1731.27
607.62	1724.49
607.96	1717.14
608.31	1710.49
608.66	1702.81
609.01	1695.14
609.36	1687.45
609.70	1679.38
610.05	1671.22
610.40	1663.56
610.75	1655.21
611.10	1647.46
611.44	1639.03
611.79	1631.07
612.14	1622.35
612.49	1613.35
612.83	1605.00
613.18	1596.96
613.53	1588.91
613.88	1580.30
614.22	1571.92
614.57	1563.34
614.92	1555.15
615.27	1547.57
615.61	1539.27
615.96	1531.26
616.31	1523.73
616.65	1516.44
617.00	1508.85
617.35	1501.17
617.70	1492.79
618.04	1484.37
618.39	1476.15
618.74	1468.63
619.08	1460.30
619.43	1452.66
619.78	1445.76
620.12	1438.66
620.47	1431.08
620.82	1422.82
621.16	1415.58
621.51	1408.02
621.85	1400.32
622.20	1391.83
622.55	1383.49
622.89	1375.62
623.24	1368.05
623.59	1360.63
623.93	1353.08
624.28	1345.97
624.62	1338.46
624.97	1331.35
625.32	1324.65
625.66	1317.63
626.01	1310.40
626.35	1302.90
626.70	1295.16
627.04	1287.32
627.39	1279.53
627.73	1272.09
628.08	1265.29
628.43	1257.86
628.77	1250.50
629.12	1243.06
629.46	1235.92
629.81	1228.56
630.15	1221.25
630.50	1213.85
630.84	1205.63
631.19	1197.72
631.53	1190.13
631.88	1182.64
632.22	1174.97
632.57	1167.64
632.91	1160.09
633.26	1152.57
633.60	1145.21
633.95	1138.21
634.29	1131.18
634.64	1124.43
634.98	1117.13
635.32	1109.86
635.67	1103.29
636.01	1096.68
636.36	1089.84
636.70	1083.42
637.05	1076.74
637.39	1070.29
637.73	1063.73
638.08	1057.91
638.42	1051.88
638.77	1045.40
639.11	1038.72
639.45	1032.32
639.80	1025.61
640.14	1019.20
640.49	1012.78
640.83	1006.54
641.17	1000.18
641.52	993.85
641.86	987.40
642.20	981.54
642.55	975.28
642.89	968.79
643.23	962.27
643.58	956.47
643.92	950.20
644.26	944.14
644.61	938.11
644.95	932.09
645.29	925.47
645.64	918.70
645.98	912.39
646.32	906.63
646.66	900.54
647.01	894.77
647.35	889.05
647.69	883.17
648.04	877.55
648.38	871.80
648.72	865.74
649.06	859.70
649.41	853.84
649.75	847.86
650.09	841.96
650.43	836.16
650.78	830.06
651.12	824.18
651.46	818.54
651.80	812.88
652.14	807.54
652.49	802.13
652.83	796.97
653.17	791.21
653.51	785.40
653.85	780.08
654.20	774.39
654.54	768.36
654.88	762.70
655.22	756.80
655.56	751.16
655.90	745.79
656.25	740.56
656.59	735.23
656.93	730.13
657.27	724.91
657.61	719.44
657.95	714.28
658.29	709.15
658.64	703.89
658.98	698.60
659.32	693.10
659.66	687.92
660.00	682.59
660.34	677.69
660.68	672.83
661.02	667.80
661.36	663.10
661.70	658.63
662.05	654.19
662.39	649.89
662.73	645.41
663.07	641.11
663.41	636.71
663.75	632.14
664.09	627.63
664.43	623.21
664.77	619.12
665.11	614.87
665.45	610.76
665.79	606.59
666.13	602.43
666.47	598.41
666.81	594.23
667.15	590.12
667.49	586.24
667.83	582.41
668.17	578.44
668.51	574.43
668.85	570.44
669.19	566.62
669.53	562.77
669.87	558.90
670.21	555.18
670.55	551.44
670.89	548.08
671.23	544.66
671.57	541.16
671.91	537.55
672.25	534.09
672.58	530.58
672.92	527.24
673.26	524.04
673.60	520.83
673.94	517.75
674.28	514.86
674.62	511.97
674.96	508.88
675.30	505.95
675.64	502.99
675.97	500.23
676.31	497.34
676.65	494.44
676.99	491.75
677.33	488.87
677.67	486.12
678.01	483.05
678.34	480.00
678.68	477.14
679.02	474.37
679.36	471.62
679.70	468.89
680.04	466.09
680.37	463.24
680.71	460.45
681.05	457.83
681.39	455.12
681.73	452.46
682.06	449.92
682.40	447.40
682.74	444.86
683.08	442.28
683.42	439.72
683.75	437.18
684.09	434.61
684.43	432.15
684.77	429.67
685.10	427.34
685.44	425.10
685.78	422.85
686.12	420.59
686.45	418.27
686.79	415.94
687.13	413.76
687.46	411.60
687.80	409.42
688.14	407.21
688.48	405.14
688.81	402.87
689.15	400.70
689.49	398.55
689.82	396.45
690.16	394.41
690.50	392.47
690.83	390.55
691.17	388.54
691.51	386.66
691.84	384.86
692.18	382.92
692.52	380.90
692.85	378.98
693.19	377.11
693.52	375.31
693.86	373.61
694.20	371.87
694.53	370.07
694.87	368.23
695.21	366.43
695.54	364.60
695.88	362.88
696.21	361.19
696.55	359.54
696.88	357.91
697.22	356.29
697.56	354.66
697.89	352.98
698.23	351.41
698.56	349.75
698.90	348.10
699.23	346.43
699.57	344.88
699.90	343.33
700.24	341.80
700.58	340.26
700.91	338.72
701.25	337.27
701.58	335.94
701.92	334.61
702.25	333.24
702.59	331.86
702.92	330.53
703.26	329.22
703.59	327.94
703.93	326.75
704.26	325.50
704.60	324.17
704.93	322.92
705.26	321.69
705.60	320.53
705.93	319.42
706.27	318.40
706.60	317.38
706.94	316.28
707.27	315.13
707.61	314.05
707.94	313.05
708.27	311.91
708.61	310.81
708.94	309.79
709.28	308.78
709.61	307.84
709.94	306.87
710.28	305.84
710.61	304.85
710.95	303.75
711.28	302.80
711.61	301.88
711.95	300.96
712.28	300.00
712.61	298.99
712.95	298.02
713.28	297.14
713.61	296.23
713.95	295.35
714.28	294.53
714.61	293.67
714.95	292.81
715.28	291.98
715.61	291.11
715.95	290.22
716.28	289.39
716.61	288.51
716.95	287.73
717.28	287.00
717.61	286.22
717.94	285.53
718.28	284.75
718.61	284.01
718.94	283.32
719.27	282.64
719.61	281.99
719.94	281.31
720.27	280.60
720.60	279.94
720.94	279.29
721.27	278.70
721.60	278.13
721.93	277.49
722.27	276.94
722.60	276.34
722.93	275.82
723.26	275.25
723.59	274.73
723.93	274.12
724.26	273.60
724.59	273.04
724.92	272.49
725.25	271.98
725.59	271.48
725.92	270.93
726.25	270.48
726.58	270.00
726.91	269.53
727.24	269.07
727.57	268.62
727.91	268.13
728.24	267.66
728.57	267.18
728.90	266.71
729.23	266.23
729.56	265.85
729.89	265.38
730.22	264.90
730.55	264.43
730.89	264.05
731.22	263.57
731.55	263.15
731.88	262.73
732.21	262.30
732.54	261.86
732.87	261.47
733.20	261.03
733.53	260.65
733.86	260.28
734.19	259.87
734.52	259.48
734.85	259.16
735.18	258.73
735.51	258.35
735.84	257.95
736.17	257.60
736.50	257.15
736.83	256.92
737.16	256.59
737.49	256.26
737.82	255.90
738.15	255.56
738.48	255.21
738.81	254.86
739.14	254.53
739.47	254.19
739.80	253.89
740.13	253.61
740.46	253.27
740.79	252.94
741.12	252.65
741.45	252.30
741.78	251.93
742.11	251.63
742.44	251.31
742.77	251.02
743.10	250.72
743.43	250.41
743.75	249.99
744.08	249.86
744.41	249.59
744.74	249.27
745.07	248.98
745.40	248.76
745.73	248.55
746.06	248.30
746.39	248.06
746.71	247.78
747.04	247.47
747.37	247.20
747.70	246.96
748.03	246.68
748.36	246.47
748.68	246.24
749.01	246.00
749.34	245.76
749.67	245.56
750.00	245.34
750.33	245.24
750.65	245.06
750.98	244.69
751.31	244.45
751.64	244.28
751.97	244.13
752.29	243.87
752.62	243.59
752.95	243.35
753.28	243.09
753.60	242.84
753.93	242.70
754.26	242.50
754.59	242.25
754.91	242.06
755.24	241.82
755.57	241.63
755.90	241.46
756.22	241.27
756.55	241.07
756.88	240.86
757.20	240.60
757.53	240.38
757.86	240.23
758.19	240.06
758.51	239.87
758.84	239.61
759.17	239.45
759.49	239.30
759.82	239.20
760.15	239.06
760.47	238.96
760.80	238.78
761.13	238.67
761.45	238.53
761.78	238.42
762.11	238.33
762.43	238.19
762.76	238.07
763.08	237.97
763.41	237.82
763.74	237.70
764.06	237.58
764.39	237.46
764.71	237.32
765.04	237.17
765.37	237.03
765.69	236.93
766.02	236.82
766.34	236.70
766.67	236.56
767.00	236.52
767.32	236.45
767.65	236.39
767.97	236.26
768.30	236.13
768.62	236.02
768.95	235.91
769.27	235.80
769.60	235.70
769.92	235.57
770.25	235.48
770.57	235.38
770.90	235.29
771.22	235.21
771.55	235.13
771.87	235.07
772.20	235.00
772.52	235.01
772.85	235.05
773.17	234.97
773.50	234.83
773.82	234.70
774.15	234.56
774.47	234.41
774.80	234.31
775.12	234.26
775.45	234.13
775.77	234.02
776.09	233.96
776.42	233.88
776.74	233.85
777.07	233.78
777.39	233.71
777.72	233.60
778.04	233.53
778.36	233.44
778.69	233.37
779.01	233.31
779.33	233.18
779.66	232.97
779.98	232.88
780.31	232.82
780.63	232.77
780.95	232.73
781.28	232.66
781.60	232.61
781.92	232.56
782.25	232.51
782.57	232.43
782.89	232.36
783.22	232.28
783.54	232.14
783.86	232.07
784.19	232.01
784.51	231.98
784.83	231.93
785.16	231.87
785.48	231.83
785.80	231.78
786.12	231.73
786.45	231.69
786.77	231.65
787.09	231.60
787.42	231.55
787.74	231.54
788.06	231.51
788.38	231.46
788.71	231.37
789.03	231.36
789.35	231.35
789.67	231.30
789.99	231.26
790.32	231.25
790.64	231.21
790.96	231.20
791.28	231.10
791.61	231.02
791.93	230.95
792.25	230.87
792.57	230.88
792.89	230.80
793.21	230.77
793.54	230.74
793.86	230.67
794.18	230.62
794.50	230.54
794.82	230.48
795.14	230.41
795.47	230.40
795.79	230.36
796.11	230.29
796.43	230.24
796.75	230.22
797.07	230.21
797.39	230.17
797.71	230.08
798.04	230.09
798.36	230.06
798.68	230.07
799.00	230.07
799.32	229.98
799.64	229.98
799.96	229.95
800.28	229.92
800.60	229.87
800.92	229.85
801.24	229.80
801.56	229.81
801.89	229.80
802.21	229.76
802.53	229.74
802.85	229.73
803.17	229.78
803.49	229.73
803.81	229.69
804.13	229.67
804.45	229.66
804.77	229.65
805.09	229.64
805.41	229.60
805.73	229.53
806.05	229.49
806.37	229.45
806.69	229.42
807.01	229.41
807.33	229.44
807.65	229.39
807.97	229.42
808.28	229.36
808.60	229.34
808.92	229.33
809.24	229.35
809.56	229.32
809.88	229.25
810.20	229.24
810.52	229.24
810.84	229.21
811.16	229.20
811.48	229.16
811.80	229.15
812.12	229.11
812.43	229.13
812.75	229.13
813.07	229.11
813.39	229.11
813.71	229.05
814.03	229.01
814.35	229.02
814.67	228.95
814.98	228.92
815.30	228.89
815.62	228.84
815.94	228.74
816.26	228.75
816.58	228.69
816.89	228.67
817.21	228.61
817.53	228.57
817.85	228.54
818.17	228.51
818.48	228.48
818.80	228.46
819.12	228.41
819.44	228.34
819.76	228.33
820.07	228.28
820.39	228.25
820.71	228.24
821.03	228.20
821.34	228.18
821.66	228.17
821.98	228.15
822.30	228.13
822.61	228.17
822.93	228.08
823.25	228.07
823.57	228.04
823.88	228.04
824.20	228.01
824.52	228.00
824.83	228.00
825.15	227.96
825.47	227.96
825.79	227.96
826.10	227.96
826.42	227.94
826.74	227.92
827.05	227.91
827.37	227.94
827.69	227.91
828.00	227.91
828.32	227.89
828.64	227.86
828.95	227.90
829.27	227.90
829.58	227.91
829.90	227.91
830.22	227.88
830.53	227.84
830.85	227.85
831.17	227.80
831.48	227.79
831.80	227.80
832.11	227.77
832.43	227.77
832.75	227.77
833.06	227.81
833.38	227.84
833.69	227.86
834.01	227.84
834.32	227.82
834.64	227.80
834.96	227.83
835.27	227.84
835.59	227.83
835.90	227.80
836.22	227.80
836.53	227.81
836.85	227.80
837.16	227.90
837.48	227.91
837.79	227.96
838.11	227.99
838.42	227.98
838.74	227.99
839.05	227.95
839.37	227.94
839.68	227.88
840.00	227.83
840.31	227.82
840.63	227.80
840.94	227.80
841.26	227.81
841.57	227.78
841.88	227.78
842.20	227.77
842.51	227.74
842.83	227.76
843.14	227.84
843.46	227.83
843.77	227.82
844.08	227.78
844.40	227.76
844.71	227.74
845.03	227.75
845.34	227.77
845.65	227.77
845.97	227.78
846.28	227.79
846.60	227.80
846.91	227.80
847.22	227.77
847.54	227.79
847.85	227.79
848.16	227.77
848.48	227.75
848.79	227.78
849.10	227.81
849.42	227.83
849.73	227.75
850.04	227.78
850.36	227.70
850.67	227.74
850.98	227.72
851.30	227.71
851.61	227.69
851.92	227.66
852.23	227.69
852.55	227.67
852.86	227.66
853.17	227.68
853.49	227.71
853.80	227.73
854.11	227.74
854.42	227.74
854.74	227.73
855.05	227.75
855.36	227.65
855.67	227.64
855.99	227.60
856.30	227.70
856.61	227.63
856.92	227.62
857.23	227.60
857.55	227.59
857.86	227.57
858.17	227.55
858.48	227.54
858.79	227.51
859.11	227.52
859.42	227.51
859.73	227.46
860.04	227.43
860.35	227.41
860.66	227.37
860.98	227.37
861.29	227.37
861.60	227.34
861.91	227.37
862.22	227.35
862.53	227.32
862.84	227.18
863.16	227.21
863.47	227.20
863.78	227.17
864.09	227.15
864.40	227.13
864.71	227.17
865.02	227.21
865.33	227.18
865.64	227.18
865.95	227.15
866.27	227.19
866.58	227.14
866.89	227.15
867.20	227.13
867.51	227.08
867.82	227.06
868.13	227.11
868.44	227.07
868.75	227.09
869.06	227.10
869.37	227.13
869.68	227.11
869.99	227.11
870.30	227.12
870.61	227.17
870.92	227.17
871.23	227.09
871.54	227.08
871.85	227.11
872.16	227.09
872.47	227.09
872.78	227.09
873.09	227.11
873.40	227.08
873.71	227.10
874.02	227.14
874.33	227.16
874.64	227.14
874.95	227.17
875.26	227.18
875.56	227.16
875.87	227.17
876.18	227.16
876.49	227.25
876.80	227.27
877.11	227.25
877.42	227.26
877.73	227.29
878.04	227.27
878.35	227.27
878.66	227.30
878.96	227.32
879.27	227.30
879.58	227.30
879.89	227.33
880.20	227.38
880.51	227.37
880.82	227.39
881.12	227.38
881.43	227.37
881.74	227.32
882.05	227.33
882.36	227.32
882.67	227.36
882.97	227.29
883.28	227.28
883.59	227.26
883.90	227.30
884.21	227.31
884.51	227.33
884.82	227.32
885.13	227.30
885.44	227.28
885.74	227.28
886.05	227.31
886.36	227.30
886.67	227.29
886.98	227.31
887.28	227.31
887.59	227.29
887.90	227.28
888.20	227.31
888.51	227.35
888.82	227.33
889.13	227.33
889.43	227.41
889.74	227.41
890.05	227.41
890.35	227.37
890.66	227.36
890.97	227.32
891.28	227.29
891.58	227.32
891.89	227.30
892.20	227.31
892.50	227.27
892.81	227.23
893.12	227.15
893.42	227.14
893.73	227.14
894.04	227.16
894.34	227.17
894.65	227.13
894.95	227.10
895.26	227.11
895.57	227.16
895.87	227.07
896.18	227.04
896.48	227.05
896.79	227.05
897.10	227.09
897.40	227.10
897.71	227.12
898.01	227.11
898.32	227.13
898.63	227.06
898.93	227.08
899.24	227.09
899.54	227.09
899.85	227.07
900.15	227.06
900.46	227.04
900.76	227.04
901.07	227.03
901.38	227.00
901.68	227.00
901.99	226.92
902.29	226.88
902.60	226.88
902.90	226.84
903.21	226.82
903.51	226.75
903.82	226.78
904.12	226.77
904.43	226.77
904.73	226.78
905.03	226.85
905.34	226.95
905.64	226.92
905.95	226.95
906.25	226.94
906.56	226.92
906.86	226.90
907.17	226.89
907.47	226.93
907.77	226.93
908.08	226.92
908.38	226.93
908.69	226.96
908.99	227.01
909.30	227.07
909.60	227.09
909.90	227.10
910.21	227.07
910.51	227.05
910.81	227.05
911.12	227.05
911.42	227.06
911.73	226.91
912.03	226.96
912.33	226.99
912.64	227.00
912.94	227.00
913.24	227.02
913.55	227.03
913.85	227.02
914.15	227.04
914.46	227.06
914.76	227.06
915.06	227.07
915.37	227.05
915.67	227.03
915.97	227.06
916.27	227.08
916.58	227.07
916.88	227.10
917.18	227.09
917.49	227.16
917.79	227.13
918.09	227.17
918.39	227.16
918.70	227.13
919.00	227.12
919.30	227.17
919.60	227.17
919.91	227.12
920.21	227.13
920.51	227.09
920.81	227.09
921.12	227.12
921.42	227.13
921.72	227.11
922.02	227.11
922.32	227.09
922.63	227.05
922.93	227.11
923.23	227.12
923.53	227.09
923.83	227.03
924.13	227.04
924.44	227.05
924.74	227.10
925.04	227.12
925.34	227.10
925.64	227.07
925.94	227.04
926.24	227.12
926.55	227.11
926.85	227.16
927.15	227.15
927.45	227.13
927.75	227.12
928.05	227.10
928.35	227.06
928.65	227.07
928.95	227.08
929.26	227.02
929.56	227.06
929.86	227.07
930.16	227.05
930.46	227.02
930.76	227.00
931.06	226.89
931.36	226.88
931.66	226.88
931.96	226.86
932.26	226.85
932.56	226.81
932.86	226.79
933.16	226.78
933.46	226.72
933.76	226.69
934.06	226.67
934.36	226.71
934.66	226.70
934.96	226.65
935.26	226.67
935.56	226.71
935.86	226.65
936.16	226.64
936.46	226.58
936.76	226.59
937.06	226.59
937.36	226.63
937.66	226.61
937.96	226.61
938.26	226.59
938.56	226.60
938.86	226.60
939.16	226.63
939.46	226.63
939.76	226.65
940.06	226.64
940.35	226.64
940.65	226.61
940.95	226.63
941.25	226.61
941.55	226.60
941.85	226.59
942.15	226.61
942.45	226.61
942.75	226.67
943.04	226.67
943.34	226.67
943.64	226.65
943.94	226.67
944.24	226.70
944.54	226.69
944.84	226.66
945.13	226.62
945.43	226.60
945.73	226.54
946.03	226.57
946.33	226.55
946.62	226.55
946.92	226.56
947.22	226.58
947.52	226.62
947.82	226.64
948.11	226.62
948.41	226.60
948.71	226.58
949.01	226.58
949.31	226.55
949.60	226.55
949.90	226.59
950.20	226.58
950.50	226.58
950.79	226.61
951.09	226.64
951.39	226.68
951.69	226.70
951.98	226.78
952.28	226.75
952.58	226.79
952.87	226.80
953.17	226.76
953.47	226.74
953.76	226.76
954.06	226.72
954.36	226.72
954.66	226.72
954.95	226.74
955.25	226.74
955.55	226.79
955.84	226.79
956.14	226.77
956.44	226.74
956.73	226.72
957.03	226.71
957.32	226.72
957.62	226.72
957.92	226.72
958.21	226.68
958.51	226.79
958.81	226.80
959.10	226.84
959.40	226.87
959.69	226.89
959.99	226.89
960.29	226.89
960.58	226.86
960.88	226.93
961.17	226.95
961.47	226.97
961.76	226.95
962.06	226.94
962.36	226.87
962.65	226.93
962.95	226.90
963.24	226.90
963.54	226.89
963.83	226.88
964.13	226.88
964.42	226.88
964.72	226.83
965.01	226.81
965.31	226.77
965.60	226.77
965.90	226.82
966.19	226.80
966.49	226.82
966.78	226.84
967.08	226.79
967.37	226.77
967.67	226.74
967.96	226.75
968.26	226.76
968.55	226.81
968.85	226.78
969.14	226.81
969.43	226.83
969.73	226.79
970.02	226.81
970.32	226.78
970.61	226.76
970.91	226.70
971.20	226.67
971.49	226.66
971.79	226.67
972.08	226.58
972.38	226.54
972.67	226.50
972.96	226.48
973.26	226.46
973.55	226.49
973.85	226.47
974.14	226.49
974.43	226.50
974.73	226.48
975.02	226.50
975.31	226.50
975.61	226.48
975.90	226.50
976.19	226.46
976.49	226.47
976.78	226.47
977.07	226.44
977.37	226.45
977.66	226.46
977.95	226.45
978.24	226.48
978.54	226.52
978.83	226.52
979.12	226.54
979.42	226.54
979.71	226.52
980.00	226.51
980.29	226.49
980.59	226.47
980.88	226.51
981.17	226.51
981.46	226.53
981.76	226.52
982.05	226.54
982.34	226.58
982.63	226.56
982.93	226.54
983.22	226.60
983.51	226.63
983.80	226.65
984.09	226.67
984.39	226.69
984.68	226.69
984.97	226.71
985.26	226.70
985.55	226.72
985.85	226.72
986.14	226.73
986.43	226.73
986.72	226.72
987.01	226.72
987.30	226.70
987.59	226.66
987.89	226.69
988.18	226.66
988.47	226.65
988.76	226.68
989.05	226.74
989.34	226.73
989.63	226.78
989.92	226.76
990.22	226.73
990.51	226.72
990.80	226.73
991.09	226.77
991.38	226.76
991.67	226.76
991.96	226.77
992.25	226.77
992.54	226.77
992.83	226.81
993.12	226.80
993.41	226.84
993.70	226.90
993.99	226.92
994.28	226.96
994.58	226.97
994.87	226.95
995.16	226.94
995.45	226.95
995.74	226.93
996.03	226.92
996.32	226.97
996.61	227.03
996.90	227.01
997.19	226.99
997.48	227.02
997.77	227.02
998.06	227.01
998.34	227.06
998.63	227.05
998.92	227.04
999.21	227.04
999.50	227.03
999.79	226.98
1000.08	226.97
1000.37	226.96
1000.66	226.95
1000.95	227.02
1001.24	227.01
1001.53	227.01
1001.82	226.98
1002.11	227.00
1002.40	226.98
1002.68	227.00
1002.97	227.08
1003.26	227.06
1003.55	227.03
1003.84	227.02
1004.13	227.06
1004.42	227.03
1004.71	227.03
1004.99	227.02
1005.28	227.05
1005.57	227.01
1005.86	227.01
1006.15	227.01
1006.44	227.00
1006.72	226.99
1007.01	226.94
1007.30	226.93
1007.59	226.93
1007.88	226.90
1008.17	226.89
1008.45	226.85
1008.74	226.76
1009.03	226.69
1009.32	226.69
1009.60	226.68
1009.89	226.68
1010.18	226.62
1010.47	226.64
1010.76	226.61
1011.04	226.60
1011.33	226.58
1011.62	226.60
1011.91	226.58
1012.19	226.57
1012.48	226.55
1012.77	226.54
1013.05	226.56
1013.34	226.57
1013.63	226.54
1013.92	226.56
1014.20	226.56
1014.49	226.55
1014.78	226.56
1015.06	226.52
1015.35	226.53
1015.64	226.53
1015.92	226.54
1016.21	226.56
1016.50	226.50
1016.78	226.51
1017.07	226.50
1017.36	226.47
1017.64	226.48
1017.93	226.51
1018.22	226.49
1018.50	226.50
1018.79	226.53
1019.08	226.48
1019.36	226.48
1019.65	226.49
1019.93	226.51
1020.22	226.49
1020.51	226.55
1020.79	226.55
1021.08	226.43
1021.36	226.26
1021.65	226.82
1021.94	226.30
1022.22	226.75
1022.51	226.34
1022.79	227.21
1023.08	226.16
1023.36	227.61
1023.65	226.52
>>>>>End Processed Spectral Data<<<<<
