SpectraSuite Data File
++++++++++++++++++++++++++++++++++++
Date: Fri Feb 01 15:16:41 EST 2013
User: group
Dark Spectrum Present: No
Reference Spectrum Present: No
Number of Sampled Component Spectra: 1
Spectrometers: USB2E7196
Integration Time (usec): 35000 (USB2E7196)
Spectra Averaged: 100 (USB2E7196)
Boxcar Smoothing: 10 (USB2E7196)
Correct for Electrical Dark: No (USB2E7196)
Strobe/Lamp Enabled: No (USB2E7196)
Correct for Detector Non-linearity: No (USB2E7196)
Correct for Stray Light: No (USB2E7196)
Number of Pixels in Processed Spectrum: 2048
>>>>>Begin Processed Spectral Data<<<<<
339.09	0.00
339.48	214.98
339.86	216.60
340.24	217.77
340.63	219.67
341.01	222.65
341.39	222.33
341.78	223.73
342.16	225.04
342.54	225.19
342.93	213.61
343.31	224.41
343.69	224.97
344.07	225.44
344.46	225.86
344.84	226.24
345.22	226.46
345.60	226.70
345.99	226.88
346.37	226.99
346.75	227.09
347.13	227.14
347.52	227.19
347.90	227.30
348.28	227.33
348.66	227.40
349.05	227.39
349.43	227.44
349.81	227.49
350.19	227.53
350.57	227.55
350.96	227.64
351.34	227.71
351.72	227.77
352.10	227.86
352.48	227.93
352.87	227.97
353.25	228.01
353.63	228.07
354.01	228.13
354.39	228.20
354.77	228.27
355.15	228.36
355.54	228.41
355.92	228.39
356.30	228.46
356.68	228.57
357.06	228.63
357.44	228.64
357.82	228.68
358.20	228.72
358.58	228.79
358.97	228.83
359.35	228.92
359.73	229.00
360.11	229.03
360.49	229.08
360.87	229.13
361.25	229.19
361.63	229.24
362.01	229.27
362.39	229.27
362.77	229.29
363.15	229.30
363.53	229.31
363.91	229.34
364.29	229.34
364.67	229.25
365.05	229.27
365.43	229.27
365.81	229.28
366.19	229.34
366.57	229.37
366.95	229.36
367.33	229.32
367.71	229.28
368.09	229.28
368.47	229.25
368.85	229.20
369.23	229.18
369.61	229.13
369.99	229.11
370.37	229.09
370.75	229.13
371.13	229.04
371.51	228.99
371.89	228.97
372.27	228.91
372.65	228.87
373.03	228.81
373.41	228.78
373.78	228.72
374.16	228.61
374.54	228.56
374.92	228.48
375.30	228.41
375.68	228.30
376.06	228.27
376.44	228.23
376.82	228.17
377.19	228.10
377.57	228.03
377.95	227.96
378.33	227.90
378.71	227.78
379.09	227.76
379.47	227.71
379.84	227.62
380.22	227.56
380.60	227.48
380.98	227.39
381.36	227.30
381.73	227.23
382.11	227.17
382.49	227.04
382.87	226.96
383.25	226.90
383.62	226.98
384.00	226.87
384.38	226.82
384.76	226.79
385.13	226.80
385.51	226.74
385.89	226.66
386.27	226.61
386.64	226.56
387.02	226.52
387.40	226.48
387.78	226.47
388.15	226.42
388.53	226.38
388.91	226.38
389.29	226.37
389.66	226.35
390.04	226.32
390.42	226.31
390.79	226.33
391.17	226.30
391.55	226.22
391.92	226.21
392.30	226.21
392.68	226.18
393.05	226.17
393.43	226.20
393.81	226.21
394.18	226.23
394.56	226.26
394.94	226.32
395.31	226.34
395.69	226.40
396.06	226.43
396.44	226.49
396.82	226.54
397.19	226.67
397.57	226.72
397.95	226.79
398.32	226.87
398.70	226.96
399.07	227.07
399.45	227.14
399.82	227.24
400.20	227.29
400.58	227.38
400.95	227.41
401.33	227.49
401.70	227.69
402.08	227.78
402.45	227.86
402.83	227.97
403.20	228.07
403.58	228.17
403.95	228.34
404.33	228.50
404.71	228.62
405.08	228.76
405.46	228.91
405.83	229.04
406.21	229.20
406.58	229.35
406.96	229.47
407.33	229.62
407.70	229.82
408.08	230.10
408.45	230.35
408.83	230.60
409.20	230.83
409.58	230.99
409.95	231.27
410.33	231.52
410.70	231.77
411.08	232.10
411.45	232.40
411.82	232.66
412.20	232.98
412.57	233.38
412.95	233.68
413.32	234.09
413.69	234.52
414.07	234.94
414.44	235.38
414.82	235.89
415.19	236.44
415.56	236.97
415.94	237.53
416.31	238.18
416.68	238.81
417.06	239.51
417.43	240.19
417.81	240.95
418.18	241.76
418.55	242.59
418.93	243.48
419.30	244.34
419.67	245.30
420.04	246.28
420.42	247.27
420.79	248.48
421.16	249.64
421.54	250.84
421.91	252.08
422.28	253.35
422.66	254.69
423.03	256.03
423.40	257.40
423.77	258.74
424.15	260.13
424.52	261.62
424.89	263.22
425.26	264.78
425.64	266.23
426.01	267.83
426.38	269.42
426.75	271.04
427.13	272.82
427.50	274.64
427.87	276.50
428.24	278.37
428.61	280.08
428.99	282.02
429.36	284.12
429.73	286.13
430.10	288.15
430.47	290.22
430.85	292.34
431.22	294.60
431.59	297.06
431.96	299.31
432.33	301.81
432.70	304.23
433.08	307.04
433.45	309.68
433.82	312.30
434.19	315.23
434.56	318.10
434.93	320.77
435.30	323.36
435.68	326.32
436.05	329.14
436.42	331.94
436.79	334.50
437.16	337.23
437.53	340.13
437.90	342.95
438.27	345.65
438.64	348.49
439.01	351.04
439.38	353.27
439.75	355.42
440.13	357.92
440.50	360.25
440.87	362.15
441.24	364.14
441.61	366.30
441.98	367.80
442.35	369.60
442.72	371.45
443.09	373.30
443.46	374.24
443.83	374.83
444.20	375.35
444.57	376.14
444.94	376.41
445.31	376.67
445.68	377.01
446.05	377.08
446.42	376.67
446.79	376.29
447.16	375.84
447.53	375.55
447.90	374.30
448.27	373.12
448.64	371.50
449.01	370.35
449.37	368.37
449.74	366.47
450.11	364.22
450.48	361.72
450.85	359.22
451.22	357.10
451.59	355.07
451.96	353.12
452.33	350.52
452.70	348.12
453.07	345.30
453.43	342.38
453.80	339.62
454.17	336.94
454.54	334.35
454.91	331.60
455.28	328.90
455.65	326.47
456.02	324.08
456.38	321.91
456.75	319.21
457.12	316.94
457.49	314.74
457.86	312.56
458.23	310.70
458.59	308.57
458.96	306.49
459.33	304.64
459.70	302.78
460.07	301.24
460.43	299.53
460.80	297.95
461.17	296.52
461.54	295.01
461.91	293.57
462.27	292.12
462.64	290.88
463.01	289.50
463.38	288.19
463.74	286.76
464.11	285.58
464.48	284.55
464.85	283.45
465.21	282.54
465.58	281.58
465.95	280.49
466.32	279.63
466.68	278.67
467.05	277.77
467.42	276.84
467.78	275.93
468.15	275.04
468.52	274.34
468.88	273.47
469.25	272.70
469.62	272.09
469.98	271.41
470.35	270.78
470.72	270.18
471.08	269.50
471.45	268.97
471.82	268.41
472.18	267.82
472.55	267.37
472.92	266.83
473.28	266.42
473.65	265.97
474.02	265.52
474.38	265.17
474.75	264.81
475.11	264.50
475.48	264.21
475.85	264.01
476.21	263.75
476.58	263.59
476.94	263.47
477.31	263.28
477.67	263.13
478.04	262.99
478.41	262.96
478.77	263.01
479.14	262.96
479.50	262.98
479.87	263.04
480.23	263.14
480.60	263.23
480.96	263.27
481.33	263.43
481.69	263.61
482.06	263.81
482.42	264.05
482.79	264.32
483.15	264.63
483.52	264.98
483.88	265.37
484.25	265.77
484.61	266.14
484.98	266.61
485.34	267.16
485.71	267.77
486.07	268.37
486.44	268.93
486.80	269.61
487.17	270.33
487.53	271.14
487.90	271.98
488.26	272.93
488.62	273.95
488.99	274.96
489.35	276.03
489.72	277.16
490.08	278.33
490.44	279.57
490.81	280.88
491.17	282.22
491.54	283.70
491.90	285.22
492.26	286.90
492.63	288.61
492.99	290.38
493.36	292.24
493.72	294.29
494.08	296.41
494.45	298.69
494.81	301.07
495.17	303.50
495.54	306.05
495.90	308.71
496.26	311.48
496.63	314.43
496.99	317.53
497.35	320.79
497.72	324.19
498.08	327.64
498.44	331.30
498.80	335.24
499.17	339.27
499.53	343.42
499.89	347.75
500.26	352.24
500.62	356.91
500.98	361.88
501.34	366.94
501.71	372.25
502.07	377.65
502.43	383.20
502.79	388.99
503.16	395.06
503.52	401.34
503.88	407.70
504.24	414.32
504.60	421.19
504.97	428.31
505.33	435.61
505.69	443.30
506.05	451.12
506.41	459.01
506.78	467.19
507.14	475.64
507.50	484.39
507.86	493.42
508.22	502.59
508.59	511.80
508.95	521.39
509.31	531.22
509.67	541.34
510.03	551.67
510.39	562.21
510.75	573.04
511.12	583.98
511.48	595.30
511.84	606.77
512.20	618.23
512.56	630.15
512.92	642.38
513.28	654.75
513.64	667.19
514.00	679.87
514.37	692.77
514.73	705.85
515.09	718.81
515.45	732.09
515.81	745.71
516.17	759.66
516.53	773.76
516.89	787.88
517.25	802.06
517.61	816.53
517.97	831.05
518.33	845.45
518.69	860.23
519.05	875.26
519.41	890.40
519.77	906.07
520.13	921.60
520.49	937.00
520.85	952.50
521.21	968.31
521.57	984.55
521.93	1000.40
522.29	1016.83
522.65	1033.26
523.01	1049.57
523.37	1065.61
523.73	1081.91
524.09	1098.00
524.45	1114.49
524.81	1131.15
525.17	1148.02
525.53	1165.04
525.89	1181.99
526.25	1198.86
526.61	1215.31
526.97	1232.08
527.33	1248.53
527.68	1265.17
528.04	1281.75
528.40	1298.50
528.76	1315.71
529.12	1332.35
529.48	1349.29
529.84	1365.42
530.20	1382.11
530.56	1399.09
530.91	1416.67
531.27	1433.44
531.63	1450.02
531.99	1466.59
532.35	1482.54
532.71	1498.35
533.07	1514.69
533.42	1530.61
533.78	1546.72
534.14	1563.11
534.50	1578.48
534.86	1594.45
535.21	1609.59
535.57	1625.61
535.93	1641.09
536.29	1655.83
536.65	1671.07
537.00	1685.88
537.36	1701.23
537.72	1715.84
538.08	1730.31
538.44	1744.11
538.79	1758.09
539.15	1771.98
539.51	1785.74
539.87	1800.26
540.22	1814.14
540.58	1827.97
540.94	1841.45
541.29	1854.48
541.65	1867.30
542.01	1880.71
542.37	1893.02
542.72	1905.50
543.08	1917.25
543.44	1929.79
543.79	1941.07
544.15	1952.11
544.51	1963.66
544.87	1974.81
545.22	1985.60
545.58	1995.82
545.94	2005.53
546.29	2015.44
546.65	2025.16
547.01	2034.52
547.36	2043.38
547.72	2051.94
548.07	2059.72
548.43	2067.95
548.79	2075.94
549.14	2083.36
549.50	2090.78
549.86	2098.62
550.21	2105.94
550.57	2113.16
550.92	2119.60
551.28	2126.67
551.64	2133.69
551.99	2140.24
552.35	2146.28
552.70	2152.40
553.06	2158.53
553.41	2165.04
553.77	2171.11
554.13	2177.14
554.48	2183.26
554.84	2188.55
555.19	2193.94
555.55	2199.15
555.90	2203.55
556.26	2208.45
556.61	2213.17
556.97	2217.35
557.32	2221.38
557.68	2225.61
558.03	2229.94
558.39	2233.75
558.74	2238.35
559.10	2242.29
559.45	2245.99
559.81	2250.30
560.16	2254.12
560.52	2257.32
560.87	2260.77
561.23	2263.30
561.58	2266.32
561.94	2268.76
562.29	2271.27
562.64	2273.73
563.00	2276.31
563.35	2279.94
563.71	2282.99
564.06	2286.19
564.42	2289.08
564.77	2291.58
565.12	2293.62
565.48	2295.37
565.83	2297.10
566.19	2298.40
566.54	2299.16
566.89	2300.31
567.25	2300.84
567.60	2302.08
567.96	2303.63
568.31	2304.24
568.66	2305.32
569.02	2305.83
569.37	2306.19
569.72	2306.90
570.08	2306.93
570.43	2306.83
570.78	2306.09
571.14	2304.58
571.49	2303.25
571.84	2302.88
572.20	2301.57
572.55	2300.69
572.90	2299.16
573.26	2297.74
573.61	2295.71
573.96	2293.88
574.31	2290.85
574.67	2287.78
575.02	2284.06
575.37	2280.67
575.72	2276.94
576.08	2273.72
576.43	2270.37
576.78	2266.61
577.13	2263.38
577.49	2260.34
577.84	2256.79
578.19	2252.92
578.54	2249.10
578.90	2244.70
579.25	2239.05
579.60	2234.07
579.95	2229.08
580.30	2223.87
580.66	2218.59
581.01	2213.85
581.36	2208.84
581.71	2204.46
582.06	2199.86
582.42	2195.38
582.77	2190.12
583.12	2185.29
583.47	2180.14
583.82	2174.84
584.17	2169.37
584.53	2163.71
584.88	2157.97
585.23	2151.99
585.58	2146.43
585.93	2140.92
586.28	2136.06
586.63	2130.79
586.98	2125.70
587.34	2120.82
587.69	2115.97
588.04	2110.55
588.39	2104.68
588.74	2098.15
589.09	2092.02
589.44	2085.10
589.79	2078.92
590.14	2073.10
590.49	2066.58
590.84	2060.24
591.19	2054.16
591.54	2047.61
591.89	2040.11
592.25	2033.23
592.60	2026.01
592.95	2018.33
593.30	2010.91
593.65	2003.11
594.00	1995.95
594.35	1988.60
594.70	1980.34
595.05	1972.86
595.40	1965.71
595.75	1958.22
596.10	1951.89
596.45	1944.86
596.80	1938.57
597.15	1931.90
597.50	1924.78
597.85	1918.29
598.19	1911.58
598.54	1904.55
598.89	1897.95
599.24	1892.03
599.59	1885.16
599.94	1878.81
600.29	1872.39
600.64	1865.76
600.99	1858.23
601.34	1851.40
601.69	1844.42
602.04	1837.51
602.39	1830.24
602.74	1823.20
603.08	1816.36
603.43	1809.70
603.78	1802.50
604.13	1795.33
604.48	1787.88
604.83	1781.00
605.18	1773.86
605.53	1765.90
605.87	1757.86
606.22	1750.59
606.57	1742.64
606.92	1735.33
607.27	1728.28
607.62	1721.33
607.96	1713.98
608.31	1707.40
608.66	1699.77
609.01	1692.02
609.36	1684.57
609.70	1676.41
610.05	1668.27
610.40	1660.50
610.75	1652.02
611.10	1644.34
611.44	1636.03
611.79	1628.10
612.14	1619.44
612.49	1610.43
612.83	1602.08
613.18	1594.01
613.53	1586.01
613.88	1577.54
614.22	1569.35
614.57	1560.77
614.92	1552.72
615.27	1545.17
615.61	1536.94
615.96	1528.90
616.31	1521.35
616.65	1513.97
617.00	1506.54
617.35	1498.96
617.70	1490.61
618.04	1482.18
618.39	1474.01
618.74	1466.35
619.08	1458.12
619.43	1450.47
619.78	1443.53
620.12	1436.20
620.47	1428.70
620.82	1420.53
621.16	1413.01
621.51	1405.29
621.85	1397.57
622.20	1389.15
622.55	1380.81
622.89	1372.95
623.24	1365.46
623.59	1358.11
623.93	1350.53
624.28	1343.36
624.62	1335.85
624.97	1328.78
625.32	1322.04
625.66	1314.88
626.01	1307.61
626.35	1300.11
626.70	1292.35
627.04	1284.48
627.39	1276.83
627.73	1269.26
628.08	1262.21
628.43	1254.93
628.77	1247.52
629.12	1239.98
629.46	1232.79
629.81	1225.40
630.15	1218.12
630.50	1210.65
630.84	1202.54
631.19	1194.66
631.53	1187.21
631.88	1179.61
632.22	1172.05
632.57	1164.77
632.91	1157.29
633.26	1149.94
633.60	1142.70
633.95	1135.78
634.29	1128.85
634.64	1122.08
634.98	1114.79
635.32	1107.75
635.67	1101.20
636.01	1094.72
636.36	1087.97
636.70	1081.53
637.05	1074.95
637.39	1068.51
637.73	1062.04
638.08	1056.16
638.42	1050.14
638.77	1043.54
639.11	1037.01
639.45	1030.60
639.80	1023.87
640.14	1017.51
640.49	1010.98
640.83	1004.66
641.17	998.29
641.52	992.01
641.86	985.69
642.20	979.81
642.55	973.51
642.89	967.00
643.23	960.41
643.58	954.62
643.92	948.33
644.26	942.25
644.61	936.29
644.95	930.25
645.29	923.65
645.64	916.92
645.98	910.65
646.32	904.82
646.66	898.79
647.01	893.12
647.35	887.46
647.69	881.70
648.04	876.19
648.38	870.39
648.72	864.27
649.06	858.18
649.41	852.28
649.75	846.26
650.09	840.33
650.43	834.57
650.78	828.41
651.12	822.56
651.46	816.84
651.80	811.05
652.14	805.59
652.49	800.24
652.83	795.08
653.17	789.37
653.51	783.58
653.85	778.25
654.20	772.58
654.54	766.54
654.88	760.86
655.22	754.94
655.56	749.28
655.90	743.91
656.25	738.68
656.59	733.43
656.93	728.41
657.27	723.35
657.61	717.94
657.95	712.87
658.29	707.76
658.64	702.60
658.98	697.35
659.32	691.98
659.66	686.76
660.00	681.49
660.34	676.57
660.68	671.71
661.02	666.66
661.36	661.88
661.70	657.39
662.05	652.94
662.39	648.64
662.73	644.24
663.07	639.91
663.41	635.51
663.75	631.01
664.09	626.49
664.43	622.04
664.77	618.00
665.11	613.82
665.45	609.72
665.79	605.63
666.13	601.53
666.47	597.41
666.81	593.31
667.15	589.20
667.49	585.36
667.83	581.61
668.17	577.68
668.51	573.65
668.85	569.69
669.19	565.87
669.53	561.98
669.87	558.11
670.21	554.34
670.55	550.72
670.89	547.28
671.23	543.88
671.57	540.42
671.91	536.87
672.25	533.35
672.58	529.82
672.92	526.48
673.26	523.32
673.60	520.21
673.94	517.09
674.28	514.25
674.62	511.37
674.96	508.25
675.30	505.35
675.64	502.53
675.97	499.80
676.31	496.95
676.65	494.14
676.99	491.40
677.33	488.52
677.67	485.69
678.01	482.68
678.34	479.66
678.68	476.76
679.02	473.95
679.36	471.17
679.70	468.48
680.04	465.66
680.37	462.78
680.71	460.08
681.05	457.41
681.39	454.65
681.73	451.95
682.06	449.43
682.40	446.90
682.74	444.31
683.08	441.76
683.42	439.16
683.75	436.68
684.09	434.15
684.43	431.77
684.77	429.30
685.10	426.99
685.44	424.69
685.78	422.40
686.12	420.16
686.45	417.94
686.79	415.65
687.13	413.46
687.46	411.33
687.80	409.12
688.14	406.95
688.48	404.87
688.81	402.65
689.15	400.46
689.49	398.31
689.82	396.24
690.16	394.15
690.50	392.21
690.83	390.27
691.17	388.33
691.51	386.41
691.84	384.59
692.18	382.61
692.52	380.63
692.85	378.74
693.19	376.89
693.52	375.03
693.86	373.23
694.20	371.49
694.53	369.68
694.87	367.87
695.21	366.13
695.54	364.31
695.88	362.58
696.21	360.92
696.55	359.28
696.88	357.62
697.22	355.98
697.56	354.38
697.89	352.67
698.23	351.08
698.56	349.52
698.90	347.96
699.23	346.30
699.57	344.81
699.90	343.29
700.24	341.74
700.58	340.20
700.91	338.74
701.25	337.29
701.58	335.95
701.92	334.60
702.25	333.19
702.59	331.88
702.92	330.56
703.26	329.29
703.59	328.05
703.93	326.89
704.26	325.68
704.60	324.36
704.93	323.13
705.26	321.88
705.60	320.70
705.93	319.55
706.27	318.54
706.60	317.52
706.94	316.46
707.27	315.36
707.61	314.34
707.94	313.28
708.27	312.20
708.61	311.11
708.94	310.09
709.28	309.16
709.61	308.14
709.94	307.22
710.28	306.14
710.61	305.11
710.95	303.98
711.28	303.02
711.61	302.08
711.95	301.15
712.28	300.21
712.61	299.25
712.95	298.31
713.28	297.44
713.61	296.46
713.95	295.57
714.28	294.70
714.61	293.85
714.95	293.03
715.28	292.16
715.61	291.26
715.95	290.39
716.28	289.50
716.61	288.68
716.95	287.84
717.28	287.11
717.61	286.36
717.94	285.63
718.28	284.84
718.61	284.14
718.94	283.43
719.27	282.78
719.61	282.08
719.94	281.38
720.27	280.65
720.60	279.98
720.94	279.35
721.27	278.77
721.60	278.16
721.93	277.56
722.27	277.03
722.60	276.52
722.93	275.97
723.26	275.47
723.59	274.92
723.93	274.41
724.26	273.81
724.59	273.25
724.92	272.73
725.25	272.21
725.59	271.68
725.92	271.19
726.25	270.68
726.58	270.20
726.91	269.74
727.24	269.26
727.57	268.83
727.91	268.31
728.24	267.85
728.57	267.37
728.90	266.89
729.23	266.36
729.56	265.92
729.89	265.45
730.22	264.95
730.55	264.47
730.89	263.99
731.22	263.59
731.55	263.19
731.88	262.79
732.21	262.33
732.54	261.88
732.87	261.45
733.20	261.04
733.53	260.66
733.86	260.28
734.19	259.88
734.52	259.48
734.85	259.18
735.18	258.72
735.51	258.35
735.84	257.97
736.17	257.65
736.50	257.24
736.83	257.01
737.16	256.70
737.49	256.39
737.82	256.04
738.15	255.71
738.48	255.35
738.81	255.02
739.14	254.72
739.47	254.44
739.80	254.11
740.13	253.81
740.46	253.48
740.79	253.14
741.12	252.85
741.45	252.53
741.78	252.19
742.11	251.92
742.44	251.59
742.77	251.32
743.10	250.98
743.43	250.67
743.75	250.31
744.08	250.11
744.41	249.82
744.74	249.57
745.07	249.28
745.40	249.02
745.73	248.77
746.06	248.52
746.39	248.25
746.71	248.00
747.04	247.73
747.37	247.50
747.70	247.25
748.03	247.00
748.36	246.77
748.68	246.55
749.01	246.33
749.34	246.13
749.67	245.90
750.00	245.69
750.33	245.58
750.65	245.33
750.98	245.02
751.31	244.79
751.64	244.57
751.97	244.42
752.29	244.22
752.62	243.98
752.95	243.77
753.28	243.55
753.60	243.33
753.93	243.14
754.26	242.94
754.59	242.74
754.91	242.54
755.24	242.36
755.57	242.17
755.90	241.96
756.22	241.76
756.55	241.53
756.88	241.37
757.20	241.09
757.53	240.89
757.86	240.76
758.19	240.62
758.51	240.44
758.84	240.21
759.17	240.04
759.49	239.89
759.82	239.78
760.15	239.64
760.47	239.50
760.80	239.33
761.13	239.18
761.45	239.01
761.78	238.86
762.11	238.73
762.43	238.59
762.76	238.46
763.08	238.32
763.41	238.22
763.74	238.10
764.06	237.96
764.39	237.82
764.71	237.64
765.04	237.46
765.37	237.36
765.69	237.25
766.02	237.12
766.34	236.98
766.67	236.81
767.00	236.69
767.32	236.59
767.65	236.56
767.97	236.47
768.30	236.36
768.62	236.25
768.95	236.11
769.27	236.01
769.60	235.91
769.92	235.80
770.25	235.71
770.57	235.59
770.90	235.50
771.22	235.44
771.55	235.38
771.87	235.31
772.20	235.21
772.52	235.21
772.85	235.24
773.17	235.14
773.50	235.05
773.82	234.95
774.15	234.88
774.47	234.70
774.80	234.60
775.12	234.51
775.45	234.45
775.77	234.37
776.09	234.27
776.42	234.18
776.74	234.16
777.07	234.06
777.39	233.98
777.72	233.88
778.04	233.79
778.36	233.69
778.69	233.61
779.01	233.54
779.33	233.42
779.66	233.22
779.98	233.19
780.31	233.10
780.63	233.09
780.95	233.05
781.28	233.00
781.60	232.93
781.92	232.88
782.25	232.80
782.57	232.72
782.89	232.66
783.22	232.63
783.54	232.50
783.86	232.42
784.19	232.36
784.51	232.38
784.83	232.32
785.16	232.27
785.48	232.23
785.80	232.20
786.12	232.09
786.45	232.04
786.77	231.98
787.09	231.93
787.42	231.85
787.74	231.79
788.06	231.77
788.38	231.72
788.71	231.67
789.03	231.63
789.35	231.63
789.67	231.57
789.99	231.54
790.32	231.50
790.64	231.50
790.96	231.55
791.28	231.46
791.61	231.43
791.93	231.41
792.25	231.35
792.57	231.35
792.89	231.31
793.21	231.30
793.54	231.23
793.86	231.17
794.18	231.14
794.50	231.06
794.82	231.00
795.14	231.00
795.47	230.97
795.79	230.94
796.11	230.86
796.43	230.80
796.75	230.75
797.07	230.78
797.39	230.71
797.71	230.57
798.04	230.54
798.36	230.50
798.68	230.44
799.00	230.41
799.32	230.33
799.64	230.32
799.96	230.29
800.28	230.29
800.60	230.28
800.92	230.24
801.24	230.24
801.56	230.21
801.89	230.15
802.21	230.14
802.53	230.08
802.85	230.11
803.17	230.16
803.49	230.13
803.81	230.03
804.13	230.04
804.45	229.98
804.77	229.97
805.09	229.92
805.41	229.88
805.73	229.88
806.05	229.85
806.37	229.82
806.69	229.79
807.01	229.76
807.33	229.75
807.65	229.70
807.97	229.70
808.28	229.67
808.60	229.64
808.92	229.63
809.24	229.69
809.56	229.61
809.88	229.54
810.20	229.53
810.52	229.54
810.84	229.45
811.16	229.47
811.48	229.43
811.80	229.47
812.12	229.47
812.43	229.45
812.75	229.45
813.07	229.42
813.39	229.40
813.71	229.34
814.03	229.28
814.35	229.29
814.67	229.22
814.98	229.18
815.30	229.14
815.62	229.06
815.94	228.99
816.26	229.02
816.58	228.97
816.89	228.95
817.21	228.91
817.53	228.92
817.85	228.90
818.17	228.88
818.48	228.82
818.80	228.80
819.12	228.75
819.44	228.70
819.76	228.68
820.07	228.64
820.39	228.65
820.71	228.69
821.03	228.62
821.34	228.59
821.66	228.60
821.98	228.63
822.30	228.65
822.61	228.67
822.93	228.59
823.25	228.59
823.57	228.56
823.88	228.55
824.20	228.52
824.52	228.50
824.83	228.52
825.15	228.44
825.47	228.43
825.79	228.44
826.10	228.41
826.42	228.39
826.74	228.40
827.05	228.37
827.37	228.34
827.69	228.35
828.00	228.33
828.32	228.32
828.64	228.25
828.95	228.28
829.27	228.23
829.58	228.26
829.90	228.25
830.22	228.23
830.53	228.24
830.85	228.20
831.17	228.17
831.48	228.16
831.80	228.21
832.11	228.18
832.43	228.15
832.75	228.14
833.06	228.19
833.38	228.13
833.69	228.17
834.01	228.15
834.32	228.16
834.64	228.16
834.96	228.14
835.27	228.16
835.59	228.14
835.90	228.11
836.22	228.10
836.53	228.07
836.85	228.07
837.16	228.12
837.48	228.13
837.79	228.17
838.11	228.14
838.42	228.11
838.74	228.12
839.05	228.11
839.37	228.10
839.68	228.05
840.00	228.07
840.31	228.05
840.63	228.02
840.94	228.01
841.26	228.01
841.57	228.01
841.88	228.01
842.20	227.97
842.51	228.00
842.83	227.97
843.14	228.05
843.46	228.02
843.77	227.99
844.08	227.97
844.40	227.95
844.71	227.93
845.03	227.95
845.34	227.91
845.65	227.90
845.97	227.91
846.28	227.91
846.60	227.93
846.91	227.90
847.22	227.92
847.54	227.95
847.85	227.95
848.16	227.94
848.48	227.92
848.79	227.96
849.10	227.95
849.42	227.95
849.73	227.88
850.04	227.90
850.36	227.85
850.67	227.89
850.98	227.87
851.30	227.88
851.61	227.86
851.92	227.87
852.23	227.88
852.55	227.88
852.86	227.89
853.17	227.85
853.49	227.91
853.80	227.91
854.11	227.91
854.42	227.94
854.74	227.95
855.05	227.94
855.36	227.87
855.67	227.88
855.99	227.90
856.30	227.98
856.61	227.97
856.92	227.97
857.23	227.94
857.55	227.94
857.86	227.93
858.17	227.93
858.48	227.93
858.79	227.92
859.11	227.91
859.42	227.87
859.73	227.89
860.04	227.83
860.35	227.74
860.66	227.70
860.98	227.66
861.29	227.66
861.60	227.66
861.91	227.68
862.22	227.64
862.53	227.59
862.84	227.48
863.16	227.49
863.47	227.45
863.78	227.46
864.09	227.44
864.40	227.48
864.71	227.43
865.02	227.46
865.33	227.43
865.64	227.39
865.95	227.37
866.27	227.39
866.58	227.38
866.89	227.46
867.20	227.44
867.51	227.40
867.82	227.37
868.13	227.39
868.44	227.34
868.75	227.35
869.06	227.34
869.37	227.37
869.68	227.32
869.99	227.34
870.30	227.33
870.61	227.32
870.92	227.28
871.23	227.30
871.54	227.30
871.85	227.34
872.16	227.35
872.47	227.36
872.78	227.32
873.09	227.33
873.40	227.29
873.71	227.32
874.02	227.35
874.33	227.33
874.64	227.31
874.95	227.34
875.26	227.32
875.56	227.34
875.87	227.33
876.18	227.33
876.49	227.43
876.80	227.41
877.11	227.40
877.42	227.38
877.73	227.37
878.04	227.34
878.35	227.35
878.66	227.36
878.96	227.34
879.27	227.35
879.58	227.31
879.89	227.30
880.20	227.30
880.51	227.33
880.82	227.37
881.12	227.36
881.43	227.36
881.74	227.35
882.05	227.33
882.36	227.32
882.67	227.35
882.97	227.28
883.28	227.29
883.59	227.31
883.90	227.31
884.21	227.37
884.51	227.38
884.82	227.35
885.13	227.39
885.44	227.41
885.74	227.42
886.05	227.44
886.36	227.44
886.67	227.42
886.98	227.45
887.28	227.43
887.59	227.44
887.90	227.43
888.20	227.39
888.51	227.43
888.82	227.41
889.13	227.44
889.43	227.48
889.74	227.45
890.05	227.44
890.35	227.43
890.66	227.39
890.97	227.38
891.28	227.36
891.58	227.32
891.89	227.32
892.20	227.29
892.50	227.29
892.81	227.31
893.12	227.31
893.42	227.24
893.73	227.24
894.04	227.25
894.34	227.26
894.65	227.33
894.95	227.30
895.26	227.30
895.57	227.31
895.87	227.28
896.18	227.34
896.48	227.33
896.79	227.34
897.10	227.36
897.40	227.34
897.71	227.36
898.01	227.37
898.32	227.38
898.63	227.38
898.93	227.36
899.24	227.34
899.54	227.32
899.85	227.31
900.15	227.29
900.46	227.28
900.76	227.27
901.07	227.22
901.38	227.22
901.68	227.25
901.99	227.18
902.29	227.14
902.60	227.11
902.90	227.08
903.21	227.04
903.51	227.02
903.82	227.04
904.12	227.04
904.43	227.00
904.73	227.00
905.03	227.01
905.34	227.12
905.64	227.11
905.95	227.12
906.25	227.12
906.56	227.12
906.86	227.13
907.17	227.16
907.47	227.17
907.77	227.19
908.08	227.17
908.38	227.18
908.69	227.18
908.99	227.18
909.30	227.21
909.60	227.23
909.90	227.23
910.21	227.23
910.51	227.21
910.81	227.21
911.12	227.20
911.42	227.18
911.73	227.06
912.03	227.05
912.33	227.03
912.64	227.05
912.94	227.05
913.24	227.00
913.55	226.96
913.85	226.97
914.15	226.96
914.46	226.94
914.76	226.96
915.06	226.94
915.37	226.94
915.67	226.93
915.97	226.93
916.27	226.91
916.58	226.91
916.88	226.92
917.18	226.91
917.49	226.96
917.79	226.96
918.09	226.99
918.39	227.01
918.70	227.03
919.00	227.00
919.30	227.04
919.60	227.04
919.91	227.03
920.21	226.99
920.51	226.96
920.81	226.96
921.12	226.98
921.42	226.99
921.72	226.98
922.02	226.97
922.32	226.97
922.63	226.96
922.93	227.00
923.23	226.97
923.53	226.97
923.83	226.92
924.13	226.94
924.44	226.94
924.74	226.98
925.04	227.01
925.34	227.08
925.64	227.04
925.94	227.04
926.24	227.12
926.55	227.17
926.85	227.21
927.15	227.22
927.45	227.20
927.75	227.20
928.05	227.22
928.35	227.24
928.65	227.27
928.95	227.31
929.26	227.27
929.56	227.31
929.86	227.30
930.16	227.32
930.46	227.28
930.76	227.29
931.06	227.26
931.36	227.25
931.66	227.20
931.96	227.24
932.26	227.23
932.56	227.21
932.86	227.21
933.16	227.20
933.46	227.17
933.76	227.17
934.06	227.21
934.36	227.25
934.66	227.24
934.96	227.27
935.26	227.24
935.56	227.26
935.86	227.25
936.16	227.29
936.46	227.26
936.76	227.27
937.06	227.26
937.36	227.22
937.66	227.22
937.96	227.25
938.26	227.21
938.56	227.20
938.86	227.20
939.16	227.16
939.46	227.18
939.76	227.21
940.06	227.18
940.35	227.16
940.65	227.10
940.95	227.09
941.25	227.05
941.55	227.03
941.85	227.00
942.15	226.96
942.45	226.97
942.75	226.98
943.04	227.02
943.34	227.06
943.64	227.06
943.94	227.02
944.24	227.00
944.54	227.00
944.84	227.03
945.13	227.03
945.43	227.02
945.73	226.97
946.03	226.90
946.33	226.89
946.62	226.91
946.92	226.91
947.22	226.93
947.52	226.94
947.82	226.95
948.11	226.94
948.41	226.92
948.71	226.88
949.01	226.87
949.31	226.80
949.60	226.77
949.90	226.80
950.20	226.81
950.50	226.81
950.79	226.81
951.09	226.77
951.39	226.73
951.69	226.74
951.98	226.79
952.28	226.81
952.58	226.82
952.87	226.78
953.17	226.75
953.47	226.72
953.76	226.69
954.06	226.70
954.36	226.70
954.66	226.72
954.95	226.74
955.25	226.75
955.55	226.78
955.84	226.73
956.14	226.73
956.44	226.72
956.73	226.70
957.03	226.69
957.32	226.69
957.62	226.68
957.92	226.69
958.21	226.65
958.51	226.78
958.81	226.78
959.10	226.80
959.40	226.84
959.69	226.86
959.99	226.87
960.29	226.85
960.58	226.85
960.88	226.87
961.17	226.86
961.47	226.87
961.76	226.88
962.06	226.91
962.36	226.91
962.65	226.92
962.95	226.94
963.24	226.94
963.54	226.97
963.83	227.00
964.13	227.00
964.42	227.01
964.72	226.93
965.01	226.94
965.31	226.92
965.60	226.92
965.90	226.97
966.19	226.97
966.49	227.00
966.78	227.05
967.08	227.05
967.37	227.07
967.67	227.04
967.96	227.06
968.26	227.05
968.55	227.09
968.85	227.09
969.14	227.07
969.43	227.06
969.73	227.04
970.02	227.00
970.32	227.03
970.61	227.02
970.91	226.97
971.20	226.95
971.49	226.94
971.79	226.95
972.08	226.88
972.38	226.87
972.67	226.84
972.96	226.83
973.26	226.81
973.55	226.84
973.85	226.88
974.14	226.89
974.43	226.92
974.73	226.84
975.02	226.85
975.31	226.87
975.61	226.86
975.90	226.86
976.19	226.88
976.49	226.86
976.78	226.86
977.07	226.87
977.37	226.90
977.66	226.94
977.95	226.95
978.24	226.96
978.54	227.00
978.83	227.02
979.12	227.00
979.42	227.00
979.71	226.96
980.00	226.92
980.29	226.91
980.59	226.86
980.88	226.92
981.17	226.92
981.46	226.89
981.76	226.88
982.05	226.90
982.34	226.91
982.63	226.94
982.93	226.94
983.22	226.96
983.51	226.94
983.80	226.92
984.09	226.91
984.39	226.89
984.68	226.84
984.97	226.81
985.26	226.78
985.55	226.81
985.85	226.78
986.14	226.82
986.43	226.82
986.72	226.82
987.01	226.75
987.30	226.73
987.59	226.75
987.89	226.76
988.18	226.71
988.47	226.65
988.76	226.63
989.05	226.61
989.34	226.59
989.63	226.64
989.92	226.67
990.22	226.64
990.51	226.65
990.80	226.65
991.09	226.70
991.38	226.75
991.67	226.68
991.96	226.69
992.25	226.67
992.54	226.69
992.83	226.68
993.12	226.74
993.41	226.77
993.70	226.82
993.99	226.87
994.28	226.90
994.58	226.95
994.87	226.96
995.16	226.95
995.45	226.94
995.74	226.88
996.03	226.91
996.32	226.94
996.61	226.97
996.90	226.98
997.19	226.96
997.48	226.98
997.77	227.02
998.06	227.01
998.34	227.00
998.63	226.99
998.92	227.01
999.21	226.99
999.50	226.99
999.79	226.95
1000.08	226.91
1000.37	226.94
1000.66	226.96
1000.95	226.98
1001.24	227.00
1001.53	227.04
1001.82	227.06
1002.11	226.99
1002.40	226.97
1002.68	227.01
1002.97	227.07
1003.26	227.05
1003.55	227.03
1003.84	227.04
1004.13	227.10
1004.42	227.13
1004.71	227.12
1004.99	227.13
1005.28	227.20
1005.57	227.20
1005.86	227.17
1006.15	227.20
1006.44	227.17
1006.72	227.16
1007.01	227.12
1007.30	227.12
1007.59	227.11
1007.88	227.10
1008.17	227.14
1008.45	227.13
1008.74	227.08
1009.03	227.04
1009.32	227.06
1009.60	227.04
1009.89	227.03
1010.18	226.98
1010.47	226.96
1010.76	226.98
1011.04	226.98
1011.33	226.95
1011.62	226.95
1011.91	226.99
1012.19	227.00
1012.48	227.02
1012.77	227.04
1013.05	227.09
1013.34	227.13
1013.63	227.16
1013.92	227.18
1014.20	227.12
1014.49	227.15
1014.78	227.20
1015.06	227.15
1015.35	227.12
1015.64	227.13
1015.92	227.12
1016.21	227.10
1016.50	227.12
1016.78	227.10
1017.07	227.10
1017.36	227.10
1017.64	227.10
1017.93	227.07
1018.22	227.02
1018.50	226.99
1018.79	226.97
1019.08	226.91
1019.36	226.88
1019.65	226.84
1019.93	226.85
1020.22	226.91
1020.51	226.94
1020.79	226.88
1021.08	226.15
1021.36	226.75
1021.65	226.97
1021.94	226.83
1022.22	226.53
1022.51	226.74
1022.79	227.12
1023.08	227.63
1023.36	228.05
1023.65	226.30
>>>>>End Processed Spectral Data<<<<<
