SpectraSuite Data File
++++++++++++++++++++++++++++++++++++
Date: Fri Feb 01 14:54:07 EST 2013
User: group
Dark Spectrum Present: No
Reference Spectrum Present: No
Number of Sampled Component Spectra: 1
Spectrometers: USB2E7196
Integration Time (usec): 35000 (USB2E7196)
Spectra Averaged: 100 (USB2E7196)
Boxcar Smoothing: 10 (USB2E7196)
Correct for Electrical Dark: No (USB2E7196)
Strobe/Lamp Enabled: No (USB2E7196)
Correct for Detector Non-linearity: No (USB2E7196)
Correct for Stray Light: No (USB2E7196)
Number of Pixels in Processed Spectrum: 2048
>>>>>Begin Processed Spectral Data<<<<<
339.09	0.00
339.48	215.08
339.86	217.04
340.24	218.39
340.63	219.45
341.01	222.59
341.39	222.27
341.78	223.79
342.16	224.89
342.54	225.28
342.93	213.64
343.31	224.44
343.69	225.00
344.07	225.45
344.46	225.85
344.84	226.22
345.22	226.44
345.60	226.67
345.99	226.83
346.37	226.94
346.75	227.03
347.13	227.07
347.52	227.11
347.90	227.16
348.28	227.20
348.66	227.25
349.05	227.28
349.43	227.31
349.81	227.34
350.19	227.41
350.57	227.47
350.96	227.55
351.34	227.62
351.72	227.67
352.10	227.78
352.48	227.87
352.87	227.90
353.25	227.99
353.63	228.06
354.01	228.14
354.39	228.21
354.77	228.27
355.15	228.42
355.54	228.48
355.92	228.53
356.30	228.62
356.68	228.74
357.06	228.78
357.44	228.81
357.82	228.89
358.20	228.94
358.58	229.01
358.97	229.07
359.35	229.15
359.73	229.25
360.11	229.28
360.49	229.36
360.87	229.45
361.25	229.48
361.63	229.58
362.01	229.63
362.39	229.68
362.77	229.77
363.15	229.78
363.53	229.83
363.91	229.84
364.29	229.83
364.67	229.75
365.05	229.84
365.43	229.85
365.81	229.81
366.19	229.86
366.57	229.86
366.95	229.82
367.33	229.81
367.71	229.78
368.09	229.81
368.47	229.77
368.85	229.72
369.23	229.72
369.61	229.67
369.99	229.63
370.37	229.64
370.75	229.60
371.13	229.52
371.51	229.47
371.89	229.44
372.27	229.40
372.65	229.33
373.03	229.23
373.41	229.20
373.78	229.18
374.16	229.07
374.54	229.01
374.92	228.97
375.30	228.88
375.68	228.81
376.06	228.70
376.44	228.62
376.82	228.54
377.19	228.48
377.57	228.37
377.95	228.25
378.33	228.14
378.71	228.02
379.09	227.96
379.47	227.90
379.84	227.81
380.22	227.72
380.60	227.64
380.98	227.52
381.36	227.44
381.73	227.32
382.11	227.24
382.49	227.15
382.87	227.06
383.25	227.00
383.62	227.03
384.00	226.95
384.38	226.88
384.76	226.87
385.13	226.80
385.51	226.72
385.89	226.64
386.27	226.58
386.64	226.56
387.02	226.52
387.40	226.48
387.78	226.44
388.15	226.41
388.53	226.39
388.91	226.38
389.29	226.34
389.66	226.35
390.04	226.33
390.42	226.33
390.79	226.33
391.17	226.31
391.55	226.19
391.92	226.22
392.30	226.21
392.68	226.17
393.05	226.20
393.43	226.25
393.81	226.32
394.18	226.32
394.56	226.31
394.94	226.30
395.31	226.32
395.69	226.39
396.06	226.43
396.44	226.49
396.82	226.51
397.19	226.62
397.57	226.68
397.95	226.74
398.32	226.79
398.70	226.84
399.07	226.94
399.45	227.02
399.82	227.08
400.20	227.16
400.58	227.24
400.95	227.27
401.33	227.39
401.70	227.56
402.08	227.69
402.45	227.82
402.83	228.00
403.20	228.10
403.58	228.21
403.95	228.35
404.33	228.48
404.71	228.62
405.08	228.83
405.46	228.97
405.83	229.10
406.21	229.29
406.58	229.45
406.96	229.59
407.33	229.78
407.70	229.99
408.08	230.28
408.45	230.54
408.83	230.78
409.20	230.98
409.58	231.18
409.95	231.40
410.33	231.66
410.70	231.91
411.08	232.23
411.45	232.56
411.82	232.89
412.20	233.23
412.57	233.68
412.95	233.98
413.32	234.38
413.69	234.80
414.07	235.25
414.44	235.75
414.82	236.29
415.19	236.84
415.56	237.41
415.94	237.96
416.31	238.58
416.68	239.21
417.06	239.94
417.43	240.60
417.81	241.37
418.18	242.15
418.55	243.00
418.93	243.87
419.30	244.72
419.67	245.65
420.04	246.61
420.42	247.59
420.79	248.74
421.16	249.89
421.54	251.08
421.91	252.29
422.28	253.54
422.66	254.83
423.03	256.14
423.40	257.48
423.77	258.88
424.15	260.28
424.52	261.76
424.89	263.36
425.26	264.90
425.64	266.38
426.01	267.97
426.38	269.61
426.75	271.27
427.13	273.01
427.50	274.83
427.87	276.72
428.24	278.55
428.61	280.32
428.99	282.28
429.36	284.39
429.73	286.43
430.10	288.44
430.47	290.48
430.85	292.57
431.22	294.79
431.59	297.15
431.96	299.43
432.33	301.94
432.70	304.36
433.08	307.21
433.45	309.88
433.82	312.53
434.19	315.37
434.56	318.19
434.93	320.83
435.30	323.47
435.68	326.37
436.05	329.21
436.42	331.98
436.79	334.50
437.16	337.19
437.53	340.04
437.90	342.84
438.27	345.66
438.64	348.51
439.01	351.07
439.38	353.33
439.75	355.48
440.13	357.97
440.50	360.29
440.87	362.06
441.24	363.97
441.61	366.13
441.98	367.65
442.35	369.45
442.72	371.33
443.09	373.10
443.46	374.04
443.83	374.68
444.20	375.17
444.57	375.98
444.94	376.25
445.31	376.58
445.68	376.92
446.05	376.95
446.42	376.58
446.79	376.18
447.16	375.68
447.53	375.42
447.90	374.24
448.27	373.03
448.64	371.54
449.01	370.38
449.37	368.40
449.74	366.49
450.11	364.21
450.48	361.72
450.85	359.14
451.22	357.05
451.59	354.99
451.96	353.10
452.33	350.49
452.70	348.20
453.07	345.34
453.43	342.45
453.80	339.68
454.17	336.93
454.54	334.38
454.91	331.68
455.28	328.97
455.65	326.47
456.02	324.03
456.38	321.82
456.75	319.18
457.12	316.91
457.49	314.70
457.86	312.55
458.23	310.68
458.59	308.69
458.96	306.58
459.33	304.72
459.70	302.79
460.07	301.30
460.43	299.52
460.80	297.93
461.17	296.47
461.54	294.95
461.91	293.58
462.27	292.14
462.64	290.88
463.01	289.50
463.38	288.20
463.74	286.84
464.11	285.69
464.48	284.64
464.85	283.49
465.21	282.65
465.58	281.71
465.95	280.64
466.32	279.71
466.68	278.81
467.05	277.91
467.42	277.04
467.78	276.10
468.15	275.23
468.52	274.56
468.88	273.72
469.25	272.96
469.62	272.30
469.98	271.58
470.35	270.98
470.72	270.38
471.08	269.72
471.45	269.20
471.82	268.61
472.18	268.06
472.55	267.64
472.92	267.09
473.28	266.61
473.65	266.14
474.02	265.72
474.38	265.31
474.75	264.99
475.11	264.64
475.48	264.36
475.85	264.13
476.21	263.86
476.58	263.69
476.94	263.56
477.31	263.39
477.67	263.26
478.04	263.13
478.41	263.10
478.77	263.11
479.14	263.03
479.50	263.05
479.87	263.06
480.23	263.16
480.60	263.20
480.96	263.28
481.33	263.45
481.69	263.59
482.06	263.80
482.42	263.98
482.79	264.22
483.15	264.54
483.52	264.91
483.88	265.26
484.25	265.61
484.61	265.98
484.98	266.42
485.34	266.97
485.71	267.56
486.07	268.12
486.44	268.69
486.80	269.37
487.17	270.07
487.53	270.89
487.90	271.70
488.26	272.64
488.62	273.62
488.99	274.62
489.35	275.68
489.72	276.76
490.08	277.95
490.44	279.22
490.81	280.52
491.17	281.88
491.54	283.36
491.90	284.90
492.26	286.57
492.63	288.32
492.99	290.04
493.36	291.93
493.72	293.98
494.08	296.07
494.45	298.35
494.81	300.69
495.17	303.09
495.54	305.64
495.90	308.33
496.26	311.14
496.63	314.09
496.99	317.19
497.35	320.42
497.72	323.77
498.08	327.24
498.44	330.86
498.80	334.74
499.17	338.73
499.53	342.83
499.89	347.14
500.26	351.61
500.62	356.29
500.98	361.22
501.34	366.27
501.71	371.58
502.07	376.93
502.43	382.59
502.79	388.40
503.16	394.44
503.52	400.62
503.88	406.98
504.24	413.58
504.60	420.42
504.97	427.51
505.33	434.85
505.69	442.53
506.05	450.28
506.41	458.12
506.78	466.27
507.14	474.71
507.50	483.41
507.86	492.39
508.22	501.52
508.59	510.66
508.95	520.19
509.31	529.93
509.67	539.99
510.03	550.26
510.39	560.76
510.75	571.52
511.12	582.51
511.48	593.78
511.84	605.17
512.20	616.63
512.56	628.62
512.92	640.77
513.28	653.07
513.64	665.58
514.00	678.27
514.37	691.14
514.73	704.15
515.09	717.10
515.45	730.34
515.81	743.96
516.17	758.02
516.53	772.08
516.89	786.24
517.25	800.43
517.61	814.85
517.97	829.36
518.33	843.80
518.69	858.53
519.05	873.51
519.41	888.77
519.77	904.37
520.13	919.78
520.49	935.18
520.85	950.68
521.21	966.48
521.57	982.77
521.93	998.68
522.29	1015.21
522.65	1031.61
523.01	1047.94
523.37	1064.07
523.73	1080.17
524.09	1096.42
524.45	1112.85
524.81	1129.56
525.17	1146.51
525.53	1163.41
525.89	1180.30
526.25	1197.19
526.61	1213.67
526.97	1230.44
527.33	1247.01
527.68	1263.66
528.04	1280.15
528.40	1296.87
528.76	1313.99
529.12	1330.67
529.48	1347.53
529.84	1363.67
530.20	1380.38
530.56	1397.53
530.91	1414.92
531.27	1431.80
531.63	1448.34
531.99	1465.03
532.35	1481.05
532.71	1497.00
533.07	1513.45
533.42	1529.56
533.78	1545.60
534.14	1561.98
534.50	1577.39
534.86	1593.32
535.21	1608.65
535.57	1624.70
535.93	1640.18
536.29	1655.01
536.65	1670.24
537.00	1685.30
537.36	1700.77
537.72	1715.35
538.08	1729.77
538.44	1743.69
538.79	1757.64
539.15	1771.57
539.51	1785.50
539.87	1799.95
540.22	1813.64
540.58	1827.27
540.94	1840.61
541.29	1853.71
541.65	1866.59
542.01	1879.82
542.37	1892.27
542.72	1904.73
543.08	1916.64
543.44	1929.09
543.79	1940.31
544.15	1951.24
544.51	1962.66
544.87	1973.46
545.22	1984.28
545.58	1994.51
545.94	2004.29
546.29	2014.20
546.65	2023.86
547.01	2032.99
547.36	2041.90
547.72	2050.47
548.07	2058.50
548.43	2066.63
548.79	2074.59
549.14	2082.10
549.50	2089.66
549.86	2097.28
550.21	2104.57
550.57	2111.64
550.92	2118.25
551.28	2125.37
551.64	2132.40
551.99	2138.95
552.35	2145.09
552.70	2151.18
553.06	2157.05
553.41	2163.37
553.77	2169.35
554.13	2175.47
554.48	2181.50
554.84	2186.71
555.19	2191.94
555.55	2196.86
555.90	2201.32
556.26	2206.09
556.61	2210.65
556.97	2214.75
557.32	2218.73
557.68	2222.84
558.03	2227.16
558.39	2230.89
558.74	2235.31
559.10	2239.22
559.45	2242.78
559.81	2247.09
560.16	2250.90
560.52	2254.17
560.87	2257.52
561.23	2259.96
561.58	2262.63
561.94	2265.12
562.29	2267.51
562.64	2270.15
563.00	2272.92
563.35	2276.34
563.71	2279.44
564.06	2282.47
564.42	2285.14
564.77	2287.52
565.12	2289.60
565.48	2291.22
565.83	2292.82
566.19	2294.15
566.54	2294.83
566.89	2295.87
567.25	2296.25
567.60	2297.31
567.96	2298.76
568.31	2299.36
568.66	2300.33
569.02	2300.87
569.37	2300.97
569.72	2301.48
570.08	2301.29
570.43	2300.97
570.78	2299.97
571.14	2298.12
571.49	2296.72
571.84	2296.18
572.20	2294.85
572.55	2293.59
572.90	2291.95
573.26	2290.29
573.61	2288.34
573.96	2286.36
574.31	2283.23
574.67	2279.98
575.02	2276.15
575.37	2272.47
575.72	2268.40
576.08	2265.04
576.43	2261.51
576.78	2257.70
577.13	2254.46
577.49	2251.33
577.84	2247.72
578.19	2243.98
578.54	2240.22
578.90	2235.60
579.25	2229.98
579.60	2224.91
579.95	2219.66
580.30	2214.48
580.66	2209.17
581.01	2203.98
581.36	2198.95
581.71	2194.49
582.06	2189.89
582.42	2185.30
582.77	2180.00
583.12	2175.35
583.47	2170.38
583.82	2165.10
584.17	2159.74
584.53	2154.04
584.88	2148.15
585.23	2142.19
585.58	2136.55
585.93	2130.94
586.28	2126.34
586.63	2121.20
586.98	2115.95
587.34	2111.24
587.69	2106.27
588.04	2100.88
588.39	2095.10
588.74	2088.47
589.09	2082.23
589.44	2075.33
589.79	2069.15
590.14	2063.37
590.49	2056.66
590.84	2050.08
591.19	2044.01
591.54	2037.33
591.89	2029.78
592.25	2022.79
592.60	2015.45
592.95	2007.77
593.30	2000.38
593.65	1992.45
594.00	1985.23
594.35	1977.97
594.70	1969.81
595.05	1962.40
595.40	1955.08
595.75	1947.45
596.10	1941.20
596.45	1934.28
596.80	1927.99
597.15	1921.28
597.50	1914.17
597.85	1907.78
598.19	1901.18
598.54	1894.08
598.89	1887.48
599.24	1881.57
599.59	1874.79
599.94	1868.55
600.29	1862.18
600.64	1855.47
600.99	1847.93
601.34	1841.08
601.69	1834.08
602.04	1827.08
602.39	1819.67
602.74	1812.80
603.08	1806.23
603.43	1799.48
603.78	1792.27
604.13	1785.06
604.48	1777.84
604.83	1770.99
605.18	1763.86
605.53	1755.92
605.87	1747.88
606.22	1740.54
606.57	1732.66
606.92	1725.43
607.27	1718.36
607.62	1711.44
607.96	1704.29
608.31	1697.77
608.66	1690.07
609.01	1682.43
609.36	1674.96
609.70	1666.97
610.05	1658.90
610.40	1651.07
610.75	1642.71
611.10	1635.06
611.44	1626.68
611.79	1618.65
612.14	1609.90
612.49	1600.88
612.83	1592.52
613.18	1584.44
613.53	1576.47
613.88	1567.91
614.22	1559.78
614.57	1551.14
614.92	1543.27
615.27	1535.71
615.61	1527.40
615.96	1519.40
616.31	1511.85
616.65	1504.64
617.00	1497.14
617.35	1489.61
617.70	1481.27
618.04	1472.76
618.39	1464.56
618.74	1457.05
619.08	1448.93
619.43	1441.47
619.78	1434.62
620.12	1427.52
620.47	1420.12
620.82	1412.08
621.16	1404.73
621.51	1397.03
621.85	1389.50
622.20	1380.94
622.55	1372.74
622.89	1365.02
623.24	1357.55
623.59	1350.31
623.93	1342.66
624.28	1335.58
624.62	1328.07
624.97	1321.12
625.32	1314.41
625.66	1307.45
626.01	1300.33
626.35	1292.87
626.70	1285.18
627.04	1277.56
627.39	1269.74
627.73	1262.37
628.08	1255.41
628.43	1248.08
628.77	1240.90
629.12	1233.25
629.46	1226.25
629.81	1218.82
630.15	1211.76
630.50	1204.43
630.84	1196.25
631.19	1188.46
631.53	1180.96
631.88	1173.52
632.22	1165.90
632.57	1158.75
632.91	1151.31
633.26	1143.90
633.60	1136.71
633.95	1129.75
634.29	1122.71
634.64	1116.17
634.98	1108.89
635.32	1101.93
635.67	1095.56
636.01	1088.99
636.36	1082.44
636.70	1075.99
637.05	1069.51
637.39	1063.08
637.73	1056.64
638.08	1050.97
638.42	1045.14
638.77	1038.80
639.11	1032.32
639.45	1026.02
639.80	1019.44
640.14	1013.07
640.49	1006.70
640.83	1000.41
641.17	994.22
641.52	987.97
641.86	981.60
642.20	975.81
642.55	969.59
642.89	963.13
643.23	956.64
643.58	950.97
643.92	944.79
644.26	938.79
644.61	932.79
644.95	926.79
645.29	920.16
645.64	913.49
645.98	907.22
646.32	901.38
646.66	895.50
647.01	889.79
647.35	884.13
647.69	878.32
648.04	872.85
648.38	867.08
648.72	861.15
649.06	855.07
649.41	849.15
649.75	843.04
650.09	837.06
650.43	831.23
650.78	825.00
651.12	819.08
651.46	813.43
651.80	807.65
652.14	802.30
652.49	797.00
652.83	791.79
653.17	786.12
653.51	780.46
653.85	775.06
654.20	769.39
654.54	763.41
654.88	757.75
655.22	751.89
655.56	746.32
655.90	740.84
656.25	735.70
656.59	730.45
656.93	725.43
657.27	720.35
657.61	715.03
657.95	710.05
658.29	704.98
658.64	699.73
658.98	694.48
659.32	689.01
659.66	683.83
660.00	678.56
660.34	673.67
660.68	668.79
661.02	663.75
661.36	659.07
661.70	654.60
662.05	650.29
662.39	646.02
662.73	641.50
663.07	637.21
663.41	632.76
663.75	628.25
664.09	623.77
664.43	619.46
664.77	615.37
665.11	611.10
665.45	607.03
665.79	603.02
666.13	598.94
666.47	594.90
666.81	590.73
667.15	586.63
667.49	582.72
667.83	578.95
668.17	575.06
668.51	571.00
668.85	567.09
669.19	563.25
669.53	559.46
669.87	555.66
670.21	552.03
670.55	548.48
670.89	545.17
671.23	541.81
671.57	538.30
671.91	534.82
672.25	531.41
672.58	527.93
672.92	524.60
673.26	521.48
673.60	518.41
673.94	515.37
674.28	512.60
674.62	509.74
674.96	506.66
675.30	503.82
675.64	500.99
675.97	498.24
676.31	495.46
676.65	492.55
676.99	489.92
677.33	487.01
677.67	484.20
678.01	481.15
678.34	478.16
678.68	475.35
679.02	472.52
679.36	469.81
679.70	467.15
680.04	464.39
680.37	461.55
680.71	458.80
681.05	456.21
681.39	453.46
681.73	450.79
682.06	448.26
682.40	445.71
682.74	443.22
683.08	440.68
683.42	438.11
683.75	435.66
684.09	433.18
684.43	430.83
684.77	428.42
685.10	426.17
685.44	423.97
685.78	421.72
686.12	419.58
686.45	417.30
686.79	415.02
687.13	412.83
687.46	410.73
687.80	408.62
688.14	406.44
688.48	404.38
688.81	402.18
689.15	400.07
689.49	397.94
689.82	395.89
690.16	393.84
690.50	391.86
690.83	389.90
691.17	387.93
691.51	385.97
691.84	384.13
692.18	382.14
692.52	380.15
692.85	378.23
693.19	376.31
693.52	374.47
693.86	372.68
694.20	370.93
694.53	369.14
694.87	367.32
695.21	365.54
695.54	363.79
695.88	362.07
696.21	360.39
696.55	358.71
696.88	357.02
697.22	355.39
697.56	353.79
697.89	352.16
698.23	350.52
698.56	348.97
698.90	347.36
699.23	345.69
699.57	344.10
699.90	342.54
700.24	341.02
700.58	339.48
700.91	337.94
701.25	336.48
701.58	335.13
701.92	333.73
702.25	332.35
702.59	330.95
702.92	329.63
703.26	328.35
703.59	327.09
703.93	325.90
704.26	324.67
704.60	323.40
704.93	322.16
705.26	320.97
705.60	319.82
705.93	318.66
706.27	317.69
706.60	316.68
706.94	315.63
707.27	314.53
707.61	313.50
707.94	312.54
708.27	311.45
708.61	310.38
708.94	309.41
709.28	308.46
709.61	307.54
709.94	306.58
710.28	305.55
710.61	304.60
710.95	303.56
711.28	302.67
711.61	301.73
711.95	300.80
712.28	299.87
712.61	298.87
712.95	297.98
713.28	297.12
713.61	296.24
713.95	295.35
714.28	294.50
714.61	293.64
714.95	292.80
715.28	291.94
715.61	291.07
715.95	290.17
716.28	289.32
716.61	288.48
716.95	287.68
717.28	286.99
717.61	286.21
717.94	285.49
718.28	284.65
718.61	283.94
718.94	283.26
719.27	282.57
719.61	281.94
719.94	281.27
720.27	280.56
720.60	279.91
720.94	279.34
721.27	278.79
721.60	278.26
721.93	277.67
722.27	277.13
722.60	276.56
722.93	276.06
723.26	275.57
723.59	275.01
723.93	274.47
724.26	273.89
724.59	273.33
724.92	272.80
725.25	272.33
725.59	271.81
725.92	271.33
726.25	270.81
726.58	270.34
726.91	269.81
727.24	269.35
727.57	268.89
727.91	268.36
728.24	267.85
728.57	267.34
728.90	266.93
729.23	266.46
729.56	266.05
729.89	265.56
730.22	265.09
730.55	264.69
730.89	264.27
731.22	263.85
731.55	263.44
731.88	263.02
732.21	262.60
732.54	262.19
732.87	261.77
733.20	261.39
733.53	260.97
733.86	260.65
734.19	260.25
734.52	259.85
734.85	259.57
735.18	259.16
735.51	258.78
735.84	258.34
736.17	258.01
736.50	257.60
736.83	257.35
737.16	256.98
737.49	256.58
737.82	256.20
738.15	255.85
738.48	255.50
738.81	255.19
739.14	254.85
739.47	254.48
739.80	254.15
740.13	253.82
740.46	253.49
740.79	253.16
741.12	252.85
741.45	252.52
741.78	252.14
742.11	251.85
742.44	251.50
742.77	251.20
743.10	250.82
743.43	250.52
743.75	250.10
744.08	249.92
744.41	249.66
744.74	249.40
745.07	249.12
745.40	248.88
745.73	248.60
746.06	248.29
746.39	248.05
746.71	247.80
747.04	247.56
747.37	247.34
747.70	247.10
748.03	246.84
748.36	246.66
748.68	246.43
749.01	246.18
749.34	246.03
749.67	245.81
750.00	245.61
750.33	245.47
750.65	245.30
750.98	244.97
751.31	244.76
751.64	244.56
751.97	244.38
752.29	244.14
752.62	243.91
752.95	243.72
753.28	243.52
753.60	243.29
753.93	243.10
754.26	242.93
754.59	242.68
754.91	242.50
755.24	242.28
755.57	242.10
755.90	241.92
756.22	241.68
756.55	241.52
756.88	241.37
757.20	241.14
757.53	240.98
757.86	240.83
758.19	240.68
758.51	240.54
758.84	240.38
759.17	240.24
759.49	240.12
759.82	240.05
760.15	239.93
760.47	239.83
760.80	239.69
761.13	239.54
761.45	239.40
761.78	239.25
762.11	239.14
762.43	239.02
762.76	238.90
763.08	238.80
763.41	238.66
763.74	238.57
764.06	238.46
764.39	238.31
764.71	238.18
765.04	238.03
765.37	237.89
765.69	237.76
766.02	237.67
766.34	237.53
766.67	237.35
767.00	237.25
767.32	237.17
767.65	237.11
767.97	236.98
768.30	236.92
768.62	236.85
768.95	236.74
769.27	236.61
769.60	236.52
769.92	236.43
770.25	236.34
770.57	236.20
770.90	236.08
771.22	235.96
771.55	235.87
771.87	235.79
772.20	235.69
772.52	235.67
772.85	235.67
773.17	235.57
773.50	235.49
773.82	235.37
774.15	235.23
774.47	235.08
774.80	234.99
775.12	234.90
775.45	234.76
775.77	234.68
776.09	234.60
776.42	234.52
776.74	234.46
777.07	234.35
777.39	234.28
777.72	234.22
778.04	234.19
778.36	234.14
778.69	234.07
779.01	233.99
779.33	233.83
779.66	233.64
779.98	233.56
780.31	233.49
780.63	233.46
780.95	233.39
781.28	233.33
781.60	233.25
781.92	233.19
782.25	233.15
782.57	233.08
782.89	233.03
783.22	232.94
783.54	232.83
783.86	232.79
784.19	232.70
784.51	232.64
784.83	232.56
785.16	232.48
785.48	232.40
785.80	232.37
786.12	232.33
786.45	232.28
786.77	232.24
787.09	232.17
787.42	232.07
787.74	232.02
788.06	231.97
788.38	231.90
788.71	231.84
789.03	231.77
789.35	231.72
789.67	231.66
789.99	231.64
790.32	231.60
790.64	231.56
790.96	231.59
791.28	231.52
791.61	231.45
791.93	231.42
792.25	231.38
792.57	231.38
792.89	231.31
793.21	231.27
793.54	231.24
793.86	231.19
794.18	231.14
794.50	231.08
794.82	231.05
795.14	231.03
795.47	231.00
795.79	230.97
796.11	230.90
796.43	230.85
796.75	230.77
797.07	230.75
797.39	230.72
797.71	230.64
798.04	230.63
798.36	230.61
798.68	230.58
799.00	230.58
799.32	230.48
799.64	230.47
799.96	230.44
800.28	230.41
800.60	230.37
800.92	230.39
801.24	230.37
801.56	230.34
801.89	230.30
802.21	230.29
802.53	230.25
802.85	230.28
803.17	230.32
803.49	230.29
803.81	230.25
804.13	230.24
804.45	230.23
804.77	230.22
805.09	230.19
805.41	230.15
805.73	230.12
806.05	230.12
806.37	230.11
806.69	230.11
807.01	230.09
807.33	230.12
807.65	230.07
807.97	230.07
808.28	230.04
808.60	230.02
808.92	229.98
809.24	230.03
809.56	229.94
809.88	229.86
810.20	229.86
810.52	229.84
810.84	229.77
811.16	229.71
811.48	229.65
811.80	229.65
812.12	229.65
812.43	229.61
812.75	229.56
813.07	229.55
813.39	229.52
813.71	229.51
814.03	229.48
814.35	229.43
814.67	229.41
814.98	229.39
815.30	229.36
815.62	229.31
815.94	229.23
816.26	229.27
816.58	229.25
816.89	229.23
817.21	229.20
817.53	229.19
817.85	229.19
818.17	229.20
818.48	229.17
818.80	229.15
819.12	229.13
819.44	229.11
819.76	229.05
820.07	229.04
820.39	229.02
820.71	228.96
821.03	228.98
821.34	228.95
821.66	228.94
821.98	228.91
822.30	228.90
822.61	228.94
822.93	228.93
823.25	228.94
823.57	228.90
823.88	228.91
824.20	228.92
824.52	228.90
824.83	228.84
825.15	228.83
825.47	228.80
825.79	228.76
826.10	228.72
826.42	228.70
826.74	228.68
827.05	228.63
827.37	228.62
827.69	228.55
828.00	228.51
828.32	228.50
828.64	228.48
828.95	228.53
829.27	228.47
829.58	228.43
829.90	228.35
830.22	228.37
830.53	228.30
830.85	228.29
831.17	228.29
831.48	228.32
831.80	228.30
832.11	228.26
832.43	228.24
832.75	228.25
833.06	228.28
833.38	228.25
833.69	228.26
834.01	228.24
834.32	228.25
834.64	228.26
834.96	228.25
835.27	228.23
835.59	228.18
835.90	228.15
836.22	228.13
836.53	228.16
836.85	228.12
837.16	228.25
837.48	228.21
837.79	228.23
838.11	228.20
838.42	228.20
838.74	228.25
839.05	228.27
839.37	228.25
839.68	228.20
840.00	228.18
840.31	228.18
840.63	228.20
840.94	228.19
841.26	228.19
841.57	228.19
841.88	228.21
842.20	228.20
842.51	228.19
842.83	228.21
843.14	228.29
843.46	228.33
843.77	228.26
844.08	228.29
844.40	228.25
844.71	228.28
845.03	228.27
845.34	228.25
845.65	228.24
845.97	228.28
846.28	228.30
846.60	228.32
846.91	228.31
847.22	228.30
847.54	228.31
847.85	228.30
848.16	228.27
848.48	228.26
848.79	228.32
849.10	228.35
849.42	228.34
849.73	228.26
850.04	228.26
850.36	228.21
850.67	228.22
850.98	228.24
851.30	228.20
851.61	228.21
851.92	228.22
852.23	228.26
852.55	228.25
852.86	228.27
853.17	228.27
853.49	228.26
853.80	228.32
854.11	228.34
854.42	228.36
854.74	228.39
855.05	228.42
855.36	228.35
855.67	228.34
855.99	228.34
856.30	228.43
856.61	228.41
856.92	228.43
857.23	228.41
857.55	228.37
857.86	228.37
858.17	228.34
858.48	228.28
858.79	228.26
859.11	228.26
859.42	228.23
859.73	228.21
860.04	228.20
860.35	228.16
860.66	228.13
860.98	228.11
861.29	228.10
861.60	228.06
861.91	228.07
862.22	228.03
862.53	227.98
862.84	227.88
863.16	227.90
863.47	227.86
863.78	227.86
864.09	227.82
864.40	227.79
864.71	227.82
865.02	227.84
865.33	227.79
865.64	227.76
865.95	227.74
866.27	227.78
866.58	227.79
866.89	227.80
867.20	227.77
867.51	227.73
867.82	227.73
868.13	227.71
868.44	227.68
868.75	227.72
869.06	227.73
869.37	227.74
869.68	227.71
869.99	227.72
870.30	227.72
870.61	227.77
870.92	227.78
871.23	227.77
871.54	227.77
871.85	227.79
872.16	227.79
872.47	227.81
872.78	227.78
873.09	227.76
873.40	227.74
873.71	227.73
874.02	227.74
874.33	227.69
874.64	227.70
874.95	227.72
875.26	227.66
875.56	227.66
875.87	227.64
876.18	227.60
876.49	227.69
876.80	227.68
877.11	227.65
877.42	227.66
877.73	227.61
878.04	227.60
878.35	227.60
878.66	227.62
878.96	227.63
879.27	227.61
879.58	227.59
879.89	227.54
880.20	227.56
880.51	227.60
880.82	227.62
881.12	227.61
881.43	227.59
881.74	227.57
882.05	227.59
882.36	227.62
882.67	227.64
882.97	227.55
883.28	227.55
883.59	227.55
883.90	227.57
884.21	227.61
884.51	227.63
884.82	227.63
885.13	227.61
885.44	227.62
885.74	227.62
886.05	227.64
886.36	227.70
886.67	227.71
886.98	227.74
887.28	227.75
887.59	227.78
887.90	227.80
888.20	227.85
888.51	227.85
888.82	227.79
889.13	227.82
889.43	227.90
889.74	227.90
890.05	227.91
890.35	227.91
890.66	227.91
890.97	227.89
891.28	227.86
891.58	227.90
891.89	227.91
892.20	227.90
892.50	227.88
892.81	227.86
893.12	227.84
893.42	227.79
893.73	227.77
894.04	227.77
894.34	227.79
894.65	227.77
894.95	227.80
895.26	227.81
895.57	227.86
895.87	227.76
896.18	227.79
896.48	227.81
896.79	227.78
897.10	227.77
897.40	227.78
897.71	227.79
898.01	227.75
898.32	227.75
898.63	227.76
898.93	227.77
899.24	227.77
899.54	227.78
899.85	227.77
900.15	227.77
900.46	227.76
900.76	227.75
901.07	227.74
901.38	227.69
901.68	227.70
901.99	227.62
902.29	227.60
902.60	227.58
902.90	227.57
903.21	227.58
903.51	227.57
903.82	227.57
904.12	227.58
904.43	227.56
904.73	227.53
905.03	227.52
905.34	227.62
905.64	227.62
905.95	227.58
906.25	227.57
906.56	227.56
906.86	227.53
907.17	227.50
907.47	227.52
907.77	227.53
908.08	227.53
908.38	227.52
908.69	227.51
908.99	227.54
909.30	227.50
909.60	227.47
909.90	227.48
910.21	227.47
910.51	227.44
910.81	227.43
911.12	227.45
911.42	227.45
911.73	227.32
912.03	227.30
912.33	227.32
912.64	227.31
912.94	227.30
913.24	227.30
913.55	227.28
913.85	227.24
914.15	227.26
914.46	227.22
914.76	227.25
915.06	227.26
915.37	227.22
915.67	227.25
915.97	227.25
916.27	227.20
916.58	227.19
916.88	227.18
917.18	227.15
917.49	227.21
917.79	227.21
918.09	227.23
918.39	227.30
918.70	227.29
919.00	227.32
919.30	227.37
919.60	227.37
919.91	227.35
920.21	227.38
920.51	227.37
920.81	227.39
921.12	227.37
921.42	227.35
921.72	227.37
922.02	227.37
922.32	227.41
922.63	227.42
922.93	227.48
923.23	227.48
923.53	227.53
923.83	227.44
924.13	227.46
924.44	227.47
924.74	227.42
925.04	227.49
925.34	227.52
925.64	227.48
925.94	227.50
926.24	227.59
926.55	227.57
926.85	227.58
927.15	227.58
927.45	227.62
927.75	227.67
928.05	227.65
928.35	227.61
928.65	227.63
928.95	227.65
929.26	227.61
929.56	227.66
929.86	227.63
930.16	227.66
930.46	227.65
930.76	227.63
931.06	227.62
931.36	227.56
931.66	227.52
931.96	227.54
932.26	227.56
932.56	227.49
932.86	227.49
933.16	227.51
933.46	227.51
933.76	227.50
934.06	227.48
934.36	227.52
934.66	227.56
934.96	227.57
935.26	227.60
935.56	227.61
935.86	227.58
936.16	227.58
936.46	227.58
936.76	227.62
937.06	227.63
937.36	227.60
937.66	227.61
937.96	227.64
938.26	227.61
938.56	227.57
938.86	227.59
939.16	227.61
939.46	227.61
939.76	227.63
940.06	227.60
940.35	227.59
940.65	227.55
940.95	227.51
941.25	227.46
941.55	227.40
941.85	227.38
942.15	227.39
942.45	227.42
942.75	227.41
943.04	227.37
943.34	227.39
943.64	227.39
943.94	227.39
944.24	227.36
944.54	227.40
944.84	227.40
945.13	227.38
945.43	227.33
945.73	227.32
946.03	227.27
946.33	227.28
946.62	227.27
946.92	227.24
947.22	227.25
947.52	227.24
947.82	227.26
948.11	227.26
948.41	227.24
948.71	227.21
949.01	227.22
949.31	227.18
949.60	227.13
949.90	227.15
950.20	227.14
950.50	227.16
950.79	227.13
951.09	227.16
951.39	227.17
951.69	227.20
951.98	227.17
952.28	227.18
952.58	227.14
952.87	227.12
953.17	227.14
953.47	227.14
953.76	227.13
954.06	227.05
954.36	227.03
954.66	227.04
954.95	227.06
955.25	227.05
955.55	227.08
955.84	227.10
956.14	227.09
956.44	227.11
956.73	227.06
957.03	227.05
957.32	227.04
957.62	227.03
957.92	227.00
958.21	227.03
958.51	227.11
958.81	227.14
959.10	227.15
959.40	227.17
959.69	227.17
959.99	227.19
960.29	227.21
960.58	227.22
960.88	227.28
961.17	227.27
961.47	227.27
961.76	227.26
962.06	227.29
962.36	227.30
962.65	227.30
962.95	227.33
963.24	227.34
963.54	227.34
963.83	227.35
964.13	227.38
964.42	227.38
964.72	227.35
965.01	227.37
965.31	227.41
965.60	227.42
965.90	227.50
966.19	227.48
966.49	227.49
966.78	227.49
967.08	227.45
967.37	227.47
967.67	227.46
967.96	227.49
968.26	227.50
968.55	227.50
968.85	227.48
969.14	227.48
969.43	227.46
969.73	227.47
970.02	227.46
970.32	227.49
970.61	227.44
970.91	227.40
971.20	227.43
971.49	227.44
971.79	227.42
972.08	227.35
972.38	227.38
972.67	227.41
972.96	227.45
973.26	227.41
973.55	227.44
973.85	227.46
974.14	227.46
974.43	227.47
974.73	227.46
975.02	227.45
975.31	227.46
975.61	227.49
975.90	227.49
976.19	227.49
976.49	227.45
976.78	227.47
977.07	227.47
977.37	227.43
977.66	227.39
977.95	227.41
978.24	227.40
978.54	227.42
978.83	227.41
979.12	227.41
979.42	227.43
979.71	227.41
980.00	227.37
980.29	227.34
980.59	227.28
980.88	227.32
981.17	227.31
981.46	227.32
981.76	227.29
982.05	227.31
982.34	227.32
982.63	227.35
982.93	227.36
983.22	227.37
983.51	227.37
983.80	227.38
984.09	227.35
984.39	227.35
984.68	227.29
984.97	227.30
985.26	227.25
985.55	227.25
985.85	227.22
986.14	227.26
986.43	227.28
986.72	227.30
987.01	227.24
987.30	227.23
987.59	227.24
987.89	227.24
988.18	227.19
988.47	227.15
988.76	227.13
989.05	227.14
989.34	227.13
989.63	227.15
989.92	227.12
990.22	227.09
990.51	227.10
990.80	227.13
991.09	227.12
991.38	227.17
991.67	227.18
991.96	227.17
992.25	227.16
992.54	227.13
992.83	227.13
993.12	227.12
993.41	227.13
993.70	227.16
993.99	227.18
994.28	227.21
994.58	227.25
994.87	227.25
995.16	227.22
995.45	227.21
995.74	227.19
996.03	227.26
996.32	227.29
996.61	227.32
996.90	227.32
997.19	227.31
997.48	227.31
997.77	227.29
998.06	227.31
998.34	227.32
998.63	227.36
998.92	227.38
999.21	227.44
999.50	227.43
999.79	227.40
1000.08	227.39
1000.37	227.39
1000.66	227.36
1000.95	227.38
1001.24	227.41
1001.53	227.43
1001.82	227.44
1002.11	227.40
1002.40	227.40
1002.68	227.41
1002.97	227.50
1003.26	227.51
1003.55	227.48
1003.84	227.47
1004.13	227.48
1004.42	227.44
1004.71	227.40
1004.99	227.38
1005.28	227.41
1005.57	227.44
1005.86	227.42
1006.15	227.44
1006.44	227.43
1006.72	227.45
1007.01	227.46
1007.30	227.44
1007.59	227.44
1007.88	227.44
1008.17	227.42
1008.45	227.42
1008.74	227.39
1009.03	227.32
1009.32	227.31
1009.60	227.32
1009.89	227.33
1010.18	227.33
1010.47	227.33
1010.76	227.33
1011.04	227.33
1011.33	227.32
1011.62	227.31
1011.91	227.32
1012.19	227.29
1012.48	227.31
1012.77	227.30
1013.05	227.33
1013.34	227.30
1013.63	227.30
1013.92	227.27
1014.20	227.26
1014.49	227.25
1014.78	227.27
1015.06	227.23
1015.35	227.20
1015.64	227.23
1015.92	227.24
1016.21	227.25
1016.50	227.26
1016.78	227.32
1017.07	227.33
1017.36	227.31
1017.64	227.30
1017.93	227.32
1018.22	227.34
1018.50	227.32
1018.79	227.32
1019.08	227.24
1019.36	227.25
1019.65	227.24
1019.93	227.29
1020.22	227.32
1020.51	227.37
1020.79	227.34
1021.08	227.36
1021.36	227.27
1021.65	227.07
1021.94	226.63
1022.22	227.00
1022.51	227.27
1022.79	227.73
1023.08	227.50
1023.36	228.31
1023.65	226.50
>>>>>End Processed Spectral Data<<<<<
