SpectraSuite Data File
++++++++++++++++++++++++++++++++++++
Date: Fri Feb 01 16:29:58 EST 2013
User: group
Dark Spectrum Present: No
Reference Spectrum Present: No
Number of Sampled Component Spectra: 1
Spectrometers: USB2E7196
Integration Time (usec): 35000 (USB2E7196)
Spectra Averaged: 100 (USB2E7196)
Boxcar Smoothing: 10 (USB2E7196)
Correct for Electrical Dark: No (USB2E7196)
Strobe/Lamp Enabled: No (USB2E7196)
Correct for Detector Non-linearity: No (USB2E7196)
Correct for Stray Light: No (USB2E7196)
Number of Pixels in Processed Spectrum: 2048
>>>>>Begin Processed Spectral Data<<<<<
339.09	0.00
339.48	214.15
339.86	215.38
340.24	216.67
340.63	218.55
341.01	220.65
341.39	220.87
341.78	222.06
342.16	223.72
342.54	224.21
342.93	212.43
343.31	223.16
343.69	223.71
344.07	224.16
344.46	224.61
344.84	224.98
345.22	225.22
345.60	225.43
345.99	225.62
346.37	225.71
346.75	225.79
347.13	225.90
347.52	225.91
347.90	225.97
348.28	226.01
348.66	226.09
349.05	226.07
349.43	226.09
349.81	226.14
350.19	226.17
350.57	226.22
350.96	226.32
351.34	226.41
351.72	226.49
352.10	226.60
352.48	226.63
352.87	226.67
353.25	226.74
353.63	226.82
354.01	226.89
354.39	226.99
354.77	227.04
355.15	227.12
355.54	227.21
355.92	227.26
356.30	227.30
356.68	227.42
357.06	227.52
357.44	227.60
357.82	227.65
358.20	227.76
358.58	227.82
358.97	227.88
359.35	227.97
359.73	228.07
360.11	228.16
360.49	228.25
360.87	228.30
361.25	228.38
361.63	228.48
362.01	228.52
362.39	228.58
362.77	228.66
363.15	228.70
363.53	228.73
363.91	228.76
364.29	228.79
364.67	228.70
365.05	228.69
365.43	228.72
365.81	228.76
366.19	228.76
366.57	228.81
366.95	228.82
367.33	228.78
367.71	228.75
368.09	228.73
368.47	228.73
368.85	228.75
369.23	228.74
369.61	228.67
369.99	228.70
370.37	228.69
370.75	228.69
371.13	228.61
371.51	228.56
371.89	228.53
372.27	228.48
372.65	228.46
373.03	228.44
373.41	228.38
373.78	228.31
374.16	228.24
374.54	228.14
374.92	228.06
375.30	227.99
375.68	227.93
376.06	227.87
376.44	227.80
376.82	227.73
377.19	227.67
377.57	227.60
377.95	227.50
378.33	227.40
378.71	227.29
379.09	227.24
379.47	227.18
379.84	227.12
380.22	227.04
380.60	226.92
380.98	226.84
381.36	226.75
381.73	226.68
382.11	226.62
382.49	226.55
382.87	226.47
383.25	226.43
383.62	226.47
384.00	226.41
384.38	226.36
384.76	226.30
385.13	226.28
385.51	226.21
385.89	226.14
386.27	226.08
386.64	226.05
387.02	226.02
387.40	225.93
387.78	225.92
388.15	225.89
388.53	225.90
388.91	225.85
389.29	225.81
389.66	225.78
390.04	225.73
390.42	225.74
390.79	225.71
391.17	225.67
391.55	225.50
391.92	225.44
392.30	225.42
392.68	225.39
393.05	225.38
393.43	225.41
393.81	225.43
394.18	225.40
394.56	225.38
394.94	225.39
395.31	225.41
395.69	225.44
396.06	225.46
396.44	225.46
396.82	225.49
397.19	225.58
397.57	225.62
397.95	225.67
398.32	225.67
398.70	225.72
399.07	225.80
399.45	225.86
399.82	225.90
400.20	225.97
400.58	226.05
400.95	226.06
401.33	226.13
401.70	226.25
402.08	226.32
402.45	226.43
402.83	226.53
403.20	226.66
403.58	226.74
403.95	226.88
404.33	227.00
404.71	227.10
405.08	227.26
405.46	227.36
405.83	227.50
406.21	227.63
406.58	227.80
406.96	227.96
407.33	228.17
407.70	228.39
408.08	228.65
408.45	228.82
408.83	229.04
409.20	229.25
409.58	229.42
409.95	229.70
410.33	229.96
410.70	230.19
411.08	230.48
411.45	230.74
411.82	231.05
412.20	231.39
412.57	231.79
412.95	232.08
413.32	232.55
413.69	232.95
414.07	233.39
414.44	233.85
414.82	234.36
415.19	234.91
415.56	235.46
415.94	236.01
416.31	236.65
416.68	237.29
417.06	238.00
417.43	238.71
417.81	239.50
418.18	240.25
418.55	241.09
418.93	241.96
419.30	242.90
419.67	243.82
420.04	244.80
420.42	245.80
420.79	246.99
421.16	248.12
421.54	249.32
421.91	250.54
422.28	251.78
422.66	253.05
423.03	254.34
423.40	255.66
423.77	257.06
424.15	258.50
424.52	260.02
424.89	261.65
425.26	263.21
425.64	264.66
426.01	266.28
426.38	267.97
426.75	269.66
427.13	271.38
427.50	273.19
427.87	275.07
428.24	276.92
428.61	278.65
428.99	280.56
429.36	282.66
429.73	284.74
430.10	286.78
430.47	288.84
430.85	290.94
431.22	293.16
431.59	295.52
431.96	297.72
432.33	300.16
432.70	302.49
433.08	305.30
433.45	307.91
433.82	310.51
434.19	313.40
434.56	316.22
434.93	318.84
435.30	321.46
435.68	324.30
436.05	327.13
436.42	329.91
436.79	332.42
437.16	335.09
437.53	337.88
437.90	340.67
438.27	343.37
438.64	346.18
439.01	348.78
439.38	350.99
439.75	353.17
440.13	355.63
440.50	357.97
440.87	359.77
441.24	361.69
441.61	363.84
441.98	365.25
442.35	366.97
442.72	368.84
443.09	370.57
443.46	371.61
443.83	372.20
444.20	372.73
444.57	373.54
444.94	373.83
445.31	374.15
445.68	374.52
446.05	374.61
446.42	374.21
446.79	373.80
447.16	373.38
447.53	373.03
447.90	371.90
448.27	370.72
448.64	369.16
449.01	368.06
449.37	366.13
449.74	364.30
450.11	362.09
450.48	359.58
450.85	357.14
451.22	355.01
451.59	353.01
451.96	351.04
452.33	348.44
452.70	346.11
453.07	343.30
453.43	340.35
453.80	337.61
454.17	334.89
454.54	332.35
454.91	329.65
455.28	326.99
455.65	324.54
456.02	322.11
456.38	319.95
456.75	317.27
457.12	314.96
457.49	312.74
457.86	310.61
458.23	308.78
458.59	306.73
458.96	304.63
459.33	302.79
459.70	300.98
460.07	299.50
460.43	297.80
460.80	296.27
461.17	294.87
461.54	293.40
461.91	292.02
462.27	290.59
462.64	289.34
463.01	288.04
463.38	286.78
463.74	285.46
464.11	284.34
464.48	283.33
464.85	282.27
465.21	281.44
465.58	280.50
465.95	279.41
466.32	278.49
466.68	277.61
467.05	276.72
467.42	275.84
467.78	274.90
468.15	274.05
468.52	273.33
468.88	272.51
469.25	271.78
469.62	271.19
469.98	270.56
470.35	269.96
470.72	269.37
471.08	268.69
471.45	268.15
471.82	267.63
472.18	267.04
472.55	266.60
472.92	266.07
473.28	265.65
473.65	265.25
474.02	264.81
474.38	264.48
474.75	264.15
475.11	263.81
475.48	263.61
475.85	263.37
476.21	263.14
476.58	262.97
476.94	262.79
477.31	262.64
477.67	262.47
478.04	262.32
478.41	262.24
478.77	262.34
479.14	262.28
479.50	262.29
479.87	262.38
480.23	262.49
480.60	262.56
480.96	262.61
481.33	262.81
481.69	263.03
482.06	263.21
482.42	263.42
482.79	263.64
483.15	263.94
483.52	264.31
483.88	264.68
484.25	265.07
484.61	265.53
484.98	265.97
485.34	266.52
485.71	267.16
486.07	267.80
486.44	268.33
486.80	269.03
487.17	269.76
487.53	270.54
487.90	271.34
488.26	272.28
488.62	273.27
488.99	274.24
489.35	275.29
489.72	276.41
490.08	277.59
490.44	278.87
490.81	280.19
491.17	281.55
491.54	283.05
491.90	284.55
492.26	286.16
492.63	287.93
492.99	289.72
493.36	291.60
493.72	293.60
494.08	295.71
494.45	297.96
494.81	300.36
495.17	302.82
495.54	305.41
495.90	308.10
496.26	310.91
496.63	313.86
496.99	316.96
497.35	320.20
497.72	323.65
498.08	327.16
498.44	330.87
498.80	334.77
499.17	338.78
499.53	343.04
499.89	347.37
500.26	351.86
500.62	356.56
500.98	361.53
501.34	366.68
501.71	372.01
502.07	377.41
502.43	383.02
502.79	388.86
503.16	394.89
503.52	401.19
503.88	407.58
504.24	414.28
504.60	421.16
504.97	428.29
505.33	435.62
505.69	443.32
506.05	451.10
506.41	459.00
506.78	467.21
507.14	475.62
507.50	484.40
507.86	493.42
508.22	502.58
508.59	511.77
508.95	521.30
509.31	531.14
509.67	541.28
510.03	551.56
510.39	562.10
510.75	572.97
511.12	583.88
511.48	595.26
511.84	606.67
512.20	618.19
512.56	630.18
512.92	642.33
513.28	654.71
513.64	667.16
514.00	679.83
514.37	692.70
514.73	705.74
515.09	718.82
515.45	732.11
515.81	745.63
516.17	759.62
516.53	773.67
516.89	787.84
517.25	801.93
517.61	816.32
517.97	830.65
518.33	845.02
518.69	859.77
519.05	874.64
519.41	889.74
519.77	905.24
520.13	920.69
520.49	936.04
520.85	951.40
521.21	967.08
521.57	983.28
521.93	999.01
522.29	1015.26
522.65	1031.34
523.01	1047.51
523.37	1063.56
523.73	1079.52
524.09	1095.53
524.45	1111.74
524.81	1128.34
525.17	1145.09
525.53	1162.02
525.89	1178.79
526.25	1195.49
526.61	1211.86
526.97	1228.57
527.33	1244.96
527.68	1261.40
528.04	1277.83
528.40	1294.26
528.76	1311.21
529.12	1327.69
529.48	1344.52
529.84	1360.45
530.20	1377.02
530.56	1393.89
530.91	1411.19
531.27	1428.01
531.63	1444.44
531.99	1460.92
532.35	1476.86
532.71	1492.60
533.07	1508.84
533.42	1524.76
533.78	1540.61
534.14	1556.72
534.50	1571.88
534.86	1587.68
535.21	1602.79
535.57	1618.55
535.93	1633.97
536.29	1648.60
536.65	1663.58
537.00	1678.17
537.36	1693.42
537.72	1707.87
538.08	1722.31
538.44	1736.02
538.79	1749.76
539.15	1763.23
539.51	1776.85
539.87	1791.09
540.22	1804.88
540.58	1818.38
540.94	1831.53
541.29	1844.48
541.65	1857.06
542.01	1870.20
542.37	1882.42
542.72	1894.77
543.08	1906.56
543.44	1918.82
543.79	1930.01
544.15	1940.91
544.51	1952.40
544.87	1963.32
545.22	1974.14
545.58	1984.09
545.94	1993.74
546.29	2003.41
546.65	2013.19
547.01	2022.42
547.36	2030.92
547.72	2039.18
548.07	2046.94
548.43	2055.01
548.79	2062.97
549.14	2070.48
549.50	2077.80
549.86	2085.30
550.21	2092.56
550.57	2099.63
550.92	2106.18
551.28	2113.20
551.64	2120.11
551.99	2126.61
552.35	2132.61
552.70	2138.62
553.06	2144.60
553.41	2151.05
553.77	2157.06
554.13	2163.23
554.48	2169.39
554.84	2174.90
555.19	2180.15
555.55	2185.38
555.90	2189.86
556.26	2194.65
556.61	2199.43
556.97	2203.73
557.32	2207.89
557.68	2212.08
558.03	2216.35
558.39	2220.17
558.74	2224.77
559.10	2228.81
559.45	2232.57
559.81	2236.97
560.16	2240.73
560.52	2244.08
560.87	2247.41
561.23	2250.11
561.58	2253.11
561.94	2255.62
562.29	2257.99
562.64	2260.70
563.00	2263.19
563.35	2266.70
563.71	2269.82
564.06	2273.12
564.42	2275.96
564.77	2278.46
565.12	2280.63
565.48	2282.57
565.83	2284.28
566.19	2285.66
566.54	2286.46
566.89	2287.64
567.25	2288.28
567.60	2289.58
567.96	2291.18
568.31	2292.03
568.66	2293.32
569.02	2293.75
569.37	2294.11
569.72	2294.96
570.08	2295.09
570.43	2295.24
570.78	2294.66
571.14	2293.22
571.49	2291.82
571.84	2291.63
572.20	2290.66
572.55	2289.72
572.90	2288.17
573.26	2286.90
573.61	2285.31
573.96	2283.73
574.31	2280.84
574.67	2277.82
575.02	2274.43
575.37	2271.17
575.72	2267.39
576.08	2264.00
576.43	2260.68
576.78	2257.03
577.13	2254.07
577.49	2251.11
577.84	2247.65
578.19	2244.18
578.54	2240.78
578.90	2236.63
579.25	2230.94
579.60	2226.05
579.95	2220.99
580.30	2216.08
580.66	2210.93
581.01	2206.13
581.36	2201.38
581.71	2197.29
582.06	2193.07
582.42	2188.64
582.77	2183.37
583.12	2179.09
583.47	2174.59
583.82	2169.82
584.17	2164.71
584.53	2159.28
584.88	2153.80
585.23	2148.29
585.58	2142.66
585.93	2137.27
586.28	2132.52
586.63	2127.76
586.98	2122.75
587.34	2118.23
587.69	2113.39
588.04	2108.24
588.39	2102.50
588.74	2096.00
589.09	2089.90
589.44	2083.04
589.79	2076.98
590.14	2071.50
590.49	2064.97
590.84	2058.55
591.19	2052.69
591.54	2046.18
591.89	2038.79
592.25	2032.04
592.60	2024.73
592.95	2017.36
593.30	2009.98
593.65	2002.38
594.00	1995.35
594.35	1988.11
594.70	1980.14
595.05	1972.98
595.40	1965.76
595.75	1958.36
596.10	1952.18
596.45	1945.41
596.80	1939.48
597.15	1933.01
597.50	1925.95
597.85	1919.47
598.19	1912.81
598.54	1905.48
598.89	1899.07
599.24	1893.31
599.59	1886.46
599.94	1880.40
600.29	1874.04
600.64	1867.45
600.99	1860.13
601.34	1853.30
601.69	1846.50
602.04	1839.65
602.39	1832.35
602.74	1825.62
603.08	1818.94
603.43	1812.23
603.78	1804.98
604.13	1797.71
604.48	1790.37
604.83	1783.56
605.18	1776.58
605.53	1768.72
605.87	1761.01
606.22	1753.63
606.57	1745.64
606.92	1738.54
607.27	1731.33
607.62	1724.43
607.96	1717.29
608.31	1710.78
608.66	1703.24
609.01	1695.67
609.36	1688.10
609.70	1680.12
610.05	1672.12
610.40	1664.42
610.75	1656.12
611.10	1648.48
611.44	1640.04
611.79	1632.13
612.14	1623.51
612.49	1614.49
612.83	1606.10
613.18	1597.90
613.53	1589.88
613.88	1581.28
614.22	1572.96
614.57	1564.33
614.92	1556.37
615.27	1548.73
615.61	1540.28
615.96	1532.19
616.31	1524.56
616.65	1517.19
617.00	1509.66
617.35	1501.93
617.70	1493.42
618.04	1484.99
618.39	1476.84
618.74	1469.26
619.08	1460.88
619.43	1453.37
619.78	1446.33
620.12	1439.17
620.47	1431.70
620.82	1423.58
621.16	1416.17
621.51	1408.56
621.85	1401.04
622.20	1392.39
622.55	1384.10
622.89	1376.37
623.24	1368.87
623.59	1361.42
623.93	1353.87
624.28	1346.60
624.62	1339.14
624.97	1332.15
625.32	1325.31
625.66	1318.25
626.01	1311.14
626.35	1303.78
626.70	1296.00
627.04	1288.22
627.39	1280.46
627.73	1273.03
628.08	1266.00
628.43	1258.82
628.77	1251.48
629.12	1243.89
629.46	1236.82
629.81	1229.29
630.15	1222.07
630.50	1214.49
630.84	1206.29
631.19	1198.42
631.53	1190.92
631.88	1183.32
632.22	1175.67
632.57	1168.25
632.91	1160.66
633.26	1153.18
633.60	1145.67
633.95	1138.54
634.29	1131.57
634.64	1124.84
634.98	1117.38
635.32	1110.30
635.67	1103.61
636.01	1096.90
636.36	1090.05
636.70	1083.53
637.05	1077.04
637.39	1070.42
637.73	1063.95
638.08	1058.12
638.42	1052.15
638.77	1045.73
639.11	1039.06
639.45	1032.64
639.80	1026.08
640.14	1019.71
640.49	1013.16
640.83	1006.92
641.17	1000.70
641.52	994.32
641.86	987.83
642.20	982.00
642.55	975.70
642.89	969.24
643.23	962.76
643.58	956.98
643.92	950.81
644.26	944.65
644.61	938.70
644.95	932.65
645.29	926.02
645.64	919.30
645.98	912.94
646.32	907.11
646.66	901.09
647.01	895.27
647.35	889.51
647.69	883.67
648.04	878.16
648.38	872.30
648.72	866.32
649.06	860.24
649.41	854.39
649.75	848.36
650.09	842.41
650.43	836.58
650.78	830.42
651.12	824.43
651.46	818.74
651.80	813.03
652.14	807.69
652.49	802.30
652.83	797.04
653.17	791.32
653.51	785.67
653.85	780.24
654.20	774.60
654.54	768.56
654.88	762.79
655.22	756.91
655.56	751.25
655.90	745.83
656.25	740.61
656.59	735.25
656.93	730.23
657.27	725.06
657.61	719.65
657.95	714.60
658.29	709.48
658.64	704.26
658.98	698.91
659.32	693.42
659.66	688.25
660.00	682.92
660.34	678.02
660.68	673.04
661.02	668.05
661.36	663.33
661.70	658.83
662.05	654.55
662.39	650.18
662.73	645.70
663.07	641.27
663.41	636.89
663.75	632.40
664.09	627.79
664.43	623.42
664.77	619.26
665.11	614.98
665.45	610.88
665.79	606.76
666.13	602.64
666.47	598.59
666.81	594.43
667.15	590.33
667.49	586.43
667.83	582.69
668.17	578.70
668.51	574.63
668.85	570.63
669.19	566.70
669.53	562.85
669.87	558.98
670.21	555.24
670.55	551.58
670.89	548.15
671.23	544.76
671.57	541.20
671.91	537.66
672.25	534.16
672.58	530.55
672.92	527.10
673.26	523.97
673.60	520.74
673.94	517.58
674.28	514.68
674.62	511.71
674.96	508.52
675.30	505.64
675.64	502.70
675.97	499.92
676.31	497.12
676.65	494.15
676.99	491.43
677.33	488.56
677.67	485.71
678.01	482.65
678.34	479.70
678.68	476.86
679.02	474.04
679.36	471.26
679.70	468.60
680.04	465.87
680.37	462.92
680.71	460.14
681.05	457.53
681.39	454.79
681.73	452.15
682.06	449.64
682.40	447.05
682.74	444.52
683.08	441.95
683.42	439.30
683.75	436.82
684.09	434.28
684.43	431.84
684.77	429.40
685.10	427.03
685.44	424.70
685.78	422.40
686.12	420.13
686.45	417.86
686.79	415.55
687.13	413.38
687.46	411.24
687.80	409.07
688.14	406.87
688.48	404.79
688.81	402.50
689.15	400.35
689.49	398.17
689.82	396.11
690.16	394.03
690.50	392.10
690.83	390.18
691.17	388.16
691.51	386.22
691.84	384.35
692.18	382.45
692.52	380.41
692.85	378.52
693.19	376.67
693.52	374.80
693.86	372.97
694.20	371.17
694.53	369.36
694.87	367.51
695.21	365.75
695.54	363.95
695.88	362.24
696.21	360.51
696.55	358.85
696.88	357.15
697.22	355.47
697.56	353.84
697.89	352.15
698.23	350.55
698.56	348.93
698.90	347.32
699.23	345.65
699.57	344.09
699.90	342.51
700.24	340.97
700.58	339.42
700.91	337.94
701.25	336.49
701.58	335.16
701.92	333.82
702.25	332.42
702.59	331.04
702.92	329.67
703.26	328.39
703.59	327.12
703.93	325.91
704.26	324.68
704.60	323.37
704.93	322.12
705.26	320.86
705.60	319.69
705.93	318.54
706.27	317.51
706.60	316.48
706.94	315.39
707.27	314.26
707.61	313.24
707.94	312.19
708.27	311.07
708.61	309.92
708.94	308.88
709.28	307.89
709.61	306.96
709.94	306.01
710.28	304.96
710.61	303.95
710.95	302.92
711.28	302.00
711.61	301.06
711.95	300.12
712.28	299.14
712.61	298.13
712.95	297.19
713.28	296.34
713.61	295.42
713.95	294.56
714.28	293.68
714.61	292.81
714.95	291.97
715.28	291.11
715.61	290.28
715.95	289.43
716.28	288.56
716.61	287.70
716.95	286.89
717.28	286.16
717.61	285.42
717.94	284.66
718.28	283.85
718.61	283.17
718.94	282.50
719.27	281.87
719.61	281.29
719.94	280.63
720.27	279.89
720.60	279.28
720.94	278.64
721.27	278.03
721.60	277.43
721.93	276.83
722.27	276.30
722.60	275.73
722.93	275.18
723.26	274.66
723.59	274.10
723.93	273.54
724.26	273.00
724.59	272.44
724.92	271.90
725.25	271.39
725.59	270.84
725.92	270.32
726.25	269.85
726.58	269.35
726.91	268.82
727.24	268.33
727.57	267.82
727.91	267.27
728.24	266.81
728.57	266.34
728.90	265.86
729.23	265.37
729.56	264.94
729.89	264.49
730.22	264.00
730.55	263.50
730.89	263.07
731.22	262.58
731.55	262.15
731.88	261.78
732.21	261.36
732.54	260.89
732.87	260.47
733.20	260.03
733.53	259.64
733.86	259.29
734.19	258.94
734.52	258.55
734.85	258.26
735.18	257.88
735.51	257.53
735.84	257.18
736.17	256.84
736.50	256.44
736.83	256.18
737.16	255.85
737.49	255.58
737.82	255.21
738.15	254.91
738.48	254.60
738.81	254.25
739.14	253.93
739.47	253.64
739.80	253.37
740.13	253.08
740.46	252.72
740.79	252.39
741.12	252.06
741.45	251.76
741.78	251.42
742.11	251.15
742.44	250.83
742.77	250.56
743.10	250.22
743.43	249.94
743.75	249.57
744.08	249.45
744.41	249.15
744.74	248.91
745.07	248.62
745.40	248.35
745.73	248.12
746.06	247.84
746.39	247.56
746.71	247.26
747.04	246.98
747.37	246.75
747.70	246.52
748.03	246.28
748.36	246.08
748.68	245.85
749.01	245.55
749.34	245.28
749.67	245.03
750.00	244.82
750.33	244.64
750.65	244.41
750.98	244.03
751.31	243.84
751.64	243.64
751.97	243.46
752.29	243.24
752.62	243.01
752.95	242.81
753.28	242.61
753.60	242.41
753.93	242.23
754.26	242.01
754.59	241.78
754.91	241.55
755.24	241.33
755.57	241.12
755.90	240.98
756.22	240.81
756.55	240.62
756.88	240.45
757.20	240.22
757.53	240.02
757.86	239.82
758.19	239.63
758.51	239.44
758.84	239.22
759.17	239.04
759.49	238.84
759.82	238.72
760.15	238.56
760.47	238.41
760.80	238.24
761.13	238.12
761.45	237.94
761.78	237.80
762.11	237.65
762.43	237.51
762.76	237.33
763.08	237.18
763.41	237.05
763.74	236.92
764.06	236.78
764.39	236.67
764.71	236.57
765.04	236.39
765.37	236.24
765.69	236.12
766.02	235.99
766.34	235.88
766.67	235.70
767.00	235.60
767.32	235.51
767.65	235.42
767.97	235.29
768.30	235.20
768.62	235.07
768.95	234.93
769.27	234.80
769.60	234.71
769.92	234.63
770.25	234.49
770.57	234.39
770.90	234.26
771.22	234.15
771.55	234.05
771.87	233.97
772.20	233.88
772.52	233.90
772.85	233.94
773.17	233.87
773.50	233.77
773.82	233.69
774.15	233.55
774.47	233.39
774.80	233.28
775.12	233.16
775.45	233.10
775.77	233.05
776.09	232.98
776.42	232.91
776.74	232.82
777.07	232.77
777.39	232.67
777.72	232.58
778.04	232.53
778.36	232.44
778.69	232.39
779.01	232.33
779.33	232.17
779.66	231.96
779.98	231.83
780.31	231.77
780.63	231.76
780.95	231.74
781.28	231.71
781.60	231.66
781.92	231.64
782.25	231.56
782.57	231.48
782.89	231.44
783.22	231.39
783.54	231.34
783.86	231.28
784.19	231.19
784.51	231.21
784.83	231.17
785.16	231.11
785.48	231.07
785.80	231.02
786.12	230.97
786.45	230.97
786.77	230.98
787.09	230.93
787.42	230.83
787.74	230.79
788.06	230.74
788.38	230.72
788.71	230.66
789.03	230.62
789.35	230.63
789.67	230.59
789.99	230.58
790.32	230.53
790.64	230.50
790.96	230.57
791.28	230.47
791.61	230.42
791.93	230.42
792.25	230.37
792.57	230.41
792.89	230.36
793.21	230.33
793.54	230.28
793.86	230.25
794.18	230.25
794.50	230.20
794.82	230.18
795.14	230.16
795.47	230.13
795.79	230.11
796.11	230.02
796.43	229.96
796.75	229.88
797.07	229.86
797.39	229.82
797.71	229.73
798.04	229.70
798.36	229.65
798.68	229.58
799.00	229.56
799.32	229.50
799.64	229.50
799.96	229.43
800.28	229.39
800.60	229.35
800.92	229.30
801.24	229.22
801.56	229.17
801.89	229.12
802.21	229.12
802.53	229.07
802.85	229.06
803.17	229.07
803.49	229.04
803.81	228.99
804.13	228.97
804.45	228.90
804.77	228.89
805.09	228.87
805.41	228.85
805.73	228.79
806.05	228.70
806.37	228.64
806.69	228.61
807.01	228.57
807.33	228.53
807.65	228.46
807.97	228.49
808.28	228.45
808.60	228.42
808.92	228.33
809.24	228.39
809.56	228.36
809.88	228.27
810.20	228.23
810.52	228.23
810.84	228.17
811.16	228.16
811.48	228.12
811.80	228.10
812.12	228.09
812.43	228.08
812.75	228.07
813.07	228.05
813.39	228.05
813.71	228.04
814.03	228.02
814.35	228.03
814.67	227.98
814.98	227.98
815.30	227.98
815.62	227.94
815.94	227.83
816.26	227.84
816.58	227.85
816.89	227.87
817.21	227.84
817.53	227.84
817.85	227.84
818.17	227.82
818.48	227.77
818.80	227.76
819.12	227.73
819.44	227.72
819.76	227.67
820.07	227.65
820.39	227.63
820.71	227.61
821.03	227.62
821.34	227.60
821.66	227.59
821.98	227.57
822.30	227.59
822.61	227.63
822.93	227.59
823.25	227.55
823.57	227.50
823.88	227.51
824.20	227.51
824.52	227.49
824.83	227.46
825.15	227.47
825.47	227.44
825.79	227.47
826.10	227.44
826.42	227.43
826.74	227.42
827.05	227.40
827.37	227.40
827.69	227.37
828.00	227.37
828.32	227.38
828.64	227.37
828.95	227.44
829.27	227.40
829.58	227.40
829.90	227.46
830.22	227.46
830.53	227.38
830.85	227.38
831.17	227.35
831.48	227.36
831.80	227.35
832.11	227.34
832.43	227.30
832.75	227.31
833.06	227.35
833.38	227.32
833.69	227.33
834.01	227.33
834.32	227.31
834.64	227.29
834.96	227.24
835.27	227.24
835.59	227.18
835.90	227.18
836.22	227.16
836.53	227.11
836.85	227.07
837.16	227.20
837.48	227.18
837.79	227.20
838.11	227.19
838.42	227.18
838.74	227.18
839.05	227.19
839.37	227.16
839.68	227.11
840.00	227.08
840.31	227.07
840.63	227.05
840.94	227.01
841.26	227.00
841.57	226.99
841.88	226.95
842.20	226.94
842.51	226.90
842.83	226.91
843.14	226.98
843.46	226.98
843.77	226.90
844.08	226.88
844.40	226.83
844.71	226.82
845.03	226.78
845.34	226.79
845.65	226.73
845.97	226.73
846.28	226.73
846.60	226.72
846.91	226.68
847.22	226.66
847.54	226.69
847.85	226.68
848.16	226.69
848.48	226.68
848.79	226.67
849.10	226.70
849.42	226.68
849.73	226.56
850.04	226.54
850.36	226.52
850.67	226.53
850.98	226.55
851.30	226.52
851.61	226.55
851.92	226.53
852.23	226.58
852.55	226.59
852.86	226.60
853.17	226.61
853.49	226.65
853.80	226.68
854.11	226.66
854.42	226.67
854.74	226.63
855.05	226.60
855.36	226.56
855.67	226.53
855.99	226.51
856.30	226.64
856.61	226.65
856.92	226.66
857.23	226.67
857.55	226.64
857.86	226.60
858.17	226.60
858.48	226.61
858.79	226.57
859.11	226.54
859.42	226.56
859.73	226.55
860.04	226.50
860.35	226.46
860.66	226.42
860.98	226.42
861.29	226.44
861.60	226.47
861.91	226.50
862.22	226.49
862.53	226.47
862.84	226.37
863.16	226.40
863.47	226.35
863.78	226.37
864.09	226.37
864.40	226.40
864.71	226.39
865.02	226.38
865.33	226.38
865.64	226.38
865.95	226.37
866.27	226.45
866.58	226.48
866.89	226.49
867.20	226.54
867.51	226.52
867.82	226.51
868.13	226.54
868.44	226.53
868.75	226.56
869.06	226.58
869.37	226.60
869.68	226.54
869.99	226.54
870.30	226.53
870.61	226.58
870.92	226.58
871.23	226.58
871.54	226.58
871.85	226.62
872.16	226.63
872.47	226.61
872.78	226.56
873.09	226.58
873.40	226.59
873.71	226.60
874.02	226.60
874.33	226.59
874.64	226.57
874.95	226.57
875.26	226.53
875.56	226.52
875.87	226.52
876.18	226.55
876.49	226.66
876.80	226.64
877.11	226.59
877.42	226.58
877.73	226.59
878.04	226.55
878.35	226.53
878.66	226.51
878.96	226.52
879.27	226.51
879.58	226.47
879.89	226.44
880.20	226.42
880.51	226.40
880.82	226.39
881.12	226.38
881.43	226.35
881.74	226.33
882.05	226.33
882.36	226.31
882.67	226.28
882.97	226.17
883.28	226.16
883.59	226.19
883.90	226.20
884.21	226.22
884.51	226.22
884.82	226.18
885.13	226.17
885.44	226.15
885.74	226.13
886.05	226.13
886.36	226.14
886.67	226.12
886.98	226.18
887.28	226.21
887.59	226.17
887.90	226.18
888.20	226.18
888.51	226.23
888.82	226.18
889.13	226.17
889.43	226.26
889.74	226.24
890.05	226.21
890.35	226.20
890.66	226.16
890.97	226.16
891.28	226.14
891.58	226.14
891.89	226.18
892.20	226.16
892.50	226.19
892.81	226.17
893.12	226.15
893.42	226.10
893.73	226.09
894.04	226.12
894.34	226.13
894.65	226.15
894.95	226.10
895.26	226.16
895.57	226.24
895.87	226.15
896.18	226.16
896.48	226.18
896.79	226.21
897.10	226.23
897.40	226.24
897.71	226.28
898.01	226.29
898.32	226.25
898.63	226.27
898.93	226.27
899.24	226.28
899.54	226.26
899.85	226.29
900.15	226.28
900.46	226.27
900.76	226.29
901.07	226.28
901.38	226.27
901.68	226.29
901.99	226.22
902.29	226.20
902.60	226.23
902.90	226.22
903.21	226.20
903.51	226.20
903.82	226.24
904.12	226.25
904.43	226.28
904.73	226.30
905.03	226.29
905.34	226.40
905.64	226.38
905.95	226.42
906.25	226.38
906.56	226.37
906.86	226.39
907.17	226.38
907.47	226.40
907.77	226.41
908.08	226.37
908.38	226.39
908.69	226.42
908.99	226.42
909.30	226.43
909.60	226.44
909.90	226.44
910.21	226.38
910.51	226.40
910.81	226.36
911.12	226.36
911.42	226.39
911.73	226.24
912.03	226.28
912.33	226.32
912.64	226.34
912.94	226.35
913.24	226.37
913.55	226.35
913.85	226.34
914.15	226.37
914.46	226.37
914.76	226.36
915.06	226.38
915.37	226.35
915.67	226.34
915.97	226.35
916.27	226.30
916.58	226.29
916.88	226.23
917.18	226.25
917.49	226.31
917.79	226.29
918.09	226.33
918.39	226.33
918.70	226.32
919.00	226.30
919.30	226.34
919.60	226.29
919.91	226.26
920.21	226.26
920.51	226.22
920.81	226.21
921.12	226.19
921.42	226.18
921.72	226.21
922.02	226.21
922.32	226.19
922.63	226.21
922.93	226.28
923.23	226.31
923.53	226.30
923.83	226.19
924.13	226.18
924.44	226.15
924.74	226.11
925.04	226.13
925.34	226.10
925.64	226.05
925.94	226.05
926.24	226.10
926.55	226.08
926.85	226.08
927.15	226.06
927.45	226.07
927.75	226.02
928.05	226.02
928.35	225.99
928.65	225.97
928.95	225.97
929.26	225.94
929.56	225.93
929.86	225.90
930.16	225.92
930.46	225.91
930.76	225.93
931.06	225.90
931.36	225.84
931.66	225.82
931.96	225.83
932.26	225.82
932.56	225.77
932.86	225.79
933.16	225.76
933.46	225.77
933.76	225.74
934.06	225.76
934.36	225.79
934.66	225.77
934.96	225.76
935.26	225.74
935.56	225.76
935.86	225.76
936.16	225.78
936.46	225.77
936.76	225.75
937.06	225.73
937.36	225.74
937.66	225.74
937.96	225.78
938.26	225.76
938.56	225.76
938.86	225.78
939.16	225.81
939.46	225.86
939.76	225.84
940.06	225.87
940.35	225.86
940.65	225.80
940.95	225.83
941.25	225.86
941.55	225.87
941.85	225.84
942.15	225.86
942.45	225.88
942.75	225.84
943.04	225.86
943.34	225.87
943.64	225.83
943.94	225.83
944.24	225.85
944.54	225.84
944.84	225.82
945.13	225.80
945.43	225.77
945.73	225.73
946.03	225.72
946.33	225.65
946.62	225.61
946.92	225.61
947.22	225.60
947.52	225.59
947.82	225.59
948.11	225.54
948.41	225.53
948.71	225.49
949.01	225.52
949.31	225.52
949.60	225.52
949.90	225.58
950.20	225.57
950.50	225.54
950.79	225.56
951.09	225.60
951.39	225.59
951.69	225.57
951.98	225.61
952.28	225.64
952.58	225.65
952.87	225.69
953.17	225.67
953.47	225.65
953.76	225.64
954.06	225.59
954.36	225.61
954.66	225.61
954.95	225.63
955.25	225.64
955.55	225.65
955.84	225.63
956.14	225.61
956.44	225.62
956.73	225.59
957.03	225.56
957.32	225.58
957.62	225.62
957.92	225.66
958.21	225.64
958.51	225.74
958.81	225.78
959.10	225.77
959.40	225.84
959.69	225.87
959.99	225.86
960.29	225.88
960.58	225.87
960.88	225.87
961.17	225.87
961.47	225.88
961.76	225.85
962.06	225.89
962.36	225.87
962.65	225.89
962.95	225.94
963.24	225.98
963.54	225.94
963.83	225.93
964.13	225.93
964.42	225.91
964.72	225.83
965.01	225.84
965.31	225.84
965.60	225.78
965.90	225.85
966.19	225.87
966.49	225.87
966.78	225.89
967.08	225.90
967.37	225.89
967.67	225.86
967.96	225.88
968.26	225.85
968.55	225.85
968.85	225.83
969.14	225.82
969.43	225.82
969.73	225.83
970.02	225.82
970.32	225.80
970.61	225.85
970.91	225.83
971.20	225.80
971.49	225.78
971.79	225.84
972.08	225.78
972.38	225.77
972.67	225.78
972.96	225.79
973.26	225.74
973.55	225.81
973.85	225.82
974.14	225.83
974.43	225.86
974.73	225.88
975.02	225.91
975.31	225.90
975.61	225.86
975.90	225.85
976.19	225.86
976.49	225.89
976.78	225.88
977.07	225.86
977.37	225.88
977.66	225.89
977.95	225.89
978.24	225.91
978.54	225.94
978.83	225.95
979.12	225.96
979.42	225.99
979.71	225.96
980.00	225.99
980.29	226.04
980.59	226.00
980.88	226.05
981.17	226.03
981.46	226.07
981.76	226.08
982.05	226.12
982.34	226.14
982.63	226.11
982.93	226.10
983.22	226.17
983.51	226.19
983.80	226.22
984.09	226.20
984.39	226.14
984.68	226.14
984.97	226.10
985.26	226.08
985.55	226.06
985.85	226.06
986.14	226.06
986.43	226.02
986.72	226.01
987.01	225.95
987.30	225.94
987.59	225.92
987.89	225.95
988.18	225.92
988.47	225.89
988.76	225.84
989.05	225.85
989.34	225.79
989.63	225.82
989.92	225.77
990.22	225.77
990.51	225.79
990.80	225.77
991.09	225.81
991.38	225.81
991.67	225.83
991.96	225.79
992.25	225.78
992.54	225.76
992.83	225.77
993.12	225.80
993.41	225.79
993.70	225.83
993.99	225.81
994.28	225.83
994.58	225.85
994.87	225.86
995.16	225.83
995.45	225.83
995.74	225.80
996.03	225.84
996.32	225.86
996.61	225.89
996.90	225.89
997.19	225.89
997.48	225.90
997.77	225.88
998.06	225.93
998.34	225.91
998.63	225.93
998.92	225.93
999.21	225.89
999.50	225.91
999.79	225.87
1000.08	225.90
1000.37	225.89
1000.66	225.90
1000.95	225.93
1001.24	225.93
1001.53	225.96
1001.82	225.96
1002.11	225.96
1002.40	225.97
1002.68	226.00
1002.97	226.06
1003.26	226.05
1003.55	226.05
1003.84	226.08
1004.13	226.09
1004.42	226.11
1004.71	226.08
1004.99	226.10
1005.28	226.15
1005.57	226.13
1005.86	226.14
1006.15	226.13
1006.44	226.12
1006.72	226.12
1007.01	226.14
1007.30	226.17
1007.59	226.16
1007.88	226.16
1008.17	226.14
1008.45	226.13
1008.74	226.08
1009.03	226.08
1009.32	226.09
1009.60	226.10
1009.89	226.12
1010.18	226.09
1010.47	226.06
1010.76	226.08
1011.04	226.04
1011.33	226.05
1011.62	226.07
1011.91	226.10
1012.19	226.09
1012.48	226.10
1012.77	226.11
1013.05	226.15
1013.34	226.11
1013.63	226.10
1013.92	226.14
1014.20	226.12
1014.49	226.11
1014.78	226.10
1015.06	226.02
1015.35	226.00
1015.64	225.99
1015.92	225.97
1016.21	225.98
1016.50	225.99
1016.78	226.01
1017.07	226.04
1017.36	226.05
1017.64	226.02
1017.93	225.97
1018.22	225.94
1018.50	225.92
1018.79	225.89
1019.08	225.82
1019.36	225.85
1019.65	225.86
1019.93	225.85
1020.22	225.87
1020.51	225.93
1020.79	225.94
1021.08	224.98
1021.36	225.72
1021.65	225.83
1021.94	225.47
1022.22	226.25
1022.51	225.98
1022.79	226.19
1023.08	225.87
1023.36	227.23
1023.65	226.04
>>>>>End Processed Spectral Data<<<<<
