SpectraSuite Data File
++++++++++++++++++++++++++++++++++++
Date: Fri Feb 01 15:42:35 EST 2013
User: group
Dark Spectrum Present: No
Reference Spectrum Present: No
Number of Sampled Component Spectra: 1
Spectrometers: USB2E7196
Integration Time (usec): 35000 (USB2E7196)
Spectra Averaged: 100 (USB2E7196)
Boxcar Smoothing: 10 (USB2E7196)
Correct for Electrical Dark: No (USB2E7196)
Strobe/Lamp Enabled: No (USB2E7196)
Correct for Detector Non-linearity: No (USB2E7196)
Correct for Stray Light: No (USB2E7196)
Number of Pixels in Processed Spectrum: 2048
>>>>>Begin Processed Spectral Data<<<<<
339.09	0.00
339.48	214.82
339.86	216.16
340.24	217.87
340.63	219.53
341.01	221.52
341.39	221.92
341.78	223.03
342.16	224.26
342.54	224.70
342.93	213.18
343.31	223.96
343.69	224.51
344.07	224.95
344.46	225.37
344.84	225.74
345.22	225.99
345.60	226.22
345.99	226.40
346.37	226.50
346.75	226.59
347.13	226.65
347.52	226.71
347.90	226.77
348.28	226.81
348.66	226.85
349.05	226.83
349.43	226.88
349.81	226.89
350.19	226.91
350.57	226.99
350.96	227.06
351.34	227.14
351.72	227.22
352.10	227.33
352.48	227.42
352.87	227.43
353.25	227.53
353.63	227.63
354.01	227.72
354.39	227.83
354.77	227.94
355.15	228.06
355.54	228.09
355.92	228.11
356.30	228.21
356.68	228.34
357.06	228.45
357.44	228.51
357.82	228.58
358.20	228.66
358.58	228.74
358.97	228.78
359.35	228.85
359.73	228.91
360.11	228.97
360.49	228.97
360.87	229.03
361.25	229.05
361.63	229.11
362.01	229.17
362.39	229.21
362.77	229.23
363.15	229.22
363.53	229.26
363.91	229.31
364.29	229.31
364.67	229.28
365.05	229.26
365.43	229.28
365.81	229.33
366.19	229.38
366.57	229.40
366.95	229.39
367.33	229.41
367.71	229.40
368.09	229.42
368.47	229.45
368.85	229.45
369.23	229.45
369.61	229.38
369.99	229.34
370.37	229.33
370.75	229.33
371.13	229.26
371.51	229.20
371.89	229.15
372.27	229.10
372.65	229.06
373.03	229.02
373.41	228.96
373.78	228.87
374.16	228.78
374.54	228.71
374.92	228.69
375.30	228.58
375.68	228.50
376.06	228.45
376.44	228.36
376.82	228.29
377.19	228.22
377.57	228.15
377.95	228.07
378.33	227.97
378.71	227.86
379.09	227.81
379.47	227.75
379.84	227.70
380.22	227.62
380.60	227.49
380.98	227.40
381.36	227.33
381.73	227.26
382.11	227.20
382.49	227.10
382.87	227.01
383.25	226.95
383.62	226.99
384.00	226.90
384.38	226.82
384.76	226.81
385.13	226.79
385.51	226.72
385.89	226.68
386.27	226.62
386.64	226.60
387.02	226.54
387.40	226.51
387.78	226.47
388.15	226.43
388.53	226.39
388.91	226.36
389.29	226.31
389.66	226.30
390.04	226.28
390.42	226.29
390.79	226.29
391.17	226.28
391.55	226.21
391.92	226.20
392.30	226.21
392.68	226.13
393.05	226.13
393.43	226.14
393.81	226.14
394.18	226.15
394.56	226.16
394.94	226.20
395.31	226.20
395.69	226.28
396.06	226.33
396.44	226.41
396.82	226.47
397.19	226.60
397.57	226.65
397.95	226.69
398.32	226.71
398.70	226.76
399.07	226.85
399.45	226.86
399.82	226.92
400.20	226.98
400.58	227.10
400.95	227.13
401.33	227.26
401.70	227.41
402.08	227.51
402.45	227.61
402.83	227.75
403.20	227.87
403.58	227.95
403.95	228.08
404.33	228.20
404.71	228.33
405.08	228.48
405.46	228.60
405.83	228.79
406.21	228.96
406.58	229.12
406.96	229.28
407.33	229.46
407.70	229.67
408.08	229.96
408.45	230.17
408.83	230.41
409.20	230.60
409.58	230.79
409.95	230.99
410.33	231.28
410.70	231.53
411.08	231.84
411.45	232.14
411.82	232.46
412.20	232.84
412.57	233.22
412.95	233.51
413.32	233.94
413.69	234.34
414.07	234.76
414.44	235.28
414.82	235.76
415.19	236.33
415.56	236.90
415.94	237.42
416.31	238.07
416.68	238.71
417.06	239.43
417.43	240.12
417.81	240.95
418.18	241.75
418.55	242.60
418.93	243.48
419.30	244.38
419.67	245.31
420.04	246.26
420.42	247.27
420.79	248.44
421.16	249.60
421.54	250.76
421.91	252.01
422.28	253.23
422.66	254.55
423.03	255.87
423.40	257.18
423.77	258.63
424.15	260.06
424.52	261.56
424.89	263.21
425.26	264.77
425.64	266.22
426.01	267.81
426.38	269.44
426.75	271.09
427.13	272.81
427.50	274.59
427.87	276.45
428.24	278.31
428.61	280.06
428.99	281.99
429.36	284.12
429.73	286.17
430.10	288.22
430.47	290.31
430.85	292.38
431.22	294.65
431.59	297.01
431.96	299.21
432.33	301.66
432.70	303.99
433.08	306.81
433.45	309.43
433.82	312.05
434.19	314.97
434.56	317.80
434.93	320.48
435.30	323.11
435.68	326.05
436.05	328.90
436.42	331.71
436.79	334.22
437.16	336.94
437.53	339.77
437.90	342.51
438.27	345.25
438.64	348.07
439.01	350.63
439.38	352.83
439.75	355.05
440.13	357.54
440.50	359.91
440.87	361.71
441.24	363.64
441.61	365.76
441.98	367.19
442.35	368.94
442.72	370.74
443.09	372.52
443.46	373.44
443.83	373.97
444.20	374.43
444.57	375.24
444.94	375.51
445.31	375.81
445.68	376.18
446.05	376.21
446.42	375.85
446.79	375.43
447.16	374.93
447.53	374.61
447.90	373.44
448.27	372.27
448.64	370.74
449.01	369.63
449.37	367.63
449.74	365.74
450.11	363.55
450.48	361.08
450.85	358.58
451.22	356.43
451.59	354.42
451.96	352.50
452.33	349.91
452.70	347.54
453.07	344.73
453.43	341.85
453.80	339.11
454.17	336.43
454.54	333.90
454.91	331.24
455.28	328.55
455.65	326.07
456.02	323.58
456.38	321.40
456.75	318.74
457.12	316.49
457.49	314.31
457.86	312.10
458.23	310.30
458.59	308.28
458.96	306.21
459.33	304.40
459.70	302.52
460.07	300.99
460.43	299.26
460.80	297.65
461.17	296.21
461.54	294.71
461.91	293.29
462.27	291.85
462.64	290.60
463.01	289.25
463.38	287.94
463.74	286.61
464.11	285.46
464.48	284.43
464.85	283.35
465.21	282.48
465.58	281.58
465.95	280.45
466.32	279.55
466.68	278.67
467.05	277.81
467.42	276.93
467.78	276.05
468.15	275.20
468.52	274.55
468.88	273.71
469.25	272.94
469.62	272.32
469.98	271.65
470.35	271.02
470.72	270.44
471.08	269.83
471.45	269.29
471.82	268.72
472.18	268.13
472.55	267.67
472.92	267.13
473.28	266.66
473.65	266.21
474.02	265.75
474.38	265.39
474.75	265.04
475.11	264.70
475.48	264.42
475.85	264.19
476.21	263.97
476.58	263.79
476.94	263.65
477.31	263.48
477.67	263.37
478.04	263.25
478.41	263.18
478.77	263.24
479.14	263.20
479.50	263.21
479.87	263.27
480.23	263.35
480.60	263.46
480.96	263.59
481.33	263.82
481.69	264.04
482.06	264.22
482.42	264.40
482.79	264.62
483.15	264.94
483.52	265.30
483.88	265.64
484.25	266.02
484.61	266.44
484.98	266.89
485.34	267.40
485.71	268.01
486.07	268.61
486.44	269.16
486.80	269.84
487.17	270.58
487.53	271.40
487.90	272.26
488.26	273.15
488.62	274.09
488.99	275.02
489.35	276.04
489.72	277.18
490.08	278.35
490.44	279.62
490.81	280.95
491.17	282.31
491.54	283.76
491.90	285.23
492.26	286.86
492.63	288.62
492.99	290.38
493.36	292.23
493.72	294.27
494.08	296.35
494.45	298.58
494.81	300.95
495.17	303.32
495.54	305.84
495.90	308.52
496.26	311.34
496.63	314.28
496.99	317.41
497.35	320.67
497.72	324.10
498.08	327.59
498.44	331.27
498.80	335.17
499.17	339.22
499.53	343.44
499.89	347.84
500.26	352.31
500.62	356.96
500.98	361.95
501.34	367.00
501.71	372.37
502.07	377.84
502.43	383.40
502.79	389.23
503.16	395.35
503.52	401.63
503.88	408.04
504.24	414.69
504.60	421.61
504.97	428.75
505.33	436.12
505.69	443.87
506.05	451.61
506.41	459.51
506.78	467.68
507.14	476.12
507.50	484.85
507.86	493.87
508.22	503.12
508.59	512.34
508.95	521.94
509.31	531.74
509.67	541.83
510.03	552.12
510.39	562.76
510.75	573.57
511.12	584.57
511.48	595.90
511.84	607.36
512.20	618.87
512.56	630.82
512.92	642.94
513.28	655.23
513.64	667.82
514.00	680.50
514.37	693.42
514.73	706.53
515.09	719.61
515.45	732.93
515.81	746.49
516.17	760.45
516.53	774.66
516.89	788.85
517.25	803.06
517.61	817.53
517.97	832.00
518.33	846.47
518.69	861.25
519.05	876.30
519.41	891.53
519.77	907.04
520.13	922.52
520.49	937.87
520.85	953.38
521.21	969.06
521.57	985.34
521.93	1001.12
522.29	1017.46
522.65	1033.68
523.01	1049.93
523.37	1066.05
523.73	1082.28
524.09	1098.33
524.45	1114.55
524.81	1131.27
525.17	1148.15
525.53	1165.15
525.89	1181.89
526.25	1198.69
526.61	1215.02
526.97	1231.69
527.33	1248.21
527.68	1264.79
528.04	1281.30
528.40	1297.93
528.76	1314.99
529.12	1331.55
529.48	1348.41
529.84	1364.43
530.20	1381.11
530.56	1398.15
530.91	1415.40
531.27	1432.18
531.63	1448.53
531.99	1465.15
532.35	1481.00
532.71	1496.87
533.07	1513.01
533.42	1528.89
533.78	1544.98
534.14	1561.28
534.50	1576.63
534.86	1592.52
535.21	1607.69
535.57	1623.50
535.93	1638.88
536.29	1653.65
536.65	1668.63
537.00	1683.51
537.36	1698.79
537.72	1713.26
538.08	1727.62
538.44	1741.58
538.79	1755.39
539.15	1769.17
539.51	1782.93
539.87	1797.34
540.22	1811.07
540.58	1824.90
540.94	1838.46
541.29	1851.46
541.65	1864.20
542.01	1877.49
542.37	1889.76
542.72	1902.18
543.08	1914.10
543.44	1926.49
543.79	1937.80
544.15	1948.84
544.51	1960.26
544.87	1971.31
545.22	1982.24
545.58	1992.59
545.94	2002.29
546.29	2012.12
546.65	2021.98
547.01	2031.19
547.36	2039.88
547.72	2048.35
548.07	2056.16
548.43	2064.26
548.79	2072.22
549.14	2079.59
549.50	2086.92
549.86	2094.67
550.21	2102.05
550.57	2109.22
550.92	2115.87
551.28	2122.87
551.64	2129.97
551.99	2136.63
552.35	2142.76
552.70	2148.81
553.06	2154.67
553.41	2161.08
553.77	2167.13
554.13	2173.21
554.48	2179.56
554.84	2184.94
555.19	2190.20
555.55	2195.42
555.90	2199.85
556.26	2204.55
556.61	2209.39
556.97	2213.66
557.32	2217.78
557.68	2221.88
558.03	2226.17
558.39	2229.91
558.74	2234.64
559.10	2238.58
559.45	2242.23
559.81	2246.64
560.16	2250.48
560.52	2253.73
560.87	2257.08
561.23	2259.70
561.58	2262.56
561.94	2264.92
562.29	2267.26
562.64	2270.01
563.00	2272.48
563.35	2275.96
563.71	2279.19
564.06	2282.48
564.42	2285.30
564.77	2287.78
565.12	2289.93
565.48	2292.00
565.83	2293.80
566.19	2294.90
566.54	2295.89
566.89	2296.95
567.25	2297.41
567.60	2298.53
567.96	2300.11
568.31	2300.93
568.66	2302.10
569.02	2302.73
569.37	2303.06
569.72	2303.84
570.08	2303.95
570.43	2304.05
570.78	2303.42
571.14	2301.83
571.49	2300.42
571.84	2300.08
572.20	2298.82
572.55	2297.86
572.90	2296.11
573.26	2294.72
573.61	2293.10
573.96	2291.11
574.31	2288.17
574.67	2285.14
575.02	2281.72
575.37	2278.41
575.72	2274.52
576.08	2271.29
576.43	2267.90
576.78	2264.14
577.13	2261.16
577.49	2258.01
577.84	2254.34
578.19	2250.70
578.54	2247.02
578.90	2242.75
579.25	2237.23
579.60	2232.30
579.95	2227.33
580.30	2222.37
580.66	2217.13
581.01	2212.17
581.36	2207.29
581.71	2203.02
582.06	2198.63
582.42	2194.06
582.77	2188.85
583.12	2184.27
583.47	2179.35
583.82	2174.31
584.17	2168.91
584.53	2163.26
584.88	2157.58
585.23	2151.80
585.58	2146.17
585.93	2140.67
586.28	2135.91
586.63	2130.85
586.98	2125.84
587.34	2121.00
587.69	2116.06
588.04	2110.75
588.39	2105.09
588.74	2098.61
589.09	2092.37
589.44	2085.46
589.79	2079.58
590.14	2074.00
590.49	2067.51
590.84	2061.14
591.19	2055.09
591.54	2048.79
591.89	2041.41
592.25	2034.62
592.60	2027.39
592.95	2019.84
593.30	2012.44
593.65	2004.79
594.00	1997.74
594.35	1990.55
594.70	1982.51
595.05	1975.20
595.40	1968.03
595.75	1960.45
596.10	1954.20
596.45	1947.63
596.80	1941.46
597.15	1934.71
597.50	1927.51
597.85	1920.95
598.19	1914.36
598.54	1907.26
598.89	1900.59
599.24	1894.74
599.59	1887.90
599.94	1881.76
600.29	1875.35
600.64	1868.94
600.99	1861.46
601.34	1854.61
601.69	1847.67
602.04	1840.77
602.39	1833.38
602.74	1826.48
603.08	1819.75
603.43	1812.86
603.78	1805.54
604.13	1798.24
604.48	1790.85
604.83	1783.90
605.18	1776.96
605.53	1768.94
605.87	1760.91
606.22	1753.72
606.57	1745.74
606.92	1738.52
607.27	1731.41
607.62	1724.55
607.96	1717.13
608.31	1710.50
608.66	1702.82
609.01	1695.06
609.36	1687.50
609.70	1679.50
610.05	1671.46
610.40	1663.76
610.75	1655.52
611.10	1647.58
611.44	1639.29
611.79	1631.28
612.14	1622.59
612.49	1613.42
612.83	1604.96
613.18	1596.89
613.53	1588.85
613.88	1580.20
614.22	1571.92
614.57	1563.29
614.92	1555.30
615.27	1547.75
615.61	1539.36
615.96	1531.19
616.31	1523.62
616.65	1516.20
617.00	1508.70
617.35	1500.92
617.70	1492.50
618.04	1484.02
618.39	1475.96
618.74	1468.27
619.08	1459.95
619.43	1452.44
619.78	1445.56
620.12	1438.35
620.47	1430.75
620.82	1422.58
621.16	1415.37
621.51	1407.74
621.85	1400.05
622.20	1391.48
622.55	1383.13
622.89	1375.24
623.24	1367.71
623.59	1360.37
623.93	1352.85
624.28	1345.54
624.62	1338.10
624.97	1331.02
625.32	1324.37
625.66	1317.42
626.01	1310.19
626.35	1302.74
626.70	1294.98
627.04	1287.18
627.39	1279.42
627.73	1272.14
628.08	1265.19
628.43	1257.77
628.77	1250.36
629.12	1242.84
629.46	1235.58
629.81	1228.16
630.15	1221.03
630.50	1213.59
630.84	1205.29
631.19	1197.44
631.53	1190.06
631.88	1182.55
632.22	1174.92
632.57	1167.52
632.91	1159.91
633.26	1152.55
633.60	1145.23
633.95	1138.11
634.29	1131.08
634.64	1124.46
634.98	1117.01
635.32	1109.92
635.67	1103.38
636.01	1096.68
636.36	1089.83
636.70	1083.41
637.05	1076.86
637.39	1070.38
637.73	1063.93
638.08	1058.09
638.42	1052.07
638.77	1045.53
639.11	1038.78
639.45	1032.39
639.80	1025.71
640.14	1019.27
640.49	1012.81
640.83	1006.51
641.17	1000.25
641.52	993.98
641.86	987.56
642.20	981.70
642.55	975.34
642.89	968.86
643.23	962.43
643.58	956.69
643.92	950.44
644.26	944.31
644.61	938.27
644.95	932.19
645.29	925.58
645.64	918.81
645.98	912.54
646.32	906.80
646.66	900.76
647.01	895.02
647.35	889.36
647.69	883.52
648.04	878.04
648.38	872.24
648.72	866.23
649.06	860.18
649.41	854.28
649.75	848.26
650.09	842.28
650.43	836.47
650.78	830.30
651.12	824.34
651.46	818.71
651.80	812.94
652.14	807.63
652.49	802.24
652.83	797.05
653.17	791.28
653.51	785.52
653.85	780.22
654.20	774.43
654.54	768.38
654.88	762.63
655.22	756.67
655.56	750.96
655.90	745.53
656.25	740.28
656.59	734.95
656.93	729.89
657.27	724.71
657.61	719.24
657.95	714.23
658.29	709.17
658.64	703.91
658.98	698.67
659.32	693.14
659.66	687.97
660.00	682.72
660.34	677.78
660.68	672.97
661.02	667.85
661.36	663.22
661.70	658.75
662.05	654.34
662.39	650.06
662.73	645.64
663.07	641.25
663.41	636.81
663.75	632.33
664.09	627.75
664.43	623.43
664.77	619.28
665.11	614.98
665.45	610.84
665.79	606.75
666.13	602.62
666.47	598.57
666.81	594.36
667.15	590.22
667.49	586.35
667.83	582.55
668.17	578.63
668.51	574.56
668.85	570.51
669.19	566.68
669.53	562.79
669.87	558.87
670.21	555.17
670.55	551.46
670.89	548.01
671.23	544.62
671.57	541.07
671.91	537.54
672.25	534.08
672.58	530.55
672.92	527.16
673.26	523.94
673.60	520.77
673.94	517.68
674.28	514.74
674.62	511.79
674.96	508.62
675.30	505.72
675.64	502.80
675.97	500.05
676.31	497.14
676.65	494.23
676.99	491.54
677.33	488.67
677.67	485.90
678.01	482.82
678.34	479.78
678.68	476.95
679.02	474.16
679.36	471.41
679.70	468.69
680.04	465.91
680.37	463.06
680.71	460.29
681.05	457.71
681.39	454.98
681.73	452.35
682.06	449.83
682.40	447.24
682.74	444.71
683.08	442.18
683.42	439.64
683.75	437.15
684.09	434.63
684.43	432.16
684.77	429.67
685.10	427.36
685.44	425.11
685.78	422.84
686.12	420.62
686.45	418.32
686.79	415.99
687.13	413.80
687.46	411.70
687.80	409.51
688.14	407.26
688.48	405.24
688.81	402.96
689.15	400.81
689.49	398.70
689.82	396.59
690.16	394.49
690.50	392.56
690.83	390.60
691.17	388.61
691.51	386.73
691.84	384.87
692.18	382.95
692.52	380.92
692.85	378.98
693.19	377.05
693.52	375.21
693.86	373.44
694.20	371.66
694.53	369.84
694.87	367.99
695.21	366.25
695.54	364.43
695.88	362.69
696.21	360.95
696.55	359.26
696.88	357.64
697.22	356.01
697.56	354.36
697.89	352.71
698.23	351.13
698.56	349.52
698.90	347.94
699.23	346.27
699.57	344.75
699.90	343.22
700.24	341.68
700.58	340.09
700.91	338.56
701.25	337.12
701.58	335.71
701.92	334.36
702.25	332.99
702.59	331.61
702.92	330.31
703.26	329.00
703.59	327.68
703.93	326.47
704.26	325.21
704.60	323.90
704.93	322.57
705.26	321.32
705.60	320.15
705.93	318.97
706.27	317.96
706.60	316.92
706.94	315.78
707.27	314.69
707.61	313.67
707.94	312.69
708.27	311.59
708.61	310.51
708.94	309.54
709.28	308.53
709.61	307.59
709.94	306.63
710.28	305.65
710.61	304.73
710.95	303.64
711.28	302.78
711.61	301.84
711.95	300.97
712.28	300.04
712.61	299.07
712.95	298.15
713.28	297.25
713.61	296.34
713.95	295.48
714.28	294.61
714.61	293.72
714.95	292.85
715.28	292.03
715.61	291.18
715.95	290.31
716.28	289.47
716.61	288.63
716.95	287.80
717.28	287.06
717.61	286.24
717.94	285.52
718.28	284.65
718.61	283.95
718.94	283.24
719.27	282.58
719.61	281.86
719.94	281.19
720.27	280.50
720.60	279.85
720.94	279.20
721.27	278.64
721.60	278.07
721.93	277.49
722.27	276.89
722.60	276.35
722.93	275.78
723.26	275.26
723.59	274.70
723.93	274.17
724.26	273.62
724.59	273.10
724.92	272.57
725.25	272.09
725.59	271.56
725.92	271.09
726.25	270.55
726.58	270.09
726.91	269.59
727.24	269.12
727.57	268.65
727.91	268.19
728.24	267.68
728.57	267.20
728.90	266.72
729.23	266.24
729.56	265.78
729.89	265.32
730.22	264.84
730.55	264.37
730.89	263.90
731.22	263.48
731.55	263.01
731.88	262.60
732.21	262.18
732.54	261.72
732.87	261.29
733.20	260.92
733.53	260.54
733.86	260.19
734.19	259.77
734.52	259.37
734.85	259.01
735.18	258.61
735.51	258.24
735.84	257.89
736.17	257.56
736.50	257.14
736.83	256.89
737.16	256.51
737.49	256.21
737.82	255.87
738.15	255.50
738.48	255.17
738.81	254.81
739.14	254.46
739.47	254.19
739.80	253.87
740.13	253.53
740.46	253.23
740.79	252.90
741.12	252.60
741.45	252.28
741.78	251.96
742.11	251.69
742.44	251.37
742.77	251.09
743.10	250.79
743.43	250.53
743.75	250.17
744.08	250.05
744.41	249.74
744.74	249.43
745.07	249.19
745.40	248.94
745.73	248.73
746.06	248.49
746.39	248.22
746.71	247.93
747.04	247.66
747.37	247.40
747.70	247.13
748.03	246.89
748.36	246.68
748.68	246.44
749.01	246.20
749.34	246.00
749.67	245.74
750.00	245.51
750.33	245.35
750.65	245.12
750.98	244.79
751.31	244.59
751.64	244.41
751.97	244.24
752.29	244.04
752.62	243.77
752.95	243.55
753.28	243.34
753.60	243.15
753.93	242.98
754.26	242.78
754.59	242.61
754.91	242.41
755.24	242.22
755.57	242.04
755.90	241.81
756.22	241.66
756.55	241.49
756.88	241.27
757.20	241.03
757.53	240.81
757.86	240.64
758.19	240.47
758.51	240.28
758.84	240.07
759.17	239.91
759.49	239.74
759.82	239.64
760.15	239.50
760.47	239.38
760.80	239.22
761.13	239.08
761.45	238.91
761.78	238.75
762.11	238.62
762.43	238.46
762.76	238.37
763.08	238.17
763.41	238.00
763.74	237.88
764.06	237.77
764.39	237.67
764.71	237.52
765.04	237.41
765.37	237.29
765.69	237.14
766.02	237.03
766.34	236.93
766.67	236.74
767.00	236.63
767.32	236.52
767.65	236.44
767.97	236.34
768.30	236.25
768.62	236.15
768.95	236.01
769.27	235.90
769.60	235.78
769.92	235.68
770.25	235.59
770.57	235.48
770.90	235.35
771.22	235.24
771.55	235.17
771.87	235.09
772.20	235.02
772.52	235.01
772.85	235.03
773.17	234.93
773.50	234.87
773.82	234.75
774.15	234.64
774.47	234.48
774.80	234.36
775.12	234.27
775.45	234.17
775.77	234.09
776.09	234.05
776.42	233.94
776.74	233.91
777.07	233.83
777.39	233.78
777.72	233.71
778.04	233.62
778.36	233.51
778.69	233.44
779.01	233.34
779.33	233.20
779.66	233.01
779.98	232.95
780.31	232.88
780.63	232.88
780.95	232.85
781.28	232.83
781.60	232.77
781.92	232.71
782.25	232.63
782.57	232.56
782.89	232.47
783.22	232.42
783.54	232.34
783.86	232.29
784.19	232.21
784.51	232.18
784.83	232.14
785.16	232.13
785.48	232.06
785.80	231.98
786.12	231.95
786.45	231.89
786.77	231.84
787.09	231.80
787.42	231.70
787.74	231.64
788.06	231.57
788.38	231.54
788.71	231.46
789.03	231.42
789.35	231.41
789.67	231.38
789.99	231.38
790.32	231.33
790.64	231.29
790.96	231.30
791.28	231.24
791.61	231.20
791.93	231.18
792.25	231.12
792.57	231.19
792.89	231.13
793.21	231.14
793.54	231.11
793.86	231.03
794.18	230.99
794.50	230.94
794.82	230.92
795.14	230.88
795.47	230.85
795.79	230.85
796.11	230.80
796.43	230.72
796.75	230.66
797.07	230.63
797.39	230.62
797.71	230.57
798.04	230.52
798.36	230.50
798.68	230.42
799.00	230.38
799.32	230.29
799.64	230.28
799.96	230.22
800.28	230.19
800.60	230.18
800.92	230.16
801.24	230.11
801.56	230.07
801.89	230.04
802.21	230.04
802.53	230.01
802.85	229.99
803.17	230.02
803.49	229.95
803.81	229.90
804.13	229.85
804.45	229.80
804.77	229.77
805.09	229.74
805.41	229.72
805.73	229.69
806.05	229.66
806.37	229.62
806.69	229.56
807.01	229.51
807.33	229.51
807.65	229.44
807.97	229.46
808.28	229.45
808.60	229.40
808.92	229.35
809.24	229.36
809.56	229.31
809.88	229.27
810.20	229.27
810.52	229.29
810.84	229.27
811.16	229.23
811.48	229.22
811.80	229.21
812.12	229.18
812.43	229.18
812.75	229.18
813.07	229.16
813.39	229.18
813.71	229.17
814.03	229.11
814.35	229.09
814.67	229.02
814.98	229.00
815.30	229.01
815.62	228.98
815.94	228.91
816.26	228.93
816.58	228.90
816.89	228.89
817.21	228.87
817.53	228.85
817.85	228.84
818.17	228.80
818.48	228.77
818.80	228.78
819.12	228.73
819.44	228.68
819.76	228.64
820.07	228.60
820.39	228.58
820.71	228.57
821.03	228.57
821.34	228.56
821.66	228.54
821.98	228.52
822.30	228.51
822.61	228.55
822.93	228.49
823.25	228.47
823.57	228.46
823.88	228.46
824.20	228.41
824.52	228.39
824.83	228.35
825.15	228.34
825.47	228.31
825.79	228.31
826.10	228.31
826.42	228.30
826.74	228.32
827.05	228.31
827.37	228.32
827.69	228.28
828.00	228.27
828.32	228.25
828.64	228.20
828.95	228.23
829.27	228.19
829.58	228.19
829.90	228.19
830.22	228.20
830.53	228.14
830.85	228.16
831.17	228.15
831.48	228.18
831.80	228.16
832.11	228.16
832.43	228.13
832.75	228.10
833.06	228.12
833.38	228.06
833.69	228.03
834.01	228.01
834.32	228.00
834.64	227.99
834.96	227.96
835.27	228.00
835.59	227.94
835.90	227.93
836.22	227.90
836.53	227.86
836.85	227.81
837.16	227.93
837.48	227.91
837.79	227.95
838.11	227.93
838.42	227.94
838.74	227.93
839.05	227.93
839.37	227.93
839.68	227.87
840.00	227.87
840.31	227.89
840.63	227.90
840.94	227.89
841.26	227.89
841.57	227.90
841.88	227.87
842.20	227.87
842.51	227.85
842.83	227.85
843.14	227.93
843.46	227.94
843.77	227.85
844.08	227.82
844.40	227.78
844.71	227.77
845.03	227.73
845.34	227.74
845.65	227.71
845.97	227.70
846.28	227.72
846.60	227.72
846.91	227.69
847.22	227.67
847.54	227.71
847.85	227.70
848.16	227.70
848.48	227.70
848.79	227.74
849.10	227.76
849.42	227.75
849.73	227.69
850.04	227.65
850.36	227.62
850.67	227.65
850.98	227.63
851.30	227.62
851.61	227.62
851.92	227.60
852.23	227.62
852.55	227.63
852.86	227.62
853.17	227.62
853.49	227.63
853.80	227.62
854.11	227.59
854.42	227.60
854.74	227.56
855.05	227.57
855.36	227.53
855.67	227.50
855.99	227.48
856.30	227.58
856.61	227.60
856.92	227.61
857.23	227.61
857.55	227.62
857.86	227.64
858.17	227.65
858.48	227.62
858.79	227.62
859.11	227.63
859.42	227.62
859.73	227.66
860.04	227.66
860.35	227.64
860.66	227.62
860.98	227.60
861.29	227.63
861.60	227.57
861.91	227.57
862.22	227.56
862.53	227.60
862.84	227.47
863.16	227.47
863.47	227.48
863.78	227.46
864.09	227.43
864.40	227.41
864.71	227.43
865.02	227.46
865.33	227.44
865.64	227.42
865.95	227.40
866.27	227.45
866.58	227.44
866.89	227.45
867.20	227.48
867.51	227.45
867.82	227.41
868.13	227.49
868.44	227.46
868.75	227.47
869.06	227.44
869.37	227.48
869.68	227.42
869.99	227.40
870.30	227.39
870.61	227.38
870.92	227.35
871.23	227.31
871.54	227.28
871.85	227.26
872.16	227.28
872.47	227.25
872.78	227.20
873.09	227.18
873.40	227.18
873.71	227.17
874.02	227.20
874.33	227.21
874.64	227.17
874.95	227.22
875.26	227.20
875.56	227.21
875.87	227.17
876.18	227.18
876.49	227.26
876.80	227.24
877.11	227.25
877.42	227.26
877.73	227.27
878.04	227.28
878.35	227.29
878.66	227.23
878.96	227.27
879.27	227.23
879.58	227.23
879.89	227.20
880.20	227.18
880.51	227.20
880.82	227.17
881.12	227.16
881.43	227.17
881.74	227.13
882.05	227.14
882.36	227.16
882.67	227.17
882.97	227.07
883.28	227.07
883.59	227.05
883.90	227.07
884.21	227.06
884.51	227.03
884.82	227.04
885.13	227.07
885.44	227.09
885.74	227.09
886.05	227.09
886.36	227.12
886.67	227.14
886.98	227.14
887.28	227.15
887.59	227.14
887.90	227.11
888.20	227.12
888.51	227.12
888.82	227.10
889.13	227.11
889.43	227.19
889.74	227.19
890.05	227.19
890.35	227.17
890.66	227.14
890.97	227.17
891.28	227.17
891.58	227.20
891.89	227.14
892.20	227.17
892.50	227.17
892.81	227.17
893.12	227.16
893.42	227.13
893.73	227.13
894.04	227.13
894.34	227.11
894.65	227.12
894.95	227.10
895.26	227.10
895.57	227.14
895.87	227.01
896.18	227.05
896.48	227.06
896.79	227.08
897.10	227.11
897.40	227.09
897.71	227.08
898.01	227.01
898.32	227.05
898.63	227.00
898.93	227.01
899.24	227.02
899.54	226.99
899.85	226.99
900.15	226.99
900.46	227.01
900.76	227.02
901.07	227.01
901.38	226.99
901.68	227.01
901.99	226.96
902.29	226.98
902.60	226.93
902.90	226.91
903.21	226.90
903.51	226.92
903.82	226.96
904.12	226.97
904.43	226.99
904.73	226.97
905.03	226.95
905.34	227.05
905.64	226.99
905.95	226.98
906.25	226.97
906.56	226.95
906.86	226.93
907.17	226.94
907.47	226.94
907.77	226.95
908.08	226.90
908.38	226.91
908.69	226.92
908.99	226.97
909.30	226.97
909.60	226.93
909.90	226.91
910.21	226.86
910.51	226.84
910.81	226.84
911.12	226.86
911.42	226.89
911.73	226.81
912.03	226.86
912.33	226.90
912.64	226.90
912.94	226.93
913.24	226.92
913.55	226.91
913.85	226.93
914.15	226.93
914.46	226.97
914.76	226.96
915.06	226.94
915.37	226.93
915.67	226.92
915.97	226.93
916.27	226.94
916.58	226.98
916.88	226.96
917.18	226.97
917.49	227.06
917.79	227.06
918.09	227.04
918.39	227.06
918.70	227.06
919.00	227.03
919.30	227.07
919.60	227.06
919.91	227.05
920.21	227.04
920.51	227.03
920.81	227.03
921.12	227.04
921.42	227.04
921.72	227.04
922.02	227.04
922.32	227.08
922.63	227.06
922.93	227.07
923.23	227.07
923.53	227.06
923.83	226.96
924.13	226.96
924.44	226.93
924.74	226.93
925.04	226.93
925.34	226.93
925.64	226.88
925.94	226.90
926.24	226.97
926.55	226.97
926.85	226.98
927.15	226.96
927.45	226.97
927.75	226.98
928.05	226.96
928.35	226.99
928.65	227.01
928.95	227.02
929.26	226.99
929.56	227.01
929.86	227.01
930.16	227.01
930.46	227.00
930.76	227.01
931.06	226.95
931.36	226.93
931.66	226.97
931.96	226.99
932.26	226.99
932.56	226.93
932.86	226.94
933.16	226.94
933.46	226.92
933.76	226.93
934.06	226.97
934.36	227.02
934.66	226.97
934.96	226.93
935.26	226.94
935.56	226.95
935.86	226.94
936.16	226.91
936.46	226.90
936.76	226.91
937.06	226.89
937.36	226.90
937.66	226.88
937.96	226.88
938.26	226.86
938.56	226.84
938.86	226.83
939.16	226.83
939.46	226.86
939.76	226.88
940.06	226.86
940.35	226.82
940.65	226.80
940.95	226.82
941.25	226.80
941.55	226.79
941.85	226.78
942.15	226.81
942.45	226.85
942.75	226.86
943.04	226.81
943.34	226.87
943.64	226.85
943.94	226.88
944.24	226.89
944.54	226.85
944.84	226.89
945.13	226.87
945.43	226.81
945.73	226.80
946.03	226.77
946.33	226.76
946.62	226.75
946.92	226.74
947.22	226.77
947.52	226.79
947.82	226.82
948.11	226.82
948.41	226.78
948.71	226.74
949.01	226.75
949.31	226.76
949.60	226.75
949.90	226.78
950.20	226.77
950.50	226.74
950.79	226.77
951.09	226.76
951.39	226.80
951.69	226.84
951.98	226.86
952.28	226.87
952.58	226.86
952.87	226.87
953.17	226.88
953.47	226.85
953.76	226.83
954.06	226.79
954.36	226.77
954.66	226.82
954.95	226.88
955.25	226.89
955.55	226.91
955.84	226.91
956.14	226.93
956.44	226.93
956.73	226.93
957.03	226.91
957.32	226.94
957.62	226.92
957.92	226.95
958.21	226.94
958.51	227.06
958.81	227.09
959.10	227.08
959.40	227.10
959.69	227.13
959.99	227.17
960.29	227.17
960.58	227.18
960.88	227.19
961.17	227.18
961.47	227.18
961.76	227.20
962.06	227.19
962.36	227.17
962.65	227.18
962.95	227.16
963.24	227.17
963.54	227.15
963.83	227.17
964.13	227.15
964.42	227.11
964.72	227.02
965.01	227.03
965.31	227.04
965.60	226.98
965.90	227.01
966.19	226.96
966.49	226.97
966.78	226.96
967.08	226.89
967.37	226.86
967.67	226.85
967.96	226.84
968.26	226.84
968.55	226.86
968.85	226.86
969.14	226.89
969.43	226.90
969.73	226.87
970.02	226.88
970.32	226.90
970.61	226.91
970.91	226.87
971.20	226.85
971.49	226.84
971.79	226.94
972.08	226.87
972.38	226.87
972.67	226.88
972.96	226.88
973.26	226.87
973.55	226.93
973.85	226.93
974.14	226.90
974.43	226.87
974.73	226.83
975.02	226.83
975.31	226.81
975.61	226.78
975.90	226.78
976.19	226.74
976.49	226.71
976.78	226.71
977.07	226.70
977.37	226.74
977.66	226.75
977.95	226.67
978.24	226.69
978.54	226.75
978.83	226.71
979.12	226.72
979.42	226.73
979.71	226.67
980.00	226.68
980.29	226.70
980.59	226.70
980.88	226.71
981.17	226.68
981.46	226.69
981.76	226.69
982.05	226.72
982.34	226.73
982.63	226.74
982.93	226.71
983.22	226.77
983.51	226.74
983.80	226.77
984.09	226.76
984.39	226.76
984.68	226.72
984.97	226.77
985.26	226.77
985.55	226.79
985.85	226.80
986.14	226.79
986.43	226.79
986.72	226.79
987.01	226.77
987.30	226.81
987.59	226.80
987.89	226.82
988.18	226.79
988.47	226.80
988.76	226.78
989.05	226.80
989.34	226.75
989.63	226.77
989.92	226.73
990.22	226.72
990.51	226.72
990.80	226.71
991.09	226.69
991.38	226.70
991.67	226.67
991.96	226.63
992.25	226.65
992.54	226.63
992.83	226.65
993.12	226.66
993.41	226.64
993.70	226.69
993.99	226.70
994.28	226.71
994.58	226.75
994.87	226.74
995.16	226.72
995.45	226.73
995.74	226.70
996.03	226.72
996.32	226.74
996.61	226.75
996.90	226.76
997.19	226.73
997.48	226.74
997.77	226.76
998.06	226.79
998.34	226.78
998.63	226.81
998.92	226.81
999.21	226.83
999.50	226.85
999.79	226.81
1000.08	226.79
1000.37	226.80
1000.66	226.77
1000.95	226.82
1001.24	226.82
1001.53	226.84
1001.82	226.83
1002.11	226.81
1002.40	226.82
1002.68	226.86
1002.97	226.92
1003.26	226.92
1003.55	226.90
1003.84	226.92
1004.13	226.97
1004.42	226.98
1004.71	226.97
1004.99	226.97
1005.28	227.00
1005.57	227.03
1005.86	227.00
1006.15	227.02
1006.44	226.99
1006.72	227.01
1007.01	226.98
1007.30	227.00
1007.59	226.98
1007.88	226.95
1008.17	226.97
1008.45	226.91
1008.74	226.84
1009.03	226.79
1009.32	226.80
1009.60	226.80
1009.89	226.79
1010.18	226.74
1010.47	226.72
1010.76	226.70
1011.04	226.70
1011.33	226.68
1011.62	226.65
1011.91	226.68
1012.19	226.68
1012.48	226.68
1012.77	226.65
1013.05	226.67
1013.34	226.68
1013.63	226.72
1013.92	226.79
1014.20	226.79
1014.49	226.84
1014.78	226.85
1015.06	226.83
1015.35	226.84
1015.64	226.85
1015.92	226.83
1016.21	226.85
1016.50	226.86
1016.78	226.86
1017.07	226.87
1017.36	226.85
1017.64	226.85
1017.93	226.86
1018.22	226.82
1018.50	226.85
1018.79	226.87
1019.08	226.86
1019.36	226.83
1019.65	226.80
1019.93	226.78
1020.22	226.77
1020.51	226.84
1020.79	226.86
1021.08	226.11
1021.36	226.92
1021.65	227.09
1021.94	226.90
1022.22	226.45
1022.51	226.58
1022.79	227.04
1023.08	226.89
1023.36	228.47
1023.65	226.99
>>>>>End Processed Spectral Data<<<<<
