SpectraSuite Data File
++++++++++++++++++++++++++++++++++++
Date: Fri Feb 01 15:20:27 EST 2013
User: group
Dark Spectrum Present: No
Reference Spectrum Present: No
Number of Sampled Component Spectra: 1
Spectrometers: USB2E7196
Integration Time (usec): 35000 (USB2E7196)
Spectra Averaged: 100 (USB2E7196)
Boxcar Smoothing: 10 (USB2E7196)
Correct for Electrical Dark: No (USB2E7196)
Strobe/Lamp Enabled: No (USB2E7196)
Correct for Detector Non-linearity: No (USB2E7196)
Correct for Stray Light: No (USB2E7196)
Number of Pixels in Processed Spectrum: 2048
>>>>>Begin Processed Spectral Data<<<<<
339.09	0.00
339.48	215.71
339.86	216.42
340.24	218.98
340.63	219.37
341.01	222.63
341.39	222.35
341.78	223.23
342.16	224.80
342.54	225.39
342.93	213.64
343.31	224.41
343.69	224.93
344.07	225.42
344.46	225.78
344.84	226.16
345.22	226.38
345.60	226.60
345.99	226.80
346.37	226.93
346.75	227.01
347.13	227.09
347.52	227.12
347.90	227.19
348.28	227.23
348.66	227.29
349.05	227.27
349.43	227.34
349.81	227.34
350.19	227.39
350.57	227.46
350.96	227.54
351.34	227.62
351.72	227.70
352.10	227.77
352.48	227.84
352.87	227.88
353.25	227.93
353.63	227.99
354.01	228.04
354.39	228.10
354.77	228.20
355.15	228.28
355.54	228.31
355.92	228.38
356.30	228.44
356.68	228.55
357.06	228.62
357.44	228.64
357.82	228.72
358.20	228.77
358.58	228.83
358.97	228.88
359.35	228.94
359.73	229.02
360.11	229.05
360.49	229.12
360.87	229.19
361.25	229.25
361.63	229.34
362.01	229.38
362.39	229.47
362.77	229.48
363.15	229.52
363.53	229.59
363.91	229.61
364.29	229.60
364.67	229.52
365.05	229.52
365.43	229.52
365.81	229.52
366.19	229.56
366.57	229.58
366.95	229.59
367.33	229.57
367.71	229.56
368.09	229.59
368.47	229.59
368.85	229.58
369.23	229.59
369.61	229.54
369.99	229.55
370.37	229.48
370.75	229.49
371.13	229.42
371.51	229.34
371.89	229.27
372.27	229.22
372.65	229.21
373.03	229.17
373.41	229.15
373.78	229.11
374.16	228.98
374.54	228.88
374.92	228.84
375.30	228.77
375.68	228.70
376.06	228.64
376.44	228.56
376.82	228.45
377.19	228.38
377.57	228.27
377.95	228.16
378.33	228.09
378.71	227.96
379.09	227.92
379.47	227.85
379.84	227.78
380.22	227.71
380.60	227.60
380.98	227.54
381.36	227.45
381.73	227.35
382.11	227.30
382.49	227.23
382.87	227.12
383.25	227.03
383.62	227.04
384.00	226.93
384.38	226.88
384.76	226.85
385.13	226.79
385.51	226.75
385.89	226.67
386.27	226.61
386.64	226.57
387.02	226.50
387.40	226.47
387.78	226.46
388.15	226.43
388.53	226.39
388.91	226.32
389.29	226.29
389.66	226.25
390.04	226.21
390.42	226.21
390.79	226.21
391.17	226.20
391.55	226.10
391.92	226.11
392.30	226.09
392.68	226.07
393.05	226.05
393.43	226.06
393.81	226.09
394.18	226.09
394.56	226.09
394.94	226.13
395.31	226.13
395.69	226.17
396.06	226.23
396.44	226.24
396.82	226.30
397.19	226.37
397.57	226.43
397.95	226.50
398.32	226.52
398.70	226.56
399.07	226.65
399.45	226.74
399.82	226.81
400.20	226.90
400.58	226.99
400.95	227.08
401.33	227.20
401.70	227.37
402.08	227.48
402.45	227.58
402.83	227.72
403.20	227.84
403.58	227.95
403.95	228.06
404.33	228.21
404.71	228.33
405.08	228.55
405.46	228.70
405.83	228.88
406.21	229.03
406.58	229.21
406.96	229.37
407.33	229.52
407.70	229.74
408.08	230.01
408.45	230.25
408.83	230.50
409.20	230.70
409.58	230.87
409.95	231.14
410.33	231.42
410.70	231.65
411.08	231.99
411.45	232.31
411.82	232.64
412.20	233.03
412.57	233.47
412.95	233.73
413.32	234.14
413.69	234.53
414.07	234.98
414.44	235.47
414.82	235.98
415.19	236.55
415.56	237.11
415.94	237.64
416.31	238.27
416.68	238.88
417.06	239.60
417.43	240.28
417.81	241.06
418.18	241.84
418.55	242.69
418.93	243.56
419.30	244.44
419.67	245.40
420.04	246.37
420.42	247.35
420.79	248.55
421.16	249.70
421.54	250.91
421.91	252.15
422.28	253.41
422.66	254.74
423.03	256.06
423.40	257.37
423.77	258.79
424.15	260.19
424.52	261.68
424.89	263.30
425.26	264.84
425.64	266.29
426.01	267.88
426.38	269.55
426.75	271.23
427.13	272.95
427.50	274.74
427.87	276.59
428.24	278.45
428.61	280.19
428.99	282.12
429.36	284.24
429.73	286.32
430.10	288.35
430.47	290.40
430.85	292.50
431.22	294.77
431.59	297.16
431.96	299.46
432.33	301.95
432.70	304.34
433.08	307.16
433.45	309.82
433.82	312.43
434.19	315.35
434.56	318.16
434.93	320.80
435.30	323.45
435.68	326.38
436.05	329.20
436.42	332.00
436.79	334.56
437.16	337.27
437.53	340.13
437.90	342.90
438.27	345.69
438.64	348.54
439.01	351.11
439.38	353.37
439.75	355.51
440.13	358.03
440.50	360.35
440.87	362.25
441.24	364.24
441.61	366.41
441.98	367.87
442.35	369.68
442.72	371.60
443.09	373.37
443.46	374.34
443.83	374.93
444.20	375.48
444.57	376.32
444.94	376.57
445.31	376.87
445.68	377.23
446.05	377.29
446.42	376.88
446.79	376.46
447.16	375.99
447.53	375.66
447.90	374.48
448.27	373.35
448.64	371.72
449.01	370.51
449.37	368.49
449.74	366.59
450.11	364.31
450.48	361.79
450.85	359.25
451.22	357.11
451.59	355.11
451.96	353.12
452.33	350.49
452.70	348.12
453.07	345.28
453.43	342.42
453.80	339.62
454.17	336.95
454.54	334.37
454.91	331.64
455.28	328.98
455.65	326.50
456.02	324.02
456.38	321.89
456.75	319.23
457.12	316.97
457.49	314.76
457.86	312.61
458.23	310.77
458.59	308.71
458.96	306.65
459.33	304.80
459.70	302.97
460.07	301.48
460.43	299.78
460.80	298.14
461.17	296.69
461.54	295.21
461.91	293.79
462.27	292.39
462.64	291.16
463.01	289.83
463.38	288.51
463.74	287.14
464.11	285.99
464.48	284.95
464.85	283.87
465.21	282.98
465.58	282.01
465.95	280.92
466.32	280.05
466.68	279.13
467.05	278.24
467.42	277.32
467.78	276.41
468.15	275.55
468.52	274.88
468.88	274.03
469.25	273.25
469.62	272.62
469.98	271.96
470.35	271.28
470.72	270.64
471.08	269.96
471.45	269.42
471.82	268.86
472.18	268.30
472.55	267.85
472.92	267.33
473.28	266.85
473.65	266.36
474.02	265.88
474.38	265.51
474.75	265.16
475.11	264.80
475.48	264.48
475.85	264.20
476.21	263.99
476.58	263.79
476.94	263.62
477.31	263.44
477.67	263.27
478.04	263.17
478.41	263.09
478.77	263.12
479.14	263.06
479.50	263.06
479.87	263.12
480.23	263.20
480.60	263.21
480.96	263.32
481.33	263.52
481.69	263.76
482.06	263.94
482.42	264.10
482.79	264.35
483.15	264.67
483.52	265.08
483.88	265.42
484.25	265.74
484.61	266.18
484.98	266.62
485.34	267.16
485.71	267.76
486.07	268.36
486.44	268.92
486.80	269.62
487.17	270.31
487.53	271.09
487.90	271.92
488.26	272.93
488.62	273.92
488.99	274.91
489.35	275.89
489.72	277.00
490.08	278.23
490.44	279.48
490.81	280.81
491.17	282.12
491.54	283.62
491.90	285.18
492.26	286.83
492.63	288.57
492.99	290.31
493.36	292.18
493.72	294.20
494.08	296.33
494.45	298.59
494.81	300.96
495.17	303.38
495.54	305.98
495.90	308.62
496.26	311.40
496.63	314.38
496.99	317.53
497.35	320.77
497.72	324.19
498.08	327.67
498.44	331.32
498.80	335.25
499.17	339.26
499.53	343.48
499.89	347.84
500.26	352.36
500.62	357.07
500.98	362.06
501.34	367.20
501.71	372.48
502.07	377.90
502.43	383.53
502.79	389.33
503.16	395.36
503.52	401.63
503.88	408.10
504.24	414.73
504.60	421.61
504.97	428.72
505.33	436.01
505.69	443.71
506.05	451.48
506.41	459.34
506.78	467.51
507.14	475.92
507.50	484.62
507.86	493.68
508.22	502.90
508.59	512.07
508.95	521.61
509.31	531.48
509.67	541.56
510.03	551.84
510.39	562.39
510.75	573.25
511.12	584.20
511.48	595.47
511.84	606.93
512.20	618.47
512.56	630.50
512.92	642.71
513.28	655.05
513.64	667.57
514.00	680.38
514.37	693.40
514.73	706.43
515.09	719.50
515.45	732.74
515.81	746.31
516.17	760.35
516.53	774.43
516.89	788.57
517.25	802.83
517.61	817.34
517.97	831.84
518.33	846.23
518.69	861.12
519.05	876.11
519.41	891.30
519.77	906.86
520.13	922.31
520.49	937.68
520.85	953.19
521.21	968.96
521.57	985.30
521.93	1001.01
522.29	1017.58
522.65	1033.90
523.01	1050.14
523.37	1066.22
523.73	1082.44
524.09	1098.57
524.45	1114.95
524.81	1131.70
525.17	1148.62
525.53	1165.48
525.89	1182.37
526.25	1199.17
526.61	1215.54
526.97	1232.24
527.33	1248.81
527.68	1265.55
528.04	1282.15
528.40	1298.81
528.76	1315.97
529.12	1332.48
529.48	1349.43
529.84	1365.50
530.20	1382.16
530.56	1399.31
530.91	1416.77
531.27	1433.59
531.63	1450.33
531.99	1467.01
532.35	1482.94
532.71	1498.73
533.07	1515.20
533.42	1531.20
533.78	1547.25
534.14	1563.76
534.50	1579.29
534.86	1595.25
535.21	1610.35
535.57	1626.45
535.93	1642.01
536.29	1656.81
536.65	1671.95
537.00	1686.89
537.36	1702.16
537.72	1716.84
538.08	1731.34
538.44	1745.22
538.79	1759.18
539.15	1772.85
539.51	1786.69
539.87	1801.12
540.22	1814.99
540.58	1828.79
540.94	1842.24
541.29	1855.24
541.65	1868.03
542.01	1881.42
542.37	1893.72
542.72	1906.24
543.08	1918.02
543.44	1930.60
543.79	1941.83
544.15	1952.86
544.51	1964.39
544.87	1975.44
545.22	1986.17
545.58	1996.37
545.94	2006.11
546.29	2016.02
546.65	2025.82
547.01	2035.09
547.36	2043.90
547.72	2052.34
548.07	2060.18
548.43	2068.43
548.79	2076.50
549.14	2084.01
549.50	2091.32
549.86	2099.07
550.21	2106.48
550.57	2113.60
550.92	2120.03
551.28	2127.19
551.64	2134.34
551.99	2140.88
552.35	2147.02
552.70	2153.22
553.06	2159.26
553.41	2165.59
553.77	2171.64
554.13	2177.74
554.48	2183.78
554.84	2189.08
555.19	2194.40
555.55	2199.52
555.90	2204.04
556.26	2208.93
556.61	2213.74
556.97	2217.86
557.32	2222.10
557.68	2226.20
558.03	2230.62
558.39	2234.34
558.74	2238.84
559.10	2242.66
559.45	2246.37
559.81	2250.67
560.16	2254.45
560.52	2257.56
560.87	2261.00
561.23	2263.59
561.58	2266.59
561.94	2269.23
562.29	2271.66
562.64	2274.38
563.00	2277.20
563.35	2280.72
563.71	2283.81
564.06	2286.84
564.42	2289.73
564.77	2292.03
565.12	2294.28
565.48	2295.87
565.83	2297.54
566.19	2298.77
566.54	2299.63
566.89	2300.60
567.25	2301.09
567.60	2302.42
567.96	2304.04
568.31	2304.85
568.66	2305.96
569.02	2306.40
569.37	2306.61
569.72	2307.36
570.08	2307.39
570.43	2307.19
570.78	2306.40
571.14	2304.88
571.49	2303.57
571.84	2303.22
572.20	2301.93
572.55	2300.75
572.90	2299.31
573.26	2298.06
573.61	2296.54
573.96	2294.67
574.31	2291.66
574.67	2288.60
575.02	2284.90
575.37	2281.49
575.72	2277.77
576.08	2274.27
576.43	2270.89
576.78	2267.13
577.13	2264.08
577.49	2260.96
577.84	2257.38
578.19	2253.63
578.54	2249.77
578.90	2245.35
579.25	2239.65
579.60	2234.70
579.95	2229.47
580.30	2224.43
580.66	2219.20
581.01	2214.07
581.36	2209.14
581.71	2204.96
582.06	2200.55
582.42	2195.93
582.77	2190.50
583.12	2185.81
583.47	2180.96
583.82	2175.82
584.17	2170.46
584.53	2164.77
584.88	2158.98
585.23	2153.09
585.58	2147.48
585.93	2142.02
586.28	2137.36
586.63	2132.23
586.98	2127.09
587.34	2122.54
587.69	2117.47
588.04	2112.10
588.39	2106.32
588.74	2099.87
589.09	2093.63
589.44	2086.59
589.79	2080.58
590.14	2074.98
590.49	2068.19
590.84	2061.76
591.19	2055.63
591.54	2049.16
591.89	2041.58
592.25	2034.71
592.60	2027.50
592.95	2019.77
593.30	2012.32
593.65	2004.51
594.00	1997.49
594.35	1990.15
594.70	1982.02
595.05	1974.78
595.40	1967.35
595.75	1959.79
596.10	1953.26
596.45	1946.32
596.80	1940.10
597.15	1933.39
597.50	1926.19
597.85	1919.80
598.19	1913.17
598.54	1906.08
598.89	1899.37
599.24	1893.51
599.59	1886.82
599.94	1880.59
600.29	1874.32
600.64	1867.74
600.99	1860.21
601.34	1853.27
601.69	1846.23
602.04	1839.21
602.39	1831.80
602.74	1824.98
603.08	1818.21
603.43	1811.58
603.78	1804.32
604.13	1797.21
604.48	1789.85
604.83	1783.15
605.18	1776.02
605.53	1767.89
605.87	1759.93
606.22	1752.80
606.57	1744.89
606.92	1737.57
607.27	1730.34
607.62	1723.30
607.96	1715.97
608.31	1709.36
608.66	1701.65
609.01	1694.19
609.36	1686.65
609.70	1678.63
610.05	1670.50
610.40	1662.76
610.75	1654.41
611.10	1646.79
611.44	1638.25
611.79	1630.28
612.14	1621.46
612.49	1612.41
612.83	1604.01
613.18	1595.79
613.53	1587.58
613.88	1579.04
614.22	1570.74
614.57	1562.05
614.92	1554.09
615.27	1546.50
615.61	1538.09
615.96	1530.22
616.31	1522.49
616.65	1515.12
617.00	1507.52
617.35	1499.84
617.70	1491.44
618.04	1482.88
618.39	1474.56
618.74	1467.02
619.08	1458.64
619.43	1451.10
619.78	1444.12
620.12	1437.02
620.47	1429.48
620.82	1421.35
621.16	1413.93
621.51	1406.33
621.85	1398.80
622.20	1390.23
622.55	1381.89
622.89	1374.10
623.24	1366.45
623.59	1359.11
623.93	1351.48
624.28	1344.27
624.62	1336.76
624.97	1329.59
625.32	1322.80
625.66	1315.78
626.01	1308.55
626.35	1301.20
626.70	1293.39
627.04	1285.61
627.39	1277.80
627.73	1270.42
628.08	1263.43
628.43	1256.01
628.77	1248.57
629.12	1240.93
629.46	1233.70
629.81	1226.34
630.15	1219.11
630.50	1211.63
630.84	1203.47
631.19	1195.66
631.53	1188.16
631.88	1180.66
632.22	1173.13
632.57	1165.89
632.91	1158.44
633.26	1151.01
633.60	1143.63
633.95	1136.53
634.29	1129.54
634.64	1122.88
634.98	1115.58
635.32	1108.47
635.67	1101.96
636.01	1095.34
636.36	1088.60
636.70	1082.15
637.05	1075.54
637.39	1069.10
637.73	1062.61
638.08	1056.77
638.42	1050.80
638.77	1044.31
639.11	1037.72
639.45	1031.38
639.80	1024.74
640.14	1018.30
640.49	1011.80
640.83	1005.53
641.17	999.30
641.52	993.01
641.86	986.59
642.20	980.74
642.55	974.45
642.89	967.92
643.23	961.37
643.58	955.57
643.92	949.41
644.26	943.30
644.61	937.26
644.95	931.23
645.29	924.55
645.64	917.81
645.98	911.56
646.32	905.78
646.66	899.65
647.01	893.86
647.35	888.19
647.69	882.42
648.04	876.80
648.38	871.07
648.72	865.05
649.06	859.01
649.41	853.13
649.75	847.13
650.09	841.20
650.43	835.44
650.78	829.31
651.12	823.32
651.46	817.59
651.80	811.83
652.14	806.40
652.49	801.02
652.83	795.84
653.17	790.09
653.51	784.27
653.85	778.89
654.20	773.21
654.54	767.17
654.88	761.40
655.22	755.58
655.56	749.88
655.90	744.45
656.25	739.28
656.59	733.92
656.93	728.86
657.27	723.69
657.61	718.26
657.95	713.14
658.29	708.09
658.64	702.88
658.98	697.60
659.32	692.21
659.66	687.00
660.00	681.69
660.34	676.75
660.68	671.89
661.02	666.95
661.36	662.25
661.70	657.77
662.05	653.41
662.39	649.16
662.73	644.75
663.07	640.40
663.41	635.87
663.75	631.35
664.09	626.74
664.43	622.38
664.77	618.24
665.11	614.04
665.45	609.89
665.79	605.83
666.13	601.69
666.47	597.53
666.81	593.43
667.15	589.31
667.49	585.47
667.83	581.64
668.17	577.64
668.51	573.58
668.85	569.51
669.19	565.67
669.53	561.81
669.87	557.88
670.21	554.11
670.55	550.48
670.89	547.10
671.23	543.74
671.57	540.21
671.91	536.75
672.25	533.21
672.58	529.72
672.92	526.29
673.26	523.16
673.60	520.05
673.94	516.93
674.28	514.08
674.62	511.08
674.96	508.03
675.30	505.10
675.64	502.19
675.97	499.48
676.31	496.63
676.65	493.69
676.99	491.00
677.33	488.21
677.67	485.39
678.01	482.31
678.34	479.32
678.68	476.52
679.02	473.68
679.36	470.97
679.70	468.30
680.04	465.54
680.37	462.65
680.71	459.92
681.05	457.30
681.39	454.56
681.73	451.96
682.06	449.44
682.40	446.92
682.74	444.42
683.08	441.88
683.42	439.30
683.75	436.79
684.09	434.25
684.43	431.78
684.77	429.40
685.10	427.11
685.44	424.81
685.78	422.49
686.12	420.25
686.45	417.96
686.79	415.68
687.13	413.51
687.46	411.38
687.80	409.24
688.14	407.06
688.48	405.05
688.81	402.76
689.15	400.61
689.49	398.48
689.82	396.44
690.16	394.41
690.50	392.50
690.83	390.59
691.17	388.65
691.51	386.73
691.84	384.84
692.18	382.90
692.52	380.96
692.85	379.07
693.19	377.22
693.52	375.42
693.86	373.64
694.20	371.89
694.53	370.10
694.87	368.24
695.21	366.47
695.54	364.64
695.88	363.01
696.21	361.31
696.55	359.68
696.88	358.01
697.22	356.36
697.56	354.72
697.89	353.02
698.23	351.42
698.56	349.80
698.90	348.19
699.23	346.56
699.57	345.01
699.90	343.46
700.24	341.89
700.58	340.38
700.91	338.85
701.25	337.39
701.58	336.01
701.92	334.66
702.25	333.28
702.59	331.91
702.92	330.54
703.26	329.19
703.59	327.87
703.93	326.67
704.26	325.44
704.60	324.17
704.93	322.95
705.26	321.67
705.60	320.49
705.93	319.37
706.27	318.32
706.60	317.26
706.94	316.16
707.27	315.05
707.61	313.97
707.94	312.94
708.27	311.85
708.61	310.76
708.94	309.76
709.28	308.80
709.61	307.83
709.94	306.89
710.28	305.89
710.61	304.93
710.95	303.82
711.28	302.87
711.61	301.88
711.95	300.94
712.28	300.02
712.61	299.07
712.95	298.14
713.28	297.25
713.61	296.36
713.95	295.47
714.28	294.64
714.61	293.79
714.95	292.92
715.28	292.05
715.61	291.18
715.95	290.33
716.28	289.40
716.61	288.57
716.95	287.75
717.28	287.03
717.61	286.23
717.94	285.49
718.28	284.65
718.61	283.94
718.94	283.22
719.27	282.57
719.61	281.93
719.94	281.28
720.27	280.56
720.60	279.89
720.94	279.27
721.27	278.69
721.60	278.11
721.93	277.53
722.27	277.00
722.60	276.47
722.93	275.89
723.26	275.40
723.59	274.84
723.93	274.32
724.26	273.76
724.59	273.25
724.92	272.71
725.25	272.25
725.59	271.76
725.92	271.28
726.25	270.74
726.58	270.22
726.91	269.72
727.24	269.28
727.57	268.83
727.91	268.32
728.24	267.81
728.57	267.30
728.90	266.86
729.23	266.36
729.56	265.92
729.89	265.46
730.22	264.96
730.55	264.49
730.89	264.01
731.22	263.53
731.55	263.09
731.88	262.71
732.21	262.28
732.54	261.84
732.87	261.38
733.20	261.01
733.53	260.64
733.86	260.26
734.19	259.88
734.52	259.46
734.85	259.20
735.18	258.79
735.51	258.43
735.84	258.08
736.17	257.71
736.50	257.35
736.83	257.16
737.16	256.87
737.49	256.57
737.82	256.20
738.15	255.89
738.48	255.56
738.81	255.22
739.14	254.89
739.47	254.54
739.80	254.27
740.13	253.94
740.46	253.57
740.79	253.21
741.12	252.88
741.45	252.57
741.78	252.18
742.11	251.91
742.44	251.57
742.77	251.27
743.10	250.98
743.43	250.64
743.75	250.24
744.08	250.04
744.41	249.75
744.74	249.51
745.07	249.21
745.40	248.98
745.73	248.74
746.06	248.50
746.39	248.28
746.71	248.00
747.04	247.73
747.37	247.50
747.70	247.29
748.03	247.01
748.36	246.81
748.68	246.59
749.01	246.35
749.34	246.18
749.67	245.94
750.00	245.71
750.33	245.56
750.65	245.35
750.98	245.04
751.31	244.84
751.64	244.66
751.97	244.52
752.29	244.26
752.62	244.00
752.95	243.78
753.28	243.52
753.60	243.32
753.93	243.16
754.26	242.97
754.59	242.73
754.91	242.54
755.24	242.30
755.57	242.09
755.90	241.90
756.22	241.68
756.55	241.49
756.88	241.32
757.20	241.08
757.53	240.88
757.86	240.75
758.19	240.56
758.51	240.38
758.84	240.17
759.17	240.03
759.49	239.88
759.82	239.77
760.15	239.65
760.47	239.48
760.80	239.30
761.13	239.14
761.45	239.00
761.78	238.86
762.11	238.76
762.43	238.64
762.76	238.50
763.08	238.37
763.41	238.23
763.74	238.10
764.06	237.96
764.39	237.83
764.71	237.65
765.04	237.51
765.37	237.38
765.69	237.26
766.02	237.11
766.34	237.00
766.67	236.85
767.00	236.76
767.32	236.71
767.65	236.67
767.97	236.60
768.30	236.47
768.62	236.40
768.95	236.27
769.27	236.13
769.60	236.04
769.92	235.91
770.25	235.82
770.57	235.67
770.90	235.57
771.22	235.43
771.55	235.35
771.87	235.30
772.20	235.20
772.52	235.22
772.85	235.24
773.17	235.14
773.50	235.04
773.82	234.95
774.15	234.80
774.47	234.66
774.80	234.56
775.12	234.50
775.45	234.43
775.77	234.34
776.09	234.29
776.42	234.21
776.74	234.16
777.07	234.07
777.39	234.03
777.72	233.92
778.04	233.88
778.36	233.83
778.69	233.73
779.01	233.67
779.33	233.51
779.66	233.31
779.98	233.22
780.31	233.13
780.63	233.08
780.95	233.03
781.28	232.93
781.60	232.86
781.92	232.78
782.25	232.72
782.57	232.67
782.89	232.60
783.22	232.51
783.54	232.44
783.86	232.39
784.19	232.32
784.51	232.30
784.83	232.25
785.16	232.15
785.48	232.09
785.80	232.03
786.12	231.98
786.45	231.96
786.77	231.94
787.09	231.91
787.42	231.85
787.74	231.83
788.06	231.77
788.38	231.69
788.71	231.67
789.03	231.61
789.35	231.61
789.67	231.57
789.99	231.54
790.32	231.49
790.64	231.45
790.96	231.50
791.28	231.43
791.61	231.39
791.93	231.34
792.25	231.30
792.57	231.33
792.89	231.23
793.21	231.21
793.54	231.15
793.86	231.07
794.18	231.03
794.50	230.94
794.82	230.93
795.14	230.93
795.47	230.88
795.79	230.82
796.11	230.74
796.43	230.65
796.75	230.62
797.07	230.58
797.39	230.55
797.71	230.47
798.04	230.47
798.36	230.44
798.68	230.45
799.00	230.41
799.32	230.33
799.64	230.32
799.96	230.25
800.28	230.25
800.60	230.21
800.92	230.18
801.24	230.14
801.56	230.12
801.89	230.07
802.21	230.05
802.53	230.01
802.85	229.97
803.17	229.99
803.49	229.93
803.81	229.88
804.13	229.82
804.45	229.76
804.77	229.75
805.09	229.73
805.41	229.68
805.73	229.67
806.05	229.63
806.37	229.60
806.69	229.59
807.01	229.55
807.33	229.55
807.65	229.46
807.97	229.50
808.28	229.46
808.60	229.43
808.92	229.40
809.24	229.44
809.56	229.40
809.88	229.35
810.20	229.31
810.52	229.32
810.84	229.27
811.16	229.23
811.48	229.18
811.80	229.16
812.12	229.13
812.43	229.10
812.75	229.09
813.07	229.07
813.39	229.07
813.71	229.05
814.03	229.01
814.35	229.04
814.67	229.03
814.98	229.00
815.30	228.98
815.62	228.95
815.94	228.87
816.26	228.93
816.58	228.93
816.89	228.97
817.21	228.95
817.53	228.95
817.85	228.95
818.17	228.96
818.48	228.93
818.80	228.94
819.12	228.92
819.44	228.87
819.76	228.87
820.07	228.87
820.39	228.85
820.71	228.87
821.03	228.86
821.34	228.82
821.66	228.84
821.98	228.84
822.30	228.83
822.61	228.90
822.93	228.83
823.25	228.82
823.57	228.81
823.88	228.86
824.20	228.86
824.52	228.89
824.83	228.89
825.15	228.88
825.47	228.91
825.79	228.88
826.10	228.86
826.42	228.84
826.74	228.81
827.05	228.82
827.37	228.81
827.69	228.78
828.00	228.76
828.32	228.76
828.64	228.79
828.95	228.82
829.27	228.79
829.58	228.75
829.90	228.77
830.22	228.74
830.53	228.70
830.85	228.68
831.17	228.60
831.48	228.56
831.80	228.56
832.11	228.50
832.43	228.48
832.75	228.49
833.06	228.53
833.38	228.51
833.69	228.47
834.01	228.44
834.32	228.40
834.64	228.39
834.96	228.39
835.27	228.32
835.59	228.28
835.90	228.25
836.22	228.25
836.53	228.23
836.85	228.20
837.16	228.26
837.48	228.23
837.79	228.24
838.11	228.24
838.42	228.23
838.74	228.24
839.05	228.24
839.37	228.21
839.68	228.16
840.00	228.14
840.31	228.15
840.63	228.15
840.94	228.14
841.26	228.12
841.57	228.09
841.88	228.10
842.20	228.07
842.51	228.02
842.83	228.00
843.14	228.06
843.46	228.09
843.77	228.02
844.08	227.99
844.40	227.99
844.71	228.00
845.03	227.95
845.34	227.91
845.65	227.90
845.97	227.90
846.28	227.89
846.60	227.89
846.91	227.87
847.22	227.85
847.54	227.88
847.85	227.87
848.16	227.86
848.48	227.84
848.79	227.87
849.10	227.90
849.42	227.92
849.73	227.83
850.04	227.77
850.36	227.77
850.67	227.81
850.98	227.79
851.30	227.79
851.61	227.82
851.92	227.84
852.23	227.88
852.55	227.90
852.86	227.89
853.17	227.92
853.49	227.95
853.80	227.96
854.11	227.98
854.42	228.05
854.74	228.02
855.05	228.03
855.36	227.96
855.67	227.95
855.99	227.93
856.30	228.02
856.61	228.07
856.92	228.06
857.23	228.04
857.55	228.05
857.86	228.02
858.17	228.03
858.48	228.00
858.79	227.99
859.11	227.98
859.42	228.00
859.73	227.96
860.04	227.97
860.35	227.97
860.66	227.93
860.98	227.88
861.29	227.90
861.60	227.91
861.91	227.97
862.22	227.94
862.53	227.94
862.84	227.84
863.16	227.83
863.47	227.81
863.78	227.81
864.09	227.78
864.40	227.80
864.71	227.80
865.02	227.82
865.33	227.81
865.64	227.79
865.95	227.78
866.27	227.84
866.58	227.81
866.89	227.83
867.20	227.82
867.51	227.80
867.82	227.79
868.13	227.81
868.44	227.78
868.75	227.81
869.06	227.82
869.37	227.83
869.68	227.79
869.99	227.81
870.30	227.85
870.61	227.88
870.92	227.86
871.23	227.81
871.54	227.87
871.85	227.88
872.16	227.88
872.47	227.89
872.78	227.80
873.09	227.79
873.40	227.74
873.71	227.73
874.02	227.75
874.33	227.73
874.64	227.67
874.95	227.69
875.26	227.67
875.56	227.67
875.87	227.67
876.18	227.68
876.49	227.76
876.80	227.70
877.11	227.64
877.42	227.66
877.73	227.68
878.04	227.61
878.35	227.59
878.66	227.57
878.96	227.54
879.27	227.55
879.58	227.56
879.89	227.58
880.20	227.62
880.51	227.62
880.82	227.63
881.12	227.67
881.43	227.63
881.74	227.61
882.05	227.60
882.36	227.57
882.67	227.56
882.97	227.48
883.28	227.48
883.59	227.51
883.90	227.51
884.21	227.50
884.51	227.51
884.82	227.51
885.13	227.54
885.44	227.50
885.74	227.51
886.05	227.49
886.36	227.46
886.67	227.41
886.98	227.46
887.28	227.46
887.59	227.45
887.90	227.47
888.20	227.46
888.51	227.48
888.82	227.51
889.13	227.52
889.43	227.59
889.74	227.60
890.05	227.58
890.35	227.57
890.66	227.57
890.97	227.58
891.28	227.56
891.58	227.54
891.89	227.59
892.20	227.58
892.50	227.57
892.81	227.61
893.12	227.62
893.42	227.54
893.73	227.56
894.04	227.55
894.34	227.55
894.65	227.51
894.95	227.49
895.26	227.47
895.57	227.53
895.87	227.43
896.18	227.42
896.48	227.41
896.79	227.41
897.10	227.42
897.40	227.40
897.71	227.38
898.01	227.37
898.32	227.40
898.63	227.40
898.93	227.43
899.24	227.39
899.54	227.35
899.85	227.34
900.15	227.33
900.46	227.29
900.76	227.30
901.07	227.30
901.38	227.28
901.68	227.30
901.99	227.19
902.29	227.18
902.60	227.20
902.90	227.20
903.21	227.18
903.51	227.16
903.82	227.17
904.12	227.21
904.43	227.20
904.73	227.14
905.03	227.15
905.34	227.22
905.64	227.22
905.95	227.22
906.25	227.20
906.56	227.19
906.86	227.21
907.17	227.21
907.47	227.22
907.77	227.22
908.08	227.21
908.38	227.23
908.69	227.27
908.99	227.26
909.30	227.27
909.60	227.27
909.90	227.27
910.21	227.24
910.51	227.24
910.81	227.23
911.12	227.22
911.42	227.22
911.73	227.13
912.03	227.14
912.33	227.18
912.64	227.19
912.94	227.18
913.24	227.16
913.55	227.15
913.85	227.17
914.15	227.19
914.46	227.19
914.76	227.18
915.06	227.16
915.37	227.15
915.67	227.14
915.97	227.15
916.27	227.14
916.58	227.15
916.88	227.14
917.18	227.16
917.49	227.26
917.79	227.25
918.09	227.25
918.39	227.26
918.70	227.27
919.00	227.27
919.30	227.32
919.60	227.31
919.91	227.28
920.21	227.28
920.51	227.27
920.81	227.25
921.12	227.30
921.42	227.29
921.72	227.33
922.02	227.38
922.32	227.39
922.63	227.38
922.93	227.40
923.23	227.41
923.53	227.39
923.83	227.32
924.13	227.31
924.44	227.33
924.74	227.34
925.04	227.39
925.34	227.40
925.64	227.34
925.94	227.37
926.24	227.44
926.55	227.43
926.85	227.42
927.15	227.42
927.45	227.39
927.75	227.38
928.05	227.35
928.35	227.31
928.65	227.33
928.95	227.35
929.26	227.33
929.56	227.31
929.86	227.34
930.16	227.34
930.46	227.33
930.76	227.31
931.06	227.25
931.36	227.18
931.66	227.17
931.96	227.18
932.26	227.16
932.56	227.12
932.86	227.14
933.16	227.13
933.46	227.09
933.76	227.08
934.06	227.11
934.36	227.13
934.66	227.12
934.96	227.10
935.26	227.08
935.56	227.10
935.86	227.09
936.16	227.04
936.46	227.02
936.76	227.02
937.06	227.00
937.36	227.01
937.66	227.05
937.96	227.05
938.26	227.05
938.56	227.03
938.86	227.01
939.16	227.02
939.46	227.03
939.76	227.03
940.06	227.03
940.35	227.00
940.65	226.97
940.95	226.97
941.25	226.95
941.55	226.96
941.85	226.92
942.15	226.94
942.45	227.01
942.75	226.99
943.04	227.02
943.34	227.04
943.64	227.03
943.94	227.04
944.24	227.03
944.54	227.04
944.84	227.06
945.13	227.07
945.43	227.05
945.73	227.08
946.03	227.05
946.33	227.05
946.62	227.06
946.92	227.04
947.22	227.03
947.52	227.03
947.82	227.03
948.11	227.04
948.41	227.03
948.71	227.00
949.01	227.02
949.31	227.02
949.60	227.02
949.90	226.99
950.20	226.96
950.50	226.94
950.79	226.91
951.09	226.91
951.39	226.93
951.69	226.91
951.98	226.93
952.28	226.96
952.58	226.95
952.87	226.96
953.17	227.00
953.47	226.99
953.76	227.01
954.06	226.99
954.36	226.99
954.66	226.97
954.95	226.99
955.25	226.99
955.55	226.96
955.84	226.96
956.14	227.01
956.44	227.03
956.73	227.02
957.03	227.08
957.32	227.08
957.62	227.08
957.92	227.13
958.21	227.08
958.51	227.20
958.81	227.24
959.10	227.25
959.40	227.25
959.69	227.26
959.99	227.28
960.29	227.28
960.58	227.25
960.88	227.32
961.17	227.28
961.47	227.30
961.76	227.33
962.06	227.36
962.36	227.35
962.65	227.34
962.95	227.36
963.24	227.31
963.54	227.29
963.83	227.29
964.13	227.26
964.42	227.25
964.72	227.16
965.01	227.12
965.31	227.11
965.60	227.09
965.90	227.13
966.19	227.12
966.49	227.14
966.78	227.13
967.08	227.07
967.37	227.07
967.67	227.03
967.96	227.02
968.26	227.00
968.55	227.02
968.85	227.01
969.14	227.04
969.43	227.05
969.73	227.06
970.02	227.04
970.32	227.06
970.61	227.05
970.91	227.02
971.20	227.03
971.49	226.97
971.79	226.97
972.08	226.92
972.38	226.90
972.67	226.88
972.96	226.87
973.26	226.87
973.55	226.91
973.85	226.90
974.14	226.88
974.43	226.88
974.73	226.84
975.02	226.83
975.31	226.79
975.61	226.80
975.90	226.82
976.19	226.80
976.49	226.79
976.78	226.82
977.07	226.83
977.37	226.81
977.66	226.84
977.95	226.85
978.24	226.84
978.54	226.87
978.83	226.86
979.12	226.91
979.42	226.89
979.71	226.83
980.00	226.84
980.29	226.86
980.59	226.82
980.88	226.86
981.17	226.88
981.46	226.91
981.76	226.92
982.05	226.92
982.34	226.94
982.63	226.91
982.93	226.91
983.22	226.92
983.51	226.95
983.80	227.02
984.09	227.01
984.39	227.03
984.68	227.00
984.97	227.02
985.26	227.00
985.55	227.02
985.85	227.06
986.14	227.11
986.43	227.12
986.72	227.11
987.01	227.08
987.30	227.08
987.59	227.01
987.89	227.04
988.18	227.01
988.47	226.98
988.76	227.01
989.05	227.03
989.34	227.02
989.63	227.03
989.92	226.99
990.22	227.02
990.51	227.01
990.80	226.99
991.09	226.99
991.38	227.01
991.67	227.03
991.96	227.02
992.25	227.01
992.54	226.97
992.83	227.03
993.12	227.05
993.41	227.09
993.70	227.19
993.99	227.18
994.28	227.21
994.58	227.25
994.87	227.25
995.16	227.22
995.45	227.20
995.74	227.16
996.03	227.16
996.32	227.16
996.61	227.19
996.90	227.21
997.19	227.21
997.48	227.20
997.77	227.16
998.06	227.21
998.34	227.19
998.63	227.21
998.92	227.20
999.21	227.21
999.50	227.19
999.79	227.15
1000.08	227.14
1000.37	227.12
1000.66	227.13
1000.95	227.16
1001.24	227.19
1001.53	227.23
1001.82	227.25
1002.11	227.26
1002.40	227.21
1002.68	227.25
1002.97	227.33
1003.26	227.34
1003.55	227.34
1003.84	227.36
1004.13	227.34
1004.42	227.33
1004.71	227.32
1004.99	227.33
1005.28	227.34
1005.57	227.35
1005.86	227.32
1006.15	227.31
1006.44	227.30
1006.72	227.29
1007.01	227.30
1007.30	227.28
1007.59	227.28
1007.88	227.27
1008.17	227.21
1008.45	227.20
1008.74	227.11
1009.03	227.05
1009.32	227.02
1009.60	227.00
1009.89	226.95
1010.18	226.94
1010.47	226.91
1010.76	226.90
1011.04	226.88
1011.33	226.86
1011.62	226.87
1011.91	226.89
1012.19	226.88
1012.48	226.86
1012.77	226.83
1013.05	226.81
1013.34	226.83
1013.63	226.79
1013.92	226.79
1014.20	226.81
1014.49	226.84
1014.78	226.85
1015.06	226.82
1015.35	226.84
1015.64	226.86
1015.92	226.89
1016.21	226.90
1016.50	226.92
1016.78	226.93
1017.07	226.95
1017.36	226.93
1017.64	226.88
1017.93	226.88
1018.22	226.84
1018.50	226.84
1018.79	226.85
1019.08	226.82
1019.36	226.82
1019.65	226.83
1019.93	226.84
1020.22	226.87
1020.51	226.90
1020.79	226.93
1021.08	226.14
1021.36	226.55
1021.65	226.82
1021.94	226.47
1022.22	227.31
1022.51	227.06
1022.79	227.03
1023.08	227.18
1023.36	227.74
1023.65	227.04
>>>>>End Processed Spectral Data<<<<<
