SpectraSuite Data File
++++++++++++++++++++++++++++++++++++
Date: Fri Feb 01 15:32:00 EST 2013
User: group
Dark Spectrum Present: No
Reference Spectrum Present: No
Number of Sampled Component Spectra: 1
Spectrometers: USB2E7196
Integration Time (usec): 35000 (USB2E7196)
Spectra Averaged: 100 (USB2E7196)
Boxcar Smoothing: 10 (USB2E7196)
Correct for Electrical Dark: No (USB2E7196)
Strobe/Lamp Enabled: No (USB2E7196)
Correct for Detector Non-linearity: No (USB2E7196)
Correct for Stray Light: No (USB2E7196)
Number of Pixels in Processed Spectrum: 2048
>>>>>Begin Processed Spectral Data<<<<<
339.09	0.00
339.48	215.22
339.86	216.28
340.24	218.29
340.63	219.37
341.01	222.66
341.39	222.18
341.78	223.32
342.16	224.50
342.54	225.40
342.93	213.45
343.31	224.22
343.69	224.78
344.07	225.26
344.46	225.67
344.84	226.03
345.22	226.25
345.60	226.50
345.99	226.70
346.37	226.83
346.75	226.89
347.13	226.96
347.52	227.04
347.90	227.12
348.28	227.11
348.66	227.16
349.05	227.16
349.43	227.23
349.81	227.30
350.19	227.36
350.57	227.39
350.96	227.48
351.34	227.56
351.72	227.63
352.10	227.74
352.48	227.79
352.87	227.86
353.25	227.91
353.63	227.98
354.01	228.05
354.39	228.16
354.77	228.25
355.15	228.34
355.54	228.37
355.92	228.39
356.30	228.48
356.68	228.60
357.06	228.69
357.44	228.74
357.82	228.79
358.20	228.82
358.58	228.91
358.97	228.94
359.35	229.00
359.73	229.05
360.11	229.07
360.49	229.14
360.87	229.18
361.25	229.22
361.63	229.29
362.01	229.32
362.39	229.33
362.77	229.37
363.15	229.40
363.53	229.41
363.91	229.44
364.29	229.47
364.67	229.37
365.05	229.37
365.43	229.37
365.81	229.36
366.19	229.39
366.57	229.42
366.95	229.43
367.33	229.44
367.71	229.45
368.09	229.46
368.47	229.44
368.85	229.41
369.23	229.42
369.61	229.34
369.99	229.33
370.37	229.28
370.75	229.31
371.13	229.24
371.51	229.20
371.89	229.17
372.27	229.10
372.65	229.07
373.03	229.04
373.41	228.97
373.78	228.93
374.16	228.84
374.54	228.76
374.92	228.65
375.30	228.56
375.68	228.49
376.06	228.42
376.44	228.33
376.82	228.28
377.19	228.18
377.57	228.12
377.95	228.02
378.33	227.95
378.71	227.83
379.09	227.77
379.47	227.71
379.84	227.60
380.22	227.53
380.60	227.42
380.98	227.34
381.36	227.30
381.73	227.24
382.11	227.18
382.49	227.12
382.87	227.07
383.25	226.99
383.62	227.00
384.00	226.92
384.38	226.86
384.76	226.83
385.13	226.83
385.51	226.78
385.89	226.69
386.27	226.66
386.64	226.61
387.02	226.58
387.40	226.54
387.78	226.54
388.15	226.53
388.53	226.51
388.91	226.49
389.29	226.41
389.66	226.39
390.04	226.39
390.42	226.38
390.79	226.36
391.17	226.37
391.55	226.29
391.92	226.29
392.30	226.30
392.68	226.31
393.05	226.33
393.43	226.35
393.81	226.39
394.18	226.35
394.56	226.36
394.94	226.35
395.31	226.37
395.69	226.41
396.06	226.46
396.44	226.52
396.82	226.53
397.19	226.65
397.57	226.69
397.95	226.74
398.32	226.76
398.70	226.83
399.07	226.90
399.45	226.97
399.82	227.04
400.20	227.12
400.58	227.18
400.95	227.19
401.33	227.27
401.70	227.45
402.08	227.62
402.45	227.71
402.83	227.88
403.20	227.99
403.58	228.10
403.95	228.23
404.33	228.37
404.71	228.51
405.08	228.68
405.46	228.84
405.83	228.99
406.21	229.15
406.58	229.35
406.96	229.53
407.33	229.72
407.70	229.92
408.08	230.18
408.45	230.41
408.83	230.67
409.20	230.93
409.58	231.10
409.95	231.31
410.33	231.59
410.70	231.83
411.08	232.16
411.45	232.49
411.82	232.78
412.20	233.12
412.57	233.56
412.95	233.86
413.32	234.24
413.69	234.67
414.07	235.12
414.44	235.58
414.82	236.07
415.19	236.60
415.56	237.14
415.94	237.69
416.31	238.29
416.68	238.95
417.06	239.61
417.43	240.28
417.81	241.06
418.18	241.87
418.55	242.71
418.93	243.59
419.30	244.49
419.67	245.44
420.04	246.40
420.42	247.37
420.79	248.59
421.16	249.80
421.54	251.00
421.91	252.23
422.28	253.48
422.66	254.83
423.03	256.11
423.40	257.48
423.77	258.89
424.15	260.35
424.52	261.79
424.89	263.47
425.26	265.01
425.64	266.48
426.01	268.05
426.38	269.71
426.75	271.35
427.13	273.05
427.50	274.86
427.87	276.77
428.24	278.64
428.61	280.35
428.99	282.26
429.36	284.32
429.73	286.34
430.10	288.35
430.47	290.41
430.85	292.55
431.22	294.80
431.59	297.17
431.96	299.41
432.33	301.89
432.70	304.20
433.08	307.04
433.45	309.65
433.82	312.26
434.19	315.17
434.56	318.02
434.93	320.71
435.30	323.33
435.68	326.22
436.05	329.05
436.42	331.85
436.79	334.34
437.16	337.10
437.53	339.96
437.90	342.80
438.27	345.59
438.64	348.45
439.01	351.06
439.38	353.29
439.75	355.43
440.13	357.97
440.50	360.32
440.87	362.16
441.24	364.12
441.61	366.28
441.98	367.75
442.35	369.47
442.72	371.34
443.09	373.19
443.46	374.14
443.83	374.69
444.20	375.19
444.57	376.07
444.94	376.31
445.31	376.62
445.68	376.95
446.05	376.99
446.42	376.61
446.79	376.17
447.16	375.74
447.53	375.42
447.90	374.26
448.27	373.12
448.64	371.51
449.01	370.34
449.37	368.33
449.74	366.41
450.11	364.20
450.48	361.70
450.85	359.15
451.22	357.01
451.59	355.04
451.96	353.06
452.33	350.44
452.70	348.08
453.07	345.26
453.43	342.35
453.80	339.60
454.17	336.88
454.54	334.30
454.91	331.57
455.28	328.92
455.65	326.40
456.02	323.93
456.38	321.80
456.75	319.22
457.12	317.00
457.49	314.75
457.86	312.58
458.23	310.72
458.59	308.62
458.96	306.54
459.33	304.64
459.70	302.79
460.07	301.30
460.43	299.60
460.80	298.00
461.17	296.60
461.54	295.07
461.91	293.61
462.27	292.16
462.64	290.89
463.01	289.50
463.38	288.19
463.74	286.83
464.11	285.66
464.48	284.56
464.85	283.49
465.21	282.63
465.58	281.70
465.95	280.61
466.32	279.73
466.68	278.83
467.05	277.92
467.42	277.02
467.78	276.07
468.15	275.18
468.52	274.51
468.88	273.63
469.25	272.85
469.62	272.26
469.98	271.63
470.35	270.99
470.72	270.42
471.08	269.78
471.45	269.22
471.82	268.67
472.18	268.06
472.55	267.59
472.92	267.08
473.28	266.65
473.65	266.16
474.02	265.71
474.38	265.36
474.75	265.07
475.11	264.75
475.48	264.47
475.85	264.22
476.21	263.99
476.58	263.75
476.94	263.56
477.31	263.39
477.67	263.20
478.04	263.08
478.41	262.99
478.77	263.00
479.14	262.94
479.50	262.96
479.87	263.04
480.23	263.08
480.60	263.13
480.96	263.20
481.33	263.42
481.69	263.61
482.06	263.78
482.42	263.94
482.79	264.20
483.15	264.55
483.52	264.94
483.88	265.26
484.25	265.65
484.61	266.08
484.98	266.52
485.34	267.09
485.71	267.71
486.07	268.34
486.44	268.89
486.80	269.60
487.17	270.32
487.53	271.13
487.90	271.99
488.26	272.95
488.62	273.93
488.99	274.90
489.35	275.94
489.72	277.07
490.08	278.29
490.44	279.50
490.81	280.77
491.17	282.10
491.54	283.58
491.90	285.14
492.26	286.80
492.63	288.54
492.99	290.34
493.36	292.20
493.72	294.22
494.08	296.33
494.45	298.56
494.81	300.90
495.17	303.33
495.54	305.87
495.90	308.51
496.26	311.35
496.63	314.33
496.99	317.42
497.35	320.68
497.72	324.07
498.08	327.56
498.44	331.26
498.80	335.15
499.17	339.22
499.53	343.43
499.89	347.82
500.26	352.33
500.62	356.95
500.98	361.92
501.34	367.01
501.71	372.36
502.07	377.80
502.43	383.42
502.79	389.29
503.16	395.40
503.52	401.67
503.88	408.06
504.24	414.68
504.60	421.61
504.97	428.75
505.33	436.08
505.69	443.85
506.05	451.65
506.41	459.54
506.78	467.67
507.14	476.14
507.50	484.82
507.86	493.82
508.22	503.11
508.59	512.34
508.95	521.99
509.31	531.86
509.67	541.99
510.03	552.23
510.39	562.76
510.75	573.61
511.12	584.59
511.48	595.92
511.84	607.35
512.20	618.80
512.56	630.78
512.92	642.97
513.28	655.27
513.64	667.79
514.00	680.52
514.37	693.49
514.73	706.57
515.09	719.64
515.45	733.00
515.81	746.52
516.17	760.48
516.53	774.58
516.89	788.75
517.25	802.99
517.61	817.53
517.97	832.08
518.33	846.50
518.69	861.39
519.05	876.46
519.41	891.65
519.77	907.26
520.13	922.68
520.49	938.08
520.85	953.52
521.21	969.24
521.57	985.54
521.93	1001.39
522.29	1017.74
522.65	1033.98
523.01	1050.30
523.37	1066.38
523.73	1082.62
524.09	1098.78
524.45	1115.05
524.81	1131.59
525.17	1148.46
525.53	1165.28
525.89	1182.21
526.25	1198.98
526.61	1215.27
526.97	1232.12
527.33	1248.59
527.68	1265.44
528.04	1282.01
528.40	1298.70
528.76	1315.77
529.12	1332.32
529.48	1349.17
529.84	1365.28
530.20	1382.00
530.56	1399.04
530.91	1416.49
531.27	1433.33
531.63	1449.77
531.99	1466.46
532.35	1482.59
532.71	1498.43
533.07	1514.76
533.42	1530.65
533.78	1546.70
534.14	1563.06
534.50	1578.49
534.86	1594.51
535.21	1609.45
535.57	1625.47
535.93	1641.01
536.29	1655.82
536.65	1671.00
537.00	1685.94
537.36	1701.30
537.72	1715.85
538.08	1730.30
538.44	1744.19
538.79	1758.10
539.15	1771.90
539.51	1785.75
539.87	1800.09
540.22	1813.86
540.58	1827.66
540.94	1841.15
541.29	1854.12
541.65	1866.91
542.01	1879.99
542.37	1892.27
542.72	1904.89
543.08	1916.65
543.44	1929.04
543.79	1940.36
544.15	1951.45
544.51	1963.06
544.87	1973.98
545.22	1984.80
545.58	1995.05
545.94	2004.85
546.29	2014.67
546.65	2024.45
547.01	2033.66
547.36	2042.44
547.72	2051.11
548.07	2059.00
548.43	2067.19
548.79	2075.29
549.14	2082.79
549.50	2090.41
549.86	2098.20
550.21	2105.53
550.57	2112.71
550.92	2119.27
551.28	2126.36
551.64	2133.29
551.99	2139.70
552.35	2145.95
552.70	2152.12
553.06	2158.07
553.41	2164.34
553.77	2170.53
554.13	2176.82
554.48	2183.00
554.84	2188.43
555.19	2193.63
555.55	2198.85
555.90	2203.25
556.26	2208.12
556.61	2213.00
556.97	2217.11
557.32	2221.21
557.68	2225.30
558.03	2229.64
558.39	2233.56
558.74	2238.26
559.10	2242.24
559.45	2245.98
559.81	2250.53
560.16	2254.43
560.52	2257.67
560.87	2261.16
561.23	2263.68
561.58	2266.44
561.94	2268.92
562.29	2271.32
562.64	2273.97
563.00	2276.58
563.35	2280.07
563.71	2283.10
564.06	2286.28
564.42	2289.06
564.77	2291.58
565.12	2293.80
565.48	2295.53
565.83	2297.26
566.19	2298.54
566.54	2299.62
566.89	2300.60
567.25	2300.97
567.60	2302.19
567.96	2303.83
568.31	2304.67
568.66	2305.77
569.02	2306.37
569.37	2306.66
569.72	2307.41
570.08	2307.54
570.43	2307.53
570.78	2306.91
571.14	2305.48
571.49	2304.17
571.84	2303.94
572.20	2302.65
572.55	2301.63
572.90	2300.28
573.26	2298.78
573.61	2296.93
573.96	2294.91
574.31	2291.90
574.67	2288.79
575.02	2285.29
575.37	2281.96
575.72	2278.12
576.08	2274.90
576.43	2271.54
576.78	2267.82
577.13	2264.69
577.49	2261.55
577.84	2258.07
578.19	2254.28
578.54	2250.45
578.90	2245.96
579.25	2240.29
579.60	2235.33
579.95	2230.42
580.30	2225.21
580.66	2219.94
581.01	2214.98
581.36	2210.09
581.71	2205.89
582.06	2201.42
582.42	2196.80
582.77	2191.44
583.12	2186.83
583.47	2181.96
583.82	2176.91
584.17	2171.56
584.53	2166.07
584.88	2160.42
585.23	2154.39
585.58	2148.89
585.93	2143.41
586.28	2138.72
586.63	2133.57
586.98	2128.44
587.34	2123.72
587.69	2118.87
588.04	2113.58
588.39	2107.76
588.74	2101.20
589.09	2095.10
589.44	2088.16
589.79	2082.00
590.14	2076.35
590.49	2069.72
590.84	2063.33
591.19	2057.17
591.54	2050.67
591.89	2043.12
592.25	2036.23
592.60	2029.16
592.95	2021.55
593.30	2014.16
593.65	2006.32
594.00	1999.39
594.35	1992.08
594.70	1983.76
595.05	1976.32
595.40	1969.02
595.75	1961.51
596.10	1955.17
596.45	1948.30
596.80	1942.17
597.15	1935.45
597.50	1928.13
597.85	1921.52
598.19	1914.72
598.54	1907.56
598.89	1900.93
599.24	1894.89
599.59	1888.07
599.94	1881.67
600.29	1875.29
600.64	1868.60
600.99	1861.22
601.34	1854.18
601.69	1847.16
602.04	1840.22
602.39	1832.88
602.74	1825.92
603.08	1819.27
603.43	1812.50
603.78	1805.11
604.13	1797.82
604.48	1790.46
604.83	1783.70
605.18	1776.64
605.53	1768.63
605.87	1760.63
606.22	1753.39
606.57	1745.53
606.92	1738.18
607.27	1730.91
607.62	1723.92
607.96	1716.60
608.31	1709.84
608.66	1702.23
609.01	1694.67
609.36	1687.01
609.70	1678.98
610.05	1671.00
610.40	1663.25
610.75	1654.91
611.10	1647.22
611.44	1638.81
611.79	1630.95
612.14	1622.22
612.49	1613.11
612.83	1604.80
613.18	1596.62
613.53	1588.40
613.88	1579.84
614.22	1571.65
614.57	1563.15
614.92	1555.10
615.27	1547.66
615.61	1539.27
615.96	1531.29
616.31	1523.65
616.65	1516.49
617.00	1508.83
617.35	1501.21
617.70	1492.82
618.04	1484.25
618.39	1476.06
618.74	1468.48
619.08	1460.17
619.43	1452.63
619.78	1445.75
620.12	1438.48
620.47	1430.96
620.82	1422.87
621.16	1415.50
621.51	1407.82
621.85	1400.25
622.20	1391.63
622.55	1383.26
622.89	1375.49
623.24	1367.92
623.59	1360.56
623.93	1352.98
624.28	1345.83
624.62	1338.15
624.97	1331.11
625.32	1324.37
625.66	1317.36
626.01	1310.14
626.35	1302.61
626.70	1294.87
627.04	1287.07
627.39	1279.28
627.73	1271.92
628.08	1264.92
628.43	1257.42
628.77	1250.05
629.12	1242.46
629.46	1235.45
629.81	1228.00
630.15	1220.76
630.50	1213.27
630.84	1205.11
631.19	1197.17
631.53	1189.70
631.88	1182.25
632.22	1174.51
632.57	1167.18
632.91	1159.76
633.26	1152.34
633.60	1144.98
633.95	1137.86
634.29	1130.89
634.64	1124.24
634.98	1116.84
635.32	1109.74
635.67	1103.33
636.01	1096.66
636.36	1089.79
636.70	1083.22
637.05	1076.71
637.39	1070.35
637.73	1063.90
638.08	1058.04
638.42	1052.06
638.77	1045.59
639.11	1038.99
639.45	1032.62
639.80	1025.95
640.14	1019.38
640.49	1012.84
640.83	1006.54
641.17	1000.17
641.52	993.85
641.86	987.41
642.20	981.59
642.55	975.34
642.89	968.67
643.23	962.18
643.58	956.44
643.92	950.25
644.26	944.01
644.61	937.92
644.95	931.83
645.29	925.07
645.64	918.28
645.98	911.94
646.32	906.14
646.66	900.10
647.01	894.40
647.35	888.65
647.69	882.82
648.04	877.22
648.38	871.47
648.72	865.41
649.06	859.34
649.41	853.44
649.75	847.43
650.09	841.60
650.43	835.82
650.78	829.67
651.12	823.66
651.46	818.07
651.80	812.36
652.14	806.93
652.49	801.62
652.83	796.41
653.17	790.71
653.51	784.98
653.85	779.59
654.20	773.92
654.54	767.94
654.88	762.27
655.22	756.43
655.56	750.79
655.90	745.39
656.25	740.15
656.59	734.78
656.93	729.72
657.27	724.55
657.61	719.13
657.95	714.02
658.29	709.02
658.64	703.74
658.98	698.40
659.32	692.97
659.66	687.74
660.00	682.47
660.34	677.54
660.68	672.62
661.02	667.58
661.36	662.85
661.70	658.40
662.05	654.05
662.39	649.77
662.73	645.30
663.07	640.93
663.41	636.45
663.75	632.01
664.09	627.40
664.43	623.07
664.77	618.97
665.11	614.79
665.45	610.69
665.79	606.60
666.13	602.54
666.47	598.45
666.81	594.35
667.15	590.26
667.49	586.38
667.83	582.57
668.17	578.66
668.51	574.61
668.85	570.53
669.19	566.64
669.53	562.82
669.87	558.93
670.21	555.19
670.55	551.57
670.89	548.07
671.23	544.70
671.57	541.15
671.91	537.59
672.25	534.07
672.58	530.49
672.92	527.13
673.26	523.95
673.60	520.85
673.94	517.72
674.28	514.82
674.62	511.90
674.96	508.85
675.30	505.88
675.64	502.94
675.97	500.23
676.31	497.42
676.65	494.44
676.99	491.76
677.33	488.97
677.67	486.12
678.01	483.14
678.34	480.08
678.68	477.22
679.02	474.41
679.36	471.59
679.70	468.90
680.04	466.07
680.37	463.13
680.71	460.26
681.05	457.65
681.39	454.92
681.73	452.21
682.06	449.61
682.40	447.10
682.74	444.57
683.08	441.98
683.42	439.33
683.75	436.86
684.09	434.32
684.43	431.83
684.77	429.38
685.10	426.99
685.44	424.68
685.78	422.42
686.12	420.15
686.45	417.90
686.79	415.56
687.13	413.41
687.46	411.34
687.80	409.24
688.14	407.06
688.48	404.98
688.81	402.71
689.15	400.54
689.49	398.39
689.82	396.35
690.16	394.29
690.50	392.36
690.83	390.40
691.17	388.40
691.51	386.51
691.84	384.68
692.18	382.77
692.52	380.80
692.85	378.85
693.19	376.95
693.52	375.15
693.86	373.39
694.20	371.63
694.53	369.83
694.87	367.95
695.21	366.17
695.54	364.38
695.88	362.73
696.21	361.04
696.55	359.37
696.88	357.65
697.22	356.05
697.56	354.44
697.89	352.79
698.23	351.19
698.56	349.59
698.90	347.99
699.23	346.36
699.57	344.83
699.90	343.34
700.24	341.85
700.58	340.31
700.91	338.79
701.25	337.36
701.58	335.97
701.92	334.64
702.25	333.26
702.59	331.89
702.92	330.56
703.26	329.30
703.59	328.04
703.93	326.91
704.26	325.61
704.60	324.34
704.93	323.08
705.26	321.84
705.60	320.67
705.93	319.52
706.27	318.48
706.60	317.48
706.94	316.41
707.27	315.27
707.61	314.23
707.94	313.23
708.27	312.10
708.61	311.06
708.94	310.08
709.28	309.10
709.61	308.13
709.94	307.19
710.28	306.11
710.61	305.14
710.95	304.05
711.28	303.18
711.61	302.25
711.95	301.33
712.28	300.38
712.61	299.38
712.95	298.47
713.28	297.62
713.61	296.74
713.95	295.82
714.28	294.96
714.61	294.08
714.95	293.23
715.28	292.41
715.61	291.51
715.95	290.58
716.28	289.72
716.61	288.87
716.95	288.03
717.28	287.31
717.61	286.54
717.94	285.78
718.28	284.92
718.61	284.20
718.94	283.51
719.27	282.86
719.61	282.24
719.94	281.57
720.27	280.84
720.60	280.11
720.94	279.50
721.27	278.94
721.60	278.36
721.93	277.76
722.27	277.22
722.60	276.70
722.93	276.16
723.26	275.66
723.59	275.07
723.93	274.53
724.26	273.96
724.59	273.41
724.92	272.92
725.25	272.42
725.59	271.87
725.92	271.35
726.25	270.82
726.58	270.32
726.91	269.81
727.24	269.30
727.57	268.85
727.91	268.33
728.24	267.85
728.57	267.37
728.90	266.91
729.23	266.35
729.56	265.92
729.89	265.49
730.22	264.96
730.55	264.58
730.89	264.11
731.22	263.66
731.55	263.21
731.88	262.75
732.21	262.33
732.54	261.88
732.87	261.43
733.20	261.06
733.53	260.65
733.86	260.30
734.19	259.93
734.52	259.56
734.85	259.21
735.18	258.77
735.51	258.43
735.84	258.08
736.17	257.77
736.50	257.35
736.83	257.09
737.16	256.78
737.49	256.39
737.82	256.04
738.15	255.72
738.48	255.39
738.81	255.07
739.14	254.75
739.47	254.48
739.80	254.20
740.13	253.88
740.46	253.56
740.79	253.22
741.12	252.92
741.45	252.64
741.78	252.34
742.11	252.10
742.44	251.79
742.77	251.49
743.10	251.17
743.43	250.87
743.75	250.48
744.08	250.34
744.41	250.08
744.74	249.84
745.07	249.56
745.40	249.31
745.73	249.10
746.06	248.83
746.39	248.55
746.71	248.27
747.04	248.01
747.37	247.76
747.70	247.51
748.03	247.23
748.36	246.96
748.68	246.71
749.01	246.46
749.34	246.20
749.67	245.97
750.00	245.76
750.33	245.65
750.65	245.45
750.98	245.09
751.31	244.86
751.64	244.63
751.97	244.48
752.29	244.24
752.62	243.97
752.95	243.73
753.28	243.54
753.60	243.35
753.93	243.19
754.26	242.97
754.59	242.74
754.91	242.55
755.24	242.37
755.57	242.18
755.90	241.98
756.22	241.80
756.55	241.58
756.88	241.35
757.20	241.09
757.53	240.89
757.86	240.72
758.19	240.58
758.51	240.43
758.84	240.24
759.17	240.08
759.49	239.94
759.82	239.84
760.15	239.67
760.47	239.53
760.80	239.33
761.13	239.21
761.45	239.06
761.78	238.91
762.11	238.75
762.43	238.58
762.76	238.42
763.08	238.29
763.41	238.15
763.74	238.04
764.06	237.86
764.39	237.71
764.71	237.53
765.04	237.38
765.37	237.23
765.69	237.05
766.02	236.88
766.34	236.74
766.67	236.56
767.00	236.46
767.32	236.39
767.65	236.31
767.97	236.19
768.30	236.07
768.62	235.96
768.95	235.83
769.27	235.71
769.60	235.63
769.92	235.51
770.25	235.39
770.57	235.25
770.90	235.17
771.22	235.07
771.55	234.98
771.87	234.89
772.20	234.78
772.52	234.78
772.85	234.80
773.17	234.69
773.50	234.62
773.82	234.50
774.15	234.33
774.47	234.18
774.80	234.07
775.12	233.98
775.45	233.88
775.77	233.80
776.09	233.72
776.42	233.64
776.74	233.58
777.07	233.51
777.39	233.46
777.72	233.40
778.04	233.35
778.36	233.28
778.69	233.21
779.01	233.14
779.33	232.97
779.66	232.84
779.98	232.81
780.31	232.73
780.63	232.69
780.95	232.66
781.28	232.62
781.60	232.53
781.92	232.51
782.25	232.48
782.57	232.45
782.89	232.39
783.22	232.36
783.54	232.28
783.86	232.25
784.19	232.20
784.51	232.18
784.83	232.10
785.16	232.08
785.48	232.06
785.80	232.05
786.12	232.03
786.45	231.97
786.77	231.93
787.09	231.91
787.42	231.87
787.74	231.81
788.06	231.77
788.38	231.78
788.71	231.71
789.03	231.69
789.35	231.66
789.67	231.64
789.99	231.57
790.32	231.56
790.64	231.51
790.96	231.54
791.28	231.46
791.61	231.46
791.93	231.39
792.25	231.33
792.57	231.35
792.89	231.31
793.21	231.30
793.54	231.24
793.86	231.18
794.18	231.13
794.50	231.10
794.82	231.05
795.14	231.03
795.47	231.00
795.79	230.94
796.11	230.90
796.43	230.85
796.75	230.82
797.07	230.76
797.39	230.73
797.71	230.64
798.04	230.62
798.36	230.56
798.68	230.54
799.00	230.51
799.32	230.40
799.64	230.37
799.96	230.32
800.28	230.32
800.60	230.29
800.92	230.26
801.24	230.19
801.56	230.16
801.89	230.10
802.21	230.06
802.53	230.00
802.85	229.98
803.17	229.96
803.49	229.90
803.81	229.87
804.13	229.80
804.45	229.76
804.77	229.71
805.09	229.69
805.41	229.65
805.73	229.58
806.05	229.53
806.37	229.52
806.69	229.47
807.01	229.38
807.33	229.34
807.65	229.31
807.97	229.33
808.28	229.30
808.60	229.28
808.92	229.24
809.24	229.30
809.56	229.25
809.88	229.23
810.20	229.21
810.52	229.22
810.84	229.18
811.16	229.13
811.48	229.11
811.80	229.12
812.12	229.08
812.43	229.09
812.75	229.09
813.07	229.04
813.39	229.03
813.71	229.03
814.03	229.01
814.35	228.96
814.67	228.93
814.98	228.88
815.30	228.87
815.62	228.86
815.94	228.77
816.26	228.79
816.58	228.75
816.89	228.75
817.21	228.71
817.53	228.70
817.85	228.70
818.17	228.67
818.48	228.62
818.80	228.66
819.12	228.64
819.44	228.61
819.76	228.63
820.07	228.62
820.39	228.59
820.71	228.61
821.03	228.62
821.34	228.59
821.66	228.62
821.98	228.60
822.30	228.58
822.61	228.64
822.93	228.58
823.25	228.57
823.57	228.52
823.88	228.53
824.20	228.54
824.52	228.53
824.83	228.53
825.15	228.46
825.47	228.44
825.79	228.45
826.10	228.45
826.42	228.41
826.74	228.44
827.05	228.46
827.37	228.46
827.69	228.50
828.00	228.53
828.32	228.52
828.64	228.52
828.95	228.59
829.27	228.56
829.58	228.58
829.90	228.61
830.22	228.64
830.53	228.59
830.85	228.60
831.17	228.62
831.48	228.60
831.80	228.64
832.11	228.64
832.43	228.63
832.75	228.66
833.06	228.69
833.38	228.63
833.69	228.61
834.01	228.59
834.32	228.55
834.64	228.53
834.96	228.53
835.27	228.54
835.59	228.44
835.90	228.45
836.22	228.43
836.53	228.41
836.85	228.39
837.16	228.50
837.48	228.48
837.79	228.46
838.11	228.49
838.42	228.50
838.74	228.50
839.05	228.48
839.37	228.46
839.68	228.40
840.00	228.38
840.31	228.38
840.63	228.38
840.94	228.34
841.26	228.30
841.57	228.26
841.88	228.25
842.20	228.27
842.51	228.22
842.83	228.23
843.14	228.27
843.46	228.27
843.77	228.17
844.08	228.13
844.40	228.12
844.71	228.07
845.03	228.03
845.34	228.00
845.65	227.95
845.97	227.91
846.28	227.90
846.60	227.90
846.91	227.86
847.22	227.82
847.54	227.83
847.85	227.82
848.16	227.80
848.48	227.76
848.79	227.76
849.10	227.73
849.42	227.71
849.73	227.60
850.04	227.54
850.36	227.54
850.67	227.56
850.98	227.53
851.30	227.53
851.61	227.49
851.92	227.46
852.23	227.51
852.55	227.51
852.86	227.51
853.17	227.50
853.49	227.52
853.80	227.51
854.11	227.52
854.42	227.52
854.74	227.51
855.05	227.53
855.36	227.47
855.67	227.48
855.99	227.48
856.30	227.57
856.61	227.59
856.92	227.56
857.23	227.56
857.55	227.56
857.86	227.56
858.17	227.61
858.48	227.61
858.79	227.57
859.11	227.58
859.42	227.56
859.73	227.56
860.04	227.53
860.35	227.50
860.66	227.44
860.98	227.45
861.29	227.45
861.60	227.43
861.91	227.44
862.22	227.43
862.53	227.42
862.84	227.34
863.16	227.36
863.47	227.34
863.78	227.32
864.09	227.32
864.40	227.33
864.71	227.32
865.02	227.33
865.33	227.35
865.64	227.32
865.95	227.33
866.27	227.43
866.58	227.45
866.89	227.47
867.20	227.49
867.51	227.49
867.82	227.50
868.13	227.52
868.44	227.54
868.75	227.53
869.06	227.54
869.37	227.56
869.68	227.52
869.99	227.57
870.30	227.61
870.61	227.62
870.92	227.61
871.23	227.67
871.54	227.69
871.85	227.67
872.16	227.71
872.47	227.69
872.78	227.63
873.09	227.66
873.40	227.67
873.71	227.70
874.02	227.69
874.33	227.67
874.64	227.65
874.95	227.65
875.26	227.66
875.56	227.68
875.87	227.68
876.18	227.69
876.49	227.79
876.80	227.74
877.11	227.73
877.42	227.70
877.73	227.66
878.04	227.65
878.35	227.68
878.66	227.64
878.96	227.66
879.27	227.63
879.58	227.61
879.89	227.60
880.20	227.60
880.51	227.60
880.82	227.61
881.12	227.60
881.43	227.59
881.74	227.52
882.05	227.49
882.36	227.46
882.67	227.44
882.97	227.31
883.28	227.32
883.59	227.29
883.90	227.29
884.21	227.27
884.51	227.26
884.82	227.22
885.13	227.21
885.44	227.18
885.74	227.18
886.05	227.15
886.36	227.14
886.67	227.11
886.98	227.14
887.28	227.10
887.59	227.09
887.90	227.10
888.20	227.11
888.51	227.12
888.82	227.07
889.13	227.06
889.43	227.16
889.74	227.14
890.05	227.12
890.35	227.10
890.66	227.09
890.97	227.06
891.28	227.04
891.58	227.05
891.89	227.04
892.20	227.04
892.50	227.02
892.81	227.00
893.12	226.98
893.42	226.93
893.73	226.97
894.04	226.99
894.34	226.98
894.65	227.02
894.95	227.00
895.26	227.04
895.57	227.08
895.87	226.98
896.18	226.98
896.48	226.99
896.79	226.99
897.10	226.99
897.40	227.00
897.71	227.02
898.01	227.06
898.32	227.09
898.63	227.09
898.93	227.10
899.24	227.12
899.54	227.14
899.85	227.16
900.15	227.15
900.46	227.12
900.76	227.12
901.07	227.12
901.38	227.12
901.68	227.16
901.99	227.13
902.29	227.17
902.60	227.17
902.90	227.18
903.21	227.19
903.51	227.21
903.82	227.23
904.12	227.23
904.43	227.20
904.73	227.19
905.03	227.19
905.34	227.31
905.64	227.33
905.95	227.32
906.25	227.29
906.56	227.29
906.86	227.29
907.17	227.28
907.47	227.28
907.77	227.28
908.08	227.25
908.38	227.26
908.69	227.26
908.99	227.29
909.30	227.30
909.60	227.31
909.90	227.31
910.21	227.31
910.51	227.32
910.81	227.31
911.12	227.33
911.42	227.36
911.73	227.27
912.03	227.28
912.33	227.30
912.64	227.33
912.94	227.31
913.24	227.30
913.55	227.33
913.85	227.32
914.15	227.33
914.46	227.34
914.76	227.31
915.06	227.30
915.37	227.26
915.67	227.24
915.97	227.24
916.27	227.24
916.58	227.21
916.88	227.19
917.18	227.21
917.49	227.26
917.79	227.22
918.09	227.20
918.39	227.20
918.70	227.18
919.00	227.16
919.30	227.23
919.60	227.25
919.91	227.23
920.21	227.24
920.51	227.23
920.81	227.19
921.12	227.24
921.42	227.22
921.72	227.21
922.02	227.23
922.32	227.23
922.63	227.20
922.93	227.25
923.23	227.24
923.53	227.22
923.83	227.15
924.13	227.18
924.44	227.17
924.74	227.16
925.04	227.17
925.34	227.17
925.64	227.12
925.94	227.10
926.24	227.15
926.55	227.14
926.85	227.12
927.15	227.13
927.45	227.12
927.75	227.15
928.05	227.16
928.35	227.15
928.65	227.18
928.95	227.17
929.26	227.14
929.56	227.14
929.86	227.15
930.16	227.13
930.46	227.09
930.76	227.06
931.06	227.02
931.36	227.00
931.66	227.03
931.96	227.05
932.26	227.04
932.56	226.99
932.86	226.96
933.16	226.99
933.46	227.00
933.76	226.98
934.06	226.99
934.36	227.02
934.66	226.99
934.96	226.96
935.26	226.99
935.56	227.01
935.86	227.01
936.16	227.02
936.46	227.01
936.76	227.03
937.06	227.05
937.36	227.10
937.66	227.12
937.96	227.08
938.26	227.09
938.56	227.09
938.86	227.09
939.16	227.11
939.46	227.13
939.76	227.13
940.06	227.14
940.35	227.11
940.65	227.09
940.95	227.13
941.25	227.13
941.55	227.10
941.85	227.09
942.15	227.10
942.45	227.11
942.75	227.13
943.04	227.14
943.34	227.19
943.64	227.18
943.94	227.16
944.24	227.21
944.54	227.21
944.84	227.23
945.13	227.23
945.43	227.26
945.73	227.28
946.03	227.31
946.33	227.31
946.62	227.34
946.92	227.34
947.22	227.33
947.52	227.34
947.82	227.39
948.11	227.39
948.41	227.38
948.71	227.38
949.01	227.36
949.31	227.37
949.60	227.36
949.90	227.36
950.20	227.37
950.50	227.34
950.79	227.32
951.09	227.35
951.39	227.33
951.69	227.31
951.98	227.30
952.28	227.30
952.58	227.27
952.87	227.28
953.17	227.27
953.47	227.26
953.76	227.25
954.06	227.20
954.36	227.18
954.66	227.21
954.95	227.20
955.25	227.21
955.55	227.18
955.84	227.16
956.14	227.15
956.44	227.14
956.73	227.13
957.03	227.13
957.32	227.06
957.62	227.06
957.92	227.08
958.21	227.05
958.51	227.11
958.81	227.13
959.10	227.09
959.40	227.12
959.69	227.12
959.99	227.15
960.29	227.13
960.58	227.10
960.88	227.08
961.17	227.09
961.47	227.13
961.76	227.10
962.06	227.08
962.36	227.04
962.65	227.02
962.95	226.99
963.24	226.97
963.54	226.97
963.83	226.98
964.13	226.96
964.42	226.90
964.72	226.84
965.01	226.82
965.31	226.82
965.60	226.76
965.90	226.84
966.19	226.79
966.49	226.78
966.78	226.79
967.08	226.77
967.37	226.74
967.67	226.69
967.96	226.71
968.26	226.74
968.55	226.78
968.85	226.78
969.14	226.79
969.43	226.79
969.73	226.80
970.02	226.77
970.32	226.78
970.61	226.82
970.91	226.81
971.20	226.80
971.49	226.81
971.79	226.83
972.08	226.74
972.38	226.74
972.67	226.78
972.96	226.79
973.26	226.79
973.55	226.85
973.85	226.84
974.14	226.85
974.43	226.82
974.73	226.81
975.02	226.81
975.31	226.79
975.61	226.80
975.90	226.79
976.19	226.78
976.49	226.75
976.78	226.76
977.07	226.73
977.37	226.73
977.66	226.74
977.95	226.72
978.24	226.76
978.54	226.78
978.83	226.77
979.12	226.78
979.42	226.79
979.71	226.76
980.00	226.76
980.29	226.76
980.59	226.78
980.88	226.84
981.17	226.84
981.46	226.91
981.76	226.91
982.05	226.97
982.34	226.98
982.63	227.02
982.93	227.00
983.22	227.04
983.51	227.05
983.80	227.06
984.09	227.10
984.39	227.07
984.68	227.07
984.97	227.06
985.26	227.02
985.55	227.04
985.85	227.03
986.14	227.04
986.43	227.04
986.72	227.05
987.01	227.02
987.30	227.01
987.59	226.98
987.89	226.96
988.18	226.90
988.47	226.90
988.76	226.88
989.05	226.88
989.34	226.86
989.63	226.89
989.92	226.86
990.22	226.80
990.51	226.84
990.80	226.84
991.09	226.84
991.38	226.88
991.67	226.85
991.96	226.85
992.25	226.86
992.54	226.85
992.83	226.81
993.12	226.79
993.41	226.82
993.70	226.84
993.99	226.87
994.28	226.89
994.58	226.89
994.87	226.88
995.16	226.85
995.45	226.85
995.74	226.80
996.03	226.84
996.32	226.85
996.61	226.81
996.90	226.82
997.19	226.82
997.48	226.80
997.77	226.80
998.06	226.83
998.34	226.80
998.63	226.79
998.92	226.78
999.21	226.78
999.50	226.78
999.79	226.70
1000.08	226.68
1000.37	226.65
1000.66	226.64
1000.95	226.67
1001.24	226.68
1001.53	226.70
1001.82	226.68
1002.11	226.65
1002.40	226.68
1002.68	226.69
1002.97	226.72
1003.26	226.70
1003.55	226.64
1003.84	226.60
1004.13	226.61
1004.42	226.59
1004.71	226.61
1004.99	226.63
1005.28	226.65
1005.57	226.63
1005.86	226.64
1006.15	226.64
1006.44	226.65
1006.72	226.66
1007.01	226.65
1007.30	226.61
1007.59	226.59
1007.88	226.60
1008.17	226.59
1008.45	226.55
1008.74	226.50
1009.03	226.48
1009.32	226.51
1009.60	226.55
1009.89	226.57
1010.18	226.52
1010.47	226.55
1010.76	226.52
1011.04	226.50
1011.33	226.52
1011.62	226.53
1011.91	226.57
1012.19	226.57
1012.48	226.60
1012.77	226.61
1013.05	226.65
1013.34	226.70
1013.63	226.70
1013.92	226.72
1014.20	226.76
1014.49	226.78
1014.78	226.83
1015.06	226.79
1015.35	226.82
1015.64	226.85
1015.92	226.87
1016.21	226.87
1016.50	226.86
1016.78	226.90
1017.07	226.93
1017.36	226.91
1017.64	226.90
1017.93	226.89
1018.22	226.93
1018.50	226.88
1018.79	226.89
1019.08	226.84
1019.36	226.84
1019.65	226.84
1019.93	226.88
1020.22	226.82
1020.51	226.88
1020.79	226.87
1021.08	227.04
1021.36	226.27
1021.65	227.16
1021.94	226.56
1022.22	226.86
1022.51	226.73
1022.79	227.61
1023.08	225.91
1023.36	228.01
1023.65	226.86
>>>>>End Processed Spectral Data<<<<<
