SpectraSuite Data File
++++++++++++++++++++++++++++++++++++
Date: Fri Feb 01 15:07:09 EST 2013
User: group
Dark Spectrum Present: No
Reference Spectrum Present: No
Number of Sampled Component Spectra: 1
Spectrometers: USB2E7196
Integration Time (usec): 35000 (USB2E7196)
Spectra Averaged: 100 (USB2E7196)
Boxcar Smoothing: 10 (USB2E7196)
Correct for Electrical Dark: No (USB2E7196)
Strobe/Lamp Enabled: No (USB2E7196)
Correct for Detector Non-linearity: No (USB2E7196)
Correct for Stray Light: No (USB2E7196)
Number of Pixels in Processed Spectrum: 2048
>>>>>Begin Processed Spectral Data<<<<<
339.09	0.00
339.48	215.12
339.86	216.67
340.24	218.18
340.63	220.01
341.01	222.37
341.39	222.65
341.78	222.64
342.16	225.08
342.54	225.22
342.93	213.67
343.31	224.45
343.69	224.98
344.07	225.44
344.46	225.83
344.84	226.16
345.22	226.36
345.60	226.59
345.99	226.79
346.37	226.91
346.75	226.99
347.13	227.05
347.52	227.08
347.90	227.10
348.28	227.12
348.66	227.17
349.05	227.13
349.43	227.10
349.81	227.17
350.19	227.20
350.57	227.22
350.96	227.28
351.34	227.39
351.72	227.47
352.10	227.56
352.48	227.68
352.87	227.73
353.25	227.82
353.63	227.88
354.01	227.95
354.39	228.03
354.77	228.11
355.15	228.17
355.54	228.23
355.92	228.27
356.30	228.35
356.68	228.44
357.06	228.54
357.44	228.65
357.82	228.69
358.20	228.74
358.58	228.84
358.97	228.91
359.35	228.98
359.73	229.03
360.11	229.06
360.49	229.11
360.87	229.16
361.25	229.22
361.63	229.29
362.01	229.35
362.39	229.37
362.77	229.41
363.15	229.46
363.53	229.51
363.91	229.56
364.29	229.58
364.67	229.54
365.05	229.53
365.43	229.53
365.81	229.54
366.19	229.60
366.57	229.63
366.95	229.62
367.33	229.58
367.71	229.60
368.09	229.63
368.47	229.63
368.85	229.61
369.23	229.59
369.61	229.52
369.99	229.49
370.37	229.45
370.75	229.45
371.13	229.42
371.51	229.34
371.89	229.31
372.27	229.25
372.65	229.19
373.03	229.14
373.41	229.07
373.78	229.01
374.16	228.90
374.54	228.83
374.92	228.75
375.30	228.70
375.68	228.63
376.06	228.57
376.44	228.48
376.82	228.41
377.19	228.33
377.57	228.25
377.95	228.16
378.33	228.10
378.71	227.98
379.09	227.87
379.47	227.83
379.84	227.72
380.22	227.64
380.60	227.56
380.98	227.50
381.36	227.44
381.73	227.37
382.11	227.28
382.49	227.19
382.87	227.10
383.25	227.03
383.62	227.04
384.00	226.97
384.38	226.91
384.76	226.86
385.13	226.84
385.51	226.80
385.89	226.75
386.27	226.68
386.64	226.65
387.02	226.61
387.40	226.55
387.78	226.52
388.15	226.49
388.53	226.45
388.91	226.42
389.29	226.37
389.66	226.37
390.04	226.38
390.42	226.37
390.79	226.35
391.17	226.35
391.55	226.23
391.92	226.22
392.30	226.23
392.68	226.24
393.05	226.26
393.43	226.26
393.81	226.28
394.18	226.29
394.56	226.31
394.94	226.34
395.31	226.36
395.69	226.43
396.06	226.50
396.44	226.53
396.82	226.56
397.19	226.68
397.57	226.69
397.95	226.74
398.32	226.77
398.70	226.85
399.07	226.92
399.45	227.00
399.82	227.05
400.20	227.11
400.58	227.16
400.95	227.20
401.33	227.34
401.70	227.51
402.08	227.62
402.45	227.73
402.83	227.89
403.20	228.00
403.58	228.10
403.95	228.23
404.33	228.36
404.71	228.50
405.08	228.66
405.46	228.82
405.83	228.99
406.21	229.17
406.58	229.37
406.96	229.53
407.33	229.71
407.70	229.95
408.08	230.19
408.45	230.42
408.83	230.65
409.20	230.85
409.58	231.04
409.95	231.26
410.33	231.53
410.70	231.77
411.08	232.08
411.45	232.41
411.82	232.70
412.20	233.06
412.57	233.50
412.95	233.81
413.32	234.23
413.69	234.63
414.07	235.05
414.44	235.50
414.82	235.99
415.19	236.56
415.56	237.12
415.94	237.69
416.31	238.33
416.68	238.96
417.06	239.69
417.43	240.37
417.81	241.18
418.18	241.99
418.55	242.83
418.93	243.73
419.30	244.63
419.67	245.59
420.04	246.56
420.42	247.54
420.79	248.74
421.16	249.88
421.54	251.10
421.91	252.32
422.28	253.57
422.66	254.90
423.03	256.20
423.40	257.53
423.77	258.94
424.15	260.38
424.52	261.88
424.89	263.46
425.26	265.01
425.64	266.43
426.01	268.02
426.38	269.70
426.75	271.36
427.13	273.09
427.50	274.90
427.87	276.76
428.24	278.62
428.61	280.36
428.99	282.35
429.36	284.45
429.73	286.53
430.10	288.56
430.47	290.66
430.85	292.79
431.22	294.98
431.59	297.36
431.96	299.60
432.33	302.10
432.70	304.53
433.08	307.35
433.45	310.01
433.82	312.61
434.19	315.50
434.56	318.36
434.93	321.01
435.30	323.67
435.68	326.60
436.05	329.46
436.42	332.27
436.79	334.80
437.16	337.48
437.53	340.33
437.90	343.15
438.27	345.84
438.64	348.69
439.01	351.35
439.38	353.62
439.75	355.81
440.13	358.33
440.50	360.63
440.87	362.51
441.24	364.47
441.61	366.63
441.98	368.12
442.35	369.88
442.72	371.75
443.09	373.53
443.46	374.52
443.83	375.09
444.20	375.58
444.57	376.38
444.94	376.69
445.31	377.02
445.68	377.36
446.05	377.47
446.42	377.04
446.79	376.61
447.16	376.09
447.53	375.77
447.90	374.60
448.27	373.47
448.64	371.82
449.01	370.64
449.37	368.66
449.74	366.74
450.11	364.48
450.48	361.96
450.85	359.44
451.22	357.27
451.59	355.23
451.96	353.29
452.33	350.69
452.70	348.29
453.07	345.38
453.43	342.50
453.80	339.70
454.17	337.01
454.54	334.45
454.91	331.76
455.28	329.06
455.65	326.55
456.02	324.06
456.38	321.94
456.75	319.27
457.12	317.01
457.49	314.79
457.86	312.64
458.23	310.78
458.59	308.69
458.96	306.60
459.33	304.75
459.70	302.88
460.07	301.38
460.43	299.65
460.80	298.09
461.17	296.61
461.54	295.11
461.91	293.68
462.27	292.23
462.64	290.95
463.01	289.58
463.38	288.26
463.74	286.88
464.11	285.70
464.48	284.71
464.85	283.58
465.21	282.68
465.58	281.71
465.95	280.59
466.32	279.73
466.68	278.83
467.05	277.91
467.42	276.99
467.78	276.05
468.15	275.17
468.52	274.50
468.88	273.67
469.25	272.87
469.62	272.24
469.98	271.57
470.35	270.91
470.72	270.35
471.08	269.70
471.45	269.17
471.82	268.63
472.18	268.03
472.55	267.61
472.92	267.09
473.28	266.64
473.65	266.22
474.02	265.74
474.38	265.35
474.75	265.02
475.11	264.66
475.48	264.37
475.85	264.16
476.21	263.89
476.58	263.69
476.94	263.54
477.31	263.38
477.67	263.25
478.04	263.14
478.41	263.04
478.77	263.07
479.14	262.99
479.50	263.01
479.87	263.04
480.23	263.11
480.60	263.19
480.96	263.26
481.33	263.46
481.69	263.67
482.06	263.86
482.42	264.09
482.79	264.37
483.15	264.69
483.52	265.03
483.88	265.38
484.25	265.77
484.61	266.22
484.98	266.70
485.34	267.21
485.71	267.84
486.07	268.46
486.44	269.02
486.80	269.73
487.17	270.45
487.53	271.26
487.90	272.09
488.26	272.99
488.62	273.99
488.99	274.96
489.35	275.95
489.72	277.04
490.08	278.23
490.44	279.44
490.81	280.77
491.17	282.13
491.54	283.63
491.90	285.16
492.26	286.79
492.63	288.53
492.99	290.30
493.36	292.15
493.72	294.18
494.08	296.25
494.45	298.47
494.81	300.81
495.17	303.23
495.54	305.79
495.90	308.49
496.26	311.30
496.63	314.21
496.99	317.34
497.35	320.63
497.72	323.98
498.08	327.48
498.44	331.17
498.80	335.09
499.17	339.08
499.53	343.20
499.89	347.55
500.26	352.01
500.62	356.66
500.98	361.62
501.34	366.69
501.71	372.03
502.07	377.40
502.43	383.03
502.79	388.86
503.16	394.89
503.52	401.12
503.88	407.48
504.24	414.09
504.60	420.97
504.97	428.04
505.33	435.38
505.69	443.07
506.05	450.76
506.41	458.64
506.78	466.75
507.14	475.18
507.50	483.90
507.86	492.87
508.22	502.04
508.59	511.32
508.95	520.89
509.31	530.69
509.67	540.89
510.03	551.11
510.39	561.69
510.75	572.55
511.12	583.50
511.48	594.83
511.84	606.29
512.20	617.79
512.56	629.78
512.92	641.95
513.28	654.24
513.64	666.78
514.00	679.48
514.37	692.45
514.73	705.54
515.09	718.69
515.45	732.00
515.81	745.66
516.17	759.50
516.53	773.60
516.89	787.78
517.25	802.00
517.61	816.46
517.97	830.87
518.33	845.26
518.69	860.15
519.05	875.16
519.41	890.40
519.77	906.03
520.13	921.47
520.49	936.92
520.85	952.53
521.21	968.31
521.57	984.65
521.93	1000.51
522.29	1017.01
522.65	1033.26
523.01	1049.58
523.37	1065.69
523.73	1082.08
524.09	1098.30
524.45	1114.73
524.81	1131.42
525.17	1148.42
525.53	1165.45
525.89	1182.34
526.25	1199.12
526.61	1215.57
526.97	1232.34
527.33	1248.88
527.68	1265.62
528.04	1282.18
528.40	1298.90
528.76	1316.00
529.12	1332.62
529.48	1349.55
529.84	1365.68
530.20	1382.29
530.56	1399.37
530.91	1416.68
531.27	1433.36
531.63	1449.92
531.99	1466.48
532.35	1482.49
532.71	1498.31
533.07	1514.55
533.42	1530.66
533.78	1546.70
534.14	1563.01
534.50	1578.46
534.86	1594.46
535.21	1609.59
535.57	1625.65
535.93	1641.16
536.29	1655.99
536.65	1671.13
537.00	1686.05
537.36	1701.40
537.72	1716.06
538.08	1730.51
538.44	1744.51
538.79	1758.55
539.15	1772.46
539.51	1786.41
539.87	1800.86
540.22	1814.76
540.58	1828.61
540.94	1842.07
541.29	1855.14
541.65	1868.02
542.01	1881.40
542.37	1893.73
542.72	1906.25
543.08	1918.03
543.44	1930.39
543.79	1941.83
544.15	1952.88
544.51	1964.45
544.87	1975.54
545.22	1986.41
545.58	1996.73
545.94	2006.53
546.29	2016.33
546.65	2025.99
547.01	2035.20
547.36	2043.95
547.72	2052.35
548.07	2060.21
548.43	2068.38
548.79	2076.54
549.14	2083.93
549.50	2091.23
549.86	2098.94
550.21	2106.34
550.57	2113.44
550.92	2120.07
551.28	2127.17
551.64	2134.27
551.99	2140.86
552.35	2146.91
552.70	2153.01
553.06	2158.84
553.41	2165.12
553.77	2171.20
554.13	2177.43
554.48	2183.55
554.84	2188.92
555.19	2194.42
555.55	2199.62
555.90	2204.01
556.26	2208.86
556.61	2213.78
556.97	2217.97
557.32	2222.10
557.68	2226.08
558.03	2230.38
558.39	2234.07
558.74	2238.47
559.10	2242.08
559.45	2245.67
559.81	2250.11
560.16	2253.96
560.52	2257.30
560.87	2260.81
561.23	2263.44
561.58	2266.20
561.94	2268.53
562.29	2271.01
562.64	2273.57
563.00	2276.12
563.35	2279.62
563.71	2282.56
564.06	2285.53
564.42	2288.25
564.77	2290.59
565.12	2292.83
565.48	2294.57
565.83	2296.40
566.19	2297.48
566.54	2298.62
566.89	2299.63
567.25	2299.97
567.60	2301.28
567.96	2302.88
568.31	2303.53
568.66	2304.52
569.02	2305.06
569.37	2305.41
569.72	2306.02
570.08	2305.90
570.43	2305.78
570.78	2304.95
571.14	2303.33
571.49	2301.96
571.84	2301.61
572.20	2300.33
572.55	2299.20
572.90	2297.73
573.26	2296.16
573.61	2294.67
573.96	2292.67
574.31	2289.58
574.67	2286.35
575.02	2282.56
575.37	2278.99
575.72	2275.06
576.08	2271.74
576.43	2268.27
576.78	2264.44
577.13	2261.29
577.49	2258.05
577.84	2254.50
578.19	2250.82
578.54	2246.93
578.90	2242.61
579.25	2236.90
579.60	2231.70
579.95	2226.62
580.30	2221.44
580.66	2216.25
581.01	2211.06
581.36	2205.99
581.71	2201.59
582.06	2197.01
582.42	2192.44
582.77	2187.13
583.12	2182.50
583.47	2177.47
583.82	2172.32
584.17	2166.98
584.53	2161.21
584.88	2155.47
585.23	2149.49
585.58	2143.86
585.93	2138.41
586.28	2133.46
586.63	2128.31
586.98	2123.35
587.34	2118.58
587.69	2113.52
588.04	2107.95
588.39	2102.19
588.74	2095.59
589.09	2089.37
589.44	2082.45
589.79	2076.15
590.14	2070.44
590.49	2063.79
590.84	2057.40
591.19	2051.04
591.54	2044.44
591.89	2036.99
592.25	2030.25
592.60	2023.00
592.95	2015.23
593.30	2007.83
593.65	2000.27
594.00	1993.16
594.35	1985.87
594.70	1977.77
595.05	1970.37
595.40	1963.23
595.75	1955.72
596.10	1949.30
596.45	1942.40
596.80	1936.25
597.15	1929.64
597.50	1922.32
597.85	1915.84
598.19	1909.05
598.54	1902.06
598.89	1895.36
599.24	1889.29
599.59	1882.38
599.94	1876.13
600.29	1869.66
600.64	1863.16
600.99	1855.53
601.34	1848.53
601.69	1841.47
602.04	1834.36
602.39	1827.14
602.74	1820.14
603.08	1813.32
603.43	1806.89
603.78	1799.62
604.13	1792.40
604.48	1784.96
604.83	1778.16
605.18	1771.04
605.53	1762.98
605.87	1754.92
606.22	1747.71
606.57	1739.79
606.92	1732.57
607.27	1725.37
607.62	1718.53
607.96	1710.98
608.31	1704.25
608.66	1696.71
609.01	1689.12
609.36	1681.59
609.70	1673.40
610.05	1665.31
610.40	1657.53
610.75	1649.01
611.10	1641.35
611.44	1632.94
611.79	1625.03
612.14	1616.36
612.49	1607.37
612.83	1599.18
613.18	1591.03
613.53	1583.05
613.88	1574.68
614.22	1566.37
614.57	1557.84
614.92	1549.87
615.27	1542.33
615.61	1534.17
615.96	1526.25
616.31	1518.61
616.65	1511.30
617.00	1503.88
617.35	1496.34
617.70	1487.94
618.04	1479.41
618.39	1471.26
618.74	1463.74
619.08	1455.57
619.43	1448.06
619.78	1441.15
620.12	1433.88
620.47	1426.42
620.82	1418.26
621.16	1410.84
621.51	1403.32
621.85	1395.68
622.20	1387.24
622.55	1379.04
622.89	1371.17
623.24	1363.45
623.59	1356.13
623.93	1348.63
624.28	1341.37
624.62	1333.79
624.97	1326.78
625.32	1320.19
625.66	1313.13
626.01	1305.95
626.35	1298.48
626.70	1290.73
627.04	1282.92
627.39	1275.22
627.73	1267.91
628.08	1260.94
628.43	1253.52
628.77	1246.14
629.12	1238.63
629.46	1231.40
629.81	1224.11
630.15	1217.03
630.50	1209.81
630.84	1201.69
631.19	1193.92
631.53	1186.53
631.88	1178.94
632.22	1171.34
632.57	1164.02
632.91	1156.63
633.26	1149.17
633.60	1141.82
633.95	1134.85
634.29	1127.90
634.64	1121.24
634.98	1113.88
635.32	1106.75
635.67	1100.24
636.01	1093.62
636.36	1086.81
636.70	1080.36
637.05	1073.67
637.39	1067.10
637.73	1060.57
638.08	1054.70
638.42	1048.74
638.77	1042.28
639.11	1035.80
639.45	1029.44
639.80	1022.81
640.14	1016.37
640.49	1009.85
640.83	1003.61
641.17	997.31
641.52	991.01
641.86	984.67
642.20	978.92
642.55	972.73
642.89	966.27
643.23	959.78
643.58	954.02
643.92	947.83
644.26	941.71
644.61	935.78
644.95	929.69
645.29	923.09
645.64	916.31
645.98	910.03
646.32	904.30
646.66	898.28
647.01	892.48
647.35	886.74
647.69	880.95
648.04	875.40
648.38	869.53
648.72	863.55
649.06	857.45
649.41	851.55
649.75	845.49
650.09	839.56
650.43	833.69
650.78	827.53
651.12	821.53
651.46	815.83
651.80	810.11
652.14	804.72
652.49	799.35
652.83	794.16
653.17	788.36
653.51	782.58
653.85	777.24
654.20	771.65
654.54	765.79
654.88	760.13
655.22	754.20
655.56	748.67
655.90	743.21
656.25	737.95
656.59	732.59
656.93	727.57
657.27	722.39
657.61	717.02
657.95	711.98
658.29	706.98
658.64	701.83
658.98	696.53
659.32	691.11
659.66	685.89
660.00	680.60
660.34	675.74
660.68	670.85
661.02	665.79
661.36	661.07
661.70	656.53
662.05	652.13
662.39	647.86
662.73	643.36
663.07	639.00
663.41	634.56
663.75	630.11
664.09	625.54
664.43	621.26
664.77	617.12
665.11	612.92
665.45	608.81
665.79	604.76
666.13	600.61
666.47	596.57
666.81	592.40
667.15	588.33
667.49	584.49
667.83	580.73
668.17	576.80
668.51	572.73
668.85	568.70
669.19	564.92
669.53	561.12
669.87	557.30
670.21	553.65
670.55	550.06
670.89	546.66
671.23	543.29
671.57	539.85
671.91	536.34
672.25	532.91
672.58	529.42
672.92	526.06
673.26	522.94
673.60	519.82
673.94	516.73
674.28	513.82
674.62	510.83
674.96	507.75
675.30	504.90
675.64	502.02
675.97	499.29
676.31	496.42
676.65	493.49
676.99	490.81
677.33	487.97
677.67	485.17
678.01	482.13
678.34	479.15
678.68	476.28
679.02	473.48
679.36	470.73
679.70	468.03
680.04	465.28
680.37	462.36
680.71	459.58
681.05	457.07
681.39	454.41
681.73	451.78
682.06	449.23
682.40	446.66
682.74	444.14
683.08	441.59
683.42	439.03
683.75	436.58
684.09	434.00
684.43	431.51
684.77	429.07
685.10	426.79
685.44	424.44
685.78	422.12
686.12	419.93
686.45	417.62
686.79	415.35
687.13	413.14
687.46	411.09
687.80	408.96
688.14	406.73
688.48	404.66
688.81	402.44
689.15	400.30
689.49	398.20
689.82	396.11
690.16	394.04
690.50	392.05
690.83	390.03
691.17	388.06
691.51	386.24
691.84	384.38
692.18	382.40
692.52	380.48
692.85	378.58
693.19	376.68
693.52	374.84
693.86	373.02
694.20	371.23
694.53	369.34
694.87	367.48
695.21	365.70
695.54	363.88
695.88	362.16
696.21	360.42
696.55	358.75
696.88	357.10
697.22	355.46
697.56	353.85
697.89	352.21
698.23	350.61
698.56	348.90
698.90	347.32
699.23	345.71
699.57	344.15
699.90	342.62
700.24	341.11
700.58	339.57
700.91	338.07
701.25	336.64
701.58	335.35
701.92	334.00
702.25	332.66
702.59	331.32
702.92	330.01
703.26	328.77
703.59	327.46
703.93	326.27
704.26	325.01
704.60	323.74
704.93	322.56
705.26	321.30
705.60	320.19
705.93	318.99
706.27	317.95
706.60	316.93
706.94	315.87
707.27	314.70
707.61	313.69
707.94	312.68
708.27	311.61
708.61	310.51
708.94	309.52
709.28	308.54
709.61	307.55
709.94	306.61
710.28	305.58
710.61	304.62
710.95	303.57
711.28	302.70
711.61	301.78
711.95	300.85
712.28	299.93
712.61	298.95
712.95	298.05
713.28	297.19
713.61	296.26
713.95	295.37
714.28	294.59
714.61	293.70
714.95	292.86
715.28	292.02
715.61	291.21
715.95	290.36
716.28	289.50
716.61	288.72
716.95	287.91
717.28	287.19
717.61	286.45
717.94	285.72
718.28	284.87
718.61	284.15
718.94	283.46
719.27	282.81
719.61	282.15
719.94	281.51
720.27	280.82
720.60	280.20
720.94	279.59
721.27	278.98
721.60	278.41
721.93	277.84
722.27	277.31
722.60	276.72
722.93	276.15
723.26	275.59
723.59	275.01
723.93	274.45
724.26	273.88
724.59	273.30
724.92	272.75
725.25	272.28
725.59	271.76
725.92	271.24
726.25	270.72
726.58	270.24
726.91	269.72
727.24	269.21
727.57	268.69
727.91	268.19
728.24	267.74
728.57	267.20
728.90	266.72
729.23	266.18
729.56	265.75
729.89	265.29
730.22	264.82
730.55	264.32
730.89	263.84
731.22	263.36
731.55	262.93
731.88	262.53
732.21	262.07
732.54	261.61
732.87	261.19
733.20	260.80
733.53	260.41
733.86	260.06
734.19	259.67
734.52	259.30
734.85	258.97
735.18	258.50
735.51	258.18
735.84	257.80
736.17	257.47
736.50	257.03
736.83	256.77
737.16	256.43
737.49	256.12
737.82	255.79
738.15	255.51
738.48	255.21
738.81	254.88
739.14	254.56
739.47	254.26
739.80	253.94
740.13	253.62
740.46	253.31
740.79	252.94
741.12	252.64
741.45	252.32
741.78	251.94
742.11	251.68
742.44	251.36
742.77	251.04
743.10	250.73
743.43	250.45
743.75	250.07
744.08	249.93
744.41	249.68
744.74	249.41
745.07	249.08
745.40	248.78
745.73	248.55
746.06	248.26
746.39	248.04
746.71	247.76
747.04	247.50
747.37	247.27
747.70	247.06
748.03	246.84
748.36	246.61
748.68	246.41
749.01	246.18
749.34	245.97
749.67	245.81
750.00	245.62
750.33	245.49
750.65	245.31
750.98	244.95
751.31	244.73
751.64	244.53
751.97	244.40
752.29	244.22
752.62	244.01
752.95	243.83
753.28	243.62
753.60	243.46
753.93	243.29
754.26	243.08
754.59	242.82
754.91	242.62
755.24	242.43
755.57	242.24
755.90	242.05
756.22	241.85
756.55	241.64
756.88	241.43
757.20	241.21
757.53	241.03
757.86	240.88
758.19	240.76
758.51	240.62
758.84	240.41
759.17	240.25
759.49	240.08
759.82	240.00
760.15	239.84
760.47	239.66
760.80	239.52
761.13	239.39
761.45	239.28
761.78	239.14
762.11	239.03
762.43	238.87
762.76	238.73
763.08	238.61
763.41	238.49
763.74	238.40
764.06	238.23
764.39	238.08
764.71	237.95
765.04	237.80
765.37	237.64
765.69	237.52
766.02	237.37
766.34	237.22
766.67	237.05
767.00	236.93
767.32	236.88
767.65	236.82
767.97	236.69
768.30	236.60
768.62	236.45
768.95	236.37
769.27	236.29
769.60	236.19
769.92	236.07
770.25	235.92
770.57	235.78
770.90	235.71
771.22	235.60
771.55	235.50
771.87	235.41
772.20	235.32
772.52	235.32
772.85	235.33
773.17	235.26
773.50	235.15
773.82	235.05
774.15	234.90
774.47	234.76
774.80	234.66
775.12	234.57
775.45	234.50
775.77	234.39
776.09	234.29
776.42	234.22
776.74	234.18
777.07	234.08
777.39	233.98
777.72	233.88
778.04	233.80
778.36	233.72
778.69	233.65
779.01	233.56
779.33	233.40
779.66	233.23
779.98	233.12
780.31	233.04
780.63	232.99
780.95	232.92
781.28	232.84
781.60	232.78
781.92	232.71
782.25	232.62
782.57	232.53
782.89	232.45
783.22	232.37
783.54	232.25
783.86	232.21
784.19	232.17
784.51	232.14
784.83	232.10
785.16	232.04
785.48	231.98
785.80	231.90
786.12	231.84
786.45	231.82
786.77	231.80
787.09	231.77
787.42	231.68
787.74	231.67
788.06	231.68
788.38	231.62
788.71	231.57
789.03	231.56
789.35	231.57
789.67	231.51
789.99	231.51
790.32	231.47
790.64	231.47
790.96	231.54
791.28	231.48
791.61	231.42
791.93	231.43
792.25	231.37
792.57	231.43
792.89	231.39
793.21	231.35
793.54	231.33
793.86	231.28
794.18	231.27
794.50	231.20
794.82	231.13
795.14	231.12
795.47	231.11
795.79	231.08
796.11	231.02
796.43	231.02
796.75	230.97
797.07	230.97
797.39	230.91
797.71	230.81
798.04	230.81
798.36	230.78
798.68	230.72
799.00	230.72
799.32	230.65
799.64	230.67
799.96	230.64
800.28	230.61
800.60	230.63
800.92	230.64
801.24	230.61
801.56	230.62
801.89	230.57
802.21	230.54
802.53	230.46
802.85	230.45
803.17	230.45
803.49	230.41
803.81	230.37
804.13	230.33
804.45	230.26
804.77	230.21
805.09	230.19
805.41	230.18
805.73	230.14
806.05	230.08
806.37	230.05
806.69	229.99
807.01	229.98
807.33	229.92
807.65	229.84
807.97	229.86
808.28	229.80
808.60	229.78
808.92	229.74
809.24	229.80
809.56	229.74
809.88	229.67
810.20	229.64
810.52	229.63
810.84	229.62
811.16	229.60
811.48	229.56
811.80	229.56
812.12	229.52
812.43	229.50
812.75	229.50
813.07	229.43
813.39	229.41
813.71	229.34
814.03	229.31
814.35	229.26
814.67	229.20
814.98	229.16
815.30	229.12
815.62	229.10
815.94	228.99
816.26	229.01
816.58	228.98
816.89	228.98
817.21	228.96
817.53	228.92
817.85	228.88
818.17	228.88
818.48	228.78
818.80	228.74
819.12	228.71
819.44	228.66
819.76	228.63
820.07	228.62
820.39	228.62
820.71	228.58
821.03	228.58
821.34	228.52
821.66	228.51
821.98	228.50
822.30	228.49
822.61	228.53
822.93	228.45
823.25	228.45
823.57	228.42
823.88	228.44
824.20	228.43
824.52	228.43
824.83	228.41
825.15	228.38
825.47	228.39
825.79	228.36
826.10	228.35
826.42	228.32
826.74	228.30
827.05	228.26
827.37	228.28
827.69	228.26
828.00	228.28
828.32	228.29
828.64	228.28
828.95	228.34
829.27	228.29
829.58	228.33
829.90	228.34
830.22	228.34
830.53	228.28
830.85	228.25
831.17	228.22
831.48	228.21
831.80	228.23
832.11	228.23
832.43	228.25
832.75	228.24
833.06	228.32
833.38	228.29
833.69	228.29
834.01	228.32
834.32	228.32
834.64	228.32
834.96	228.31
835.27	228.30
835.59	228.27
835.90	228.24
836.22	228.22
836.53	228.16
836.85	228.13
837.16	228.22
837.48	228.22
837.79	228.27
838.11	228.28
838.42	228.28
838.74	228.27
839.05	228.27
839.37	228.29
839.68	228.22
840.00	228.23
840.31	228.25
840.63	228.20
840.94	228.17
841.26	228.15
841.57	228.14
841.88	228.16
842.20	228.11
842.51	228.07
842.83	228.08
843.14	228.21
843.46	228.22
843.77	228.15
844.08	228.15
844.40	228.08
844.71	228.08
845.03	228.07
845.34	228.06
845.65	228.07
845.97	228.07
846.28	228.08
846.60	228.05
846.91	228.04
847.22	228.05
847.54	228.08
847.85	228.07
848.16	228.04
848.48	228.02
848.79	228.05
849.10	228.08
849.42	228.08
849.73	227.98
850.04	227.97
850.36	227.92
850.67	227.94
850.98	227.96
851.30	227.95
851.61	227.95
851.92	227.95
852.23	227.94
852.55	227.90
852.86	227.89
853.17	227.90
853.49	227.91
853.80	227.89
854.11	227.91
854.42	227.88
854.74	227.88
855.05	227.88
855.36	227.81
855.67	227.80
855.99	227.79
856.30	227.89
856.61	227.86
856.92	227.88
857.23	227.87
857.55	227.86
857.86	227.85
858.17	227.84
858.48	227.81
858.79	227.78
859.11	227.81
859.42	227.79
859.73	227.74
860.04	227.74
860.35	227.74
860.66	227.68
860.98	227.69
861.29	227.71
861.60	227.69
861.91	227.69
862.22	227.70
862.53	227.68
862.84	227.55
863.16	227.61
863.47	227.56
863.78	227.54
864.09	227.50
864.40	227.48
864.71	227.45
865.02	227.47
865.33	227.44
865.64	227.40
865.95	227.40
866.27	227.48
866.58	227.43
866.89	227.42
867.20	227.43
867.51	227.41
867.82	227.37
868.13	227.36
868.44	227.39
868.75	227.38
869.06	227.36
869.37	227.41
869.68	227.33
869.99	227.33
870.30	227.37
870.61	227.41
870.92	227.42
871.23	227.45
871.54	227.43
871.85	227.45
872.16	227.47
872.47	227.48
872.78	227.41
873.09	227.45
873.40	227.45
873.71	227.45
874.02	227.47
874.33	227.49
874.64	227.51
874.95	227.51
875.26	227.53
875.56	227.55
875.87	227.52
876.18	227.53
876.49	227.66
876.80	227.66
877.11	227.64
877.42	227.65
877.73	227.64
878.04	227.66
878.35	227.69
878.66	227.71
878.96	227.70
879.27	227.73
879.58	227.75
879.89	227.73
880.20	227.81
880.51	227.79
880.82	227.78
881.12	227.76
881.43	227.76
881.74	227.73
882.05	227.73
882.36	227.73
882.67	227.76
882.97	227.67
883.28	227.65
883.59	227.66
883.90	227.64
884.21	227.66
884.51	227.59
884.82	227.59
885.13	227.57
885.44	227.59
885.74	227.58
886.05	227.57
886.36	227.60
886.67	227.51
886.98	227.59
887.28	227.59
887.59	227.61
887.90	227.59
888.20	227.59
888.51	227.59
888.82	227.60
889.13	227.60
889.43	227.67
889.74	227.68
890.05	227.69
890.35	227.69
890.66	227.68
890.97	227.73
891.28	227.70
891.58	227.69
891.89	227.66
892.20	227.63
892.50	227.62
892.81	227.58
893.12	227.58
893.42	227.53
893.73	227.54
894.04	227.54
894.34	227.56
894.65	227.53
894.95	227.52
895.26	227.52
895.57	227.54
895.87	227.43
896.18	227.39
896.48	227.37
896.79	227.35
897.10	227.35
897.40	227.32
897.71	227.33
898.01	227.37
898.32	227.36
898.63	227.36
898.93	227.37
899.24	227.37
899.54	227.35
899.85	227.34
900.15	227.34
900.46	227.35
900.76	227.34
901.07	227.39
901.38	227.37
901.68	227.36
901.99	227.32
902.29	227.31
902.60	227.33
902.90	227.32
903.21	227.29
903.51	227.30
903.82	227.35
904.12	227.37
904.43	227.34
904.73	227.33
905.03	227.36
905.34	227.43
905.64	227.45
905.95	227.49
906.25	227.45
906.56	227.43
906.86	227.41
907.17	227.39
907.47	227.37
907.77	227.38
908.08	227.36
908.38	227.33
908.69	227.36
908.99	227.36
909.30	227.37
909.60	227.41
909.90	227.39
910.21	227.36
910.51	227.33
910.81	227.33
911.12	227.36
911.42	227.33
911.73	227.25
912.03	227.28
912.33	227.25
912.64	227.28
912.94	227.27
913.24	227.24
913.55	227.24
913.85	227.24
914.15	227.26
914.46	227.28
914.76	227.30
915.06	227.30
915.37	227.28
915.67	227.31
915.97	227.29
916.27	227.31
916.58	227.32
916.88	227.34
917.18	227.33
917.49	227.39
917.79	227.41
918.09	227.40
918.39	227.42
918.70	227.44
919.00	227.45
919.30	227.52
919.60	227.53
919.91	227.53
920.21	227.52
920.51	227.48
920.81	227.46
921.12	227.49
921.42	227.48
921.72	227.50
922.02	227.46
922.32	227.47
922.63	227.45
922.93	227.48
923.23	227.48
923.53	227.51
923.83	227.45
924.13	227.42
924.44	227.41
924.74	227.42
925.04	227.46
925.34	227.45
925.64	227.41
925.94	227.42
926.24	227.47
926.55	227.44
926.85	227.45
927.15	227.45
927.45	227.44
927.75	227.44
928.05	227.43
928.35	227.44
928.65	227.46
928.95	227.47
929.26	227.40
929.56	227.40
929.86	227.39
930.16	227.36
930.46	227.34
930.76	227.38
931.06	227.31
931.36	227.25
931.66	227.23
931.96	227.20
932.26	227.18
932.56	227.13
932.86	227.18
933.16	227.19
933.46	227.16
933.76	227.14
934.06	227.17
934.36	227.21
934.66	227.22
934.96	227.20
935.26	227.20
935.56	227.23
935.86	227.19
936.16	227.18
936.46	227.17
936.76	227.17
937.06	227.14
937.36	227.15
937.66	227.17
937.96	227.18
938.26	227.19
938.56	227.20
938.86	227.18
939.16	227.19
939.46	227.17
939.76	227.17
940.06	227.14
940.35	227.09
940.65	227.02
940.95	226.99
941.25	226.97
941.55	226.95
941.85	226.92
942.15	226.95
942.45	226.96
942.75	226.95
943.04	226.93
943.34	226.92
943.64	226.92
943.94	226.86
944.24	226.86
944.54	226.84
944.84	226.81
945.13	226.81
945.43	226.77
945.73	226.78
946.03	226.77
946.33	226.79
946.62	226.80
946.92	226.80
947.22	226.81
947.52	226.84
947.82	226.85
948.11	226.86
948.41	226.83
948.71	226.81
949.01	226.85
949.31	226.89
949.60	226.90
949.90	226.93
950.20	226.95
950.50	226.95
950.79	226.97
951.09	226.99
951.39	227.01
951.69	227.01
951.98	227.03
952.28	227.07
952.58	227.10
952.87	227.11
953.17	227.10
953.47	227.10
953.76	227.09
954.06	227.08
954.36	227.08
954.66	227.08
954.95	227.13
955.25	227.12
955.55	227.14
955.84	227.16
956.14	227.13
956.44	227.15
956.73	227.16
957.03	227.21
957.32	227.25
957.62	227.25
957.92	227.27
958.21	227.27
958.51	227.36
958.81	227.36
959.10	227.39
959.40	227.47
959.69	227.48
959.99	227.52
960.29	227.55
960.58	227.56
960.88	227.62
961.17	227.59
961.47	227.62
961.76	227.59
962.06	227.59
962.36	227.60
962.65	227.60
962.95	227.58
963.24	227.56
963.54	227.55
963.83	227.54
964.13	227.56
964.42	227.54
964.72	227.46
965.01	227.43
965.31	227.44
965.60	227.40
965.90	227.45
966.19	227.42
966.49	227.43
966.78	227.41
967.08	227.40
967.37	227.40
967.67	227.37
967.96	227.34
968.26	227.32
968.55	227.33
968.85	227.32
969.14	227.31
969.43	227.29
969.73	227.27
970.02	227.27
970.32	227.22
970.61	227.22
970.91	227.21
971.20	227.23
971.49	227.18
971.79	227.20
972.08	227.14
972.38	227.11
972.67	227.09
972.96	227.11
973.26	227.09
973.55	227.12
973.85	227.13
974.14	227.14
974.43	227.14
974.73	227.12
975.02	227.13
975.31	227.13
975.61	227.09
975.90	227.06
976.19	227.02
976.49	227.03
976.78	227.01
977.07	226.99
977.37	226.97
977.66	226.97
977.95	226.93
978.24	226.93
978.54	226.95
978.83	226.91
979.12	226.87
979.42	226.85
979.71	226.81
980.00	226.81
980.29	226.84
980.59	226.81
980.88	226.81
981.17	226.79
981.46	226.82
981.76	226.82
982.05	226.88
982.34	226.90
982.63	226.93
982.93	226.93
983.22	226.95
983.51	226.95
983.80	226.99
984.09	227.01
984.39	226.99
984.68	226.99
984.97	227.02
985.26	227.04
985.55	227.07
985.85	227.04
986.14	227.03
986.43	227.03
986.72	227.03
987.01	227.00
987.30	226.98
987.59	226.97
987.89	226.99
988.18	226.97
988.47	227.00
988.76	226.98
989.05	226.98
989.34	226.97
989.63	227.00
989.92	226.99
990.22	226.99
990.51	227.01
990.80	227.00
991.09	226.98
991.38	226.99
991.67	226.98
991.96	226.98
992.25	226.98
992.54	226.96
992.83	227.00
993.12	227.03
993.41	227.08
993.70	227.10
993.99	227.12
994.28	227.13
994.58	227.13
994.87	227.10
995.16	227.12
995.45	227.13
995.74	227.14
996.03	227.17
996.32	227.20
996.61	227.26
996.90	227.26
997.19	227.29
997.48	227.31
997.77	227.30
998.06	227.34
998.34	227.33
998.63	227.34
998.92	227.35
999.21	227.37
999.50	227.38
999.79	227.38
1000.08	227.41
1000.37	227.39
1000.66	227.39
1000.95	227.43
1001.24	227.44
1001.53	227.46
1001.82	227.44
1002.11	227.38
1002.40	227.38
1002.68	227.37
1002.97	227.44
1003.26	227.42
1003.55	227.37
1003.84	227.40
1004.13	227.42
1004.42	227.42
1004.71	227.41
1004.99	227.39
1005.28	227.40
1005.57	227.41
1005.86	227.39
1006.15	227.35
1006.44	227.36
1006.72	227.38
1007.01	227.35
1007.30	227.31
1007.59	227.30
1007.88	227.31
1008.17	227.34
1008.45	227.30
1008.74	227.26
1009.03	227.23
1009.32	227.21
1009.60	227.20
1009.89	227.18
1010.18	227.11
1010.47	227.07
1010.76	227.05
1011.04	227.04
1011.33	227.04
1011.62	227.01
1011.91	226.99
1012.19	227.00
1012.48	226.98
1012.77	226.93
1013.05	226.97
1013.34	226.97
1013.63	226.93
1013.92	226.93
1014.20	226.91
1014.49	226.92
1014.78	226.90
1015.06	226.84
1015.35	226.85
1015.64	226.87
1015.92	226.86
1016.21	226.86
1016.50	226.87
1016.78	226.87
1017.07	226.85
1017.36	226.82
1017.64	226.82
1017.93	226.84
1018.22	226.80
1018.50	226.80
1018.79	226.80
1019.08	226.75
1019.36	226.76
1019.65	226.76
1019.93	226.77
1020.22	226.75
1020.51	226.79
1020.79	226.79
1021.08	226.46
1021.36	226.53
1021.65	226.68
1021.94	226.62
1022.22	227.31
1022.51	226.60
1022.79	227.14
1023.08	226.51
1023.36	228.03
1023.65	226.67
>>>>>End Processed Spectral Data<<<<<
