SpectraSuite Data File
++++++++++++++++++++++++++++++++++++
Date: Fri Feb 01 16:45:42 EST 2013
User: group
Dark Spectrum Present: No
Reference Spectrum Present: No
Number of Sampled Component Spectra: 1
Spectrometers: USB2E7196
Integration Time (usec): 35000 (USB2E7196)
Spectra Averaged: 100 (USB2E7196)
Boxcar Smoothing: 10 (USB2E7196)
Correct for Electrical Dark: No (USB2E7196)
Strobe/Lamp Enabled: No (USB2E7196)
Correct for Detector Non-linearity: No (USB2E7196)
Correct for Stray Light: No (USB2E7196)
Number of Pixels in Processed Spectrum: 2048
>>>>>Begin Processed Spectral Data<<<<<
339.09	0.00
339.48	213.59
339.86	214.99
340.24	216.87
340.63	217.94
341.01	220.78
341.39	220.51
341.78	221.51
342.16	223.41
342.54	223.51
342.93	211.97
343.31	222.68
343.69	223.20
344.07	223.65
344.46	224.04
344.84	224.42
345.22	224.65
345.60	224.88
345.99	225.06
346.37	225.20
346.75	225.27
347.13	225.34
347.52	225.38
347.90	225.46
348.28	225.50
348.66	225.53
349.05	225.51
349.43	225.52
349.81	225.55
350.19	225.60
350.57	225.64
350.96	225.66
351.34	225.75
351.72	225.81
352.10	225.91
352.48	225.96
352.87	225.99
353.25	226.02
353.63	226.07
354.01	226.14
354.39	226.18
354.77	226.25
355.15	226.30
355.54	226.33
355.92	226.35
356.30	226.38
356.68	226.49
357.06	226.55
357.44	226.60
357.82	226.63
358.20	226.70
358.58	226.75
358.97	226.83
359.35	226.88
359.73	226.97
360.11	227.00
360.49	227.05
360.87	227.08
361.25	227.14
361.63	227.24
362.01	227.29
362.39	227.33
362.77	227.38
363.15	227.43
363.53	227.48
363.91	227.50
364.29	227.56
364.67	227.51
365.05	227.54
365.43	227.58
365.81	227.62
366.19	227.66
366.57	227.69
366.95	227.68
367.33	227.66
367.71	227.67
368.09	227.70
368.47	227.70
368.85	227.72
369.23	227.76
369.61	227.69
369.99	227.72
370.37	227.71
370.75	227.75
371.13	227.69
371.51	227.65
371.89	227.67
372.27	227.63
372.65	227.59
373.03	227.56
373.41	227.50
373.78	227.45
374.16	227.37
374.54	227.32
374.92	227.27
375.30	227.24
375.68	227.19
376.06	227.14
376.44	227.10
376.82	227.04
377.19	226.96
377.57	226.89
377.95	226.78
378.33	226.69
378.71	226.58
379.09	226.53
379.47	226.49
379.84	226.39
380.22	226.34
380.60	226.26
380.98	226.22
381.36	226.16
381.73	226.09
382.11	226.02
382.49	225.96
382.87	225.92
383.25	225.85
383.62	225.85
384.00	225.79
384.38	225.71
384.76	225.68
385.13	225.67
385.51	225.63
385.89	225.59
386.27	225.51
386.64	225.45
387.02	225.43
387.40	225.40
387.78	225.37
388.15	225.33
388.53	225.30
388.91	225.24
389.29	225.21
389.66	225.21
390.04	225.15
390.42	225.13
390.79	225.09
391.17	225.06
391.55	224.93
391.92	224.93
392.30	224.96
392.68	224.92
393.05	224.92
393.43	224.91
393.81	224.91
394.18	224.91
394.56	224.93
394.94	224.94
395.31	224.96
395.69	225.00
396.06	225.01
396.44	225.03
396.82	225.06
397.19	225.13
397.57	225.15
397.95	225.24
398.32	225.25
398.70	225.30
399.07	225.40
399.45	225.47
399.82	225.48
400.20	225.51
400.58	225.55
400.95	225.56
401.33	225.65
401.70	225.79
402.08	225.90
402.45	225.96
402.83	226.06
403.20	226.14
403.58	226.22
403.95	226.32
404.33	226.43
404.71	226.54
405.08	226.71
405.46	226.85
405.83	226.96
406.21	227.12
406.58	227.27
406.96	227.40
407.33	227.57
407.70	227.78
408.08	228.04
408.45	228.30
408.83	228.50
409.20	228.70
409.58	228.87
409.95	229.12
410.33	229.41
410.70	229.65
411.08	229.96
411.45	230.24
411.82	230.56
412.20	230.93
412.57	231.34
412.95	231.64
413.32	232.01
413.69	232.43
414.07	232.86
414.44	233.32
414.82	233.81
415.19	234.34
415.56	234.90
415.94	235.44
416.31	236.06
416.68	236.71
417.06	237.40
417.43	238.08
417.81	238.85
418.18	239.59
418.55	240.44
418.93	241.31
419.30	242.23
419.67	243.16
420.04	244.13
420.42	245.17
420.79	246.36
421.16	247.50
421.54	248.72
421.91	249.94
422.28	251.20
422.66	252.53
423.03	253.87
423.40	255.19
423.77	256.64
424.15	258.10
424.52	259.58
424.89	261.22
425.26	262.80
425.64	264.25
426.01	265.86
426.38	267.50
426.75	269.14
427.13	270.81
427.50	272.64
427.87	274.51
428.24	276.31
428.61	278.03
428.99	279.97
429.36	282.04
429.73	284.08
430.10	286.10
430.47	288.12
430.85	290.18
431.22	292.41
431.59	294.75
431.96	296.98
432.33	299.44
432.70	301.81
433.08	304.57
433.45	307.19
433.82	309.81
434.19	312.68
434.56	315.43
434.93	318.06
435.30	320.64
435.68	323.48
436.05	326.27
436.42	329.05
436.79	331.58
437.16	334.26
437.53	337.07
437.90	339.79
438.27	342.55
438.64	345.37
439.01	347.91
439.38	350.09
439.75	352.18
440.13	354.60
440.50	356.86
440.87	358.69
441.24	360.58
441.61	362.64
441.98	364.13
442.35	365.95
442.72	367.80
443.09	369.57
443.46	370.54
443.83	371.15
444.20	371.66
444.57	372.47
444.94	372.71
445.31	373.03
445.68	373.44
446.05	373.48
446.42	373.11
446.79	372.71
447.16	372.29
447.53	372.00
447.90	370.88
448.27	369.75
448.64	368.18
449.01	367.08
449.37	365.15
449.74	363.22
450.11	361.01
450.48	358.58
450.85	356.12
451.22	353.97
451.59	351.93
451.96	349.98
452.33	347.36
452.70	345.05
453.07	342.26
453.43	339.34
453.80	336.57
454.17	333.95
454.54	331.41
454.91	328.73
455.28	326.04
455.65	323.57
456.02	321.14
456.38	318.99
456.75	316.36
457.12	314.13
457.49	311.95
457.86	309.79
458.23	307.96
458.59	305.91
458.96	303.90
459.33	302.09
459.70	300.25
460.07	298.84
460.43	297.15
460.80	295.54
461.17	294.18
461.54	292.73
461.91	291.31
462.27	289.89
462.64	288.62
463.01	287.33
463.38	286.06
463.74	284.75
464.11	283.62
464.48	282.64
464.85	281.57
465.21	280.73
465.58	279.85
465.95	278.79
466.32	277.92
466.68	276.99
467.05	276.08
467.42	275.21
467.78	274.27
468.15	273.42
468.52	272.76
468.88	271.88
469.25	271.12
469.62	270.51
469.98	269.88
470.35	269.29
470.72	268.70
471.08	268.07
471.45	267.52
471.82	267.03
472.18	266.42
472.55	266.00
472.92	265.53
473.28	265.07
473.65	264.59
474.02	264.14
474.38	263.80
474.75	263.50
475.11	263.16
475.48	262.90
475.85	262.66
476.21	262.45
476.58	262.31
476.94	262.18
477.31	262.02
477.67	261.84
478.04	261.73
478.41	261.67
478.77	261.68
479.14	261.63
479.50	261.63
479.87	261.72
480.23	261.79
480.60	261.88
480.96	261.96
481.33	262.19
481.69	262.39
482.06	262.64
482.42	262.87
482.79	263.13
483.15	263.44
483.52	263.85
483.88	264.19
484.25	264.57
484.61	265.03
484.98	265.49
485.34	266.07
485.71	266.65
486.07	267.24
486.44	267.82
486.80	268.52
487.17	269.24
487.53	270.03
487.90	270.86
488.26	271.78
488.62	272.79
488.99	273.77
489.35	274.82
489.72	275.94
490.08	277.13
490.44	278.38
490.81	279.73
491.17	281.09
491.54	282.55
491.90	284.07
492.26	285.66
492.63	287.35
492.99	289.11
493.36	290.98
493.72	293.04
494.08	295.17
494.45	297.44
494.81	299.79
495.17	302.20
495.54	304.76
495.90	307.42
496.26	310.17
496.63	313.11
496.99	316.21
497.35	319.41
497.72	322.79
498.08	326.28
498.44	329.95
498.80	333.85
499.17	337.91
499.53	342.12
499.89	346.51
500.26	351.03
500.62	355.70
500.98	360.71
501.34	365.78
501.71	371.10
502.07	376.51
502.43	382.14
502.79	388.01
503.16	394.11
503.52	400.40
503.88	406.81
504.24	413.43
504.60	420.27
504.97	427.43
505.33	434.67
505.69	442.44
506.05	450.21
506.41	458.06
506.78	466.29
507.14	474.70
507.50	483.38
507.86	492.43
508.22	501.59
508.59	510.76
508.95	520.32
509.31	530.08
509.67	540.11
510.03	550.37
510.39	560.93
510.75	571.70
511.12	582.63
511.48	593.92
511.84	605.31
512.20	616.89
512.56	628.72
512.92	640.95
513.28	653.21
513.64	665.57
514.00	678.25
514.37	691.06
514.73	704.08
515.09	717.03
515.45	730.20
515.81	743.77
516.17	757.62
516.53	771.61
516.89	785.79
517.25	799.88
517.61	814.26
517.97	828.58
518.33	842.88
518.69	857.41
519.05	872.30
519.41	887.39
519.77	902.78
520.13	918.17
520.49	933.48
520.85	948.77
521.21	964.49
521.57	980.57
521.93	996.21
522.29	1012.44
522.65	1028.60
523.01	1044.70
523.37	1060.56
523.73	1076.64
524.09	1092.63
524.45	1108.69
524.81	1125.20
525.17	1141.75
525.53	1158.48
525.89	1175.24
526.25	1192.06
526.61	1208.19
526.97	1224.76
527.33	1241.05
527.68	1257.48
528.04	1273.73
528.40	1290.15
528.76	1307.01
529.12	1323.48
529.48	1340.23
529.84	1356.02
530.20	1372.41
530.56	1389.19
530.91	1406.52
531.27	1423.04
531.63	1439.31
531.99	1455.75
532.35	1471.58
532.71	1487.38
533.07	1503.48
533.42	1519.32
533.78	1535.15
534.14	1551.27
534.50	1566.49
534.86	1582.20
535.21	1597.22
535.57	1613.03
535.93	1628.37
536.29	1642.94
536.65	1657.75
537.00	1672.34
537.36	1687.47
537.72	1701.87
538.08	1716.17
538.44	1729.81
538.79	1743.66
539.15	1757.07
539.51	1770.67
539.87	1784.83
540.22	1798.35
540.58	1811.93
540.94	1824.93
541.29	1837.64
541.65	1850.21
542.01	1863.21
542.37	1875.35
542.72	1887.58
543.08	1899.15
543.44	1911.37
543.79	1922.53
544.15	1933.40
544.51	1944.78
544.87	1955.63
545.22	1966.35
545.58	1976.46
545.94	1985.97
546.29	1995.68
546.65	2005.57
547.01	2014.77
547.36	2023.34
547.72	2031.76
548.07	2039.56
548.43	2047.62
548.79	2055.52
549.14	2063.01
549.50	2070.18
549.86	2077.68
550.21	2085.01
550.57	2092.18
550.92	2098.68
551.28	2105.68
551.64	2112.73
551.99	2119.14
552.35	2125.23
552.70	2131.25
553.06	2137.13
553.41	2143.48
553.77	2149.43
554.13	2155.38
554.48	2161.43
554.84	2167.04
555.19	2172.29
555.55	2177.52
555.90	2182.00
556.26	2186.87
556.61	2191.49
556.97	2195.92
557.32	2200.15
557.68	2204.27
558.03	2208.55
558.39	2212.25
558.74	2216.86
559.10	2220.79
559.45	2224.46
559.81	2228.72
560.16	2232.66
560.52	2235.95
560.87	2239.40
561.23	2242.08
561.58	2245.13
561.94	2247.56
562.29	2249.77
562.64	2252.44
563.00	2254.93
563.35	2258.42
563.71	2261.69
564.06	2264.96
564.42	2267.85
564.77	2270.54
565.12	2272.89
565.48	2274.89
565.83	2276.83
566.19	2278.14
566.54	2278.93
566.89	2280.09
567.25	2280.73
567.60	2282.07
567.96	2283.98
568.31	2284.76
568.66	2285.98
569.02	2286.60
569.37	2287.04
569.72	2288.03
570.08	2288.29
570.43	2288.45
570.78	2288.00
571.14	2286.41
571.49	2285.09
571.84	2284.77
572.20	2283.67
572.55	2282.68
572.90	2281.14
573.26	2279.87
573.61	2278.30
573.96	2276.76
574.31	2273.93
574.67	2271.16
575.02	2267.58
575.37	2264.16
575.72	2260.52
576.08	2257.27
576.43	2254.10
576.78	2250.67
577.13	2247.52
577.49	2244.55
577.84	2241.17
578.19	2237.64
578.54	2234.35
578.90	2230.41
579.25	2224.96
579.60	2220.05
579.95	2215.16
580.30	2210.20
580.66	2205.07
581.01	2200.11
581.36	2195.32
581.71	2191.42
582.06	2187.10
582.42	2182.78
582.77	2177.77
583.12	2173.29
583.47	2168.66
583.82	2163.75
584.17	2158.58
584.53	2153.30
584.88	2147.76
585.23	2142.01
585.58	2136.48
585.93	2130.99
586.28	2126.15
586.63	2121.21
586.98	2116.29
587.34	2111.66
587.69	2106.78
588.04	2101.63
588.39	2096.20
588.74	2089.73
589.09	2083.60
589.44	2076.96
589.79	2070.84
590.14	2065.30
590.49	2058.76
590.84	2052.41
591.19	2046.38
591.54	2040.00
591.89	2032.71
592.25	2026.07
592.60	2018.98
592.95	2011.53
593.30	2004.19
593.65	1996.63
594.00	1989.69
594.35	1982.56
594.70	1974.63
595.05	1967.67
595.40	1960.40
595.75	1952.89
596.10	1946.82
596.45	1940.18
596.80	1934.10
597.15	1927.78
597.50	1920.68
597.85	1914.38
598.19	1907.82
598.54	1900.87
598.89	1894.36
599.24	1888.51
599.59	1881.87
599.94	1875.63
600.29	1869.47
600.64	1862.87
600.99	1855.65
601.34	1848.94
601.69	1841.94
602.04	1835.12
602.39	1827.81
602.74	1821.13
603.08	1814.46
603.43	1807.78
603.78	1800.41
604.13	1793.06
604.48	1785.88
604.83	1779.10
605.18	1772.23
605.53	1764.45
605.87	1756.54
606.22	1749.31
606.57	1741.47
606.92	1734.19
607.27	1727.28
607.62	1720.38
607.96	1713.18
608.31	1706.58
608.66	1699.10
609.01	1691.69
609.36	1684.17
609.70	1676.16
610.05	1668.27
610.40	1660.58
610.75	1652.20
611.10	1644.76
611.44	1636.48
611.79	1628.48
612.14	1619.81
612.49	1610.73
612.83	1602.29
613.18	1594.10
613.53	1586.04
613.88	1577.58
614.22	1569.32
614.57	1560.63
614.92	1552.57
615.27	1545.23
615.61	1537.00
615.96	1528.93
616.31	1521.27
616.65	1513.97
617.00	1506.52
617.35	1498.76
617.70	1490.58
618.04	1482.29
618.39	1474.01
618.74	1466.54
619.08	1458.21
619.43	1450.58
619.78	1443.66
620.12	1436.52
620.47	1429.00
620.82	1420.81
621.16	1413.45
621.51	1405.87
621.85	1398.27
622.20	1389.84
622.55	1381.47
622.89	1373.64
623.24	1366.03
623.59	1358.71
623.93	1351.18
624.28	1343.95
624.62	1336.43
624.97	1329.27
625.32	1322.51
625.66	1315.60
626.01	1308.40
626.35	1301.02
626.70	1293.41
627.04	1285.69
627.39	1277.94
627.73	1270.57
628.08	1263.66
628.43	1256.28
628.77	1248.93
629.12	1241.41
629.46	1234.30
629.81	1226.77
630.15	1219.52
630.50	1212.16
630.84	1203.91
631.19	1195.86
631.53	1188.33
631.88	1180.85
632.22	1173.28
632.57	1165.87
632.91	1158.25
633.26	1150.84
633.60	1143.44
633.95	1136.40
634.29	1129.38
634.64	1122.78
634.98	1115.47
635.32	1108.31
635.67	1101.79
636.01	1095.13
636.36	1088.35
636.70	1081.70
637.05	1075.22
637.39	1068.87
637.73	1062.32
638.08	1056.46
638.42	1050.53
638.77	1044.17
639.11	1037.64
639.45	1031.17
639.80	1024.56
640.14	1018.18
640.49	1011.71
640.83	1005.44
641.17	999.16
641.52	992.91
641.86	986.34
642.20	980.50
642.55	974.20
642.89	967.66
643.23	961.11
643.58	955.40
643.92	949.28
644.26	943.22
644.61	937.03
644.95	931.06
645.29	924.54
645.64	917.79
645.98	911.35
646.32	905.42
646.66	899.47
647.01	893.75
647.35	888.08
647.69	882.11
648.04	876.56
648.38	870.75
648.72	864.72
649.06	858.68
649.41	852.79
649.75	846.86
650.09	840.96
650.43	835.16
650.78	829.00
651.12	823.04
651.46	817.39
651.80	811.77
652.14	806.34
652.49	800.91
652.83	795.87
653.17	790.25
653.51	784.57
653.85	779.19
654.20	773.54
654.54	767.45
654.88	761.79
655.22	755.86
655.56	750.10
655.90	744.58
656.25	739.40
656.59	734.06
656.93	728.99
657.27	723.75
657.61	718.42
657.95	713.25
658.29	708.17
658.64	702.91
658.98	697.52
659.32	692.12
659.66	686.99
660.00	681.72
660.34	676.75
660.68	671.84
661.02	666.75
661.36	662.03
661.70	657.60
662.05	653.25
662.39	648.92
662.73	644.52
663.07	640.20
663.41	635.75
663.75	631.28
664.09	626.75
664.43	622.43
664.77	618.27
665.11	614.05
665.45	609.96
665.79	605.82
666.13	601.80
666.47	597.64
666.81	593.42
667.15	589.20
667.49	585.29
667.83	581.40
668.17	577.48
668.51	573.36
668.85	569.33
669.19	565.48
669.53	561.74
669.87	557.87
670.21	554.06
670.55	550.42
670.89	546.97
671.23	543.47
671.57	539.91
671.91	536.36
672.25	532.90
672.58	529.39
672.92	526.00
673.26	522.74
673.60	519.61
673.94	516.52
674.28	513.62
674.62	510.71
674.96	507.63
675.30	504.72
675.64	501.83
675.97	499.02
676.31	496.15
676.65	493.19
676.99	490.51
677.33	487.74
677.67	484.96
678.01	481.92
678.34	478.98
678.68	476.08
679.02	473.27
679.36	470.46
679.70	467.73
680.04	465.00
680.37	462.15
680.71	459.35
681.05	456.73
681.39	453.98
681.73	451.27
682.06	448.77
682.40	446.23
682.74	443.67
683.08	441.12
683.42	438.52
683.75	436.04
684.09	433.47
684.43	431.00
684.77	428.45
685.10	426.11
685.44	423.74
685.78	421.46
686.12	419.27
686.45	417.00
686.79	414.69
687.13	412.50
687.46	410.31
687.80	408.12
688.14	405.84
688.48	403.86
688.81	401.64
689.15	399.55
689.49	397.35
689.82	395.29
690.16	393.23
690.50	391.27
690.83	389.32
691.17	387.28
691.51	385.34
691.84	383.51
692.18	381.57
692.52	379.62
692.85	377.68
693.19	375.77
693.52	373.90
693.86	372.10
694.20	370.33
694.53	368.55
694.87	366.74
695.21	364.98
695.54	363.12
695.88	361.34
696.21	359.58
696.55	357.91
696.88	356.19
697.22	354.51
697.56	352.84
697.89	351.16
698.23	349.58
698.56	348.01
698.90	346.45
699.23	344.83
699.57	343.27
699.90	341.71
700.24	340.11
700.58	338.58
700.91	337.06
701.25	335.56
701.58	334.20
701.92	332.86
702.25	331.50
702.59	330.12
702.92	328.85
703.26	327.52
703.59	326.26
703.93	325.09
704.26	323.88
704.60	322.58
704.93	321.31
705.26	320.05
705.60	318.84
705.93	317.69
706.27	316.68
706.60	315.66
706.94	314.63
707.27	313.54
707.61	312.51
707.94	311.49
708.27	310.45
708.61	309.36
708.94	308.31
709.28	307.33
709.61	306.37
709.94	305.44
710.28	304.43
710.61	303.45
710.95	302.36
711.28	301.43
711.61	300.49
711.95	299.59
712.28	298.69
712.61	297.72
712.95	296.76
713.28	295.86
713.61	294.95
713.95	294.06
714.28	293.21
714.61	292.32
714.95	291.49
715.28	290.58
715.61	289.68
715.95	288.83
716.28	287.99
716.61	287.15
716.95	286.30
717.28	285.54
717.61	284.74
717.94	284.01
718.28	283.23
718.61	282.54
718.94	281.83
719.27	281.13
719.61	280.47
719.94	279.78
720.27	279.05
720.60	278.37
720.94	277.78
721.27	277.17
721.60	276.58
721.93	275.95
722.27	275.46
722.60	274.92
722.93	274.35
723.26	273.77
723.59	273.25
723.93	272.69
724.26	272.14
724.59	271.62
724.92	271.10
725.25	270.59
725.59	270.06
725.92	269.56
726.25	269.05
726.58	268.55
726.91	268.10
727.24	267.63
727.57	267.18
727.91	266.65
728.24	266.20
728.57	265.73
728.90	265.27
729.23	264.73
729.56	264.29
729.89	263.84
730.22	263.38
730.55	262.90
730.89	262.48
731.22	262.04
731.55	261.62
731.88	261.19
732.21	260.77
732.54	260.32
732.87	259.89
733.20	259.46
733.53	259.10
733.86	258.68
734.19	258.28
734.52	257.88
734.85	257.57
735.18	257.13
735.51	256.75
735.84	256.39
736.17	256.05
736.50	255.63
736.83	255.39
737.16	255.05
737.49	254.69
737.82	254.36
738.15	254.06
738.48	253.76
738.81	253.42
739.14	253.03
739.47	252.70
739.80	252.40
740.13	252.12
740.46	251.76
740.79	251.41
741.12	251.10
741.45	250.78
741.78	250.42
742.11	250.14
742.44	249.83
742.77	249.52
743.10	249.22
743.43	248.95
743.75	248.56
744.08	248.40
744.41	248.12
744.74	247.82
745.07	247.52
745.40	247.24
745.73	247.00
746.06	246.79
746.39	246.53
746.71	246.26
747.04	246.00
747.37	245.78
747.70	245.57
748.03	245.31
748.36	245.07
748.68	244.84
749.01	244.61
749.34	244.38
749.67	244.19
750.00	243.99
750.33	243.85
750.65	243.62
750.98	243.33
751.31	243.10
751.64	242.88
751.97	242.72
752.29	242.52
752.62	242.25
752.95	242.04
753.28	241.83
753.60	241.63
753.93	241.46
754.26	241.27
754.59	241.05
754.91	240.87
755.24	240.70
755.57	240.48
755.90	240.32
756.22	240.14
756.55	239.93
756.88	239.73
757.20	239.50
757.53	239.33
757.86	239.14
758.19	239.00
758.51	238.83
758.84	238.61
759.17	238.42
759.49	238.30
759.82	238.16
760.15	238.01
760.47	237.90
760.80	237.70
761.13	237.59
761.45	237.43
761.78	237.28
762.11	237.13
762.43	237.01
762.76	236.87
763.08	236.74
763.41	236.63
763.74	236.49
764.06	236.34
764.39	236.20
764.71	236.06
765.04	235.93
765.37	235.81
765.69	235.64
766.02	235.51
766.34	235.37
766.67	235.23
767.00	235.14
767.32	235.03
767.65	234.97
767.97	234.80
768.30	234.71
768.62	234.57
768.95	234.44
769.27	234.30
769.60	234.21
769.92	234.07
770.25	233.92
770.57	233.78
770.90	233.68
771.22	233.58
771.55	233.44
771.87	233.40
772.20	233.29
772.52	233.32
772.85	233.35
773.17	233.27
773.50	233.17
773.82	233.07
774.15	232.98
774.47	232.83
774.80	232.73
775.12	232.65
775.45	232.57
775.77	232.52
776.09	232.47
776.42	232.38
776.74	232.33
777.07	232.25
777.39	232.19
777.72	232.12
778.04	232.03
778.36	232.01
778.69	231.85
779.01	231.79
779.33	231.64
779.66	231.46
779.98	231.37
780.31	231.32
780.63	231.28
780.95	231.20
781.28	231.14
781.60	231.08
781.92	231.01
782.25	230.93
782.57	230.88
782.89	230.80
783.22	230.72
783.54	230.66
783.86	230.60
784.19	230.53
784.51	230.52
784.83	230.47
785.16	230.40
785.48	230.39
785.80	230.32
786.12	230.28
786.45	230.21
786.77	230.19
787.09	230.12
787.42	230.01
787.74	229.96
788.06	229.91
788.38	229.87
788.71	229.81
789.03	229.82
789.35	229.77
789.67	229.70
789.99	229.68
790.32	229.62
790.64	229.61
790.96	229.62
791.28	229.55
791.61	229.52
791.93	229.49
792.25	229.44
792.57	229.50
792.89	229.43
793.21	229.41
793.54	229.37
793.86	229.32
794.18	229.32
794.50	229.28
794.82	229.26
795.14	229.26
795.47	229.26
795.79	229.22
796.11	229.17
796.43	229.14
796.75	229.12
797.07	229.11
797.39	229.06
797.71	229.01
798.04	229.00
798.36	228.98
798.68	228.96
799.00	228.95
799.32	228.88
799.64	228.89
799.96	228.86
800.28	228.85
800.60	228.82
800.92	228.82
801.24	228.79
801.56	228.78
801.89	228.71
802.21	228.67
802.53	228.60
802.85	228.62
803.17	228.68
803.49	228.62
803.81	228.57
804.13	228.56
804.45	228.52
804.77	228.47
805.09	228.45
805.41	228.39
805.73	228.34
806.05	228.25
806.37	228.22
806.69	228.21
807.01	228.19
807.33	228.19
807.65	228.09
807.97	228.10
808.28	228.04
808.60	228.00
808.92	227.98
809.24	228.05
809.56	227.98
809.88	227.94
810.20	227.91
810.52	227.94
810.84	227.92
811.16	227.88
811.48	227.86
811.80	227.83
812.12	227.82
812.43	227.78
812.75	227.80
813.07	227.76
813.39	227.73
813.71	227.68
814.03	227.65
814.35	227.67
814.67	227.59
814.98	227.57
815.30	227.58
815.62	227.56
815.94	227.48
816.26	227.50
816.58	227.43
816.89	227.41
817.21	227.34
817.53	227.30
817.85	227.29
818.17	227.23
818.48	227.19
818.80	227.20
819.12	227.20
819.44	227.15
819.76	227.11
820.07	227.08
820.39	227.08
820.71	227.06
821.03	227.02
821.34	227.01
821.66	227.01
821.98	226.98
822.30	226.94
822.61	226.97
822.93	226.92
823.25	226.89
823.57	226.90
823.88	226.93
824.20	226.90
824.52	226.91
824.83	226.93
825.15	226.92
825.47	226.89
825.79	226.88
826.10	226.83
826.42	226.84
826.74	226.85
827.05	226.78
827.37	226.73
827.69	226.74
828.00	226.73
828.32	226.71
828.64	226.71
828.95	226.75
829.27	226.68
829.58	226.66
829.90	226.67
830.22	226.63
830.53	226.54
830.85	226.52
831.17	226.46
831.48	226.45
831.80	226.40
832.11	226.39
832.43	226.36
832.75	226.35
833.06	226.39
833.38	226.35
833.69	226.38
834.01	226.39
834.32	226.37
834.64	226.36
834.96	226.34
835.27	226.34
835.59	226.29
835.90	226.29
836.22	226.28
836.53	226.27
836.85	226.27
837.16	226.40
837.48	226.38
837.79	226.42
838.11	226.40
838.42	226.44
838.74	226.43
839.05	226.41
839.37	226.43
839.68	226.37
840.00	226.36
840.31	226.39
840.63	226.38
840.94	226.35
841.26	226.37
841.57	226.38
841.88	226.36
842.20	226.36
842.51	226.32
842.83	226.32
843.14	226.38
843.46	226.37
843.77	226.29
844.08	226.31
844.40	226.29
844.71	226.26
845.03	226.24
845.34	226.26
845.65	226.26
845.97	226.26
846.28	226.25
846.60	226.25
846.91	226.21
847.22	226.22
847.54	226.23
847.85	226.23
848.16	226.23
848.48	226.22
848.79	226.25
849.10	226.28
849.42	226.29
849.73	226.23
850.04	226.20
850.36	226.19
850.67	226.20
850.98	226.19
851.30	226.22
851.61	226.21
851.92	226.15
852.23	226.21
852.55	226.21
852.86	226.19
853.17	226.22
853.49	226.21
853.80	226.21
854.11	226.22
854.42	226.20
854.74	226.19
855.05	226.19
855.36	226.12
855.67	226.11
855.99	226.10
856.30	226.20
856.61	226.22
856.92	226.23
857.23	226.22
857.55	226.20
857.86	226.17
858.17	226.17
858.48	226.19
858.79	226.19
859.11	226.20
859.42	226.22
859.73	226.17
860.04	226.19
860.35	226.17
860.66	226.13
860.98	226.14
861.29	226.15
861.60	226.12
861.91	226.14
862.22	226.13
862.53	226.13
862.84	226.00
863.16	226.02
863.47	225.95
863.78	225.96
864.09	225.97
864.40	225.97
864.71	225.98
865.02	225.98
865.33	225.92
865.64	225.89
865.95	225.89
866.27	225.97
866.58	225.94
866.89	225.93
867.20	225.94
867.51	225.95
867.82	225.95
868.13	225.97
868.44	225.96
868.75	225.96
869.06	225.96
869.37	225.99
869.68	225.95
869.99	225.99
870.30	225.96
870.61	225.96
870.92	225.95
871.23	225.93
871.54	225.94
871.85	225.95
872.16	225.95
872.47	225.90
872.78	225.82
873.09	225.85
873.40	225.83
873.71	225.82
874.02	225.78
874.33	225.74
874.64	225.74
874.95	225.73
875.26	225.71
875.56	225.69
875.87	225.67
876.18	225.66
876.49	225.74
876.80	225.73
877.11	225.73
877.42	225.72
877.73	225.71
878.04	225.67
878.35	225.66
878.66	225.67
878.96	225.69
879.27	225.70
879.58	225.68
879.89	225.67
880.20	225.68
880.51	225.69
880.82	225.68
881.12	225.69
881.43	225.68
881.74	225.65
882.05	225.66
882.36	225.64
882.67	225.62
882.97	225.53
883.28	225.55
883.59	225.51
883.90	225.50
884.21	225.53
884.51	225.54
884.82	225.55
885.13	225.53
885.44	225.51
885.74	225.53
886.05	225.52
886.36	225.53
886.67	225.51
886.98	225.54
887.28	225.56
887.59	225.53
887.90	225.53
888.20	225.55
888.51	225.57
888.82	225.55
889.13	225.57
889.43	225.63
889.74	225.61
890.05	225.65
890.35	225.68
890.66	225.65
890.97	225.62
891.28	225.60
891.58	225.61
891.89	225.64
892.20	225.57
892.50	225.57
892.81	225.55
893.12	225.54
893.42	225.51
893.73	225.51
894.04	225.51
894.34	225.52
894.65	225.53
894.95	225.52
895.26	225.57
895.57	225.62
895.87	225.54
896.18	225.56
896.48	225.53
896.79	225.50
897.10	225.51
897.40	225.53
897.71	225.55
898.01	225.56
898.32	225.56
898.63	225.60
898.93	225.59
899.24	225.63
899.54	225.60
899.85	225.60
900.15	225.59
900.46	225.61
900.76	225.62
901.07	225.62
901.38	225.58
901.68	225.59
901.99	225.54
902.29	225.52
902.60	225.52
902.90	225.54
903.21	225.55
903.51	225.54
903.82	225.57
904.12	225.57
904.43	225.50
904.73	225.51
905.03	225.48
905.34	225.58
905.64	225.56
905.95	225.60
906.25	225.59
906.56	225.59
906.86	225.57
907.17	225.56
907.47	225.57
907.77	225.57
908.08	225.56
908.38	225.56
908.69	225.61
908.99	225.63
909.30	225.62
909.60	225.62
909.90	225.62
910.21	225.62
910.51	225.60
910.81	225.68
911.12	225.68
911.42	225.71
911.73	225.58
912.03	225.59
912.33	225.59
912.64	225.59
912.94	225.60
913.24	225.58
913.55	225.57
913.85	225.56
914.15	225.58
914.46	225.55
914.76	225.57
915.06	225.56
915.37	225.55
915.67	225.56
915.97	225.58
916.27	225.56
916.58	225.54
916.88	225.53
917.18	225.50
917.49	225.56
917.79	225.54
918.09	225.59
918.39	225.61
918.70	225.59
919.00	225.58
919.30	225.62
919.60	225.61
919.91	225.60
920.21	225.62
920.51	225.59
920.81	225.59
921.12	225.55
921.42	225.53
921.72	225.52
922.02	225.47
922.32	225.48
922.63	225.49
922.93	225.53
923.23	225.55
923.53	225.53
923.83	225.48
924.13	225.49
924.44	225.45
924.74	225.46
925.04	225.48
925.34	225.47
925.64	225.41
925.94	225.44
926.24	225.48
926.55	225.44
926.85	225.45
927.15	225.45
927.45	225.49
927.75	225.46
928.05	225.43
928.35	225.44
928.65	225.45
928.95	225.43
929.26	225.40
929.56	225.40
929.86	225.39
930.16	225.37
930.46	225.38
930.76	225.39
931.06	225.35
931.36	225.33
931.66	225.35
931.96	225.38
932.26	225.36
932.56	225.33
932.86	225.36
933.16	225.37
933.46	225.34
933.76	225.30
934.06	225.35
934.36	225.43
934.66	225.42
934.96	225.38
935.26	225.38
935.56	225.36
935.86	225.32
936.16	225.32
936.46	225.33
936.76	225.29
937.06	225.29
937.36	225.31
937.66	225.32
937.96	225.29
938.26	225.23
938.56	225.23
938.86	225.20
939.16	225.22
939.46	225.22
939.76	225.24
940.06	225.27
940.35	225.23
940.65	225.17
940.95	225.18
941.25	225.18
941.55	225.19
941.85	225.21
942.15	225.26
942.45	225.30
942.75	225.31
943.04	225.33
943.34	225.35
943.64	225.34
943.94	225.29
944.24	225.31
944.54	225.35
944.84	225.39
945.13	225.41
945.43	225.40
945.73	225.41
946.03	225.42
946.33	225.40
946.62	225.39
946.92	225.39
947.22	225.40
947.52	225.43
947.82	225.43
948.11	225.45
948.41	225.43
948.71	225.38
949.01	225.39
949.31	225.41
949.60	225.41
949.90	225.44
950.20	225.48
950.50	225.52
950.79	225.52
951.09	225.50
951.39	225.49
951.69	225.49
951.98	225.53
952.28	225.52
952.58	225.53
952.87	225.53
953.17	225.56
953.47	225.55
953.76	225.55
954.06	225.53
954.36	225.50
954.66	225.49
954.95	225.51
955.25	225.49
955.55	225.48
955.84	225.44
956.14	225.43
956.44	225.42
956.73	225.41
957.03	225.42
957.32	225.42
957.62	225.43
957.92	225.43
958.21	225.41
958.51	225.49
958.81	225.53
959.10	225.53
959.40	225.53
959.69	225.56
959.99	225.57
960.29	225.57
960.58	225.56
960.88	225.59
961.17	225.58
961.47	225.57
961.76	225.54
962.06	225.56
962.36	225.57
962.65	225.55
962.95	225.54
963.24	225.50
963.54	225.51
963.83	225.54
964.13	225.51
964.42	225.45
964.72	225.40
965.01	225.38
965.31	225.38
965.60	225.35
965.90	225.39
966.19	225.36
966.49	225.38
966.78	225.38
967.08	225.37
967.37	225.38
967.67	225.37
967.96	225.38
968.26	225.42
968.55	225.43
968.85	225.39
969.14	225.34
969.43	225.38
969.73	225.35
970.02	225.29
970.32	225.32
970.61	225.29
970.91	225.24
971.20	225.24
971.49	225.24
971.79	225.26
972.08	225.20
972.38	225.21
972.67	225.21
972.96	225.23
973.26	225.21
973.55	225.23
973.85	225.21
974.14	225.21
974.43	225.19
974.73	225.13
975.02	225.17
975.31	225.21
975.61	225.21
975.90	225.22
976.19	225.24
976.49	225.25
976.78	225.29
977.07	225.33
977.37	225.33
977.66	225.35
977.95	225.35
978.24	225.34
978.54	225.36
978.83	225.34
979.12	225.34
979.42	225.36
979.71	225.35
980.00	225.38
980.29	225.39
980.59	225.39
980.88	225.44
981.17	225.45
981.46	225.44
981.76	225.44
982.05	225.46
982.34	225.46
982.63	225.44
982.93	225.46
983.22	225.48
983.51	225.48
983.80	225.51
984.09	225.53
984.39	225.55
984.68	225.54
984.97	225.53
985.26	225.52
985.55	225.54
985.85	225.54
986.14	225.55
986.43	225.59
986.72	225.58
987.01	225.55
987.30	225.53
987.59	225.54
987.89	225.54
988.18	225.55
988.47	225.54
988.76	225.54
989.05	225.54
989.34	225.53
989.63	225.53
989.92	225.47
990.22	225.44
990.51	225.43
990.80	225.41
991.09	225.41
991.38	225.41
991.67	225.39
991.96	225.35
992.25	225.34
992.54	225.29
992.83	225.29
993.12	225.28
993.41	225.30
993.70	225.32
993.99	225.32
994.28	225.31
994.58	225.33
994.87	225.32
995.16	225.30
995.45	225.27
995.74	225.23
996.03	225.26
996.32	225.28
996.61	225.30
996.90	225.31
997.19	225.32
997.48	225.29
997.77	225.25
998.06	225.27
998.34	225.27
998.63	225.25
998.92	225.24
999.21	225.24
999.50	225.26
999.79	225.22
1000.08	225.21
1000.37	225.18
1000.66	225.16
1000.95	225.20
1001.24	225.21
1001.53	225.23
1001.82	225.22
1002.11	225.18
1002.40	225.15
1002.68	225.15
1002.97	225.19
1003.26	225.14
1003.55	225.15
1003.84	225.15
1004.13	225.15
1004.42	225.15
1004.71	225.17
1004.99	225.16
1005.28	225.17
1005.57	225.13
1005.86	225.12
1006.15	225.11
1006.44	225.09
1006.72	225.07
1007.01	225.02
1007.30	224.98
1007.59	224.96
1007.88	224.98
1008.17	225.00
1008.45	225.00
1008.74	224.98
1009.03	224.94
1009.32	224.94
1009.60	224.98
1009.89	224.97
1010.18	224.93
1010.47	224.91
1010.76	224.89
1011.04	224.90
1011.33	224.92
1011.62	224.92
1011.91	224.90
1012.19	224.91
1012.48	224.90
1012.77	224.92
1013.05	225.02
1013.34	225.02
1013.63	225.02
1013.92	225.02
1014.20	225.01
1014.49	225.01
1014.78	225.02
1015.06	225.02
1015.35	225.05
1015.64	225.04
1015.92	225.06
1016.21	225.07
1016.50	225.07
1016.78	225.10
1017.07	225.11
1017.36	225.11
1017.64	225.10
1017.93	225.12
1018.22	225.12
1018.50	225.11
1018.79	225.12
1019.08	225.04
1019.36	225.06
1019.65	225.04
1019.93	225.09
1020.22	225.12
1020.51	225.17
1020.79	225.16
1021.08	224.82
1021.36	224.40
1021.65	225.25
1021.94	225.00
1022.22	225.14
1022.51	224.68
1022.79	226.26
1023.08	225.62
1023.36	226.36
1023.65	224.99
>>>>>End Processed Spectral Data<<<<<
