SpectraSuite Data File
++++++++++++++++++++++++++++++++++++
Date: Fri Feb 01 17:00:41 EST 2013
User: group
Dark Spectrum Present: No
Reference Spectrum Present: No
Number of Sampled Component Spectra: 1
Spectrometers: USB2E7196
Integration Time (usec): 35000 (USB2E7196)
Spectra Averaged: 100 (USB2E7196)
Boxcar Smoothing: 10 (USB2E7196)
Correct for Electrical Dark: No (USB2E7196)
Strobe/Lamp Enabled: No (USB2E7196)
Correct for Detector Non-linearity: No (USB2E7196)
Correct for Stray Light: No (USB2E7196)
Number of Pixels in Processed Spectrum: 2048
>>>>>Begin Processed Spectral Data<<<<<
339.09	0.00
339.48	212.97
339.86	214.27
340.24	215.66
340.63	217.87
341.01	219.92
341.39	219.55
341.78	221.46
342.16	222.06
342.54	222.62
342.93	211.28
343.31	221.98
343.69	222.51
344.07	223.00
344.46	223.40
344.84	223.72
345.22	223.96
345.60	224.22
345.99	224.39
346.37	224.56
346.75	224.68
347.13	224.76
347.52	224.83
347.90	224.90
348.28	224.93
348.66	224.97
349.05	224.98
349.43	225.03
349.81	225.08
350.19	225.16
350.57	225.20
350.96	225.29
351.34	225.38
351.72	225.48
352.10	225.55
352.48	225.66
352.87	225.77
353.25	225.85
353.63	225.91
354.01	226.00
354.39	226.04
354.77	226.12
355.15	226.26
355.54	226.33
355.92	226.39
356.30	226.47
356.68	226.60
357.06	226.69
357.44	226.77
357.82	226.86
358.20	226.91
358.58	227.02
358.97	227.08
359.35	227.14
359.73	227.21
360.11	227.30
360.49	227.35
360.87	227.39
361.25	227.45
361.63	227.55
362.01	227.57
362.39	227.64
362.77	227.67
363.15	227.68
363.53	227.70
363.91	227.73
364.29	227.77
364.67	227.69
365.05	227.75
365.43	227.76
365.81	227.75
366.19	227.80
366.57	227.83
366.95	227.85
367.33	227.86
367.71	227.87
368.09	227.86
368.47	227.84
368.85	227.82
369.23	227.82
369.61	227.76
369.99	227.76
370.37	227.74
370.75	227.81
371.13	227.76
371.51	227.73
371.89	227.70
372.27	227.64
372.65	227.63
373.03	227.58
373.41	227.53
373.78	227.47
374.16	227.39
374.54	227.33
374.92	227.25
375.30	227.17
375.68	227.12
376.06	227.07
376.44	227.01
376.82	226.93
377.19	226.85
377.57	226.80
377.95	226.73
378.33	226.65
378.71	226.51
379.09	226.46
379.47	226.38
379.84	226.31
380.22	226.24
380.60	226.16
380.98	226.09
381.36	226.01
381.73	225.94
382.11	225.91
382.49	225.84
382.87	225.78
383.25	225.71
383.62	225.74
384.00	225.67
384.38	225.62
384.76	225.58
385.13	225.56
385.51	225.52
385.89	225.47
386.27	225.41
386.64	225.37
387.02	225.30
387.40	225.26
387.78	225.21
388.15	225.15
388.53	225.09
388.91	225.06
389.29	225.03
389.66	225.00
390.04	224.94
390.42	224.93
390.79	224.88
391.17	224.85
391.55	224.71
391.92	224.68
392.30	224.68
392.68	224.66
393.05	224.64
393.43	224.59
393.81	224.57
394.18	224.57
394.56	224.59
394.94	224.65
395.31	224.66
395.69	224.69
396.06	224.74
396.44	224.77
396.82	224.76
397.19	224.87
397.57	224.91
397.95	224.94
398.32	224.95
398.70	225.03
399.07	225.11
399.45	225.15
399.82	225.19
400.20	225.22
400.58	225.29
400.95	225.33
401.33	225.41
401.70	225.56
402.08	225.65
402.45	225.71
402.83	225.79
403.20	225.89
403.58	226.02
403.95	226.12
404.33	226.23
404.71	226.37
405.08	226.50
405.46	226.61
405.83	226.77
406.21	226.91
406.58	227.04
406.96	227.17
407.33	227.36
407.70	227.61
408.08	227.86
408.45	228.08
408.83	228.31
409.20	228.52
409.58	228.68
409.95	228.95
410.33	229.23
410.70	229.47
411.08	229.74
411.45	230.04
411.82	230.34
412.20	230.69
412.57	231.09
412.95	231.37
413.32	231.77
413.69	232.18
414.07	232.62
414.44	233.12
414.82	233.61
415.19	234.14
415.56	234.66
415.94	235.21
416.31	235.86
416.68	236.48
417.06	237.21
417.43	237.92
417.81	238.64
418.18	239.40
418.55	240.23
418.93	241.11
419.30	241.98
419.67	242.92
420.04	243.90
420.42	244.84
420.79	246.04
421.16	247.19
421.54	248.33
421.91	249.53
422.28	250.78
422.66	252.12
423.03	253.44
423.40	254.76
423.77	256.13
424.15	257.53
424.52	258.99
424.89	260.59
425.26	262.12
425.64	263.55
426.01	265.14
426.38	266.81
426.75	268.49
427.13	270.17
427.50	271.96
427.87	273.79
428.24	275.69
428.61	277.40
428.99	279.36
429.36	281.44
429.73	283.48
430.10	285.49
430.47	287.54
430.85	289.64
431.22	291.88
431.59	294.25
431.96	296.48
432.33	298.94
432.70	301.26
433.08	304.05
433.45	306.72
433.82	309.30
434.19	312.15
434.56	314.92
434.93	317.58
435.30	320.17
435.68	323.05
436.05	325.85
436.42	328.65
436.79	331.11
437.16	333.79
437.53	336.57
437.90	339.31
438.27	342.02
438.64	344.79
439.01	347.31
439.38	349.54
439.75	351.70
440.13	354.20
440.50	356.52
440.87	358.38
441.24	360.29
441.61	362.45
441.98	363.95
442.35	365.72
442.72	367.56
443.09	369.35
443.46	370.35
443.83	370.97
444.20	371.43
444.57	372.27
444.94	372.56
445.31	372.95
445.68	373.36
446.05	373.42
446.42	373.11
446.79	372.72
447.16	372.32
447.53	372.00
447.90	370.87
448.27	369.75
448.64	368.17
449.01	367.04
449.37	365.05
449.74	363.19
450.11	361.00
450.48	358.55
450.85	356.04
451.22	353.94
451.59	351.96
451.96	350.12
452.33	347.56
452.70	345.24
453.07	342.40
453.43	339.50
453.80	336.79
454.17	334.09
454.54	331.59
454.91	328.85
455.28	326.19
455.65	323.74
456.02	321.35
456.38	319.20
456.75	316.53
457.12	314.35
457.49	312.10
457.86	309.93
458.23	308.13
458.59	306.13
458.96	304.03
459.33	302.17
459.70	300.29
460.07	298.82
460.43	297.13
460.80	295.58
461.17	294.19
461.54	292.72
461.91	291.33
462.27	289.92
462.64	288.71
463.01	287.37
463.38	286.04
463.74	284.66
464.11	283.56
464.48	282.58
464.85	281.48
465.21	280.65
465.58	279.76
465.95	278.65
466.32	277.80
466.68	276.92
467.05	275.99
467.42	275.12
467.78	274.21
468.15	273.35
468.52	272.68
468.88	271.82
469.25	271.04
469.62	270.43
469.98	269.77
470.35	269.14
470.72	268.57
471.08	267.94
471.45	267.42
471.82	266.83
472.18	266.23
472.55	265.85
472.92	265.35
473.28	264.89
473.65	264.49
474.02	264.04
474.38	263.68
474.75	263.40
475.11	263.08
475.48	262.80
475.85	262.60
476.21	262.41
476.58	262.23
476.94	262.11
477.31	261.96
477.67	261.81
478.04	261.72
478.41	261.72
478.77	261.80
479.14	261.74
479.50	261.78
479.87	261.87
480.23	261.93
480.60	261.99
480.96	262.12
481.33	262.32
481.69	262.51
482.06	262.68
482.42	262.91
482.79	263.14
483.15	263.46
483.52	263.82
483.88	264.12
484.25	264.51
484.61	264.95
484.98	265.40
485.34	265.97
485.71	266.56
486.07	267.15
486.44	267.71
486.80	268.43
487.17	269.14
487.53	269.98
487.90	270.83
488.26	271.79
488.62	272.76
488.99	273.73
489.35	274.79
489.72	275.98
490.08	277.16
490.44	278.39
490.81	279.71
491.17	281.06
491.54	282.55
491.90	284.08
492.26	285.69
492.63	287.38
492.99	289.11
493.36	290.99
493.72	292.98
494.08	295.10
494.45	297.33
494.81	299.70
495.17	302.12
495.54	304.69
495.90	307.34
496.26	310.11
496.63	313.09
496.99	316.21
497.35	319.40
497.72	322.77
498.08	326.29
498.44	329.96
498.80	333.87
499.17	337.90
499.53	342.05
499.89	346.42
500.26	350.92
500.62	355.57
500.98	360.49
501.34	365.58
501.71	370.84
502.07	376.23
502.43	381.80
502.79	387.56
503.16	393.53
503.52	399.80
503.88	406.21
504.24	412.76
504.60	419.50
504.97	426.64
505.33	433.89
505.69	441.53
506.05	449.26
506.41	457.07
506.78	465.15
507.14	473.56
507.50	482.17
507.86	491.11
508.22	500.16
508.59	509.31
508.95	518.76
509.31	528.46
509.67	538.47
510.03	548.60
510.39	559.02
510.75	569.73
511.12	580.43
511.48	591.59
511.84	602.91
512.20	614.33
512.56	626.08
512.92	638.11
513.28	650.33
513.64	662.64
514.00	675.14
514.37	687.88
514.73	700.74
515.09	713.58
515.45	726.71
515.81	740.16
516.17	753.87
516.53	767.81
516.89	781.81
517.25	795.79
517.61	810.03
517.97	824.28
518.33	838.43
518.69	853.02
519.05	867.74
519.41	882.64
519.77	897.94
520.13	913.14
520.49	928.14
520.85	943.23
521.21	958.63
521.57	974.59
521.93	990.00
522.29	1006.05
522.65	1022.02
523.01	1037.82
523.37	1053.63
523.73	1069.50
524.09	1085.26
524.45	1101.19
524.81	1117.39
525.17	1133.81
525.53	1150.38
525.89	1166.98
526.25	1183.49
526.61	1199.51
526.97	1215.93
527.33	1231.94
527.68	1248.24
528.04	1264.51
528.40	1280.67
528.76	1297.44
529.12	1313.64
529.48	1330.29
529.84	1345.97
530.20	1362.24
530.56	1378.91
530.91	1395.80
531.27	1412.19
531.63	1428.23
531.99	1444.53
532.35	1460.26
532.71	1475.81
533.07	1491.76
533.42	1507.39
533.78	1523.15
534.14	1539.09
534.50	1554.21
534.86	1569.77
535.21	1584.59
535.57	1600.24
535.93	1615.44
536.29	1629.86
536.65	1644.61
537.00	1658.97
537.36	1674.03
537.72	1688.23
538.08	1702.42
538.44	1716.01
538.79	1729.57
539.15	1742.92
539.51	1756.40
539.87	1770.42
540.22	1783.89
540.58	1797.25
540.94	1810.18
541.29	1822.70
541.65	1835.08
542.01	1847.83
542.37	1859.94
542.72	1872.08
543.08	1883.56
543.44	1895.71
543.79	1906.71
544.15	1917.35
544.51	1928.82
544.87	1939.50
545.22	1950.09
545.58	1960.05
545.94	1969.63
546.29	1979.42
546.65	1989.20
547.01	1998.39
547.36	2006.99
547.72	2015.41
548.07	2023.30
548.43	2031.31
548.79	2039.09
549.14	2046.59
549.50	2053.68
549.86	2061.20
550.21	2068.42
550.57	2075.51
550.92	2081.99
551.28	2089.00
551.64	2096.18
551.99	2102.54
552.35	2108.68
552.70	2114.77
553.06	2120.69
553.41	2127.10
553.77	2133.09
554.13	2139.06
554.48	2145.01
554.84	2150.48
555.19	2155.75
555.55	2160.85
555.90	2165.34
556.26	2170.46
556.61	2175.05
556.97	2179.61
557.32	2183.95
557.68	2188.20
558.03	2192.48
558.39	2196.18
558.74	2200.82
559.10	2204.72
559.45	2208.46
559.81	2212.77
560.16	2216.71
560.52	2220.17
560.87	2223.50
561.23	2226.30
561.58	2229.39
561.94	2232.05
562.29	2234.40
562.64	2237.15
563.00	2239.82
563.35	2243.44
563.71	2246.49
564.06	2249.90
564.42	2252.89
564.77	2255.44
565.12	2257.82
565.48	2259.88
565.83	2261.98
566.19	2263.58
566.54	2264.54
566.89	2265.74
567.25	2266.57
567.60	2267.88
567.96	2269.81
568.31	2270.78
568.66	2272.02
569.02	2272.72
569.37	2273.23
569.72	2274.39
570.08	2274.77
570.43	2274.84
570.78	2274.49
571.14	2273.34
571.49	2272.19
571.84	2272.17
572.20	2271.27
572.55	2270.32
572.90	2268.96
573.26	2267.85
573.61	2266.20
573.96	2264.73
574.31	2262.03
574.67	2259.20
575.02	2256.00
575.37	2252.52
575.72	2248.92
576.08	2245.60
576.43	2242.46
576.78	2238.92
577.13	2235.75
577.49	2232.77
577.84	2229.53
578.19	2226.04
578.54	2222.56
578.90	2218.54
579.25	2213.01
579.60	2208.24
579.95	2203.50
580.30	2198.64
580.66	2193.63
581.01	2188.94
581.36	2184.24
581.71	2180.42
582.06	2176.15
582.42	2171.91
582.77	2167.00
583.12	2162.77
583.47	2158.48
583.82	2153.84
584.17	2148.84
584.53	2143.77
584.88	2138.32
585.23	2132.84
585.58	2127.48
585.93	2122.22
586.28	2117.60
586.63	2112.85
586.98	2108.06
587.34	2103.37
587.69	2098.79
588.04	2093.68
588.39	2088.17
588.74	2081.78
589.09	2075.70
589.44	2069.11
589.79	2063.17
590.14	2057.69
590.49	2051.17
590.84	2044.85
591.19	2038.98
591.54	2032.65
591.89	2025.40
592.25	2018.95
592.60	2011.83
592.95	2004.57
593.30	1997.27
593.65	1989.82
594.00	1982.75
594.35	1975.52
594.70	1967.77
595.05	1960.69
595.40	1953.59
595.75	1946.19
596.10	1940.38
596.45	1933.85
596.80	1927.92
597.15	1921.47
597.50	1914.62
597.85	1908.32
598.19	1901.80
598.54	1894.82
598.89	1888.34
599.24	1882.61
599.59	1876.04
599.94	1870.09
600.29	1863.75
600.64	1857.43
600.99	1850.19
601.34	1843.52
601.69	1836.75
602.04	1830.14
602.39	1822.97
602.74	1816.33
603.08	1809.79
603.43	1803.01
603.78	1795.73
604.13	1788.61
604.48	1781.41
604.83	1774.65
605.18	1767.95
605.53	1760.16
605.87	1752.20
606.22	1745.06
606.57	1737.18
606.92	1729.86
607.27	1722.87
607.62	1716.09
607.96	1708.95
608.31	1702.52
608.66	1695.23
609.01	1687.72
609.36	1680.25
609.70	1672.28
610.05	1664.28
610.40	1656.68
610.75	1648.53
611.10	1641.04
611.44	1632.54
611.79	1624.70
612.14	1616.07
612.49	1607.00
612.83	1598.70
613.18	1590.69
613.53	1582.67
613.88	1574.19
614.22	1565.96
614.57	1557.17
614.92	1549.28
615.27	1541.66
615.61	1533.38
615.96	1525.32
616.31	1517.68
616.65	1510.29
617.00	1502.80
617.35	1495.28
617.70	1487.02
618.04	1478.55
618.39	1470.30
618.74	1462.92
619.08	1454.56
619.43	1447.09
619.78	1440.16
620.12	1433.00
620.47	1425.56
620.82	1417.47
621.16	1410.09
621.51	1402.54
621.85	1395.19
622.20	1386.67
622.55	1378.52
622.89	1370.72
623.24	1363.13
623.59	1355.85
623.93	1348.38
624.28	1341.17
624.62	1333.70
624.97	1326.57
625.32	1319.83
625.66	1312.95
626.01	1305.81
626.35	1298.42
626.70	1290.66
627.04	1282.89
627.39	1275.19
627.73	1267.86
628.08	1261.04
628.43	1253.84
628.77	1246.52
629.12	1238.86
629.46	1231.76
629.81	1224.21
630.15	1216.88
630.50	1209.47
630.84	1201.32
631.19	1193.35
631.53	1185.87
631.88	1178.31
632.22	1170.64
632.57	1163.35
632.91	1155.77
633.26	1148.31
633.60	1141.06
633.95	1133.99
634.29	1127.02
634.64	1120.31
634.98	1112.85
635.32	1105.62
635.67	1098.99
636.01	1092.36
636.36	1085.60
636.70	1079.09
637.05	1072.50
637.39	1066.14
637.73	1059.63
638.08	1053.81
638.42	1047.77
638.77	1041.28
639.11	1034.61
639.45	1028.24
639.80	1021.57
640.14	1015.29
640.49	1008.85
640.83	1002.57
641.17	996.34
641.52	990.05
641.86	983.57
642.20	977.72
642.55	971.49
642.89	965.04
643.23	958.41
643.58	952.73
643.92	946.60
644.26	940.70
644.61	934.56
644.95	928.58
645.29	922.00
645.64	915.40
645.98	909.16
646.32	903.37
646.66	897.46
647.01	891.69
647.35	885.87
647.69	879.98
648.04	874.39
648.38	868.55
648.72	862.60
649.06	856.66
649.41	850.90
649.75	844.93
650.09	839.08
650.43	833.41
650.78	827.25
651.12	821.24
651.46	815.56
651.80	809.95
652.14	804.58
652.49	799.27
652.83	794.10
653.17	788.52
653.51	782.88
653.85	777.42
654.20	771.83
654.54	765.92
654.88	760.24
655.22	754.32
655.56	748.72
655.90	743.25
656.25	737.92
656.59	732.49
656.93	727.44
657.27	722.21
657.61	716.75
657.95	711.62
658.29	706.59
658.64	701.24
658.98	695.92
659.32	690.45
659.66	685.22
660.00	680.01
660.34	675.06
660.68	670.13
661.02	665.14
661.36	660.45
661.70	655.94
662.05	651.54
662.39	647.34
662.73	642.93
663.07	638.57
663.41	634.20
663.75	629.79
664.09	625.24
664.43	620.90
664.77	616.91
665.11	612.67
665.45	608.52
665.79	604.51
666.13	600.43
666.47	596.38
666.81	592.24
667.15	588.08
667.49	584.15
667.83	580.36
668.17	576.41
668.51	572.31
668.85	568.26
669.19	564.44
669.53	560.63
669.87	556.71
670.21	553.02
670.55	549.35
670.89	545.97
671.23	542.52
671.57	539.01
671.91	535.45
672.25	532.01
672.58	528.54
672.92	525.14
673.26	521.94
673.60	518.80
673.94	515.69
674.28	512.76
674.62	509.81
674.96	506.67
675.30	503.78
675.64	500.87
675.97	498.14
676.31	495.25
676.65	492.32
676.99	489.63
677.33	486.83
677.67	484.06
678.01	481.00
678.34	478.06
678.68	475.16
679.02	472.37
679.36	469.59
679.70	466.85
680.04	464.11
680.37	461.33
680.71	458.55
681.05	455.93
681.39	453.18
681.73	450.48
682.06	447.95
682.40	445.42
682.74	442.87
683.08	440.29
683.42	437.75
683.75	435.21
684.09	432.67
684.43	430.19
684.77	427.74
685.10	425.33
685.44	423.00
685.78	420.73
686.12	418.50
686.45	416.19
686.79	413.92
687.13	411.73
687.46	409.47
687.80	407.27
688.14	405.09
688.48	403.05
688.81	400.84
689.15	398.70
689.49	396.52
689.82	394.50
690.16	392.44
690.50	390.48
690.83	388.56
691.17	386.61
691.51	384.67
691.84	382.80
692.18	381.01
692.52	379.09
692.85	377.17
693.19	375.29
693.52	373.47
693.86	371.62
694.20	369.88
694.53	368.13
694.87	366.34
695.21	364.52
695.54	362.72
695.88	361.04
696.21	359.36
696.55	357.71
696.88	356.06
697.22	354.40
697.56	352.77
697.89	351.12
698.23	349.55
698.56	347.98
698.90	346.41
699.23	344.72
699.57	343.18
699.90	341.65
700.24	340.11
700.58	338.56
700.91	337.10
701.25	335.60
701.58	334.26
701.92	332.91
702.25	331.56
702.59	330.21
702.92	328.92
703.26	327.59
703.59	326.34
703.93	325.13
704.26	323.95
704.60	322.68
704.93	321.40
705.26	320.16
705.60	318.97
705.93	317.81
706.27	316.78
706.60	315.70
706.94	314.63
707.27	313.50
707.61	312.46
707.94	311.47
708.27	310.41
708.61	309.33
708.94	308.32
709.28	307.38
709.61	306.45
709.94	305.47
710.28	304.48
710.61	303.49
710.95	302.41
711.28	301.46
711.61	300.51
711.95	299.60
712.28	298.65
712.61	297.66
712.95	296.73
713.28	295.85
713.61	294.95
713.95	294.07
714.28	293.24
714.61	292.38
714.95	291.52
715.28	290.63
715.61	289.71
715.95	288.83
716.28	287.91
716.61	287.05
716.95	286.19
717.28	285.44
717.61	284.65
717.94	283.94
718.28	283.11
718.61	282.41
718.94	281.72
719.27	281.07
719.61	280.44
719.94	279.77
720.27	279.04
720.60	278.39
720.94	277.72
721.27	277.09
721.60	276.47
721.93	275.88
722.27	275.35
722.60	274.80
722.93	274.25
723.26	273.70
723.59	273.10
723.93	272.56
724.26	271.99
724.59	271.42
724.92	270.89
725.25	270.42
725.59	269.85
725.92	269.34
726.25	268.82
726.58	268.29
726.91	267.80
727.24	267.29
727.57	266.83
727.91	266.34
728.24	265.89
728.57	265.42
728.90	264.98
729.23	264.52
729.56	264.11
729.89	263.67
730.22	263.22
730.55	262.82
730.89	262.39
731.22	261.96
731.55	261.53
731.88	261.07
732.21	260.62
732.54	260.21
732.87	259.79
733.20	259.38
733.53	259.01
733.86	258.65
734.19	258.25
734.52	257.85
734.85	257.52
735.18	257.09
735.51	256.75
735.84	256.34
736.17	255.98
736.50	255.60
736.83	255.34
737.16	254.97
737.49	254.61
737.82	254.27
738.15	253.95
738.48	253.65
738.81	253.37
739.14	253.05
739.47	252.74
739.80	252.40
740.13	252.11
740.46	251.81
740.79	251.47
741.12	251.16
741.45	250.83
741.78	250.47
742.11	250.20
742.44	249.87
742.77	249.59
743.10	249.26
743.43	248.99
743.75	248.60
744.08	248.49
744.41	248.21
744.74	247.91
745.07	247.61
745.40	247.37
745.73	247.12
746.06	246.81
746.39	246.54
746.71	246.28
747.04	245.98
747.37	245.67
747.70	245.47
748.03	245.28
748.36	245.11
748.68	244.85
749.01	244.62
749.34	244.38
749.67	244.16
750.00	243.94
750.33	243.80
750.65	243.60
750.98	243.22
751.31	243.05
751.64	242.88
751.97	242.69
752.29	242.43
752.62	242.20
752.95	242.03
753.28	241.83
753.60	241.61
753.93	241.45
754.26	241.25
754.59	241.01
754.91	240.78
755.24	240.56
755.57	240.41
755.90	240.21
756.22	240.01
756.55	239.81
756.88	239.64
757.20	239.38
757.53	239.15
757.86	238.98
758.19	238.80
758.51	238.61
758.84	238.43
759.17	238.28
759.49	238.09
759.82	237.95
760.15	237.80
760.47	237.71
760.80	237.53
761.13	237.40
761.45	237.22
761.78	237.04
762.11	236.89
762.43	236.73
762.76	236.60
763.08	236.45
763.41	236.30
763.74	236.14
764.06	235.97
764.39	235.85
764.71	235.71
765.04	235.58
765.37	235.43
765.69	235.27
766.02	235.13
766.34	235.02
766.67	234.88
767.00	234.83
767.32	234.72
767.65	234.66
767.97	234.55
768.30	234.47
768.62	234.35
768.95	234.21
769.27	234.07
769.60	233.97
769.92	233.84
770.25	233.75
770.57	233.60
770.90	233.47
771.22	233.33
771.55	233.25
771.87	233.13
772.20	233.04
772.52	233.04
772.85	233.07
773.17	232.97
773.50	232.83
773.82	232.69
774.15	232.53
774.47	232.37
774.80	232.26
775.12	232.14
775.45	232.09
775.77	232.03
776.09	231.99
776.42	231.91
776.74	231.85
777.07	231.77
777.39	231.72
777.72	231.64
778.04	231.60
778.36	231.52
778.69	231.44
779.01	231.37
779.33	231.23
779.66	231.06
779.98	230.99
780.31	230.94
780.63	230.94
780.95	230.91
781.28	230.83
781.60	230.75
781.92	230.72
782.25	230.63
782.57	230.58
782.89	230.47
783.22	230.41
783.54	230.38
783.86	230.32
784.19	230.27
784.51	230.27
784.83	230.23
785.16	230.17
785.48	230.16
785.80	230.11
786.12	230.05
786.45	230.00
786.77	229.98
787.09	229.95
787.42	229.85
787.74	229.79
788.06	229.81
788.38	229.80
788.71	229.73
789.03	229.71
789.35	229.70
789.67	229.68
789.99	229.65
790.32	229.58
790.64	229.57
790.96	229.62
791.28	229.55
791.61	229.51
791.93	229.52
792.25	229.44
792.57	229.50
792.89	229.46
793.21	229.45
793.54	229.38
793.86	229.33
794.18	229.28
794.50	229.23
794.82	229.17
795.14	229.11
795.47	229.13
795.79	229.08
796.11	229.04
796.43	228.99
796.75	228.94
797.07	228.94
797.39	228.87
797.71	228.77
798.04	228.74
798.36	228.70
798.68	228.62
799.00	228.64
799.32	228.54
799.64	228.53
799.96	228.48
800.28	228.49
800.60	228.45
800.92	228.44
801.24	228.41
801.56	228.40
801.89	228.37
802.21	228.34
802.53	228.29
802.85	228.27
803.17	228.31
803.49	228.25
803.81	228.19
804.13	228.15
804.45	228.12
804.77	228.10
805.09	228.06
805.41	228.02
805.73	227.95
806.05	227.92
806.37	227.90
806.69	227.88
807.01	227.79
807.33	227.80
807.65	227.69
807.97	227.75
808.28	227.73
808.60	227.70
808.92	227.66
809.24	227.70
809.56	227.64
809.88	227.57
810.20	227.55
810.52	227.54
810.84	227.51
811.16	227.44
811.48	227.43
811.80	227.43
812.12	227.42
812.43	227.39
812.75	227.33
813.07	227.27
813.39	227.24
813.71	227.21
814.03	227.11
814.35	227.10
814.67	227.01
814.98	226.95
815.30	226.91
815.62	226.85
815.94	226.74
816.26	226.72
816.58	226.70
816.89	226.70
817.21	226.63
817.53	226.63
817.85	226.62
818.17	226.57
818.48	226.51
818.80	226.49
819.12	226.44
819.44	226.42
819.76	226.35
820.07	226.35
820.39	226.32
820.71	226.35
821.03	226.36
821.34	226.35
821.66	226.32
821.98	226.34
822.30	226.33
822.61	226.40
822.93	226.36
823.25	226.35
823.57	226.35
823.88	226.39
824.20	226.36
824.52	226.40
824.83	226.38
825.15	226.35
825.47	226.32
825.79	226.32
826.10	226.32
826.42	226.37
826.74	226.35
827.05	226.38
827.37	226.34
827.69	226.34
828.00	226.34
828.32	226.36
828.64	226.33
828.95	226.40
829.27	226.37
829.58	226.37
829.90	226.36
830.22	226.36
830.53	226.33
830.85	226.31
831.17	226.26
831.48	226.26
831.80	226.29
832.11	226.30
832.43	226.29
832.75	226.29
833.06	226.29
833.38	226.27
833.69	226.26
834.01	226.27
834.32	226.25
834.64	226.21
834.96	226.22
835.27	226.17
835.59	226.14
835.90	226.07
836.22	226.07
836.53	226.06
836.85	226.04
837.16	226.13
837.48	226.16
837.79	226.18
838.11	226.19
838.42	226.16
838.74	226.18
839.05	226.17
839.37	226.17
839.68	226.12
840.00	226.10
840.31	226.10
840.63	226.06
840.94	226.04
841.26	226.05
841.57	226.03
841.88	226.07
842.20	226.04
842.51	226.05
842.83	226.02
843.14	226.10
843.46	226.10
843.77	226.03
844.08	225.99
844.40	225.95
844.71	225.94
845.03	225.94
845.34	225.90
845.65	225.91
845.97	225.93
846.28	225.92
846.60	225.93
846.91	225.92
847.22	225.95
847.54	225.95
847.85	225.93
848.16	225.93
848.48	225.91
848.79	225.94
849.10	225.93
849.42	225.96
849.73	225.87
850.04	225.83
850.36	225.79
850.67	225.83
850.98	225.83
851.30	225.81
851.61	225.78
851.92	225.77
852.23	225.80
852.55	225.75
852.86	225.74
853.17	225.72
853.49	225.73
853.80	225.73
854.11	225.73
854.42	225.75
854.74	225.74
855.05	225.75
855.36	225.69
855.67	225.73
855.99	225.69
856.30	225.79
856.61	225.83
856.92	225.81
857.23	225.79
857.55	225.74
857.86	225.75
858.17	225.77
858.48	225.74
858.79	225.70
859.11	225.72
859.42	225.73
859.73	225.74
860.04	225.73
860.35	225.72
860.66	225.72
860.98	225.69
861.29	225.69
861.60	225.64
861.91	225.69
862.22	225.66
862.53	225.62
862.84	225.54
863.16	225.52
863.47	225.53
863.78	225.51
864.09	225.54
864.40	225.52
864.71	225.52
865.02	225.55
865.33	225.53
865.64	225.53
865.95	225.51
866.27	225.59
866.58	225.58
866.89	225.59
867.20	225.57
867.51	225.59
867.82	225.58
868.13	225.62
868.44	225.57
868.75	225.56
869.06	225.60
869.37	225.61
869.68	225.55
869.99	225.55
870.30	225.55
870.61	225.56
870.92	225.56
871.23	225.55
871.54	225.57
871.85	225.60
872.16	225.61
872.47	225.60
872.78	225.47
873.09	225.46
873.40	225.46
873.71	225.45
874.02	225.43
874.33	225.42
874.64	225.41
874.95	225.42
875.26	225.41
875.56	225.41
875.87	225.41
876.18	225.46
876.49	225.58
876.80	225.61
877.11	225.61
877.42	225.61
877.73	225.61
878.04	225.58
878.35	225.59
878.66	225.55
878.96	225.58
879.27	225.64
879.58	225.63
879.89	225.60
880.20	225.67
880.51	225.68
880.82	225.67
881.12	225.67
881.43	225.67
881.74	225.66
882.05	225.65
882.36	225.66
882.67	225.59
882.97	225.44
883.28	225.44
883.59	225.43
883.90	225.46
884.21	225.46
884.51	225.45
884.82	225.42
885.13	225.44
885.44	225.40
885.74	225.39
886.05	225.42
886.36	225.45
886.67	225.38
886.98	225.43
887.28	225.42
887.59	225.40
887.90	225.40
888.20	225.42
888.51	225.43
888.82	225.38
889.13	225.44
889.43	225.55
889.74	225.54
890.05	225.52
890.35	225.46
890.66	225.48
890.97	225.46
891.28	225.47
891.58	225.50
891.89	225.52
892.20	225.49
892.50	225.44
892.81	225.42
893.12	225.40
893.42	225.33
893.73	225.33
894.04	225.34
894.34	225.33
894.65	225.32
894.95	225.31
895.26	225.32
895.57	225.36
895.87	225.25
896.18	225.24
896.48	225.23
896.79	225.27
897.10	225.27
897.40	225.31
897.71	225.34
898.01	225.30
898.32	225.30
898.63	225.30
898.93	225.32
899.24	225.32
899.54	225.30
899.85	225.30
900.15	225.30
900.46	225.29
900.76	225.29
901.07	225.26
901.38	225.28
901.68	225.29
901.99	225.23
902.29	225.28
902.60	225.27
902.90	225.30
903.21	225.27
903.51	225.28
903.82	225.30
904.12	225.26
904.43	225.25
904.73	225.24
905.03	225.25
905.34	225.33
905.64	225.33
905.95	225.33
906.25	225.34
906.56	225.34
906.86	225.34
907.17	225.37
907.47	225.38
907.77	225.37
908.08	225.35
908.38	225.35
908.69	225.30
908.99	225.35
909.30	225.31
909.60	225.32
909.90	225.30
910.21	225.28
910.51	225.27
910.81	225.26
911.12	225.28
911.42	225.27
911.73	225.17
912.03	225.18
912.33	225.23
912.64	225.22
912.94	225.21
913.24	225.20
913.55	225.17
913.85	225.19
914.15	225.23
914.46	225.24
914.76	225.20
915.06	225.25
915.37	225.20
915.67	225.21
915.97	225.19
916.27	225.13
916.58	225.13
916.88	225.11
917.18	225.10
917.49	225.15
917.79	225.16
918.09	225.18
918.39	225.22
918.70	225.27
919.00	225.28
919.30	225.31
919.60	225.32
919.91	225.32
920.21	225.33
920.51	225.29
920.81	225.30
921.12	225.34
921.42	225.33
921.72	225.34
922.02	225.34
922.32	225.38
922.63	225.42
922.93	225.46
923.23	225.46
923.53	225.48
923.83	225.41
924.13	225.40
924.44	225.40
924.74	225.38
925.04	225.35
925.34	225.33
925.64	225.29
925.94	225.31
926.24	225.34
926.55	225.31
926.85	225.31
927.15	225.28
927.45	225.29
927.75	225.27
928.05	225.27
928.35	225.28
928.65	225.29
928.95	225.31
929.26	225.30
929.56	225.30
929.86	225.34
930.16	225.36
930.46	225.35
930.76	225.37
931.06	225.30
931.36	225.29
931.66	225.33
931.96	225.30
932.26	225.29
932.56	225.25
932.86	225.22
933.16	225.25
933.46	225.25
933.76	225.22
934.06	225.23
934.36	225.28
934.66	225.28
934.96	225.27
935.26	225.26
935.56	225.25
935.86	225.24
936.16	225.21
936.46	225.14
936.76	225.16
937.06	225.10
937.36	225.11
937.66	225.09
937.96	225.05
938.26	225.06
938.56	225.04
938.86	225.05
939.16	225.08
939.46	225.06
939.76	225.05
940.06	225.08
940.35	225.06
940.65	225.00
940.95	225.01
941.25	224.97
941.55	224.97
941.85	224.98
942.15	224.99
942.45	225.00
942.75	225.02
943.04	225.01
943.34	225.08
943.64	225.07
943.94	225.06
944.24	225.06
944.54	225.09
944.84	225.13
945.13	225.10
945.43	225.10
945.73	225.09
946.03	225.08
946.33	225.05
946.62	225.06
946.92	225.04
947.22	225.05
947.52	225.08
947.82	225.07
948.11	225.04
948.41	225.03
948.71	225.04
949.01	225.06
949.31	225.06
949.60	225.03
949.90	225.05
950.20	225.08
950.50	225.07
950.79	225.07
951.09	225.07
951.39	225.11
951.69	225.11
951.98	225.17
952.28	225.18
952.58	225.19
952.87	225.19
953.17	225.23
953.47	225.20
953.76	225.20
954.06	225.19
954.36	225.19
954.66	225.18
954.95	225.20
955.25	225.18
955.55	225.18
955.84	225.17
956.14	225.20
956.44	225.18
956.73	225.22
957.03	225.24
957.32	225.23
957.62	225.22
957.92	225.24
958.21	225.19
958.51	225.33
958.81	225.35
959.10	225.35
959.40	225.37
959.69	225.39
959.99	225.41
960.29	225.42
960.58	225.42
960.88	225.46
961.17	225.42
961.47	225.45
961.76	225.42
962.06	225.45
962.36	225.43
962.65	225.44
962.95	225.41
963.24	225.40
963.54	225.41
963.83	225.41
964.13	225.40
964.42	225.39
964.72	225.31
965.01	225.30
965.31	225.29
965.60	225.24
965.90	225.28
966.19	225.26
966.49	225.26
966.78	225.27
967.08	225.26
967.37	225.27
967.67	225.26
967.96	225.29
968.26	225.26
968.55	225.27
968.85	225.26
969.14	225.28
969.43	225.27
969.73	225.23
970.02	225.22
970.32	225.23
970.61	225.23
970.91	225.21
971.20	225.20
971.49	225.23
971.79	225.25
972.08	225.17
972.38	225.18
972.67	225.19
972.96	225.20
973.26	225.17
973.55	225.19
973.85	225.20
974.14	225.19
974.43	225.22
974.73	225.22
975.02	225.21
975.31	225.21
975.61	225.22
975.90	225.22
976.19	225.19
976.49	225.19
976.78	225.18
977.07	225.15
977.37	225.19
977.66	225.15
977.95	225.14
978.24	225.17
978.54	225.21
978.83	225.17
979.12	225.12
979.42	225.14
979.71	225.12
980.00	225.13
980.29	225.13
980.59	225.12
980.88	225.17
981.17	225.14
981.46	225.13
981.76	225.13
982.05	225.19
982.34	225.23
982.63	225.21
982.93	225.23
983.22	225.25
983.51	225.24
983.80	225.25
984.09	225.26
984.39	225.24
984.68	225.22
984.97	225.23
985.26	225.26
985.55	225.28
985.85	225.30
986.14	225.32
986.43	225.28
986.72	225.25
987.01	225.22
987.30	225.23
987.59	225.21
987.89	225.20
988.18	225.14
988.47	225.12
988.76	225.12
989.05	225.10
989.34	225.08
989.63	225.09
989.92	225.07
990.22	225.03
990.51	225.04
990.80	225.01
991.09	225.00
991.38	225.02
991.67	224.99
991.96	224.95
992.25	224.93
992.54	224.93
992.83	224.94
993.12	224.91
993.41	224.92
993.70	224.96
993.99	225.00
994.28	225.01
994.58	225.04
994.87	225.02
995.16	225.00
995.45	224.99
995.74	224.98
996.03	225.00
996.32	225.04
996.61	225.06
996.90	225.05
997.19	225.05
997.48	225.03
997.77	224.99
998.06	224.99
998.34	224.96
998.63	224.99
998.92	225.00
999.21	225.01
999.50	224.99
999.79	224.93
1000.08	224.91
1000.37	224.93
1000.66	224.91
1000.95	224.94
1001.24	224.92
1001.53	224.93
1001.82	224.89
1002.11	224.87
1002.40	224.88
1002.68	224.88
1002.97	224.93
1003.26	224.93
1003.55	224.88
1003.84	224.90
1004.13	224.95
1004.42	224.97
1004.71	224.92
1004.99	224.91
1005.28	224.93
1005.57	224.91
1005.86	224.90
1006.15	224.87
1006.44	224.83
1006.72	224.84
1007.01	224.84
1007.30	224.87
1007.59	224.88
1007.88	224.84
1008.17	224.86
1008.45	224.86
1008.74	224.82
1009.03	224.82
1009.32	224.86
1009.60	224.90
1009.89	224.91
1010.18	224.83
1010.47	224.84
1010.76	224.87
1011.04	224.87
1011.33	224.88
1011.62	224.88
1011.91	224.90
1012.19	224.91
1012.48	224.91
1012.77	224.91
1013.05	224.95
1013.34	224.96
1013.63	224.90
1013.92	224.95
1014.20	224.95
1014.49	224.95
1014.78	224.97
1015.06	224.94
1015.35	224.90
1015.64	224.90
1015.92	224.93
1016.21	224.98
1016.50	225.00
1016.78	225.04
1017.07	225.04
1017.36	225.02
1017.64	225.05
1017.93	225.07
1018.22	225.06
1018.50	225.07
1018.79	225.08
1019.08	225.04
1019.36	225.05
1019.65	225.06
1019.93	225.11
1020.22	225.11
1020.51	225.17
1020.79	225.18
1021.08	224.79
1021.36	224.60
1021.65	225.41
1021.94	225.08
1022.22	225.11
1022.51	224.63
1022.79	225.72
1023.08	225.30
1023.36	226.08
1023.65	225.33
>>>>>End Processed Spectral Data<<<<<
