SpectraSuite Data File
++++++++++++++++++++++++++++++++++++
Date: Fri Feb 01 15:46:21 EST 2013
User: group
Dark Spectrum Present: No
Reference Spectrum Present: No
Number of Sampled Component Spectra: 1
Spectrometers: USB2E7196
Integration Time (usec): 35000 (USB2E7196)
Spectra Averaged: 100 (USB2E7196)
Boxcar Smoothing: 10 (USB2E7196)
Correct for Electrical Dark: No (USB2E7196)
Strobe/Lamp Enabled: No (USB2E7196)
Correct for Detector Non-linearity: No (USB2E7196)
Correct for Stray Light: No (USB2E7196)
Number of Pixels in Processed Spectrum: 2048
>>>>>Begin Processed Spectral Data<<<<<
339.09	0.00
339.48	214.96
339.86	216.57
340.24	217.57
340.63	219.24
341.01	222.12
341.39	221.17
341.78	223.17
342.16	224.50
342.54	225.01
342.93	213.27
343.31	224.04
343.69	224.60
344.07	225.07
344.46	225.52
344.84	225.91
345.22	226.16
345.60	226.46
345.99	226.65
346.37	226.77
346.75	226.86
347.13	226.91
347.52	226.98
347.90	227.04
348.28	227.10
348.66	227.17
349.05	227.19
349.43	227.23
349.81	227.28
350.19	227.32
350.57	227.39
350.96	227.46
351.34	227.54
351.72	227.64
352.10	227.71
352.48	227.79
352.87	227.85
353.25	227.90
353.63	227.95
354.01	228.03
354.39	228.12
354.77	228.18
355.15	228.30
355.54	228.33
355.92	228.40
356.30	228.43
356.68	228.52
357.06	228.57
357.44	228.62
357.82	228.67
358.20	228.72
358.58	228.75
358.97	228.80
359.35	228.87
359.73	228.92
360.11	228.97
360.49	229.00
360.87	229.00
361.25	229.07
361.63	229.15
362.01	229.15
362.39	229.19
362.77	229.25
363.15	229.26
363.53	229.30
363.91	229.29
364.29	229.32
364.67	229.25
365.05	229.26
365.43	229.29
365.81	229.27
366.19	229.30
366.57	229.35
366.95	229.36
367.33	229.34
367.71	229.30
368.09	229.28
368.47	229.28
368.85	229.27
369.23	229.22
369.61	229.15
369.99	229.16
370.37	229.12
370.75	229.11
371.13	229.05
371.51	228.99
371.89	228.96
372.27	228.93
372.65	228.90
373.03	228.82
373.41	228.76
373.78	228.73
374.16	228.66
374.54	228.54
374.92	228.46
375.30	228.39
375.68	228.31
376.06	228.29
376.44	228.20
376.82	228.11
377.19	228.06
377.57	227.98
377.95	227.87
378.33	227.77
378.71	227.65
379.09	227.63
379.47	227.54
379.84	227.46
380.22	227.38
380.60	227.29
380.98	227.24
381.36	227.16
381.73	227.08
382.11	227.05
382.49	226.97
382.87	226.91
383.25	226.85
383.62	226.89
384.00	226.76
384.38	226.74
384.76	226.73
385.13	226.70
385.51	226.68
385.89	226.63
386.27	226.62
386.64	226.57
387.02	226.48
387.40	226.46
387.78	226.43
388.15	226.40
388.53	226.38
388.91	226.34
389.29	226.34
389.66	226.34
390.04	226.26
390.42	226.30
390.79	226.30
391.17	226.28
391.55	226.19
391.92	226.22
392.30	226.22
392.68	226.19
393.05	226.20
393.43	226.19
393.81	226.19
394.18	226.15
394.56	226.18
394.94	226.26
395.31	226.25
395.69	226.32
396.06	226.38
396.44	226.42
396.82	226.48
397.19	226.54
397.57	226.56
397.95	226.65
398.32	226.66
398.70	226.68
399.07	226.79
399.45	226.81
399.82	226.90
400.20	226.96
400.58	227.03
400.95	227.05
401.33	227.12
401.70	227.27
402.08	227.40
402.45	227.49
402.83	227.59
403.20	227.73
403.58	227.77
403.95	227.84
404.33	227.94
404.71	228.06
405.08	228.25
405.46	228.39
405.83	228.54
406.21	228.70
406.58	228.88
406.96	229.02
407.33	229.23
407.70	229.42
408.08	229.66
408.45	229.88
408.83	230.12
409.20	230.35
409.58	230.54
409.95	230.78
410.33	231.07
410.70	231.31
411.08	231.63
411.45	231.95
411.82	232.28
412.20	232.64
412.57	233.03
412.95	233.30
413.32	233.70
413.69	234.09
414.07	234.53
414.44	234.99
414.82	235.47
415.19	236.04
415.56	236.58
415.94	237.12
416.31	237.76
416.68	238.40
417.06	239.12
417.43	239.81
417.81	240.56
418.18	241.31
418.55	242.15
418.93	243.02
419.30	243.96
419.67	244.90
420.04	245.89
420.42	246.89
420.79	248.05
421.16	249.23
421.54	250.42
421.91	251.64
422.28	252.93
422.66	254.25
423.03	255.53
423.40	256.87
423.77	258.30
424.15	259.73
424.52	261.24
424.89	262.82
425.26	264.37
425.64	265.86
426.01	267.45
426.38	269.10
426.75	270.73
427.13	272.43
427.50	274.30
427.87	276.18
428.24	278.03
428.61	279.79
428.99	281.72
429.36	283.86
429.73	285.92
430.10	287.94
430.47	289.99
430.85	292.13
431.22	294.37
431.59	296.73
431.96	298.98
432.33	301.47
432.70	303.92
433.08	306.78
433.45	309.44
433.82	312.09
434.19	314.99
434.56	317.83
434.93	320.45
435.30	323.02
435.68	325.89
436.05	328.75
436.42	331.57
436.79	334.08
437.16	336.75
437.53	339.61
437.90	342.39
438.27	345.13
438.64	347.94
439.01	350.54
439.38	352.80
439.75	354.95
440.13	357.39
440.50	359.68
440.87	361.50
441.24	363.39
441.61	365.49
441.98	366.97
442.35	368.79
442.72	370.70
443.09	372.52
443.46	373.52
443.83	374.09
444.20	374.59
444.57	375.45
444.94	375.73
445.31	376.06
445.68	376.45
446.05	376.51
446.42	376.12
446.79	375.68
447.16	375.23
447.53	374.92
447.90	373.82
448.27	372.68
448.64	371.07
449.01	369.88
449.37	367.98
449.74	366.13
450.11	363.82
450.48	361.31
450.85	358.80
451.22	356.65
451.59	354.65
451.96	352.72
452.33	350.09
452.70	347.72
453.07	344.87
453.43	341.96
453.80	339.19
454.17	336.53
454.54	333.95
454.91	331.17
455.28	328.50
455.65	325.97
456.02	323.50
456.38	321.37
456.75	318.77
457.12	316.49
457.49	314.25
457.86	312.10
458.23	310.26
458.59	308.17
458.96	306.08
459.33	304.21
459.70	302.33
460.07	300.83
460.43	299.11
460.80	297.51
461.17	296.05
461.54	294.59
461.91	293.15
462.27	291.73
462.64	290.53
463.01	289.15
463.38	287.87
463.74	286.51
464.11	285.32
464.48	284.29
464.85	283.16
465.21	282.30
465.58	281.39
465.95	280.30
466.32	279.40
466.68	278.44
467.05	277.55
467.42	276.64
467.78	275.68
468.15	274.79
468.52	274.10
468.88	273.26
469.25	272.44
469.62	271.82
469.98	271.13
470.35	270.47
470.72	269.85
471.08	269.18
471.45	268.67
471.82	268.15
472.18	267.53
472.55	267.12
472.92	266.60
473.28	266.09
473.65	265.65
474.02	265.22
474.38	264.89
474.75	264.55
475.11	264.21
475.48	263.99
475.85	263.76
476.21	263.54
476.58	263.36
476.94	263.25
477.31	263.10
477.67	262.95
478.04	262.87
478.41	262.84
478.77	262.88
479.14	262.76
479.50	262.75
479.87	262.84
480.23	262.92
480.60	262.99
480.96	263.10
481.33	263.30
481.69	263.53
482.06	263.74
482.42	263.95
482.79	264.21
483.15	264.52
483.52	264.95
483.88	265.31
484.25	265.70
484.61	266.17
484.98	266.63
485.34	267.23
485.71	267.81
486.07	268.44
486.44	269.00
486.80	269.73
487.17	270.48
487.53	271.30
487.90	272.16
488.26	273.11
488.62	274.12
488.99	275.11
489.35	276.16
489.72	277.30
490.08	278.52
490.44	279.77
490.81	281.10
491.17	282.42
491.54	283.91
491.90	285.43
492.26	287.07
492.63	288.82
492.99	290.58
493.36	292.49
493.72	294.52
494.08	296.64
494.45	298.92
494.81	301.29
495.17	303.74
495.54	306.29
495.90	308.96
496.26	311.82
496.63	314.79
496.99	317.88
497.35	321.10
497.72	324.44
498.08	328.00
498.44	331.65
498.80	335.64
499.17	339.66
499.53	343.81
499.89	348.19
500.26	352.71
500.62	357.43
500.98	362.37
501.34	367.41
501.71	372.77
502.07	378.20
502.43	383.81
502.79	389.62
503.16	395.70
503.52	401.95
503.88	408.33
504.24	414.95
504.60	421.88
504.97	429.08
505.33	436.51
505.69	444.20
506.05	452.05
506.41	459.88
506.78	468.06
507.14	476.54
507.50	485.23
507.86	494.26
508.22	503.40
508.59	512.65
508.95	522.31
509.31	532.13
509.67	542.24
510.03	552.59
510.39	563.11
510.75	573.90
511.12	584.87
511.48	596.11
511.84	607.57
512.20	619.04
512.56	630.92
512.92	643.09
513.28	655.45
513.64	667.97
514.00	680.66
514.37	693.62
514.73	706.66
515.09	719.65
515.45	732.89
515.81	746.49
516.17	760.43
516.53	774.55
516.89	788.70
517.25	802.85
517.61	817.29
517.97	831.82
518.33	846.29
518.69	861.06
519.05	876.09
519.41	891.28
519.77	906.88
520.13	922.33
520.49	937.72
520.85	953.14
521.21	968.79
521.57	985.05
521.93	1000.88
522.29	1017.35
522.65	1033.61
523.01	1049.90
523.37	1065.90
523.73	1082.16
524.09	1098.20
524.45	1114.57
524.81	1131.22
525.17	1148.01
525.53	1164.81
525.89	1181.70
526.25	1198.55
526.61	1214.87
526.97	1231.58
527.33	1248.10
527.68	1264.82
528.04	1281.29
528.40	1297.88
528.76	1314.91
529.12	1331.55
529.48	1348.38
529.84	1364.41
530.20	1381.10
530.56	1398.18
530.91	1415.63
531.27	1432.39
531.63	1448.88
531.99	1465.55
532.35	1481.57
532.71	1497.37
533.07	1513.68
533.42	1529.54
533.78	1545.53
534.14	1561.91
534.50	1577.29
534.86	1593.24
535.21	1608.32
535.57	1624.27
535.93	1639.75
536.29	1654.50
536.65	1669.50
537.00	1684.39
537.36	1699.77
537.72	1714.31
538.08	1728.62
538.44	1742.45
538.79	1756.35
539.15	1770.07
539.51	1783.75
539.87	1798.09
540.22	1811.93
540.58	1825.75
540.94	1839.12
541.29	1852.06
541.65	1864.66
542.01	1877.86
542.37	1890.06
542.72	1902.49
543.08	1914.24
543.44	1926.64
543.79	1937.98
544.15	1949.02
544.51	1960.46
544.87	1971.27
545.22	1982.11
545.58	1992.38
545.94	2002.24
546.29	2012.09
546.65	2021.96
547.01	2031.04
547.36	2039.74
547.72	2048.27
548.07	2056.05
548.43	2064.26
548.79	2072.43
549.14	2079.92
549.50	2087.38
549.86	2095.07
550.21	2102.43
550.57	2109.51
550.92	2116.28
551.28	2123.22
551.64	2130.26
551.99	2136.82
552.35	2143.03
552.70	2149.22
553.06	2155.08
553.41	2161.36
553.77	2167.41
554.13	2173.48
554.48	2179.74
554.84	2185.05
555.19	2190.23
555.55	2195.27
555.90	2199.52
556.26	2204.21
556.61	2209.06
556.97	2212.99
557.32	2217.09
557.68	2221.28
558.03	2225.62
558.39	2229.16
558.74	2233.89
559.10	2237.71
559.45	2241.46
559.81	2245.75
560.16	2249.60
560.52	2252.87
560.87	2256.13
561.23	2258.70
561.58	2261.57
561.94	2264.10
562.29	2266.51
562.64	2269.23
563.00	2271.88
563.35	2275.62
563.71	2278.81
564.06	2282.04
564.42	2285.14
564.77	2287.66
565.12	2289.77
565.48	2291.67
565.83	2293.52
566.19	2294.76
566.54	2295.71
566.89	2296.69
567.25	2297.26
567.60	2298.49
567.96	2300.21
568.31	2301.18
568.66	2302.27
569.02	2302.92
569.37	2303.29
569.72	2304.09
570.08	2304.16
570.43	2304.28
570.78	2303.53
571.14	2301.81
571.49	2300.51
571.84	2300.18
572.20	2298.87
572.55	2297.85
572.90	2296.29
573.26	2294.79
573.61	2293.00
573.96	2291.16
574.31	2288.14
574.67	2285.11
575.02	2281.47
575.37	2278.04
575.72	2274.16
576.08	2270.79
576.43	2267.28
576.78	2263.41
577.13	2260.29
577.49	2257.29
577.84	2253.75
578.19	2250.13
578.54	2246.66
578.90	2242.26
579.25	2236.61
579.60	2231.84
579.95	2226.86
580.30	2221.85
580.66	2216.77
581.01	2211.92
581.36	2207.16
581.71	2203.04
582.06	2198.53
582.42	2193.93
582.77	2188.67
583.12	2184.03
583.47	2179.26
583.82	2174.36
584.17	2169.11
584.53	2163.59
584.88	2157.99
585.23	2152.16
585.58	2146.59
585.93	2141.26
586.28	2136.68
586.63	2131.66
586.98	2126.41
587.34	2121.75
587.69	2116.90
588.04	2111.67
588.39	2105.93
588.74	2099.32
589.09	2093.17
589.44	2086.40
589.79	2080.51
590.14	2075.04
590.49	2068.53
590.84	2062.27
591.19	2056.30
591.54	2049.90
591.89	2042.56
592.25	2035.51
592.60	2028.36
592.95	2020.82
593.30	2013.19
593.65	2005.51
594.00	1998.49
594.35	1991.30
594.70	1983.14
595.05	1975.90
595.40	1968.62
595.75	1961.15
596.10	1954.85
596.45	1948.11
596.80	1941.91
597.15	1935.22
597.50	1928.01
597.85	1921.65
598.19	1914.95
598.54	1907.80
598.89	1901.17
599.24	1895.19
599.59	1888.57
599.94	1882.48
600.29	1876.07
600.64	1869.55
600.99	1862.02
601.34	1855.16
601.69	1848.28
602.04	1841.45
602.39	1834.02
602.74	1827.00
603.08	1820.26
603.43	1813.64
603.78	1806.35
604.13	1799.17
604.48	1791.85
604.83	1785.05
605.18	1777.83
605.53	1769.69
605.87	1761.54
606.22	1754.19
606.57	1746.32
606.92	1739.04
607.27	1731.78
607.62	1724.93
607.96	1717.63
608.31	1711.05
608.66	1703.37
609.01	1695.59
609.36	1687.98
609.70	1679.96
610.05	1671.82
610.40	1663.96
610.75	1655.45
611.10	1647.70
611.44	1639.24
611.79	1631.10
612.14	1622.27
612.49	1613.28
612.83	1604.92
613.18	1596.89
613.53	1588.86
613.88	1580.26
614.22	1571.94
614.57	1563.29
614.92	1555.10
615.27	1547.49
615.61	1539.12
615.96	1531.16
616.31	1523.74
616.65	1516.36
617.00	1508.75
617.35	1501.25
617.70	1492.93
618.04	1484.48
618.39	1476.26
618.74	1468.65
619.08	1460.44
619.43	1452.90
619.78	1446.00
620.12	1438.78
620.47	1431.26
620.82	1423.06
621.16	1415.72
621.51	1408.16
621.85	1400.51
622.20	1391.99
622.55	1383.64
622.89	1375.87
623.24	1368.16
623.59	1360.75
623.93	1353.21
624.28	1346.07
624.62	1338.56
624.97	1331.49
625.32	1324.85
625.66	1317.78
626.01	1310.68
626.35	1303.28
626.70	1295.51
627.04	1287.69
627.39	1280.03
627.73	1272.64
628.08	1265.72
628.43	1258.45
628.77	1250.99
629.12	1243.40
629.46	1236.23
629.81	1228.93
630.15	1221.69
630.50	1214.33
630.84	1206.09
631.19	1198.16
631.53	1190.68
631.88	1183.09
632.22	1175.60
632.57	1168.32
632.91	1160.77
633.26	1153.29
633.60	1145.85
633.95	1138.77
634.29	1131.80
634.64	1125.06
634.98	1117.61
635.32	1110.53
635.67	1103.83
636.01	1097.26
636.36	1090.49
636.70	1084.06
637.05	1077.39
637.39	1070.92
637.73	1064.35
638.08	1058.50
638.42	1052.49
638.77	1046.04
639.11	1039.40
639.45	1032.94
639.80	1026.22
640.14	1019.84
640.49	1013.31
640.83	1007.08
641.17	1000.79
641.52	994.44
641.86	988.09
642.20	982.31
642.55	976.01
642.89	969.48
643.23	962.94
643.58	957.15
643.92	950.88
644.26	944.82
644.61	938.75
644.95	932.78
645.29	926.09
645.64	919.30
645.98	912.92
646.32	907.18
646.66	901.04
647.01	895.19
647.35	889.53
647.69	883.68
648.04	878.12
648.38	872.33
648.72	866.31
649.06	860.24
649.41	854.36
649.75	848.29
650.09	842.43
650.43	836.64
650.78	830.51
651.12	824.59
651.46	818.84
651.80	813.09
652.14	807.69
652.49	802.37
652.83	797.18
653.17	791.50
653.51	785.68
653.85	780.32
654.20	774.67
654.54	768.64
654.88	762.90
655.22	756.96
655.56	751.33
655.90	745.90
656.25	740.63
656.59	735.22
656.93	730.16
657.27	724.90
657.61	719.43
657.95	714.38
658.29	709.35
658.64	704.13
658.98	698.82
659.32	693.29
659.66	688.09
660.00	682.87
660.34	677.89
660.68	672.97
661.02	667.93
661.36	663.27
661.70	658.73
662.05	654.42
662.39	650.11
662.73	645.62
663.07	641.22
663.41	636.74
663.75	632.25
664.09	627.74
664.43	623.39
664.77	619.31
665.11	614.96
665.45	610.78
665.79	606.66
666.13	602.55
666.47	598.54
666.81	594.32
667.15	590.08
667.49	586.19
667.83	582.43
668.17	578.50
668.51	574.42
668.85	570.40
669.19	566.52
669.53	562.64
669.87	558.71
670.21	554.99
670.55	551.33
670.89	547.92
671.23	544.50
671.57	541.02
671.91	537.44
672.25	533.96
672.58	530.40
672.92	527.04
673.26	523.87
673.60	520.68
673.94	517.57
674.28	514.76
674.62	511.88
674.96	508.71
675.30	505.79
675.64	502.84
675.97	500.10
676.31	497.19
676.65	494.30
676.99	491.61
677.33	488.81
677.67	486.08
678.01	482.98
678.34	479.96
678.68	477.07
679.02	474.18
679.36	471.45
679.70	468.77
680.04	466.00
680.37	463.09
680.71	460.30
681.05	457.73
681.39	455.02
681.73	452.32
682.06	449.82
682.40	447.27
682.74	444.77
683.08	442.21
683.42	439.63
683.75	437.17
684.09	434.65
684.43	432.12
684.77	429.56
685.10	427.27
685.44	424.97
685.78	422.69
686.12	420.57
686.45	418.27
686.79	415.96
687.13	413.76
687.46	411.60
687.80	409.44
688.14	407.21
688.48	405.15
688.81	402.91
689.15	400.75
689.49	398.61
689.82	396.52
690.16	394.44
690.50	392.51
690.83	390.57
691.17	388.61
691.51	386.75
691.84	384.91
692.18	382.98
692.52	380.99
692.85	379.07
693.19	377.19
693.52	375.36
693.86	373.56
694.20	371.80
694.53	369.99
694.87	368.23
695.21	366.47
695.54	364.66
695.88	362.93
696.21	361.23
696.55	359.53
696.88	357.82
697.22	356.15
697.56	354.52
697.89	352.77
698.23	351.14
698.56	349.49
698.90	347.90
699.23	346.27
699.57	344.71
699.90	343.18
700.24	341.60
700.58	340.08
700.91	338.59
701.25	337.12
701.58	335.74
701.92	334.35
702.25	332.94
702.59	331.55
702.92	330.17
703.26	328.84
703.59	327.55
703.93	326.39
704.26	325.17
704.60	323.88
704.93	322.67
705.26	321.41
705.60	320.26
705.93	319.10
706.27	318.05
706.60	316.99
706.94	315.88
707.27	314.75
707.61	313.67
707.94	312.60
708.27	311.51
708.61	310.42
708.94	309.39
709.28	308.42
709.61	307.43
709.94	306.53
710.28	305.52
710.61	304.57
710.95	303.47
711.28	302.53
711.61	301.57
711.95	300.64
712.28	299.67
712.61	298.69
712.95	297.80
713.28	296.92
713.61	296.04
713.95	295.14
714.28	294.31
714.61	293.45
714.95	292.64
715.28	291.79
715.61	290.92
715.95	290.06
716.28	289.19
716.61	288.42
716.95	287.58
717.28	286.86
717.61	286.12
717.94	285.43
718.28	284.63
718.61	283.88
718.94	283.20
719.27	282.60
719.61	282.01
719.94	281.33
720.27	280.61
720.60	279.96
720.94	279.35
721.27	278.74
721.60	278.18
721.93	277.61
722.27	277.09
722.60	276.56
722.93	276.03
723.26	275.51
723.59	274.95
723.93	274.42
724.26	273.87
724.59	273.33
724.92	272.80
725.25	272.33
725.59	271.85
725.92	271.35
726.25	270.87
726.58	270.38
726.91	269.87
727.24	269.44
727.57	268.97
727.91	268.50
728.24	268.06
728.57	267.58
728.90	267.11
729.23	266.62
729.56	266.24
729.89	265.76
730.22	265.30
730.55	264.81
730.89	264.38
731.22	263.94
731.55	263.47
731.88	263.05
732.21	262.59
732.54	262.16
732.87	261.71
733.20	261.26
733.53	260.88
733.86	260.52
734.19	260.10
734.52	259.70
734.85	259.40
735.18	258.96
735.51	258.58
735.84	258.21
736.17	257.85
736.50	257.42
736.83	257.20
737.16	256.84
737.49	256.53
737.82	256.17
738.15	255.84
738.48	255.51
738.81	255.18
739.14	254.86
739.47	254.54
739.80	254.27
740.13	253.95
740.46	253.58
740.79	253.23
741.12	252.88
741.45	252.56
741.78	252.18
742.11	251.90
742.44	251.55
742.77	251.26
743.10	250.95
743.43	250.64
743.75	250.21
744.08	250.06
744.41	249.77
744.74	249.49
745.07	249.16
745.40	248.89
745.73	248.61
746.06	248.33
746.39	248.07
746.71	247.75
747.04	247.48
747.37	247.20
747.70	246.94
748.03	246.72
748.36	246.52
748.68	246.28
749.01	246.01
749.34	245.78
749.67	245.53
750.00	245.32
750.33	245.15
750.65	244.94
750.98	244.59
751.31	244.37
751.64	244.15
751.97	244.01
752.29	243.81
752.62	243.58
752.95	243.35
753.28	243.12
753.60	242.95
753.93	242.75
754.26	242.56
754.59	242.36
754.91	242.12
755.24	241.89
755.57	241.70
755.90	241.56
756.22	241.38
756.55	241.21
756.88	241.00
757.20	240.74
757.53	240.57
757.86	240.42
758.19	240.25
758.51	240.11
758.84	239.88
759.17	239.71
759.49	239.55
759.82	239.47
760.15	239.31
760.47	239.17
760.80	239.01
761.13	238.91
761.45	238.76
761.78	238.64
762.11	238.51
762.43	238.38
762.76	238.23
763.08	238.11
763.41	238.00
763.74	237.88
764.06	237.75
764.39	237.62
764.71	237.46
765.04	237.34
765.37	237.19
765.69	237.09
766.02	236.99
766.34	236.88
766.67	236.70
767.00	236.61
767.32	236.53
767.65	236.49
767.97	236.36
768.30	236.26
768.62	236.18
768.95	236.05
769.27	235.93
769.60	235.81
769.92	235.71
770.25	235.58
770.57	235.49
770.90	235.40
771.22	235.31
771.55	235.24
771.87	235.14
772.20	235.06
772.52	235.03
772.85	235.01
773.17	234.94
773.50	234.88
773.82	234.82
774.15	234.72
774.47	234.56
774.80	234.48
775.12	234.38
775.45	234.28
775.77	234.22
776.09	234.15
776.42	234.09
776.74	234.01
777.07	233.92
777.39	233.84
777.72	233.81
778.04	233.74
778.36	233.66
778.69	233.62
779.01	233.59
779.33	233.46
779.66	233.28
779.98	233.19
780.31	233.11
780.63	233.02
780.95	232.97
781.28	232.93
781.60	232.87
781.92	232.83
782.25	232.80
782.57	232.73
782.89	232.65
783.22	232.57
783.54	232.51
783.86	232.45
784.19	232.37
784.51	232.30
784.83	232.24
785.16	232.15
785.48	232.09
785.80	232.04
786.12	231.98
786.45	231.96
786.77	231.91
787.09	231.84
787.42	231.78
787.74	231.71
788.06	231.66
788.38	231.60
788.71	231.50
789.03	231.41
789.35	231.39
789.67	231.33
789.99	231.29
790.32	231.24
790.64	231.22
790.96	231.24
791.28	231.17
791.61	231.10
791.93	231.06
792.25	230.98
792.57	231.00
792.89	230.94
793.21	230.90
793.54	230.88
793.86	230.86
794.18	230.83
794.50	230.77
794.82	230.71
795.14	230.67
795.47	230.70
795.79	230.70
796.11	230.61
796.43	230.61
796.75	230.59
797.07	230.54
797.39	230.50
797.71	230.42
798.04	230.39
798.36	230.37
798.68	230.35
799.00	230.33
799.32	230.24
799.64	230.25
799.96	230.22
800.28	230.18
800.60	230.15
800.92	230.12
801.24	230.11
801.56	230.12
801.89	230.09
802.21	230.04
802.53	230.00
802.85	229.99
803.17	229.99
803.49	229.93
803.81	229.90
804.13	229.86
804.45	229.83
804.77	229.85
805.09	229.84
805.41	229.81
805.73	229.78
806.05	229.72
806.37	229.67
806.69	229.67
807.01	229.62
807.33	229.63
807.65	229.56
807.97	229.57
808.28	229.54
808.60	229.50
808.92	229.48
809.24	229.51
809.56	229.49
809.88	229.47
810.20	229.50
810.52	229.48
810.84	229.49
811.16	229.47
811.48	229.42
811.80	229.41
812.12	229.38
812.43	229.39
812.75	229.39
813.07	229.39
813.39	229.35
813.71	229.31
814.03	229.26
814.35	229.25
814.67	229.19
814.98	229.14
815.30	229.16
815.62	229.12
815.94	229.05
816.26	229.05
816.58	228.99
816.89	228.93
817.21	228.87
817.53	228.80
817.85	228.76
818.17	228.71
818.48	228.67
818.80	228.68
819.12	228.64
819.44	228.59
819.76	228.55
820.07	228.51
820.39	228.50
820.71	228.49
821.03	228.46
821.34	228.42
821.66	228.40
821.98	228.37
822.30	228.36
822.61	228.39
822.93	228.36
823.25	228.35
823.57	228.34
823.88	228.38
824.20	228.37
824.52	228.38
824.83	228.37
825.15	228.35
825.47	228.32
825.79	228.31
826.10	228.25
826.42	228.22
826.74	228.21
827.05	228.17
827.37	228.11
827.69	228.07
828.00	228.06
828.32	228.05
828.64	228.03
828.95	228.03
829.27	227.99
829.58	227.96
829.90	227.94
830.22	227.90
830.53	227.84
830.85	227.83
831.17	227.79
831.48	227.77
831.80	227.76
832.11	227.72
832.43	227.69
832.75	227.70
833.06	227.75
833.38	227.70
833.69	227.70
834.01	227.73
834.32	227.74
834.64	227.72
834.96	227.71
835.27	227.68
835.59	227.64
835.90	227.58
836.22	227.56
836.53	227.54
836.85	227.55
837.16	227.63
837.48	227.65
837.79	227.67
838.11	227.68
838.42	227.67
838.74	227.71
839.05	227.69
839.37	227.71
839.68	227.65
840.00	227.67
840.31	227.68
840.63	227.68
840.94	227.70
841.26	227.70
841.57	227.72
841.88	227.74
842.20	227.72
842.51	227.73
842.83	227.72
843.14	227.81
843.46	227.81
843.77	227.77
844.08	227.76
844.40	227.75
844.71	227.73
845.03	227.73
845.34	227.71
845.65	227.73
845.97	227.73
846.28	227.76
846.60	227.78
846.91	227.79
847.22	227.81
847.54	227.82
847.85	227.84
848.16	227.81
848.48	227.79
848.79	227.86
849.10	227.88
849.42	227.93
849.73	227.83
850.04	227.88
850.36	227.85
850.67	227.87
850.98	227.87
851.30	227.90
851.61	227.88
851.92	227.86
852.23	227.89
852.55	227.85
852.86	227.85
853.17	227.86
853.49	227.85
853.80	227.86
854.11	227.86
854.42	227.86
854.74	227.85
855.05	227.88
855.36	227.82
855.67	227.80
855.99	227.75
856.30	227.86
856.61	227.81
856.92	227.80
857.23	227.78
857.55	227.76
857.86	227.71
858.17	227.73
858.48	227.73
858.79	227.72
859.11	227.74
859.42	227.70
859.73	227.66
860.04	227.68
860.35	227.62
860.66	227.58
860.98	227.57
861.29	227.55
861.60	227.52
861.91	227.55
862.22	227.55
862.53	227.52
862.84	227.38
863.16	227.39
863.47	227.36
863.78	227.35
864.09	227.36
864.40	227.37
864.71	227.36
865.02	227.37
865.33	227.33
865.64	227.29
865.95	227.30
866.27	227.35
866.58	227.32
866.89	227.34
867.20	227.31
867.51	227.25
867.82	227.29
868.13	227.30
868.44	227.24
868.75	227.24
869.06	227.24
869.37	227.27
869.68	227.23
869.99	227.25
870.30	227.22
870.61	227.19
870.92	227.17
871.23	227.15
871.54	227.15
871.85	227.17
872.16	227.22
872.47	227.18
872.78	227.12
873.09	227.12
873.40	227.09
873.71	227.10
874.02	227.10
874.33	227.05
874.64	227.03
874.95	227.05
875.26	227.01
875.56	227.03
875.87	227.01
876.18	227.04
876.49	227.14
876.80	227.14
877.11	227.13
877.42	227.13
877.73	227.15
878.04	227.12
878.35	227.12
878.66	227.09
878.96	227.11
879.27	227.13
879.58	227.09
879.89	227.13
880.20	227.15
880.51	227.16
880.82	227.18
881.12	227.20
881.43	227.16
881.74	227.18
882.05	227.20
882.36	227.22
882.67	227.22
882.97	227.12
883.28	227.13
883.59	227.18
883.90	227.18
884.21	227.19
884.51	227.19
884.82	227.20
885.13	227.19
885.44	227.20
885.74	227.19
886.05	227.20
886.36	227.19
886.67	227.15
886.98	227.23
887.28	227.23
887.59	227.21
887.90	227.20
888.20	227.21
888.51	227.21
888.82	227.16
889.13	227.18
889.43	227.24
889.74	227.25
890.05	227.23
890.35	227.25
890.66	227.23
890.97	227.25
891.28	227.24
891.58	227.25
891.89	227.25
892.20	227.26
892.50	227.26
892.81	227.25
893.12	227.27
893.42	227.21
893.73	227.21
894.04	227.20
894.34	227.22
894.65	227.22
894.95	227.18
895.26	227.21
895.57	227.22
895.87	227.13
896.18	227.11
896.48	227.09
896.79	227.03
897.10	227.04
897.40	227.01
897.71	226.99
898.01	226.97
898.32	226.96
898.63	226.95
898.93	226.97
899.24	226.96
899.54	226.93
899.85	226.93
900.15	226.90
900.46	226.93
900.76	226.93
901.07	226.94
901.38	226.94
901.68	226.95
901.99	226.91
902.29	226.93
902.60	226.93
902.90	226.94
903.21	226.97
903.51	226.93
903.82	226.96
904.12	226.97
904.43	226.99
904.73	226.97
905.03	226.95
905.34	227.02
905.64	227.01
905.95	227.02
906.25	227.01
906.56	227.03
906.86	227.02
907.17	227.00
907.47	226.96
907.77	226.96
908.08	226.91
908.38	226.91
908.69	226.87
908.99	226.89
909.30	226.92
909.60	226.90
909.90	226.91
910.21	226.85
910.51	226.82
910.81	226.80
911.12	226.82
911.42	226.82
911.73	226.74
912.03	226.74
912.33	226.75
912.64	226.73
912.94	226.72
913.24	226.68
913.55	226.69
913.85	226.67
914.15	226.69
914.46	226.71
914.76	226.70
915.06	226.72
915.37	226.67
915.67	226.62
915.97	226.63
916.27	226.62
916.58	226.66
916.88	226.65
917.18	226.67
917.49	226.71
917.79	226.72
918.09	226.73
918.39	226.78
918.70	226.78
919.00	226.79
919.30	226.82
919.60	226.85
919.91	226.85
920.21	226.89
920.51	226.87
920.81	226.89
921.12	226.93
921.42	226.94
921.72	226.99
922.02	227.04
922.32	227.07
922.63	227.11
922.93	227.17
923.23	227.21
923.53	227.21
923.83	227.15
924.13	227.17
924.44	227.18
924.74	227.18
925.04	227.21
925.34	227.22
925.64	227.22
925.94	227.21
926.24	227.27
926.55	227.27
926.85	227.29
927.15	227.33
927.45	227.33
927.75	227.33
928.05	227.33
928.35	227.31
928.65	227.32
928.95	227.36
929.26	227.31
929.56	227.31
929.86	227.31
930.16	227.34
930.46	227.32
930.76	227.35
931.06	227.31
931.36	227.31
931.66	227.32
931.96	227.34
932.26	227.38
932.56	227.35
932.86	227.33
933.16	227.33
933.46	227.29
933.76	227.30
934.06	227.32
934.36	227.35
934.66	227.35
934.96	227.34
935.26	227.32
935.56	227.33
935.86	227.31
936.16	227.30
936.46	227.29
936.76	227.29
937.06	227.24
937.36	227.27
937.66	227.29
937.96	227.27
938.26	227.22
938.56	227.18
938.86	227.17
939.16	227.18
939.46	227.17
939.76	227.17
940.06	227.12
940.35	227.08
940.65	227.04
940.95	227.03
941.25	227.02
941.55	226.98
941.85	226.97
942.15	227.01
942.45	227.02
942.75	227.03
943.04	227.03
943.34	227.03
943.64	226.98
943.94	226.93
944.24	226.93
944.54	226.96
944.84	226.98
945.13	226.97
945.43	227.00
945.73	226.99
946.03	226.98
946.33	226.98
946.62	226.92
946.92	226.92
947.22	226.90
947.52	226.89
947.82	226.89
948.11	226.87
948.41	226.84
948.71	226.82
949.01	226.81
949.31	226.77
949.60	226.76
949.90	226.77
950.20	226.79
950.50	226.78
950.79	226.74
951.09	226.75
951.39	226.75
951.69	226.70
951.98	226.73
952.28	226.72
952.58	226.71
952.87	226.76
953.17	226.77
953.47	226.79
953.76	226.78
954.06	226.78
954.36	226.75
954.66	226.74
954.95	226.75
955.25	226.76
955.55	226.80
955.84	226.81
956.14	226.82
956.44	226.81
956.73	226.80
957.03	226.81
957.32	226.81
957.62	226.84
957.92	226.88
958.21	226.88
958.51	226.99
958.81	227.04
959.10	227.08
959.40	227.11
959.69	227.09
959.99	227.13
960.29	227.17
960.58	227.17
960.88	227.21
961.17	227.23
961.47	227.24
961.76	227.22
962.06	227.25
962.36	227.23
962.65	227.25
962.95	227.27
963.24	227.30
963.54	227.30
963.83	227.31
964.13	227.31
964.42	227.28
964.72	227.22
965.01	227.21
965.31	227.19
965.60	227.14
965.90	227.23
966.19	227.20
966.49	227.19
966.78	227.21
967.08	227.21
967.37	227.21
967.67	227.19
967.96	227.20
968.26	227.20
968.55	227.23
968.85	227.23
969.14	227.26
969.43	227.22
969.73	227.24
970.02	227.20
970.32	227.18
970.61	227.18
970.91	227.17
971.20	227.16
971.49	227.14
971.79	227.16
972.08	227.10
972.38	227.10
972.67	227.08
972.96	227.09
973.26	227.07
973.55	227.09
973.85	227.11
974.14	227.10
974.43	227.10
974.73	227.10
975.02	227.09
975.31	227.09
975.61	227.07
975.90	227.03
976.19	227.03
976.49	227.03
976.78	227.05
977.07	227.03
977.37	227.02
977.66	227.03
977.95	227.01
978.24	227.01
978.54	227.00
978.83	227.00
979.12	227.03
979.42	227.00
979.71	226.96
980.00	226.93
980.29	226.94
980.59	226.89
980.88	226.89
981.17	226.86
981.46	226.82
981.76	226.86
982.05	226.89
982.34	226.89
982.63	226.87
982.93	226.86
983.22	226.87
983.51	226.91
983.80	226.89
984.09	226.88
984.39	226.84
984.68	226.85
984.97	226.83
985.26	226.80
985.55	226.81
985.85	226.80
986.14	226.81
986.43	226.77
986.72	226.79
987.01	226.74
987.30	226.76
987.59	226.78
987.89	226.72
988.18	226.70
988.47	226.69
988.76	226.69
989.05	226.69
989.34	226.66
989.63	226.63
989.92	226.64
990.22	226.63
990.51	226.68
990.80	226.64
991.09	226.69
991.38	226.70
991.67	226.69
991.96	226.68
992.25	226.67
992.54	226.69
992.83	226.72
993.12	226.73
993.41	226.72
993.70	226.71
993.99	226.75
994.28	226.77
994.58	226.79
994.87	226.78
995.16	226.77
995.45	226.79
995.74	226.75
996.03	226.75
996.32	226.76
996.61	226.74
996.90	226.78
997.19	226.73
997.48	226.70
997.77	226.68
998.06	226.70
998.34	226.72
998.63	226.70
998.92	226.67
999.21	226.67
999.50	226.70
999.79	226.71
1000.08	226.74
1000.37	226.72
1000.66	226.70
1000.95	226.71
1001.24	226.72
1001.53	226.71
1001.82	226.75
1002.11	226.75
1002.40	226.78
1002.68	226.82
1002.97	226.89
1003.26	226.90
1003.55	226.92
1003.84	226.95
1004.13	226.97
1004.42	226.94
1004.71	226.94
1004.99	226.93
1005.28	226.96
1005.57	226.93
1005.86	226.87
1006.15	226.87
1006.44	226.84
1006.72	226.85
1007.01	226.81
1007.30	226.79
1007.59	226.80
1007.88	226.78
1008.17	226.81
1008.45	226.78
1008.74	226.74
1009.03	226.68
1009.32	226.66
1009.60	226.64
1009.89	226.62
1010.18	226.58
1010.47	226.59
1010.76	226.60
1011.04	226.63
1011.33	226.66
1011.62	226.68
1011.91	226.69
1012.19	226.66
1012.48	226.70
1012.77	226.73
1013.05	226.83
1013.34	226.86
1013.63	226.84
1013.92	226.84
1014.20	226.80
1014.49	226.82
1014.78	226.79
1015.06	226.75
1015.35	226.79
1015.64	226.83
1015.92	226.80
1016.21	226.82
1016.50	226.81
1016.78	226.81
1017.07	226.81
1017.36	226.76
1017.64	226.74
1017.93	226.78
1018.22	226.78
1018.50	226.71
1018.79	226.70
1019.08	226.60
1019.36	226.60
1019.65	226.60
1019.93	226.64
1020.22	226.66
1020.51	226.71
1020.79	226.71
1021.08	226.33
1021.36	225.83
1021.65	226.77
1021.94	226.41
1022.22	226.66
1022.51	226.70
1022.79	227.31
1023.08	226.72
1023.36	228.28
1023.65	226.39
>>>>>End Processed Spectral Data<<<<<
