SpectraSuite Data File
++++++++++++++++++++++++++++++++++++
Date: Fri Feb 01 15:55:18 EST 2013
User: group
Dark Spectrum Present: No
Reference Spectrum Present: No
Number of Sampled Component Spectra: 1
Spectrometers: USB2E7196
Integration Time (usec): 35000 (USB2E7196)
Spectra Averaged: 100 (USB2E7196)
Boxcar Smoothing: 10 (USB2E7196)
Correct for Electrical Dark: No (USB2E7196)
Strobe/Lamp Enabled: No (USB2E7196)
Correct for Detector Non-linearity: No (USB2E7196)
Correct for Stray Light: No (USB2E7196)
Number of Pixels in Processed Spectrum: 2048
>>>>>Begin Processed Spectral Data<<<<<
339.09	0.00
339.48	214.30
339.86	216.55
340.24	217.83
340.63	218.63
341.01	222.07
341.39	222.00
341.78	223.25
342.16	224.78
342.54	224.56
342.93	213.20
343.31	223.97
343.69	224.54
344.07	224.99
344.46	225.41
344.84	225.80
345.22	226.03
345.60	226.27
345.99	226.42
346.37	226.54
346.75	226.66
347.13	226.72
347.52	226.78
347.90	226.82
348.28	226.81
348.66	226.83
349.05	226.81
349.43	226.84
349.81	226.91
350.19	226.95
350.57	227.02
350.96	227.09
351.34	227.19
351.72	227.27
352.10	227.38
352.48	227.43
352.87	227.49
353.25	227.52
353.63	227.56
354.01	227.64
354.39	227.71
354.77	227.79
355.15	227.91
355.54	227.97
355.92	228.04
356.30	228.13
356.68	228.29
357.06	228.38
357.44	228.43
357.82	228.49
358.20	228.61
358.58	228.68
358.97	228.75
359.35	228.83
359.73	228.88
360.11	228.93
360.49	228.99
360.87	229.05
361.25	229.14
361.63	229.26
362.01	229.33
362.39	229.34
362.77	229.40
363.15	229.43
363.53	229.44
363.91	229.45
364.29	229.48
364.67	229.39
365.05	229.38
365.43	229.41
365.81	229.43
366.19	229.45
366.57	229.46
366.95	229.47
367.33	229.41
367.71	229.42
368.09	229.43
368.47	229.42
368.85	229.39
369.23	229.37
369.61	229.30
369.99	229.29
370.37	229.28
370.75	229.28
371.13	229.23
371.51	229.22
371.89	229.19
372.27	229.14
372.65	229.09
373.03	229.05
373.41	228.97
373.78	228.91
374.16	228.79
374.54	228.70
374.92	228.61
375.30	228.56
375.68	228.50
376.06	228.40
376.44	228.32
376.82	228.27
377.19	228.23
377.57	228.17
377.95	228.06
378.33	227.98
378.71	227.81
379.09	227.72
379.47	227.64
379.84	227.58
380.22	227.49
380.60	227.40
380.98	227.35
381.36	227.29
381.73	227.20
382.11	227.15
382.49	227.08
382.87	227.00
383.25	226.92
383.62	226.96
384.00	226.91
384.38	226.90
384.76	226.84
385.13	226.79
385.51	226.71
385.89	226.65
386.27	226.61
386.64	226.61
387.02	226.59
387.40	226.54
387.78	226.49
388.15	226.46
388.53	226.43
388.91	226.36
389.29	226.32
389.66	226.30
390.04	226.28
390.42	226.26
390.79	226.26
391.17	226.25
391.55	226.10
391.92	226.07
392.30	226.05
392.68	226.02
393.05	226.05
393.43	226.07
393.81	226.09
394.18	226.11
394.56	226.11
394.94	226.12
395.31	226.14
395.69	226.22
396.06	226.27
396.44	226.31
396.82	226.36
397.19	226.47
397.57	226.54
397.95	226.61
398.32	226.65
398.70	226.71
399.07	226.81
399.45	226.91
399.82	226.97
400.20	227.03
400.58	227.09
400.95	227.12
401.33	227.19
401.70	227.34
402.08	227.42
402.45	227.53
402.83	227.65
403.20	227.79
403.58	227.87
403.95	227.99
404.33	228.13
404.71	228.25
405.08	228.46
405.46	228.57
405.83	228.70
406.21	228.87
406.58	229.03
406.96	229.19
407.33	229.38
407.70	229.60
408.08	229.87
408.45	230.13
408.83	230.39
409.20	230.59
409.58	230.76
409.95	231.02
410.33	231.29
410.70	231.53
411.08	231.84
411.45	232.13
411.82	232.45
412.20	232.82
412.57	233.24
412.95	233.49
413.32	233.92
413.69	234.34
414.07	234.78
414.44	235.23
414.82	235.70
415.19	236.22
415.56	236.74
415.94	237.30
416.31	237.95
416.68	238.53
417.06	239.23
417.43	239.96
417.81	240.71
418.18	241.48
418.55	242.32
418.93	243.18
419.30	244.07
419.67	245.00
420.04	245.94
420.42	246.94
420.79	248.14
421.16	249.29
421.54	250.47
421.91	251.67
422.28	252.95
422.66	254.30
423.03	255.60
423.40	256.96
423.77	258.35
424.15	259.73
424.52	261.23
424.89	262.86
425.26	264.37
425.64	265.83
426.01	267.42
426.38	269.03
426.75	270.67
427.13	272.40
427.50	274.19
427.87	276.08
428.24	277.93
428.61	279.59
428.99	281.52
429.36	283.63
429.73	285.68
430.10	287.70
430.47	289.69
430.85	291.78
431.22	294.01
431.59	296.38
431.96	298.63
432.33	301.16
432.70	303.54
433.08	306.34
433.45	309.00
433.82	311.59
434.19	314.47
434.56	317.26
434.93	319.89
435.30	322.53
435.68	325.39
436.05	328.23
436.42	331.06
436.79	333.54
437.16	336.25
437.53	339.06
437.90	341.83
438.27	344.59
438.64	347.44
439.01	350.01
439.38	352.25
439.75	354.42
440.13	356.88
440.50	359.24
440.87	361.08
441.24	362.97
441.61	365.12
441.98	366.67
442.35	368.52
442.72	370.40
443.09	372.17
443.46	373.17
443.83	373.76
444.20	374.27
444.57	375.11
444.94	375.38
445.31	375.74
445.68	376.13
446.05	376.20
446.42	375.82
446.79	375.42
447.16	374.94
447.53	374.63
447.90	373.44
448.27	372.24
448.64	370.71
449.01	369.58
449.37	367.61
449.74	365.69
450.11	363.43
450.48	361.00
450.85	358.51
451.22	356.39
451.59	354.35
451.96	352.40
452.33	349.86
452.70	347.48
453.07	344.68
453.43	341.80
453.80	339.08
454.17	336.39
454.54	333.83
454.91	331.15
455.28	328.48
455.65	325.98
456.02	323.54
456.38	321.37
456.75	318.72
457.12	316.50
457.49	314.31
457.86	312.15
458.23	310.28
458.59	308.23
458.96	306.10
459.33	304.27
459.70	302.44
460.07	300.89
460.43	299.18
460.80	297.55
461.17	296.08
461.54	294.56
461.91	293.16
462.27	291.74
462.64	290.51
463.01	289.14
463.38	287.87
463.74	286.51
464.11	285.35
464.48	284.34
464.85	283.23
465.21	282.35
465.58	281.41
465.95	280.30
466.32	279.36
466.68	278.50
467.05	277.60
467.42	276.69
467.78	275.76
468.15	274.89
468.52	274.24
468.88	273.38
469.25	272.62
469.62	271.99
469.98	271.32
470.35	270.66
470.72	270.04
471.08	269.40
471.45	268.83
471.82	268.29
472.18	267.68
472.55	267.25
472.92	266.69
473.28	266.22
473.65	265.76
474.02	265.36
474.38	264.96
474.75	264.60
475.11	264.28
475.48	264.00
475.85	263.79
476.21	263.53
476.58	263.33
476.94	263.14
477.31	262.96
477.67	262.76
478.04	262.64
478.41	262.60
478.77	262.64
479.14	262.55
479.50	262.56
479.87	262.61
480.23	262.66
480.60	262.72
480.96	262.83
481.33	263.06
481.69	263.20
482.06	263.40
482.42	263.62
482.79	263.87
483.15	264.20
483.52	264.57
483.88	264.93
484.25	265.31
484.61	265.73
484.98	266.18
485.34	266.79
485.71	267.42
486.07	268.05
486.44	268.60
486.80	269.35
487.17	270.11
487.53	270.94
487.90	271.84
488.26	272.81
488.62	273.80
488.99	274.77
489.35	275.85
489.72	277.01
490.08	278.22
490.44	279.45
490.81	280.80
491.17	282.13
491.54	283.65
491.90	285.23
492.26	286.92
492.63	288.68
492.99	290.51
493.36	292.38
493.72	294.45
494.08	296.60
494.45	298.86
494.81	301.23
495.17	303.70
495.54	306.25
495.90	308.95
496.26	311.78
496.63	314.81
496.99	317.98
497.35	321.20
497.72	324.59
498.08	328.14
498.44	331.80
498.80	335.77
499.17	339.78
499.53	343.97
499.89	348.35
500.26	352.89
500.62	357.53
500.98	362.52
501.34	367.55
501.71	372.90
502.07	378.36
502.43	383.94
502.79	389.72
503.16	395.80
503.52	402.12
503.88	408.49
504.24	415.06
504.60	421.88
504.97	429.05
505.33	436.43
505.69	444.12
506.05	451.92
506.41	459.77
506.78	467.93
507.14	476.31
507.50	485.04
507.86	494.00
508.22	503.19
508.59	512.42
508.95	522.01
509.31	531.80
509.67	541.89
510.03	552.24
510.39	562.80
510.75	573.61
511.12	584.49
511.48	595.81
511.84	607.31
512.20	618.84
512.56	630.78
512.92	642.94
513.28	655.24
513.64	667.75
514.00	680.46
514.37	693.43
514.73	706.55
515.09	719.57
515.45	732.90
515.81	746.43
516.17	760.40
516.53	774.57
516.89	788.68
517.25	802.82
517.61	817.22
517.97	831.69
518.33	846.09
518.69	860.84
519.05	875.80
519.41	890.97
519.77	906.53
520.13	921.86
520.49	937.17
520.85	952.50
521.21	968.25
521.57	984.54
521.93	1000.29
522.29	1016.72
522.65	1032.98
523.01	1049.21
523.37	1065.24
523.73	1081.38
524.09	1097.38
524.45	1113.72
524.81	1130.40
525.17	1147.17
525.53	1164.03
525.89	1180.93
526.25	1197.75
526.61	1214.11
526.97	1230.79
527.33	1247.31
527.68	1264.02
528.04	1280.52
528.40	1297.22
528.76	1314.22
529.12	1330.76
529.48	1347.59
529.84	1363.41
530.20	1379.92
530.56	1396.94
530.91	1414.26
531.27	1431.01
531.63	1447.42
531.99	1463.95
532.35	1479.79
532.71	1495.63
533.07	1511.81
533.42	1527.68
533.78	1543.62
534.14	1559.90
534.50	1575.29
534.86	1591.09
535.21	1606.22
535.57	1622.13
535.93	1637.64
536.29	1652.42
536.65	1667.51
537.00	1682.21
537.36	1697.65
537.72	1712.22
538.08	1726.60
538.44	1740.54
538.79	1754.41
539.15	1768.19
539.51	1781.87
539.87	1796.28
540.22	1810.03
540.58	1823.89
540.94	1837.25
541.29	1850.19
541.65	1862.90
542.01	1876.01
542.37	1888.28
542.72	1900.75
543.08	1912.50
543.44	1924.88
543.79	1936.06
544.15	1946.95
544.51	1958.58
544.87	1969.45
545.22	1980.24
545.58	1990.43
545.94	2000.13
546.29	2010.09
546.65	2019.84
547.01	2029.03
547.36	2037.64
547.72	2046.08
548.07	2053.72
548.43	2061.76
548.79	2069.72
549.14	2077.22
549.50	2084.55
549.86	2092.36
550.21	2099.60
550.57	2106.67
550.92	2113.17
551.28	2120.21
551.64	2127.24
551.99	2133.75
552.35	2139.94
552.70	2146.03
553.06	2151.93
553.41	2158.36
553.77	2164.18
554.13	2170.26
554.48	2176.45
554.84	2182.03
555.19	2187.41
555.55	2192.59
555.90	2197.06
556.26	2202.05
556.61	2206.89
556.97	2211.23
557.32	2215.27
557.68	2219.33
558.03	2223.76
558.39	2227.37
558.74	2232.05
559.10	2235.88
559.45	2239.47
559.81	2243.83
560.16	2247.66
560.52	2250.88
560.87	2254.13
561.23	2256.77
561.58	2259.72
561.94	2262.25
562.29	2264.46
562.64	2266.99
563.00	2269.53
563.35	2273.12
563.71	2276.21
564.06	2279.28
564.42	2281.90
564.77	2284.21
565.12	2286.47
565.48	2288.32
565.83	2290.30
566.19	2291.57
566.54	2292.51
566.89	2293.47
567.25	2293.97
567.60	2295.34
567.96	2297.22
568.31	2297.96
568.66	2299.18
569.02	2299.63
569.37	2299.90
569.72	2300.77
570.08	2301.01
570.43	2301.20
570.78	2300.56
571.14	2299.05
571.49	2297.65
571.84	2297.61
572.20	2296.60
572.55	2295.63
572.90	2294.10
573.26	2292.78
573.61	2291.05
573.96	2289.20
574.31	2286.46
574.67	2283.44
575.02	2279.82
575.37	2276.20
575.72	2272.55
576.08	2269.19
576.43	2266.09
576.78	2262.57
577.13	2259.43
577.49	2256.47
577.84	2252.86
578.19	2249.24
578.54	2245.56
578.90	2241.32
579.25	2235.84
579.60	2230.84
579.95	2225.90
580.30	2220.79
580.66	2215.62
581.01	2210.66
581.36	2205.77
581.71	2201.65
582.06	2197.16
582.42	2192.70
582.77	2187.51
583.12	2183.00
583.47	2178.30
583.82	2173.25
584.17	2168.08
584.53	2162.62
584.88	2156.75
585.23	2151.03
585.58	2145.46
585.93	2140.04
586.28	2135.37
586.63	2130.20
586.98	2125.19
587.34	2120.33
587.69	2115.60
588.04	2110.22
588.39	2104.68
588.74	2098.30
589.09	2092.15
589.44	2085.50
589.79	2079.56
590.14	2074.09
590.49	2067.38
590.84	2061.02
591.19	2054.94
591.54	2048.38
591.89	2041.09
592.25	2034.28
592.60	2027.10
592.95	2019.43
593.30	2012.04
593.65	2004.50
594.00	1997.50
594.35	1990.21
594.70	1982.32
595.05	1974.95
595.40	1967.66
595.75	1960.07
596.10	1953.92
596.45	1947.10
596.80	1940.95
597.15	1934.19
597.50	1927.02
597.85	1920.69
598.19	1914.14
598.54	1906.94
598.89	1900.32
599.24	1894.42
599.59	1887.79
599.94	1881.56
600.29	1875.32
600.64	1868.85
600.99	1861.42
601.34	1854.62
601.69	1847.75
602.04	1840.81
602.39	1833.57
602.74	1826.75
603.08	1819.96
603.43	1813.14
603.78	1805.80
604.13	1798.43
604.48	1791.15
604.83	1784.17
605.18	1777.08
605.53	1768.91
605.87	1761.00
606.22	1753.69
606.57	1745.59
606.92	1738.33
607.27	1731.21
607.62	1724.35
607.96	1716.96
608.31	1710.27
608.66	1702.50
609.01	1694.85
609.36	1687.24
609.70	1679.21
610.05	1671.18
610.40	1663.44
610.75	1655.00
611.10	1647.39
611.44	1638.97
611.79	1631.01
612.14	1622.47
612.49	1613.40
612.83	1605.04
613.18	1596.97
613.53	1588.91
613.88	1580.42
614.22	1572.09
614.57	1563.42
614.92	1555.23
615.27	1547.68
615.61	1539.31
615.96	1531.34
616.31	1523.76
616.65	1516.31
617.00	1508.76
617.35	1501.11
617.70	1492.76
618.04	1484.30
618.39	1476.15
618.74	1468.62
619.08	1460.30
619.43	1452.61
619.78	1445.72
620.12	1438.49
620.47	1430.82
620.82	1422.68
621.16	1415.34
621.51	1407.82
621.85	1400.22
622.20	1391.80
622.55	1383.43
622.89	1375.58
623.24	1368.08
623.59	1360.72
623.93	1353.31
624.28	1346.07
624.62	1338.48
624.97	1331.34
625.32	1324.61
625.66	1317.56
626.01	1310.37
626.35	1302.91
626.70	1295.24
627.04	1287.52
627.39	1279.75
627.73	1272.43
628.08	1265.49
628.43	1258.12
628.77	1250.70
629.12	1243.16
629.46	1235.89
629.81	1228.65
630.15	1221.38
630.50	1213.89
630.84	1205.63
631.19	1197.80
631.53	1190.34
631.88	1182.94
632.22	1175.30
632.57	1168.06
632.91	1160.47
633.26	1153.05
633.60	1145.71
633.95	1138.60
634.29	1131.62
634.64	1125.02
634.98	1117.70
635.32	1110.48
635.67	1103.94
636.01	1097.24
636.36	1090.46
636.70	1083.96
637.05	1077.27
637.39	1070.90
637.73	1064.37
638.08	1058.46
638.42	1052.38
638.77	1045.82
639.11	1039.05
639.45	1032.77
639.80	1026.09
640.14	1019.65
640.49	1013.17
640.83	1006.78
641.17	1000.49
641.52	994.02
641.86	987.56
642.20	981.60
642.55	975.44
642.89	968.92
643.23	962.42
643.58	956.56
643.92	950.38
644.26	944.25
644.61	938.22
644.95	932.17
645.29	925.68
645.64	918.92
645.98	912.59
646.32	906.91
646.66	900.84
647.01	895.01
647.35	889.31
647.69	883.44
648.04	877.97
648.38	872.22
648.72	866.22
649.06	860.05
649.41	854.29
649.75	848.18
650.09	842.16
650.43	836.33
650.78	830.20
651.12	824.29
651.46	818.53
651.80	812.72
652.14	807.24
652.49	801.84
652.83	796.70
653.17	790.98
653.51	785.17
653.85	779.80
654.20	774.16
654.54	768.16
654.88	762.36
655.22	756.48
655.56	750.79
655.90	745.35
656.25	740.14
656.59	734.74
656.93	729.67
657.27	724.59
657.61	719.17
657.95	714.01
658.29	708.99
658.64	703.80
658.98	698.54
659.32	693.10
659.66	687.84
660.00	682.46
660.34	677.58
660.68	672.62
661.02	667.58
661.36	662.84
661.70	658.34
662.05	653.96
662.39	649.65
662.73	645.18
663.07	640.79
663.41	636.37
663.75	631.80
664.09	627.25
664.43	622.84
664.77	618.79
665.11	614.59
665.45	610.48
665.79	606.34
666.13	602.19
666.47	598.13
666.81	593.98
667.15	589.88
667.49	585.95
667.83	582.18
668.17	578.22
668.51	574.16
668.85	570.14
669.19	566.44
669.53	562.54
669.87	558.70
670.21	555.05
670.55	551.40
670.89	548.04
671.23	544.64
671.57	541.09
671.91	537.48
672.25	534.02
672.58	530.41
672.92	527.08
673.26	523.88
673.60	520.76
673.94	517.68
674.28	514.81
674.62	511.86
674.96	508.71
675.30	505.80
675.64	502.91
675.97	500.08
676.31	497.13
676.65	494.19
676.99	491.47
677.33	488.53
677.67	485.74
678.01	482.71
678.34	479.73
678.68	476.89
679.02	474.11
679.36	471.37
679.70	468.71
680.04	465.98
680.37	463.08
680.71	460.26
681.05	457.63
681.39	454.86
681.73	452.20
682.06	449.69
682.40	447.16
682.74	444.67
683.08	442.20
683.42	439.60
683.75	437.14
684.09	434.60
684.43	432.18
684.77	429.71
685.10	427.34
685.44	425.00
685.78	422.70
686.12	420.46
686.45	418.18
686.79	415.85
687.13	413.66
687.46	411.54
687.80	409.37
688.14	407.17
688.48	405.17
688.81	402.92
689.15	400.78
689.49	398.67
689.82	396.57
690.16	394.48
690.50	392.54
690.83	390.53
691.17	388.50
691.51	386.60
691.84	384.73
692.18	382.84
692.52	380.87
692.85	378.97
693.19	377.10
693.52	375.20
693.86	373.40
694.20	371.56
694.53	369.75
694.87	367.94
695.21	366.18
695.54	364.33
695.88	362.66
696.21	360.92
696.55	359.22
696.88	357.51
697.22	355.84
697.56	354.21
697.89	352.60
698.23	351.00
698.56	349.41
698.90	347.81
699.23	346.15
699.57	344.58
699.90	343.02
700.24	341.44
700.58	339.95
700.91	338.43
701.25	337.01
701.58	335.62
701.92	334.26
702.25	332.83
702.59	331.51
702.92	330.19
703.26	328.90
703.59	327.60
703.93	326.42
704.26	325.17
704.60	323.88
704.93	322.58
705.26	321.34
705.60	320.14
705.93	319.00
706.27	317.95
706.60	316.93
706.94	315.83
707.27	314.75
707.61	313.70
707.94	312.70
708.27	311.58
708.61	310.54
708.94	309.53
709.28	308.55
709.61	307.55
709.94	306.57
710.28	305.55
710.61	304.58
710.95	303.51
711.28	302.60
711.61	301.61
711.95	300.78
712.28	299.83
712.61	298.84
712.95	297.91
713.28	297.06
713.61	296.14
713.95	295.27
714.28	294.42
714.61	293.58
714.95	292.72
715.28	291.92
715.61	291.04
715.95	290.18
716.28	289.36
716.61	288.55
716.95	287.74
717.28	287.00
717.61	286.24
717.94	285.48
718.28	284.68
718.61	283.99
718.94	283.27
719.27	282.61
719.61	282.01
719.94	281.32
720.27	280.58
720.60	279.94
720.94	279.30
721.27	278.68
721.60	278.09
721.93	277.50
722.27	276.94
722.60	276.37
722.93	275.82
723.26	275.27
723.59	274.69
723.93	274.18
724.26	273.66
724.59	273.10
724.92	272.59
725.25	272.09
725.59	271.57
725.92	271.01
726.25	270.51
726.58	270.05
726.91	269.54
727.24	269.08
727.57	268.62
727.91	268.15
728.24	267.69
728.57	267.19
728.90	266.74
729.23	266.21
729.56	265.77
729.89	265.30
730.22	264.80
730.55	264.34
730.89	263.90
731.22	263.41
731.55	262.96
731.88	262.54
732.21	262.12
732.54	261.68
732.87	261.27
733.20	260.85
733.53	260.45
733.86	260.09
734.19	259.68
734.52	259.29
734.85	258.95
735.18	258.52
735.51	258.14
735.84	257.75
736.17	257.41
736.50	257.00
736.83	256.81
737.16	256.49
737.49	256.16
737.82	255.78
738.15	255.48
738.48	255.15
738.81	254.86
739.14	254.55
739.47	254.22
739.80	253.91
740.13	253.60
740.46	253.26
740.79	252.92
741.12	252.62
741.45	252.28
741.78	251.91
742.11	251.64
742.44	251.32
742.77	251.02
743.10	250.70
743.43	250.46
743.75	250.01
744.08	249.85
744.41	249.57
744.74	249.29
745.07	248.97
745.40	248.74
745.73	248.48
746.06	248.16
746.39	247.92
746.71	247.67
747.04	247.42
747.37	247.15
747.70	246.91
748.03	246.67
748.36	246.46
748.68	246.23
749.01	245.96
749.34	245.74
749.67	245.56
750.00	245.33
750.33	245.14
750.65	244.95
750.98	244.60
751.31	244.40
751.64	244.18
751.97	244.07
752.29	243.85
752.62	243.59
752.95	243.43
753.28	243.21
753.60	243.00
753.93	242.82
754.26	242.62
754.59	242.44
754.91	242.26
755.24	242.08
755.57	241.89
755.90	241.73
756.22	241.56
756.55	241.36
756.88	241.21
757.20	241.00
757.53	240.82
757.86	240.66
758.19	240.50
758.51	240.38
758.84	240.13
759.17	239.98
759.49	239.82
759.82	239.69
760.15	239.56
760.47	239.42
760.80	239.25
761.13	239.12
761.45	238.95
761.78	238.81
762.11	238.65
762.43	238.54
762.76	238.40
763.08	238.29
763.41	238.14
763.74	238.01
764.06	237.88
764.39	237.73
764.71	237.59
765.04	237.45
765.37	237.27
765.69	237.17
766.02	237.02
766.34	236.91
766.67	236.77
767.00	236.66
767.32	236.57
767.65	236.51
767.97	236.40
768.30	236.27
768.62	236.15
768.95	236.05
769.27	235.95
769.60	235.84
769.92	235.72
770.25	235.62
770.57	235.51
770.90	235.41
771.22	235.29
771.55	235.18
771.87	235.07
772.20	235.02
772.52	234.97
772.85	235.01
773.17	234.90
773.50	234.77
773.82	234.67
774.15	234.55
774.47	234.41
774.80	234.30
775.12	234.22
775.45	234.11
775.77	234.04
776.09	233.95
776.42	233.84
776.74	233.77
777.07	233.66
777.39	233.57
777.72	233.45
778.04	233.38
778.36	233.31
778.69	233.26
779.01	233.16
779.33	232.99
779.66	232.79
779.98	232.72
780.31	232.67
780.63	232.62
780.95	232.56
781.28	232.48
781.60	232.41
781.92	232.34
782.25	232.29
782.57	232.20
782.89	232.12
783.22	232.05
783.54	231.97
783.86	231.90
784.19	231.84
784.51	231.83
784.83	231.76
785.16	231.72
785.48	231.65
785.80	231.60
786.12	231.56
786.45	231.49
786.77	231.43
787.09	231.36
787.42	231.29
787.74	231.27
788.06	231.23
788.38	231.19
788.71	231.14
789.03	231.07
789.35	231.08
789.67	231.03
789.99	231.02
790.32	230.97
790.64	230.95
790.96	230.98
791.28	230.92
791.61	230.89
791.93	230.83
792.25	230.75
792.57	230.80
792.89	230.80
793.21	230.79
793.54	230.77
793.86	230.74
794.18	230.69
794.50	230.60
794.82	230.58
795.14	230.53
795.47	230.53
795.79	230.51
796.11	230.46
796.43	230.43
796.75	230.37
797.07	230.37
797.39	230.33
797.71	230.25
798.04	230.21
798.36	230.22
798.68	230.19
799.00	230.23
799.32	230.12
799.64	230.08
799.96	230.03
800.28	230.02
800.60	229.99
800.92	229.99
801.24	230.01
801.56	229.99
801.89	229.97
802.21	229.96
802.53	229.94
802.85	229.92
803.17	229.92
803.49	229.90
803.81	229.85
804.13	229.81
804.45	229.80
804.77	229.78
805.09	229.74
805.41	229.71
805.73	229.64
806.05	229.58
806.37	229.55
806.69	229.51
807.01	229.46
807.33	229.44
807.65	229.37
807.97	229.37
808.28	229.37
808.60	229.36
808.92	229.30
809.24	229.32
809.56	229.31
809.88	229.25
810.20	229.21
810.52	229.24
810.84	229.22
811.16	229.16
811.48	229.13
811.80	229.11
812.12	229.08
812.43	229.07
812.75	229.07
813.07	229.03
813.39	229.01
813.71	228.97
814.03	228.92
814.35	228.88
814.67	228.80
814.98	228.75
815.30	228.69
815.62	228.66
815.94	228.58
816.26	228.57
816.58	228.53
816.89	228.51
817.21	228.44
817.53	228.43
817.85	228.39
818.17	228.38
818.48	228.31
818.80	228.33
819.12	228.30
819.44	228.25
819.76	228.25
820.07	228.25
820.39	228.25
820.71	228.22
821.03	228.22
821.34	228.21
821.66	228.18
821.98	228.19
822.30	228.16
822.61	228.18
822.93	228.07
823.25	228.09
823.57	228.07
823.88	228.07
824.20	228.03
824.52	228.04
824.83	228.04
825.15	228.06
825.47	228.03
825.79	228.04
826.10	228.02
826.42	227.99
826.74	227.99
827.05	227.99
827.37	228.00
827.69	227.99
828.00	227.97
828.32	227.97
828.64	227.96
828.95	228.00
829.27	227.99
829.58	228.03
829.90	228.01
830.22	228.02
830.53	227.98
830.85	227.96
831.17	227.97
831.48	227.97
831.80	227.93
832.11	227.93
832.43	227.91
832.75	227.94
833.06	228.00
833.38	227.98
833.69	227.95
834.01	227.97
834.32	228.00
834.64	227.98
834.96	227.96
835.27	227.92
835.59	227.89
835.90	227.88
836.22	227.90
836.53	227.88
836.85	227.85
837.16	227.98
837.48	227.98
837.79	228.00
838.11	227.99
838.42	227.98
838.74	227.98
839.05	227.93
839.37	227.94
839.68	227.88
840.00	227.89
840.31	227.92
840.63	227.88
840.94	227.84
841.26	227.87
841.57	227.90
841.88	227.93
842.20	227.92
842.51	227.89
842.83	227.84
843.14	227.92
843.46	227.96
843.77	227.88
844.08	227.89
844.40	227.85
844.71	227.85
845.03	227.85
845.34	227.83
845.65	227.83
845.97	227.80
846.28	227.84
846.60	227.79
846.91	227.76
847.22	227.77
847.54	227.80
847.85	227.78
848.16	227.75
848.48	227.69
848.79	227.72
849.10	227.71
849.42	227.73
849.73	227.63
850.04	227.58
850.36	227.54
850.67	227.54
850.98	227.51
851.30	227.47
851.61	227.44
851.92	227.41
852.23	227.45
852.55	227.44
852.86	227.39
853.17	227.42
853.49	227.42
853.80	227.44
854.11	227.41
854.42	227.41
854.74	227.38
855.05	227.41
855.36	227.33
855.67	227.34
855.99	227.31
856.30	227.44
856.61	227.45
856.92	227.40
857.23	227.38
857.55	227.35
857.86	227.34
858.17	227.38
858.48	227.39
858.79	227.39
859.11	227.36
859.42	227.35
859.73	227.31
860.04	227.28
860.35	227.23
860.66	227.21
860.98	227.20
861.29	227.21
861.60	227.20
861.91	227.24
862.22	227.23
862.53	227.21
862.84	227.09
863.16	227.12
863.47	227.12
863.78	227.13
864.09	227.14
864.40	227.15
864.71	227.13
865.02	227.13
865.33	227.11
865.64	227.08
865.95	227.07
866.27	227.17
866.58	227.16
866.89	227.18
867.20	227.13
867.51	227.12
867.82	227.15
868.13	227.16
868.44	227.12
868.75	227.14
869.06	227.14
869.37	227.13
869.68	227.10
869.99	227.13
870.30	227.15
870.61	227.14
870.92	227.11
871.23	227.11
871.54	227.13
871.85	227.14
872.16	227.16
872.47	227.17
872.78	227.09
873.09	227.15
873.40	227.15
873.71	227.19
874.02	227.19
874.33	227.13
874.64	227.11
874.95	227.15
875.26	227.12
875.56	227.15
875.87	227.19
876.18	227.17
876.49	227.27
876.80	227.24
877.11	227.24
877.42	227.28
877.73	227.26
878.04	227.26
878.35	227.26
878.66	227.29
878.96	227.31
879.27	227.31
879.58	227.27
879.89	227.25
880.20	227.30
880.51	227.29
880.82	227.32
881.12	227.32
881.43	227.28
881.74	227.25
882.05	227.23
882.36	227.22
882.67	227.22
882.97	227.13
883.28	227.11
883.59	227.10
883.90	227.10
884.21	227.14
884.51	227.10
884.82	227.09
885.13	227.06
885.44	227.08
885.74	227.06
886.05	227.05
886.36	227.06
886.67	227.01
886.98	227.05
887.28	227.09
887.59	227.07
887.90	227.06
888.20	227.08
888.51	227.11
888.82	227.06
889.13	227.05
889.43	227.09
889.74	227.07
890.05	227.09
890.35	227.08
890.66	227.03
890.97	227.04
891.28	227.04
891.58	227.04
891.89	227.00
892.20	226.99
892.50	227.00
892.81	227.00
893.12	226.98
893.42	226.93
893.73	226.89
894.04	226.92
894.34	226.94
894.65	226.96
894.95	226.94
895.26	226.93
895.57	226.99
895.87	226.89
896.18	226.94
896.48	226.92
896.79	226.91
897.10	226.96
897.40	226.94
897.71	226.95
898.01	226.92
898.32	226.92
898.63	226.89
898.93	226.89
899.24	226.88
899.54	226.92
899.85	226.91
900.15	226.91
900.46	226.91
900.76	226.91
901.07	226.89
901.38	226.86
901.68	226.92
901.99	226.86
902.29	226.88
902.60	226.86
902.90	226.88
903.21	226.89
903.51	226.87
903.82	226.91
904.12	226.92
904.43	226.92
904.73	226.94
905.03	227.00
905.34	227.08
905.64	227.07
905.95	227.05
906.25	227.04
906.56	227.06
906.86	227.08
907.17	227.08
907.47	227.11
907.77	227.11
908.08	227.08
908.38	227.12
908.69	227.16
908.99	227.17
909.30	227.18
909.60	227.19
909.90	227.21
910.21	227.18
910.51	227.18
910.81	227.20
911.12	227.21
911.42	227.21
911.73	227.11
912.03	227.11
912.33	227.13
912.64	227.15
912.94	227.17
913.24	227.13
913.55	227.14
913.85	227.16
914.15	227.19
914.46	227.19
914.76	227.19
915.06	227.19
915.37	227.18
915.67	227.16
915.97	227.15
916.27	227.13
916.58	227.14
916.88	227.13
917.18	227.16
917.49	227.19
917.79	227.17
918.09	227.19
918.39	227.22
918.70	227.22
919.00	227.19
919.30	227.20
919.60	227.20
919.91	227.18
920.21	227.16
920.51	227.13
920.81	227.15
921.12	227.18
921.42	227.13
921.72	227.16
922.02	227.16
922.32	227.18
922.63	227.19
922.93	227.22
923.23	227.20
923.53	227.17
923.83	227.13
924.13	227.15
924.44	227.13
924.74	227.16
925.04	227.18
925.34	227.21
925.64	227.17
925.94	227.17
926.24	227.21
926.55	227.17
926.85	227.17
927.15	227.18
927.45	227.13
927.75	227.11
928.05	227.07
928.35	227.09
928.65	227.10
928.95	227.07
929.26	227.02
929.56	227.03
929.86	227.06
930.16	227.02
930.46	226.96
930.76	226.99
931.06	226.92
931.36	226.88
931.66	226.86
931.96	226.83
932.26	226.83
932.56	226.77
932.86	226.75
933.16	226.73
933.46	226.68
933.76	226.67
934.06	226.72
934.36	226.74
934.66	226.75
934.96	226.72
935.26	226.73
935.56	226.73
935.86	226.70
936.16	226.66
936.46	226.67
936.76	226.72
937.06	226.67
937.36	226.68
937.66	226.68
937.96	226.69
938.26	226.70
938.56	226.68
938.86	226.69
939.16	226.76
939.46	226.78
939.76	226.81
940.06	226.80
940.35	226.79
940.65	226.72
940.95	226.68
941.25	226.64
941.55	226.62
941.85	226.63
942.15	226.66
942.45	226.67
942.75	226.65
943.04	226.65
943.34	226.68
943.64	226.65
943.94	226.65
944.24	226.68
944.54	226.73
944.84	226.73
945.13	226.72
945.43	226.69
945.73	226.70
946.03	226.65
946.33	226.67
946.62	226.65
946.92	226.68
947.22	226.71
947.52	226.71
947.82	226.73
948.11	226.73
948.41	226.70
948.71	226.66
949.01	226.71
949.31	226.70
949.60	226.72
949.90	226.78
950.20	226.75
950.50	226.74
950.79	226.70
951.09	226.74
951.39	226.74
951.69	226.73
951.98	226.77
952.28	226.80
952.58	226.78
952.87	226.81
953.17	226.83
953.47	226.80
953.76	226.83
954.06	226.79
954.36	226.76
954.66	226.74
954.95	226.79
955.25	226.73
955.55	226.75
955.84	226.72
956.14	226.71
956.44	226.73
956.73	226.68
957.03	226.68
957.32	226.66
957.62	226.64
957.92	226.69
958.21	226.65
958.51	226.73
958.81	226.76
959.10	226.73
959.40	226.74
959.69	226.73
959.99	226.72
960.29	226.76
960.58	226.76
960.88	226.81
961.17	226.79
961.47	226.82
961.76	226.80
962.06	226.82
962.36	226.81
962.65	226.78
962.95	226.82
963.24	226.80
963.54	226.80
963.83	226.80
964.13	226.81
964.42	226.77
964.72	226.70
965.01	226.67
965.31	226.66
965.60	226.64
965.90	226.72
966.19	226.71
966.49	226.71
966.78	226.70
967.08	226.67
967.37	226.69
967.67	226.68
967.96	226.66
968.26	226.63
968.55	226.63
968.85	226.65
969.14	226.63
969.43	226.64
969.73	226.62
970.02	226.59
970.32	226.56
970.61	226.59
970.91	226.57
971.20	226.58
971.49	226.60
971.79	226.59
972.08	226.54
972.38	226.53
972.67	226.51
972.96	226.54
973.26	226.50
973.55	226.53
973.85	226.51
974.14	226.53
974.43	226.60
974.73	226.61
975.02	226.59
975.31	226.59
975.61	226.56
975.90	226.58
976.19	226.57
976.49	226.59
976.78	226.61
977.07	226.57
977.37	226.57
977.66	226.58
977.95	226.59
978.24	226.60
978.54	226.61
978.83	226.62
979.12	226.62
979.42	226.67
979.71	226.64
980.00	226.70
980.29	226.68
980.59	226.64
980.88	226.66
981.17	226.70
981.46	226.71
981.76	226.73
982.05	226.78
982.34	226.81
982.63	226.80
982.93	226.76
983.22	226.83
983.51	226.84
983.80	226.84
984.09	226.82
984.39	226.79
984.68	226.78
984.97	226.78
985.26	226.78
985.55	226.80
985.85	226.81
986.14	226.82
986.43	226.85
986.72	226.85
987.01	226.80
987.30	226.81
987.59	226.79
987.89	226.80
988.18	226.75
988.47	226.76
988.76	226.75
989.05	226.78
989.34	226.74
989.63	226.77
989.92	226.76
990.22	226.74
990.51	226.78
990.80	226.75
991.09	226.77
991.38	226.75
991.67	226.71
991.96	226.67
992.25	226.65
992.54	226.64
992.83	226.67
993.12	226.66
993.41	226.64
993.70	226.70
993.99	226.74
994.28	226.75
994.58	226.76
994.87	226.73
995.16	226.71
995.45	226.70
995.74	226.65
996.03	226.68
996.32	226.73
996.61	226.76
996.90	226.79
997.19	226.76
997.48	226.82
997.77	226.82
998.06	226.83
998.34	226.81
998.63	226.78
998.92	226.79
999.21	226.82
999.50	226.82
999.79	226.80
1000.08	226.78
1000.37	226.78
1000.66	226.75
1000.95	226.81
1001.24	226.82
1001.53	226.81
1001.82	226.82
1002.11	226.80
1002.40	226.75
1002.68	226.76
1002.97	226.81
1003.26	226.80
1003.55	226.75
1003.84	226.77
1004.13	226.83
1004.42	226.82
1004.71	226.77
1004.99	226.74
1005.28	226.73
1005.57	226.71
1005.86	226.70
1006.15	226.69
1006.44	226.66
1006.72	226.67
1007.01	226.62
1007.30	226.60
1007.59	226.64
1007.88	226.65
1008.17	226.66
1008.45	226.69
1008.74	226.65
1009.03	226.62
1009.32	226.63
1009.60	226.66
1009.89	226.64
1010.18	226.58
1010.47	226.58
1010.76	226.67
1011.04	226.67
1011.33	226.70
1011.62	226.70
1011.91	226.71
1012.19	226.73
1012.48	226.73
1012.77	226.74
1013.05	226.81
1013.34	226.82
1013.63	226.81
1013.92	226.77
1014.20	226.76
1014.49	226.76
1014.78	226.73
1015.06	226.69
1015.35	226.69
1015.64	226.70
1015.92	226.72
1016.21	226.71
1016.50	226.70
1016.78	226.67
1017.07	226.66
1017.36	226.62
1017.64	226.62
1017.93	226.61
1018.22	226.61
1018.50	226.63
1018.79	226.63
1019.08	226.57
1019.36	226.60
1019.65	226.57
1019.93	226.61
1020.22	226.65
1020.51	226.67
1020.79	226.70
1021.08	226.91
1021.36	226.74
1021.65	226.81
1021.94	226.70
1022.22	226.86
1022.51	226.39
1022.79	226.84
1023.08	227.35
1023.36	227.29
1023.65	226.81
>>>>>End Processed Spectral Data<<<<<
