SpectraSuite Data File
++++++++++++++++++++++++++++++++++++
Date: Fri Feb 01 16:26:56 EST 2013
User: group
Dark Spectrum Present: No
Reference Spectrum Present: No
Number of Sampled Component Spectra: 1
Spectrometers: USB2E7196
Integration Time (usec): 35000 (USB2E7196)
Spectra Averaged: 100 (USB2E7196)
Boxcar Smoothing: 10 (USB2E7196)
Correct for Electrical Dark: No (USB2E7196)
Strobe/Lamp Enabled: No (USB2E7196)
Correct for Detector Non-linearity: No (USB2E7196)
Correct for Stray Light: No (USB2E7196)
Number of Pixels in Processed Spectrum: 2048
>>>>>Begin Processed Spectral Data<<<<<
339.09	0.00
339.48	213.84
339.86	215.43
340.24	217.03
340.63	218.47
341.01	221.25
341.39	220.93
341.78	222.83
342.16	223.69
342.54	224.37
342.93	212.65
343.31	223.40
343.69	223.94
344.07	224.42
344.46	224.84
344.84	225.21
345.22	225.47
345.60	225.73
345.99	225.92
346.37	226.06
346.75	226.16
347.13	226.21
347.52	226.24
347.90	226.29
348.28	226.35
348.66	226.38
349.05	226.36
349.43	226.42
349.81	226.46
350.19	226.50
350.57	226.55
350.96	226.59
351.34	226.65
351.72	226.77
352.10	226.84
352.48	226.94
352.87	227.01
353.25	227.03
353.63	227.07
354.01	227.10
354.39	227.16
354.77	227.24
355.15	227.34
355.54	227.43
355.92	227.49
356.30	227.54
356.68	227.68
357.06	227.77
357.44	227.78
357.82	227.85
358.20	227.91
358.58	228.01
358.97	228.06
359.35	228.14
359.73	228.18
360.11	228.25
360.49	228.27
360.87	228.30
361.25	228.34
361.63	228.42
362.01	228.46
362.39	228.48
362.77	228.50
363.15	228.47
363.53	228.49
363.91	228.52
364.29	228.55
364.67	228.48
365.05	228.46
365.43	228.51
365.81	228.53
366.19	228.56
366.57	228.57
366.95	228.59
367.33	228.56
367.71	228.54
368.09	228.52
368.47	228.52
368.85	228.49
369.23	228.51
369.61	228.46
369.99	228.48
370.37	228.44
370.75	228.46
371.13	228.45
371.51	228.38
371.89	228.34
372.27	228.32
372.65	228.27
373.03	228.24
373.41	228.18
373.78	228.09
374.16	228.00
374.54	227.93
374.92	227.85
375.30	227.76
375.68	227.69
376.06	227.63
376.44	227.58
376.82	227.55
377.19	227.47
377.57	227.38
377.95	227.28
378.33	227.24
378.71	227.13
379.09	227.06
379.47	227.02
379.84	226.92
380.22	226.82
380.60	226.73
380.98	226.63
381.36	226.56
381.73	226.50
382.11	226.45
382.49	226.37
382.87	226.29
383.25	226.27
383.62	226.33
384.00	226.26
384.38	226.21
384.76	226.14
385.13	226.13
385.51	226.10
385.89	226.02
386.27	225.97
386.64	225.93
387.02	225.90
387.40	225.84
387.78	225.82
388.15	225.78
388.53	225.75
388.91	225.75
389.29	225.71
389.66	225.71
390.04	225.65
390.42	225.63
390.79	225.62
391.17	225.63
391.55	225.48
391.92	225.49
392.30	225.45
392.68	225.45
393.05	225.41
393.43	225.41
393.81	225.42
394.18	225.44
394.56	225.43
394.94	225.45
395.31	225.44
395.69	225.48
396.06	225.48
396.44	225.52
396.82	225.53
397.19	225.64
397.57	225.65
397.95	225.74
398.32	225.77
398.70	225.83
399.07	225.87
399.45	225.94
399.82	226.03
400.20	226.07
400.58	226.15
400.95	226.24
401.33	226.33
401.70	226.49
402.08	226.57
402.45	226.67
402.83	226.78
403.20	226.90
403.58	227.00
403.95	227.16
404.33	227.32
404.71	227.44
405.08	227.56
405.46	227.70
405.83	227.82
406.21	227.96
406.58	228.13
406.96	228.28
407.33	228.47
407.70	228.63
408.08	228.92
408.45	229.12
408.83	229.30
409.20	229.51
409.58	229.70
409.95	229.99
410.33	230.23
410.70	230.47
411.08	230.82
411.45	231.16
411.82	231.44
412.20	231.78
412.57	232.24
412.95	232.52
413.32	232.93
413.69	233.37
414.07	233.81
414.44	234.29
414.82	234.76
415.19	235.29
415.56	235.85
415.94	236.36
416.31	237.02
416.68	237.66
417.06	238.37
417.43	239.03
417.81	239.74
418.18	240.52
418.55	241.35
418.93	242.17
419.30	243.04
419.67	244.01
420.04	244.96
420.42	245.91
420.79	247.12
421.16	248.29
421.54	249.47
421.91	250.67
422.28	251.90
422.66	253.24
423.03	254.55
423.40	255.86
423.77	257.28
424.15	258.66
424.52	260.16
424.89	261.78
425.26	263.33
425.64	264.80
426.01	266.40
426.38	268.06
426.75	269.71
427.13	271.43
427.50	273.21
427.87	275.12
428.24	276.96
428.61	278.73
428.99	280.65
429.36	282.76
429.73	284.82
430.10	286.82
430.47	288.86
430.85	290.98
431.22	293.21
431.59	295.59
431.96	297.83
432.33	300.32
432.70	302.69
433.08	305.51
433.45	308.09
433.82	310.73
434.19	313.59
434.56	316.40
434.93	319.06
435.30	321.66
435.68	324.49
436.05	327.30
436.42	330.03
436.79	332.50
437.16	335.15
437.53	338.00
437.90	340.84
438.27	343.57
438.64	346.39
439.01	348.97
439.38	351.22
439.75	353.36
440.13	355.85
440.50	358.19
440.87	359.99
441.24	361.94
441.61	364.03
441.98	365.53
442.35	367.32
442.72	369.14
443.09	370.95
443.46	371.95
443.83	372.47
444.20	372.99
444.57	373.85
444.94	374.10
445.31	374.38
445.68	374.71
446.05	374.78
446.42	374.38
446.79	373.96
447.16	373.45
447.53	373.15
447.90	371.97
448.27	370.79
448.64	369.21
449.01	368.11
449.37	366.16
449.74	364.27
450.11	362.04
450.48	359.57
450.85	357.06
451.22	354.91
451.59	352.95
451.96	351.02
452.33	348.46
452.70	346.15
453.07	343.35
453.43	340.49
453.80	337.76
454.17	335.09
454.54	332.59
454.91	329.92
455.28	327.29
455.65	324.81
456.02	322.39
456.38	320.27
456.75	317.62
457.12	315.39
457.49	313.18
457.86	311.02
458.23	309.17
458.59	307.10
458.96	305.04
459.33	303.20
459.70	301.34
460.07	299.82
460.43	298.15
460.80	296.57
461.17	295.14
461.54	293.66
461.91	292.28
462.27	290.84
462.64	289.59
463.01	288.22
463.38	286.97
463.74	285.61
464.11	284.44
464.48	283.43
464.85	282.35
465.21	281.50
465.58	280.58
465.95	279.52
466.32	278.65
466.68	277.78
467.05	276.90
467.42	276.08
467.78	275.14
468.15	274.24
468.52	273.58
468.88	272.72
469.25	271.95
469.62	271.32
469.98	270.67
470.35	270.06
470.72	269.51
471.08	268.79
471.45	268.28
471.82	267.80
472.18	267.19
472.55	266.74
472.92	266.25
473.28	265.80
473.65	265.33
474.02	264.87
474.38	264.51
474.75	264.24
475.11	263.86
475.48	263.62
475.85	263.41
476.21	263.17
476.58	263.01
476.94	262.87
477.31	262.68
477.67	262.52
478.04	262.40
478.41	262.31
478.77	262.39
479.14	262.30
479.50	262.30
479.87	262.37
480.23	262.50
480.60	262.56
480.96	262.66
481.33	262.90
481.69	263.11
482.06	263.27
482.42	263.47
482.79	263.72
483.15	264.04
483.52	264.42
483.88	264.77
484.25	265.15
484.61	265.55
484.98	266.01
485.34	266.56
485.71	267.18
486.07	267.79
486.44	268.36
486.80	269.09
487.17	269.79
487.53	270.61
487.90	271.42
488.26	272.38
488.62	273.38
488.99	274.34
489.35	275.39
489.72	276.53
490.08	277.71
490.44	278.94
490.81	280.24
491.17	281.56
491.54	283.03
491.90	284.57
492.26	286.23
492.63	287.95
492.99	289.71
493.36	291.60
493.72	293.62
494.08	295.68
494.45	297.93
494.81	300.30
495.17	302.73
495.54	305.28
495.90	307.88
496.26	310.63
496.63	313.58
496.99	316.69
497.35	319.94
497.72	323.35
498.08	326.90
498.44	330.63
498.80	334.59
499.17	338.66
499.53	342.81
499.89	347.19
500.26	351.71
500.62	356.40
500.98	361.32
501.34	366.42
501.71	371.77
502.07	377.16
502.43	382.78
502.79	388.60
503.16	394.66
503.52	400.93
503.88	407.42
504.24	414.10
504.60	420.98
504.97	428.11
505.33	435.41
505.69	443.08
506.05	450.83
506.41	458.70
506.78	466.80
507.14	475.29
507.50	483.99
507.86	493.04
508.22	502.28
508.59	511.52
508.95	521.14
509.31	531.00
509.67	541.18
510.03	551.45
510.39	562.03
510.75	572.87
511.12	583.85
511.48	595.16
511.84	606.60
512.20	618.08
512.56	630.04
512.92	642.26
513.28	654.68
513.64	667.18
514.00	679.83
514.37	692.80
514.73	705.84
515.09	718.88
515.45	732.12
515.81	745.64
516.17	759.62
516.53	773.74
516.89	787.84
517.25	801.97
517.61	816.43
517.97	830.97
518.33	845.39
518.69	860.17
519.05	875.05
519.41	890.15
519.77	905.71
520.13	921.08
520.49	936.39
520.85	951.68
521.21	967.23
521.57	983.46
521.93	999.11
522.29	1015.45
522.65	1031.65
523.01	1047.87
523.37	1063.87
523.73	1079.95
524.09	1095.95
524.45	1112.22
524.81	1128.79
525.17	1145.51
525.53	1162.18
525.89	1178.94
526.25	1195.70
526.61	1212.01
526.97	1228.64
527.33	1244.91
527.68	1261.46
528.04	1277.86
528.40	1294.41
528.76	1311.49
529.12	1328.01
529.48	1344.95
529.84	1361.00
530.20	1377.56
530.56	1394.41
530.91	1411.77
531.27	1428.50
531.63	1444.85
531.99	1461.33
532.35	1477.23
532.71	1493.05
533.07	1509.20
533.42	1525.01
533.78	1540.85
534.14	1557.09
534.50	1572.34
534.86	1588.25
535.21	1603.37
535.57	1619.24
535.93	1634.67
536.29	1649.31
536.65	1664.31
537.00	1678.92
537.36	1694.08
537.72	1708.48
538.08	1722.75
538.44	1736.36
538.79	1750.05
539.15	1763.70
539.51	1777.24
539.87	1791.47
540.22	1805.09
540.58	1818.76
540.94	1832.05
541.29	1844.92
541.65	1857.41
542.01	1870.53
542.37	1882.78
542.72	1895.01
543.08	1906.60
543.44	1918.98
543.79	1930.21
544.15	1941.07
544.51	1952.57
544.87	1963.42
545.22	1974.15
545.58	1984.37
545.94	1994.11
546.29	2003.90
546.65	2013.67
547.01	2023.00
547.36	2031.49
547.72	2039.83
548.07	2047.70
548.43	2055.68
548.79	2063.61
549.14	2071.12
549.50	2078.34
549.86	2085.93
550.21	2093.27
550.57	2100.44
550.92	2106.75
551.28	2113.75
551.64	2120.80
551.99	2127.22
552.35	2133.31
552.70	2139.46
553.06	2145.37
553.41	2151.66
553.77	2157.71
554.13	2163.67
554.48	2170.01
554.84	2175.67
555.19	2180.94
555.55	2186.16
555.90	2190.73
556.26	2195.64
556.61	2200.25
556.97	2204.63
557.32	2208.79
557.68	2212.94
558.03	2217.27
558.39	2221.09
558.74	2225.69
559.10	2229.58
559.45	2233.22
559.81	2237.53
560.16	2241.23
560.52	2244.34
560.87	2247.79
561.23	2250.52
561.58	2253.56
561.94	2255.78
562.29	2258.16
562.64	2260.84
563.00	2263.34
563.35	2266.79
563.71	2269.85
564.06	2273.13
564.42	2276.03
564.77	2278.54
565.12	2280.83
565.48	2282.82
565.83	2284.72
566.19	2286.04
566.54	2286.95
566.89	2288.17
567.25	2288.83
567.60	2290.29
567.96	2292.19
568.31	2293.09
568.66	2294.17
569.02	2294.71
569.37	2295.21
569.72	2296.23
570.08	2296.49
570.43	2296.75
570.78	2296.29
571.14	2294.96
571.49	2293.80
571.84	2293.58
572.20	2292.58
572.55	2291.59
572.90	2290.01
573.26	2288.76
573.61	2287.13
573.96	2285.51
574.31	2282.64
574.67	2279.66
575.02	2276.00
575.37	2272.63
575.72	2268.87
576.08	2265.65
576.43	2262.40
576.78	2258.68
577.13	2255.40
577.49	2252.24
577.84	2248.64
578.19	2245.01
578.54	2241.41
578.90	2237.10
579.25	2231.59
579.60	2226.60
579.95	2221.66
580.30	2216.74
580.66	2211.53
581.01	2206.67
581.36	2201.76
581.71	2197.57
582.06	2193.32
582.42	2189.02
582.77	2183.85
583.12	2179.35
583.47	2174.62
583.82	2169.78
584.17	2164.61
584.53	2159.08
584.88	2153.55
585.23	2147.81
585.58	2142.40
585.93	2136.99
586.28	2132.40
586.63	2127.35
586.98	2122.40
587.34	2117.70
587.69	2112.92
588.04	2107.73
588.39	2102.06
588.74	2095.55
589.09	2089.53
589.44	2082.64
589.79	2076.66
590.14	2071.07
590.49	2064.56
590.84	2058.34
591.19	2052.34
591.54	2046.07
591.89	2038.77
592.25	2032.11
592.60	2025.12
592.95	2017.57
593.30	2010.20
593.65	2002.64
594.00	1995.78
594.35	1988.45
594.70	1980.46
595.05	1973.20
595.40	1965.93
595.75	1958.58
596.10	1952.54
596.45	1945.84
596.80	1939.80
597.15	1933.31
597.50	1926.33
597.85	1919.97
598.19	1913.25
598.54	1906.17
598.89	1899.53
599.24	1893.95
599.59	1887.36
599.94	1881.09
600.29	1874.80
600.64	1868.27
600.99	1860.83
601.34	1853.97
601.69	1847.12
602.04	1840.39
602.39	1833.14
602.74	1826.35
603.08	1819.53
603.43	1812.74
603.78	1805.48
604.13	1798.14
604.48	1790.71
604.83	1783.81
605.18	1776.86
605.53	1768.97
605.87	1761.03
606.22	1753.79
606.57	1745.78
606.92	1738.40
607.27	1731.33
607.62	1724.40
607.96	1717.30
608.31	1710.77
608.66	1703.12
609.01	1695.56
609.36	1688.03
609.70	1679.94
610.05	1672.02
610.40	1664.37
610.75	1656.01
611.10	1648.39
611.44	1639.99
611.79	1632.18
612.14	1623.63
612.49	1614.38
612.83	1606.07
613.18	1597.97
613.53	1589.79
613.88	1581.21
614.22	1572.94
614.57	1564.17
614.92	1556.18
615.27	1548.53
615.61	1540.24
615.96	1532.33
616.31	1524.81
616.65	1517.40
617.00	1509.89
617.35	1502.25
617.70	1494.01
618.04	1485.52
618.39	1477.33
618.74	1469.81
619.08	1461.42
619.43	1453.70
619.78	1446.87
620.12	1439.59
620.47	1431.88
620.82	1423.75
621.16	1416.23
621.51	1408.68
621.85	1401.13
622.20	1392.58
622.55	1384.24
622.89	1376.35
623.24	1368.65
623.59	1361.12
623.93	1353.49
624.28	1346.26
624.62	1338.60
624.97	1331.29
625.32	1324.61
625.66	1317.61
626.01	1310.51
626.35	1303.00
626.70	1295.35
627.04	1287.66
627.39	1279.91
627.73	1272.60
628.08	1265.72
628.43	1258.54
628.77	1251.15
629.12	1243.54
629.46	1236.41
629.81	1228.87
630.15	1221.67
630.50	1214.17
630.84	1205.98
631.19	1198.12
631.53	1190.58
631.88	1183.07
632.22	1175.57
632.57	1168.22
632.91	1160.46
633.26	1153.00
633.60	1145.70
633.95	1138.46
634.29	1131.34
634.64	1124.69
634.98	1117.30
635.32	1110.09
635.67	1103.41
636.01	1096.73
636.36	1089.98
636.70	1083.38
637.05	1076.96
637.39	1070.36
637.73	1063.80
638.08	1057.89
638.42	1051.83
638.77	1045.34
639.11	1038.78
639.45	1032.31
639.80	1025.69
640.14	1019.36
640.49	1012.82
640.83	1006.52
641.17	1000.41
641.52	994.00
641.86	987.47
642.20	981.64
642.55	975.41
642.89	968.87
643.23	962.28
643.58	956.55
643.92	950.41
644.26	944.26
644.61	938.24
644.95	932.26
645.29	925.75
645.64	919.06
645.98	912.78
646.32	906.88
646.66	900.91
647.01	895.15
647.35	889.44
647.69	883.64
648.04	878.08
648.38	872.23
648.72	866.30
649.06	860.27
649.41	854.40
649.75	848.38
650.09	842.48
650.43	836.81
650.78	830.57
651.12	824.58
651.46	818.90
651.80	813.23
652.14	807.89
652.49	802.55
652.83	797.39
653.17	791.68
653.51	786.00
653.85	780.61
654.20	774.90
654.54	768.95
654.88	763.20
655.22	757.26
655.56	751.64
655.90	746.15
656.25	740.94
656.59	735.55
656.93	730.52
657.27	725.35
657.61	719.85
657.95	714.75
658.29	709.72
658.64	704.43
658.98	699.18
659.32	693.69
659.66	688.47
660.00	683.08
660.34	678.10
660.68	673.13
661.02	668.10
661.36	663.41
661.70	658.88
662.05	654.47
662.39	650.17
662.73	645.65
663.07	641.33
663.41	636.80
663.75	632.35
664.09	627.77
664.43	623.40
664.77	619.26
665.11	615.06
665.45	610.91
665.79	606.85
666.13	602.65
666.47	598.54
666.81	594.38
667.15	590.32
667.49	586.45
667.83	582.64
668.17	578.72
668.51	574.63
668.85	570.65
669.19	566.82
669.53	563.01
669.87	559.12
670.21	555.39
670.55	551.78
670.89	548.32
671.23	544.87
671.57	541.38
671.91	537.75
672.25	534.19
672.58	530.61
672.92	527.10
673.26	523.93
673.60	520.85
673.94	517.66
674.28	514.81
674.62	511.79
674.96	508.70
675.30	505.72
675.64	502.76
675.97	499.88
676.31	496.99
676.65	494.08
676.99	491.38
677.33	488.49
677.67	485.65
678.01	482.59
678.34	479.61
678.68	476.73
679.02	474.03
679.36	471.26
679.70	468.57
680.04	465.88
680.37	462.96
680.71	460.09
681.05	457.50
681.39	454.77
681.73	452.18
682.06	449.64
682.40	447.07
682.74	444.55
683.08	442.02
683.42	439.43
683.75	436.87
684.09	434.29
684.43	431.87
684.77	429.40
685.10	427.08
685.44	424.70
685.78	422.37
686.12	420.05
686.45	417.75
686.79	415.42
687.13	413.23
687.46	411.08
687.80	408.92
688.14	406.67
688.48	404.62
688.81	402.36
689.15	400.20
689.49	398.07
689.82	395.95
690.16	393.88
690.50	391.91
690.83	390.00
691.17	388.08
691.51	386.19
691.84	384.37
692.18	382.41
692.52	380.43
692.85	378.51
693.19	376.63
693.52	374.82
693.86	373.02
694.20	371.21
694.53	369.39
694.87	367.55
695.21	365.83
695.54	363.98
695.88	362.22
696.21	360.53
696.55	358.86
696.88	357.21
697.22	355.57
697.56	353.94
697.89	352.25
698.23	350.64
698.56	349.00
698.90	347.39
699.23	345.72
699.57	344.20
699.90	342.69
700.24	341.18
700.58	339.67
700.91	338.19
701.25	336.79
701.58	335.41
701.92	334.09
702.25	332.68
702.59	331.32
702.92	330.02
703.26	328.71
703.59	327.40
703.93	326.23
704.26	324.98
704.60	323.64
704.93	322.39
705.26	321.09
705.60	319.90
705.93	318.75
706.27	317.74
706.60	316.69
706.94	315.59
707.27	314.44
707.61	313.34
707.94	312.29
708.27	311.16
708.61	310.12
708.94	309.09
709.28	308.10
709.61	307.08
709.94	306.14
710.28	305.09
710.61	304.11
710.95	303.05
711.28	302.10
711.61	301.22
711.95	300.26
712.28	299.33
712.61	298.33
712.95	297.37
713.28	296.46
713.61	295.55
713.95	294.66
714.28	293.82
714.61	292.97
714.95	292.10
715.28	291.26
715.61	290.36
715.95	289.47
716.28	288.60
716.61	287.80
716.95	286.98
717.28	286.24
717.61	285.44
717.94	284.64
718.28	283.84
718.61	283.09
718.94	282.39
719.27	281.70
719.61	281.09
719.94	280.45
720.27	279.74
720.60	279.08
720.94	278.45
721.27	277.82
721.60	277.25
721.93	276.69
722.27	276.14
722.60	275.57
722.93	275.04
723.26	274.52
723.59	273.99
723.93	273.42
724.26	272.84
724.59	272.30
724.92	271.84
725.25	271.34
725.59	270.77
725.92	270.25
726.25	269.76
726.58	269.24
726.91	268.70
727.24	268.23
727.57	267.73
727.91	267.21
728.24	266.76
728.57	266.26
728.90	265.82
729.23	265.31
729.56	264.90
729.89	264.40
730.22	263.93
730.55	263.43
730.89	262.98
731.22	262.61
731.55	262.19
731.88	261.72
732.21	261.32
732.54	260.94
732.87	260.55
733.20	260.18
733.53	259.81
733.86	259.47
734.19	259.07
734.52	258.71
734.85	258.43
735.18	258.00
735.51	257.66
735.84	257.23
736.17	256.87
736.50	256.45
736.83	256.23
737.16	255.90
737.49	255.54
737.82	255.21
738.15	254.86
738.48	254.50
738.81	254.19
739.14	253.84
739.47	253.50
739.80	253.20
740.13	252.92
740.46	252.59
740.79	252.28
741.12	251.97
741.45	251.69
741.78	251.34
742.11	251.12
742.44	250.81
742.77	250.56
743.10	250.24
743.43	249.95
743.75	249.58
744.08	249.46
744.41	249.26
744.74	248.96
745.07	248.68
745.40	248.47
745.73	248.22
746.06	247.94
746.39	247.67
746.71	247.36
747.04	247.02
747.37	246.76
747.70	246.47
748.03	246.25
748.36	246.04
748.68	245.77
749.01	245.49
749.34	245.24
749.67	244.97
750.00	244.77
750.33	244.63
750.65	244.41
750.98	244.02
751.31	243.76
751.64	243.55
751.97	243.37
752.29	243.14
752.62	242.89
752.95	242.66
753.28	242.46
753.60	242.24
753.93	242.06
754.26	241.88
754.59	241.66
754.91	241.40
755.24	241.16
755.57	240.96
755.90	240.74
756.22	240.55
756.55	240.39
756.88	240.18
757.20	239.91
757.53	239.71
757.86	239.53
758.19	239.34
758.51	239.15
758.84	238.91
759.17	238.75
759.49	238.58
759.82	238.48
760.15	238.29
760.47	238.15
760.80	237.94
761.13	237.78
761.45	237.64
761.78	237.52
762.11	237.36
762.43	237.23
762.76	237.08
763.08	236.95
763.41	236.81
763.74	236.65
764.06	236.51
764.39	236.37
764.71	236.22
765.04	236.08
765.37	235.94
765.69	235.82
766.02	235.66
766.34	235.55
766.67	235.40
767.00	235.35
767.32	235.30
767.65	235.30
767.97	235.16
768.30	235.07
768.62	234.93
768.95	234.82
769.27	234.67
769.60	234.58
769.92	234.44
770.25	234.32
770.57	234.23
770.90	234.17
771.22	234.09
771.55	234.06
771.87	234.03
772.20	233.96
772.52	233.97
772.85	234.02
773.17	233.92
773.50	233.81
773.82	233.72
774.15	233.58
774.47	233.42
774.80	233.36
775.12	233.28
775.45	233.21
775.77	233.11
776.09	233.07
776.42	232.97
776.74	232.97
777.07	232.87
777.39	232.83
777.72	232.75
778.04	232.66
778.36	232.55
778.69	232.47
779.01	232.41
779.33	232.25
779.66	232.08
779.98	232.01
780.31	231.99
780.63	231.96
780.95	231.92
781.28	231.88
781.60	231.82
781.92	231.73
782.25	231.69
782.57	231.64
782.89	231.61
783.22	231.56
783.54	231.50
783.86	231.47
784.19	231.38
784.51	231.35
784.83	231.31
785.16	231.26
785.48	231.21
785.80	231.19
786.12	231.16
786.45	231.10
786.77	231.06
787.09	231.01
787.42	230.94
787.74	230.91
788.06	230.87
788.38	230.83
788.71	230.80
789.03	230.76
789.35	230.75
789.67	230.69
789.99	230.70
790.32	230.63
790.64	230.58
790.96	230.64
791.28	230.57
791.61	230.55
791.93	230.49
792.25	230.45
792.57	230.46
792.89	230.38
793.21	230.37
793.54	230.35
793.86	230.25
794.18	230.21
794.50	230.13
794.82	230.09
795.14	230.09
795.47	230.09
795.79	230.06
796.11	230.00
796.43	229.96
796.75	229.89
797.07	229.84
797.39	229.83
797.71	229.71
798.04	229.68
798.36	229.61
798.68	229.59
799.00	229.53
799.32	229.43
799.64	229.41
799.96	229.36
800.28	229.30
800.60	229.29
800.92	229.27
801.24	229.25
801.56	229.24
801.89	229.17
802.21	229.12
802.53	229.05
802.85	229.06
803.17	229.03
803.49	228.97
803.81	228.92
804.13	228.87
804.45	228.82
804.77	228.82
805.09	228.81
805.41	228.76
805.73	228.70
806.05	228.68
806.37	228.63
806.69	228.58
807.01	228.57
807.33	228.56
807.65	228.48
807.97	228.47
808.28	228.40
808.60	228.37
808.92	228.35
809.24	228.41
809.56	228.35
809.88	228.30
810.20	228.30
810.52	228.30
810.84	228.30
811.16	228.30
811.48	228.24
811.80	228.25
812.12	228.25
812.43	228.29
812.75	228.26
813.07	228.25
813.39	228.27
813.71	228.22
814.03	228.16
814.35	228.18
814.67	228.12
814.98	228.12
815.30	228.14
815.62	228.07
815.94	228.00
816.26	228.04
816.58	228.04
816.89	228.01
817.21	227.99
817.53	227.95
817.85	227.92
818.17	227.94
818.48	227.88
818.80	227.87
819.12	227.87
819.44	227.86
819.76	227.84
820.07	227.86
820.39	227.86
820.71	227.89
821.03	227.88
821.34	227.88
821.66	227.85
821.98	227.83
822.30	227.85
822.61	227.88
822.93	227.82
823.25	227.83
823.57	227.82
823.88	227.82
824.20	227.83
824.52	227.83
824.83	227.78
825.15	227.74
825.47	227.74
825.79	227.71
826.10	227.72
826.42	227.71
826.74	227.69
827.05	227.66
827.37	227.64
827.69	227.63
828.00	227.63
828.32	227.63
828.64	227.62
828.95	227.65
829.27	227.62
829.58	227.64
829.90	227.59
830.22	227.61
830.53	227.59
830.85	227.59
831.17	227.56
831.48	227.57
831.80	227.58
832.11	227.58
832.43	227.53
832.75	227.48
833.06	227.52
833.38	227.48
833.69	227.49
834.01	227.49
834.32	227.44
834.64	227.43
834.96	227.40
835.27	227.36
835.59	227.32
835.90	227.28
836.22	227.24
836.53	227.22
836.85	227.19
837.16	227.28
837.48	227.24
837.79	227.24
838.11	227.23
838.42	227.22
838.74	227.20
839.05	227.17
839.37	227.18
839.68	227.12
840.00	227.08
840.31	227.09
840.63	227.05
840.94	227.02
841.26	226.99
841.57	226.99
841.88	227.00
842.20	226.96
842.51	226.90
842.83	226.88
843.14	226.98
843.46	226.96
843.77	226.89
844.08	226.87
844.40	226.82
844.71	226.81
845.03	226.76
845.34	226.74
845.65	226.73
845.97	226.68
846.28	226.64
846.60	226.64
846.91	226.56
847.22	226.52
847.54	226.55
847.85	226.55
848.16	226.52
848.48	226.52
848.79	226.54
849.10	226.55
849.42	226.53
849.73	226.41
850.04	226.37
850.36	226.31
850.67	226.31
850.98	226.34
851.30	226.32
851.61	226.33
851.92	226.33
852.23	226.37
852.55	226.42
852.86	226.44
853.17	226.46
853.49	226.49
853.80	226.51
854.11	226.50
854.42	226.51
854.74	226.51
855.05	226.49
855.36	226.46
855.67	226.49
855.99	226.50
856.30	226.63
856.61	226.63
856.92	226.62
857.23	226.63
857.55	226.61
857.86	226.61
858.17	226.60
858.48	226.58
858.79	226.52
859.11	226.50
859.42	226.48
859.73	226.40
860.04	226.38
860.35	226.35
860.66	226.31
860.98	226.29
861.29	226.29
861.60	226.24
861.91	226.28
862.22	226.23
862.53	226.24
862.84	226.11
863.16	226.12
863.47	226.11
863.78	226.09
864.09	226.07
864.40	226.10
864.71	226.11
865.02	226.13
865.33	226.14
865.64	226.12
865.95	226.09
866.27	226.19
866.58	226.20
866.89	226.21
867.20	226.21
867.51	226.20
867.82	226.21
868.13	226.24
868.44	226.21
868.75	226.25
869.06	226.24
869.37	226.26
869.68	226.20
869.99	226.22
870.30	226.24
870.61	226.24
870.92	226.21
871.23	226.21
871.54	226.24
871.85	226.27
872.16	226.26
872.47	226.28
872.78	226.24
873.09	226.24
873.40	226.25
873.71	226.26
874.02	226.28
874.33	226.24
874.64	226.26
874.95	226.28
875.26	226.24
875.56	226.20
875.87	226.17
876.18	226.20
876.49	226.28
876.80	226.28
877.11	226.26
877.42	226.31
877.73	226.26
878.04	226.24
878.35	226.22
878.66	226.24
878.96	226.26
879.27	226.22
879.58	226.21
879.89	226.19
880.20	226.24
880.51	226.25
880.82	226.26
881.12	226.23
881.43	226.21
881.74	226.20
882.05	226.23
882.36	226.24
882.67	226.25
882.97	226.12
883.28	226.12
883.59	226.12
883.90	226.08
884.21	226.13
884.51	226.07
884.82	226.05
885.13	226.05
885.44	226.04
885.74	226.07
886.05	226.09
886.36	226.09
886.67	226.05
886.98	226.08
887.28	226.07
887.59	226.08
887.90	226.10
888.20	226.09
888.51	226.10
888.82	226.09
889.13	226.09
889.43	226.18
889.74	226.17
890.05	226.18
890.35	226.19
890.66	226.14
890.97	226.18
891.28	226.17
891.58	226.19
891.89	226.17
892.20	226.15
892.50	226.14
892.81	226.17
893.12	226.16
893.42	226.08
893.73	226.13
894.04	226.13
894.34	226.10
894.65	226.14
894.95	226.13
895.26	226.13
895.57	226.19
895.87	226.12
896.18	226.11
896.48	226.12
896.79	226.14
897.10	226.19
897.40	226.22
897.71	226.23
898.01	226.21
898.32	226.22
898.63	226.23
898.93	226.21
899.24	226.18
899.54	226.16
899.85	226.18
900.15	226.15
900.46	226.14
900.76	226.18
901.07	226.19
901.38	226.19
901.68	226.22
901.99	226.18
902.29	226.18
902.60	226.22
902.90	226.22
903.21	226.21
903.51	226.18
903.82	226.18
904.12	226.16
904.43	226.21
904.73	226.23
905.03	226.23
905.34	226.34
905.64	226.36
905.95	226.35
906.25	226.38
906.56	226.42
906.86	226.44
907.17	226.41
907.47	226.39
907.77	226.38
908.08	226.40
908.38	226.38
908.69	226.40
908.99	226.41
909.30	226.41
909.60	226.40
909.90	226.42
910.21	226.41
910.51	226.42
910.81	226.38
911.12	226.37
911.42	226.37
911.73	226.26
912.03	226.28
912.33	226.29
912.64	226.26
912.94	226.22
913.24	226.19
913.55	226.18
913.85	226.15
914.15	226.16
914.46	226.14
914.76	226.15
915.06	226.13
915.37	226.11
915.67	226.11
915.97	226.12
916.27	226.09
916.58	226.06
916.88	226.03
917.18	226.03
917.49	226.08
917.79	226.09
918.09	226.12
918.39	226.11
918.70	226.14
919.00	226.13
919.30	226.18
919.60	226.17
919.91	226.18
920.21	226.18
920.51	226.14
920.81	226.10
921.12	226.11
921.42	226.09
921.72	226.08
922.02	226.05
922.32	226.01
922.63	225.99
922.93	226.05
923.23	226.03
923.53	226.02
923.83	225.97
924.13	225.95
924.44	225.92
924.74	225.91
925.04	225.93
925.34	225.92
925.64	225.86
925.94	225.86
926.24	225.90
926.55	225.90
926.85	225.90
927.15	225.93
927.45	225.91
927.75	225.90
928.05	225.91
928.35	225.92
928.65	225.97
928.95	225.96
929.26	225.92
929.56	225.95
929.86	226.01
930.16	225.98
930.46	226.00
930.76	226.01
931.06	225.99
931.36	225.94
931.66	225.96
931.96	226.01
932.26	226.04
932.56	225.99
932.86	226.01
933.16	226.02
933.46	226.01
933.76	226.01
934.06	226.05
934.36	226.08
934.66	226.10
934.96	226.08
935.26	226.11
935.56	226.15
935.86	226.09
936.16	226.06
936.46	226.02
936.76	226.03
937.06	226.02
937.36	226.04
937.66	226.04
937.96	226.05
938.26	226.04
938.56	226.01
938.86	226.02
939.16	226.06
939.46	226.11
939.76	226.12
940.06	226.12
940.35	226.10
940.65	226.06
940.95	226.09
941.25	226.08
941.55	226.08
941.85	226.08
942.15	226.15
942.45	226.17
942.75	226.20
943.04	226.18
943.34	226.20
943.64	226.20
943.94	226.22
944.24	226.22
944.54	226.21
944.84	226.21
945.13	226.22
945.43	226.20
945.73	226.16
946.03	226.17
946.33	226.20
946.62	226.20
946.92	226.20
947.22	226.17
947.52	226.19
947.82	226.20
948.11	226.16
948.41	226.14
948.71	226.14
949.01	226.17
949.31	226.18
949.60	226.18
949.90	226.19
950.20	226.19
950.50	226.16
950.79	226.15
951.09	226.20
951.39	226.23
951.69	226.20
951.98	226.22
952.28	226.20
952.58	226.15
952.87	226.14
953.17	226.15
953.47	226.15
953.76	226.13
954.06	226.11
954.36	226.11
954.66	226.08
954.95	226.07
955.25	226.06
955.55	226.06
955.84	226.02
956.14	226.02
956.44	226.01
956.73	226.02
957.03	225.99
957.32	225.94
957.62	225.90
957.92	225.89
958.21	225.87
958.51	225.99
958.81	226.00
959.10	226.01
959.40	226.04
959.69	226.02
959.99	226.02
960.29	226.03
960.58	226.02
960.88	226.08
961.17	226.07
961.47	226.07
961.76	226.07
962.06	226.06
962.36	226.05
962.65	226.08
962.95	226.09
963.24	226.08
963.54	226.11
963.83	226.09
964.13	226.12
964.42	226.08
964.72	226.00
965.01	226.01
965.31	226.00
965.60	225.98
965.90	226.07
966.19	226.06
966.49	226.05
966.78	226.04
967.08	226.04
967.37	226.06
967.67	226.03
967.96	226.05
968.26	226.07
968.55	226.09
968.85	226.09
969.14	226.06
969.43	226.08
969.73	226.08
970.02	226.10
970.32	226.08
970.61	226.10
970.91	226.08
971.20	226.05
971.49	226.03
971.79	226.03
972.08	225.94
972.38	225.94
972.67	225.93
972.96	225.93
973.26	225.89
973.55	225.85
973.85	225.87
974.14	225.87
974.43	225.88
974.73	225.86
975.02	225.84
975.31	225.85
975.61	225.83
975.90	225.80
976.19	225.80
976.49	225.83
976.78	225.83
977.07	225.83
977.37	225.88
977.66	225.89
977.95	225.92
978.24	225.93
978.54	225.97
978.83	225.99
979.12	226.01
979.42	226.04
979.71	226.08
980.00	226.05
980.29	226.04
980.59	226.04
980.88	226.05
981.17	226.07
981.46	226.10
981.76	226.11
982.05	226.19
982.34	226.19
982.63	226.18
982.93	226.17
983.22	226.20
983.51	226.22
983.80	226.27
984.09	226.26
984.39	226.25
984.68	226.23
984.97	226.26
985.26	226.23
985.55	226.22
985.85	226.17
986.14	226.21
986.43	226.22
986.72	226.20
987.01	226.19
987.30	226.15
987.59	226.12
987.89	226.11
988.18	226.06
988.47	226.03
988.76	226.01
989.05	226.02
989.34	226.01
989.63	225.98
989.92	225.96
990.22	225.93
990.51	225.95
990.80	225.92
991.09	225.87
991.38	225.88
991.67	225.88
991.96	225.90
992.25	225.92
992.54	225.90
992.83	225.91
993.12	225.88
993.41	225.89
993.70	225.92
993.99	225.94
994.28	225.92
994.58	225.91
994.87	225.88
995.16	225.90
995.45	225.89
995.74	225.87
996.03	225.88
996.32	225.89
996.61	225.90
996.90	225.91
997.19	225.93
997.48	225.94
997.77	225.88
998.06	225.91
998.34	225.88
998.63	225.87
998.92	225.83
999.21	225.86
999.50	225.87
999.79	225.84
1000.08	225.80
1000.37	225.81
1000.66	225.81
1000.95	225.85
1001.24	225.81
1001.53	225.79
1001.82	225.80
1002.11	225.77
1002.40	225.77
1002.68	225.77
1002.97	225.83
1003.26	225.82
1003.55	225.81
1003.84	225.86
1004.13	225.85
1004.42	225.86
1004.71	225.85
1004.99	225.88
1005.28	225.90
1005.57	225.90
1005.86	225.90
1006.15	225.91
1006.44	225.92
1006.72	225.92
1007.01	225.93
1007.30	225.94
1007.59	225.97
1007.88	225.92
1008.17	225.97
1008.45	225.94
1008.74	225.89
1009.03	225.86
1009.32	225.87
1009.60	225.87
1009.89	225.87
1010.18	225.83
1010.47	225.83
1010.76	225.79
1011.04	225.80
1011.33	225.81
1011.62	225.82
1011.91	225.87
1012.19	225.88
1012.48	225.88
1012.77	225.89
1013.05	225.91
1013.34	225.91
1013.63	225.88
1013.92	225.90
1014.20	225.85
1014.49	225.86
1014.78	225.90
1015.06	225.84
1015.35	225.81
1015.64	225.80
1015.92	225.79
1016.21	225.77
1016.50	225.77
1016.78	225.79
1017.07	225.79
1017.36	225.74
1017.64	225.73
1017.93	225.70
1018.22	225.69
1018.50	225.69
1018.79	225.68
1019.08	225.64
1019.36	225.64
1019.65	225.62
1019.93	225.66
1020.22	225.69
1020.51	225.76
1020.79	225.72
1021.08	225.67
1021.36	225.82
1021.65	225.40
1021.94	225.95
1022.22	225.54
1022.51	225.51
1022.79	226.58
1023.08	225.92
1023.36	227.35
1023.65	225.20
>>>>>End Processed Spectral Data<<<<<
