SpectraSuite Data File
++++++++++++++++++++++++++++++++++++
Date: Fri Feb 01 15:54:42 EST 2013
User: group
Dark Spectrum Present: No
Reference Spectrum Present: No
Number of Sampled Component Spectra: 1
Spectrometers: USB2E7196
Integration Time (usec): 35000 (USB2E7196)
Spectra Averaged: 100 (USB2E7196)
Boxcar Smoothing: 10 (USB2E7196)
Correct for Electrical Dark: No (USB2E7196)
Strobe/Lamp Enabled: No (USB2E7196)
Correct for Detector Non-linearity: No (USB2E7196)
Correct for Stray Light: No (USB2E7196)
Number of Pixels in Processed Spectrum: 2048
>>>>>Begin Processed Spectral Data<<<<<
339.09	0.00
339.48	214.68
339.86	216.19
340.24	217.87
340.63	219.03
341.01	221.75
341.39	221.88
341.78	223.22
342.16	224.46
342.54	224.72
342.93	213.19
343.31	223.95
343.69	224.50
344.07	224.97
344.46	225.40
344.84	225.78
345.22	226.01
345.60	226.27
345.99	226.44
346.37	226.55
346.75	226.65
347.13	226.71
347.52	226.77
347.90	226.84
348.28	226.87
348.66	226.93
349.05	226.90
349.43	226.98
349.81	227.01
350.19	227.08
350.57	227.18
350.96	227.23
351.34	227.37
351.72	227.44
352.10	227.53
352.48	227.60
352.87	227.65
353.25	227.73
353.63	227.75
354.01	227.83
354.39	227.91
354.77	228.01
355.15	228.12
355.54	228.20
355.92	228.24
356.30	228.29
356.68	228.41
357.06	228.48
357.44	228.49
357.82	228.51
358.20	228.60
358.58	228.62
358.97	228.70
359.35	228.76
359.73	228.87
360.11	228.90
360.49	228.97
360.87	229.02
361.25	229.06
361.63	229.15
362.01	229.20
362.39	229.21
362.77	229.23
363.15	229.24
363.53	229.24
363.91	229.28
364.29	229.28
364.67	229.21
365.05	229.23
365.43	229.24
365.81	229.29
366.19	229.31
366.57	229.37
366.95	229.35
367.33	229.31
367.71	229.27
368.09	229.30
368.47	229.24
368.85	229.20
369.23	229.21
369.61	229.16
369.99	229.17
370.37	229.15
370.75	229.16
371.13	229.12
371.51	229.07
371.89	229.03
372.27	229.00
372.65	228.96
373.03	228.90
373.41	228.85
373.78	228.81
374.16	228.72
374.54	228.63
374.92	228.55
375.30	228.51
375.68	228.43
376.06	228.37
376.44	228.32
376.82	228.28
377.19	228.19
377.57	228.14
377.95	228.01
378.33	227.94
378.71	227.84
379.09	227.76
379.47	227.74
379.84	227.63
380.22	227.57
380.60	227.49
380.98	227.43
381.36	227.36
381.73	227.28
382.11	227.22
382.49	227.16
382.87	227.10
383.25	227.01
383.62	227.08
384.00	227.04
384.38	227.00
384.76	226.97
385.13	226.96
385.51	226.90
385.89	226.87
386.27	226.83
386.64	226.76
387.02	226.72
387.40	226.64
387.78	226.62
388.15	226.55
388.53	226.52
388.91	226.51
389.29	226.47
389.66	226.44
390.04	226.42
390.42	226.40
390.79	226.39
391.17	226.39
391.55	226.24
391.92	226.18
392.30	226.16
392.68	226.16
393.05	226.14
393.43	226.18
393.81	226.18
394.18	226.16
394.56	226.18
394.94	226.20
395.31	226.23
395.69	226.28
396.06	226.32
396.44	226.37
396.82	226.38
397.19	226.45
397.57	226.47
397.95	226.51
398.32	226.53
398.70	226.63
399.07	226.69
399.45	226.75
399.82	226.82
400.20	226.90
400.58	226.95
400.95	227.00
401.33	227.08
401.70	227.25
402.08	227.35
402.45	227.45
402.83	227.57
403.20	227.67
403.58	227.77
403.95	227.91
404.33	228.04
404.71	228.14
405.08	228.33
405.46	228.50
405.83	228.64
406.21	228.83
406.58	228.95
406.96	229.10
407.33	229.31
407.70	229.50
408.08	229.75
408.45	229.99
408.83	230.22
409.20	230.43
409.58	230.61
409.95	230.90
410.33	231.17
410.70	231.43
411.08	231.74
411.45	232.05
411.82	232.40
412.20	232.74
412.57	233.17
412.95	233.47
413.32	233.87
413.69	234.32
414.07	234.71
414.44	235.21
414.82	235.69
415.19	236.23
415.56	236.79
415.94	237.31
416.31	237.93
416.68	238.56
417.06	239.24
417.43	239.92
417.81	240.68
418.18	241.45
418.55	242.30
418.93	243.13
419.30	244.06
419.67	244.94
420.04	245.89
420.42	246.91
420.79	248.10
421.16	249.25
421.54	250.39
421.91	251.62
422.28	252.86
422.66	254.20
423.03	255.50
423.40	256.85
423.77	258.26
424.15	259.70
424.52	261.18
424.89	262.81
425.26	264.37
425.64	265.81
426.01	267.41
426.38	269.02
426.75	270.70
427.13	272.41
427.50	274.22
427.87	276.11
428.24	277.94
428.61	279.66
428.99	281.62
429.36	283.71
429.73	285.82
430.10	287.80
430.47	289.83
430.85	291.95
431.22	294.16
431.59	296.53
431.96	298.79
432.33	301.25
432.70	303.66
433.08	306.47
433.45	309.14
433.82	311.76
434.19	314.70
434.56	317.58
434.93	320.23
435.30	322.86
435.68	325.74
436.05	328.60
436.42	331.43
436.79	333.95
437.16	336.68
437.53	339.54
437.90	342.42
438.27	345.20
438.64	348.00
439.01	350.61
439.38	352.83
439.75	354.99
440.13	357.51
440.50	359.85
440.87	361.68
441.24	363.61
441.61	365.73
441.98	367.18
442.35	368.95
442.72	370.75
443.09	372.52
443.46	373.53
443.83	374.10
444.20	374.60
444.57	375.42
444.94	375.67
445.31	375.93
445.68	376.27
446.05	376.33
446.42	375.93
446.79	375.49
447.16	375.04
447.53	374.70
447.90	373.53
448.27	372.34
448.64	370.75
449.01	369.56
449.37	367.63
449.74	365.72
450.11	363.47
450.48	361.03
450.85	358.51
451.22	356.40
451.59	354.39
451.96	352.40
452.33	349.80
452.70	347.45
453.07	344.61
453.43	341.69
453.80	338.91
454.17	336.24
454.54	333.69
454.91	330.94
455.28	328.28
455.65	325.75
456.02	323.30
456.38	321.15
456.75	318.52
457.12	316.24
457.49	314.00
457.86	311.82
458.23	309.99
458.59	307.97
458.96	305.89
459.33	304.01
459.70	302.14
460.07	300.62
460.43	298.90
460.80	297.32
461.17	295.86
461.54	294.37
461.91	292.97
462.27	291.53
462.64	290.30
463.01	288.94
463.38	287.67
463.74	286.30
464.11	285.15
464.48	284.12
464.85	283.05
465.21	282.20
465.58	281.25
465.95	280.12
466.32	279.21
466.68	278.28
467.05	277.41
467.42	276.52
467.78	275.59
468.15	274.73
468.52	274.03
468.88	273.22
469.25	272.47
469.62	271.85
469.98	271.17
470.35	270.56
470.72	270.00
471.08	269.35
471.45	268.82
471.82	268.28
472.18	267.69
472.55	267.25
472.92	266.75
473.28	266.30
473.65	265.94
474.02	265.51
474.38	265.13
474.75	264.81
475.11	264.49
475.48	264.23
475.85	263.99
476.21	263.77
476.58	263.53
476.94	263.39
477.31	263.22
477.67	263.12
478.04	263.02
478.41	262.93
478.77	262.99
479.14	262.95
479.50	262.97
479.87	263.05
480.23	263.12
480.60	263.17
480.96	263.25
481.33	263.39
481.69	263.60
482.06	263.82
482.42	264.01
482.79	264.26
483.15	264.59
483.52	264.99
483.88	265.35
484.25	265.76
484.61	266.14
484.98	266.57
485.34	267.14
485.71	267.71
486.07	268.32
486.44	268.87
486.80	269.56
487.17	270.29
487.53	271.12
487.90	272.00
488.26	272.95
488.62	273.96
488.99	274.94
489.35	275.91
489.72	277.04
490.08	278.21
490.44	279.44
490.81	280.80
491.17	282.13
491.54	283.61
491.90	285.13
492.26	286.82
492.63	288.55
492.99	290.31
493.36	292.21
493.72	294.26
494.08	296.38
494.45	298.61
494.81	300.98
495.17	303.36
495.54	305.93
495.90	308.60
496.26	311.41
496.63	314.41
496.99	317.51
497.35	320.76
497.72	324.18
498.08	327.72
498.44	331.40
498.80	335.32
499.17	339.37
499.53	343.56
499.89	347.92
500.26	352.42
500.62	357.13
500.98	362.11
501.34	367.15
501.71	372.46
502.07	377.88
502.43	383.52
502.79	389.37
503.16	395.38
503.52	401.64
503.88	408.04
504.24	414.67
504.60	421.57
504.97	428.75
505.33	436.16
505.69	443.87
506.05	451.63
506.41	459.53
506.78	467.69
507.14	476.13
507.50	484.81
507.86	493.88
508.22	503.00
508.59	512.18
508.95	521.84
509.31	531.73
509.67	541.85
510.03	552.08
510.39	562.60
510.75	573.47
511.12	584.47
511.48	595.78
511.84	607.26
512.20	618.78
512.56	630.62
512.92	642.76
513.28	655.08
513.64	667.57
514.00	680.26
514.37	693.18
514.73	706.22
515.09	719.28
515.45	732.46
515.81	746.10
516.17	760.09
516.53	774.13
516.89	788.25
517.25	802.40
517.61	816.79
517.97	831.33
518.33	845.82
518.69	860.62
519.05	875.55
519.41	890.60
519.77	906.12
520.13	921.60
520.49	936.93
520.85	952.30
521.21	968.01
521.57	984.36
521.93	1000.07
522.29	1016.47
522.65	1032.62
523.01	1048.89
523.37	1065.02
523.73	1081.22
524.09	1097.34
524.45	1113.65
524.81	1130.35
525.17	1147.23
525.53	1164.09
525.89	1180.86
526.25	1197.51
526.61	1213.93
526.97	1230.70
527.33	1247.23
527.68	1263.83
528.04	1280.29
528.40	1296.93
528.76	1313.91
529.12	1330.34
529.48	1347.23
529.84	1363.26
530.20	1380.00
530.56	1397.04
530.91	1414.25
531.27	1430.89
531.63	1447.38
531.99	1463.95
532.35	1479.77
532.71	1495.73
533.07	1511.90
533.42	1527.77
533.78	1543.92
534.14	1560.20
534.50	1575.47
534.86	1591.24
535.21	1606.48
535.57	1622.44
535.93	1637.92
536.29	1652.65
536.65	1667.71
537.00	1682.46
537.36	1697.76
537.72	1712.22
538.08	1726.63
538.44	1740.44
538.79	1754.31
539.15	1767.88
539.51	1781.48
539.87	1795.85
540.22	1809.45
540.58	1823.12
540.94	1836.42
541.29	1849.28
541.65	1861.97
542.01	1875.23
542.37	1887.57
542.72	1899.97
543.08	1911.68
543.44	1924.06
543.79	1935.34
544.15	1946.25
544.51	1957.86
544.87	1968.77
545.22	1979.49
545.58	1989.58
545.94	1999.32
546.29	2009.14
546.65	2019.03
547.01	2028.30
547.36	2036.96
547.72	2045.33
548.07	2053.26
548.43	2061.43
548.79	2069.44
549.14	2076.97
549.50	2084.29
549.86	2091.89
550.21	2099.10
550.57	2106.25
550.92	2112.74
551.28	2119.78
551.64	2126.85
551.99	2133.19
552.35	2139.31
552.70	2145.49
553.06	2151.56
553.41	2157.90
553.77	2163.92
554.13	2169.97
554.48	2176.10
554.84	2181.71
555.19	2187.12
555.55	2192.21
555.90	2196.64
556.26	2201.36
556.61	2205.96
556.97	2210.23
557.32	2214.52
557.68	2218.66
558.03	2222.93
558.39	2226.73
558.74	2231.31
559.10	2235.20
559.45	2239.07
559.81	2243.40
560.16	2247.32
560.52	2250.43
560.87	2253.87
561.23	2256.60
561.58	2259.50
561.94	2261.98
562.29	2264.29
562.64	2266.98
563.00	2269.56
563.35	2273.13
563.71	2276.35
564.06	2279.66
564.42	2282.52
564.77	2284.89
565.12	2287.22
565.48	2289.19
565.83	2290.97
566.19	2292.26
566.54	2293.14
566.89	2294.16
567.25	2294.71
567.60	2295.89
567.96	2297.65
568.31	2298.59
568.66	2299.73
569.02	2300.37
569.37	2300.84
569.72	2301.69
570.08	2301.74
570.43	2301.87
570.78	2301.33
571.14	2299.88
571.49	2298.48
571.84	2298.22
572.20	2297.12
572.55	2296.07
572.90	2294.66
573.26	2293.26
573.61	2291.58
573.96	2289.79
574.31	2286.93
574.67	2283.92
575.02	2280.36
575.37	2277.06
575.72	2273.14
576.08	2269.71
576.43	2266.49
576.78	2262.80
577.13	2259.61
577.49	2256.66
577.84	2253.12
578.19	2249.34
578.54	2245.68
578.90	2241.51
579.25	2235.84
579.60	2230.81
579.95	2225.80
580.30	2220.58
580.66	2215.55
581.01	2210.75
581.36	2205.95
581.71	2201.65
582.06	2197.13
582.42	2192.67
582.77	2187.36
583.12	2182.84
583.47	2178.22
583.82	2173.16
584.17	2167.87
584.53	2162.44
584.88	2156.65
585.23	2150.92
585.58	2145.37
585.93	2139.85
586.28	2135.13
586.63	2130.10
586.98	2125.13
587.34	2120.36
587.69	2115.51
588.04	2110.11
588.39	2104.26
588.74	2097.67
589.09	2091.59
589.44	2084.93
589.79	2079.04
590.14	2073.42
590.49	2066.79
590.84	2060.33
591.19	2054.24
591.54	2047.79
591.89	2040.30
592.25	2033.54
592.60	2026.24
592.95	2018.80
593.30	2011.52
593.65	2003.76
594.00	1996.74
594.35	1989.56
594.70	1981.52
595.05	1974.19
595.40	1966.91
595.75	1959.45
596.10	1953.29
596.45	1946.50
596.80	1940.35
597.15	1933.58
597.50	1926.46
597.85	1920.11
598.19	1913.46
598.54	1906.27
598.89	1899.65
599.24	1893.79
599.59	1887.06
599.94	1880.96
600.29	1874.51
600.64	1868.12
600.99	1860.73
601.34	1853.92
601.69	1846.91
602.04	1839.98
602.39	1832.76
602.74	1825.84
603.08	1819.18
603.43	1812.47
603.78	1805.29
604.13	1797.94
604.48	1790.57
604.83	1783.82
605.18	1776.66
605.53	1768.64
605.87	1760.63
606.22	1753.45
606.57	1745.47
606.92	1738.25
607.27	1731.07
607.62	1724.21
607.96	1716.61
608.31	1709.96
608.66	1702.31
609.01	1694.73
609.36	1687.27
609.70	1679.23
610.05	1671.33
610.40	1663.55
610.75	1655.22
611.10	1647.40
611.44	1639.10
611.79	1631.25
612.14	1622.43
612.49	1613.36
612.83	1605.02
613.18	1596.92
613.53	1588.73
613.88	1580.32
614.22	1571.94
614.57	1563.32
614.92	1555.22
615.27	1547.73
615.61	1539.42
615.96	1531.47
616.31	1523.93
616.65	1516.41
617.00	1508.89
617.35	1501.28
617.70	1493.01
618.04	1484.49
618.39	1476.40
618.74	1468.80
619.08	1460.42
619.43	1452.93
619.78	1446.08
620.12	1438.90
620.47	1431.55
620.82	1423.45
621.16	1415.91
621.51	1408.37
621.85	1400.83
622.20	1392.40
622.55	1384.11
622.89	1376.40
623.24	1368.69
623.59	1361.22
623.93	1353.80
624.28	1346.54
624.62	1338.93
624.97	1331.72
625.32	1325.06
625.66	1317.99
626.01	1310.66
626.35	1303.18
626.70	1295.44
627.04	1287.65
627.39	1279.88
627.73	1272.41
628.08	1265.55
628.43	1258.34
628.77	1250.83
629.12	1243.19
629.46	1235.99
629.81	1228.60
630.15	1221.32
630.50	1213.88
630.84	1205.71
631.19	1197.79
631.53	1190.28
631.88	1182.74
632.22	1175.25
632.57	1167.89
632.91	1160.31
633.26	1152.98
633.60	1145.75
633.95	1138.71
634.29	1131.74
634.64	1125.09
634.98	1117.66
635.32	1110.42
635.67	1103.93
636.01	1097.46
636.36	1090.67
636.70	1084.10
637.05	1077.48
637.39	1070.91
637.73	1064.41
638.08	1058.51
638.42	1052.53
638.77	1046.09
639.11	1039.44
639.45	1032.92
639.80	1026.29
640.14	1019.86
640.49	1013.32
640.83	1006.93
641.17	1000.55
641.52	994.15
641.86	987.66
642.20	981.76
642.55	975.41
642.89	968.79
643.23	962.18
643.58	956.35
643.92	950.18
644.26	944.11
644.61	938.17
644.95	932.09
645.29	925.47
645.64	918.65
645.98	912.38
646.32	906.65
646.66	900.61
647.01	894.74
647.35	889.11
647.69	883.26
648.04	877.73
648.38	871.96
648.72	865.94
649.06	859.87
649.41	854.01
649.75	848.12
650.09	842.14
650.43	836.34
650.78	830.26
651.12	824.32
651.46	818.54
651.80	812.76
652.14	807.45
652.49	802.11
652.83	797.08
653.17	791.28
653.51	785.54
653.85	780.18
654.20	774.50
654.54	768.48
654.88	762.84
655.22	756.98
655.56	751.35
655.90	745.92
656.25	740.72
656.59	735.37
656.93	730.25
657.27	725.09
657.61	719.68
657.95	714.53
658.29	709.42
658.64	704.23
658.98	698.87
659.32	693.43
659.66	688.23
660.00	682.78
660.34	677.84
660.68	672.85
661.02	667.80
661.36	663.10
661.70	658.61
662.05	654.20
662.39	649.92
662.73	645.38
663.07	641.13
663.41	636.61
663.75	632.10
664.09	627.53
664.43	623.12
664.77	619.01
665.11	614.72
665.45	610.53
665.79	606.38
666.13	602.33
666.47	598.24
666.81	594.04
667.15	589.95
667.49	586.10
667.83	582.38
668.17	578.45
668.51	574.41
668.85	570.35
669.19	566.51
669.53	562.59
669.87	558.69
670.21	554.92
670.55	551.26
670.89	547.87
671.23	544.42
671.57	540.95
671.91	537.42
672.25	533.98
672.58	530.57
672.92	527.21
673.26	524.01
673.60	520.84
673.94	517.72
674.28	514.88
674.62	511.90
674.96	508.73
675.30	505.78
675.64	502.82
675.97	500.08
676.31	497.22
676.65	494.28
676.99	491.63
677.33	488.74
677.67	485.99
678.01	482.95
678.34	479.99
678.68	477.07
679.02	474.24
679.36	471.47
679.70	468.72
680.04	465.91
680.37	463.01
680.71	460.21
681.05	457.68
681.39	454.93
681.73	452.31
682.06	449.76
682.40	447.21
682.74	444.72
683.08	442.17
683.42	439.53
683.75	437.05
684.09	434.52
684.43	432.00
684.77	429.52
685.10	427.17
685.44	424.89
685.78	422.67
686.12	420.41
686.45	418.03
686.79	415.70
687.13	413.55
687.46	411.46
687.80	409.30
688.14	407.06
688.48	404.96
688.81	402.67
689.15	400.55
689.49	398.45
689.82	396.38
690.16	394.28
690.50	392.39
690.83	390.44
691.17	388.47
691.51	386.63
691.84	384.78
692.18	382.83
692.52	380.81
692.85	378.85
693.19	377.00
693.52	375.24
693.86	373.49
694.20	371.72
694.53	369.89
694.87	368.06
695.21	366.24
695.54	364.40
695.88	362.68
696.21	360.95
696.55	359.24
696.88	357.55
697.22	355.91
697.56	354.29
697.89	352.67
698.23	351.09
698.56	349.47
698.90	347.91
699.23	346.35
699.57	344.82
699.90	343.31
700.24	341.78
700.58	340.29
700.91	338.77
701.25	337.33
701.58	335.98
701.92	334.62
702.25	333.26
702.59	331.94
702.92	330.64
703.26	329.34
703.59	328.07
703.93	326.89
704.26	325.64
704.60	324.35
704.93	323.06
705.26	321.76
705.60	320.61
705.93	319.46
706.27	318.37
706.60	317.33
706.94	316.24
707.27	315.09
707.61	314.03
707.94	313.05
708.27	311.99
708.61	310.87
708.94	309.84
709.28	308.86
709.61	307.85
709.94	306.93
710.28	305.94
710.61	304.96
710.95	303.86
711.28	302.96
711.61	302.03
711.95	301.13
712.28	300.23
712.61	299.25
712.95	298.32
713.28	297.47
713.61	296.57
713.95	295.66
714.28	294.82
714.61	293.95
714.95	293.04
715.28	292.16
715.61	291.31
715.95	290.46
716.28	289.61
716.61	288.81
716.95	287.96
717.28	287.21
717.61	286.42
717.94	285.66
718.28	284.87
718.61	284.11
718.94	283.38
719.27	282.68
719.61	282.02
719.94	281.32
720.27	280.56
720.60	279.85
720.94	279.18
721.27	278.51
721.60	277.92
721.93	277.37
722.27	276.80
722.60	276.24
722.93	275.69
723.26	275.13
723.59	274.60
723.93	274.06
724.26	273.51
724.59	272.92
724.92	272.45
725.25	271.93
725.59	271.40
725.92	270.94
726.25	270.44
726.58	269.94
726.91	269.44
727.24	268.97
727.57	268.51
727.91	268.04
728.24	267.61
728.57	267.14
728.90	266.64
729.23	266.17
729.56	265.77
729.89	265.32
730.22	264.83
730.55	264.34
730.89	263.85
731.22	263.41
731.55	263.02
731.88	262.58
732.21	262.16
732.54	261.75
732.87	261.29
733.20	260.88
733.53	260.49
733.86	260.13
734.19	259.74
734.52	259.36
734.85	259.06
735.18	258.67
735.51	258.28
735.84	257.96
736.17	257.59
736.50	257.13
736.83	256.87
737.16	256.54
737.49	256.19
737.82	255.85
738.15	255.51
738.48	255.15
738.81	254.83
739.14	254.47
739.47	254.16
739.80	253.89
740.13	253.60
740.46	253.25
740.79	252.90
741.12	252.61
741.45	252.30
741.78	251.95
742.11	251.65
742.44	251.35
742.77	251.05
743.10	250.75
743.43	250.50
743.75	250.14
744.08	249.99
744.41	249.74
744.74	249.49
745.07	249.22
745.40	248.99
745.73	248.75
746.06	248.50
746.39	248.24
746.71	247.93
747.04	247.65
747.37	247.40
747.70	247.19
748.03	246.92
748.36	246.71
748.68	246.49
749.01	246.25
749.34	246.02
749.67	245.77
750.00	245.54
750.33	245.36
750.65	245.10
750.98	244.79
751.31	244.53
751.64	244.30
751.97	244.15
752.29	243.93
752.62	243.66
752.95	243.45
753.28	243.22
753.60	243.02
753.93	242.84
754.26	242.66
754.59	242.43
754.91	242.22
755.24	242.00
755.57	241.76
755.90	241.57
756.22	241.39
756.55	241.23
756.88	241.05
757.20	240.82
757.53	240.66
757.86	240.52
758.19	240.38
758.51	240.21
758.84	239.99
759.17	239.82
759.49	239.65
759.82	239.54
760.15	239.42
760.47	239.24
760.80	239.07
761.13	238.94
761.45	238.76
761.78	238.60
762.11	238.46
762.43	238.32
762.76	238.20
763.08	238.05
763.41	237.88
763.74	237.71
764.06	237.59
764.39	237.47
764.71	237.27
765.04	237.13
765.37	237.00
765.69	236.87
766.02	236.74
766.34	236.63
766.67	236.45
767.00	236.31
767.32	236.31
767.65	236.26
767.97	236.12
768.30	236.00
768.62	235.91
768.95	235.79
769.27	235.69
769.60	235.57
769.92	235.50
770.25	235.38
770.57	235.25
770.90	235.15
771.22	235.06
771.55	234.99
771.87	234.92
772.20	234.81
772.52	234.76
772.85	234.79
773.17	234.70
773.50	234.60
773.82	234.54
774.15	234.38
774.47	234.21
774.80	234.10
775.12	234.05
775.45	233.95
775.77	233.86
776.09	233.78
776.42	233.71
776.74	233.64
777.07	233.59
777.39	233.51
777.72	233.40
778.04	233.32
778.36	233.25
778.69	233.18
779.01	233.12
779.33	232.97
779.66	232.81
779.98	232.74
780.31	232.71
780.63	232.65
780.95	232.58
781.28	232.53
781.60	232.48
781.92	232.42
782.25	232.37
782.57	232.29
782.89	232.20
783.22	232.13
783.54	232.06
783.86	232.00
784.19	231.98
784.51	231.98
784.83	231.91
785.16	231.86
785.48	231.81
785.80	231.79
786.12	231.77
786.45	231.73
786.77	231.70
787.09	231.65
787.42	231.56
787.74	231.53
788.06	231.49
788.38	231.46
788.71	231.41
789.03	231.39
789.35	231.39
789.67	231.36
789.99	231.29
790.32	231.21
790.64	231.16
790.96	231.21
791.28	231.11
791.61	231.09
791.93	231.05
792.25	230.99
792.57	231.03
792.89	230.98
793.21	230.91
793.54	230.87
793.86	230.83
794.18	230.82
794.50	230.78
794.82	230.74
795.14	230.71
795.47	230.70
795.79	230.66
796.11	230.61
796.43	230.59
796.75	230.61
797.07	230.61
797.39	230.60
797.71	230.49
798.04	230.49
798.36	230.45
798.68	230.41
799.00	230.40
799.32	230.28
799.64	230.30
799.96	230.31
800.28	230.30
800.60	230.27
800.92	230.22
801.24	230.21
801.56	230.21
801.89	230.16
802.21	230.13
802.53	230.09
802.85	230.12
803.17	230.14
803.49	230.05
803.81	230.02
804.13	229.97
804.45	229.93
804.77	229.91
805.09	229.89
805.41	229.86
805.73	229.84
806.05	229.78
806.37	229.72
806.69	229.68
807.01	229.66
807.33	229.63
807.65	229.58
807.97	229.57
808.28	229.51
808.60	229.49
808.92	229.47
809.24	229.53
809.56	229.44
809.88	229.38
810.20	229.37
810.52	229.34
810.84	229.32
811.16	229.29
811.48	229.23
811.80	229.22
812.12	229.19
812.43	229.15
812.75	229.12
813.07	229.07
813.39	229.01
813.71	228.94
814.03	228.91
814.35	228.88
814.67	228.78
814.98	228.76
815.30	228.68
815.62	228.58
815.94	228.48
816.26	228.52
816.58	228.46
816.89	228.42
817.21	228.39
817.53	228.37
817.85	228.33
818.17	228.31
818.48	228.25
818.80	228.25
819.12	228.24
819.44	228.24
819.76	228.21
820.07	228.20
820.39	228.17
820.71	228.16
821.03	228.15
821.34	228.15
821.66	228.11
821.98	228.16
822.30	228.20
822.61	228.23
822.93	228.16
823.25	228.17
823.57	228.17
823.88	228.16
824.20	228.12
824.52	228.13
824.83	228.09
825.15	228.08
825.47	228.05
825.79	228.00
826.10	227.96
826.42	227.95
826.74	227.98
827.05	227.99
827.37	227.98
827.69	227.97
828.00	227.98
828.32	228.03
828.64	228.01
828.95	228.07
829.27	228.05
829.58	228.05
829.90	228.04
830.22	228.04
830.53	228.02
830.85	228.04
831.17	228.03
831.48	228.05
831.80	228.06
832.11	228.08
832.43	228.10
832.75	228.13
833.06	228.20
833.38	228.17
833.69	228.14
834.01	228.13
834.32	228.12
834.64	228.12
834.96	228.10
835.27	228.07
835.59	228.00
835.90	228.00
836.22	228.00
836.53	227.99
836.85	227.97
837.16	228.06
837.48	228.06
837.79	228.04
838.11	228.04
838.42	228.04
838.74	228.03
839.05	228.02
839.37	228.00
839.68	227.91
840.00	227.86
840.31	227.87
840.63	227.87
840.94	227.86
841.26	227.80
841.57	227.79
841.88	227.82
842.20	227.82
842.51	227.79
842.83	227.79
843.14	227.86
843.46	227.86
843.77	227.77
844.08	227.78
844.40	227.76
844.71	227.72
845.03	227.72
845.34	227.70
845.65	227.69
845.97	227.68
846.28	227.72
846.60	227.75
846.91	227.71
847.22	227.68
847.54	227.70
847.85	227.71
848.16	227.70
848.48	227.64
848.79	227.65
849.10	227.64
849.42	227.60
849.73	227.50
850.04	227.51
850.36	227.49
850.67	227.49
850.98	227.50
851.30	227.51
851.61	227.49
851.92	227.52
852.23	227.52
852.55	227.49
852.86	227.45
853.17	227.46
853.49	227.49
853.80	227.50
854.11	227.49
854.42	227.48
854.74	227.47
855.05	227.48
855.36	227.42
855.67	227.42
855.99	227.44
856.30	227.57
856.61	227.54
856.92	227.54
857.23	227.53
857.55	227.52
857.86	227.49
858.17	227.49
858.48	227.46
858.79	227.45
859.11	227.45
859.42	227.43
859.73	227.40
860.04	227.42
860.35	227.42
860.66	227.39
860.98	227.40
861.29	227.43
861.60	227.44
861.91	227.47
862.22	227.45
862.53	227.44
862.84	227.28
863.16	227.32
863.47	227.30
863.78	227.30
864.09	227.31
864.40	227.32
864.71	227.32
865.02	227.31
865.33	227.31
865.64	227.33
865.95	227.35
866.27	227.41
866.58	227.39
866.89	227.41
867.20	227.40
867.51	227.37
867.82	227.36
868.13	227.36
868.44	227.38
868.75	227.40
869.06	227.37
869.37	227.40
869.68	227.38
869.99	227.39
870.30	227.40
870.61	227.40
870.92	227.42
871.23	227.42
871.54	227.43
871.85	227.45
872.16	227.45
872.47	227.44
872.78	227.40
873.09	227.41
873.40	227.36
873.71	227.39
874.02	227.41
874.33	227.41
874.64	227.43
874.95	227.43
875.26	227.39
875.56	227.44
875.87	227.44
876.18	227.42
876.49	227.54
876.80	227.50
877.11	227.48
877.42	227.47
877.73	227.45
878.04	227.43
878.35	227.41
878.66	227.44
878.96	227.43
879.27	227.43
879.58	227.41
879.89	227.42
880.20	227.47
880.51	227.47
880.82	227.48
881.12	227.47
881.43	227.43
881.74	227.42
882.05	227.40
882.36	227.42
882.67	227.43
882.97	227.29
883.28	227.29
883.59	227.29
883.90	227.28
884.21	227.31
884.51	227.28
884.82	227.28
885.13	227.22
885.44	227.22
885.74	227.20
886.05	227.20
886.36	227.21
886.67	227.14
886.98	227.18
887.28	227.15
887.59	227.11
887.90	227.10
888.20	227.07
888.51	227.08
888.82	227.03
889.13	227.04
889.43	227.13
889.74	227.10
890.05	227.07
890.35	227.06
890.66	227.03
890.97	227.03
891.28	227.02
891.58	227.02
891.89	227.02
892.20	227.00
892.50	227.00
892.81	226.98
893.12	226.97
893.42	226.90
893.73	226.93
894.04	226.94
894.34	226.98
894.65	227.00
894.95	227.00
895.26	227.03
895.57	227.04
895.87	226.94
896.18	226.96
896.48	226.98
896.79	226.98
897.10	227.00
897.40	227.03
897.71	227.03
898.01	227.01
898.32	227.02
898.63	227.02
898.93	227.02
899.24	227.03
899.54	227.01
899.85	227.00
900.15	226.97
900.46	226.95
900.76	226.94
901.07	226.97
901.38	226.93
901.68	226.94
901.99	226.91
902.29	226.93
902.60	226.94
902.90	226.94
903.21	226.94
903.51	226.92
903.82	226.92
904.12	226.91
904.43	226.93
904.73	226.90
905.03	226.91
905.34	226.97
905.64	226.97
905.95	226.97
906.25	226.98
906.56	226.96
906.86	226.99
907.17	226.97
907.47	226.93
907.77	226.92
908.08	226.91
908.38	226.92
908.69	226.93
908.99	226.94
909.30	226.94
909.60	226.96
909.90	226.97
910.21	226.94
910.51	226.97
910.81	226.99
911.12	227.02
911.42	227.03
911.73	226.96
912.03	226.95
912.33	226.97
912.64	226.98
912.94	226.98
913.24	226.93
913.55	226.92
913.85	226.93
914.15	226.97
914.46	226.96
914.76	226.92
915.06	226.89
915.37	226.87
915.67	226.81
915.97	226.78
916.27	226.75
916.58	226.78
916.88	226.73
917.18	226.68
917.49	226.73
917.79	226.67
918.09	226.68
918.39	226.68
918.70	226.69
919.00	226.70
919.30	226.74
919.60	226.72
919.91	226.73
920.21	226.74
920.51	226.70
920.81	226.69
921.12	226.70
921.42	226.69
921.72	226.69
922.02	226.72
922.32	226.76
922.63	226.74
922.93	226.78
923.23	226.80
923.53	226.81
923.83	226.73
924.13	226.75
924.44	226.73
924.74	226.77
925.04	226.76
925.34	226.73
925.64	226.69
925.94	226.75
926.24	226.81
926.55	226.79
926.85	226.82
927.15	226.83
927.45	226.84
927.75	226.86
928.05	226.87
928.35	226.87
928.65	226.87
928.95	226.91
929.26	226.87
929.56	226.88
929.86	226.89
930.16	226.87
930.46	226.90
930.76	226.95
931.06	226.91
931.36	226.92
931.66	226.96
931.96	226.96
932.26	226.95
932.56	226.91
932.86	226.93
933.16	226.91
933.46	226.91
933.76	226.92
934.06	226.98
934.36	227.01
934.66	227.01
934.96	226.99
935.26	227.02
935.56	227.02
935.86	227.01
936.16	227.01
936.46	227.05
936.76	227.03
937.06	226.99
937.36	227.02
937.66	227.04
937.96	227.04
938.26	227.02
938.56	227.03
938.86	227.03
939.16	227.07
939.46	227.11
939.76	227.11
940.06	227.10
940.35	227.06
940.65	226.98
940.95	226.99
941.25	226.96
941.55	226.95
941.85	226.97
942.15	226.99
942.45	227.04
942.75	227.05
943.04	227.06
943.34	227.07
943.64	227.03
943.94	226.99
944.24	227.00
944.54	226.99
944.84	226.98
945.13	226.96
945.43	226.90
945.73	226.89
946.03	226.91
946.33	226.92
946.62	226.90
946.92	226.95
947.22	226.96
947.52	226.98
947.82	226.96
948.11	226.97
948.41	226.94
948.71	226.91
949.01	226.89
949.31	226.90
949.60	226.88
949.90	226.90
950.20	226.88
950.50	226.88
950.79	226.88
951.09	226.93
951.39	226.90
951.69	226.94
951.98	226.96
952.28	226.95
952.58	226.87
952.87	226.88
953.17	226.88
953.47	226.89
953.76	226.86
954.06	226.84
954.36	226.80
954.66	226.78
954.95	226.81
955.25	226.79
955.55	226.77
955.84	226.76
956.14	226.75
956.44	226.75
956.73	226.74
957.03	226.74
957.32	226.69
957.62	226.71
957.92	226.71
958.21	226.68
958.51	226.77
958.81	226.82
959.10	226.82
959.40	226.81
959.69	226.77
959.99	226.79
960.29	226.77
960.58	226.79
960.88	226.82
961.17	226.79
961.47	226.84
961.76	226.81
962.06	226.84
962.36	226.84
962.65	226.83
962.95	226.83
963.24	226.83
963.54	226.83
963.83	226.83
964.13	226.80
964.42	226.77
964.72	226.70
965.01	226.69
965.31	226.67
965.60	226.66
965.90	226.75
966.19	226.73
966.49	226.73
966.78	226.72
967.08	226.73
967.37	226.73
967.67	226.68
967.96	226.72
968.26	226.69
968.55	226.69
968.85	226.69
969.14	226.68
969.43	226.69
969.73	226.71
970.02	226.72
970.32	226.72
970.61	226.72
970.91	226.66
971.20	226.66
971.49	226.66
971.79	226.68
972.08	226.62
972.38	226.64
972.67	226.64
972.96	226.63
973.26	226.61
973.55	226.66
973.85	226.67
974.14	226.64
974.43	226.68
974.73	226.66
975.02	226.66
975.31	226.68
975.61	226.66
975.90	226.67
976.19	226.68
976.49	226.69
976.78	226.73
977.07	226.74
977.37	226.74
977.66	226.74
977.95	226.72
978.24	226.73
978.54	226.75
978.83	226.75
979.12	226.78
979.42	226.79
979.71	226.74
980.00	226.74
980.29	226.75
980.59	226.71
980.88	226.73
981.17	226.72
981.46	226.73
981.76	226.76
982.05	226.79
982.34	226.78
982.63	226.76
982.93	226.75
983.22	226.81
983.51	226.81
983.80	226.84
984.09	226.86
984.39	226.86
984.68	226.81
984.97	226.81
985.26	226.78
985.55	226.80
985.85	226.79
986.14	226.83
986.43	226.89
986.72	226.91
987.01	226.93
987.30	226.94
987.59	226.92
987.89	226.91
988.18	226.84
988.47	226.84
988.76	226.85
989.05	226.82
989.34	226.78
989.63	226.80
989.92	226.80
990.22	226.77
990.51	226.77
990.80	226.77
991.09	226.81
991.38	226.82
991.67	226.81
991.96	226.81
992.25	226.77
992.54	226.70
992.83	226.70
993.12	226.66
993.41	226.67
993.70	226.72
993.99	226.74
994.28	226.77
994.58	226.80
994.87	226.80
995.16	226.82
995.45	226.81
995.74	226.79
996.03	226.84
996.32	226.86
996.61	226.87
996.90	226.90
997.19	226.87
997.48	226.85
997.77	226.83
998.06	226.84
998.34	226.85
998.63	226.85
998.92	226.83
999.21	226.84
999.50	226.86
999.79	226.80
1000.08	226.78
1000.37	226.75
1000.66	226.70
1000.95	226.71
1001.24	226.69
1001.53	226.70
1001.82	226.69
1002.11	226.63
1002.40	226.62
1002.68	226.66
1002.97	226.69
1003.26	226.68
1003.55	226.71
1003.84	226.70
1004.13	226.74
1004.42	226.74
1004.71	226.75
1004.99	226.76
1005.28	226.77
1005.57	226.72
1005.86	226.72
1006.15	226.71
1006.44	226.66
1006.72	226.69
1007.01	226.68
1007.30	226.69
1007.59	226.69
1007.88	226.69
1008.17	226.69
1008.45	226.64
1008.74	226.62
1009.03	226.59
1009.32	226.54
1009.60	226.52
1009.89	226.51
1010.18	226.45
1010.47	226.43
1010.76	226.42
1011.04	226.40
1011.33	226.45
1011.62	226.46
1011.91	226.45
1012.19	226.47
1012.48	226.52
1012.77	226.52
1013.05	226.59
1013.34	226.58
1013.63	226.58
1013.92	226.55
1014.20	226.52
1014.49	226.51
1014.78	226.48
1015.06	226.45
1015.35	226.47
1015.64	226.47
1015.92	226.50
1016.21	226.52
1016.50	226.52
1016.78	226.53
1017.07	226.56
1017.36	226.50
1017.64	226.49
1017.93	226.54
1018.22	226.52
1018.50	226.49
1018.79	226.50
1019.08	226.41
1019.36	226.41
1019.65	226.40
1019.93	226.43
1020.22	226.48
1020.51	226.56
1020.79	226.53
1021.08	226.09
1021.36	226.08
1021.65	227.11
1021.94	225.89
1022.22	226.45
1022.51	226.41
1022.79	226.73
1023.08	226.76
1023.36	227.56
1023.65	226.02
>>>>>End Processed Spectral Data<<<<<
