SpectraSuite Data File
++++++++++++++++++++++++++++++++++++
Date: Fri Feb 01 15:18:48 EST 2013
User: group
Dark Spectrum Present: No
Reference Spectrum Present: No
Number of Sampled Component Spectra: 1
Spectrometers: USB2E7196
Integration Time (usec): 35000 (USB2E7196)
Spectra Averaged: 100 (USB2E7196)
Boxcar Smoothing: 10 (USB2E7196)
Correct for Electrical Dark: No (USB2E7196)
Strobe/Lamp Enabled: No (USB2E7196)
Correct for Detector Non-linearity: No (USB2E7196)
Correct for Stray Light: No (USB2E7196)
Number of Pixels in Processed Spectrum: 2048
>>>>>Begin Processed Spectral Data<<<<<
339.09	0.00
339.48	215.03
339.86	217.11
340.24	218.28
340.63	219.03
341.01	222.47
341.39	221.88
341.78	223.50
342.16	224.77
342.54	224.66
342.93	213.38
343.31	224.19
343.69	224.74
344.07	225.19
344.46	225.62
344.84	226.01
345.22	226.24
345.60	226.50
345.99	226.67
346.37	226.79
346.75	226.91
347.13	227.00
347.52	227.06
347.90	227.12
348.28	227.18
348.66	227.22
349.05	227.25
349.43	227.26
349.81	227.32
350.19	227.36
350.57	227.43
350.96	227.53
351.34	227.59
351.72	227.66
352.10	227.74
352.48	227.78
352.87	227.82
353.25	227.88
353.63	227.96
354.01	228.01
354.39	228.09
354.77	228.17
355.15	228.28
355.54	228.31
355.92	228.35
356.30	228.40
356.68	228.52
357.06	228.58
357.44	228.61
357.82	228.68
358.20	228.76
358.58	228.83
358.97	228.88
359.35	228.96
359.73	229.02
360.11	229.04
360.49	229.12
360.87	229.16
361.25	229.22
361.63	229.28
362.01	229.33
362.39	229.36
362.77	229.37
363.15	229.39
363.53	229.44
363.91	229.46
364.29	229.48
364.67	229.39
365.05	229.38
365.43	229.41
365.81	229.40
366.19	229.38
366.57	229.43
366.95	229.41
367.33	229.38
367.71	229.34
368.09	229.38
368.47	229.35
368.85	229.34
369.23	229.32
369.61	229.24
369.99	229.25
370.37	229.23
370.75	229.24
371.13	229.18
371.51	229.10
371.89	229.07
372.27	229.02
372.65	229.01
373.03	228.95
373.41	228.87
373.78	228.82
374.16	228.73
374.54	228.64
374.92	228.56
375.30	228.50
375.68	228.42
376.06	228.33
376.44	228.25
376.82	228.16
377.19	228.08
377.57	228.01
377.95	227.86
378.33	227.77
378.71	227.63
379.09	227.56
379.47	227.49
379.84	227.39
380.22	227.34
380.60	227.26
380.98	227.20
381.36	227.13
381.73	227.04
382.11	227.01
382.49	226.93
382.87	226.86
383.25	226.79
383.62	226.85
384.00	226.79
384.38	226.75
384.76	226.75
385.13	226.75
385.51	226.69
385.89	226.65
386.27	226.64
386.64	226.63
387.02	226.57
387.40	226.55
387.78	226.52
388.15	226.47
388.53	226.43
388.91	226.41
389.29	226.43
389.66	226.43
390.04	226.42
390.42	226.40
390.79	226.40
391.17	226.38
391.55	226.28
391.92	226.29
392.30	226.26
392.68	226.23
393.05	226.22
393.43	226.26
393.81	226.32
394.18	226.30
394.56	226.33
394.94	226.41
395.31	226.43
395.69	226.52
396.06	226.59
396.44	226.61
396.82	226.62
397.19	226.68
397.57	226.71
397.95	226.78
398.32	226.83
398.70	226.90
399.07	227.00
399.45	227.07
399.82	227.14
400.20	227.21
400.58	227.28
400.95	227.32
401.33	227.41
401.70	227.54
402.08	227.62
402.45	227.69
402.83	227.80
403.20	227.95
403.58	228.06
403.95	228.18
404.33	228.36
404.71	228.50
405.08	228.70
405.46	228.82
405.83	228.97
406.21	229.12
406.58	229.28
406.96	229.44
407.33	229.64
407.70	229.82
408.08	230.11
408.45	230.34
408.83	230.59
409.20	230.79
409.58	230.98
409.95	231.27
410.33	231.54
410.70	231.79
411.08	232.06
411.45	232.35
411.82	232.65
412.20	233.00
412.57	233.42
412.95	233.69
413.32	234.12
413.69	234.54
414.07	234.97
414.44	235.43
414.82	235.91
415.19	236.46
415.56	237.02
415.94	237.56
416.31	238.20
416.68	238.80
417.06	239.54
417.43	240.22
417.81	240.96
418.18	241.75
418.55	242.58
418.93	243.47
419.30	244.40
419.67	245.32
420.04	246.26
420.42	247.25
420.79	248.44
421.16	249.56
421.54	250.74
421.91	251.99
422.28	253.27
422.66	254.58
423.03	255.86
423.40	257.14
423.77	258.55
424.15	259.96
424.52	261.47
424.89	263.04
425.26	264.58
425.64	266.04
426.01	267.63
426.38	269.26
426.75	270.94
427.13	272.63
427.50	274.43
427.87	276.29
428.24	278.16
428.61	279.88
428.99	281.85
429.36	283.91
429.73	285.99
430.10	287.98
430.47	290.05
430.85	292.18
431.22	294.47
431.59	296.88
431.96	299.14
432.33	301.63
432.70	304.02
433.08	306.86
433.45	309.50
433.82	312.14
434.19	315.05
434.56	317.88
434.93	320.57
435.30	323.19
435.68	326.08
436.05	328.89
436.42	331.71
436.79	334.27
437.16	337.01
437.53	339.81
437.90	342.66
438.27	345.43
438.64	348.30
439.01	350.90
439.38	353.11
439.75	355.27
440.13	357.76
440.50	360.12
440.87	361.96
441.24	363.93
441.61	366.05
441.98	367.55
442.35	369.31
442.72	371.15
443.09	372.98
443.46	374.01
443.83	374.61
444.20	375.12
444.57	375.90
444.94	376.20
445.31	376.54
445.68	376.90
446.05	376.99
446.42	376.58
446.79	376.16
447.16	375.73
447.53	375.41
447.90	374.27
448.27	373.11
448.64	371.57
449.01	370.43
449.37	368.47
449.74	366.58
450.11	364.34
450.48	361.89
450.85	359.37
451.22	357.21
451.59	355.23
451.96	353.26
452.33	350.68
452.70	348.30
453.07	345.47
453.43	342.54
453.80	339.72
454.17	337.01
454.54	334.45
454.91	331.74
455.28	329.04
455.65	326.55
456.02	324.11
456.38	321.98
456.75	319.27
457.12	316.99
457.49	314.73
457.86	312.59
458.23	310.69
458.59	308.64
458.96	306.58
459.33	304.66
459.70	302.81
460.07	301.29
460.43	299.59
460.80	297.96
461.17	296.54
461.54	295.04
461.91	293.64
462.27	292.23
462.64	290.99
463.01	289.69
463.38	288.37
463.74	286.97
464.11	285.78
464.48	284.76
464.85	283.66
465.21	282.81
465.58	281.85
465.95	280.72
466.32	279.78
466.68	278.86
467.05	277.95
467.42	277.07
467.78	276.15
468.15	275.23
468.52	274.53
468.88	273.67
469.25	272.89
469.62	272.24
469.98	271.49
470.35	270.81
470.72	270.17
471.08	269.49
471.45	268.98
471.82	268.41
472.18	267.80
472.55	267.38
472.92	266.83
473.28	266.37
473.65	265.97
474.02	265.55
474.38	265.18
474.75	264.89
475.11	264.54
475.48	264.28
475.85	264.08
476.21	263.85
476.58	263.64
476.94	263.52
477.31	263.36
477.67	263.23
478.04	263.12
478.41	263.09
478.77	263.15
479.14	263.03
479.50	263.07
479.87	263.18
480.23	263.25
480.60	263.35
480.96	263.41
481.33	263.59
481.69	263.77
482.06	263.93
482.42	264.11
482.79	264.33
483.15	264.62
483.52	265.01
483.88	265.37
484.25	265.78
484.61	266.22
484.98	266.67
485.34	267.25
485.71	267.83
486.07	268.40
486.44	268.94
486.80	269.67
487.17	270.39
487.53	271.17
487.90	272.01
488.26	272.94
488.62	273.97
488.99	274.92
489.35	275.96
489.72	277.10
490.08	278.32
490.44	279.58
490.81	280.89
491.17	282.20
491.54	283.72
491.90	285.21
492.26	286.85
492.63	288.57
492.99	290.35
493.36	292.28
493.72	294.32
494.08	296.43
494.45	298.69
494.81	301.05
495.17	303.47
495.54	306.05
495.90	308.72
496.26	311.50
496.63	314.50
496.99	317.63
497.35	320.87
497.72	324.24
498.08	327.73
498.44	331.43
498.80	335.36
499.17	339.32
499.53	343.54
499.89	347.87
500.26	352.34
500.62	356.96
500.98	361.85
501.34	366.93
501.71	372.22
502.07	377.60
502.43	383.22
502.79	389.03
503.16	395.08
503.52	401.36
503.88	407.74
504.24	414.37
504.60	421.29
504.97	428.46
505.33	435.76
505.69	443.48
506.05	451.24
506.41	459.16
506.78	467.36
507.14	475.74
507.50	484.48
507.86	493.57
508.22	502.79
508.59	512.05
508.95	521.68
509.31	531.53
509.67	541.61
510.03	551.93
510.39	562.51
510.75	573.30
511.12	584.27
511.48	595.55
511.84	607.01
512.20	618.50
512.56	630.38
512.92	642.59
513.28	654.89
513.64	667.41
514.00	680.13
514.37	693.05
514.73	706.19
515.09	719.25
515.45	732.49
515.81	746.15
516.17	760.09
516.53	774.18
516.89	788.39
517.25	802.58
517.61	817.02
517.97	831.46
518.33	845.87
518.69	860.63
519.05	875.67
519.41	890.87
519.77	906.48
520.13	922.03
520.49	937.48
520.85	952.98
521.21	968.76
521.57	984.99
521.93	1000.84
522.29	1017.29
522.65	1033.58
523.01	1049.89
523.37	1065.87
523.73	1082.13
524.09	1098.34
524.45	1114.65
524.81	1131.37
525.17	1148.26
525.53	1165.19
525.89	1182.18
526.25	1199.02
526.61	1215.37
526.97	1232.23
527.33	1248.67
527.68	1265.23
528.04	1281.71
528.40	1298.41
528.76	1315.46
529.12	1332.11
529.48	1349.04
529.84	1365.08
530.20	1381.80
530.56	1398.81
530.91	1416.34
531.27	1433.19
531.63	1449.64
531.99	1466.25
532.35	1482.40
532.71	1498.24
533.07	1514.57
533.42	1530.57
533.78	1546.69
534.14	1563.19
534.50	1578.52
534.86	1594.50
535.21	1609.79
535.57	1625.91
535.93	1641.52
536.29	1656.44
536.65	1671.62
537.00	1686.46
537.36	1701.85
537.72	1716.43
538.08	1730.98
538.44	1744.91
538.79	1758.91
539.15	1772.77
539.51	1786.70
539.87	1800.92
540.22	1814.75
540.58	1828.75
540.94	1842.27
541.29	1855.27
541.65	1867.97
542.01	1881.45
542.37	1893.76
542.72	1906.27
543.08	1917.96
543.44	1930.31
543.79	1941.61
544.15	1952.66
544.51	1964.24
544.87	1975.27
545.22	1986.12
545.58	1996.38
545.94	2006.20
546.29	2016.10
546.65	2025.82
547.01	2035.04
547.36	2043.95
547.72	2052.45
548.07	2060.15
548.43	2068.23
548.79	2076.28
549.14	2083.94
549.50	2091.33
549.86	2099.12
550.21	2106.55
550.57	2113.79
550.92	2120.50
551.28	2127.57
551.64	2134.64
551.99	2141.28
552.35	2147.37
552.70	2153.40
553.06	2159.27
553.41	2165.56
553.77	2171.63
554.13	2177.83
554.48	2184.01
554.84	2189.26
555.19	2194.67
555.55	2199.94
555.90	2204.39
556.26	2209.16
556.61	2213.87
556.97	2217.87
557.32	2222.09
557.68	2226.12
558.03	2230.37
558.39	2234.04
558.74	2238.50
559.10	2242.34
559.45	2245.94
559.81	2250.39
560.16	2254.35
560.52	2257.76
560.87	2261.00
561.23	2263.47
561.58	2266.49
561.94	2269.03
562.29	2271.61
562.64	2274.32
563.00	2276.81
563.35	2280.32
563.71	2283.49
564.06	2286.59
564.42	2289.52
564.77	2291.87
565.12	2294.01
565.48	2295.74
565.83	2297.48
566.19	2298.63
566.54	2299.55
566.89	2300.56
567.25	2300.87
567.60	2302.09
567.96	2303.58
568.31	2304.45
568.66	2305.55
569.02	2306.01
569.37	2306.31
569.72	2306.99
570.08	2307.02
570.43	2306.94
570.78	2306.13
571.14	2304.53
571.49	2303.23
571.84	2302.73
572.20	2301.40
572.55	2300.29
572.90	2298.86
573.26	2297.46
573.61	2295.89
573.96	2293.98
574.31	2290.94
574.67	2287.91
575.02	2284.32
575.37	2280.79
575.72	2276.95
576.08	2273.68
576.43	2270.27
576.78	2266.47
577.13	2263.17
577.49	2259.97
577.84	2256.41
578.19	2252.76
578.54	2249.04
578.90	2244.64
579.25	2239.06
579.60	2234.10
579.95	2229.11
580.30	2223.93
580.66	2218.70
581.01	2213.68
581.36	2208.69
581.71	2204.44
582.06	2199.93
582.42	2195.31
582.77	2190.11
583.12	2185.33
583.47	2180.40
583.82	2175.11
584.17	2169.52
584.53	2163.92
584.88	2158.19
585.23	2152.31
585.58	2146.75
585.93	2141.23
586.28	2136.36
586.63	2131.17
586.98	2125.95
587.34	2121.15
587.69	2116.20
588.04	2110.82
588.39	2105.13
588.74	2098.70
589.09	2092.50
589.44	2085.56
589.79	2079.49
590.14	2073.78
590.49	2067.12
590.84	2060.56
591.19	2054.58
591.54	2048.27
591.89	2040.83
592.25	2033.90
592.60	2026.67
592.95	2018.90
593.30	2011.47
593.65	2003.73
594.00	1996.76
594.35	1989.56
594.70	1981.54
595.05	1974.28
595.40	1966.99
595.75	1959.39
596.10	1952.91
596.45	1945.95
596.80	1939.86
597.15	1933.06
597.50	1925.86
597.85	1919.59
598.19	1912.91
598.54	1905.77
598.89	1899.09
599.24	1893.33
599.59	1886.49
599.94	1880.34
600.29	1874.11
600.64	1867.56
600.99	1860.16
601.34	1853.13
601.69	1846.10
602.04	1839.08
602.39	1831.66
602.74	1824.78
603.08	1817.98
603.43	1811.26
603.78	1804.05
604.13	1796.75
604.48	1789.52
604.83	1782.66
605.18	1775.43
605.53	1767.48
605.87	1759.39
606.22	1752.14
606.57	1743.96
606.92	1736.76
607.27	1729.44
607.62	1722.37
607.96	1714.97
608.31	1708.26
608.66	1700.67
609.01	1693.07
609.36	1685.49
609.70	1677.54
610.05	1669.21
610.40	1661.47
610.75	1653.12
611.10	1645.50
611.44	1637.18
611.79	1629.20
612.14	1620.51
612.49	1611.58
612.83	1603.21
613.18	1595.15
613.53	1587.06
613.88	1578.67
614.22	1570.28
614.57	1561.74
614.92	1553.77
615.27	1546.12
615.61	1537.81
615.96	1529.78
616.31	1522.18
616.65	1514.83
617.00	1507.21
617.35	1499.78
617.70	1491.41
618.04	1482.92
618.39	1474.64
618.74	1466.97
619.08	1458.49
619.43	1450.93
619.78	1443.97
620.12	1436.79
620.47	1429.30
620.82	1421.12
621.16	1413.73
621.51	1406.30
621.85	1398.66
622.20	1390.13
622.55	1381.91
622.89	1374.12
623.24	1366.54
623.59	1359.20
623.93	1351.72
624.28	1344.47
624.62	1336.92
624.97	1329.71
625.32	1323.00
625.66	1316.04
626.01	1308.84
626.35	1301.36
626.70	1293.55
627.04	1285.66
627.39	1277.99
627.73	1270.62
628.08	1263.56
628.43	1256.20
628.77	1248.73
629.12	1241.11
629.46	1233.90
629.81	1226.41
630.15	1219.12
630.50	1211.70
630.84	1203.43
631.19	1195.55
631.53	1188.14
631.88	1180.52
632.22	1173.03
632.57	1165.75
632.91	1158.16
633.26	1150.77
633.60	1143.57
633.95	1136.58
634.29	1129.75
634.64	1123.01
634.98	1115.61
635.32	1108.59
635.67	1101.95
636.01	1095.31
636.36	1088.51
636.70	1082.07
637.05	1075.58
637.39	1069.18
637.73	1062.71
638.08	1056.98
638.42	1050.89
638.77	1044.33
639.11	1037.74
639.45	1031.29
639.80	1024.56
640.14	1018.11
640.49	1011.56
640.83	1005.21
641.17	998.88
641.52	992.44
641.86	986.00
642.20	980.12
642.55	973.77
642.89	967.32
643.23	960.75
643.58	955.01
643.92	948.76
644.26	942.61
644.61	936.63
644.95	930.60
645.29	923.89
645.64	917.18
645.98	910.89
646.32	905.13
646.66	899.13
647.01	893.32
647.35	887.64
647.69	881.89
648.04	876.40
648.38	870.63
648.72	864.62
649.06	858.49
649.41	852.65
649.75	846.70
650.09	840.75
650.43	835.00
650.78	828.82
651.12	822.96
651.46	817.27
651.80	811.39
652.14	806.04
652.49	800.61
652.83	795.41
653.17	789.67
653.51	783.89
653.85	778.52
654.20	772.94
654.54	766.89
654.88	761.11
655.22	755.28
655.56	749.59
655.90	744.15
656.25	738.89
656.59	733.59
656.93	728.50
657.27	723.39
657.61	717.92
657.95	712.86
658.29	707.73
658.64	702.46
658.98	697.22
659.32	691.72
659.66	686.55
660.00	681.29
660.34	676.40
660.68	671.56
661.02	666.51
661.36	661.79
661.70	657.31
662.05	652.99
662.39	648.64
662.73	644.26
663.07	639.94
663.41	635.55
663.75	630.95
664.09	626.49
664.43	622.10
664.77	618.02
665.11	613.77
665.45	609.71
665.79	605.70
666.13	601.62
666.47	597.56
666.81	593.47
667.15	589.38
667.49	585.58
667.83	581.83
668.17	577.95
668.51	573.89
668.85	569.90
669.19	566.11
669.53	562.22
669.87	558.37
670.21	554.66
670.55	550.98
670.89	547.59
671.23	544.09
671.57	540.56
671.91	537.03
672.25	533.54
672.58	530.03
672.92	526.72
673.26	523.60
673.60	520.50
673.94	517.40
674.28	514.50
674.62	511.54
674.96	508.39
675.30	505.50
675.64	502.62
675.97	499.94
676.31	497.00
676.65	494.15
676.99	491.40
677.33	488.59
677.67	485.83
678.01	482.78
678.34	479.81
678.68	476.99
679.02	474.24
679.36	471.50
679.70	468.81
680.04	465.97
680.37	463.05
680.71	460.23
681.05	457.65
681.39	454.89
681.73	452.24
682.06	449.75
682.40	447.20
682.74	444.69
683.08	442.11
683.42	439.54
683.75	437.06
684.09	434.55
684.43	432.07
684.77	429.58
685.10	427.27
685.44	424.99
685.78	422.68
686.12	420.43
686.45	418.11
686.79	415.76
687.13	413.64
687.46	411.51
687.80	409.35
688.14	407.12
688.48	405.12
688.81	402.80
689.15	400.62
689.49	398.44
689.82	396.36
690.16	394.27
690.50	392.36
690.83	390.39
691.17	388.40
691.51	386.46
691.84	384.64
692.18	382.70
692.52	380.66
692.85	378.75
693.19	376.86
693.52	375.05
693.86	373.24
694.20	371.41
694.53	369.59
694.87	367.76
695.21	365.95
695.54	364.09
695.88	362.39
696.21	360.70
696.55	359.04
696.88	357.35
697.22	355.69
697.56	354.05
697.89	352.43
698.23	350.83
698.56	349.24
698.90	347.65
699.23	346.02
699.57	344.47
699.90	342.95
700.24	341.40
700.58	339.85
700.91	338.34
701.25	336.87
701.58	335.47
701.92	334.11
702.25	332.76
702.59	331.42
702.92	330.13
703.26	328.80
703.59	327.51
703.93	326.31
704.26	325.06
704.60	323.75
704.93	322.50
705.26	321.27
705.60	320.09
705.93	318.95
706.27	317.92
706.60	316.92
706.94	315.81
707.27	314.71
707.61	313.69
707.94	312.70
708.27	311.65
708.61	310.60
708.94	309.60
709.28	308.58
709.61	307.65
709.94	306.70
710.28	305.69
710.61	304.73
710.95	303.63
711.28	302.74
711.61	301.78
711.95	300.83
712.28	299.88
712.61	298.91
712.95	297.94
713.28	297.09
713.61	296.17
713.95	295.31
714.28	294.46
714.61	293.59
714.95	292.77
715.28	291.92
715.61	291.09
715.95	290.25
716.28	289.43
716.61	288.59
716.95	287.77
717.28	287.06
717.61	286.30
717.94	285.61
718.28	284.78
718.61	284.08
718.94	283.39
719.27	282.76
719.61	282.15
719.94	281.55
720.27	280.82
720.60	280.19
720.94	279.60
721.27	279.02
721.60	278.47
721.93	277.87
722.27	277.33
722.60	276.76
722.93	276.17
723.26	275.64
723.59	275.09
723.93	274.56
724.26	273.98
724.59	273.42
724.92	272.88
725.25	272.45
725.59	271.93
725.92	271.41
726.25	270.93
726.58	270.41
726.91	269.88
727.24	269.40
727.57	268.94
727.91	268.42
728.24	267.92
728.57	267.36
728.90	266.88
729.23	266.37
729.56	265.92
729.89	265.48
730.22	264.98
730.55	264.51
730.89	264.05
731.22	263.62
731.55	263.19
731.88	262.73
732.21	262.25
732.54	261.79
732.87	261.35
733.20	260.95
733.53	260.54
733.86	260.16
734.19	259.72
734.52	259.27
734.85	258.95
735.18	258.55
735.51	258.23
735.84	257.85
736.17	257.53
736.50	257.13
736.83	256.88
737.16	256.52
737.49	256.20
737.82	255.85
738.15	255.53
738.48	255.17
738.81	254.87
739.14	254.55
739.47	254.26
739.80	253.94
740.13	253.60
740.46	253.27
740.79	252.95
741.12	252.67
741.45	252.36
741.78	252.00
742.11	251.71
742.44	251.39
742.77	251.10
743.10	250.75
743.43	250.45
743.75	250.07
744.08	249.95
744.41	249.67
744.74	249.39
745.07	249.09
745.40	248.84
745.73	248.60
746.06	248.34
746.39	248.07
746.71	247.83
747.04	247.57
747.37	247.30
747.70	247.04
748.03	246.81
748.36	246.63
748.68	246.43
749.01	246.21
749.34	246.01
749.67	245.78
750.00	245.59
750.33	245.44
750.65	245.23
750.98	244.89
751.31	244.68
751.64	244.48
751.97	244.31
752.29	244.10
752.62	243.86
752.95	243.65
753.28	243.45
753.60	243.27
753.93	243.13
754.26	242.98
754.59	242.81
754.91	242.59
755.24	242.38
755.57	242.20
755.90	242.02
756.22	241.80
756.55	241.62
756.88	241.43
757.20	241.23
757.53	241.02
757.86	240.84
758.19	240.72
758.51	240.55
758.84	240.38
759.17	240.25
759.49	240.10
759.82	240.00
760.15	239.87
760.47	239.71
760.80	239.51
761.13	239.37
761.45	239.21
761.78	239.10
762.11	239.00
762.43	238.84
762.76	238.73
763.08	238.62
763.41	238.52
763.74	238.41
764.06	238.23
764.39	238.12
764.71	238.01
765.04	237.84
765.37	237.71
765.69	237.57
766.02	237.43
766.34	237.33
766.67	237.18
767.00	237.04
767.32	236.99
767.65	236.94
767.97	236.80
768.30	236.71
768.62	236.59
768.95	236.42
769.27	236.34
769.60	236.23
769.92	236.10
770.25	235.94
770.57	235.81
770.90	235.70
771.22	235.61
771.55	235.50
771.87	235.40
772.20	235.27
772.52	235.24
772.85	235.27
773.17	235.18
773.50	235.07
773.82	234.97
774.15	234.81
774.47	234.66
774.80	234.57
775.12	234.43
775.45	234.35
775.77	234.29
776.09	234.14
776.42	234.04
776.74	233.96
777.07	233.90
777.39	233.81
777.72	233.76
778.04	233.68
778.36	233.61
778.69	233.53
779.01	233.47
779.33	233.32
779.66	233.12
779.98	233.01
780.31	232.97
780.63	232.93
780.95	232.86
781.28	232.78
781.60	232.67
781.92	232.60
782.25	232.52
782.57	232.42
782.89	232.37
783.22	232.27
783.54	232.20
783.86	232.14
784.19	232.07
784.51	232.04
784.83	231.96
785.16	231.91
785.48	231.85
785.80	231.82
786.12	231.74
786.45	231.71
786.77	231.66
787.09	231.58
787.42	231.48
787.74	231.44
788.06	231.41
788.38	231.38
788.71	231.34
789.03	231.32
789.35	231.33
789.67	231.29
789.99	231.28
790.32	231.26
790.64	231.22
790.96	231.26
791.28	231.21
791.61	231.15
791.93	231.09
792.25	231.08
792.57	231.10
792.89	231.08
793.21	231.01
793.54	230.98
793.86	230.91
794.18	230.91
794.50	230.87
794.82	230.83
795.14	230.82
795.47	230.79
795.79	230.72
796.11	230.70
796.43	230.66
796.75	230.62
797.07	230.57
797.39	230.53
797.71	230.46
798.04	230.43
798.36	230.41
798.68	230.41
799.00	230.39
799.32	230.31
799.64	230.29
799.96	230.32
800.28	230.33
800.60	230.32
800.92	230.31
801.24	230.30
801.56	230.29
801.89	230.25
802.21	230.24
802.53	230.22
802.85	230.19
803.17	230.22
803.49	230.18
803.81	230.18
804.13	230.14
804.45	230.11
804.77	230.09
805.09	230.06
805.41	230.01
805.73	230.00
806.05	229.95
806.37	229.92
806.69	229.87
807.01	229.81
807.33	229.80
807.65	229.73
807.97	229.73
808.28	229.70
808.60	229.67
808.92	229.65
809.24	229.69
809.56	229.61
809.88	229.56
810.20	229.52
810.52	229.51
810.84	229.47
811.16	229.43
811.48	229.37
811.80	229.35
812.12	229.32
812.43	229.25
812.75	229.21
813.07	229.19
813.39	229.16
813.71	229.15
814.03	229.14
814.35	229.12
814.67	229.06
814.98	229.00
815.30	228.95
815.62	228.89
815.94	228.82
816.26	228.86
816.58	228.80
816.89	228.80
817.21	228.74
817.53	228.74
817.85	228.71
818.17	228.70
818.48	228.67
818.80	228.65
819.12	228.64
819.44	228.65
819.76	228.59
820.07	228.61
820.39	228.56
820.71	228.54
821.03	228.50
821.34	228.48
821.66	228.49
821.98	228.51
822.30	228.49
822.61	228.53
822.93	228.46
823.25	228.47
823.57	228.42
823.88	228.46
824.20	228.42
824.52	228.39
824.83	228.40
825.15	228.39
825.47	228.39
825.79	228.36
826.10	228.30
826.42	228.27
826.74	228.22
827.05	228.22
827.37	228.21
827.69	228.21
828.00	228.18
828.32	228.18
828.64	228.12
828.95	228.17
829.27	228.12
829.58	228.11
829.90	228.10
830.22	228.09
830.53	228.04
830.85	228.00
831.17	227.99
831.48	228.00
831.80	228.01
832.11	227.98
832.43	227.96
832.75	227.97
833.06	228.05
833.38	228.04
833.69	228.02
834.01	228.05
834.32	228.04
834.64	228.07
834.96	228.05
835.27	228.10
835.59	228.07
835.90	228.06
836.22	228.08
836.53	228.06
836.85	228.05
837.16	228.14
837.48	228.20
837.79	228.19
838.11	228.20
838.42	228.18
838.74	228.22
839.05	228.19
839.37	228.22
839.68	228.15
840.00	228.14
840.31	228.18
840.63	228.15
840.94	228.15
841.26	228.11
841.57	228.12
841.88	228.10
842.20	228.11
842.51	228.09
842.83	228.06
843.14	228.14
843.46	228.16
843.77	228.11
844.08	228.04
844.40	228.03
844.71	227.99
845.03	228.00
845.34	228.01
845.65	228.01
845.97	228.00
846.28	228.03
846.60	228.05
846.91	228.01
847.22	227.99
847.54	228.03
847.85	228.04
848.16	228.03
848.48	228.02
848.79	228.05
849.10	228.05
849.42	228.04
849.73	227.95
850.04	227.95
850.36	227.94
850.67	227.99
850.98	228.02
851.30	228.02
851.61	228.00
851.92	227.95
852.23	228.01
852.55	228.00
852.86	227.98
853.17	227.97
853.49	227.98
853.80	227.98
854.11	227.93
854.42	227.94
854.74	227.91
855.05	227.91
855.36	227.86
855.67	227.84
855.99	227.88
856.30	227.98
856.61	227.95
856.92	227.89
857.23	227.87
857.55	227.82
857.86	227.78
858.17	227.77
858.48	227.72
858.79	227.64
859.11	227.62
859.42	227.60
859.73	227.54
860.04	227.53
860.35	227.52
860.66	227.49
860.98	227.45
861.29	227.45
861.60	227.41
861.91	227.39
862.22	227.40
862.53	227.35
862.84	227.20
863.16	227.21
863.47	227.15
863.78	227.13
864.09	227.12
864.40	227.12
864.71	227.14
865.02	227.16
865.33	227.17
865.64	227.13
865.95	227.14
866.27	227.24
866.58	227.23
866.89	227.22
867.20	227.19
867.51	227.17
867.82	227.16
868.13	227.18
868.44	227.16
868.75	227.16
869.06	227.13
869.37	227.15
869.68	227.16
869.99	227.21
870.30	227.24
870.61	227.23
870.92	227.26
871.23	227.25
871.54	227.28
871.85	227.29
872.16	227.31
872.47	227.28
872.78	227.20
873.09	227.20
873.40	227.18
873.71	227.23
874.02	227.23
874.33	227.21
874.64	227.21
874.95	227.22
875.26	227.13
875.56	227.19
875.87	227.21
876.18	227.18
876.49	227.28
876.80	227.24
877.11	227.26
877.42	227.22
877.73	227.22
878.04	227.21
878.35	227.22
878.66	227.24
878.96	227.25
879.27	227.27
879.58	227.27
879.89	227.28
880.20	227.34
880.51	227.35
880.82	227.37
881.12	227.38
881.43	227.39
881.74	227.43
882.05	227.39
882.36	227.42
882.67	227.45
882.97	227.34
883.28	227.35
883.59	227.37
883.90	227.38
884.21	227.40
884.51	227.40
884.82	227.38
885.13	227.39
885.44	227.42
885.74	227.43
886.05	227.45
886.36	227.44
886.67	227.38
886.98	227.44
887.28	227.48
887.59	227.47
887.90	227.48
888.20	227.48
888.51	227.53
888.82	227.48
889.13	227.48
889.43	227.62
889.74	227.60
890.05	227.56
890.35	227.58
890.66	227.58
890.97	227.56
891.28	227.55
891.58	227.56
891.89	227.51
892.20	227.45
892.50	227.42
892.81	227.42
893.12	227.41
893.42	227.34
893.73	227.30
894.04	227.31
894.34	227.31
894.65	227.30
894.95	227.28
895.26	227.28
895.57	227.30
895.87	227.15
896.18	227.18
896.48	227.21
896.79	227.17
897.10	227.17
897.40	227.14
897.71	227.12
898.01	227.09
898.32	227.14
898.63	227.12
898.93	227.12
899.24	227.11
899.54	227.08
899.85	227.07
900.15	227.07
900.46	227.05
900.76	227.02
901.07	227.01
901.38	226.97
901.68	226.96
901.99	226.94
902.29	226.91
902.60	226.91
902.90	226.83
903.21	226.85
903.51	226.82
903.82	226.86
904.12	226.86
904.43	226.84
904.73	226.81
905.03	226.82
905.34	226.91
905.64	226.93
905.95	226.95
906.25	226.96
906.56	226.94
906.86	226.96
907.17	226.96
907.47	226.97
907.77	226.99
908.08	226.97
908.38	226.97
908.69	227.01
908.99	226.98
909.30	227.05
909.60	227.03
909.90	227.06
910.21	227.03
910.51	227.05
910.81	227.07
911.12	227.08
911.42	227.10
911.73	226.99
912.03	227.00
912.33	227.01
912.64	227.00
912.94	226.98
913.24	226.98
913.55	226.95
913.85	226.95
914.15	226.95
914.46	226.95
914.76	226.94
915.06	226.94
915.37	226.94
915.67	226.94
915.97	226.95
916.27	226.93
916.58	226.95
916.88	226.91
917.18	226.90
917.49	226.97
917.79	226.94
918.09	226.97
918.39	227.00
918.70	227.04
919.00	227.06
919.30	227.13
919.60	227.12
919.91	227.14
920.21	227.15
920.51	227.14
920.81	227.15
921.12	227.18
921.42	227.19
921.72	227.20
922.02	227.23
922.32	227.25
922.63	227.23
922.93	227.30
923.23	227.35
923.53	227.37
923.83	227.32
924.13	227.39
924.44	227.39
924.74	227.41
925.04	227.44
925.34	227.46
925.64	227.42
925.94	227.45
926.24	227.50
926.55	227.52
926.85	227.56
927.15	227.59
927.45	227.59
927.75	227.63
928.05	227.68
928.35	227.67
928.65	227.67
928.95	227.71
929.26	227.68
929.56	227.68
929.86	227.71
930.16	227.70
930.46	227.68
930.76	227.68
931.06	227.65
931.36	227.60
931.66	227.60
931.96	227.61
932.26	227.58
932.56	227.53
932.86	227.53
933.16	227.48
933.46	227.44
933.76	227.43
934.06	227.42
934.36	227.41
934.66	227.37
934.96	227.39
935.26	227.36
935.56	227.37
935.86	227.34
936.16	227.30
936.46	227.32
936.76	227.28
937.06	227.25
937.36	227.20
937.66	227.19
937.96	227.17
938.26	227.15
938.56	227.17
938.86	227.18
939.16	227.16
939.46	227.24
939.76	227.24
940.06	227.20
940.35	227.15
940.65	227.11
940.95	227.16
941.25	227.11
941.55	227.10
941.85	227.06
942.15	227.07
942.45	227.11
942.75	227.09
943.04	227.12
943.34	227.12
943.64	227.11
943.94	227.10
944.24	227.08
944.54	227.09
944.84	227.11
945.13	227.09
945.43	227.08
945.73	227.03
946.03	227.02
946.33	227.00
946.62	226.99
946.92	226.99
947.22	226.99
947.52	227.00
947.82	227.02
948.11	227.02
948.41	227.00
948.71	226.97
949.01	226.94
949.31	226.95
949.60	226.95
949.90	226.95
950.20	226.93
950.50	226.95
950.79	226.91
951.09	226.90
951.39	226.89
951.69	226.90
951.98	226.94
952.28	226.96
952.58	226.97
952.87	226.99
953.17	226.97
953.47	226.94
953.76	226.93
954.06	226.88
954.36	226.86
954.66	226.85
954.95	226.83
955.25	226.84
955.55	226.82
955.84	226.80
956.14	226.81
956.44	226.83
956.73	226.82
957.03	226.85
957.32	226.85
957.62	226.86
957.92	226.86
958.21	226.84
958.51	226.93
958.81	226.95
959.10	226.96
959.40	227.00
959.69	227.03
959.99	227.03
960.29	227.05
960.58	227.09
960.88	227.09
961.17	227.11
961.47	227.12
961.76	227.16
962.06	227.17
962.36	227.13
962.65	227.15
962.95	227.16
963.24	227.16
963.54	227.16
963.83	227.16
964.13	227.17
964.42	227.16
964.72	227.10
965.01	227.11
965.31	227.13
965.60	227.12
965.90	227.18
966.19	227.21
966.49	227.18
966.78	227.16
967.08	227.18
967.37	227.15
967.67	227.11
967.96	227.10
968.26	227.13
968.55	227.17
968.85	227.15
969.14	227.16
969.43	227.16
969.73	227.16
970.02	227.16
970.32	227.11
970.61	227.12
970.91	227.08
971.20	227.05
971.49	227.03
971.79	227.03
972.08	226.92
972.38	226.90
972.67	226.93
972.96	226.95
973.26	226.95
973.55	227.00
973.85	227.02
974.14	226.99
974.43	227.01
974.73	226.98
975.02	226.99
975.31	226.94
975.61	226.92
975.90	226.88
976.19	226.87
976.49	226.86
976.78	226.83
977.07	226.84
977.37	226.88
977.66	226.88
977.95	226.87
978.24	226.89
978.54	226.89
978.83	226.87
979.12	226.87
979.42	226.85
979.71	226.79
980.00	226.80
980.29	226.86
980.59	226.81
980.88	226.86
981.17	226.86
981.46	226.92
981.76	226.91
982.05	226.94
982.34	226.91
982.63	226.92
982.93	226.92
983.22	226.93
983.51	226.89
983.80	226.89
984.09	226.90
984.39	226.89
984.68	226.88
984.97	226.89
985.26	226.85
985.55	226.87
985.85	226.88
986.14	226.85
986.43	226.83
986.72	226.85
987.01	226.79
987.30	226.79
987.59	226.78
987.89	226.82
988.18	226.80
988.47	226.83
988.76	226.85
989.05	226.86
989.34	226.86
989.63	226.90
989.92	226.90
990.22	226.89
990.51	226.90
990.80	226.91
991.09	226.92
991.38	226.96
991.67	226.99
991.96	226.97
992.25	226.99
992.54	226.99
992.83	226.98
993.12	226.98
993.41	226.98
993.70	226.99
993.99	227.02
994.28	227.04
994.58	227.10
994.87	227.11
995.16	227.12
995.45	227.10
995.74	227.07
996.03	227.09
996.32	227.12
996.61	227.14
996.90	227.17
997.19	227.18
997.48	227.18
997.77	227.10
998.06	227.13
998.34	227.15
998.63	227.14
998.92	227.15
999.21	227.19
999.50	227.23
999.79	227.23
1000.08	227.20
1000.37	227.20
1000.66	227.17
1000.95	227.18
1001.24	227.18
1001.53	227.22
1001.82	227.23
1002.11	227.20
1002.40	227.22
1002.68	227.25
1002.97	227.30
1003.26	227.27
1003.55	227.28
1003.84	227.32
1004.13	227.36
1004.42	227.35
1004.71	227.35
1004.99	227.36
1005.28	227.35
1005.57	227.35
1005.86	227.35
1006.15	227.34
1006.44	227.31
1006.72	227.33
1007.01	227.30
1007.30	227.29
1007.59	227.25
1007.88	227.23
1008.17	227.23
1008.45	227.19
1008.74	227.14
1009.03	227.10
1009.32	227.09
1009.60	227.09
1009.89	227.07
1010.18	227.03
1010.47	227.00
1010.76	226.99
1011.04	226.98
1011.33	226.98
1011.62	226.98
1011.91	226.93
1012.19	226.92
1012.48	226.92
1012.77	226.90
1013.05	226.95
1013.34	226.94
1013.63	226.93
1013.92	226.93
1014.20	226.87
1014.49	226.89
1014.78	226.89
1015.06	226.85
1015.35	226.87
1015.64	226.86
1015.92	226.86
1016.21	226.86
1016.50	226.86
1016.78	226.89
1017.07	226.91
1017.36	226.85
1017.64	226.81
1017.93	226.81
1018.22	226.82
1018.50	226.81
1018.79	226.82
1019.08	226.76
1019.36	226.79
1019.65	226.79
1019.93	226.82
1020.22	226.86
1020.51	226.89
1020.79	226.88
1021.08	226.71
1021.36	226.48
1021.65	227.00
1021.94	226.99
1022.22	227.53
1022.51	226.43
1022.79	227.02
1023.08	226.80
1023.36	228.00
1023.65	226.86
>>>>>End Processed Spectral Data<<<<<
