SpectraSuite Data File
++++++++++++++++++++++++++++++++++++
Date: Fri Feb 01 14:58:40 EST 2013
User: group
Dark Spectrum Present: No
Reference Spectrum Present: No
Number of Sampled Component Spectra: 1
Spectrometers: USB2E7196
Integration Time (usec): 35000 (USB2E7196)
Spectra Averaged: 100 (USB2E7196)
Boxcar Smoothing: 10 (USB2E7196)
Correct for Electrical Dark: No (USB2E7196)
Strobe/Lamp Enabled: No (USB2E7196)
Correct for Detector Non-linearity: No (USB2E7196)
Correct for Stray Light: No (USB2E7196)
Number of Pixels in Processed Spectrum: 2048
>>>>>Begin Processed Spectral Data<<<<<
339.09	0.00
339.48	215.16
339.86	216.77
340.24	218.55
340.63	219.25
341.01	221.85
341.39	221.70
341.78	222.95
342.16	224.77
342.54	225.45
342.93	213.34
343.31	224.12
343.69	224.66
344.07	225.09
344.46	225.48
344.84	225.88
345.22	226.10
345.60	226.35
345.99	226.56
346.37	226.67
346.75	226.75
347.13	226.81
347.52	226.88
347.90	226.97
348.28	226.98
348.66	227.00
349.05	226.99
349.43	227.04
349.81	227.11
350.19	227.18
350.57	227.24
350.96	227.31
351.34	227.37
351.72	227.45
352.10	227.53
352.48	227.62
352.87	227.64
353.25	227.71
353.63	227.79
354.01	227.86
354.39	227.93
354.77	228.00
355.15	228.11
355.54	228.17
355.92	228.19
356.30	228.29
356.68	228.43
357.06	228.50
357.44	228.55
357.82	228.61
358.20	228.67
358.58	228.75
358.97	228.83
359.35	228.92
359.73	229.01
360.11	229.07
360.49	229.10
360.87	229.18
361.25	229.25
361.63	229.34
362.01	229.38
362.39	229.42
362.77	229.46
363.15	229.51
363.53	229.55
363.91	229.58
364.29	229.58
364.67	229.53
365.05	229.56
365.43	229.57
365.81	229.59
366.19	229.66
366.57	229.67
366.95	229.68
367.33	229.65
367.71	229.60
368.09	229.64
368.47	229.64
368.85	229.61
369.23	229.58
369.61	229.50
369.99	229.47
370.37	229.44
370.75	229.46
371.13	229.39
371.51	229.35
371.89	229.36
372.27	229.31
372.65	229.25
373.03	229.21
373.41	229.16
373.78	229.10
374.16	228.97
374.54	228.90
374.92	228.80
375.30	228.74
375.68	228.66
376.06	228.59
376.44	228.52
376.82	228.44
377.19	228.36
377.57	228.29
377.95	228.19
378.33	228.10
378.71	227.98
379.09	227.88
379.47	227.81
379.84	227.70
380.22	227.60
380.60	227.51
380.98	227.40
381.36	227.31
381.73	227.24
382.11	227.16
382.49	227.08
382.87	226.97
383.25	226.92
383.62	226.98
384.00	226.88
384.38	226.83
384.76	226.76
385.13	226.76
385.51	226.71
385.89	226.67
386.27	226.64
386.64	226.58
387.02	226.54
387.40	226.50
387.78	226.44
388.15	226.40
388.53	226.35
388.91	226.31
389.29	226.31
389.66	226.27
390.04	226.23
390.42	226.21
390.79	226.22
391.17	226.19
391.55	226.08
391.92	226.09
392.30	226.09
392.68	226.08
393.05	226.08
393.43	226.08
393.81	226.09
394.18	226.09
394.56	226.11
394.94	226.15
395.31	226.17
395.69	226.22
396.06	226.30
396.44	226.37
396.82	226.44
397.19	226.52
397.57	226.55
397.95	226.64
398.32	226.70
398.70	226.77
399.07	226.82
399.45	226.88
399.82	226.93
400.20	227.00
400.58	227.12
400.95	227.16
401.33	227.27
401.70	227.43
402.08	227.52
402.45	227.63
402.83	227.79
403.20	227.90
403.58	228.01
403.95	228.14
404.33	228.28
404.71	228.40
405.08	228.61
405.46	228.75
405.83	228.90
406.21	229.07
406.58	229.25
406.96	229.47
407.33	229.67
407.70	229.86
408.08	230.13
408.45	230.35
408.83	230.57
409.20	230.81
409.58	231.02
409.95	231.30
410.33	231.57
410.70	231.82
411.08	232.16
411.45	232.47
411.82	232.77
412.20	233.08
412.57	233.53
412.95	233.79
413.32	234.22
413.69	234.62
414.07	235.06
414.44	235.55
414.82	236.00
415.19	236.56
415.56	237.15
415.94	237.69
416.31	238.33
416.68	238.98
417.06	239.68
417.43	240.33
417.81	241.07
418.18	241.84
418.55	242.65
418.93	243.49
419.30	244.39
419.67	245.33
420.04	246.32
420.42	247.32
420.79	248.54
421.16	249.67
421.54	250.83
421.91	252.04
422.28	253.27
422.66	254.62
423.03	255.92
423.40	257.27
423.77	258.67
424.15	260.05
424.52	261.50
424.89	263.09
425.26	264.67
425.64	266.16
426.01	267.78
426.38	269.47
426.75	271.13
427.13	272.86
427.50	274.69
427.87	276.55
428.24	278.39
428.61	280.07
428.99	282.02
429.36	284.15
429.73	286.25
430.10	288.29
430.47	290.34
430.85	292.45
431.22	294.64
431.59	297.04
431.96	299.36
432.33	301.85
432.70	304.25
433.08	307.06
433.45	309.68
433.82	312.27
434.19	315.15
434.56	318.00
434.93	320.68
435.30	323.29
435.68	326.17
436.05	328.97
436.42	331.83
436.79	334.34
437.16	337.08
437.53	339.89
437.90	342.71
438.27	345.45
438.64	348.31
439.01	350.93
439.38	353.17
439.75	355.36
440.13	357.89
440.50	360.24
440.87	362.06
441.24	364.04
441.61	366.23
441.98	367.71
442.35	369.51
442.72	371.30
443.09	373.12
443.46	374.14
443.83	374.73
444.20	375.26
444.57	376.11
444.94	376.40
445.31	376.71
445.68	377.05
446.05	377.15
446.42	376.76
446.79	376.31
447.16	375.88
447.53	375.50
447.90	374.34
448.27	373.18
448.64	371.63
449.01	370.48
449.37	368.50
449.74	366.59
450.11	364.36
450.48	361.95
450.85	359.45
451.22	357.33
451.59	355.32
451.96	353.34
452.33	350.77
452.70	348.42
453.07	345.60
453.43	342.70
453.80	339.91
454.17	337.22
454.54	334.68
454.91	331.95
455.28	329.30
455.65	326.77
456.02	324.32
456.38	322.16
456.75	319.54
457.12	317.30
457.49	315.10
457.86	312.94
458.23	311.07
458.59	309.02
458.96	306.94
459.33	305.12
459.70	303.25
460.07	301.72
460.43	300.00
460.80	298.38
461.17	296.93
461.54	295.45
461.91	294.05
462.27	292.63
462.64	291.36
463.01	290.03
463.38	288.75
463.74	287.39
464.11	286.21
464.48	285.12
464.85	284.01
465.21	283.15
465.58	282.17
465.95	281.05
466.32	280.09
466.68	279.16
467.05	278.22
467.42	277.32
467.78	276.38
468.15	275.47
468.52	274.78
468.88	273.94
469.25	273.15
469.62	272.48
469.98	271.81
470.35	271.16
470.72	270.49
471.08	269.82
471.45	269.26
471.82	268.69
472.18	268.09
472.55	267.62
472.92	267.04
473.28	266.56
473.65	266.09
474.02	265.66
474.38	265.25
474.75	264.90
475.11	264.55
475.48	264.26
475.85	264.01
476.21	263.76
476.58	263.56
476.94	263.41
477.31	263.21
477.67	263.02
478.04	262.88
478.41	262.84
478.77	262.80
479.14	262.71
479.50	262.72
479.87	262.75
480.23	262.79
480.60	262.83
480.96	262.93
481.33	263.12
481.69	263.31
482.06	263.51
482.42	263.73
482.79	263.99
483.15	264.33
483.52	264.69
483.88	265.05
484.25	265.40
484.61	265.80
484.98	266.28
485.34	266.85
485.71	267.45
486.07	268.05
486.44	268.65
486.80	269.37
487.17	270.09
487.53	270.92
487.90	271.77
488.26	272.72
488.62	273.71
488.99	274.67
489.35	275.68
489.72	276.83
490.08	277.98
490.44	279.19
490.81	280.48
491.17	281.82
491.54	283.29
491.90	284.85
492.26	286.48
492.63	288.21
492.99	289.95
493.36	291.82
493.72	293.87
494.08	295.94
494.45	298.19
494.81	300.54
495.17	302.95
495.54	305.50
495.90	308.17
496.26	310.95
496.63	313.89
496.99	316.98
497.35	320.21
497.72	323.59
498.08	327.14
498.44	330.84
498.80	334.72
499.17	338.73
499.53	342.85
499.89	347.21
500.26	351.71
500.62	356.36
500.98	361.31
501.34	366.33
501.71	371.67
502.07	377.04
502.43	382.61
502.79	388.41
503.16	394.46
503.52	400.69
503.88	407.04
504.24	413.73
504.60	420.66
504.97	427.77
505.33	435.04
505.69	442.71
506.05	450.43
506.41	458.25
506.78	466.39
507.14	474.82
507.50	483.50
507.86	492.45
508.22	501.66
508.59	510.84
508.95	520.39
509.31	530.17
509.67	540.30
510.03	550.62
510.39	561.16
510.75	571.99
511.12	582.90
511.48	594.23
511.84	605.64
512.20	617.11
512.56	629.02
512.92	641.24
513.28	653.49
513.64	666.02
514.00	678.74
514.37	691.61
514.73	704.66
515.09	717.72
515.45	731.01
515.81	744.54
516.17	758.52
516.53	772.70
516.89	786.88
517.25	800.99
517.61	815.39
517.97	829.85
518.33	844.24
518.69	859.01
519.05	874.08
519.41	889.30
519.77	904.88
520.13	920.32
520.49	935.72
520.85	951.28
521.21	966.99
521.57	983.34
521.93	999.19
522.29	1015.63
522.65	1031.91
523.01	1048.17
523.37	1064.42
523.73	1080.71
524.09	1096.78
524.45	1113.17
524.81	1129.87
525.17	1146.80
525.53	1163.86
525.89	1180.78
526.25	1197.77
526.61	1214.17
526.97	1230.94
527.33	1247.51
527.68	1264.22
528.04	1280.75
528.40	1297.41
528.76	1314.59
529.12	1331.22
529.48	1348.22
529.84	1364.36
530.20	1381.07
530.56	1398.25
530.91	1415.63
531.27	1432.34
531.63	1448.89
531.99	1465.61
532.35	1481.67
532.71	1497.55
533.07	1513.75
533.42	1529.70
533.78	1545.76
534.14	1562.03
534.50	1577.41
534.86	1593.22
535.21	1608.40
535.57	1624.54
535.93	1640.06
536.29	1654.98
536.65	1670.18
537.00	1685.11
537.36	1700.47
537.72	1715.12
538.08	1729.62
538.44	1743.42
538.79	1757.58
539.15	1771.53
539.51	1785.31
539.87	1799.84
540.22	1813.75
540.58	1827.74
540.94	1841.27
541.29	1854.31
541.65	1867.16
542.01	1880.61
542.37	1893.05
542.72	1905.66
543.08	1917.35
543.44	1929.89
543.79	1941.07
544.15	1952.09
544.51	1963.59
544.87	1974.68
545.22	1985.52
545.58	1995.72
545.94	2005.64
546.29	2015.52
546.65	2025.35
547.01	2034.70
547.36	2043.46
547.72	2051.96
548.07	2059.70
548.43	2067.94
548.79	2076.07
549.14	2083.66
549.50	2090.89
549.86	2098.71
550.21	2106.06
550.57	2113.40
550.92	2119.92
551.28	2127.05
551.64	2134.08
551.99	2140.68
552.35	2146.73
552.70	2152.85
553.06	2158.78
553.41	2165.16
553.77	2171.22
554.13	2177.16
554.48	2183.10
554.84	2188.38
555.19	2193.60
555.55	2198.78
555.90	2203.06
556.26	2207.63
556.61	2212.23
556.97	2216.39
557.32	2220.38
557.68	2224.50
558.03	2228.71
558.39	2232.35
558.74	2236.89
559.10	2240.73
559.45	2244.25
559.81	2248.75
560.16	2252.43
560.52	2255.57
560.87	2258.83
561.23	2261.24
561.58	2264.24
561.94	2266.76
562.29	2269.26
562.64	2271.87
563.00	2274.47
563.35	2278.11
563.71	2281.39
564.06	2284.59
564.42	2287.30
564.77	2289.73
565.12	2291.71
565.48	2293.42
565.83	2295.13
566.19	2296.21
566.54	2297.15
566.89	2298.27
567.25	2298.57
567.60	2299.80
567.96	2301.51
568.31	2302.16
568.66	2303.07
569.02	2303.40
569.37	2303.59
569.72	2304.19
570.08	2304.06
570.43	2303.80
570.78	2302.87
571.14	2300.99
571.49	2299.40
571.84	2298.98
572.20	2297.49
572.55	2296.45
572.90	2294.76
573.26	2293.20
573.61	2291.46
573.96	2289.34
574.31	2286.23
574.67	2282.83
575.02	2278.98
575.37	2275.25
575.72	2271.27
576.08	2267.90
576.43	2264.46
576.78	2260.60
577.13	2257.29
577.49	2254.03
577.84	2250.50
578.19	2246.69
578.54	2242.89
578.90	2238.51
579.25	2232.82
579.60	2227.79
579.95	2222.61
580.30	2217.48
580.66	2212.25
581.01	2207.19
581.36	2202.19
581.71	2197.66
582.06	2193.19
582.42	2188.61
582.77	2183.40
583.12	2178.67
583.47	2173.77
583.82	2168.61
584.17	2163.39
584.53	2157.71
584.88	2152.08
585.23	2146.06
585.58	2140.47
585.93	2134.98
586.28	2130.15
586.63	2125.05
586.98	2120.07
587.34	2115.20
587.69	2110.17
588.04	2104.77
588.39	2098.83
588.74	2092.36
589.09	2086.14
589.44	2079.26
589.79	2073.27
590.14	2067.45
590.49	2060.80
590.84	2054.37
591.19	2048.12
591.54	2041.42
591.89	2033.85
592.25	2026.96
592.60	2019.82
592.95	2012.01
593.30	2004.44
593.65	1996.71
594.00	1989.61
594.35	1982.20
594.70	1974.12
595.05	1966.83
595.40	1959.59
595.75	1952.15
596.10	1945.64
596.45	1938.79
596.80	1932.58
597.15	1925.83
597.50	1918.58
597.85	1912.03
598.19	1905.31
598.54	1898.22
598.89	1891.47
599.24	1885.62
599.59	1878.78
599.94	1872.42
600.29	1866.08
600.64	1859.66
600.99	1852.13
601.34	1845.15
601.69	1838.16
602.04	1831.31
602.39	1823.83
602.74	1816.93
603.08	1810.24
603.43	1803.49
603.78	1796.26
604.13	1788.97
604.48	1781.56
604.83	1774.95
605.18	1768.02
605.53	1760.02
605.87	1752.04
606.22	1745.04
606.57	1737.20
606.92	1729.97
607.27	1722.81
607.62	1715.95
607.96	1708.54
608.31	1701.97
608.66	1694.43
609.01	1686.88
609.36	1679.26
609.70	1671.38
610.05	1663.33
610.40	1655.51
610.75	1647.20
611.10	1639.54
611.44	1631.35
611.79	1623.50
612.14	1614.65
612.49	1605.56
612.83	1597.12
613.18	1589.09
613.53	1580.94
613.88	1572.26
614.22	1563.90
614.57	1555.29
614.92	1547.12
615.27	1539.51
615.61	1531.30
615.96	1523.39
616.31	1515.82
616.65	1508.38
617.00	1500.72
617.35	1492.99
617.70	1484.60
618.04	1476.21
618.39	1468.05
618.74	1460.40
619.08	1452.11
619.43	1444.58
619.78	1437.68
620.12	1430.48
620.47	1422.85
620.82	1414.60
621.16	1407.34
621.51	1399.91
621.85	1392.38
622.20	1384.06
622.55	1375.84
622.89	1367.95
623.24	1360.32
623.59	1352.99
623.93	1345.52
624.28	1338.42
624.62	1330.91
624.97	1323.89
625.32	1317.19
625.66	1310.14
626.01	1302.92
626.35	1295.45
626.70	1287.74
627.04	1279.98
627.39	1272.30
627.73	1264.89
628.08	1258.03
628.43	1250.57
628.77	1243.08
629.12	1235.56
629.46	1228.35
629.81	1221.04
630.15	1213.86
630.50	1206.39
630.84	1198.24
631.19	1190.44
631.53	1182.99
631.88	1175.59
632.22	1167.99
632.57	1160.77
632.91	1153.40
633.26	1146.05
633.60	1138.80
633.95	1131.82
634.29	1124.92
634.64	1118.27
634.98	1111.00
635.32	1103.98
635.67	1097.68
636.01	1091.13
636.36	1084.24
636.70	1077.84
637.05	1071.32
637.39	1064.85
637.73	1058.55
638.08	1052.72
638.42	1046.75
638.77	1040.33
639.11	1033.73
639.45	1027.47
639.80	1020.77
640.14	1014.22
640.49	1007.71
640.83	1001.46
641.17	995.27
641.52	989.02
641.86	982.74
642.20	977.05
642.55	970.78
642.89	964.28
643.23	957.86
643.58	952.29
643.92	946.12
644.26	939.96
644.61	934.04
644.95	927.92
645.29	921.30
645.64	914.62
645.98	908.44
646.32	902.65
646.66	896.60
647.01	890.85
647.35	885.28
647.69	879.50
648.04	873.99
648.38	868.23
648.72	862.20
649.06	856.10
649.41	850.22
649.75	844.24
650.09	838.35
650.43	832.54
650.78	826.32
651.12	820.40
651.46	814.75
651.80	808.95
652.14	803.66
652.49	798.33
652.83	793.13
653.17	787.32
653.51	781.63
653.85	776.21
654.20	770.57
654.54	764.58
654.88	758.96
655.22	753.10
655.56	747.42
655.90	742.01
656.25	736.89
656.59	731.56
656.93	726.47
657.27	721.30
657.61	715.90
657.95	710.88
658.29	705.87
658.64	700.70
658.98	695.52
659.32	690.02
659.66	684.76
660.00	679.51
660.34	674.65
660.68	669.73
661.02	664.76
661.36	660.10
661.70	655.65
662.05	651.28
662.39	647.01
662.73	642.54
663.07	638.18
663.41	633.72
663.75	629.20
664.09	624.66
664.43	620.31
664.77	616.18
665.11	611.97
665.45	607.86
665.79	603.81
666.13	599.62
666.47	595.56
666.81	591.51
667.15	587.40
667.49	583.51
667.83	579.78
668.17	575.89
668.51	571.86
668.85	567.89
669.19	564.05
669.53	560.19
669.87	556.37
670.21	552.65
670.55	549.05
670.89	545.66
671.23	542.27
671.57	538.82
671.91	535.33
672.25	531.82
672.58	528.34
672.92	524.96
673.26	521.90
673.60	518.79
673.94	515.61
674.28	512.75
674.62	509.78
674.96	506.65
675.30	503.78
675.64	500.86
675.97	498.12
676.31	495.26
676.65	492.33
676.99	489.63
677.33	486.81
677.67	483.98
678.01	480.98
678.34	478.00
678.68	475.14
679.02	472.39
679.36	469.66
679.70	466.96
680.04	464.21
680.37	461.34
680.71	458.65
681.05	456.17
681.39	453.43
681.73	450.90
682.06	448.41
682.40	445.89
682.74	443.41
683.08	440.89
683.42	438.37
683.75	435.99
684.09	433.50
684.43	431.07
684.77	428.67
685.10	426.38
685.44	424.13
685.78	421.87
686.12	419.67
686.45	417.47
686.79	415.19
687.13	413.06
687.46	410.95
687.80	408.74
688.14	406.56
688.48	404.58
688.81	402.29
689.15	400.15
689.49	398.03
689.82	395.96
690.16	393.85
690.50	391.95
690.83	389.96
691.17	388.02
691.51	386.16
691.84	384.32
692.18	382.38
692.52	380.45
692.85	378.52
693.19	376.60
693.52	374.76
693.86	372.97
694.20	371.19
694.53	369.36
694.87	367.56
695.21	365.75
695.54	363.92
695.88	362.21
696.21	360.51
696.55	358.81
696.88	357.14
697.22	355.55
697.56	353.91
697.89	352.26
698.23	350.60
698.56	348.99
698.90	347.38
699.23	345.72
699.57	344.15
699.90	342.62
700.24	341.15
700.58	339.61
700.91	338.10
701.25	336.64
701.58	335.32
701.92	333.94
702.25	332.58
702.59	331.17
702.92	329.85
703.26	328.53
703.59	327.27
703.93	326.04
704.26	324.76
704.60	323.47
704.93	322.22
705.26	320.99
705.60	319.84
705.93	318.66
706.27	317.65
706.60	316.63
706.94	315.52
707.27	314.32
707.61	313.26
707.94	312.22
708.27	311.13
708.61	310.00
708.94	309.04
709.28	308.09
709.61	307.15
709.94	306.21
710.28	305.22
710.61	304.26
710.95	303.24
711.28	302.39
711.61	301.45
711.95	300.52
712.28	299.55
712.61	298.58
712.95	297.69
713.28	296.82
713.61	295.95
713.95	295.08
714.28	294.29
714.61	293.46
714.95	292.67
715.28	291.86
715.61	291.04
715.95	290.13
716.28	289.28
716.61	288.46
716.95	287.67
717.28	286.96
717.61	286.21
717.94	285.47
718.28	284.63
718.61	283.88
718.94	283.21
719.27	282.64
719.61	282.03
719.94	281.38
720.27	280.69
720.60	280.00
720.94	279.40
721.27	278.84
721.60	278.27
721.93	277.69
722.27	277.14
722.60	276.59
722.93	276.08
723.26	275.57
723.59	275.02
723.93	274.49
724.26	273.94
724.59	273.41
724.92	272.91
725.25	272.46
725.59	271.97
725.92	271.45
726.25	270.92
726.58	270.43
726.91	269.97
727.24	269.51
727.57	269.06
727.91	268.58
728.24	268.06
728.57	267.57
728.90	267.13
729.23	266.61
729.56	266.19
729.89	265.72
730.22	265.21
730.55	264.77
730.89	264.33
731.22	263.86
731.55	263.41
731.88	262.97
732.21	262.50
732.54	262.05
732.87	261.62
733.20	261.22
733.53	260.81
733.86	260.39
734.19	259.97
734.52	259.57
734.85	259.28
735.18	258.87
735.51	258.51
735.84	258.12
736.17	257.82
736.50	257.42
736.83	257.17
737.16	256.83
737.49	256.46
737.82	256.10
738.15	255.78
738.48	255.39
738.81	255.08
739.14	254.74
739.47	254.41
739.80	254.09
740.13	253.75
740.46	253.41
740.79	253.07
741.12	252.77
741.45	252.44
741.78	252.04
742.11	251.74
742.44	251.39
742.77	251.06
743.10	250.75
743.43	250.43
743.75	250.05
744.08	249.91
744.41	249.63
744.74	249.38
745.07	249.11
745.40	248.88
745.73	248.64
746.06	248.39
746.39	248.14
746.71	247.88
747.04	247.64
747.37	247.38
747.70	247.19
748.03	246.93
748.36	246.67
748.68	246.45
749.01	246.21
749.34	245.99
749.67	245.78
750.00	245.56
750.33	245.41
750.65	245.19
750.98	244.84
751.31	244.65
751.64	244.42
751.97	244.23
752.29	244.02
752.62	243.79
752.95	243.61
753.28	243.40
753.60	243.21
753.93	243.03
754.26	242.84
754.59	242.59
754.91	242.41
755.24	242.23
755.57	242.04
755.90	241.88
756.22	241.67
756.55	241.49
756.88	241.30
757.20	241.05
757.53	240.83
757.86	240.63
758.19	240.49
758.51	240.35
758.84	240.17
759.17	240.05
759.49	239.90
759.82	239.80
760.15	239.68
760.47	239.57
760.80	239.39
761.13	239.29
761.45	239.15
761.78	238.99
762.11	238.90
762.43	238.76
762.76	238.63
763.08	238.54
763.41	238.42
763.74	238.30
764.06	238.19
764.39	238.08
764.71	237.99
765.04	237.87
765.37	237.73
765.69	237.62
766.02	237.48
766.34	237.32
766.67	237.15
767.00	237.04
767.32	236.95
767.65	236.91
767.97	236.81
768.30	236.74
768.62	236.64
768.95	236.50
769.27	236.38
769.60	236.31
769.92	236.19
770.25	236.06
770.57	235.96
770.90	235.89
771.22	235.81
771.55	235.73
771.87	235.61
772.20	235.50
772.52	235.50
772.85	235.53
773.17	235.43
773.50	235.34
773.82	235.22
774.15	235.08
774.47	234.92
774.80	234.78
775.12	234.66
775.45	234.55
775.77	234.51
776.09	234.44
776.42	234.32
776.74	234.28
777.07	234.21
777.39	234.14
777.72	234.04
778.04	233.93
778.36	233.83
778.69	233.80
779.01	233.72
779.33	233.56
779.66	233.36
779.98	233.28
780.31	233.18
780.63	233.14
780.95	233.07
781.28	233.00
781.60	232.91
781.92	232.86
782.25	232.79
782.57	232.70
782.89	232.60
783.22	232.52
783.54	232.41
783.86	232.36
784.19	232.23
784.51	232.18
784.83	232.14
785.16	232.09
785.48	231.95
785.80	231.89
786.12	231.80
786.45	231.73
786.77	231.71
787.09	231.67
787.42	231.61
787.74	231.56
788.06	231.51
788.38	231.48
788.71	231.40
789.03	231.39
789.35	231.35
789.67	231.30
789.99	231.26
790.32	231.20
790.64	231.13
790.96	231.20
791.28	231.12
791.61	231.07
791.93	231.01
792.25	231.00
792.57	231.03
792.89	230.98
793.21	230.97
793.54	230.94
793.86	230.90
794.18	230.85
794.50	230.81
794.82	230.78
795.14	230.77
795.47	230.76
795.79	230.71
796.11	230.60
796.43	230.60
796.75	230.59
797.07	230.58
797.39	230.60
797.71	230.49
798.04	230.49
798.36	230.48
798.68	230.50
799.00	230.48
799.32	230.43
799.64	230.46
799.96	230.41
800.28	230.37
800.60	230.32
800.92	230.29
801.24	230.27
801.56	230.22
801.89	230.19
802.21	230.18
802.53	230.13
802.85	230.18
803.17	230.22
803.49	230.17
803.81	230.17
804.13	230.11
804.45	230.06
804.77	230.06
805.09	230.03
805.41	229.99
805.73	229.95
806.05	229.92
806.37	229.87
806.69	229.86
807.01	229.82
807.33	229.84
807.65	229.81
807.97	229.82
808.28	229.85
808.60	229.83
808.92	229.78
809.24	229.86
809.56	229.80
809.88	229.72
810.20	229.69
810.52	229.68
810.84	229.65
811.16	229.65
811.48	229.59
811.80	229.60
812.12	229.54
812.43	229.56
812.75	229.52
813.07	229.45
813.39	229.44
813.71	229.40
814.03	229.38
814.35	229.37
814.67	229.33
814.98	229.26
815.30	229.25
815.62	229.20
815.94	229.10
816.26	229.11
816.58	229.09
816.89	229.07
817.21	229.00
817.53	228.98
817.85	229.00
818.17	228.99
818.48	228.91
818.80	228.92
819.12	228.84
819.44	228.83
819.76	228.80
820.07	228.76
820.39	228.75
820.71	228.74
821.03	228.70
821.34	228.65
821.66	228.68
821.98	228.65
822.30	228.64
822.61	228.69
822.93	228.62
823.25	228.58
823.57	228.55
823.88	228.53
824.20	228.51
824.52	228.46
824.83	228.40
825.15	228.39
825.47	228.34
825.79	228.36
826.10	228.33
826.42	228.34
826.74	228.33
827.05	228.32
827.37	228.29
827.69	228.27
828.00	228.26
828.32	228.21
828.64	228.19
828.95	228.23
829.27	228.15
829.58	228.15
829.90	228.21
830.22	228.23
830.53	228.21
830.85	228.17
831.17	228.18
831.48	228.20
831.80	228.22
832.11	228.23
832.43	228.20
832.75	228.17
833.06	228.18
833.38	228.17
833.69	228.16
834.01	228.15
834.32	228.14
834.64	228.13
834.96	228.12
835.27	228.10
835.59	228.05
835.90	228.04
836.22	228.03
836.53	227.97
836.85	227.94
837.16	228.05
837.48	228.09
837.79	228.10
838.11	228.11
838.42	228.09
838.74	228.12
839.05	228.13
839.37	228.16
839.68	228.12
840.00	228.12
840.31	228.13
840.63	228.14
840.94	228.14
841.26	228.11
841.57	228.13
841.88	228.12
842.20	228.12
842.51	228.15
842.83	228.18
843.14	228.24
843.46	228.26
843.77	228.21
844.08	228.18
844.40	228.19
844.71	228.16
845.03	228.16
845.34	228.11
845.65	228.10
845.97	228.11
846.28	228.11
846.60	228.10
846.91	228.06
847.22	228.07
847.54	228.05
847.85	228.09
848.16	228.07
848.48	228.08
848.79	228.14
849.10	228.12
849.42	228.12
849.73	228.07
850.04	228.04
850.36	228.00
850.67	228.03
850.98	227.99
851.30	227.98
851.61	227.98
851.92	227.99
852.23	228.04
852.55	228.01
852.86	228.00
853.17	227.99
853.49	228.03
853.80	228.05
854.11	228.08
854.42	228.07
854.74	228.03
855.05	228.01
855.36	227.92
855.67	227.91
855.99	227.88
856.30	227.98
856.61	227.97
856.92	227.92
857.23	227.88
857.55	227.89
857.86	227.88
858.17	227.89
858.48	227.85
858.79	227.78
859.11	227.78
859.42	227.77
859.73	227.76
860.04	227.71
860.35	227.65
860.66	227.61
860.98	227.58
861.29	227.60
861.60	227.60
861.91	227.62
862.22	227.63
862.53	227.62
862.84	227.47
863.16	227.47
863.47	227.47
863.78	227.47
864.09	227.46
864.40	227.44
864.71	227.40
865.02	227.42
865.33	227.42
865.64	227.41
865.95	227.41
866.27	227.43
866.58	227.44
866.89	227.42
867.20	227.43
867.51	227.42
867.82	227.46
868.13	227.49
868.44	227.43
868.75	227.45
869.06	227.45
869.37	227.47
869.68	227.45
869.99	227.49
870.30	227.47
870.61	227.47
870.92	227.49
871.23	227.48
871.54	227.47
871.85	227.52
872.16	227.55
872.47	227.53
872.78	227.51
873.09	227.54
873.40	227.55
873.71	227.56
874.02	227.54
874.33	227.49
874.64	227.45
874.95	227.50
875.26	227.47
875.56	227.48
875.87	227.50
876.18	227.50
876.49	227.57
876.80	227.59
877.11	227.58
877.42	227.60
877.73	227.61
878.04	227.64
878.35	227.61
878.66	227.62
878.96	227.64
879.27	227.62
879.58	227.61
879.89	227.62
880.20	227.65
880.51	227.69
880.82	227.72
881.12	227.73
881.43	227.72
881.74	227.70
882.05	227.69
882.36	227.69
882.67	227.69
882.97	227.62
883.28	227.62
883.59	227.64
883.90	227.64
884.21	227.66
884.51	227.63
884.82	227.64
885.13	227.63
885.44	227.63
885.74	227.62
886.05	227.61
886.36	227.61
886.67	227.57
886.98	227.62
887.28	227.60
887.59	227.62
887.90	227.63
888.20	227.64
888.51	227.66
888.82	227.63
889.13	227.66
889.43	227.71
889.74	227.70
890.05	227.68
890.35	227.69
890.66	227.67
890.97	227.68
891.28	227.68
891.58	227.65
891.89	227.63
892.20	227.67
892.50	227.66
892.81	227.64
893.12	227.64
893.42	227.57
893.73	227.56
894.04	227.53
894.34	227.54
894.65	227.53
894.95	227.49
895.26	227.50
895.57	227.51
895.87	227.44
896.18	227.44
896.48	227.44
896.79	227.38
897.10	227.37
897.40	227.38
897.71	227.35
898.01	227.35
898.32	227.34
898.63	227.29
898.93	227.30
899.24	227.30
899.54	227.30
899.85	227.30
900.15	227.30
900.46	227.29
900.76	227.27
901.07	227.23
901.38	227.26
901.68	227.24
901.99	227.17
902.29	227.16
902.60	227.14
902.90	227.14
903.21	227.13
903.51	227.12
903.82	227.08
904.12	227.12
904.43	227.15
904.73	227.15
905.03	227.17
905.34	227.23
905.64	227.23
905.95	227.24
906.25	227.20
906.56	227.22
906.86	227.22
907.17	227.21
907.47	227.23
907.77	227.21
908.08	227.19
908.38	227.19
908.69	227.21
908.99	227.25
909.30	227.23
909.60	227.26
909.90	227.25
910.21	227.23
910.51	227.17
910.81	227.15
911.12	227.13
911.42	227.14
911.73	227.07
912.03	227.07
912.33	227.08
912.64	227.10
912.94	227.10
913.24	227.09
913.55	227.09
913.85	227.07
914.15	227.10
914.46	227.11
914.76	227.12
915.06	227.10
915.37	227.05
915.67	227.08
915.97	227.09
916.27	227.12
916.58	227.15
916.88	227.18
917.18	227.16
917.49	227.24
917.79	227.23
918.09	227.23
918.39	227.27
918.70	227.29
919.00	227.33
919.30	227.35
919.60	227.35
919.91	227.32
920.21	227.36
920.51	227.36
920.81	227.38
921.12	227.42
921.42	227.42
921.72	227.45
922.02	227.43
922.32	227.44
922.63	227.44
922.93	227.49
923.23	227.54
923.53	227.56
923.83	227.52
924.13	227.53
924.44	227.54
924.74	227.54
925.04	227.56
925.34	227.55
925.64	227.52
925.94	227.52
926.24	227.59
926.55	227.55
926.85	227.55
927.15	227.53
927.45	227.52
927.75	227.52
928.05	227.53
928.35	227.52
928.65	227.51
928.95	227.51
929.26	227.50
929.56	227.43
929.86	227.44
930.16	227.42
930.46	227.42
930.76	227.39
931.06	227.35
931.36	227.35
931.66	227.31
931.96	227.32
932.26	227.34
932.56	227.29
932.86	227.31
933.16	227.31
933.46	227.26
933.76	227.28
934.06	227.29
934.36	227.32
934.66	227.31
934.96	227.29
935.26	227.26
935.56	227.26
935.86	227.26
936.16	227.22
936.46	227.19
936.76	227.16
937.06	227.16
937.36	227.15
937.66	227.12
937.96	227.13
938.26	227.10
938.56	227.08
938.86	227.10
939.16	227.09
939.46	227.07
939.76	227.08
940.06	227.03
940.35	227.01
940.65	226.93
940.95	226.92
941.25	226.89
941.55	226.89
941.85	226.86
942.15	226.84
942.45	226.91
942.75	226.92
943.04	226.92
943.34	226.92
943.64	226.88
943.94	226.85
944.24	226.84
944.54	226.84
944.84	226.83
945.13	226.76
945.43	226.77
945.73	226.75
946.03	226.80
946.33	226.79
946.62	226.82
946.92	226.83
947.22	226.86
947.52	226.89
947.82	226.91
948.11	226.88
948.41	226.85
948.71	226.82
949.01	226.82
949.31	226.83
949.60	226.85
949.90	226.89
950.20	226.91
950.50	226.93
950.79	226.93
951.09	226.95
951.39	226.99
951.69	226.98
951.98	227.04
952.28	227.02
952.58	227.03
952.87	226.99
953.17	227.03
953.47	227.03
953.76	227.00
954.06	227.01
954.36	227.04
954.66	227.09
954.95	227.09
955.25	227.09
955.55	227.10
955.84	227.09
956.14	227.08
956.44	227.09
956.73	227.10
957.03	227.13
957.32	227.17
957.62	227.13
957.92	227.18
958.21	227.16
958.51	227.27
958.81	227.29
959.10	227.34
959.40	227.37
959.69	227.36
959.99	227.41
960.29	227.39
960.58	227.39
960.88	227.43
961.17	227.43
961.47	227.46
961.76	227.47
962.06	227.49
962.36	227.52
962.65	227.51
962.95	227.48
963.24	227.48
963.54	227.45
963.83	227.48
964.13	227.46
964.42	227.43
964.72	227.35
965.01	227.35
965.31	227.31
965.60	227.27
965.90	227.36
966.19	227.33
966.49	227.36
966.78	227.34
967.08	227.33
967.37	227.33
967.67	227.29
967.96	227.31
968.26	227.29
968.55	227.28
968.85	227.29
969.14	227.28
969.43	227.26
969.73	227.27
970.02	227.26
970.32	227.25
970.61	227.25
970.91	227.23
971.20	227.21
971.49	227.23
971.79	227.24
972.08	227.13
972.38	227.15
972.67	227.11
972.96	227.09
973.26	227.07
973.55	227.09
973.85	227.06
974.14	227.03
974.43	227.05
974.73	227.02
975.02	227.04
975.31	227.05
975.61	227.04
975.90	227.03
976.19	227.01
976.49	226.98
976.78	226.95
977.07	226.94
977.37	226.95
977.66	226.91
977.95	226.89
978.24	226.92
978.54	226.90
978.83	226.89
979.12	226.88
979.42	226.86
979.71	226.82
980.00	226.83
980.29	226.86
980.59	226.81
980.88	226.82
981.17	226.78
981.46	226.77
981.76	226.77
982.05	226.79
982.34	226.77
982.63	226.81
982.93	226.84
983.22	226.86
983.51	226.88
983.80	226.92
984.09	226.92
984.39	226.95
984.68	226.94
984.97	226.97
985.26	227.01
985.55	227.05
985.85	227.05
986.14	227.09
986.43	227.07
986.72	227.10
987.01	227.11
987.30	227.12
987.59	227.15
987.89	227.16
988.18	227.12
988.47	227.16
988.76	227.14
989.05	227.13
989.34	227.11
989.63	227.12
989.92	227.12
990.22	227.09
990.51	227.04
990.80	227.07
991.09	227.07
991.38	227.08
991.67	227.05
991.96	227.05
992.25	227.06
992.54	227.07
992.83	227.06
993.12	227.04
993.41	227.04
993.70	227.03
993.99	227.05
994.28	227.08
994.58	227.09
994.87	227.07
995.16	227.08
995.45	227.10
995.74	227.06
996.03	227.11
996.32	227.13
996.61	227.18
996.90	227.15
997.19	227.13
997.48	227.15
997.77	227.18
998.06	227.17
998.34	227.15
998.63	227.15
998.92	227.15
999.21	227.16
999.50	227.16
999.79	227.15
1000.08	227.17
1000.37	227.18
1000.66	227.17
1000.95	227.20
1001.24	227.22
1001.53	227.20
1001.82	227.20
1002.11	227.14
1002.40	227.16
1002.68	227.16
1002.97	227.23
1003.26	227.25
1003.55	227.21
1003.84	227.20
1004.13	227.24
1004.42	227.21
1004.71	227.22
1004.99	227.22
1005.28	227.26
1005.57	227.26
1005.86	227.23
1006.15	227.19
1006.44	227.16
1006.72	227.14
1007.01	227.12
1007.30	227.13
1007.59	227.14
1007.88	227.12
1008.17	227.13
1008.45	227.11
1008.74	227.05
1009.03	227.01
1009.32	227.02
1009.60	227.04
1009.89	226.99
1010.18	226.93
1010.47	226.92
1010.76	226.89
1011.04	226.87
1011.33	226.94
1011.62	226.95
1011.91	226.96
1012.19	226.94
1012.48	226.93
1012.77	226.93
1013.05	226.96
1013.34	226.94
1013.63	226.93
1013.92	226.98
1014.20	226.97
1014.49	226.97
1014.78	226.97
1015.06	226.94
1015.35	226.89
1015.64	226.87
1015.92	226.91
1016.21	226.93
1016.50	226.93
1016.78	226.96
1017.07	226.93
1017.36	226.83
1017.64	226.78
1017.93	226.78
1018.22	226.78
1018.50	226.83
1018.79	226.82
1019.08	226.76
1019.36	226.78
1019.65	226.78
1019.93	226.77
1020.22	226.82
1020.51	226.87
1020.79	226.86
1021.08	226.54
1021.36	227.57
1021.65	226.43
1021.94	226.44
1022.22	227.30
1022.51	226.97
1022.79	227.49
1023.08	227.62
1023.36	228.14
1023.65	226.23
>>>>>End Processed Spectral Data<<<<<
