SpectraSuite Data File
++++++++++++++++++++++++++++++++++++
Date: Fri Feb 01 18:00:40 EST 2013
User: group
Dark Spectrum Present: No
Reference Spectrum Present: No
Number of Sampled Component Spectra: 1
Spectrometers: USB2E7196
Integration Time (usec): 35000 (USB2E7196)
Spectra Averaged: 100 (USB2E7196)
Boxcar Smoothing: 10 (USB2E7196)
Correct for Electrical Dark: No (USB2E7196)
Strobe/Lamp Enabled: No (USB2E7196)
Correct for Detector Non-linearity: No (USB2E7196)
Correct for Stray Light: No (USB2E7196)
Number of Pixels in Processed Spectrum: 2048
>>>>>Begin Processed Spectral Data<<<<<
339.09	0.00
339.48	213.50
339.86	214.32
340.24	215.99
340.63	217.65
341.01	220.59
341.39	219.67
341.78	221.87
342.16	222.99
342.54	223.12
342.93	211.61
343.31	222.33
343.69	222.86
344.07	223.35
344.46	223.78
344.84	224.15
345.22	224.37
345.60	224.64
345.99	224.79
346.37	224.91
346.75	225.02
347.13	225.06
347.52	225.08
347.90	225.13
348.28	225.19
348.66	225.26
349.05	225.22
349.43	225.29
349.81	225.34
350.19	225.36
350.57	225.43
350.96	225.48
351.34	225.52
351.72	225.59
352.10	225.67
352.48	225.74
352.87	225.78
353.25	225.85
353.63	225.92
354.01	225.99
354.39	226.06
354.77	226.11
355.15	226.17
355.54	226.23
355.92	226.24
356.30	226.28
356.68	226.39
357.06	226.47
357.44	226.49
357.82	226.54
358.20	226.58
358.58	226.62
358.97	226.69
359.35	226.76
359.73	226.83
360.11	226.89
360.49	226.92
360.87	226.95
361.25	226.98
361.63	227.03
362.01	227.06
362.39	227.06
362.77	227.08
363.15	227.11
363.53	227.15
363.91	227.22
364.29	227.26
364.67	227.19
365.05	227.18
365.43	227.18
365.81	227.19
366.19	227.27
366.57	227.32
366.95	227.30
367.33	227.27
367.71	227.29
368.09	227.29
368.47	227.28
368.85	227.29
369.23	227.32
369.61	227.25
369.99	227.27
370.37	227.28
370.75	227.33
371.13	227.31
371.51	227.27
371.89	227.28
372.27	227.25
372.65	227.21
373.03	227.18
373.41	227.14
373.78	227.10
374.16	226.98
374.54	226.91
374.92	226.86
375.30	226.81
375.68	226.70
376.06	226.62
376.44	226.57
376.82	226.52
377.19	226.41
377.57	226.40
377.95	226.31
378.33	226.24
378.71	226.11
379.09	226.04
379.47	226.00
379.84	225.90
380.22	225.83
380.60	225.76
380.98	225.72
381.36	225.69
381.73	225.60
382.11	225.59
382.49	225.53
382.87	225.46
383.25	225.39
383.62	225.47
384.00	225.40
384.38	225.37
384.76	225.32
385.13	225.34
385.51	225.26
385.89	225.20
386.27	225.18
386.64	225.15
387.02	225.10
387.40	225.05
387.78	225.03
388.15	224.99
388.53	224.95
388.91	224.90
389.29	224.84
389.66	224.83
390.04	224.76
390.42	224.76
390.79	224.74
391.17	224.76
391.55	224.63
391.92	224.62
392.30	224.61
392.68	224.62
393.05	224.58
393.43	224.58
393.81	224.56
394.18	224.52
394.56	224.55
394.94	224.57
395.31	224.58
395.69	224.61
396.06	224.65
396.44	224.69
396.82	224.71
397.19	224.81
397.57	224.83
397.95	224.91
398.32	224.93
398.70	225.01
399.07	225.07
399.45	225.13
399.82	225.17
400.20	225.25
400.58	225.29
400.95	225.34
401.33	225.44
401.70	225.63
402.08	225.75
402.45	225.83
402.83	225.94
403.20	226.05
403.58	226.15
403.95	226.27
404.33	226.40
404.71	226.53
405.08	226.72
405.46	226.87
405.83	227.02
406.21	227.21
406.58	227.38
406.96	227.55
407.33	227.75
407.70	228.00
408.08	228.28
408.45	228.52
408.83	228.79
409.20	229.04
409.58	229.25
409.95	229.57
410.33	229.88
410.70	230.22
411.08	230.58
411.45	230.95
411.82	231.35
412.20	231.80
412.57	232.32
412.95	232.72
413.32	233.23
413.69	233.76
414.07	234.34
414.44	234.95
414.82	235.58
415.19	236.28
415.56	237.03
415.94	237.78
416.31	238.66
416.68	239.50
417.06	240.45
417.43	241.35
417.81	242.37
418.18	243.41
418.55	244.53
418.93	245.71
419.30	246.91
419.67	248.14
420.04	249.40
420.42	250.79
420.79	252.34
421.16	253.95
421.54	255.53
421.91	257.15
422.28	258.84
422.66	260.66
423.03	262.40
423.40	264.15
423.77	266.05
424.15	267.96
424.52	269.93
424.89	272.09
425.26	274.22
425.64	276.19
426.01	278.38
426.38	280.63
426.75	282.90
427.13	285.26
427.50	287.74
427.87	290.31
428.24	292.79
428.61	295.20
428.99	297.79
429.36	300.66
429.73	303.43
430.10	306.19
430.47	308.99
430.85	311.88
431.22	314.95
431.59	318.15
431.96	321.16
432.33	324.55
432.70	327.78
433.08	331.54
433.45	335.10
433.82	338.58
434.19	342.48
434.56	346.25
434.93	349.85
435.30	353.41
435.68	357.33
436.05	361.15
436.42	364.89
436.79	368.28
437.16	371.96
437.53	375.80
437.90	379.62
438.27	383.30
438.64	387.13
439.01	390.58
439.38	393.64
439.75	396.61
440.13	400.01
440.50	403.16
440.87	405.72
441.24	408.36
441.61	411.31
441.98	413.33
442.35	415.83
442.72	418.38
443.09	420.81
443.46	422.16
443.83	423.03
444.20	423.75
444.57	424.90
444.94	425.32
445.31	425.78
445.68	426.22
446.05	426.37
446.42	425.89
446.79	425.41
447.16	424.82
447.53	424.39
447.90	422.81
448.27	421.26
448.64	419.12
449.01	417.58
449.37	414.92
449.74	412.41
450.11	409.30
450.48	405.96
450.85	402.56
451.22	399.64
451.59	396.87
451.96	394.28
452.33	390.78
452.70	387.58
453.07	383.74
453.43	379.85
453.80	376.10
454.17	372.49
454.54	369.02
454.91	365.32
455.28	361.67
455.65	358.32
456.02	354.96
456.38	352.02
456.75	348.40
457.12	345.37
457.49	342.32
457.86	339.45
458.23	336.86
458.59	334.06
458.96	331.21
459.33	328.64
459.70	326.05
460.07	324.02
460.43	321.64
460.80	319.41
461.17	317.39
461.54	315.30
461.91	313.33
462.27	311.31
462.64	309.60
463.01	307.74
463.38	305.92
463.74	304.08
464.11	302.51
464.48	301.10
464.85	299.59
465.21	298.39
465.58	297.09
465.95	295.62
466.32	294.34
466.68	293.11
467.05	291.93
467.42	290.73
467.78	289.42
468.15	288.21
468.52	287.33
468.88	286.17
469.25	285.14
469.62	284.28
469.98	283.35
470.35	282.50
470.72	281.71
471.08	280.82
471.45	280.07
471.82	279.28
472.18	278.44
472.55	277.79
472.92	277.05
473.28	276.41
473.65	275.76
474.02	275.16
474.38	274.64
474.75	274.18
475.11	273.72
475.48	273.34
475.85	273.00
476.21	272.64
476.58	272.36
476.94	272.14
477.31	271.85
477.67	271.63
478.04	271.44
478.41	271.33
478.77	271.31
479.14	271.16
479.50	271.15
479.87	271.18
480.23	271.23
480.60	271.25
480.96	271.29
481.33	271.46
481.69	271.64
482.06	271.81
482.42	271.94
482.79	272.14
483.15	272.46
483.52	272.82
483.88	273.14
484.25	273.53
484.61	273.91
484.98	274.39
485.34	274.92
485.71	275.47
486.07	276.09
486.44	276.67
486.80	277.42
487.17	278.11
487.53	278.96
487.90	279.78
488.26	280.70
488.62	281.73
488.99	282.75
489.35	283.78
489.72	284.95
490.08	286.23
490.44	287.51
490.81	288.88
491.17	290.27
491.54	291.84
491.90	293.43
492.26	295.15
492.63	296.92
492.99	298.79
493.36	300.77
493.72	302.90
494.08	305.12
494.45	307.45
494.81	309.91
495.17	312.47
495.54	315.23
495.90	318.09
496.26	321.06
496.63	324.13
496.99	327.46
497.35	330.90
497.72	334.48
498.08	338.19
498.44	342.05
498.80	346.22
499.17	350.50
499.53	354.93
499.89	359.60
500.26	364.38
500.62	369.31
500.98	374.60
501.34	379.96
501.71	385.58
502.07	391.35
502.43	397.37
502.79	403.54
503.16	409.97
503.52	416.64
503.88	423.42
504.24	430.44
504.60	437.77
504.97	445.38
505.33	453.13
505.69	461.38
506.05	469.68
506.41	478.06
506.78	486.78
507.14	495.76
507.50	505.01
507.86	514.58
508.22	524.43
508.59	534.25
508.95	544.46
509.31	554.93
509.67	565.74
510.03	576.69
510.39	587.99
510.75	599.56
511.12	611.14
511.48	623.26
511.84	635.55
512.20	647.84
512.56	660.59
512.92	673.66
513.28	686.85
513.64	700.32
514.00	714.01
514.37	727.87
514.73	742.01
515.09	756.07
515.45	770.43
515.81	784.99
516.17	800.05
516.53	815.31
516.89	830.77
517.25	846.12
517.61	861.71
517.97	877.36
518.33	892.93
518.69	909.09
519.05	925.31
519.41	941.74
519.77	958.67
520.13	975.55
520.49	992.34
520.85	1009.13
521.21	1026.13
521.57	1043.87
521.93	1061.11
522.29	1078.86
522.65	1096.68
523.01	1114.49
523.37	1132.15
523.73	1150.01
524.09	1167.68
524.45	1185.48
524.81	1203.74
525.17	1222.17
525.53	1240.74
525.89	1259.46
526.25	1277.96
526.61	1296.19
526.97	1314.74
527.33	1332.98
527.68	1351.34
528.04	1369.74
528.40	1388.17
528.76	1407.25
529.12	1425.59
529.48	1444.36
529.84	1462.24
530.20	1480.83
530.56	1499.77
530.91	1519.25
531.27	1538.00
531.63	1556.44
531.99	1575.20
532.35	1593.29
532.71	1611.31
533.07	1629.68
533.42	1647.58
533.78	1665.81
534.14	1684.16
534.50	1701.63
534.86	1719.67
535.21	1737.03
535.57	1755.08
535.93	1772.86
536.29	1789.75
536.65	1807.11
537.00	1824.17
537.36	1841.78
537.72	1858.42
538.08	1875.13
538.44	1891.01
538.79	1906.99
539.15	1922.77
539.51	1938.58
539.87	1955.10
540.22	1970.99
540.58	1987.11
540.94	2002.82
541.29	2017.86
541.65	2032.68
542.01	2048.11
542.37	2062.64
542.72	2077.30
543.08	2091.30
543.44	2105.87
543.79	2119.38
544.15	2132.45
544.51	2146.10
544.87	2159.09
545.22	2172.17
545.58	2184.56
545.94	2196.57
546.29	2208.65
546.65	2220.79
547.01	2232.29
547.36	2243.16
547.72	2253.83
548.07	2263.63
548.43	2273.73
548.79	2283.85
549.14	2293.44
549.50	2302.84
549.86	2312.61
550.21	2321.91
550.57	2330.95
550.92	2339.48
551.28	2348.38
551.64	2357.60
551.99	2366.12
552.35	2374.40
552.70	2382.49
553.06	2390.39
553.41	2398.69
553.77	2406.63
554.13	2414.53
554.48	2422.53
554.84	2429.90
555.19	2436.98
555.55	2444.05
555.90	2450.19
556.26	2456.94
556.61	2463.26
556.97	2469.45
557.32	2475.13
557.68	2480.94
558.03	2486.98
558.39	2492.21
558.74	2498.51
559.10	2503.95
559.45	2509.19
559.81	2514.92
560.16	2520.30
560.52	2525.02
560.87	2529.91
561.23	2533.88
561.58	2538.20
561.94	2542.02
562.29	2545.55
562.64	2549.60
563.00	2553.41
563.35	2558.43
563.71	2562.80
564.06	2567.57
564.42	2571.59
564.77	2575.44
565.12	2579.00
565.48	2582.26
565.83	2585.45
566.19	2588.05
566.54	2589.81
566.89	2592.06
567.25	2593.84
567.60	2596.12
567.96	2598.81
568.31	2600.62
568.66	2602.86
569.02	2604.56
569.37	2605.70
569.72	2607.65
570.08	2608.62
570.43	2609.57
570.78	2609.71
571.14	2608.80
571.49	2607.98
571.84	2608.32
572.20	2607.85
572.55	2607.33
572.90	2606.08
573.26	2605.15
573.61	2603.73
573.96	2602.63
574.31	2599.87
574.67	2597.12
575.02	2593.80
575.37	2590.60
575.72	2586.94
576.08	2583.48
576.43	2580.09
576.78	2576.63
577.13	2573.47
577.49	2570.30
577.84	2566.76
578.19	2562.92
578.54	2559.43
578.90	2555.31
579.25	2549.52
579.60	2544.42
579.95	2539.16
580.30	2533.84
580.66	2528.39
581.01	2523.16
581.36	2517.80
581.71	2513.63
582.06	2508.93
582.42	2504.20
582.77	2498.64
583.12	2493.70
583.47	2488.86
583.82	2483.67
584.17	2477.97
584.53	2472.03
584.88	2466.09
585.23	2459.93
585.58	2454.03
585.93	2447.82
586.28	2442.48
586.63	2436.95
586.98	2431.34
587.34	2426.06
587.69	2420.70
588.04	2415.05
588.39	2408.81
588.74	2401.61
589.09	2394.64
589.44	2387.13
589.79	2380.17
590.14	2373.76
590.49	2366.38
590.84	2359.15
591.19	2352.36
591.54	2345.17
591.89	2337.01
592.25	2329.36
592.60	2321.15
592.95	2312.56
593.30	2304.34
593.65	2295.66
594.00	2287.67
594.35	2279.34
594.70	2270.16
595.05	2262.06
595.40	2253.55
595.75	2245.00
596.10	2237.99
596.45	2230.27
596.80	2223.25
597.15	2215.85
597.50	2207.96
597.85	2200.51
598.19	2192.80
598.54	2184.78
598.89	2177.04
599.24	2170.20
599.59	2162.61
599.94	2155.45
600.29	2148.16
600.64	2140.57
600.99	2132.04
601.34	2124.19
601.69	2116.06
602.04	2108.19
602.39	2099.61
602.74	2091.77
603.08	2084.02
603.43	2076.14
603.78	2067.65
604.13	2059.17
604.48	2050.69
604.83	2042.58
605.18	2034.68
605.53	2025.47
605.87	2016.04
606.22	2007.68
606.57	1998.30
606.92	1989.46
607.27	1981.00
607.62	1972.97
607.96	1964.40
608.31	1956.70
608.66	1947.86
609.01	1939.18
609.36	1930.39
609.70	1921.08
610.05	1911.76
610.40	1902.73
610.75	1893.01
611.10	1884.11
611.44	1874.25
611.79	1864.84
612.14	1854.71
612.49	1843.74
612.83	1833.93
613.18	1824.27
613.53	1814.72
613.88	1804.68
614.22	1795.04
614.57	1784.94
614.92	1775.51
615.27	1766.75
615.61	1756.95
615.96	1747.42
616.31	1738.31
616.65	1729.57
617.00	1720.61
617.35	1711.46
617.70	1701.64
618.04	1691.66
618.39	1681.85
618.74	1672.84
619.08	1663.07
619.43	1654.08
619.78	1645.91
620.12	1637.38
620.47	1628.68
620.82	1618.98
621.16	1610.13
621.51	1601.21
621.85	1592.20
622.20	1582.07
622.55	1572.23
622.89	1563.06
623.24	1553.97
623.59	1545.26
623.93	1536.37
624.28	1527.93
624.62	1519.00
624.97	1510.59
625.32	1502.62
625.66	1494.34
626.01	1485.99
626.35	1477.32
626.70	1468.19
627.04	1459.19
627.39	1450.02
627.73	1441.19
628.08	1433.10
628.43	1424.65
628.77	1416.04
629.12	1407.27
629.46	1398.98
629.81	1390.08
630.15	1381.45
630.50	1372.74
630.84	1363.17
631.19	1353.89
631.53	1344.99
631.88	1336.10
632.22	1327.03
632.57	1318.38
632.91	1309.62
633.26	1300.88
633.60	1292.07
633.95	1283.73
634.29	1275.40
634.64	1267.59
634.98	1258.96
635.32	1250.50
635.67	1242.72
636.01	1234.91
636.36	1226.93
636.70	1219.17
637.05	1211.48
637.39	1203.88
637.73	1196.40
638.08	1189.45
638.42	1182.44
638.77	1174.92
639.11	1167.29
639.45	1159.97
639.80	1152.17
640.14	1144.63
640.49	1136.96
640.83	1129.62
641.17	1122.31
641.52	1114.95
641.86	1107.38
642.20	1100.58
642.55	1093.24
642.89	1085.76
643.23	1078.06
643.58	1071.32
643.92	1064.07
644.26	1057.13
644.61	1050.05
644.95	1043.07
645.29	1035.42
645.64	1027.61
645.98	1020.23
646.32	1013.40
646.66	1006.32
647.01	999.64
647.35	993.05
647.69	986.22
648.04	979.75
648.38	973.09
648.72	966.18
649.06	959.23
649.41	952.39
649.75	945.53
650.09	938.64
650.43	931.91
650.78	924.75
651.12	917.93
651.46	911.28
651.80	904.72
652.14	898.36
652.49	892.13
652.83	886.06
653.17	879.49
653.51	872.87
653.85	866.61
654.20	860.03
654.54	853.05
654.88	846.44
655.22	839.62
655.56	833.04
655.90	826.68
656.25	820.66
656.59	814.40
656.93	808.52
657.27	802.53
657.61	796.29
657.95	790.44
658.29	784.52
658.64	778.40
658.98	772.17
659.32	765.86
659.66	759.85
660.00	753.77
660.34	748.01
660.68	742.31
661.02	736.47
661.36	731.06
661.70	725.79
662.05	720.70
662.39	715.68
662.73	710.46
663.07	705.38
663.41	700.18
663.75	695.02
664.09	689.64
664.43	684.52
664.77	679.71
665.11	674.76
665.45	669.93
665.79	665.24
666.13	660.50
666.47	655.77
666.81	651.05
667.15	646.23
667.49	641.76
667.83	637.30
668.17	632.74
668.51	628.09
668.85	623.47
669.19	619.13
669.53	614.77
669.87	610.37
670.21	606.11
670.55	601.84
670.89	597.82
671.23	593.91
671.57	589.84
671.91	585.83
672.25	581.74
672.58	577.69
672.92	573.67
673.26	570.01
673.60	566.37
673.94	562.72
674.28	559.44
674.62	556.03
674.96	552.52
675.30	549.20
675.64	545.72
675.97	542.51
676.31	539.12
676.65	535.76
676.99	532.57
677.33	529.22
677.67	525.98
678.01	522.58
678.34	519.18
678.68	515.92
679.02	512.69
679.36	509.48
679.70	506.43
680.04	503.35
680.37	500.06
680.71	496.85
681.05	493.85
681.39	490.71
681.73	487.66
682.06	484.75
682.40	481.81
682.74	478.92
683.08	475.99
683.42	473.05
683.75	470.17
684.09	467.21
684.43	464.39
684.77	461.58
685.10	458.85
685.44	456.19
685.78	453.45
686.12	450.79
686.45	448.13
686.79	445.42
687.13	442.88
687.46	440.38
687.80	437.85
688.14	435.23
688.48	432.83
688.81	430.21
689.15	427.73
689.49	425.20
689.82	422.82
690.16	420.34
690.50	417.99
690.83	415.67
691.17	413.38
691.51	411.23
691.84	409.05
692.18	406.80
692.52	404.50
692.85	402.29
693.19	400.12
693.52	397.96
693.86	395.82
694.20	393.70
694.53	391.60
694.87	389.43
695.21	387.40
695.54	385.20
695.88	383.20
696.21	381.16
696.55	379.22
696.88	377.19
697.22	375.27
697.56	373.39
697.89	371.48
698.23	369.62
698.56	367.64
698.90	365.79
699.23	363.87
699.57	362.07
699.90	360.24
700.24	358.42
700.58	356.69
700.91	354.94
701.25	353.23
701.58	351.60
701.92	349.98
702.25	348.33
702.59	346.80
702.92	345.21
703.26	343.70
703.59	342.21
703.93	340.85
704.26	339.40
704.60	337.90
704.93	336.40
705.26	334.98
705.60	333.60
705.93	332.22
706.27	331.01
706.60	329.77
706.94	328.50
707.27	327.18
707.61	325.94
707.94	324.72
708.27	323.44
708.61	322.20
708.94	321.00
709.28	319.85
709.61	318.69
709.94	317.57
710.28	316.35
710.61	315.24
710.95	313.96
711.28	312.88
711.61	311.79
711.95	310.72
712.28	309.62
712.61	308.51
712.95	307.44
713.28	306.40
713.61	305.34
713.95	304.35
714.28	303.38
714.61	302.39
714.95	301.41
715.28	300.48
715.61	299.46
715.95	298.51
716.28	297.51
716.61	296.55
716.95	295.61
717.28	294.76
717.61	293.81
717.94	292.97
718.28	292.05
718.61	291.19
718.94	290.36
719.27	289.60
719.61	288.86
719.94	288.08
720.27	287.26
720.60	286.49
720.94	285.72
721.27	285.01
721.60	284.29
721.93	283.59
722.27	282.91
722.60	282.24
722.93	281.62
723.26	281.01
723.59	280.33
723.93	279.69
724.26	279.03
724.59	278.37
724.92	277.79
725.25	277.22
725.59	276.63
725.92	276.08
726.25	275.47
726.58	274.91
726.91	274.34
727.24	273.78
727.57	273.27
727.91	272.67
728.24	272.12
728.57	271.59
728.90	271.09
729.23	270.51
729.56	270.05
729.89	269.48
730.22	268.91
730.55	268.36
730.89	267.89
731.22	267.41
731.55	266.94
731.88	266.42
732.21	265.94
732.54	265.45
732.87	264.93
733.20	264.42
733.53	263.97
733.86	263.53
734.19	263.05
734.52	262.58
734.85	262.24
735.18	261.77
735.51	261.34
735.84	260.88
736.17	260.45
736.50	259.98
736.83	259.69
737.16	259.35
737.49	259.01
737.82	258.58
738.15	258.16
738.48	257.75
738.81	257.34
739.14	256.93
739.47	256.57
739.80	256.22
740.13	255.90
740.46	255.50
740.79	255.11
741.12	254.77
741.45	254.40
741.78	253.96
742.11	253.62
742.44	253.23
742.77	252.91
743.10	252.56
743.43	252.22
743.75	251.79
744.08	251.58
744.41	251.22
744.74	250.89
745.07	250.56
745.40	250.27
745.73	250.02
746.06	249.72
746.39	249.43
746.71	249.08
747.04	248.75
747.37	248.44
747.70	248.15
748.03	247.85
748.36	247.58
748.68	247.32
749.01	247.07
749.34	246.83
749.67	246.57
750.00	246.31
750.33	246.10
750.65	245.84
750.98	245.45
751.31	245.22
751.64	244.97
751.97	244.79
752.29	244.53
752.62	244.25
752.95	243.99
753.28	243.75
753.60	243.52
753.93	243.30
754.26	243.06
754.59	242.81
754.91	242.56
755.24	242.34
755.57	242.13
755.90	241.92
756.22	241.70
756.55	241.46
756.88	241.23
757.20	240.97
757.53	240.76
757.86	240.56
758.19	240.39
758.51	240.24
758.84	239.98
759.17	239.79
759.49	239.61
759.82	239.47
760.15	239.27
760.47	239.10
760.80	238.93
761.13	238.80
761.45	238.66
761.78	238.53
762.11	238.37
762.43	238.17
762.76	237.98
763.08	237.84
763.41	237.70
763.74	237.59
764.06	237.42
764.39	237.28
764.71	237.12
765.04	236.93
765.37	236.73
765.69	236.57
766.02	236.44
766.34	236.26
766.67	236.10
767.00	235.99
767.32	235.89
767.65	235.83
767.97	235.67
768.30	235.53
768.62	235.36
768.95	235.24
769.27	235.11
769.60	235.00
769.92	234.85
770.25	234.71
770.57	234.53
770.90	234.42
771.22	234.28
771.55	234.18
771.87	234.09
772.20	233.99
772.52	233.98
772.85	233.98
773.17	233.91
773.50	233.80
773.82	233.65
774.15	233.50
774.47	233.34
774.80	233.26
775.12	233.13
775.45	233.04
775.77	232.95
776.09	232.88
776.42	232.80
776.74	232.74
777.07	232.64
777.39	232.59
777.72	232.51
778.04	232.46
778.36	232.36
778.69	232.28
779.01	232.24
779.33	232.08
779.66	231.93
779.98	231.86
780.31	231.79
780.63	231.77
780.95	231.72
781.28	231.65
781.60	231.55
781.92	231.48
782.25	231.43
782.57	231.36
782.89	231.28
783.22	231.18
783.54	231.08
783.86	231.07
784.19	231.00
784.51	230.95
784.83	230.86
785.16	230.81
785.48	230.76
785.80	230.68
786.12	230.64
786.45	230.52
786.77	230.45
787.09	230.38
787.42	230.30
787.74	230.26
788.06	230.20
788.38	230.14
788.71	230.11
789.03	230.04
789.35	230.02
789.67	229.97
789.99	229.94
790.32	229.88
790.64	229.82
790.96	229.84
791.28	229.78
791.61	229.72
791.93	229.67
792.25	229.61
792.57	229.62
792.89	229.54
793.21	229.55
793.54	229.45
793.86	229.39
794.18	229.35
794.50	229.28
794.82	229.23
795.14	229.22
795.47	229.19
795.79	229.18
796.11	229.07
796.43	229.02
796.75	228.97
797.07	228.94
797.39	228.91
797.71	228.80
798.04	228.75
798.36	228.74
798.68	228.69
799.00	228.66
799.32	228.58
799.64	228.57
799.96	228.54
800.28	228.57
800.60	228.52
800.92	228.50
801.24	228.46
801.56	228.48
801.89	228.40
802.21	228.37
802.53	228.28
802.85	228.30
803.17	228.34
803.49	228.30
803.81	228.22
804.13	228.17
804.45	228.13
804.77	228.09
805.09	228.04
805.41	228.01
805.73	227.94
806.05	227.84
806.37	227.81
806.69	227.76
807.01	227.74
807.33	227.72
807.65	227.67
807.97	227.67
808.28	227.61
808.60	227.65
808.92	227.62
809.24	227.63
809.56	227.59
809.88	227.51
810.20	227.47
810.52	227.50
810.84	227.46
811.16	227.42
811.48	227.40
811.80	227.41
812.12	227.43
812.43	227.46
812.75	227.48
813.07	227.43
813.39	227.42
813.71	227.35
814.03	227.35
814.35	227.34
814.67	227.29
814.98	227.27
815.30	227.21
815.62	227.15
815.94	227.15
816.26	227.17
816.58	227.13
816.89	227.13
817.21	227.09
817.53	227.10
817.85	227.07
818.17	227.09
818.48	227.01
818.80	227.00
819.12	226.97
819.44	226.92
819.76	226.92
820.07	226.91
820.39	226.87
820.71	226.87
821.03	226.86
821.34	226.83
821.66	226.80
821.98	226.78
822.30	226.77
822.61	226.76
822.93	226.72
823.25	226.70
823.57	226.68
823.88	226.67
824.20	226.63
824.52	226.62
824.83	226.57
825.15	226.54
825.47	226.47
825.79	226.45
826.10	226.43
826.42	226.41
826.74	226.39
827.05	226.40
827.37	226.38
827.69	226.32
828.00	226.34
828.32	226.32
828.64	226.30
828.95	226.33
829.27	226.27
829.58	226.25
829.90	226.24
830.22	226.23
830.53	226.22
830.85	226.19
831.17	226.16
831.48	226.16
831.80	226.17
832.11	226.15
832.43	226.15
832.75	226.15
833.06	226.18
833.38	226.13
833.69	226.12
834.01	226.10
834.32	226.12
834.64	226.10
834.96	226.10
835.27	226.07
835.59	226.02
835.90	226.01
836.22	226.01
836.53	225.97
836.85	225.95
837.16	226.02
837.48	226.02
837.79	226.05
838.11	226.04
838.42	226.04
838.74	226.04
839.05	225.98
839.37	226.00
839.68	225.93
840.00	225.94
840.31	225.93
840.63	225.91
840.94	225.85
841.26	225.80
841.57	225.82
841.88	225.80
842.20	225.79
842.51	225.79
842.83	225.78
843.14	225.86
843.46	225.86
843.77	225.82
844.08	225.79
844.40	225.75
844.71	225.74
845.03	225.69
845.34	225.71
845.65	225.72
845.97	225.69
846.28	225.68
846.60	225.68
846.91	225.66
847.22	225.64
847.54	225.69
847.85	225.69
848.16	225.66
848.48	225.66
848.79	225.69
849.10	225.67
849.42	225.67
849.73	225.59
850.04	225.55
850.36	225.48
850.67	225.49
850.98	225.50
851.30	225.47
851.61	225.46
851.92	225.45
852.23	225.48
852.55	225.47
852.86	225.47
853.17	225.45
853.49	225.45
853.80	225.48
854.11	225.50
854.42	225.50
854.74	225.47
855.05	225.50
855.36	225.45
855.67	225.44
855.99	225.41
856.30	225.51
856.61	225.52
856.92	225.50
857.23	225.49
857.55	225.48
857.86	225.49
858.17	225.52
858.48	225.48
858.79	225.45
859.11	225.45
859.42	225.44
859.73	225.42
860.04	225.43
860.35	225.37
860.66	225.33
860.98	225.31
861.29	225.33
861.60	225.29
861.91	225.33
862.22	225.31
862.53	225.29
862.84	225.20
863.16	225.24
863.47	225.25
863.78	225.25
864.09	225.22
864.40	225.25
864.71	225.24
865.02	225.26
865.33	225.27
865.64	225.27
865.95	225.25
866.27	225.34
866.58	225.33
866.89	225.35
867.20	225.33
867.51	225.33
867.82	225.33
868.13	225.35
868.44	225.33
868.75	225.34
869.06	225.37
869.37	225.34
869.68	225.31
869.99	225.32
870.30	225.34
870.61	225.40
870.92	225.37
871.23	225.38
871.54	225.36
871.85	225.35
872.16	225.35
872.47	225.37
872.78	225.29
873.09	225.29
873.40	225.30
873.71	225.31
874.02	225.31
874.33	225.31
874.64	225.29
874.95	225.29
875.26	225.27
875.56	225.24
875.87	225.28
876.18	225.25
876.49	225.34
876.80	225.32
877.11	225.28
877.42	225.29
877.73	225.30
878.04	225.31
878.35	225.32
878.66	225.33
878.96	225.30
879.27	225.29
879.58	225.30
879.89	225.26
880.20	225.28
880.51	225.25
880.82	225.26
881.12	225.27
881.43	225.26
881.74	225.27
882.05	225.27
882.36	225.25
882.67	225.25
882.97	225.17
883.28	225.15
883.59	225.11
883.90	225.12
884.21	225.13
884.51	225.15
884.82	225.15
885.13	225.16
885.44	225.18
885.74	225.21
886.05	225.20
886.36	225.22
886.67	225.20
886.98	225.30
887.28	225.28
887.59	225.28
887.90	225.27
888.20	225.26
888.51	225.29
888.82	225.26
889.13	225.28
889.43	225.33
889.74	225.33
890.05	225.35
890.35	225.32
890.66	225.27
890.97	225.20
891.28	225.21
891.58	225.22
891.89	225.19
892.20	225.18
892.50	225.14
892.81	225.14
893.12	225.17
893.42	225.05
893.73	225.04
894.04	225.02
894.34	225.03
894.65	225.07
894.95	225.05
895.26	225.11
895.57	225.15
895.87	225.06
896.18	225.08
896.48	225.08
896.79	225.10
897.10	225.13
897.40	225.17
897.71	225.14
898.01	225.09
898.32	225.11
898.63	225.10
898.93	225.12
899.24	225.10
899.54	225.07
899.85	225.10
900.15	225.13
900.46	225.14
900.76	225.14
901.07	225.08
901.38	225.09
901.68	225.08
901.99	225.01
902.29	225.02
902.60	225.00
902.90	225.02
903.21	225.01
903.51	224.97
903.82	224.99
904.12	225.00
904.43	225.02
904.73	225.01
905.03	224.98
905.34	225.09
905.64	225.09
905.95	225.09
906.25	225.09
906.56	225.06
906.86	225.09
907.17	225.10
907.47	225.15
907.77	225.13
908.08	225.10
908.38	225.11
908.69	225.12
908.99	225.16
909.30	225.15
909.60	225.16
909.90	225.18
910.21	225.15
910.51	225.13
910.81	225.13
911.12	225.15
911.42	225.16
911.73	225.04
912.03	225.09
912.33	225.13
912.64	225.14
912.94	225.15
913.24	225.10
913.55	225.08
913.85	225.06
914.15	225.08
914.46	225.09
914.76	225.12
915.06	225.12
915.37	225.09
915.67	225.09
915.97	225.10
916.27	225.08
916.58	225.09
916.88	225.08
917.18	225.08
917.49	225.13
917.79	225.13
918.09	225.15
918.39	225.13
918.70	225.10
919.00	225.08
919.30	225.12
919.60	225.16
919.91	225.14
920.21	225.12
920.51	225.13
920.81	225.09
921.12	225.07
921.42	225.05
921.72	225.06
922.02	225.03
922.32	225.04
922.63	225.06
922.93	225.11
923.23	225.11
923.53	225.12
923.83	225.03
924.13	225.07
924.44	225.09
924.74	225.11
925.04	225.15
925.34	225.16
925.64	225.10
925.94	225.05
926.24	225.08
926.55	225.09
926.85	225.07
927.15	225.08
927.45	225.08
927.75	225.08
928.05	225.07
928.35	225.12
928.65	225.08
928.95	225.06
929.26	225.02
929.56	224.99
929.86	224.98
930.16	225.00
930.46	224.95
930.76	224.93
931.06	224.87
931.36	224.81
931.66	224.83
931.96	224.84
932.26	224.85
932.56	224.84
932.86	224.80
933.16	224.82
933.46	224.81
933.76	224.80
934.06	224.81
934.36	224.88
934.66	224.83
934.96	224.84
935.26	224.85
935.56	224.85
935.86	224.86
936.16	224.87
936.46	224.86
936.76	224.87
937.06	224.86
937.36	224.90
937.66	224.88
937.96	224.85
938.26	224.85
938.56	224.85
938.86	224.84
939.16	224.84
939.46	224.83
939.76	224.85
940.06	224.83
940.35	224.85
940.65	224.76
940.95	224.77
941.25	224.74
941.55	224.71
941.85	224.73
942.15	224.75
942.45	224.76
942.75	224.73
943.04	224.72
943.34	224.76
943.64	224.73
943.94	224.73
944.24	224.75
944.54	224.73
944.84	224.76
945.13	224.76
945.43	224.78
945.73	224.79
946.03	224.80
946.33	224.81
946.62	224.78
946.92	224.79
947.22	224.80
947.52	224.83
947.82	224.85
948.11	224.82
948.41	224.80
948.71	224.82
949.01	224.83
949.31	224.83
949.60	224.80
949.90	224.82
950.20	224.83
950.50	224.84
950.79	224.83
951.09	224.82
951.39	224.82
951.69	224.82
951.98	224.82
952.28	224.81
952.58	224.80
952.87	224.82
953.17	224.80
953.47	224.77
953.76	224.81
954.06	224.81
954.36	224.79
954.66	224.81
954.95	224.82
955.25	224.82
955.55	224.86
955.84	224.85
956.14	224.87
956.44	224.86
956.73	224.84
957.03	224.88
957.32	224.86
957.62	224.85
957.92	224.87
958.21	224.89
958.51	224.97
958.81	225.00
959.10	225.00
959.40	225.06
959.69	225.08
959.99	225.06
960.29	225.07
960.58	225.06
960.88	225.07
961.17	225.08
961.47	225.10
961.76	225.06
962.06	225.06
962.36	225.01
962.65	225.01
962.95	224.98
963.24	224.96
963.54	225.00
963.83	225.01
964.13	224.99
964.42	224.94
964.72	224.86
965.01	224.84
965.31	224.83
965.60	224.78
965.90	224.83
966.19	224.77
966.49	224.78
966.78	224.78
967.08	224.76
967.37	224.76
967.67	224.72
967.96	224.77
968.26	224.78
968.55	224.79
968.85	224.81
969.14	224.81
969.43	224.83
969.73	224.77
970.02	224.78
970.32	224.76
970.61	224.76
970.91	224.75
971.20	224.74
971.49	224.77
971.79	224.79
972.08	224.74
972.38	224.77
972.67	224.75
972.96	224.77
973.26	224.74
973.55	224.74
973.85	224.75
974.14	224.71
974.43	224.71
974.73	224.69
975.02	224.68
975.31	224.68
975.61	224.62
975.90	224.63
976.19	224.59
976.49	224.61
976.78	224.63
977.07	224.61
977.37	224.62
977.66	224.59
977.95	224.57
978.24	224.56
978.54	224.57
978.83	224.56
979.12	224.56
979.42	224.58
979.71	224.57
980.00	224.56
980.29	224.58
980.59	224.56
980.88	224.62
981.17	224.61
981.46	224.65
981.76	224.68
982.05	224.72
982.34	224.76
982.63	224.77
982.93	224.77
983.22	224.82
983.51	224.84
983.80	224.87
984.09	224.89
984.39	224.89
984.68	224.88
984.97	224.88
985.26	224.84
985.55	224.86
985.85	224.84
986.14	224.84
986.43	224.87
986.72	224.88
987.01	224.87
987.30	224.88
987.59	224.84
987.89	224.83
988.18	224.78
988.47	224.75
988.76	224.72
989.05	224.70
989.34	224.69
989.63	224.71
989.92	224.74
990.22	224.70
990.51	224.72
990.80	224.73
991.09	224.74
991.38	224.78
991.67	224.75
991.96	224.76
992.25	224.77
992.54	224.72
992.83	224.70
993.12	224.65
993.41	224.66
993.70	224.72
993.99	224.77
994.28	224.81
994.58	224.85
994.87	224.84
995.16	224.85
995.45	224.84
995.74	224.78
996.03	224.75
996.32	224.74
996.61	224.76
996.90	224.77
997.19	224.78
997.48	224.78
997.77	224.78
998.06	224.76
998.34	224.75
998.63	224.75
998.92	224.75
999.21	224.80
999.50	224.81
999.79	224.79
1000.08	224.76
1000.37	224.72
1000.66	224.71
1000.95	224.73
1001.24	224.76
1001.53	224.76
1001.82	224.78
1002.11	224.77
1002.40	224.80
1002.68	224.80
1002.97	224.84
1003.26	224.82
1003.55	224.80
1003.84	224.81
1004.13	224.88
1004.42	224.87
1004.71	224.89
1004.99	224.86
1005.28	224.83
1005.57	224.84
1005.86	224.81
1006.15	224.83
1006.44	224.80
1006.72	224.80
1007.01	224.80
1007.30	224.76
1007.59	224.73
1007.88	224.71
1008.17	224.72
1008.45	224.71
1008.74	224.64
1009.03	224.60
1009.32	224.57
1009.60	224.59
1009.89	224.57
1010.18	224.54
1010.47	224.56
1010.76	224.53
1011.04	224.57
1011.33	224.57
1011.62	224.56
1011.91	224.57
1012.19	224.53
1012.48	224.55
1012.77	224.54
1013.05	224.58
1013.34	224.57
1013.63	224.57
1013.92	224.59
1014.20	224.56
1014.49	224.58
1014.78	224.61
1015.06	224.61
1015.35	224.65
1015.64	224.68
1015.92	224.68
1016.21	224.64
1016.50	224.64
1016.78	224.66
1017.07	224.67
1017.36	224.67
1017.64	224.65
1017.93	224.65
1018.22	224.67
1018.50	224.67
1018.79	224.63
1019.08	224.60
1019.36	224.62
1019.65	224.62
1019.93	224.64
1020.22	224.63
1020.51	224.65
1020.79	224.64
1021.08	224.64
1021.36	224.00
1021.65	223.85
1021.94	225.00
1022.22	224.73
1022.51	224.54
1022.79	224.89
1023.08	224.36
1023.36	225.42
1023.65	224.14
>>>>>End Processed Spectral Data<<<<<
