SpectraSuite Data File
++++++++++++++++++++++++++++++++++++
Date: Fri Feb 01 15:27:58 EST 2013
User: group
Dark Spectrum Present: No
Reference Spectrum Present: No
Number of Sampled Component Spectra: 1
Spectrometers: USB2E7196
Integration Time (usec): 35000 (USB2E7196)
Spectra Averaged: 100 (USB2E7196)
Boxcar Smoothing: 10 (USB2E7196)
Correct for Electrical Dark: No (USB2E7196)
Strobe/Lamp Enabled: No (USB2E7196)
Correct for Detector Non-linearity: No (USB2E7196)
Correct for Stray Light: No (USB2E7196)
Number of Pixels in Processed Spectrum: 2048
>>>>>Begin Processed Spectral Data<<<<<
339.09	0.00
339.48	215.02
339.86	216.53
340.24	217.96
340.63	219.75
341.01	222.22
341.39	222.16
341.78	223.26
342.16	225.04
342.54	224.89
342.93	213.44
343.31	224.22
343.69	224.77
344.07	225.25
344.46	225.70
344.84	226.10
345.22	226.33
345.60	226.57
345.99	226.75
346.37	226.90
346.75	227.00
347.13	227.11
347.52	227.12
347.90	227.19
348.28	227.22
348.66	227.22
349.05	227.23
349.43	227.22
349.81	227.24
350.19	227.29
350.57	227.31
350.96	227.37
351.34	227.45
351.72	227.52
352.10	227.62
352.48	227.66
352.87	227.66
353.25	227.72
353.63	227.81
354.01	227.86
354.39	227.91
354.77	228.00
355.15	228.06
355.54	228.15
355.92	228.19
356.30	228.25
356.68	228.39
357.06	228.47
357.44	228.53
357.82	228.61
358.20	228.63
358.58	228.69
358.97	228.78
359.35	228.84
359.73	228.92
360.11	228.95
360.49	228.98
360.87	229.03
361.25	229.06
361.63	229.07
362.01	229.11
362.39	229.14
362.77	229.13
363.15	229.16
363.53	229.20
363.91	229.25
364.29	229.30
364.67	229.23
365.05	229.24
365.43	229.26
365.81	229.26
366.19	229.32
366.57	229.34
366.95	229.32
367.33	229.29
367.71	229.26
368.09	229.26
368.47	229.24
368.85	229.23
369.23	229.26
369.61	229.24
369.99	229.25
370.37	229.20
370.75	229.24
371.13	229.18
371.51	229.08
371.89	229.03
372.27	228.96
372.65	228.87
373.03	228.79
373.41	228.73
373.78	228.66
374.16	228.56
374.54	228.46
374.92	228.39
375.30	228.34
375.68	228.28
376.06	228.26
376.44	228.17
376.82	228.10
377.19	228.00
377.57	227.94
377.95	227.82
378.33	227.73
378.71	227.58
379.09	227.51
379.47	227.49
379.84	227.40
380.22	227.32
380.60	227.24
380.98	227.19
381.36	227.14
381.73	227.08
382.11	227.05
382.49	227.00
382.87	226.94
383.25	226.85
383.62	226.90
384.00	226.77
384.38	226.70
384.76	226.70
385.13	226.67
385.51	226.60
385.89	226.54
386.27	226.54
386.64	226.53
387.02	226.50
387.40	226.47
387.78	226.48
388.15	226.44
388.53	226.44
388.91	226.44
389.29	226.41
389.66	226.45
390.04	226.41
390.42	226.40
390.79	226.38
391.17	226.38
391.55	226.24
391.92	226.27
392.30	226.30
392.68	226.29
393.05	226.33
393.43	226.33
393.81	226.36
394.18	226.35
394.56	226.36
394.94	226.41
395.31	226.38
395.69	226.41
396.06	226.46
396.44	226.51
396.82	226.52
397.19	226.59
397.57	226.59
397.95	226.66
398.32	226.70
398.70	226.75
399.07	226.83
399.45	226.90
399.82	226.97
400.20	227.01
400.58	227.08
400.95	227.08
401.33	227.21
401.70	227.36
402.08	227.47
402.45	227.56
402.83	227.66
403.20	227.80
403.58	227.89
403.95	228.05
404.33	228.15
404.71	228.26
405.08	228.46
405.46	228.62
405.83	228.77
406.21	228.95
406.58	229.13
406.96	229.31
407.33	229.51
407.70	229.69
408.08	229.99
408.45	230.20
408.83	230.45
409.20	230.62
409.58	230.79
409.95	231.03
410.33	231.29
410.70	231.54
411.08	231.83
411.45	232.13
411.82	232.41
412.20	232.79
412.57	233.23
412.95	233.53
413.32	233.93
413.69	234.31
414.07	234.76
414.44	235.21
414.82	235.67
415.19	236.25
415.56	236.76
415.94	237.27
416.31	237.91
416.68	238.56
417.06	239.29
417.43	239.95
417.81	240.74
418.18	241.51
418.55	242.34
418.93	243.21
419.30	244.09
419.67	245.03
420.04	245.99
420.42	246.95
420.79	248.13
421.16	249.27
421.54	250.47
421.91	251.63
422.28	252.88
422.66	254.20
423.03	255.45
423.40	256.79
423.77	258.22
424.15	259.64
424.52	261.13
424.89	262.76
425.26	264.36
425.64	265.81
426.01	267.42
426.38	269.08
426.75	270.76
427.13	272.51
427.50	274.31
427.87	276.18
428.24	278.05
428.61	279.80
428.99	281.74
429.36	283.86
429.73	285.97
430.10	288.01
430.47	290.06
430.85	292.24
431.22	294.50
431.59	296.88
431.96	299.11
432.33	301.60
432.70	303.94
433.08	306.73
433.45	309.40
433.82	312.02
434.19	314.94
434.56	317.78
434.93	320.44
435.30	323.09
435.68	326.03
436.05	328.86
436.42	331.69
436.79	334.22
437.16	336.90
437.53	339.72
437.90	342.54
438.27	345.35
438.64	348.15
439.01	350.77
439.38	353.02
439.75	355.18
440.13	357.66
440.50	360.02
440.87	361.90
441.24	363.80
441.61	365.95
441.98	367.44
442.35	369.22
442.72	371.11
443.09	372.88
443.46	373.84
443.83	374.45
444.20	374.88
444.57	375.74
444.94	376.06
445.31	376.41
445.68	376.77
446.05	376.78
446.42	376.41
446.79	375.96
447.16	375.52
447.53	375.23
447.90	374.09
448.27	372.88
448.64	371.34
449.01	370.25
449.37	368.32
449.74	366.42
450.11	364.18
450.48	361.65
450.85	359.15
451.22	357.00
451.59	354.99
451.96	353.10
452.33	350.48
452.70	348.09
453.07	345.27
453.43	342.35
453.80	339.58
454.17	336.91
454.54	334.38
454.91	331.62
455.28	328.94
455.65	326.45
456.02	324.02
456.38	321.83
456.75	319.17
457.12	316.92
457.49	314.68
457.86	312.52
458.23	310.66
458.59	308.62
458.96	306.48
459.33	304.63
459.70	302.75
460.07	301.23
460.43	299.56
460.80	297.94
461.17	296.51
461.54	295.04
461.91	293.61
462.27	292.15
462.64	290.96
463.01	289.59
463.38	288.28
463.74	286.94
464.11	285.74
464.48	284.68
464.85	283.56
465.21	282.68
465.58	281.71
465.95	280.63
466.32	279.72
466.68	278.85
467.05	277.92
467.42	277.00
467.78	276.06
468.15	275.12
468.52	274.43
468.88	273.55
469.25	272.78
469.62	272.11
469.98	271.41
470.35	270.74
470.72	270.10
471.08	269.43
471.45	268.86
471.82	268.32
472.18	267.71
472.55	267.26
472.92	266.69
473.28	266.25
473.65	265.81
474.02	265.35
474.38	264.95
474.75	264.63
475.11	264.27
475.48	263.98
475.85	263.78
476.21	263.54
476.58	263.34
476.94	263.18
477.31	263.06
477.67	262.91
478.04	262.80
478.41	262.78
478.77	262.82
479.14	262.76
479.50	262.76
479.87	262.85
480.23	262.87
480.60	263.00
480.96	263.07
481.33	263.27
481.69	263.46
482.06	263.68
482.42	263.86
482.79	264.12
483.15	264.45
483.52	264.83
483.88	265.18
484.25	265.57
484.61	266.00
484.98	266.43
485.34	267.01
485.71	267.60
486.07	268.18
486.44	268.72
486.80	269.42
487.17	270.17
487.53	270.95
487.90	271.82
488.26	272.74
488.62	273.81
488.99	274.79
489.35	275.84
489.72	276.98
490.08	278.21
490.44	279.46
490.81	280.78
491.17	282.13
491.54	283.65
491.90	285.22
492.26	286.85
492.63	288.56
492.99	290.34
493.36	292.22
493.72	294.30
494.08	296.49
494.45	298.78
494.81	301.16
495.17	303.62
495.54	306.21
495.90	308.88
496.26	311.62
496.63	314.62
496.99	317.73
497.35	320.95
497.72	324.36
498.08	327.90
498.44	331.62
498.80	335.54
499.17	339.59
499.53	343.77
499.89	348.16
500.26	352.67
500.62	357.36
500.98	362.31
501.34	367.36
501.71	372.67
502.07	378.10
502.43	383.65
502.79	389.53
503.16	395.63
503.52	401.97
503.88	408.33
504.24	414.97
504.60	421.88
504.97	429.02
505.33	436.28
505.69	443.98
506.05	451.78
506.41	459.69
506.78	467.79
507.14	476.26
507.50	485.03
507.86	494.09
508.22	503.25
508.59	512.50
508.95	522.11
509.31	531.96
509.67	542.05
510.03	552.38
510.39	562.94
510.75	573.77
511.12	584.65
511.48	596.00
511.84	607.49
512.20	618.97
512.56	630.93
512.92	643.14
513.28	655.46
513.64	667.95
514.00	680.60
514.37	693.52
514.73	706.54
515.09	719.60
515.45	732.88
515.81	746.49
516.17	760.46
516.53	774.56
516.89	788.63
517.25	802.83
517.61	817.24
517.97	831.65
518.33	846.04
518.69	860.85
519.05	875.90
519.41	891.06
519.77	906.71
520.13	922.13
520.49	937.60
520.85	953.04
521.21	968.81
521.57	985.16
521.93	1000.97
522.29	1017.40
522.65	1033.63
523.01	1049.90
523.37	1065.98
523.73	1082.18
524.09	1098.36
524.45	1114.83
524.81	1131.51
525.17	1148.42
525.53	1165.44
525.89	1182.36
526.25	1199.12
526.61	1215.54
526.97	1232.34
527.33	1248.86
527.68	1265.55
528.04	1282.06
528.40	1298.67
528.76	1315.84
529.12	1332.38
529.48	1349.43
529.84	1365.59
530.20	1382.36
530.56	1399.37
530.91	1416.87
531.27	1433.74
531.63	1450.20
531.99	1466.81
532.35	1482.80
532.71	1498.75
533.07	1514.98
533.42	1530.98
533.78	1547.16
534.14	1563.50
534.50	1578.99
534.86	1594.89
535.21	1610.14
535.57	1626.19
535.93	1641.84
536.29	1656.62
536.65	1671.83
537.00	1686.71
537.36	1702.06
537.72	1716.63
538.08	1731.13
538.44	1744.97
538.79	1758.97
539.15	1772.82
539.51	1786.65
539.87	1801.10
540.22	1814.99
540.58	1828.94
540.94	1842.37
541.29	1855.32
541.65	1868.13
542.01	1881.31
542.37	1893.57
542.72	1906.12
543.08	1917.82
543.44	1930.23
543.79	1941.53
544.15	1952.45
544.51	1964.01
544.87	1975.07
545.22	1985.93
545.58	1996.28
545.94	2006.11
546.29	2015.90
546.65	2025.74
547.01	2034.92
547.36	2043.72
547.72	2052.04
548.07	2059.83
548.43	2068.05
548.79	2076.15
549.14	2083.68
549.50	2091.18
549.86	2098.92
550.21	2106.22
550.57	2113.57
550.92	2120.28
551.28	2127.44
551.64	2134.63
551.99	2141.14
552.35	2147.13
552.70	2153.21
553.06	2159.23
553.41	2165.48
553.77	2171.57
554.13	2177.65
554.48	2183.87
554.84	2189.35
555.19	2194.82
555.55	2199.99
555.90	2204.39
556.26	2209.25
556.61	2213.97
556.97	2218.02
557.32	2222.26
557.68	2226.40
558.03	2230.64
558.39	2234.33
558.74	2238.81
559.10	2242.55
559.45	2246.15
559.81	2250.56
560.16	2254.30
560.52	2257.51
560.87	2261.06
561.23	2263.69
561.58	2266.62
561.94	2269.07
562.29	2271.50
562.64	2274.12
563.00	2276.67
563.35	2280.22
563.71	2283.34
564.06	2286.48
564.42	2289.31
564.77	2291.78
565.12	2293.89
565.48	2295.63
565.83	2297.42
566.19	2298.66
566.54	2299.72
566.89	2300.94
567.25	2301.44
567.60	2302.80
567.96	2304.30
568.31	2305.10
568.66	2306.13
569.02	2306.67
569.37	2306.95
569.72	2307.55
570.08	2307.59
570.43	2307.59
570.78	2306.88
571.14	2305.33
571.49	2304.04
571.84	2303.76
572.20	2302.47
572.55	2301.48
572.90	2299.96
573.26	2298.43
573.61	2296.87
573.96	2295.07
574.31	2291.91
574.67	2288.90
575.02	2285.23
575.37	2281.75
575.72	2277.79
576.08	2274.45
576.43	2271.14
576.78	2267.41
577.13	2264.22
577.49	2261.13
577.84	2257.71
578.19	2253.97
578.54	2250.12
578.90	2245.85
579.25	2240.26
579.60	2235.34
579.95	2230.36
580.30	2225.37
580.66	2220.14
581.01	2215.07
581.36	2210.01
581.71	2205.81
582.06	2201.28
582.42	2196.77
582.77	2191.61
583.12	2186.97
583.47	2182.18
583.82	2176.91
584.17	2171.47
584.53	2165.90
584.88	2160.10
585.23	2154.20
585.58	2148.67
585.93	2143.17
586.28	2138.28
586.63	2133.06
586.98	2127.86
587.34	2123.02
587.69	2118.10
588.04	2112.71
588.39	2106.95
588.74	2100.53
589.09	2094.33
589.44	2087.42
589.79	2081.45
590.14	2075.73
590.49	2069.17
590.84	2062.85
591.19	2056.78
591.54	2050.56
591.89	2043.13
592.25	2036.42
592.60	2029.03
592.95	2021.28
593.30	2014.03
593.65	2006.35
594.00	1999.33
594.35	1992.12
594.70	1984.01
595.05	1976.57
595.40	1969.34
595.75	1961.79
596.10	1955.37
596.45	1948.52
596.80	1942.37
597.15	1935.48
597.50	1928.36
597.85	1921.88
598.19	1915.01
598.54	1907.88
598.89	1901.11
599.24	1895.14
599.59	1888.27
599.94	1882.00
600.29	1875.72
600.64	1869.07
600.99	1861.41
601.34	1854.46
601.69	1847.40
602.04	1840.39
602.39	1833.14
602.74	1826.19
603.08	1819.57
603.43	1812.79
603.78	1805.45
604.13	1798.21
604.48	1790.88
604.83	1783.95
605.18	1776.73
605.53	1768.62
605.87	1760.53
606.22	1753.23
606.57	1745.31
606.92	1738.00
607.27	1730.87
607.62	1723.87
607.96	1716.54
608.31	1709.95
608.66	1702.34
609.01	1694.80
609.36	1687.31
609.70	1679.14
610.05	1671.01
610.40	1663.08
610.75	1654.74
611.10	1647.00
611.44	1638.57
611.79	1630.63
612.14	1621.88
612.49	1612.94
612.83	1604.58
613.18	1596.48
613.53	1588.35
613.88	1579.74
614.22	1571.44
614.57	1562.79
614.92	1554.75
615.27	1547.02
615.61	1538.73
615.96	1530.72
616.31	1523.03
616.65	1515.59
617.00	1508.11
617.35	1500.48
617.70	1492.06
618.04	1483.58
618.39	1475.33
618.74	1467.77
619.08	1459.42
619.43	1451.91
619.78	1444.94
620.12	1437.79
620.47	1430.22
620.82	1422.07
621.16	1414.66
621.51	1407.10
621.85	1399.47
622.20	1390.95
622.55	1382.70
622.89	1374.94
623.24	1367.33
623.59	1359.97
623.93	1352.45
624.28	1345.12
624.62	1337.64
624.97	1330.46
625.32	1323.73
625.66	1316.74
626.01	1309.36
626.35	1301.97
626.70	1294.21
627.04	1286.35
627.39	1278.57
627.73	1271.23
628.08	1264.24
628.43	1256.82
628.77	1249.30
629.12	1241.65
629.46	1234.42
629.81	1227.05
630.15	1219.69
630.50	1212.28
630.84	1204.12
631.19	1196.27
631.53	1188.85
631.88	1181.32
632.22	1173.77
632.57	1166.45
632.91	1158.93
633.26	1151.69
633.60	1144.28
633.95	1137.20
634.29	1130.32
634.64	1123.65
634.98	1116.28
635.32	1109.21
635.67	1102.82
636.01	1096.24
636.36	1089.58
636.70	1083.13
637.05	1076.53
637.39	1070.13
637.73	1063.60
638.08	1057.71
638.42	1051.66
638.77	1045.19
639.11	1038.50
639.45	1032.17
639.80	1025.49
640.14	1019.05
640.49	1012.45
640.83	1006.16
641.17	999.86
641.52	993.53
641.86	987.20
642.20	981.38
642.55	975.14
642.89	968.55
643.23	961.99
643.58	956.22
643.92	949.94
644.26	943.88
644.61	937.94
644.95	931.88
645.29	925.27
645.64	918.55
645.98	912.21
646.32	906.42
646.66	900.40
647.01	894.57
647.35	888.87
647.69	883.07
648.04	877.51
648.38	871.74
648.72	865.70
649.06	859.58
649.41	853.72
649.75	847.65
650.09	841.68
650.43	835.93
650.78	829.70
651.12	823.76
651.46	817.98
651.80	812.10
652.14	806.73
652.49	801.32
652.83	796.15
653.17	790.44
653.51	784.70
653.85	779.24
654.20	773.60
654.54	767.65
654.88	761.93
655.22	756.07
655.56	750.36
655.90	744.93
656.25	739.63
656.59	734.22
656.93	729.15
657.27	724.02
657.61	718.49
657.95	713.48
658.29	708.39
658.64	703.18
658.98	697.95
659.32	692.46
659.66	687.23
660.00	681.89
660.34	676.95
660.68	672.02
661.02	666.98
661.36	662.28
661.70	657.85
662.05	653.47
662.39	649.20
662.73	644.79
663.07	640.42
663.41	635.97
663.75	631.46
664.09	626.93
664.43	622.58
664.77	618.57
665.11	614.28
665.45	610.16
665.79	606.08
666.13	601.93
666.47	597.89
666.81	593.78
667.15	589.71
667.49	585.89
667.83	582.14
668.17	578.22
668.51	574.17
668.85	570.09
669.19	566.26
669.53	562.33
669.87	558.40
670.21	554.65
670.55	551.02
670.89	547.68
671.23	544.25
671.57	540.73
671.91	537.19
672.25	533.72
672.58	530.22
672.92	526.81
673.26	523.71
673.60	520.60
673.94	517.54
674.28	514.62
674.62	511.61
674.96	508.54
675.30	505.66
675.64	502.77
675.97	500.01
676.31	497.11
676.65	494.26
676.99	491.56
677.33	488.74
677.67	485.94
678.01	482.89
678.34	479.86
678.68	477.00
679.02	474.20
679.36	471.40
679.70	468.72
680.04	465.96
680.37	463.06
680.71	460.27
681.05	457.61
681.39	454.92
681.73	452.26
682.06	449.70
682.40	447.15
682.74	444.56
683.08	442.00
683.42	439.42
683.75	436.93
684.09	434.37
684.43	431.89
684.77	429.41
685.10	427.07
685.44	424.80
685.78	422.52
686.12	420.26
686.45	417.98
686.79	415.70
687.13	413.50
687.46	411.35
687.80	409.21
688.14	407.01
688.48	404.96
688.81	402.75
689.15	400.61
689.49	398.48
689.82	396.45
690.16	394.39
690.50	392.40
690.83	390.42
691.17	388.47
691.51	386.58
691.84	384.76
692.18	382.79
692.52	380.85
692.85	378.91
693.19	377.04
693.52	375.24
693.86	373.43
694.20	371.63
694.53	369.79
694.87	367.90
695.21	366.15
695.54	364.31
695.88	362.60
696.21	360.84
696.55	359.18
696.88	357.48
697.22	355.85
697.56	354.22
697.89	352.54
698.23	350.94
698.56	349.34
698.90	347.73
699.23	346.10
699.57	344.52
699.90	343.01
700.24	341.45
700.58	339.91
700.91	338.38
701.25	336.96
701.58	335.62
701.92	334.27
702.25	332.81
702.59	331.44
702.92	330.10
703.26	328.82
703.59	327.55
703.93	326.39
704.26	325.15
704.60	323.91
704.93	322.65
705.26	321.37
705.60	320.19
705.93	319.06
706.27	318.07
706.60	317.02
706.94	315.93
707.27	314.83
707.61	313.76
707.94	312.74
708.27	311.63
708.61	310.55
708.94	309.54
709.28	308.58
709.61	307.67
709.94	306.73
710.28	305.71
710.61	304.72
710.95	303.63
711.28	302.70
711.61	301.73
711.95	300.81
712.28	299.86
712.61	298.88
712.95	297.91
713.28	297.05
713.61	296.14
713.95	295.30
714.28	294.48
714.61	293.67
714.95	292.87
715.28	292.04
715.61	291.18
715.95	290.33
716.28	289.50
716.61	288.63
716.95	287.80
717.28	287.04
717.61	286.26
717.94	285.53
718.28	284.73
718.61	284.03
718.94	283.41
719.27	282.82
719.61	282.21
719.94	281.58
720.27	280.81
720.60	280.18
720.94	279.54
721.27	278.92
721.60	278.33
721.93	277.71
722.27	277.19
722.60	276.66
722.93	276.09
723.26	275.56
723.59	274.99
723.93	274.46
724.26	273.95
724.59	273.45
724.92	272.92
725.25	272.43
725.59	271.90
725.92	271.34
726.25	270.79
726.58	270.26
726.91	269.78
727.24	269.32
727.57	268.86
727.91	268.36
728.24	267.90
728.57	267.38
728.90	266.93
729.23	266.39
729.56	265.94
729.89	265.48
730.22	264.99
730.55	264.55
730.89	264.15
731.22	263.68
731.55	263.20
731.88	262.79
732.21	262.34
732.54	261.88
732.87	261.47
733.20	261.09
733.53	260.73
733.86	260.31
734.19	259.90
734.52	259.51
734.85	259.16
735.18	258.74
735.51	258.38
735.84	258.01
736.17	257.68
736.50	257.25
736.83	257.00
737.16	256.66
737.49	256.29
737.82	255.90
738.15	255.55
738.48	255.22
738.81	254.88
739.14	254.54
739.47	254.27
739.80	253.94
740.13	253.65
740.46	253.30
740.79	252.95
741.12	252.63
741.45	252.29
741.78	251.94
742.11	251.68
742.44	251.34
742.77	251.03
743.10	250.77
743.43	250.45
743.75	250.06
744.08	249.89
744.41	249.63
744.74	249.38
745.07	249.10
745.40	248.84
745.73	248.58
746.06	248.33
746.39	248.05
746.71	247.80
747.04	247.50
747.37	247.28
747.70	247.09
748.03	246.85
748.36	246.65
748.68	246.41
749.01	246.14
749.34	245.92
749.67	245.68
750.00	245.44
750.33	245.33
750.65	245.13
750.98	244.80
751.31	244.58
751.64	244.36
751.97	244.20
752.29	244.01
752.62	243.76
752.95	243.54
753.28	243.34
753.60	243.14
753.93	243.02
754.26	242.78
754.59	242.56
754.91	242.37
755.24	242.17
755.57	242.03
755.90	241.89
756.22	241.71
756.55	241.53
756.88	241.34
757.20	241.10
757.53	240.89
757.86	240.74
758.19	240.59
758.51	240.40
758.84	240.20
759.17	240.04
759.49	239.93
759.82	239.80
760.15	239.65
760.47	239.51
760.80	239.33
761.13	239.22
761.45	239.07
761.78	238.92
762.11	238.77
762.43	238.62
762.76	238.50
763.08	238.39
763.41	238.29
763.74	238.13
764.06	238.00
764.39	237.89
764.71	237.73
765.04	237.63
765.37	237.52
765.69	237.39
766.02	237.23
766.34	237.10
766.67	236.96
767.00	236.89
767.32	236.79
767.65	236.70
767.97	236.59
768.30	236.45
768.62	236.33
768.95	236.22
769.27	236.11
769.60	235.98
769.92	235.87
770.25	235.71
770.57	235.62
770.90	235.54
771.22	235.45
771.55	235.37
771.87	235.24
772.20	235.12
772.52	235.13
772.85	235.17
773.17	235.05
773.50	234.98
773.82	234.83
774.15	234.68
774.47	234.53
774.80	234.39
775.12	234.31
775.45	234.23
775.77	234.10
776.09	234.01
776.42	233.92
776.74	233.85
777.07	233.81
777.39	233.72
777.72	233.61
778.04	233.55
778.36	233.46
778.69	233.40
779.01	233.35
779.33	233.16
779.66	232.99
779.98	232.92
780.31	232.83
780.63	232.81
780.95	232.77
781.28	232.74
781.60	232.69
781.92	232.63
782.25	232.55
782.57	232.54
782.89	232.47
783.22	232.39
783.54	232.33
783.86	232.24
784.19	232.16
784.51	232.10
784.83	232.02
785.16	231.94
785.48	231.88
785.80	231.84
786.12	231.81
786.45	231.76
786.77	231.71
787.09	231.66
787.42	231.57
787.74	231.56
788.06	231.50
788.38	231.45
788.71	231.39
789.03	231.37
789.35	231.34
789.67	231.30
789.99	231.24
790.32	231.17
790.64	231.16
790.96	231.21
791.28	231.15
791.61	231.10
791.93	231.10
792.25	231.06
792.57	231.06
792.89	230.98
793.21	230.97
793.54	230.95
793.86	230.90
794.18	230.89
794.50	230.81
794.82	230.74
795.14	230.75
795.47	230.77
795.79	230.73
796.11	230.68
796.43	230.62
796.75	230.62
797.07	230.61
797.39	230.58
797.71	230.48
798.04	230.46
798.36	230.44
798.68	230.41
799.00	230.38
799.32	230.33
799.64	230.34
799.96	230.29
800.28	230.29
800.60	230.26
800.92	230.23
801.24	230.22
801.56	230.25
801.89	230.21
802.21	230.17
802.53	230.12
802.85	230.10
803.17	230.12
803.49	230.07
803.81	230.03
804.13	229.99
804.45	229.95
804.77	229.92
805.09	229.90
805.41	229.83
805.73	229.79
806.05	229.70
806.37	229.66
806.69	229.64
807.01	229.58
807.33	229.57
807.65	229.50
807.97	229.52
808.28	229.44
808.60	229.40
808.92	229.37
809.24	229.40
809.56	229.34
809.88	229.32
810.20	229.30
810.52	229.27
810.84	229.26
811.16	229.21
811.48	229.18
811.80	229.18
812.12	229.16
812.43	229.13
812.75	229.13
813.07	229.12
813.39	229.10
813.71	229.04
814.03	229.00
814.35	229.01
814.67	228.94
814.98	228.92
815.30	228.87
815.62	228.82
815.94	228.73
816.26	228.73
816.58	228.66
816.89	228.64
817.21	228.60
817.53	228.55
817.85	228.57
818.17	228.56
818.48	228.50
818.80	228.48
819.12	228.46
819.44	228.44
819.76	228.40
820.07	228.37
820.39	228.34
820.71	228.35
821.03	228.32
821.34	228.28
821.66	228.27
821.98	228.29
822.30	228.27
822.61	228.31
822.93	228.27
823.25	228.25
823.57	228.21
823.88	228.22
824.20	228.23
824.52	228.21
824.83	228.20
825.15	228.18
825.47	228.19
825.79	228.22
826.10	228.18
826.42	228.17
826.74	228.19
827.05	228.17
827.37	228.13
827.69	228.10
828.00	228.12
828.32	228.11
828.64	228.07
828.95	228.11
829.27	228.08
829.58	228.06
829.90	228.07
830.22	228.08
830.53	228.07
830.85	228.04
831.17	228.01
831.48	227.99
831.80	228.00
832.11	228.00
832.43	227.98
832.75	228.00
833.06	228.08
833.38	228.05
833.69	228.07
834.01	228.10
834.32	228.14
834.64	228.11
834.96	228.12
835.27	228.13
835.59	228.10
835.90	228.10
836.22	228.12
836.53	228.10
836.85	228.08
837.16	228.13
837.48	228.12
837.79	228.14
838.11	228.17
838.42	228.16
838.74	228.19
839.05	228.16
839.37	228.12
839.68	228.06
840.00	228.03
840.31	228.04
840.63	228.01
840.94	227.99
841.26	228.00
841.57	227.99
841.88	227.98
842.20	227.98
842.51	227.94
842.83	227.93
843.14	228.01
843.46	228.04
843.77	228.02
844.08	227.99
844.40	227.95
844.71	227.91
845.03	227.90
845.34	227.89
845.65	227.88
845.97	227.89
846.28	227.89
846.60	227.89
846.91	227.85
847.22	227.85
847.54	227.88
847.85	227.86
848.16	227.82
848.48	227.82
848.79	227.84
849.10	227.86
849.42	227.85
849.73	227.75
850.04	227.72
850.36	227.67
850.67	227.70
850.98	227.71
851.30	227.71
851.61	227.69
851.92	227.65
852.23	227.67
852.55	227.66
852.86	227.63
853.17	227.63
853.49	227.63
853.80	227.62
854.11	227.58
854.42	227.59
854.74	227.60
855.05	227.58
855.36	227.56
855.67	227.55
855.99	227.55
856.30	227.67
856.61	227.67
856.92	227.65
857.23	227.62
857.55	227.61
857.86	227.59
858.17	227.61
858.48	227.60
858.79	227.55
859.11	227.55
859.42	227.56
859.73	227.54
860.04	227.55
860.35	227.52
860.66	227.48
860.98	227.46
861.29	227.47
861.60	227.43
861.91	227.41
862.22	227.39
862.53	227.35
862.84	227.24
863.16	227.29
863.47	227.29
863.78	227.32
864.09	227.32
864.40	227.31
864.71	227.32
865.02	227.32
865.33	227.31
865.64	227.30
865.95	227.28
866.27	227.35
866.58	227.32
866.89	227.35
867.20	227.34
867.51	227.31
867.82	227.30
868.13	227.38
868.44	227.35
868.75	227.41
869.06	227.42
869.37	227.43
869.68	227.39
869.99	227.41
870.30	227.39
870.61	227.38
870.92	227.39
871.23	227.35
871.54	227.36
871.85	227.38
872.16	227.41
872.47	227.41
872.78	227.35
873.09	227.37
873.40	227.35
873.71	227.35
874.02	227.40
874.33	227.38
874.64	227.34
874.95	227.37
875.26	227.33
875.56	227.33
875.87	227.32
876.18	227.29
876.49	227.36
876.80	227.38
877.11	227.36
877.42	227.38
877.73	227.39
878.04	227.39
878.35	227.36
878.66	227.35
878.96	227.38
879.27	227.38
879.58	227.39
879.89	227.40
880.20	227.44
880.51	227.45
880.82	227.46
881.12	227.46
881.43	227.41
881.74	227.40
882.05	227.43
882.36	227.43
882.67	227.46
882.97	227.36
883.28	227.32
883.59	227.33
883.90	227.31
884.21	227.32
884.51	227.34
884.82	227.36
885.13	227.34
885.44	227.30
885.74	227.31
886.05	227.30
886.36	227.30
886.67	227.26
886.98	227.26
887.28	227.28
887.59	227.25
887.90	227.26
888.20	227.25
888.51	227.22
888.82	227.20
889.13	227.15
889.43	227.22
889.74	227.24
890.05	227.22
890.35	227.21
890.66	227.18
890.97	227.13
891.28	227.10
891.58	227.08
891.89	227.09
892.20	227.04
892.50	227.03
892.81	227.01
893.12	227.02
893.42	226.99
893.73	226.99
894.04	227.02
894.34	227.02
894.65	227.02
894.95	227.04
895.26	227.04
895.57	227.13
895.87	227.05
896.18	227.07
896.48	227.09
896.79	227.11
897.10	227.12
897.40	227.15
897.71	227.15
898.01	227.19
898.32	227.19
898.63	227.19
898.93	227.16
899.24	227.17
899.54	227.17
899.85	227.13
900.15	227.12
900.46	227.10
900.76	227.15
901.07	227.15
901.38	227.13
901.68	227.14
901.99	227.11
902.29	227.12
902.60	227.11
902.90	227.07
903.21	227.05
903.51	227.10
903.82	227.13
904.12	227.12
904.43	227.10
904.73	227.09
905.03	227.12
905.34	227.21
905.64	227.18
905.95	227.16
906.25	227.17
906.56	227.16
906.86	227.17
907.17	227.14
907.47	227.15
907.77	227.16
908.08	227.13
908.38	227.12
908.69	227.11
908.99	227.11
909.30	227.16
909.60	227.17
909.90	227.15
910.21	227.12
910.51	227.12
910.81	227.14
911.12	227.15
911.42	227.17
911.73	227.08
912.03	227.10
912.33	227.13
912.64	227.11
912.94	227.13
913.24	227.12
913.55	227.12
913.85	227.08
914.15	227.10
914.46	227.12
914.76	227.07
915.06	227.07
915.37	227.06
915.67	227.05
915.97	227.06
916.27	227.05
916.58	227.05
916.88	227.05
917.18	227.05
917.49	227.13
917.79	227.12
918.09	227.11
918.39	227.12
918.70	227.11
919.00	227.10
919.30	227.10
919.60	227.08
919.91	227.08
920.21	227.09
920.51	227.04
920.81	227.01
921.12	227.06
921.42	227.07
921.72	227.08
922.02	227.05
922.32	227.06
922.63	227.05
922.93	227.10
923.23	227.10
923.53	227.08
923.83	226.99
924.13	227.02
924.44	227.03
924.74	227.06
925.04	227.09
925.34	227.13
925.64	227.11
925.94	227.10
926.24	227.16
926.55	227.17
926.85	227.19
927.15	227.22
927.45	227.16
927.75	227.16
928.05	227.15
928.35	227.15
928.65	227.15
928.95	227.12
929.26	227.10
929.56	227.16
929.86	227.17
930.16	227.17
930.46	227.12
930.76	227.10
931.06	227.08
931.36	227.05
931.66	227.05
931.96	227.04
932.26	227.06
932.56	227.03
932.86	227.04
933.16	227.07
933.46	227.07
933.76	227.10
934.06	227.15
934.36	227.20
934.66	227.20
934.96	227.18
935.26	227.22
935.56	227.22
935.86	227.17
936.16	227.16
936.46	227.16
936.76	227.16
937.06	227.20
937.36	227.18
937.66	227.18
937.96	227.19
938.26	227.17
938.56	227.19
938.86	227.18
939.16	227.20
939.46	227.21
939.76	227.23
940.06	227.23
940.35	227.15
940.65	227.07
940.95	227.06
941.25	227.04
941.55	227.02
941.85	227.01
942.15	227.03
942.45	227.07
942.75	227.06
943.04	227.09
943.34	227.10
943.64	227.10
943.94	227.09
944.24	227.05
944.54	227.08
944.84	227.07
945.13	227.06
945.43	227.05
945.73	227.07
946.03	227.04
946.33	227.05
946.62	227.04
946.92	227.08
947.22	227.12
947.52	227.16
947.82	227.17
948.11	227.18
948.41	227.14
948.71	227.09
949.01	227.09
949.31	227.08
949.60	227.05
949.90	227.12
950.20	227.10
950.50	227.14
950.79	227.14
951.09	227.14
951.39	227.13
951.69	227.13
951.98	227.09
952.28	227.11
952.58	227.13
952.87	227.14
953.17	227.13
953.47	227.09
953.76	227.07
954.06	227.07
954.36	227.04
954.66	227.04
954.95	227.09
955.25	227.07
955.55	227.06
955.84	227.05
956.14	227.01
956.44	227.02
956.73	227.02
957.03	226.99
957.32	226.99
957.62	226.95
957.92	226.93
958.21	226.94
958.51	227.04
958.81	227.03
959.10	227.03
959.40	227.05
959.69	227.06
959.99	227.10
960.29	227.09
960.58	227.07
960.88	227.09
961.17	227.05
961.47	227.10
961.76	227.07
962.06	227.11
962.36	227.13
962.65	227.10
962.95	227.09
963.24	227.10
963.54	227.11
963.83	227.12
964.13	227.10
964.42	227.04
964.72	226.94
965.01	226.92
965.31	226.92
965.60	226.89
965.90	226.94
966.19	226.91
966.49	226.93
966.78	226.93
967.08	226.91
967.37	226.92
967.67	226.88
967.96	226.91
968.26	226.88
968.55	226.84
968.85	226.87
969.14	226.84
969.43	226.82
969.73	226.83
970.02	226.84
970.32	226.85
970.61	226.89
970.91	226.87
971.20	226.88
971.49	226.88
971.79	226.87
972.08	226.80
972.38	226.78
972.67	226.76
972.96	226.78
973.26	226.80
973.55	226.86
973.85	226.89
974.14	226.87
974.43	226.87
974.73	226.87
975.02	226.85
975.31	226.91
975.61	226.92
975.90	226.87
976.19	226.87
976.49	226.88
976.78	226.87
977.07	226.86
977.37	226.85
977.66	226.87
977.95	226.87
978.24	226.89
978.54	226.91
978.83	226.93
979.12	226.95
979.42	226.92
979.71	226.88
980.00	226.87
980.29	226.90
980.59	226.91
980.88	226.93
981.17	226.94
981.46	226.94
981.76	226.95
982.05	227.02
982.34	227.01
982.63	227.00
982.93	227.04
983.22	227.07
983.51	227.08
983.80	227.07
984.09	227.07
984.39	227.06
984.68	227.08
984.97	227.07
985.26	227.00
985.55	227.02
985.85	227.00
986.14	227.05
986.43	227.06
986.72	227.05
987.01	227.02
987.30	227.02
987.59	227.01
987.89	227.03
988.18	227.00
988.47	227.01
988.76	226.99
989.05	226.94
989.34	226.93
989.63	226.94
989.92	226.94
990.22	226.92
990.51	226.92
990.80	226.88
991.09	226.89
991.38	226.90
991.67	226.88
991.96	226.86
992.25	226.81
992.54	226.77
992.83	226.76
993.12	226.78
993.41	226.77
993.70	226.78
993.99	226.77
994.28	226.77
994.58	226.77
994.87	226.76
995.16	226.81
995.45	226.80
995.74	226.78
996.03	226.80
996.32	226.84
996.61	226.86
996.90	226.88
997.19	226.89
997.48	226.89
997.77	226.89
998.06	226.90
998.34	226.90
998.63	226.92
998.92	226.91
999.21	226.90
999.50	226.93
999.79	226.94
1000.08	226.94
1000.37	226.91
1000.66	226.89
1000.95	226.92
1001.24	226.89
1001.53	226.91
1001.82	226.90
1002.11	226.88
1002.40	226.87
1002.68	226.90
1002.97	226.94
1003.26	226.92
1003.55	226.92
1003.84	226.92
1004.13	226.97
1004.42	226.98
1004.71	226.96
1004.99	226.96
1005.28	226.97
1005.57	226.95
1005.86	226.93
1006.15	226.90
1006.44	226.94
1006.72	226.96
1007.01	226.96
1007.30	226.98
1007.59	226.97
1007.88	226.95
1008.17	226.94
1008.45	226.95
1008.74	226.92
1009.03	226.90
1009.32	226.89
1009.60	226.92
1009.89	226.92
1010.18	226.89
1010.47	226.86
1010.76	226.86
1011.04	226.85
1011.33	226.86
1011.62	226.89
1011.91	226.88
1012.19	226.91
1012.48	226.89
1012.77	226.86
1013.05	226.90
1013.34	226.90
1013.63	226.89
1013.92	226.92
1014.20	226.91
1014.49	226.88
1014.78	226.91
1015.06	226.90
1015.35	226.89
1015.64	226.87
1015.92	226.87
1016.21	226.90
1016.50	226.91
1016.78	226.95
1017.07	226.98
1017.36	226.97
1017.64	226.94
1017.93	226.97
1018.22	226.94
1018.50	226.95
1018.79	226.96
1019.08	226.88
1019.36	226.86
1019.65	226.89
1019.93	226.90
1020.22	226.92
1020.51	226.98
1020.79	226.95
1021.08	226.48
1021.36	226.98
1021.65	226.48
1021.94	226.37
1022.22	226.37
1022.51	227.62
1022.79	226.90
1023.08	226.87
1023.36	228.08
1023.65	226.73
>>>>>End Processed Spectral Data<<<<<
