SpectraSuite Data File
++++++++++++++++++++++++++++++++++++
Date: Fri Feb 01 16:24:42 EST 2013
User: group
Dark Spectrum Present: No
Reference Spectrum Present: No
Number of Sampled Component Spectra: 1
Spectrometers: USB2E7196
Integration Time (usec): 35000 (USB2E7196)
Spectra Averaged: 100 (USB2E7196)
Boxcar Smoothing: 10 (USB2E7196)
Correct for Electrical Dark: No (USB2E7196)
Strobe/Lamp Enabled: No (USB2E7196)
Correct for Detector Non-linearity: No (USB2E7196)
Correct for Stray Light: No (USB2E7196)
Number of Pixels in Processed Spectrum: 2048
>>>>>Begin Processed Spectral Data<<<<<
339.09	0.00
339.48	214.28
339.86	216.04
340.24	216.28
340.63	218.06
341.01	220.72
341.39	220.52
341.78	221.83
342.16	223.42
342.54	223.93
342.93	212.28
343.31	223.01
343.69	223.52
344.07	223.92
344.46	224.39
344.84	224.78
345.22	225.06
345.60	225.34
345.99	225.54
346.37	225.65
346.75	225.74
347.13	225.83
347.52	225.86
347.90	225.94
348.28	225.96
348.66	226.01
349.05	225.99
349.43	226.04
349.81	226.06
350.19	226.08
350.57	226.15
350.96	226.25
351.34	226.34
351.72	226.45
352.10	226.58
352.48	226.63
352.87	226.68
353.25	226.71
353.63	226.76
354.01	226.86
354.39	226.97
354.77	227.04
355.15	227.14
355.54	227.21
355.92	227.21
356.30	227.31
356.68	227.41
357.06	227.51
357.44	227.55
357.82	227.64
358.20	227.73
358.58	227.80
358.97	227.86
359.35	227.93
359.73	228.00
360.11	228.04
360.49	228.11
360.87	228.17
361.25	228.24
361.63	228.32
362.01	228.35
362.39	228.35
362.77	228.40
363.15	228.41
363.53	228.44
363.91	228.50
364.29	228.55
364.67	228.49
365.05	228.50
365.43	228.49
365.81	228.51
366.19	228.55
366.57	228.58
366.95	228.56
367.33	228.54
367.71	228.55
368.09	228.55
368.47	228.53
368.85	228.50
369.23	228.51
369.61	228.45
369.99	228.45
370.37	228.46
370.75	228.48
371.13	228.43
371.51	228.38
371.89	228.33
372.27	228.26
372.65	228.24
373.03	228.22
373.41	228.20
373.78	228.15
374.16	228.05
374.54	227.97
374.92	227.92
375.30	227.85
375.68	227.74
376.06	227.69
376.44	227.61
376.82	227.55
377.19	227.45
377.57	227.40
377.95	227.29
378.33	227.19
378.71	227.08
379.09	227.06
379.47	227.01
379.84	226.94
380.22	226.87
380.60	226.76
380.98	226.68
381.36	226.58
381.73	226.50
382.11	226.46
382.49	226.40
382.87	226.30
383.25	226.23
383.62	226.31
384.00	226.24
384.38	226.18
384.76	226.12
385.13	226.10
385.51	226.04
385.89	225.98
386.27	225.96
386.64	225.92
387.02	225.84
387.40	225.80
387.78	225.80
388.15	225.80
388.53	225.76
388.91	225.71
389.29	225.70
389.66	225.68
390.04	225.64
390.42	225.63
390.79	225.63
391.17	225.60
391.55	225.47
391.92	225.48
392.30	225.49
392.68	225.49
393.05	225.51
393.43	225.52
393.81	225.54
394.18	225.54
394.56	225.53
394.94	225.54
395.31	225.57
395.69	225.59
396.06	225.62
396.44	225.66
396.82	225.71
397.19	225.77
397.57	225.82
397.95	225.84
398.32	225.87
398.70	225.93
399.07	226.01
399.45	226.09
399.82	226.14
400.20	226.22
400.58	226.30
400.95	226.31
401.33	226.42
401.70	226.56
402.08	226.66
402.45	226.77
402.83	226.92
403.20	227.00
403.58	227.08
403.95	227.19
404.33	227.32
404.71	227.41
405.08	227.57
405.46	227.67
405.83	227.82
406.21	227.96
406.58	228.14
406.96	228.27
407.33	228.45
407.70	228.64
408.08	228.88
408.45	229.06
408.83	229.28
409.20	229.48
409.58	229.66
409.95	229.91
410.33	230.20
410.70	230.42
411.08	230.75
411.45	231.06
411.82	231.36
412.20	231.68
412.57	232.13
412.95	232.40
413.32	232.82
413.69	233.25
414.07	233.68
414.44	234.12
414.82	234.60
415.19	235.16
415.56	235.72
415.94	236.26
416.31	236.91
416.68	237.56
417.06	238.23
417.43	238.88
417.81	239.66
418.18	240.40
418.55	241.25
418.93	242.11
419.30	242.99
419.67	243.94
420.04	244.94
420.42	245.87
420.79	247.08
421.16	248.23
421.54	249.44
421.91	250.64
422.28	251.91
422.66	253.26
423.03	254.55
423.40	255.87
423.77	257.28
424.15	258.72
424.52	260.14
424.89	261.79
425.26	263.36
425.64	264.79
426.01	266.41
426.38	268.04
426.75	269.71
427.13	271.43
427.50	273.25
427.87	275.12
428.24	277.03
428.61	278.75
428.99	280.68
429.36	282.74
429.73	284.82
430.10	286.83
430.47	288.83
430.85	290.96
431.22	293.18
431.59	295.54
431.96	297.77
432.33	300.32
432.70	302.66
433.08	305.45
433.45	308.11
433.82	310.71
434.19	313.62
434.56	316.41
434.93	319.07
435.30	321.63
435.68	324.53
436.05	327.35
436.42	330.18
436.79	332.70
437.16	335.35
437.53	338.20
437.90	341.02
438.27	343.80
438.64	346.60
439.01	349.18
439.38	351.44
439.75	353.57
440.13	356.04
440.50	358.33
440.87	360.17
441.24	362.06
441.61	364.25
441.98	365.68
442.35	367.50
442.72	369.34
443.09	371.14
443.46	372.09
443.83	372.65
444.20	373.13
444.57	373.98
444.94	374.32
445.31	374.62
445.68	374.97
446.05	375.04
446.42	374.63
446.79	374.25
447.16	373.79
447.53	373.51
447.90	372.39
448.27	371.27
448.64	369.67
449.01	368.53
449.37	366.54
449.74	364.67
450.11	362.41
450.48	359.90
450.85	357.43
451.22	355.31
451.59	353.30
451.96	351.32
452.33	348.70
452.70	346.35
453.07	343.54
453.43	340.63
453.80	337.86
454.17	335.22
454.54	332.65
454.91	329.92
455.28	327.22
455.65	324.75
456.02	322.29
456.38	320.17
456.75	317.52
457.12	315.24
457.49	313.05
457.86	310.88
458.23	309.08
458.59	307.01
458.96	304.95
459.33	303.05
459.70	301.23
460.07	299.74
460.43	298.02
460.80	296.40
461.17	294.97
461.54	293.47
461.91	292.05
462.27	290.59
462.64	289.35
463.01	288.05
463.38	286.69
463.74	285.31
464.11	284.14
464.48	283.11
464.85	282.01
465.21	281.17
465.58	280.28
465.95	279.17
466.32	278.25
466.68	277.36
467.05	276.54
467.42	275.67
467.78	274.78
468.15	273.93
468.52	273.28
468.88	272.39
469.25	271.63
469.62	271.05
469.98	270.43
470.35	269.79
470.72	269.18
471.08	268.54
471.45	268.02
471.82	267.54
472.18	266.99
472.55	266.59
472.92	266.03
473.28	265.58
473.65	265.17
474.02	264.76
474.38	264.37
474.75	264.07
475.11	263.72
475.48	263.47
475.85	263.25
476.21	263.04
476.58	262.94
476.94	262.84
477.31	262.62
477.67	262.49
478.04	262.43
478.41	262.38
478.77	262.48
479.14	262.45
479.50	262.46
479.87	262.53
480.23	262.62
480.60	262.67
480.96	262.75
481.33	262.97
481.69	263.19
482.06	263.41
482.42	263.59
482.79	263.87
483.15	264.19
483.52	264.59
483.88	264.94
484.25	265.30
484.61	265.68
484.98	266.18
485.34	266.71
485.71	267.29
486.07	267.90
486.44	268.46
486.80	269.18
487.17	269.88
487.53	270.70
487.90	271.54
488.26	272.50
488.62	273.53
488.99	274.50
489.35	275.53
489.72	276.63
490.08	277.85
490.44	279.07
490.81	280.38
491.17	281.68
491.54	283.14
491.90	284.68
492.26	286.37
492.63	288.08
492.99	289.86
493.36	291.75
493.72	293.77
494.08	295.87
494.45	298.12
494.81	300.47
495.17	302.88
495.54	305.45
495.90	308.10
496.26	310.89
496.63	313.85
496.99	316.96
497.35	320.22
497.72	323.59
498.08	327.16
498.44	330.79
498.80	334.75
499.17	338.79
499.53	342.99
499.89	347.36
500.26	351.85
500.62	356.56
500.98	361.50
501.34	366.59
501.71	371.94
502.07	377.33
502.43	382.98
502.79	388.82
503.16	394.92
503.52	401.22
503.88	407.62
504.24	414.28
504.60	421.20
504.97	428.31
505.33	435.64
505.69	443.33
506.05	451.18
506.41	459.07
506.78	467.28
507.14	475.70
507.50	484.42
507.86	493.47
508.22	502.66
508.59	511.89
508.95	521.49
509.31	531.26
509.67	541.37
510.03	551.67
510.39	562.27
510.75	573.08
511.12	584.06
511.48	595.32
511.84	606.75
512.20	618.23
512.56	630.22
512.92	642.45
513.28	654.84
513.64	667.36
514.00	680.03
514.37	692.96
514.73	706.02
515.09	719.04
515.45	732.34
515.81	745.91
516.17	759.90
516.53	774.04
516.89	788.18
517.25	802.41
517.61	816.86
517.97	831.25
518.33	845.60
518.69	860.26
519.05	875.27
519.41	890.39
519.77	905.90
520.13	921.33
520.49	936.59
520.85	951.87
521.21	967.61
521.57	983.86
521.93	999.59
522.29	1015.89
522.65	1032.07
523.01	1048.14
523.37	1064.01
523.73	1080.05
524.09	1096.00
524.45	1112.28
524.81	1128.80
525.17	1145.53
525.53	1162.41
525.89	1179.26
526.25	1196.12
526.61	1212.39
526.97	1229.09
527.33	1245.39
527.68	1261.84
528.04	1278.27
528.40	1294.70
528.76	1311.66
529.12	1328.18
529.48	1344.96
529.84	1360.88
530.20	1377.45
530.56	1394.46
530.91	1411.99
531.27	1428.66
531.63	1445.06
531.99	1461.60
532.35	1477.49
532.71	1493.25
533.07	1509.35
533.42	1525.08
533.78	1541.02
534.14	1557.17
534.50	1572.44
534.86	1588.35
535.21	1603.61
535.57	1619.51
535.93	1635.04
536.29	1649.57
536.65	1664.40
537.00	1679.11
537.36	1694.40
537.72	1708.86
538.08	1723.12
538.44	1736.83
538.79	1750.61
539.15	1764.16
539.51	1777.78
539.87	1792.04
540.22	1805.72
540.58	1819.34
540.94	1832.72
541.29	1845.48
541.65	1858.10
542.01	1871.12
542.37	1883.39
542.72	1895.63
543.08	1907.28
543.44	1919.55
543.79	1930.70
544.15	1941.71
544.51	1953.18
544.87	1963.99
545.22	1974.68
545.58	1984.84
545.94	1994.36
546.29	2004.23
546.65	2014.11
547.01	2023.34
547.36	2031.96
547.72	2040.31
548.07	2048.18
548.43	2056.12
548.79	2064.09
549.14	2071.68
549.50	2078.98
549.86	2086.51
550.21	2093.70
550.57	2100.90
550.92	2107.27
551.28	2114.37
551.64	2121.47
551.99	2127.96
552.35	2134.15
552.70	2140.45
553.06	2146.43
553.41	2152.93
553.77	2158.80
554.13	2164.83
554.48	2170.95
554.84	2176.49
555.19	2181.77
555.55	2186.99
555.90	2191.63
556.26	2196.50
556.61	2201.22
556.97	2205.61
557.32	2209.81
557.68	2213.92
558.03	2218.08
558.39	2221.89
558.74	2226.44
559.10	2230.23
559.45	2233.86
559.81	2238.14
560.16	2241.72
560.52	2245.04
560.87	2248.30
561.23	2251.13
561.58	2254.05
561.94	2256.52
562.29	2258.87
562.64	2261.61
563.00	2264.17
563.35	2267.63
563.71	2270.67
564.06	2273.97
564.42	2276.78
564.77	2279.16
565.12	2281.48
565.48	2283.44
565.83	2285.44
566.19	2286.88
566.54	2287.82
566.89	2289.05
567.25	2289.67
567.60	2291.03
567.96	2292.74
568.31	2293.71
568.66	2294.93
569.02	2295.49
569.37	2295.99
569.72	2296.92
570.08	2297.03
570.43	2297.16
570.78	2296.68
571.14	2295.24
571.49	2293.84
571.84	2293.71
572.20	2292.90
572.55	2292.03
572.90	2290.58
573.26	2289.27
573.61	2287.56
573.96	2285.81
574.31	2282.89
574.67	2279.96
575.02	2276.53
575.37	2273.04
575.72	2269.25
576.08	2265.90
576.43	2262.63
576.78	2258.99
577.13	2255.81
577.49	2252.81
577.84	2249.20
578.19	2245.46
578.54	2242.05
578.90	2237.85
579.25	2232.18
579.60	2227.15
579.95	2222.18
580.30	2217.26
580.66	2212.13
581.01	2207.23
581.36	2202.48
581.71	2198.18
582.06	2193.71
582.42	2189.17
582.77	2184.15
583.12	2179.60
583.47	2174.94
583.82	2170.06
584.17	2164.76
584.53	2159.27
584.88	2153.72
585.23	2148.06
585.58	2142.72
585.93	2137.27
586.28	2132.58
586.63	2127.60
586.98	2122.73
587.34	2118.09
587.69	2113.21
588.04	2107.95
588.39	2102.33
588.74	2095.91
589.09	2089.90
589.44	2083.40
589.79	2077.44
590.14	2071.84
590.49	2065.45
590.84	2059.05
591.19	2053.07
591.54	2046.62
591.89	2039.22
592.25	2032.42
592.60	2025.36
592.95	2017.81
593.30	2010.44
593.65	2002.86
594.00	1995.84
594.35	1988.54
594.70	1980.45
595.05	1973.37
595.40	1966.19
595.75	1958.62
596.10	1952.41
596.45	1945.71
596.80	1939.41
597.15	1932.89
597.50	1925.93
597.85	1919.55
598.19	1913.06
598.54	1905.85
598.89	1899.31
599.24	1893.60
599.59	1886.97
599.94	1880.78
600.29	1874.42
600.64	1868.00
600.99	1860.69
601.34	1854.00
601.69	1847.01
602.04	1840.25
602.39	1832.83
602.74	1826.05
603.08	1819.50
603.43	1812.86
603.78	1805.61
604.13	1798.43
604.48	1791.10
604.83	1784.22
605.18	1777.16
605.53	1769.09
605.87	1761.39
606.22	1754.20
606.57	1746.21
606.92	1739.02
607.27	1731.86
607.62	1725.05
607.96	1717.68
608.31	1711.02
608.66	1703.33
609.01	1695.89
609.36	1688.28
609.70	1680.28
610.05	1672.17
610.40	1664.53
610.75	1656.23
611.10	1648.68
611.44	1640.39
611.79	1632.47
612.14	1623.68
612.49	1614.60
612.83	1606.24
613.18	1598.04
613.53	1589.97
613.88	1581.45
614.22	1573.10
614.57	1564.39
614.92	1556.29
615.27	1548.83
615.61	1540.53
615.96	1532.54
616.31	1524.85
616.65	1517.48
617.00	1509.99
617.35	1502.36
617.70	1494.03
618.04	1485.49
618.39	1477.21
618.74	1469.51
619.08	1461.24
619.43	1453.73
619.78	1446.84
620.12	1439.71
620.47	1432.11
620.82	1423.94
621.16	1416.58
621.51	1408.97
621.85	1401.50
622.20	1392.99
622.55	1384.60
622.89	1376.72
623.24	1369.12
623.59	1361.66
623.93	1354.17
624.28	1346.95
624.62	1339.39
624.97	1332.17
625.32	1325.45
625.66	1318.40
626.01	1311.23
626.35	1303.88
626.70	1296.12
627.04	1288.40
627.39	1280.53
627.73	1273.24
628.08	1266.28
628.43	1258.93
628.77	1251.58
629.12	1243.91
629.46	1236.68
629.81	1229.29
630.15	1222.12
630.50	1214.66
630.84	1206.51
631.19	1198.57
631.53	1190.99
631.88	1183.47
632.22	1175.76
632.57	1168.37
632.91	1160.81
633.26	1153.38
633.60	1145.90
633.95	1138.79
634.29	1131.74
634.64	1125.04
634.98	1117.53
635.32	1110.41
635.67	1103.82
636.01	1097.20
636.36	1090.44
636.70	1083.94
637.05	1077.33
637.39	1070.83
637.73	1064.31
638.08	1058.39
638.42	1052.39
638.77	1045.97
639.11	1039.35
639.45	1032.99
639.80	1026.36
640.14	1019.91
640.49	1013.37
640.83	1007.11
641.17	1000.92
641.52	994.41
641.86	987.99
642.20	982.17
642.55	975.85
642.89	969.40
643.23	962.79
643.58	957.00
643.92	950.81
644.26	944.69
644.61	938.62
644.95	932.54
645.29	925.97
645.64	919.25
645.98	912.94
646.32	907.07
646.66	901.02
647.01	895.21
647.35	889.57
647.69	883.71
648.04	878.12
648.38	872.28
648.72	866.39
649.06	860.35
649.41	854.50
649.75	848.52
650.09	842.55
650.43	836.78
650.78	830.56
651.12	824.62
651.46	818.93
651.80	813.18
652.14	807.87
652.49	802.53
652.83	797.28
653.17	791.55
653.51	785.88
653.85	780.51
654.20	774.85
654.54	768.85
654.88	763.14
655.22	757.22
655.56	751.54
655.90	746.09
656.25	740.79
656.59	735.35
656.93	730.29
657.27	725.15
657.61	719.74
657.95	714.71
658.29	709.64
658.64	704.34
658.98	699.01
659.32	693.52
659.66	688.27
660.00	683.03
660.34	678.11
660.68	673.13
661.02	668.08
661.36	663.33
661.70	658.76
662.05	654.38
662.39	650.06
662.73	645.52
663.07	641.13
663.41	636.71
663.75	632.26
664.09	627.67
664.43	623.23
664.77	619.08
665.11	614.80
665.45	610.62
665.79	606.51
666.13	602.42
666.47	598.36
666.81	594.15
667.15	589.96
667.49	586.07
667.83	582.27
668.17	578.36
668.51	574.31
668.85	570.31
669.19	566.47
669.53	562.61
669.87	558.80
670.21	555.11
670.55	551.47
670.89	547.98
671.23	544.55
671.57	541.05
671.91	537.47
672.25	533.97
672.58	530.50
672.92	527.12
673.26	523.89
673.60	520.69
673.94	517.65
674.28	514.79
674.62	511.79
674.96	508.69
675.30	505.80
675.64	502.86
675.97	500.09
676.31	497.25
676.65	494.31
676.99	491.52
677.33	488.63
677.67	485.83
678.01	482.84
678.34	479.86
678.68	476.99
679.02	474.19
679.36	471.41
679.70	468.70
680.04	465.87
680.37	463.03
680.71	460.23
681.05	457.61
681.39	454.88
681.73	452.21
682.06	449.67
682.40	447.13
682.74	444.58
683.08	442.04
683.42	439.42
683.75	436.94
684.09	434.47
684.43	432.01
684.77	429.56
685.10	427.14
685.44	424.80
685.78	422.49
686.12	420.27
686.45	417.97
686.79	415.65
687.13	413.53
687.46	411.34
687.80	409.19
688.14	406.92
688.48	404.83
688.81	402.62
689.15	400.47
689.49	398.23
689.82	396.19
690.16	394.11
690.50	392.13
690.83	390.18
691.17	388.14
691.51	386.21
691.84	384.33
692.18	382.44
692.52	380.50
692.85	378.56
693.19	376.67
693.52	374.83
693.86	373.02
694.20	371.22
694.53	369.43
694.87	367.60
695.21	365.84
695.54	364.04
695.88	362.32
696.21	360.59
696.55	358.95
696.88	357.25
697.22	355.52
697.56	353.89
697.89	352.24
698.23	350.63
698.56	349.01
698.90	347.43
699.23	345.84
699.57	344.27
699.90	342.75
700.24	341.19
700.58	339.65
700.91	338.14
701.25	336.69
701.58	335.32
701.92	333.95
702.25	332.57
702.59	331.17
702.92	329.82
703.26	328.51
703.59	327.20
703.93	325.98
704.26	324.75
704.60	323.44
704.93	322.14
705.26	320.90
705.60	319.73
705.93	318.56
706.27	317.48
706.60	316.43
706.94	315.31
707.27	314.17
707.61	313.09
707.94	312.06
708.27	310.92
708.61	309.80
708.94	308.80
709.28	307.79
709.61	306.86
709.94	305.91
710.28	304.88
710.61	303.92
710.95	302.85
711.28	301.97
711.61	301.09
711.95	300.18
712.28	299.25
712.61	298.28
712.95	297.31
713.28	296.39
713.61	295.49
713.95	294.57
714.28	293.75
714.61	292.91
714.95	292.08
715.28	291.24
715.61	290.39
715.95	289.51
716.28	288.64
716.61	287.78
716.95	286.96
717.28	286.22
717.61	285.49
717.94	284.73
718.28	283.94
718.61	283.18
718.94	282.51
719.27	281.83
719.61	281.17
719.94	280.53
720.27	279.84
720.60	279.19
720.94	278.59
721.27	277.97
721.60	277.37
721.93	276.77
722.27	276.27
722.60	275.73
722.93	275.19
723.26	274.69
723.59	274.13
723.93	273.58
724.26	273.08
724.59	272.50
724.92	271.99
725.25	271.45
725.59	270.93
725.92	270.41
726.25	269.91
726.58	269.44
726.91	268.97
727.24	268.50
727.57	268.03
727.91	267.56
728.24	267.09
728.57	266.63
728.90	266.17
729.23	265.61
729.56	265.16
729.89	264.71
730.22	264.21
730.55	263.76
730.89	263.35
731.22	262.84
731.55	262.40
731.88	261.99
732.21	261.57
732.54	261.10
732.87	260.66
733.20	260.25
733.53	259.84
733.86	259.46
734.19	259.08
734.52	258.70
734.85	258.39
735.18	258.00
735.51	257.66
735.84	257.29
736.17	256.99
736.50	256.60
736.83	256.36
737.16	256.02
737.49	255.72
737.82	255.35
738.15	255.02
738.48	254.68
738.81	254.36
739.14	254.04
739.47	253.74
739.80	253.44
740.13	253.16
740.46	252.84
740.79	252.49
741.12	252.16
741.45	251.80
741.78	251.39
742.11	251.09
742.44	250.72
742.77	250.41
743.10	250.06
743.43	249.75
743.75	249.34
744.08	249.17
744.41	248.87
744.74	248.61
745.07	248.31
745.40	248.04
745.73	247.80
746.06	247.51
746.39	247.23
746.71	246.96
747.04	246.69
747.37	246.43
747.70	246.20
748.03	245.98
748.36	245.78
748.68	245.55
749.01	245.28
749.34	245.06
749.67	244.85
750.00	244.66
750.33	244.52
750.65	244.29
750.98	243.95
751.31	243.71
751.64	243.51
751.97	243.41
752.29	243.20
752.62	242.95
752.95	242.76
753.28	242.56
753.60	242.34
753.93	242.12
754.26	241.89
754.59	241.67
754.91	241.44
755.24	241.23
755.57	241.05
755.90	240.87
756.22	240.70
756.55	240.49
756.88	240.28
757.20	240.01
757.53	239.82
757.86	239.68
758.19	239.55
758.51	239.36
758.84	239.09
759.17	238.92
759.49	238.75
759.82	238.62
760.15	238.51
760.47	238.37
760.80	238.21
761.13	238.11
761.45	237.95
761.78	237.80
762.11	237.65
762.43	237.52
762.76	237.38
763.08	237.24
763.41	237.09
763.74	236.98
764.06	236.84
764.39	236.73
764.71	236.60
765.04	236.43
765.37	236.30
765.69	236.17
766.02	236.01
766.34	235.92
766.67	235.77
767.00	235.66
767.32	235.63
767.65	235.57
767.97	235.44
768.30	235.31
768.62	235.20
768.95	235.13
769.27	235.07
769.60	235.00
769.92	234.87
770.25	234.77
770.57	234.65
770.90	234.57
771.22	234.45
771.55	234.37
771.87	234.28
772.20	234.18
772.52	234.18
772.85	234.25
773.17	234.15
773.50	234.06
773.82	233.95
774.15	233.80
774.47	233.66
774.80	233.56
775.12	233.51
775.45	233.43
775.77	233.32
776.09	233.19
776.42	233.11
776.74	233.08
777.07	232.98
777.39	232.90
777.72	232.78
778.04	232.72
778.36	232.62
778.69	232.56
779.01	232.49
779.33	232.34
779.66	232.14
779.98	232.06
780.31	232.01
780.63	231.94
780.95	231.87
781.28	231.79
781.60	231.74
781.92	231.68
782.25	231.62
782.57	231.55
782.89	231.49
783.22	231.40
783.54	231.30
783.86	231.26
784.19	231.22
784.51	231.21
784.83	231.17
785.16	231.10
785.48	231.06
785.80	231.02
786.12	230.99
786.45	230.94
786.77	230.91
787.09	230.84
787.42	230.78
787.74	230.74
788.06	230.70
788.38	230.65
788.71	230.59
789.03	230.56
789.35	230.55
789.67	230.49
789.99	230.44
790.32	230.41
790.64	230.38
790.96	230.43
791.28	230.34
791.61	230.26
791.93	230.27
792.25	230.21
792.57	230.24
792.89	230.19
793.21	230.13
793.54	230.06
793.86	230.02
794.18	230.03
794.50	229.97
794.82	229.93
795.14	229.93
795.47	229.90
795.79	229.86
796.11	229.82
796.43	229.80
796.75	229.75
797.07	229.72
797.39	229.70
797.71	229.61
798.04	229.59
798.36	229.57
798.68	229.52
799.00	229.51
799.32	229.42
799.64	229.41
799.96	229.40
800.28	229.41
800.60	229.39
800.92	229.32
801.24	229.24
801.56	229.21
801.89	229.14
802.21	229.12
802.53	229.05
802.85	229.02
803.17	228.97
803.49	228.97
803.81	228.97
804.13	228.95
804.45	228.88
804.77	228.86
805.09	228.84
805.41	228.80
805.73	228.73
806.05	228.69
806.37	228.61
806.69	228.59
807.01	228.57
807.33	228.53
807.65	228.49
807.97	228.57
808.28	228.59
808.60	228.56
808.92	228.55
809.24	228.60
809.56	228.57
809.88	228.56
810.20	228.53
810.52	228.48
810.84	228.43
811.16	228.41
811.48	228.39
811.80	228.41
812.12	228.38
812.43	228.41
812.75	228.40
813.07	228.41
813.39	228.40
813.71	228.34
814.03	228.32
814.35	228.31
814.67	228.21
814.98	228.17
815.30	228.13
815.62	228.11
815.94	228.02
816.26	228.03
816.58	227.99
816.89	227.97
817.21	227.95
817.53	227.92
817.85	227.92
818.17	227.93
818.48	227.87
818.80	227.86
819.12	227.81
819.44	227.77
819.76	227.75
820.07	227.74
820.39	227.72
820.71	227.74
821.03	227.72
821.34	227.71
821.66	227.68
821.98	227.71
822.30	227.66
822.61	227.67
822.93	227.64
823.25	227.61
823.57	227.58
823.88	227.57
824.20	227.56
824.52	227.55
824.83	227.50
825.15	227.46
825.47	227.45
825.79	227.46
826.10	227.41
826.42	227.38
826.74	227.37
827.05	227.37
827.37	227.33
827.69	227.31
828.00	227.32
828.32	227.29
828.64	227.26
828.95	227.26
829.27	227.22
829.58	227.22
829.90	227.24
830.22	227.24
830.53	227.20
830.85	227.19
831.17	227.13
831.48	227.15
831.80	227.16
832.11	227.12
832.43	227.08
832.75	227.06
833.06	227.09
833.38	227.04
833.69	227.01
834.01	227.01
834.32	226.97
834.64	226.96
834.96	226.95
835.27	226.94
835.59	226.94
835.90	226.90
836.22	226.88
836.53	226.84
836.85	226.80
837.16	226.89
837.48	226.87
837.79	226.88
838.11	226.85
838.42	226.81
838.74	226.84
839.05	226.83
839.37	226.82
839.68	226.74
840.00	226.75
840.31	226.75
840.63	226.72
840.94	226.74
841.26	226.76
841.57	226.76
841.88	226.77
842.20	226.73
842.51	226.76
842.83	226.79
843.14	226.87
843.46	226.93
843.77	226.89
844.08	226.89
844.40	226.87
844.71	226.86
845.03	226.87
845.34	226.86
845.65	226.86
845.97	226.88
846.28	226.93
846.60	226.92
846.91	226.90
847.22	226.92
847.54	226.92
847.85	226.90
848.16	226.88
848.48	226.84
848.79	226.91
849.10	226.90
849.42	226.86
849.73	226.78
850.04	226.72
850.36	226.66
850.67	226.64
850.98	226.66
851.30	226.64
851.61	226.62
851.92	226.60
852.23	226.63
852.55	226.63
852.86	226.61
853.17	226.61
853.49	226.62
853.80	226.63
854.11	226.60
854.42	226.63
854.74	226.62
855.05	226.61
855.36	226.54
855.67	226.55
855.99	226.53
856.30	226.63
856.61	226.63
856.92	226.64
857.23	226.65
857.55	226.61
857.86	226.59
858.17	226.60
858.48	226.60
858.79	226.56
859.11	226.57
859.42	226.54
859.73	226.54
860.04	226.53
860.35	226.51
860.66	226.47
860.98	226.42
861.29	226.42
861.60	226.43
861.91	226.44
862.22	226.39
862.53	226.40
862.84	226.31
863.16	226.34
863.47	226.30
863.78	226.29
864.09	226.31
864.40	226.34
864.71	226.36
865.02	226.35
865.33	226.37
865.64	226.32
865.95	226.34
866.27	226.40
866.58	226.42
866.89	226.43
867.20	226.43
867.51	226.41
867.82	226.44
868.13	226.48
868.44	226.45
868.75	226.46
869.06	226.47
869.37	226.48
869.68	226.44
869.99	226.49
870.30	226.50
870.61	226.51
870.92	226.49
871.23	226.48
871.54	226.51
871.85	226.52
872.16	226.55
872.47	226.52
872.78	226.43
873.09	226.44
873.40	226.46
873.71	226.49
874.02	226.51
874.33	226.48
874.64	226.43
874.95	226.48
875.26	226.50
875.56	226.46
875.87	226.45
876.18	226.46
876.49	226.56
876.80	226.55
877.11	226.55
877.42	226.54
877.73	226.54
878.04	226.52
878.35	226.54
878.66	226.52
878.96	226.55
879.27	226.59
879.58	226.58
879.89	226.54
880.20	226.58
880.51	226.56
880.82	226.57
881.12	226.59
881.43	226.55
881.74	226.54
882.05	226.59
882.36	226.58
882.67	226.59
882.97	226.50
883.28	226.47
883.59	226.47
883.90	226.48
884.21	226.49
884.51	226.46
884.82	226.42
885.13	226.40
885.44	226.39
885.74	226.35
886.05	226.35
886.36	226.34
886.67	226.28
886.98	226.34
887.28	226.34
887.59	226.35
887.90	226.37
888.20	226.32
888.51	226.31
888.82	226.29
889.13	226.28
889.43	226.36
889.74	226.32
890.05	226.32
890.35	226.29
890.66	226.29
890.97	226.29
891.28	226.30
891.58	226.32
891.89	226.31
892.20	226.29
892.50	226.28
892.81	226.30
893.12	226.33
893.42	226.29
893.73	226.33
894.04	226.30
894.34	226.29
894.65	226.30
894.95	226.26
895.26	226.29
895.57	226.34
895.87	226.25
896.18	226.32
896.48	226.31
896.79	226.33
897.10	226.35
897.40	226.34
897.71	226.34
898.01	226.32
898.32	226.36
898.63	226.38
898.93	226.39
899.24	226.40
899.54	226.38
899.85	226.36
900.15	226.35
900.46	226.37
900.76	226.38
901.07	226.37
901.38	226.40
901.68	226.36
901.99	226.33
902.29	226.34
902.60	226.33
902.90	226.32
903.21	226.30
903.51	226.29
903.82	226.33
904.12	226.34
904.43	226.35
904.73	226.33
905.03	226.33
905.34	226.41
905.64	226.37
905.95	226.38
906.25	226.36
906.56	226.36
906.86	226.35
907.17	226.36
907.47	226.38
907.77	226.36
908.08	226.38
908.38	226.36
908.69	226.37
908.99	226.35
909.30	226.35
909.60	226.37
909.90	226.39
910.21	226.36
910.51	226.37
910.81	226.36
911.12	226.37
911.42	226.36
911.73	226.27
912.03	226.28
912.33	226.30
912.64	226.31
912.94	226.28
913.24	226.28
913.55	226.24
913.85	226.21
914.15	226.26
914.46	226.22
914.76	226.22
915.06	226.22
915.37	226.21
915.67	226.24
915.97	226.21
916.27	226.18
916.58	226.20
916.88	226.15
917.18	226.18
917.49	226.24
917.79	226.23
918.09	226.23
918.39	226.28
918.70	226.27
919.00	226.28
919.30	226.33
919.60	226.32
919.91	226.32
920.21	226.35
920.51	226.27
920.81	226.29
921.12	226.33
921.42	226.33
921.72	226.32
922.02	226.32
922.32	226.32
922.63	226.29
922.93	226.28
923.23	226.31
923.53	226.25
923.83	226.18
924.13	226.18
924.44	226.18
924.74	226.14
925.04	226.13
925.34	226.10
925.64	226.05
925.94	226.07
926.24	226.07
926.55	226.03
926.85	226.06
927.15	226.06
927.45	226.01
927.75	226.01
928.05	226.02
928.35	226.00
928.65	226.04
928.95	226.06
929.26	226.05
929.56	226.06
929.86	226.07
930.16	226.04
930.46	226.06
930.76	226.06
931.06	226.02
931.36	226.00
931.66	226.01
931.96	225.99
932.26	225.97
932.56	225.96
932.86	225.98
933.16	226.00
933.46	225.98
933.76	225.98
934.06	225.96
934.36	226.01
934.66	225.99
934.96	225.94
935.26	225.92
935.56	225.93
935.86	225.89
936.16	225.86
936.46	225.88
936.76	225.84
937.06	225.82
937.36	225.83
937.66	225.84
937.96	225.85
938.26	225.84
938.56	225.85
938.86	225.87
939.16	225.91
939.46	225.92
939.76	225.93
940.06	225.93
940.35	225.92
940.65	225.88
940.95	225.93
941.25	225.94
941.55	225.95
941.85	225.93
942.15	225.95
942.45	226.01
942.75	225.99
943.04	226.00
943.34	226.03
943.64	226.04
943.94	226.02
944.24	226.05
944.54	226.08
944.84	226.07
945.13	226.03
945.43	226.01
945.73	225.99
946.03	226.01
946.33	225.99
946.62	225.99
946.92	226.01
947.22	225.99
947.52	225.99
947.82	226.01
948.11	226.02
948.41	226.03
948.71	226.01
949.01	226.01
949.31	226.03
949.60	226.02
949.90	226.05
950.20	226.06
950.50	226.06
950.79	226.05
951.09	226.08
951.39	226.09
951.69	226.07
951.98	226.10
952.28	226.07
952.58	226.06
952.87	226.07
953.17	226.06
953.47	226.07
953.76	226.08
954.06	226.08
954.36	226.07
954.66	226.06
954.95	226.08
955.25	226.09
955.55	226.12
955.84	226.11
956.14	226.08
956.44	226.05
956.73	226.04
957.03	226.05
957.32	226.04
957.62	226.04
957.92	226.07
958.21	226.06
958.51	226.18
958.81	226.20
959.10	226.22
959.40	226.18
959.69	226.14
959.99	226.13
960.29	226.12
960.58	226.10
960.88	226.12
961.17	226.12
961.47	226.10
961.76	226.08
962.06	226.09
962.36	226.08
962.65	226.11
962.95	226.07
963.24	226.03
963.54	226.03
963.83	225.99
964.13	225.98
964.42	225.94
964.72	225.86
965.01	225.84
965.31	225.83
965.60	225.81
965.90	225.88
966.19	225.87
966.49	225.86
966.78	225.85
967.08	225.83
967.37	225.80
967.67	225.80
967.96	225.79
968.26	225.78
968.55	225.78
968.85	225.76
969.14	225.79
969.43	225.80
969.73	225.78
970.02	225.78
970.32	225.76
970.61	225.78
970.91	225.74
971.20	225.74
971.49	225.71
971.79	225.73
972.08	225.68
972.38	225.69
972.67	225.67
972.96	225.69
973.26	225.68
973.55	225.73
973.85	225.73
974.14	225.72
974.43	225.71
974.73	225.69
975.02	225.69
975.31	225.70
975.61	225.73
975.90	225.72
976.19	225.73
976.49	225.73
976.78	225.73
977.07	225.76
977.37	225.80
977.66	225.84
977.95	225.81
978.24	225.81
978.54	225.82
978.83	225.85
979.12	225.88
979.42	225.88
979.71	225.87
980.00	225.87
980.29	225.91
980.59	225.91
980.88	225.96
981.17	225.95
981.46	225.95
981.76	225.92
982.05	225.98
982.34	226.02
982.63	226.03
982.93	226.04
983.22	226.07
983.51	226.04
983.80	226.05
984.09	226.08
984.39	226.08
984.68	226.11
984.97	226.10
985.26	226.09
985.55	226.10
985.85	226.08
986.14	226.11
986.43	226.12
986.72	226.10
987.01	226.08
987.30	226.07
987.59	226.05
987.89	226.06
988.18	226.02
988.47	226.01
988.76	226.03
989.05	226.01
989.34	225.97
989.63	225.98
989.92	225.96
990.22	225.97
990.51	225.98
990.80	225.93
991.09	225.94
991.38	225.96
991.67	225.95
991.96	225.95
992.25	225.93
992.54	225.88
992.83	225.89
993.12	225.89
993.41	225.90
993.70	225.93
993.99	225.93
994.28	225.93
994.58	225.91
994.87	225.92
995.16	225.93
995.45	225.90
995.74	225.90
996.03	225.93
996.32	225.92
996.61	225.91
996.90	225.91
997.19	225.90
997.48	225.91
997.77	225.85
998.06	225.85
998.34	225.82
998.63	225.84
998.92	225.85
999.21	225.84
999.50	225.85
999.79	225.83
1000.08	225.81
1000.37	225.83
1000.66	225.86
1000.95	225.84
1001.24	225.84
1001.53	225.87
1001.82	225.84
1002.11	225.80
1002.40	225.80
1002.68	225.84
1002.97	225.92
1003.26	225.89
1003.55	225.86
1003.84	225.88
1004.13	225.91
1004.42	225.94
1004.71	225.93
1004.99	225.92
1005.28	225.97
1005.57	226.01
1005.86	226.00
1006.15	226.03
1006.44	226.03
1006.72	226.02
1007.01	226.02
1007.30	226.02
1007.59	225.99
1007.88	225.98
1008.17	225.99
1008.45	225.98
1008.74	225.94
1009.03	225.91
1009.32	225.93
1009.60	225.96
1009.89	225.96
1010.18	225.95
1010.47	225.94
1010.76	225.97
1011.04	225.99
1011.33	225.99
1011.62	225.96
1011.91	225.96
1012.19	225.93
1012.48	225.91
1012.77	225.94
1013.05	225.99
1013.34	226.03
1013.63	226.05
1013.92	226.10
1014.20	226.08
1014.49	226.08
1014.78	226.11
1015.06	226.08
1015.35	226.10
1015.64	226.09
1015.92	226.11
1016.21	226.07
1016.50	226.05
1016.78	226.06
1017.07	226.04
1017.36	226.02
1017.64	226.03
1017.93	226.05
1018.22	226.07
1018.50	226.08
1018.79	226.07
1019.08	226.03
1019.36	226.00
1019.65	225.97
1019.93	225.97
1020.22	225.99
1020.51	226.04
1020.79	226.01
1021.08	226.06
1021.36	225.62
1021.65	226.58
1021.94	226.29
1022.22	226.04
1022.51	225.43
1022.79	226.13
1023.08	225.94
1023.36	227.02
1023.65	225.59
>>>>>End Processed Spectral Data<<<<<
