SpectraSuite Data File
++++++++++++++++++++++++++++++++++++
Date: Fri Feb 01 16:01:28 EST 2013
User: group
Dark Spectrum Present: No
Reference Spectrum Present: No
Number of Sampled Component Spectra: 1
Spectrometers: USB2E7196
Integration Time (usec): 35000 (USB2E7196)
Spectra Averaged: 100 (USB2E7196)
Boxcar Smoothing: 10 (USB2E7196)
Correct for Electrical Dark: No (USB2E7196)
Strobe/Lamp Enabled: No (USB2E7196)
Correct for Detector Non-linearity: No (USB2E7196)
Correct for Stray Light: No (USB2E7196)
Number of Pixels in Processed Spectrum: 2048
>>>>>Begin Processed Spectral Data<<<<<
339.09	0.00
339.48	215.13
339.86	216.20
340.24	218.01
340.63	218.76
341.01	221.89
341.39	221.86
341.78	222.87
342.16	224.03
342.54	225.26
342.93	213.15
343.31	223.93
343.69	224.45
344.07	224.92
344.46	225.32
344.84	225.72
345.22	225.96
345.60	226.22
345.99	226.42
346.37	226.59
346.75	226.70
347.13	226.77
347.52	226.79
347.90	226.86
348.28	226.91
348.66	226.99
349.05	226.98
349.43	227.03
349.81	227.11
350.19	227.16
350.57	227.20
350.96	227.22
351.34	227.32
351.72	227.42
352.10	227.50
352.48	227.59
352.87	227.64
353.25	227.68
353.63	227.75
354.01	227.82
354.39	227.88
354.77	227.94
355.15	228.05
355.54	228.14
355.92	228.15
356.30	228.20
356.68	228.32
357.06	228.36
357.44	228.44
357.82	228.49
358.20	228.59
358.58	228.65
358.97	228.74
359.35	228.78
359.73	228.87
360.11	228.93
360.49	228.97
360.87	229.03
361.25	229.11
361.63	229.17
362.01	229.20
362.39	229.24
362.77	229.26
363.15	229.27
363.53	229.29
363.91	229.33
364.29	229.36
364.67	229.25
365.05	229.27
365.43	229.27
365.81	229.26
366.19	229.32
366.57	229.32
366.95	229.30
367.33	229.27
367.71	229.24
368.09	229.23
368.47	229.20
368.85	229.12
369.23	229.13
369.61	229.05
369.99	229.01
370.37	228.95
370.75	228.98
371.13	228.95
371.51	228.91
371.89	228.87
372.27	228.80
372.65	228.76
373.03	228.72
373.41	228.63
373.78	228.58
374.16	228.44
374.54	228.37
374.92	228.33
375.30	228.28
375.68	228.18
376.06	228.11
376.44	228.05
376.82	228.06
377.19	227.97
377.57	227.89
377.95	227.82
378.33	227.77
378.71	227.61
379.09	227.53
379.47	227.48
379.84	227.41
380.22	227.34
380.60	227.28
380.98	227.22
381.36	227.15
381.73	227.09
382.11	227.03
382.49	226.96
382.87	226.89
383.25	226.81
383.62	226.87
384.00	226.82
384.38	226.77
384.76	226.71
385.13	226.69
385.51	226.66
385.89	226.61
386.27	226.57
386.64	226.55
387.02	226.51
387.40	226.42
387.78	226.39
388.15	226.35
388.53	226.32
388.91	226.26
389.29	226.25
389.66	226.21
390.04	226.20
390.42	226.23
390.79	226.22
391.17	226.24
391.55	226.11
391.92	226.09
392.30	226.10
392.68	226.10
393.05	226.05
393.43	226.07
393.81	226.10
394.18	226.07
394.56	226.10
394.94	226.12
395.31	226.14
395.69	226.20
396.06	226.26
396.44	226.28
396.82	226.32
397.19	226.41
397.57	226.47
397.95	226.52
398.32	226.52
398.70	226.60
399.07	226.65
399.45	226.75
399.82	226.84
400.20	226.88
400.58	226.95
400.95	227.04
401.33	227.11
401.70	227.25
402.08	227.40
402.45	227.49
402.83	227.62
403.20	227.79
403.58	227.86
403.95	228.02
404.33	228.17
404.71	228.29
405.08	228.48
405.46	228.61
405.83	228.75
406.21	228.90
406.58	229.04
406.96	229.18
407.33	229.34
407.70	229.52
408.08	229.79
408.45	229.98
408.83	230.18
409.20	230.44
409.58	230.61
409.95	230.86
410.33	231.15
410.70	231.42
411.08	231.69
411.45	232.02
411.82	232.33
412.20	232.68
412.57	233.10
412.95	233.38
413.32	233.81
413.69	234.22
414.07	234.65
414.44	235.13
414.82	235.64
415.19	236.20
415.56	236.75
415.94	237.33
416.31	237.97
416.68	238.59
417.06	239.28
417.43	239.97
417.81	240.70
418.18	241.44
418.55	242.22
418.93	243.13
419.30	244.00
419.67	244.89
420.04	245.84
420.42	246.83
420.79	248.02
421.16	249.16
421.54	250.33
421.91	251.57
422.28	252.82
422.66	254.15
423.03	255.42
423.40	256.73
423.77	258.11
424.15	259.51
424.52	260.98
424.89	262.58
425.26	264.09
425.64	265.55
426.01	267.16
426.38	268.85
426.75	270.46
427.13	272.18
427.50	273.99
427.87	275.88
428.24	277.72
428.61	279.45
428.99	281.35
429.36	283.46
429.73	285.49
430.10	287.51
430.47	289.55
430.85	291.67
431.22	293.88
431.59	296.29
431.96	298.55
432.33	301.02
432.70	303.40
433.08	306.20
433.45	308.80
433.82	311.37
434.19	314.25
434.56	317.08
434.93	319.76
435.30	322.38
435.68	325.27
436.05	328.15
436.42	330.91
436.79	333.45
437.16	336.18
437.53	339.02
437.90	341.86
438.27	344.62
438.64	347.44
439.01	350.07
439.38	352.30
439.75	354.44
440.13	356.97
440.50	359.33
440.87	361.16
441.24	363.12
441.61	365.31
441.98	366.76
442.35	368.57
442.72	370.42
443.09	372.21
443.46	373.22
443.83	373.72
444.20	374.25
444.57	375.08
444.94	375.30
445.31	375.63
445.68	375.93
446.05	375.98
446.42	375.58
446.79	375.13
447.16	374.68
447.53	374.37
447.90	373.17
448.27	372.00
448.64	370.49
449.01	369.33
449.37	367.37
449.74	365.50
450.11	363.18
450.48	360.70
450.85	358.20
451.22	356.01
451.59	354.05
451.96	352.12
452.33	349.52
452.70	347.22
453.07	344.40
453.43	341.53
453.80	338.79
454.17	336.16
454.54	333.59
454.91	330.85
455.28	328.18
455.65	325.71
456.02	323.25
456.38	321.05
456.75	318.41
457.12	316.12
457.49	313.86
457.86	311.75
458.23	309.92
458.59	307.85
458.96	305.79
459.33	303.95
459.70	302.07
460.07	300.56
460.43	298.83
460.80	297.25
461.17	295.81
461.54	294.27
461.91	292.81
462.27	291.39
462.64	290.14
463.01	288.83
463.38	287.55
463.74	286.18
464.11	285.04
464.48	283.99
464.85	282.90
465.21	282.08
465.58	281.15
465.95	280.05
466.32	279.15
466.68	278.24
467.05	277.35
467.42	276.47
467.78	275.51
468.15	274.62
468.52	273.93
468.88	273.08
469.25	272.32
469.62	271.72
469.98	271.07
470.35	270.44
470.72	269.81
471.08	269.15
471.45	268.61
471.82	268.09
472.18	267.54
472.55	267.15
472.92	266.66
473.28	266.20
473.65	265.74
474.02	265.29
474.38	264.94
474.75	264.57
475.11	264.20
475.48	263.98
475.85	263.77
476.21	263.53
476.58	263.33
476.94	263.22
477.31	263.05
477.67	262.92
478.04	262.83
478.41	262.77
478.77	262.79
479.14	262.74
479.50	262.77
479.87	262.81
480.23	262.89
480.60	262.92
480.96	263.03
481.33	263.25
481.69	263.47
482.06	263.69
482.42	263.91
482.79	264.18
483.15	264.50
483.52	264.88
483.88	265.23
484.25	265.60
484.61	266.02
484.98	266.49
485.34	267.05
485.71	267.66
486.07	268.27
486.44	268.86
486.80	269.57
487.17	270.29
487.53	271.10
487.90	271.94
488.26	272.89
488.62	273.89
488.99	274.88
489.35	275.92
489.72	277.04
490.08	278.28
490.44	279.56
490.81	280.89
491.17	282.26
491.54	283.78
491.90	285.37
492.26	287.04
492.63	288.78
492.99	290.52
493.36	292.41
493.72	294.44
494.08	296.60
494.45	298.85
494.81	301.25
495.17	303.72
495.54	306.31
495.90	309.01
496.26	311.80
496.63	314.74
496.99	317.80
497.35	321.05
497.72	324.47
498.08	327.98
498.44	331.65
498.80	335.58
499.17	339.59
499.53	343.76
499.89	348.12
500.26	352.62
500.62	357.34
500.98	362.29
501.34	367.36
501.71	372.65
502.07	378.09
502.43	383.74
502.79	389.58
503.16	395.65
503.52	401.96
503.88	408.38
504.24	415.08
504.60	422.06
504.97	429.20
505.33	436.49
505.69	444.18
506.05	451.99
506.41	459.85
506.78	468.00
507.14	476.48
507.50	485.15
507.86	494.17
508.22	503.34
508.59	512.58
508.95	522.18
509.31	532.00
509.67	542.12
510.03	552.36
510.39	562.86
510.75	573.61
511.12	584.53
511.48	595.82
511.84	607.16
512.20	618.59
512.56	630.51
512.92	642.63
513.28	654.95
513.64	667.49
514.00	680.19
514.37	693.15
514.73	706.14
515.09	719.19
515.45	732.52
515.81	746.11
516.17	760.04
516.53	774.18
516.89	788.32
517.25	802.47
517.61	816.90
517.97	831.36
518.33	845.77
518.69	860.57
519.05	875.57
519.41	890.82
519.77	906.41
520.13	921.86
520.49	937.24
520.85	952.75
521.21	968.34
521.57	984.56
521.93	1000.33
522.29	1016.72
522.65	1032.91
523.01	1049.11
523.37	1065.15
523.73	1081.28
524.09	1097.28
524.45	1113.54
524.81	1130.06
525.17	1146.90
525.53	1163.90
525.89	1180.82
526.25	1197.55
526.61	1213.91
526.97	1230.59
527.33	1247.01
527.68	1263.59
528.04	1280.11
528.40	1296.56
528.76	1313.65
529.12	1330.14
529.48	1346.97
529.84	1362.96
530.20	1379.69
530.56	1396.70
530.91	1414.03
531.27	1430.86
531.63	1447.35
531.99	1463.92
532.35	1479.89
532.71	1495.78
533.07	1511.83
533.42	1527.73
533.78	1543.58
534.14	1559.83
534.50	1575.20
534.86	1591.07
535.21	1606.24
535.57	1622.19
535.93	1637.75
536.29	1652.49
536.65	1667.44
537.00	1682.19
537.36	1697.53
537.72	1711.98
538.08	1726.33
538.44	1740.08
538.79	1753.91
539.15	1767.46
539.51	1781.23
539.87	1795.56
540.22	1809.14
540.58	1823.07
540.94	1836.32
541.29	1849.24
541.65	1861.79
542.01	1874.87
542.37	1887.17
542.72	1899.49
543.08	1911.17
543.44	1923.48
543.79	1934.70
544.15	1945.81
544.51	1957.35
544.87	1968.25
545.22	1978.90
545.58	1989.13
545.94	1998.90
546.29	2008.88
546.65	2018.80
547.01	2028.08
547.36	2036.80
547.72	2045.33
548.07	2052.98
548.43	2061.19
548.79	2069.35
549.14	2076.89
549.50	2084.26
549.86	2091.88
550.21	2099.31
550.57	2106.46
550.92	2113.03
551.28	2120.06
551.64	2127.00
551.99	2133.41
552.35	2139.48
552.70	2145.58
553.06	2151.54
553.41	2157.85
553.77	2163.69
554.13	2169.75
554.48	2175.86
554.84	2181.24
555.19	2186.54
555.55	2191.73
555.90	2196.18
556.26	2200.93
556.61	2205.77
556.97	2210.12
557.32	2214.34
557.68	2218.43
558.03	2222.72
558.39	2226.47
558.74	2231.11
559.10	2235.08
559.45	2238.76
559.81	2242.99
560.16	2246.98
560.52	2250.12
560.87	2253.59
561.23	2256.32
561.58	2259.31
561.94	2261.81
562.29	2264.24
562.64	2266.88
563.00	2269.42
563.35	2272.89
563.71	2276.08
564.06	2279.13
564.42	2281.88
564.77	2284.43
565.12	2286.73
565.48	2288.59
565.83	2290.39
566.19	2291.75
566.54	2292.60
566.89	2293.90
567.25	2294.54
567.60	2295.78
567.96	2297.55
568.31	2298.36
568.66	2299.44
569.02	2299.89
569.37	2300.36
569.72	2301.19
570.08	2301.34
570.43	2301.46
570.78	2300.86
571.14	2299.33
571.49	2298.06
571.84	2297.78
572.20	2296.55
572.55	2295.55
572.90	2294.08
573.26	2292.73
573.61	2290.99
573.96	2289.32
574.31	2286.40
574.67	2283.54
575.02	2280.04
575.37	2276.57
575.72	2272.87
576.08	2269.48
576.43	2266.37
576.78	2262.54
577.13	2259.46
577.49	2256.38
577.84	2252.83
578.19	2249.28
578.54	2245.70
578.90	2241.40
579.25	2235.90
579.60	2230.99
579.95	2225.95
580.30	2220.95
580.66	2215.85
581.01	2210.83
581.36	2205.74
581.71	2201.55
582.06	2196.98
582.42	2192.54
582.77	2187.35
583.12	2182.68
583.47	2177.90
583.82	2172.97
584.17	2167.80
584.53	2162.35
584.88	2156.67
585.23	2151.03
585.58	2145.39
585.93	2139.88
586.28	2135.25
586.63	2130.25
586.98	2125.24
587.34	2120.51
587.69	2115.61
588.04	2110.29
588.39	2104.78
588.74	2098.63
589.09	2092.38
589.44	2085.64
589.79	2079.67
590.14	2074.14
590.49	2067.64
590.84	2061.45
591.19	2055.35
591.54	2048.95
591.89	2041.48
592.25	2034.76
592.60	2027.39
592.95	2019.90
593.30	2012.64
593.65	2005.10
594.00	1997.96
594.35	1990.73
594.70	1982.74
595.05	1975.54
595.40	1968.32
595.75	1960.69
596.10	1954.41
596.45	1947.74
596.80	1941.70
597.15	1935.00
597.50	1927.87
597.85	1921.46
598.19	1914.76
598.54	1907.59
598.89	1900.84
599.24	1894.97
599.59	1888.31
599.94	1882.21
600.29	1875.72
600.64	1869.12
600.99	1861.65
601.34	1854.91
601.69	1848.01
602.04	1841.06
602.39	1833.73
602.74	1826.87
603.08	1820.18
603.43	1813.52
603.78	1806.14
604.13	1798.84
604.48	1791.51
604.83	1784.75
605.18	1777.77
605.53	1769.74
605.87	1761.78
606.22	1754.54
606.57	1746.71
606.92	1739.40
607.27	1732.31
607.62	1725.42
607.96	1718.09
608.31	1711.58
608.66	1704.05
609.01	1696.31
609.36	1688.73
609.70	1680.68
610.05	1672.57
610.40	1664.82
610.75	1656.40
611.10	1648.78
611.44	1640.38
611.79	1632.43
612.14	1623.69
612.49	1614.54
612.83	1606.21
613.18	1598.04
613.53	1589.99
613.88	1581.42
614.22	1573.01
614.57	1564.24
614.92	1556.36
615.27	1548.81
615.61	1540.38
615.96	1532.26
616.31	1524.70
616.65	1517.38
617.00	1509.77
617.35	1502.21
617.70	1493.98
618.04	1485.43
618.39	1477.19
618.74	1469.62
619.08	1461.30
619.43	1453.73
619.78	1446.86
620.12	1439.58
620.47	1431.95
620.82	1423.75
621.16	1416.37
621.51	1408.93
621.85	1401.46
622.20	1392.84
622.55	1384.51
622.89	1376.64
623.24	1368.99
623.59	1361.61
623.93	1354.17
624.28	1347.02
624.62	1339.45
624.97	1332.14
625.32	1325.49
625.66	1318.47
626.01	1311.30
626.35	1303.79
626.70	1296.08
627.04	1288.30
627.39	1280.56
627.73	1273.24
628.08	1266.25
628.43	1258.79
628.77	1251.31
629.12	1243.66
629.46	1236.56
629.81	1229.17
630.15	1221.88
630.50	1214.56
630.84	1206.31
631.19	1198.30
631.53	1190.76
631.88	1183.18
632.22	1175.62
632.57	1168.24
632.91	1160.69
633.26	1153.22
633.60	1145.88
633.95	1138.79
634.29	1131.77
634.64	1125.15
634.98	1117.80
635.32	1110.74
635.67	1104.22
636.01	1097.59
636.36	1090.82
636.70	1084.22
637.05	1077.63
637.39	1071.16
637.73	1064.58
638.08	1058.75
638.42	1052.74
638.77	1046.31
639.11	1039.70
639.45	1033.37
639.80	1026.69
640.14	1020.28
640.49	1013.75
640.83	1007.46
641.17	1001.11
641.52	994.69
641.86	988.20
642.20	982.32
642.55	976.03
642.89	969.55
643.23	962.99
643.58	957.15
643.92	950.98
644.26	944.88
644.61	938.95
644.95	932.93
645.29	926.32
645.64	919.64
645.98	913.28
646.32	907.46
646.66	901.34
647.01	895.50
647.35	889.74
647.69	883.84
648.04	878.28
648.38	872.55
648.72	866.53
649.06	860.50
649.41	854.66
649.75	848.60
650.09	842.64
650.43	836.91
650.78	830.81
651.12	824.79
651.46	819.07
651.80	813.25
652.14	807.82
652.49	802.40
652.83	797.16
653.17	791.42
653.51	785.68
653.85	780.32
654.20	774.69
654.54	768.63
654.88	762.90
655.22	757.02
655.56	751.30
655.90	745.80
656.25	740.55
656.59	735.16
656.93	730.16
657.27	724.96
657.61	719.47
657.95	714.39
658.29	709.35
658.64	704.05
658.98	698.75
659.32	693.28
659.66	688.06
660.00	682.74
660.34	677.85
660.68	672.92
661.02	667.85
661.36	663.19
661.70	658.85
662.05	654.46
662.39	650.10
662.73	645.63
663.07	641.34
663.41	636.89
663.75	632.40
664.09	627.76
664.43	623.41
664.77	619.35
665.11	615.06
665.45	610.90
665.79	606.92
666.13	602.74
666.47	598.70
666.81	594.54
667.15	590.43
667.49	586.52
667.83	582.68
668.17	578.77
668.51	574.68
668.85	570.57
669.19	566.79
669.53	563.00
669.87	559.13
670.21	555.39
670.55	551.72
670.89	548.29
671.23	544.85
671.57	541.34
671.91	537.71
672.25	534.17
672.58	530.65
672.92	527.15
673.26	523.99
673.60	520.82
673.94	517.70
674.28	514.83
674.62	511.89
674.96	508.77
675.30	505.87
675.64	502.92
675.97	500.13
676.31	497.26
676.65	494.31
676.99	491.56
677.33	488.69
677.67	485.90
678.01	482.79
678.34	479.81
678.68	476.95
679.02	474.15
679.36	471.45
679.70	468.77
680.04	466.04
680.37	463.17
680.71	460.37
681.05	457.76
681.39	454.99
681.73	452.32
682.06	449.78
682.40	447.21
682.74	444.73
683.08	442.16
683.42	439.62
683.75	437.09
684.09	434.57
684.43	432.14
684.77	429.65
685.10	427.38
685.44	425.10
685.78	422.85
686.12	420.62
686.45	418.31
686.79	415.98
687.13	413.77
687.46	411.64
687.80	409.48
688.14	407.26
688.48	405.23
688.81	403.00
689.15	400.90
689.49	398.74
689.82	396.65
690.16	394.56
690.50	392.57
690.83	390.65
691.17	388.63
691.51	386.74
691.84	384.90
692.18	382.94
692.52	380.91
692.85	378.92
693.19	377.04
693.52	375.22
693.86	373.45
694.20	371.71
694.53	369.92
694.87	368.05
695.21	366.32
695.54	364.47
695.88	362.71
696.21	361.01
696.55	359.33
696.88	357.65
697.22	355.99
697.56	354.36
697.89	352.69
698.23	351.12
698.56	349.50
698.90	347.91
699.23	346.27
699.57	344.73
699.90	343.20
700.24	341.67
700.58	340.13
700.91	338.59
701.25	337.12
701.58	335.73
701.92	334.40
702.25	333.01
702.59	331.65
702.92	330.40
703.26	329.06
703.59	327.77
703.93	326.59
704.26	325.32
704.60	324.02
704.93	322.75
705.26	321.48
705.60	320.28
705.93	319.09
706.27	318.05
706.60	316.99
706.94	315.92
707.27	314.75
707.61	313.71
707.94	312.68
708.27	311.56
708.61	310.46
708.94	309.41
709.28	308.43
709.61	307.47
709.94	306.46
710.28	305.44
710.61	304.47
710.95	303.38
711.28	302.51
711.61	301.58
711.95	300.68
712.28	299.73
712.61	298.76
712.95	297.83
713.28	296.95
713.61	296.06
713.95	295.15
714.28	294.32
714.61	293.43
714.95	292.57
715.28	291.71
715.61	290.83
715.95	289.97
716.28	289.11
716.61	288.29
716.95	287.47
717.28	286.70
717.61	285.92
717.94	285.17
718.28	284.38
718.61	283.66
718.94	282.94
719.27	282.28
719.61	281.64
719.94	281.00
720.27	280.30
720.60	279.63
720.94	278.98
721.27	278.35
721.60	277.76
721.93	277.18
722.27	276.66
722.60	276.15
722.93	275.59
723.26	275.03
723.59	274.45
723.93	273.91
724.26	273.35
724.59	272.80
724.92	272.24
725.25	271.76
725.59	271.21
725.92	270.73
726.25	270.22
726.58	269.71
726.91	269.19
727.24	268.70
727.57	268.25
727.91	267.80
728.24	267.32
728.57	266.85
728.90	266.42
729.23	265.90
729.56	265.46
729.89	265.02
730.22	264.54
730.55	264.10
730.89	263.65
731.22	263.22
731.55	262.82
731.88	262.47
732.21	262.01
732.54	261.57
732.87	261.16
733.20	260.77
733.53	260.40
733.86	260.04
734.19	259.66
734.52	259.27
734.85	258.93
735.18	258.53
735.51	258.16
735.84	257.77
736.17	257.46
736.50	257.05
736.83	256.82
737.16	256.46
737.49	256.11
737.82	255.80
738.15	255.50
738.48	255.15
738.81	254.81
739.14	254.51
739.47	254.17
739.80	253.88
740.13	253.58
740.46	253.25
740.79	252.90
741.12	252.60
741.45	252.30
741.78	251.95
742.11	251.70
742.44	251.38
742.77	251.07
743.10	250.72
743.43	250.41
743.75	250.02
744.08	249.89
744.41	249.59
744.74	249.31
745.07	248.99
745.40	248.73
745.73	248.48
746.06	248.16
746.39	247.94
746.71	247.63
747.04	247.33
747.37	247.04
747.70	246.77
748.03	246.51
748.36	246.28
748.68	246.03
749.01	245.77
749.34	245.53
749.67	245.33
750.00	245.14
750.33	245.04
750.65	244.81
750.98	244.47
751.31	244.27
751.64	244.05
751.97	243.90
752.29	243.68
752.62	243.42
752.95	243.25
753.28	243.04
753.60	242.84
753.93	242.69
754.26	242.50
754.59	242.31
754.91	242.08
755.24	241.87
755.57	241.66
755.90	241.49
756.22	241.33
756.55	241.09
756.88	240.88
757.20	240.62
757.53	240.43
757.86	240.24
758.19	240.10
758.51	239.92
758.84	239.69
759.17	239.51
759.49	239.37
759.82	239.23
760.15	239.07
760.47	238.94
760.80	238.76
761.13	238.62
761.45	238.47
761.78	238.34
762.11	238.16
762.43	238.04
762.76	237.90
763.08	237.78
763.41	237.65
763.74	237.55
764.06	237.41
764.39	237.26
764.71	237.11
765.04	236.94
765.37	236.83
765.69	236.75
766.02	236.63
766.34	236.49
766.67	236.34
767.00	236.28
767.32	236.18
767.65	236.14
767.97	236.05
768.30	235.95
768.62	235.86
768.95	235.79
769.27	235.66
769.60	235.54
769.92	235.40
770.25	235.31
770.57	235.17
770.90	235.10
771.22	235.01
771.55	234.91
771.87	234.88
772.20	234.79
772.52	234.77
772.85	234.81
773.17	234.75
773.50	234.69
773.82	234.57
774.15	234.46
774.47	234.30
774.80	234.20
775.12	234.12
775.45	234.00
775.77	233.93
776.09	233.88
776.42	233.81
776.74	233.79
777.07	233.68
777.39	233.63
777.72	233.52
778.04	233.49
778.36	233.45
778.69	233.38
779.01	233.33
779.33	233.12
779.66	232.99
779.98	232.89
780.31	232.81
780.63	232.80
780.95	232.76
781.28	232.71
781.60	232.65
781.92	232.60
782.25	232.53
782.57	232.47
782.89	232.40
783.22	232.36
783.54	232.27
783.86	232.26
784.19	232.17
784.51	232.14
784.83	232.04
785.16	231.97
785.48	231.88
785.80	231.80
786.12	231.79
786.45	231.69
786.77	231.63
787.09	231.53
787.42	231.43
787.74	231.37
788.06	231.28
788.38	231.24
788.71	231.16
789.03	231.14
789.35	231.10
789.67	231.05
789.99	231.02
790.32	230.94
790.64	230.88
790.96	230.89
791.28	230.84
791.61	230.79
791.93	230.76
792.25	230.72
792.57	230.77
792.89	230.69
793.21	230.67
793.54	230.65
793.86	230.61
794.18	230.57
794.50	230.49
794.82	230.45
795.14	230.42
795.47	230.43
795.79	230.39
796.11	230.34
796.43	230.30
796.75	230.26
797.07	230.23
797.39	230.18
797.71	230.14
798.04	230.11
798.36	230.07
798.68	230.04
799.00	230.02
799.32	229.91
799.64	229.95
799.96	229.93
800.28	229.91
800.60	229.87
800.92	229.87
801.24	229.84
801.56	229.84
801.89	229.81
802.21	229.74
802.53	229.70
802.85	229.65
803.17	229.66
803.49	229.59
803.81	229.53
804.13	229.50
804.45	229.43
804.77	229.41
805.09	229.42
805.41	229.37
805.73	229.31
806.05	229.26
806.37	229.21
806.69	229.15
807.01	229.10
807.33	229.08
807.65	229.00
807.97	229.02
808.28	229.00
808.60	229.01
808.92	228.96
809.24	229.02
809.56	228.99
809.88	228.95
810.20	228.94
810.52	228.95
810.84	228.93
811.16	228.91
811.48	228.88
811.80	228.87
812.12	228.83
812.43	228.82
812.75	228.81
813.07	228.78
813.39	228.77
813.71	228.77
814.03	228.77
814.35	228.76
814.67	228.70
814.98	228.64
815.30	228.56
815.62	228.51
815.94	228.44
816.26	228.47
816.58	228.41
816.89	228.44
817.21	228.43
817.53	228.40
817.85	228.40
818.17	228.35
818.48	228.31
818.80	228.33
819.12	228.29
819.44	228.27
819.76	228.24
820.07	228.21
820.39	228.17
820.71	228.17
821.03	228.16
821.34	228.13
821.66	228.16
821.98	228.16
822.30	228.18
822.61	228.18
822.93	228.14
823.25	228.13
823.57	228.07
823.88	228.06
824.20	228.06
824.52	228.05
824.83	228.05
825.15	228.04
825.47	228.01
825.79	228.02
826.10	227.99
826.42	227.97
826.74	227.97
827.05	227.95
827.37	227.92
827.69	227.92
828.00	227.91
828.32	227.91
828.64	227.90
828.95	227.90
829.27	227.91
829.58	227.92
829.90	227.94
830.22	227.95
830.53	227.92
830.85	227.89
831.17	227.86
831.48	227.85
831.80	227.85
832.11	227.86
832.43	227.83
832.75	227.82
833.06	227.88
833.38	227.84
833.69	227.83
834.01	227.83
834.32	227.83
834.64	227.82
834.96	227.79
835.27	227.75
835.59	227.72
835.90	227.69
836.22	227.66
836.53	227.66
836.85	227.65
837.16	227.74
837.48	227.74
837.79	227.76
838.11	227.74
838.42	227.68
838.74	227.67
839.05	227.63
839.37	227.66
839.68	227.57
840.00	227.58
840.31	227.60
840.63	227.58
840.94	227.55
841.26	227.51
841.57	227.51
841.88	227.51
842.20	227.53
842.51	227.48
842.83	227.42
843.14	227.44
843.46	227.40
843.77	227.35
844.08	227.37
844.40	227.34
844.71	227.33
845.03	227.34
845.34	227.36
845.65	227.40
845.97	227.39
846.28	227.42
846.60	227.39
846.91	227.36
847.22	227.32
847.54	227.33
847.85	227.38
848.16	227.36
848.48	227.36
848.79	227.37
849.10	227.40
849.42	227.44
849.73	227.38
850.04	227.38
850.36	227.32
850.67	227.30
850.98	227.26
851.30	227.26
851.61	227.28
851.92	227.26
852.23	227.24
852.55	227.23
852.86	227.18
853.17	227.17
853.49	227.21
853.80	227.27
854.11	227.28
854.42	227.25
854.74	227.24
855.05	227.26
855.36	227.19
855.67	227.20
855.99	227.22
856.30	227.32
856.61	227.32
856.92	227.31
857.23	227.29
857.55	227.32
857.86	227.33
858.17	227.33
858.48	227.31
858.79	227.27
859.11	227.29
859.42	227.31
859.73	227.32
860.04	227.31
860.35	227.27
860.66	227.20
860.98	227.21
861.29	227.19
861.60	227.19
861.91	227.21
862.22	227.15
862.53	227.10
862.84	226.96
863.16	226.97
863.47	227.00
863.78	227.02
864.09	227.01
864.40	227.03
864.71	227.02
865.02	227.02
865.33	227.04
865.64	227.02
865.95	227.02
866.27	227.07
866.58	227.07
866.89	227.08
867.20	227.08
867.51	227.08
867.82	227.10
868.13	227.12
868.44	227.10
868.75	227.14
869.06	227.14
869.37	227.17
869.68	227.14
869.99	227.12
870.30	227.12
870.61	227.16
870.92	227.12
871.23	227.12
871.54	227.15
871.85	227.15
872.16	227.14
872.47	227.12
872.78	227.08
873.09	227.07
873.40	227.03
873.71	227.08
874.02	227.09
874.33	227.08
874.64	227.06
874.95	227.08
875.26	227.05
875.56	227.05
875.87	227.07
876.18	227.08
876.49	227.15
876.80	227.13
877.11	227.08
877.42	227.08
877.73	227.06
878.04	227.03
878.35	227.01
878.66	227.00
878.96	226.98
879.27	226.94
879.58	226.93
879.89	226.95
880.20	226.94
880.51	226.92
880.82	226.93
881.12	226.89
881.43	226.88
881.74	226.86
882.05	226.87
882.36	226.85
882.67	226.85
882.97	226.77
883.28	226.79
883.59	226.79
883.90	226.79
884.21	226.81
884.51	226.80
884.82	226.83
885.13	226.85
885.44	226.85
885.74	226.86
886.05	226.88
886.36	226.86
886.67	226.86
886.98	226.88
887.28	226.85
887.59	226.83
887.90	226.82
888.20	226.86
888.51	226.86
888.82	226.84
889.13	226.82
889.43	226.89
889.74	226.86
890.05	226.85
890.35	226.85
890.66	226.83
890.97	226.85
891.28	226.84
891.58	226.83
891.89	226.85
892.20	226.85
892.50	226.81
892.81	226.83
893.12	226.81
893.42	226.78
893.73	226.81
894.04	226.82
894.34	226.84
894.65	226.80
894.95	226.79
895.26	226.80
895.57	226.84
895.87	226.75
896.18	226.77
896.48	226.80
896.79	226.84
897.10	226.87
897.40	226.84
897.71	226.84
898.01	226.86
898.32	226.84
898.63	226.82
898.93	226.85
899.24	226.84
899.54	226.86
899.85	226.88
900.15	226.89
900.46	226.92
900.76	226.91
901.07	226.91
901.38	226.91
901.68	226.92
901.99	226.90
902.29	226.93
902.60	226.94
902.90	226.92
903.21	226.86
903.51	226.84
903.82	226.87
904.12	226.88
904.43	226.89
904.73	226.92
905.03	226.97
905.34	227.08
905.64	227.09
905.95	227.05
906.25	227.03
906.56	227.02
906.86	227.01
907.17	227.01
907.47	227.04
907.77	227.04
908.08	227.03
908.38	227.02
908.69	227.04
908.99	227.05
909.30	227.09
909.60	227.14
909.90	227.16
910.21	227.14
910.51	227.15
910.81	227.10
911.12	227.11
911.42	227.10
911.73	226.98
912.03	226.98
912.33	227.02
912.64	227.02
912.94	227.03
913.24	227.02
913.55	227.01
913.85	226.99
914.15	227.00
914.46	227.00
914.76	226.99
915.06	226.99
915.37	226.97
915.67	226.93
915.97	226.90
916.27	226.88
916.58	226.87
916.88	226.86
917.18	226.86
917.49	226.90
917.79	226.91
918.09	226.93
918.39	226.93
918.70	226.89
919.00	226.89
919.30	226.90
919.60	226.90
919.91	226.89
920.21	226.87
920.51	226.85
920.81	226.83
921.12	226.84
921.42	226.79
921.72	226.79
922.02	226.77
922.32	226.79
922.63	226.77
922.93	226.83
923.23	226.83
923.53	226.79
923.83	226.71
924.13	226.70
924.44	226.68
924.74	226.73
925.04	226.80
925.34	226.79
925.64	226.80
925.94	226.78
926.24	226.85
926.55	226.83
926.85	226.85
927.15	226.85
927.45	226.84
927.75	226.87
928.05	226.84
928.35	226.82
928.65	226.79
928.95	226.81
929.26	226.75
929.56	226.74
929.86	226.77
930.16	226.78
930.46	226.77
930.76	226.77
931.06	226.67
931.36	226.61
931.66	226.64
931.96	226.60
932.26	226.57
932.56	226.53
932.86	226.55
933.16	226.53
933.46	226.54
933.76	226.54
934.06	226.58
934.36	226.61
934.66	226.65
934.96	226.67
935.26	226.68
935.56	226.70
935.86	226.68
936.16	226.67
936.46	226.64
936.76	226.64
937.06	226.61
937.36	226.63
937.66	226.65
937.96	226.63
938.26	226.64
938.56	226.69
938.86	226.73
939.16	226.76
939.46	226.76
939.76	226.75
940.06	226.75
940.35	226.69
940.65	226.69
940.95	226.69
941.25	226.69
941.55	226.68
941.85	226.66
942.15	226.72
942.45	226.76
942.75	226.78
943.04	226.80
943.34	226.83
943.64	226.84
943.94	226.84
944.24	226.83
944.54	226.84
944.84	226.81
945.13	226.76
945.43	226.73
945.73	226.76
946.03	226.76
946.33	226.74
946.62	226.76
946.92	226.74
947.22	226.74
947.52	226.74
947.82	226.74
948.11	226.77
948.41	226.72
948.71	226.66
949.01	226.67
949.31	226.65
949.60	226.66
949.90	226.66
950.20	226.66
950.50	226.63
950.79	226.60
951.09	226.60
951.39	226.58
951.69	226.59
951.98	226.57
952.28	226.58
952.58	226.57
952.87	226.55
953.17	226.58
953.47	226.55
953.76	226.53
954.06	226.51
954.36	226.47
954.66	226.49
954.95	226.51
955.25	226.52
955.55	226.53
955.84	226.48
956.14	226.48
956.44	226.44
956.73	226.44
957.03	226.45
957.32	226.43
957.62	226.47
957.92	226.44
958.21	226.43
958.51	226.51
958.81	226.51
959.10	226.51
959.40	226.50
959.69	226.51
959.99	226.52
960.29	226.50
960.58	226.52
960.88	226.54
961.17	226.51
961.47	226.54
961.76	226.53
962.06	226.56
962.36	226.60
962.65	226.63
962.95	226.63
963.24	226.64
963.54	226.67
963.83	226.65
964.13	226.67
964.42	226.66
964.72	226.59
965.01	226.62
965.31	226.62
965.60	226.61
965.90	226.65
966.19	226.62
966.49	226.65
966.78	226.62
967.08	226.58
967.37	226.61
967.67	226.58
967.96	226.59
968.26	226.60
968.55	226.56
968.85	226.55
969.14	226.57
969.43	226.55
969.73	226.55
970.02	226.55
970.32	226.52
970.61	226.54
970.91	226.52
971.20	226.49
971.49	226.49
971.79	226.46
972.08	226.39
972.38	226.40
972.67	226.40
972.96	226.44
973.26	226.40
973.55	226.41
973.85	226.41
974.14	226.39
974.43	226.39
974.73	226.40
975.02	226.38
975.31	226.38
975.61	226.41
975.90	226.43
976.19	226.42
976.49	226.42
976.78	226.44
977.07	226.44
977.37	226.46
977.66	226.46
977.95	226.48
978.24	226.51
978.54	226.54
978.83	226.54
979.12	226.52
979.42	226.54
979.71	226.52
980.00	226.52
980.29	226.52
980.59	226.48
980.88	226.47
981.17	226.47
981.46	226.49
981.76	226.48
982.05	226.47
982.34	226.50
982.63	226.50
982.93	226.47
983.22	226.51
983.51	226.54
983.80	226.54
984.09	226.58
984.39	226.59
984.68	226.54
984.97	226.53
985.26	226.55
985.55	226.56
985.85	226.55
986.14	226.57
986.43	226.55
986.72	226.54
987.01	226.51
987.30	226.51
987.59	226.48
987.89	226.48
988.18	226.45
988.47	226.40
988.76	226.39
989.05	226.35
989.34	226.29
989.63	226.27
989.92	226.26
990.22	226.19
990.51	226.19
990.80	226.19
991.09	226.21
991.38	226.22
991.67	226.23
991.96	226.22
992.25	226.23
992.54	226.22
992.83	226.24
993.12	226.24
993.41	226.25
993.70	226.28
993.99	226.26
994.28	226.25
994.58	226.28
994.87	226.33
995.16	226.34
995.45	226.35
995.74	226.32
996.03	226.35
996.32	226.39
996.61	226.43
996.90	226.45
997.19	226.44
997.48	226.45
997.77	226.43
998.06	226.46
998.34	226.43
998.63	226.46
998.92	226.50
999.21	226.51
999.50	226.52
999.79	226.49
1000.08	226.51
1000.37	226.53
1000.66	226.53
1000.95	226.53
1001.24	226.57
1001.53	226.60
1001.82	226.61
1002.11	226.58
1002.40	226.59
1002.68	226.59
1002.97	226.67
1003.26	226.65
1003.55	226.62
1003.84	226.63
1004.13	226.64
1004.42	226.66
1004.71	226.64
1004.99	226.61
1005.28	226.65
1005.57	226.65
1005.86	226.64
1006.15	226.64
1006.44	226.64
1006.72	226.66
1007.01	226.66
1007.30	226.67
1007.59	226.65
1007.88	226.66
1008.17	226.67
1008.45	226.67
1008.74	226.60
1009.03	226.54
1009.32	226.54
1009.60	226.56
1009.89	226.50
1010.18	226.49
1010.47	226.48
1010.76	226.51
1011.04	226.51
1011.33	226.53
1011.62	226.54
1011.91	226.57
1012.19	226.58
1012.48	226.55
1012.77	226.55
1013.05	226.58
1013.34	226.57
1013.63	226.56
1013.92	226.56
1014.20	226.56
1014.49	226.53
1014.78	226.60
1015.06	226.55
1015.35	226.59
1015.64	226.55
1015.92	226.60
1016.21	226.57
1016.50	226.59
1016.78	226.55
1017.07	226.54
1017.36	226.49
1017.64	226.46
1017.93	226.46
1018.22	226.45
1018.50	226.47
1018.79	226.46
1019.08	226.41
1019.36	226.38
1019.65	226.40
1019.93	226.41
1020.22	226.43
1020.51	226.48
1020.79	226.45
1021.08	226.28
1021.36	226.33
1021.65	226.51
1021.94	226.40
1022.22	226.33
1022.51	226.59
1022.79	226.69
1023.08	227.03
1023.36	227.22
1023.65	226.40
>>>>>End Processed Spectral Data<<<<<
