SpectraSuite Data File
++++++++++++++++++++++++++++++++++++
Date: Fri Feb 01 17:47:04 EST 2013
User: group
Dark Spectrum Present: No
Reference Spectrum Present: No
Number of Sampled Component Spectra: 1
Spectrometers: USB2E7196
Integration Time (usec): 35000 (USB2E7196)
Spectra Averaged: 100 (USB2E7196)
Boxcar Smoothing: 10 (USB2E7196)
Correct for Electrical Dark: No (USB2E7196)
Strobe/Lamp Enabled: No (USB2E7196)
Correct for Detector Non-linearity: No (USB2E7196)
Correct for Stray Light: No (USB2E7196)
Number of Pixels in Processed Spectrum: 2048
>>>>>Begin Processed Spectral Data<<<<<
339.09	0.00
339.48	212.30
339.86	214.41
340.24	215.64
340.63	216.72
341.01	219.49
341.39	219.54
341.78	221.01
342.16	222.19
342.54	222.91
342.93	211.13
343.31	221.80
343.69	222.37
344.07	222.82
344.46	223.24
344.84	223.64
345.22	223.87
345.60	224.12
345.99	224.31
346.37	224.41
346.75	224.52
347.13	224.58
347.52	224.65
347.90	224.71
348.28	224.76
348.66	224.79
349.05	224.79
349.43	224.85
349.81	224.92
350.19	224.98
350.57	225.09
350.96	225.16
351.34	225.28
351.72	225.34
352.10	225.45
352.48	225.53
352.87	225.59
353.25	225.68
353.63	225.76
354.01	225.84
354.39	225.93
354.77	225.98
355.15	226.11
355.54	226.16
355.92	226.16
356.30	226.21
356.68	226.36
357.06	226.42
357.44	226.48
357.82	226.55
358.20	226.62
358.58	226.63
358.97	226.73
359.35	226.78
359.73	226.87
360.11	226.92
360.49	226.99
360.87	227.03
361.25	227.07
361.63	227.13
362.01	227.18
362.39	227.21
362.77	227.26
363.15	227.27
363.53	227.27
363.91	227.32
364.29	227.34
364.67	227.24
365.05	227.25
365.43	227.26
365.81	227.25
366.19	227.31
366.57	227.38
366.95	227.37
367.33	227.35
367.71	227.32
368.09	227.32
368.47	227.30
368.85	227.26
369.23	227.24
369.61	227.19
369.99	227.18
370.37	227.18
370.75	227.19
371.13	227.14
371.51	227.10
371.89	227.08
372.27	227.07
372.65	227.03
373.03	226.99
373.41	226.93
373.78	226.88
374.16	226.75
374.54	226.65
374.92	226.57
375.30	226.50
375.68	226.45
376.06	226.38
376.44	226.30
376.82	226.24
377.19	226.19
377.57	226.14
377.95	226.05
378.33	225.96
378.71	225.85
379.09	225.81
379.47	225.76
379.84	225.68
380.22	225.58
380.60	225.50
380.98	225.44
381.36	225.35
381.73	225.25
382.11	225.20
382.49	225.14
382.87	225.09
383.25	225.05
383.62	225.10
384.00	225.03
384.38	224.99
384.76	224.98
385.13	224.96
385.51	224.90
385.89	224.86
386.27	224.81
386.64	224.77
387.02	224.73
387.40	224.71
387.78	224.65
388.15	224.60
388.53	224.59
388.91	224.56
389.29	224.53
389.66	224.53
390.04	224.51
390.42	224.51
390.79	224.50
391.17	224.47
391.55	224.32
391.92	224.33
392.30	224.34
392.68	224.31
393.05	224.30
393.43	224.29
393.81	224.28
394.18	224.31
394.56	224.34
394.94	224.37
395.31	224.39
395.69	224.47
396.06	224.53
396.44	224.54
396.82	224.57
397.19	224.67
397.57	224.71
397.95	224.77
398.32	224.78
398.70	224.80
399.07	224.87
399.45	224.97
399.82	224.99
400.20	225.03
400.58	225.11
400.95	225.16
401.33	225.29
401.70	225.45
402.08	225.51
402.45	225.60
402.83	225.73
403.20	225.83
403.58	225.93
403.95	226.03
404.33	226.19
404.71	226.33
405.08	226.52
405.46	226.68
405.83	226.85
406.21	226.97
406.58	227.15
406.96	227.34
407.33	227.53
407.70	227.77
408.08	228.08
408.45	228.33
408.83	228.59
409.20	228.81
409.58	229.05
409.95	229.36
410.33	229.68
410.70	229.96
411.08	230.31
411.45	230.66
411.82	231.03
412.20	231.46
412.57	231.94
412.95	232.33
413.32	232.83
413.69	233.30
414.07	233.84
414.44	234.43
414.82	235.00
415.19	235.68
415.56	236.40
415.94	237.10
416.31	237.89
416.68	238.70
417.06	239.58
417.43	240.41
417.81	241.38
418.18	242.35
418.55	243.45
418.93	244.57
419.30	245.75
419.67	246.98
420.04	248.22
420.42	249.47
420.79	250.96
421.16	252.41
421.54	253.94
421.91	255.56
422.28	257.22
422.66	258.94
423.03	260.59
423.40	262.29
423.77	264.09
424.15	265.92
424.52	267.82
424.89	269.88
425.26	271.91
425.64	273.79
426.01	275.85
426.38	277.94
426.75	280.07
427.13	282.23
427.50	284.53
427.87	286.95
428.24	289.39
428.61	291.62
428.99	294.09
429.36	296.81
429.73	299.43
430.10	302.01
430.47	304.67
430.85	307.43
431.22	310.31
431.59	313.31
431.96	316.21
432.33	319.41
432.70	322.49
433.08	326.05
433.45	329.38
433.82	332.69
434.19	336.36
434.56	339.96
434.93	343.41
435.30	346.77
435.68	350.43
436.05	354.02
436.42	357.63
436.79	360.92
437.16	364.34
437.53	367.97
437.90	371.55
438.27	375.01
438.64	378.60
439.01	381.87
439.38	384.77
439.75	387.54
440.13	390.73
440.50	393.71
440.87	396.13
441.24	398.65
441.61	401.46
441.98	403.41
442.35	405.71
442.72	408.09
443.09	410.40
443.46	411.69
443.83	412.50
444.20	413.10
444.57	414.12
444.94	414.58
445.31	415.06
445.68	415.52
446.05	415.66
446.42	415.19
446.79	414.73
447.16	414.18
447.53	413.79
447.90	412.31
448.27	410.89
448.64	408.82
449.01	407.38
449.37	404.83
449.74	402.41
450.11	399.55
450.48	396.38
450.85	393.19
451.22	390.46
451.59	387.89
451.96	385.47
452.33	382.18
452.70	379.14
453.07	375.51
453.43	371.84
453.80	368.31
454.17	364.88
454.54	361.63
454.91	358.13
455.28	354.73
455.65	351.54
456.02	348.33
456.38	345.57
456.75	342.12
457.12	339.25
457.49	336.40
457.86	333.63
458.23	331.22
458.59	328.59
458.96	325.93
459.33	323.46
459.70	321.02
460.07	319.02
460.43	316.78
460.80	314.63
461.17	312.72
461.54	310.76
461.91	308.90
462.27	307.00
462.64	305.36
463.01	303.55
463.38	301.83
463.74	300.07
464.11	298.57
464.48	297.22
464.85	295.76
465.21	294.59
465.58	293.36
465.95	291.93
466.32	290.71
466.68	289.49
467.05	288.37
467.42	287.23
467.78	286.05
468.15	284.89
468.52	284.01
468.88	282.90
469.25	281.95
469.62	281.13
469.98	280.23
470.35	279.39
470.72	278.63
471.08	277.81
471.45	277.11
471.82	276.40
472.18	275.62
472.55	275.09
472.92	274.37
473.28	273.77
473.65	273.21
474.02	272.64
474.38	272.14
474.75	271.69
475.11	271.26
475.48	270.90
475.85	270.60
476.21	270.30
476.58	270.04
476.94	269.76
477.31	269.54
477.67	269.31
478.04	269.11
478.41	268.95
478.77	268.92
479.14	268.78
479.50	268.74
479.87	268.81
480.23	268.79
480.60	268.85
480.96	268.90
481.33	269.07
481.69	269.28
482.06	269.46
482.42	269.63
482.79	269.85
483.15	270.14
483.52	270.50
483.88	270.84
484.25	271.23
484.61	271.63
484.98	272.06
485.34	272.66
485.71	273.27
486.07	273.91
486.44	274.52
486.80	275.23
487.17	276.01
487.53	276.83
487.90	277.76
488.26	278.71
488.62	279.72
488.99	280.71
489.35	281.75
489.72	282.91
490.08	284.17
490.44	285.44
490.81	286.82
491.17	288.21
491.54	289.73
491.90	291.32
492.26	293.04
492.63	294.83
492.99	296.67
493.36	298.69
493.72	300.82
494.08	302.99
494.45	305.32
494.81	307.74
495.17	310.29
495.54	312.93
495.90	315.76
496.26	318.71
496.63	321.80
496.99	325.02
497.35	328.44
497.72	331.90
498.08	335.59
498.44	339.39
498.80	343.47
499.17	347.66
499.53	352.01
499.89	356.59
500.26	361.29
500.62	366.18
500.98	371.29
501.34	376.57
501.71	382.13
502.07	387.87
502.43	393.77
502.79	399.80
503.16	406.14
503.52	412.64
503.88	419.30
504.24	426.23
504.60	433.45
504.97	440.86
505.33	448.54
505.69	456.57
506.05	464.71
506.41	473.04
506.78	481.64
507.14	490.48
507.50	499.62
507.86	509.10
508.22	518.72
508.59	528.44
508.95	538.45
509.31	548.70
509.67	559.28
510.03	570.10
510.39	581.25
510.75	592.54
511.12	604.02
511.48	615.89
511.84	627.91
512.20	640.02
512.56	652.61
512.92	665.37
513.28	678.43
513.64	691.59
514.00	704.93
514.37	718.51
514.73	732.29
515.09	746.08
515.45	760.08
515.81	774.45
516.17	789.11
516.53	804.11
516.89	819.15
517.25	834.22
517.61	849.44
517.97	864.76
518.33	880.15
518.69	895.83
519.05	911.75
519.41	927.97
519.77	944.51
520.13	961.02
520.49	977.58
520.85	993.90
521.21	1010.67
521.57	1027.99
521.93	1044.92
522.29	1062.34
522.65	1079.65
523.01	1097.01
523.37	1114.20
523.73	1131.65
524.09	1148.88
524.45	1166.27
524.81	1184.05
525.17	1202.06
525.53	1220.21
525.89	1238.30
526.25	1256.56
526.61	1274.32
526.97	1292.29
527.33	1310.12
527.68	1327.96
528.04	1345.79
528.40	1363.85
528.76	1382.26
529.12	1400.26
529.48	1418.57
529.84	1435.93
530.20	1454.10
530.56	1472.58
530.91	1491.52
531.27	1509.82
531.63	1527.82
531.99	1546.01
532.35	1563.67
532.71	1581.27
533.07	1599.10
533.42	1616.72
533.78	1634.32
534.14	1652.05
534.50	1668.98
534.86	1686.39
535.21	1703.17
535.57	1720.61
535.93	1737.75
536.29	1754.15
536.65	1770.81
537.00	1787.06
537.36	1804.33
537.72	1820.39
538.08	1836.63
538.44	1852.14
538.79	1867.78
539.15	1883.06
539.51	1898.47
539.87	1914.57
540.22	1929.92
540.58	1945.33
540.94	1960.29
541.29	1974.74
541.65	1989.25
542.01	2004.35
542.37	2018.56
542.72	2032.75
543.08	2046.38
543.44	2060.74
543.79	2073.80
544.15	2086.55
544.51	2100.06
544.87	2112.68
545.22	2125.25
545.58	2137.10
545.94	2148.57
546.29	2160.06
546.65	2171.77
547.01	2182.80
547.36	2193.17
547.72	2203.40
548.07	2213.09
548.43	2222.94
548.79	2232.60
549.14	2241.81
549.50	2250.54
549.86	2259.67
550.21	2268.67
550.57	2277.50
550.92	2285.48
551.28	2294.28
551.64	2302.96
551.99	2310.88
552.35	2318.62
552.70	2326.36
553.06	2333.84
553.41	2341.70
553.77	2349.17
554.13	2356.65
554.48	2364.45
554.84	2371.41
555.19	2378.04
555.55	2384.58
555.90	2390.37
556.26	2396.86
556.61	2403.02
556.97	2408.93
557.32	2414.53
557.68	2419.99
558.03	2425.59
558.39	2430.49
558.74	2436.37
559.10	2441.53
559.45	2446.60
559.81	2452.10
560.16	2457.30
560.52	2461.90
560.87	2466.50
561.23	2470.40
561.58	2474.53
561.94	2478.10
562.29	2481.42
562.64	2485.44
563.00	2489.06
563.35	2493.69
563.71	2497.99
564.06	2502.24
564.42	2506.34
564.77	2509.97
565.12	2513.37
565.48	2516.25
565.83	2519.25
566.19	2521.59
566.54	2523.28
566.89	2525.37
567.25	2526.81
567.60	2528.96
567.96	2531.50
568.31	2533.13
568.66	2535.18
569.02	2536.61
569.37	2537.66
569.72	2539.40
570.08	2540.13
570.43	2540.90
570.78	2541.20
571.14	2540.18
571.49	2539.21
571.84	2539.22
572.20	2538.73
572.55	2538.22
572.90	2536.98
573.26	2536.10
573.61	2534.60
573.96	2533.39
574.31	2530.73
574.67	2528.26
575.02	2524.80
575.37	2521.54
575.72	2518.09
576.08	2514.62
576.43	2511.27
576.78	2507.83
577.13	2504.65
577.49	2501.57
577.84	2498.12
578.19	2494.33
578.54	2490.87
578.90	2486.81
579.25	2480.98
579.60	2475.70
579.95	2470.52
580.30	2465.48
580.66	2460.05
581.01	2454.94
581.36	2449.88
581.71	2445.66
582.06	2441.05
582.42	2436.43
582.77	2431.16
583.12	2426.31
583.47	2421.61
583.82	2416.39
584.17	2410.81
584.53	2405.00
584.88	2399.14
585.23	2393.15
585.58	2387.25
585.93	2381.20
586.28	2375.98
586.63	2370.88
586.98	2365.54
587.34	2360.44
587.69	2355.12
588.04	2349.75
588.39	2343.71
588.74	2336.55
589.09	2329.77
589.44	2322.32
589.79	2315.66
590.14	2309.51
590.49	2302.26
590.84	2295.22
591.19	2288.82
591.54	2281.84
591.89	2274.07
592.25	2266.73
592.60	2258.76
592.95	2250.61
593.30	2242.70
593.65	2234.44
594.00	2226.57
594.35	2218.58
594.70	2209.71
595.05	2201.95
595.40	2193.72
595.75	2185.39
596.10	2178.71
596.45	2171.24
596.80	2164.33
597.15	2157.15
597.50	2149.31
597.85	2142.06
598.19	2134.61
598.54	2126.78
598.89	2119.30
599.24	2112.57
599.59	2105.18
599.94	2098.29
600.29	2091.14
600.64	2083.67
600.99	2075.37
601.34	2067.81
601.69	2059.91
602.04	2052.29
602.39	2043.99
602.74	2036.36
603.08	2028.79
603.43	2021.04
603.78	2012.77
604.13	2004.71
604.48	1996.49
604.83	1988.65
605.18	1981.01
605.53	1972.16
605.87	1963.09
606.22	1954.85
606.57	1945.76
606.92	1937.22
607.27	1929.20
607.62	1921.46
607.96	1913.34
608.31	1905.94
608.66	1897.30
609.01	1888.77
609.36	1880.16
609.70	1871.08
610.05	1861.98
610.40	1853.20
610.75	1843.92
611.10	1835.40
611.44	1825.76
611.79	1816.68
612.14	1806.83
612.49	1796.30
612.83	1786.78
613.18	1777.40
613.53	1768.20
613.88	1758.69
614.22	1749.30
614.57	1739.36
614.92	1730.18
615.27	1721.61
615.61	1712.16
615.96	1703.02
616.31	1694.32
616.65	1685.94
617.00	1677.34
617.35	1668.51
617.70	1659.13
618.04	1649.44
618.39	1639.85
618.74	1631.22
619.08	1621.73
619.43	1612.98
619.78	1605.12
620.12	1596.92
620.47	1588.41
620.82	1579.06
621.16	1570.36
621.51	1561.73
621.85	1552.90
622.20	1543.08
622.55	1533.48
622.89	1524.49
623.24	1515.67
623.59	1507.12
623.93	1498.43
624.28	1490.10
624.62	1481.49
624.97	1473.31
625.32	1465.44
625.66	1457.48
626.01	1449.33
626.35	1440.93
626.70	1432.15
627.04	1423.35
627.39	1414.45
627.73	1405.94
628.08	1398.06
628.43	1389.95
628.77	1381.54
629.12	1373.01
629.46	1364.90
629.81	1356.26
630.15	1347.89
630.50	1339.53
630.84	1330.28
631.19	1321.27
631.53	1312.69
631.88	1304.07
632.22	1295.38
632.57	1287.04
632.91	1278.42
633.26	1269.99
633.60	1261.50
633.95	1253.26
634.29	1245.20
634.64	1237.50
634.98	1229.19
635.32	1221.12
635.67	1213.44
636.01	1205.86
636.36	1198.26
636.70	1190.70
637.05	1183.32
637.39	1176.00
637.73	1168.62
638.08	1161.84
638.42	1155.03
638.77	1147.70
639.11	1140.26
639.45	1133.01
639.80	1125.56
640.14	1118.38
640.49	1111.02
640.83	1103.96
641.17	1097.04
641.52	1089.96
641.86	1082.71
642.20	1076.10
642.55	1068.83
642.89	1061.63
643.23	1054.15
643.58	1047.45
643.92	1040.54
644.26	1033.76
644.61	1026.87
644.95	1020.11
645.29	1012.84
645.64	1005.24
645.98	998.05
646.32	991.31
646.66	984.55
647.01	978.02
647.35	971.55
647.69	964.84
648.04	958.51
648.38	951.97
648.72	945.30
649.06	938.47
649.41	931.77
649.75	925.09
650.09	918.35
650.43	912.00
650.78	905.19
651.12	898.49
651.46	892.00
651.80	885.65
652.14	879.55
652.49	873.45
652.83	867.67
653.17	861.41
653.51	855.11
653.85	848.92
654.20	842.60
654.54	835.89
654.88	829.44
655.22	822.81
655.56	816.35
655.90	810.04
656.25	804.08
656.59	798.07
656.93	792.34
657.27	786.50
657.61	780.31
657.95	774.52
658.29	768.85
658.64	762.91
658.98	756.87
659.32	750.64
659.66	744.77
660.00	738.77
660.34	733.08
660.68	727.52
661.02	721.87
661.36	716.51
661.70	711.39
662.05	706.51
662.39	701.69
662.73	696.69
663.07	691.82
663.41	686.87
663.75	681.88
664.09	676.73
664.43	671.81
664.77	667.25
665.11	662.48
665.45	657.73
665.79	653.15
666.13	648.56
666.47	643.95
666.81	639.34
667.15	634.73
667.49	630.37
667.83	626.00
668.17	621.62
668.51	617.11
668.85	612.56
669.19	608.16
669.53	603.83
669.87	599.45
670.21	595.28
670.55	591.15
670.89	587.22
671.23	583.42
671.57	579.42
671.91	575.39
672.25	571.44
672.58	567.56
672.92	563.71
673.26	560.09
673.60	556.56
673.94	553.05
674.28	549.75
674.62	546.42
674.96	542.98
675.30	539.72
675.64	536.42
675.97	533.34
676.31	530.22
676.65	526.91
676.99	523.89
677.33	520.66
677.67	517.51
678.01	514.15
678.34	510.81
678.68	507.61
679.02	504.48
679.36	501.33
679.70	498.27
680.04	495.17
680.37	492.00
680.71	488.86
681.05	485.90
681.39	482.86
681.73	479.86
682.06	477.05
682.40	474.17
682.74	471.33
683.08	468.43
683.42	465.47
683.75	462.69
684.09	459.84
684.43	457.04
684.77	454.28
685.10	451.63
685.44	449.02
685.78	446.47
686.12	443.90
686.45	441.42
686.79	438.79
687.13	436.35
687.46	433.91
687.80	431.48
688.14	428.93
688.48	426.64
688.81	424.18
689.15	421.76
689.49	419.35
689.82	416.97
690.16	414.59
690.50	412.37
690.83	410.14
691.17	407.91
691.51	405.76
691.84	403.59
692.18	401.46
692.52	399.23
692.85	397.00
693.19	394.91
693.52	392.78
693.86	390.70
694.20	388.65
694.53	386.60
694.87	384.51
695.21	382.53
695.54	380.44
695.88	378.43
696.21	376.48
696.55	374.58
696.88	372.68
697.22	370.78
697.56	368.95
697.89	367.11
698.23	365.31
698.56	363.52
698.90	361.80
699.23	359.93
699.57	358.15
699.90	356.41
700.24	354.63
700.58	352.96
700.91	351.32
701.25	349.67
701.58	348.12
701.92	346.65
702.25	345.06
702.59	343.50
702.92	342.05
703.26	340.54
703.59	339.07
703.93	337.75
704.26	336.45
704.60	334.95
704.93	333.48
705.26	332.03
705.60	330.71
705.93	329.37
706.27	328.14
706.60	326.96
706.94	325.75
707.27	324.44
707.61	323.19
707.94	322.03
708.27	320.81
708.61	319.54
708.94	318.35
709.28	317.23
709.61	316.12
709.94	315.06
710.28	313.93
710.61	312.81
710.95	311.56
711.28	310.49
711.61	309.42
711.95	308.43
712.28	307.39
712.61	306.27
712.95	305.21
713.28	304.22
713.61	303.21
713.95	302.21
714.28	301.30
714.61	300.33
714.95	299.32
715.28	298.36
715.61	297.39
715.95	296.41
716.28	295.45
716.61	294.50
716.95	293.52
717.28	292.63
717.61	291.72
717.94	290.90
718.28	289.92
718.61	289.12
718.94	288.28
719.27	287.55
719.61	286.77
719.94	285.99
720.27	285.20
720.60	284.44
720.94	283.71
721.27	283.02
721.60	282.33
721.93	281.69
722.27	281.06
722.60	280.47
722.93	279.83
723.26	279.21
723.59	278.61
723.93	278.01
724.26	277.43
724.59	276.84
724.92	276.22
725.25	275.71
725.59	275.12
725.92	274.60
726.25	274.02
726.58	273.51
726.91	272.99
727.24	272.47
727.57	271.93
727.91	271.36
728.24	270.82
728.57	270.26
728.90	269.73
729.23	269.20
729.56	268.68
729.89	268.18
730.22	267.67
730.55	267.08
730.89	266.60
731.22	266.07
731.55	265.60
731.88	265.10
732.21	264.62
732.54	264.11
732.87	263.60
733.20	263.12
733.53	262.65
733.86	262.25
734.19	261.78
734.52	261.32
734.85	260.99
735.18	260.52
735.51	260.12
735.84	259.67
736.17	259.26
736.50	258.82
736.83	258.52
737.16	258.17
737.49	257.83
737.82	257.40
738.15	257.02
738.48	256.58
738.81	256.23
739.14	255.84
739.47	255.49
739.80	255.08
740.13	254.71
740.46	254.36
740.79	253.97
741.12	253.65
741.45	253.34
741.78	252.95
742.11	252.61
742.44	252.24
742.77	251.91
743.10	251.60
743.43	251.23
743.75	250.81
744.08	250.59
744.41	250.23
744.74	249.93
745.07	249.57
745.40	249.32
745.73	249.03
746.06	248.73
746.39	248.42
746.71	248.16
747.04	247.86
747.37	247.55
747.70	247.28
748.03	246.99
748.36	246.71
748.68	246.40
749.01	246.13
749.34	245.88
749.67	245.61
750.00	245.32
750.33	245.15
750.65	244.88
750.98	244.52
751.31	244.31
751.64	244.11
751.97	243.94
752.29	243.70
752.62	243.45
752.95	243.21
753.28	242.99
753.60	242.75
753.93	242.57
754.26	242.37
754.59	242.12
754.91	241.85
755.24	241.63
755.57	241.43
755.90	241.22
756.22	241.01
756.55	240.79
756.88	240.60
757.20	240.34
757.53	240.13
757.86	239.94
758.19	239.78
758.51	239.57
758.84	239.38
759.17	239.22
759.49	239.07
759.82	238.93
760.15	238.78
760.47	238.64
760.80	238.45
761.13	238.28
761.45	238.10
761.78	237.92
762.11	237.76
762.43	237.60
762.76	237.48
763.08	237.33
763.41	237.20
763.74	237.03
764.06	236.89
764.39	236.78
764.71	236.63
765.04	236.46
765.37	236.31
765.69	236.12
766.02	235.92
766.34	235.76
766.67	235.60
767.00	235.48
767.32	235.35
767.65	235.28
767.97	235.13
768.30	235.01
768.62	234.92
768.95	234.79
769.27	234.67
769.60	234.57
769.92	234.45
770.25	234.31
770.57	234.21
770.90	234.09
771.22	233.95
771.55	233.84
771.87	233.73
772.20	233.63
772.52	233.61
772.85	233.68
773.17	233.59
773.50	233.51
773.82	233.39
774.15	233.29
774.47	233.09
774.80	233.02
775.12	232.96
775.45	232.88
775.77	232.82
776.09	232.72
776.42	232.60
776.74	232.53
777.07	232.44
777.39	232.35
777.72	232.26
778.04	232.21
778.36	232.11
778.69	232.02
779.01	231.95
779.33	231.78
779.66	231.59
779.98	231.49
780.31	231.41
780.63	231.38
780.95	231.32
781.28	231.29
781.60	231.19
781.92	231.11
782.25	231.03
782.57	230.94
782.89	230.87
783.22	230.79
783.54	230.71
783.86	230.69
784.19	230.63
784.51	230.58
784.83	230.49
785.16	230.44
785.48	230.38
785.80	230.31
786.12	230.29
786.45	230.21
786.77	230.15
787.09	230.12
787.42	230.03
787.74	229.96
788.06	229.90
788.38	229.86
788.71	229.79
789.03	229.76
789.35	229.72
789.67	229.69
789.99	229.69
790.32	229.63
790.64	229.57
790.96	229.61
791.28	229.54
791.61	229.48
791.93	229.44
792.25	229.43
792.57	229.48
792.89	229.39
793.21	229.38
793.54	229.34
793.86	229.27
794.18	229.24
794.50	229.20
794.82	229.16
795.14	229.16
795.47	229.13
795.79	229.10
796.11	229.06
796.43	229.00
796.75	228.95
797.07	228.92
797.39	228.87
797.71	228.74
798.04	228.72
798.36	228.68
798.68	228.68
799.00	228.65
799.32	228.57
799.64	228.56
799.96	228.52
800.28	228.52
800.60	228.45
800.92	228.42
801.24	228.35
801.56	228.33
801.89	228.28
802.21	228.28
802.53	228.21
802.85	228.15
803.17	228.18
803.49	228.11
803.81	228.08
804.13	228.05
804.45	228.03
804.77	227.98
805.09	227.97
805.41	227.88
805.73	227.81
806.05	227.75
806.37	227.70
806.69	227.66
807.01	227.60
807.33	227.57
807.65	227.52
807.97	227.56
808.28	227.53
808.60	227.47
808.92	227.38
809.24	227.41
809.56	227.39
809.88	227.34
810.20	227.31
810.52	227.30
810.84	227.22
811.16	227.18
811.48	227.13
811.80	227.13
812.12	227.15
812.43	227.15
812.75	227.12
813.07	227.11
813.39	227.06
813.71	227.01
814.03	227.02
814.35	226.98
814.67	226.86
814.98	226.80
815.30	226.79
815.62	226.80
815.94	226.73
816.26	226.75
816.58	226.70
816.89	226.70
817.21	226.65
817.53	226.66
817.85	226.66
818.17	226.65
818.48	226.57
818.80	226.56
819.12	226.52
819.44	226.48
819.76	226.44
820.07	226.43
820.39	226.41
820.71	226.38
821.03	226.36
821.34	226.38
821.66	226.39
821.98	226.37
822.30	226.33
822.61	226.34
822.93	226.28
823.25	226.25
823.57	226.21
823.88	226.19
824.20	226.19
824.52	226.16
824.83	226.12
825.15	226.10
825.47	226.04
825.79	226.06
826.10	226.02
826.42	226.01
826.74	226.00
827.05	225.99
827.37	225.96
827.69	225.99
828.00	225.94
828.32	225.94
828.64	225.94
828.95	225.98
829.27	225.96
829.58	225.94
829.90	225.97
830.22	225.99
830.53	225.96
830.85	225.93
831.17	225.89
831.48	225.90
831.80	225.89
832.11	225.91
832.43	225.86
832.75	225.89
833.06	225.98
833.38	225.96
833.69	225.96
834.01	225.95
834.32	225.91
834.64	225.93
834.96	225.87
835.27	225.83
835.59	225.79
835.90	225.75
836.22	225.74
836.53	225.66
836.85	225.62
837.16	225.71
837.48	225.72
837.79	225.77
838.11	225.77
838.42	225.79
838.74	225.81
839.05	225.82
839.37	225.79
839.68	225.68
840.00	225.67
840.31	225.64
840.63	225.65
840.94	225.61
841.26	225.59
841.57	225.62
841.88	225.65
842.20	225.61
842.51	225.62
842.83	225.61
843.14	225.71
843.46	225.71
843.77	225.66
844.08	225.64
844.40	225.62
844.71	225.62
845.03	225.58
845.34	225.56
845.65	225.52
845.97	225.49
846.28	225.53
846.60	225.52
846.91	225.52
847.22	225.52
847.54	225.54
847.85	225.54
848.16	225.53
848.48	225.48
848.79	225.56
849.10	225.56
849.42	225.56
849.73	225.49
850.04	225.48
850.36	225.43
850.67	225.46
850.98	225.41
851.30	225.39
851.61	225.44
851.92	225.42
852.23	225.45
852.55	225.47
852.86	225.46
853.17	225.47
853.49	225.47
853.80	225.48
854.11	225.50
854.42	225.50
854.74	225.46
855.05	225.48
855.36	225.40
855.67	225.40
855.99	225.39
856.30	225.46
856.61	225.47
856.92	225.48
857.23	225.44
857.55	225.42
857.86	225.41
858.17	225.39
858.48	225.35
858.79	225.31
859.11	225.32
859.42	225.27
859.73	225.22
860.04	225.22
860.35	225.19
860.66	225.13
860.98	225.10
861.29	225.11
861.60	225.08
861.91	225.08
862.22	225.05
862.53	225.02
862.84	224.91
863.16	224.92
863.47	224.92
863.78	224.91
864.09	224.92
864.40	224.91
864.71	224.89
865.02	224.92
865.33	224.90
865.64	224.87
865.95	224.87
866.27	224.94
866.58	224.95
866.89	224.95
867.20	224.93
867.51	224.93
867.82	224.91
868.13	224.93
868.44	224.93
868.75	224.97
869.06	224.99
869.37	225.00
869.68	224.96
869.99	224.97
870.30	224.97
870.61	225.00
870.92	224.96
871.23	224.95
871.54	224.94
871.85	224.98
872.16	225.02
872.47	225.02
872.78	224.97
873.09	224.97
873.40	224.94
873.71	225.00
874.02	224.97
874.33	225.00
874.64	224.98
874.95	224.97
875.26	224.91
875.56	224.92
875.87	224.95
876.18	224.95
876.49	225.05
876.80	225.04
877.11	225.02
877.42	225.09
877.73	225.09
878.04	225.10
878.35	225.10
878.66	225.06
878.96	225.07
879.27	225.07
879.58	225.08
879.89	225.09
880.20	225.10
880.51	225.13
880.82	225.11
881.12	225.16
881.43	225.17
881.74	225.17
882.05	225.15
882.36	225.14
882.67	225.18
882.97	225.08
883.28	225.10
883.59	225.09
883.90	225.10
884.21	225.13
884.51	225.11
884.82	225.10
885.13	225.08
885.44	225.08
885.74	225.11
886.05	225.09
886.36	225.09
886.67	225.08
886.98	225.14
887.28	225.16
887.59	225.15
887.90	225.12
888.20	225.14
888.51	225.16
888.82	225.11
889.13	225.09
889.43	225.17
889.74	225.18
890.05	225.17
890.35	225.14
890.66	225.13
890.97	225.12
891.28	225.14
891.58	225.15
891.89	225.11
892.20	225.07
892.50	225.06
892.81	225.05
893.12	225.02
893.42	224.94
893.73	224.93
894.04	224.92
894.34	224.92
894.65	224.91
894.95	224.88
895.26	224.91
895.57	224.94
895.87	224.85
896.18	224.80
896.48	224.81
896.79	224.82
897.10	224.80
897.40	224.79
897.71	224.79
898.01	224.78
898.32	224.80
898.63	224.80
898.93	224.81
899.24	224.82
899.54	224.81
899.85	224.81
900.15	224.80
900.46	224.79
900.76	224.78
901.07	224.75
901.38	224.78
901.68	224.77
901.99	224.71
902.29	224.71
902.60	224.69
902.90	224.68
903.21	224.66
903.51	224.65
903.82	224.66
904.12	224.63
904.43	224.65
904.73	224.62
905.03	224.62
905.34	224.69
905.64	224.68
905.95	224.68
906.25	224.69
906.56	224.68
906.86	224.70
907.17	224.69
907.47	224.74
907.77	224.71
908.08	224.70
908.38	224.70
908.69	224.68
908.99	224.71
909.30	224.73
909.60	224.72
909.90	224.71
910.21	224.68
910.51	224.65
910.81	224.63
911.12	224.66
911.42	224.66
911.73	224.58
912.03	224.62
912.33	224.65
912.64	224.61
912.94	224.61
913.24	224.56
913.55	224.57
913.85	224.57
914.15	224.61
914.46	224.62
914.76	224.62
915.06	224.61
915.37	224.59
915.67	224.58
915.97	224.58
916.27	224.58
916.58	224.59
916.88	224.62
917.18	224.62
917.49	224.71
917.79	224.73
918.09	224.75
918.39	224.75
918.70	224.73
919.00	224.77
919.30	224.82
919.60	224.84
919.91	224.82
920.21	224.80
920.51	224.79
920.81	224.75
921.12	224.76
921.42	224.76
921.72	224.79
922.02	224.77
922.32	224.81
922.63	224.81
922.93	224.87
923.23	224.89
923.53	224.88
923.83	224.81
924.13	224.80
924.44	224.79
924.74	224.80
925.04	224.82
925.34	224.80
925.64	224.76
925.94	224.75
926.24	224.80
926.55	224.80
926.85	224.78
927.15	224.83
927.45	224.85
927.75	224.87
928.05	224.86
928.35	224.89
928.65	224.89
928.95	224.90
929.26	224.84
929.56	224.83
929.86	224.82
930.16	224.80
930.46	224.79
930.76	224.81
931.06	224.76
931.36	224.75
931.66	224.74
931.96	224.71
932.26	224.71
932.56	224.67
932.86	224.70
933.16	224.72
933.46	224.69
933.76	224.64
934.06	224.66
934.36	224.73
934.66	224.71
934.96	224.71
935.26	224.69
935.56	224.69
935.86	224.66
936.16	224.66
936.46	224.64
936.76	224.65
937.06	224.63
937.36	224.62
937.66	224.58
937.96	224.58
938.26	224.62
938.56	224.61
938.86	224.60
939.16	224.59
939.46	224.56
939.76	224.56
940.06	224.58
940.35	224.52
940.65	224.44
940.95	224.50
941.25	224.46
941.55	224.46
941.85	224.49
942.15	224.50
942.45	224.52
942.75	224.51
943.04	224.50
943.34	224.52
943.64	224.54
943.94	224.52
944.24	224.55
944.54	224.53
944.84	224.53
945.13	224.53
945.43	224.53
945.73	224.56
946.03	224.57
946.33	224.57
946.62	224.59
946.92	224.59
947.22	224.54
947.52	224.55
947.82	224.56
948.11	224.55
948.41	224.52
948.71	224.52
949.01	224.53
949.31	224.51
949.60	224.52
949.90	224.51
950.20	224.54
950.50	224.50
950.79	224.53
951.09	224.55
951.39	224.57
951.69	224.54
951.98	224.56
952.28	224.53
952.58	224.52
952.87	224.53
953.17	224.52
953.47	224.52
953.76	224.51
954.06	224.51
954.36	224.50
954.66	224.50
954.95	224.51
955.25	224.54
955.55	224.56
955.84	224.52
956.14	224.53
956.44	224.56
956.73	224.56
957.03	224.56
957.32	224.56
957.62	224.54
957.92	224.56
958.21	224.51
958.51	224.64
958.81	224.66
959.10	224.67
959.40	224.67
959.69	224.65
959.99	224.69
960.29	224.70
960.58	224.69
960.88	224.74
961.17	224.73
961.47	224.75
961.76	224.71
962.06	224.70
962.36	224.70
962.65	224.66
962.95	224.67
963.24	224.63
963.54	224.63
963.83	224.64
964.13	224.60
964.42	224.61
964.72	224.51
965.01	224.50
965.31	224.49
965.60	224.49
965.90	224.58
966.19	224.55
966.49	224.51
966.78	224.51
967.08	224.48
967.37	224.46
967.67	224.42
967.96	224.42
968.26	224.45
968.55	224.43
968.85	224.45
969.14	224.42
969.43	224.41
969.73	224.40
970.02	224.39
970.32	224.41
970.61	224.38
970.91	224.37
971.20	224.33
971.49	224.33
971.79	224.34
972.08	224.25
972.38	224.24
972.67	224.23
972.96	224.25
973.26	224.26
973.55	224.31
973.85	224.31
974.14	224.34
974.43	224.37
974.73	224.39
975.02	224.35
975.31	224.40
975.61	224.42
975.90	224.40
976.19	224.40
976.49	224.41
976.78	224.45
977.07	224.44
977.37	224.45
977.66	224.46
977.95	224.48
978.24	224.49
978.54	224.54
978.83	224.56
979.12	224.54
979.42	224.52
979.71	224.49
980.00	224.49
980.29	224.50
980.59	224.45
980.88	224.47
981.17	224.51
981.46	224.47
981.76	224.48
982.05	224.49
982.34	224.52
982.63	224.53
982.93	224.51
983.22	224.55
983.51	224.57
983.80	224.59
984.09	224.58
984.39	224.58
984.68	224.56
984.97	224.55
985.26	224.55
985.55	224.56
985.85	224.55
986.14	224.57
986.43	224.59
986.72	224.60
987.01	224.58
987.30	224.54
987.59	224.56
987.89	224.56
988.18	224.55
988.47	224.53
988.76	224.56
989.05	224.57
989.34	224.55
989.63	224.56
989.92	224.56
990.22	224.56
990.51	224.55
990.80	224.56
991.09	224.60
991.38	224.61
991.67	224.59
991.96	224.58
992.25	224.57
992.54	224.55
992.83	224.55
993.12	224.53
993.41	224.58
993.70	224.60
993.99	224.65
994.28	224.66
994.58	224.64
994.87	224.59
995.16	224.56
995.45	224.57
995.74	224.53
996.03	224.52
996.32	224.51
996.61	224.52
996.90	224.48
997.19	224.48
997.48	224.51
997.77	224.53
998.06	224.53
998.34	224.54
998.63	224.53
998.92	224.51
999.21	224.50
999.50	224.47
999.79	224.45
1000.08	224.43
1000.37	224.43
1000.66	224.41
1000.95	224.44
1001.24	224.45
1001.53	224.43
1001.82	224.44
1002.11	224.42
1002.40	224.39
1002.68	224.40
1002.97	224.47
1003.26	224.44
1003.55	224.38
1003.84	224.39
1004.13	224.42
1004.42	224.38
1004.71	224.39
1004.99	224.40
1005.28	224.43
1005.57	224.44
1005.86	224.42
1006.15	224.40
1006.44	224.39
1006.72	224.41
1007.01	224.38
1007.30	224.39
1007.59	224.36
1007.88	224.33
1008.17	224.35
1008.45	224.37
1008.74	224.38
1009.03	224.33
1009.32	224.32
1009.60	224.32
1009.89	224.28
1010.18	224.25
1010.47	224.25
1010.76	224.25
1011.04	224.28
1011.33	224.31
1011.62	224.31
1011.91	224.30
1012.19	224.33
1012.48	224.33
1012.77	224.34
1013.05	224.41
1013.34	224.42
1013.63	224.41
1013.92	224.45
1014.20	224.45
1014.49	224.45
1014.78	224.42
1015.06	224.39
1015.35	224.42
1015.64	224.47
1015.92	224.50
1016.21	224.50
1016.50	224.50
1016.78	224.52
1017.07	224.51
1017.36	224.48
1017.64	224.47
1017.93	224.50
1018.22	224.49
1018.50	224.50
1018.79	224.53
1019.08	224.47
1019.36	224.48
1019.65	224.52
1019.93	224.56
1020.22	224.57
1020.51	224.63
1020.79	224.67
1021.08	224.45
1021.36	224.51
1021.65	225.39
1021.94	224.03
1022.22	224.73
1022.51	224.74
1022.79	225.11
1023.08	224.72
1023.36	225.82
1023.65	224.78
>>>>>End Processed Spectral Data<<<<<
