SpectraSuite Data File
++++++++++++++++++++++++++++++++++++
Date: Fri Feb 01 15:38:07 EST 2013
User: group
Dark Spectrum Present: No
Reference Spectrum Present: No
Number of Sampled Component Spectra: 1
Spectrometers: USB2E7196
Integration Time (usec): 35000 (USB2E7196)
Spectra Averaged: 100 (USB2E7196)
Boxcar Smoothing: 10 (USB2E7196)
Correct for Electrical Dark: No (USB2E7196)
Strobe/Lamp Enabled: No (USB2E7196)
Correct for Detector Non-linearity: No (USB2E7196)
Correct for Stray Light: No (USB2E7196)
Number of Pixels in Processed Spectrum: 2048
>>>>>Begin Processed Spectral Data<<<<<
339.09	0.00
339.48	215.24
339.86	216.52
340.24	217.72
340.63	218.91
341.01	222.03
341.39	221.78
341.78	223.38
342.16	224.15
342.54	224.38
342.93	213.19
343.31	223.94
343.69	224.48
344.07	224.94
344.46	225.38
344.84	225.77
345.22	226.00
345.60	226.24
345.99	226.42
346.37	226.56
346.75	226.65
347.13	226.72
347.52	226.80
347.90	226.87
348.28	226.91
348.66	226.97
349.05	226.97
349.43	227.01
349.81	227.09
350.19	227.13
350.57	227.19
350.96	227.24
351.34	227.36
351.72	227.39
352.10	227.49
352.48	227.52
352.87	227.54
353.25	227.60
353.63	227.69
354.01	227.74
354.39	227.80
354.77	227.91
355.15	228.01
355.54	228.05
355.92	228.09
356.30	228.19
356.68	228.32
357.06	228.39
357.44	228.40
357.82	228.44
358.20	228.54
358.58	228.60
358.97	228.66
359.35	228.75
359.73	228.84
360.11	228.88
360.49	228.95
360.87	229.05
361.25	229.12
361.63	229.18
362.01	229.23
362.39	229.29
362.77	229.35
363.15	229.35
363.53	229.35
363.91	229.41
364.29	229.42
364.67	229.36
365.05	229.39
365.43	229.43
365.81	229.43
366.19	229.46
366.57	229.48
366.95	229.47
367.33	229.42
367.71	229.47
368.09	229.48
368.47	229.46
368.85	229.46
369.23	229.45
369.61	229.39
369.99	229.37
370.37	229.34
370.75	229.32
371.13	229.27
371.51	229.24
371.89	229.18
372.27	229.11
372.65	229.06
373.03	229.00
373.41	228.97
373.78	228.93
374.16	228.82
374.54	228.74
374.92	228.71
375.30	228.66
375.68	228.52
376.06	228.45
376.44	228.38
376.82	228.27
377.19	228.21
377.57	228.16
377.95	228.05
378.33	227.94
378.71	227.84
379.09	227.79
379.47	227.75
379.84	227.69
380.22	227.61
380.60	227.50
380.98	227.42
381.36	227.31
381.73	227.22
382.11	227.19
382.49	227.12
382.87	227.02
383.25	226.94
383.62	226.98
384.00	226.88
384.38	226.82
384.76	226.81
385.13	226.78
385.51	226.69
385.89	226.63
386.27	226.61
386.64	226.55
387.02	226.48
387.40	226.40
387.78	226.34
388.15	226.32
388.53	226.29
388.91	226.27
389.29	226.26
389.66	226.25
390.04	226.17
390.42	226.16
390.79	226.15
391.17	226.13
391.55	226.02
391.92	226.06
392.30	226.07
392.68	226.03
393.05	226.01
393.43	226.00
393.81	226.01
394.18	225.99
394.56	226.02
394.94	226.06
395.31	226.13
395.69	226.15
396.06	226.18
396.44	226.24
396.82	226.22
397.19	226.31
397.57	226.34
397.95	226.43
398.32	226.47
398.70	226.53
399.07	226.62
399.45	226.69
399.82	226.74
400.20	226.79
400.58	226.85
400.95	226.90
401.33	227.03
401.70	227.20
402.08	227.33
402.45	227.41
402.83	227.57
403.20	227.66
403.58	227.81
403.95	227.95
404.33	228.10
404.71	228.26
405.08	228.41
405.46	228.57
405.83	228.76
406.21	228.92
406.58	229.10
406.96	229.26
407.33	229.43
407.70	229.64
408.08	229.90
408.45	230.15
408.83	230.37
409.20	230.58
409.58	230.78
409.95	231.05
410.33	231.36
410.70	231.55
411.08	231.87
411.45	232.17
411.82	232.48
412.20	232.80
412.57	233.22
412.95	233.52
413.32	233.92
413.69	234.34
414.07	234.75
414.44	235.23
414.82	235.73
415.19	236.29
415.56	236.83
415.94	237.39
416.31	238.04
416.68	238.67
417.06	239.43
417.43	240.11
417.81	240.85
418.18	241.59
418.55	242.45
418.93	243.34
419.30	244.22
419.67	245.15
420.04	246.13
420.42	247.11
420.79	248.27
421.16	249.43
421.54	250.61
421.91	251.85
422.28	253.09
422.66	254.42
423.03	255.69
423.40	257.01
423.77	258.41
424.15	259.81
424.52	261.33
424.89	262.90
425.26	264.41
425.64	265.88
426.01	267.49
426.38	269.15
426.75	270.80
427.13	272.57
427.50	274.37
427.87	276.25
428.24	278.10
428.61	279.87
428.99	281.79
429.36	283.87
429.73	285.92
430.10	287.93
430.47	289.98
430.85	292.13
431.22	294.34
431.59	296.79
431.96	299.07
432.33	301.53
432.70	303.89
433.08	306.72
433.45	309.35
433.82	311.96
434.19	314.82
434.56	317.64
434.93	320.27
435.30	322.89
435.68	325.79
436.05	328.67
436.42	331.47
436.79	334.00
437.16	336.72
437.53	339.55
437.90	342.37
438.27	345.14
438.64	347.98
439.01	350.60
439.38	352.76
439.75	354.92
440.13	357.48
440.50	359.84
440.87	361.71
441.24	363.66
441.61	365.80
441.98	367.31
442.35	369.11
442.72	370.96
443.09	372.81
443.46	373.82
443.83	374.38
444.20	374.86
444.57	375.70
444.94	375.99
445.31	376.35
445.68	376.73
446.05	376.79
446.42	376.41
446.79	376.00
447.16	375.57
447.53	375.23
447.90	374.03
448.27	372.86
448.64	371.26
449.01	370.15
449.37	368.17
449.74	366.26
450.11	363.96
450.48	361.44
450.85	358.85
451.22	356.68
451.59	354.59
451.96	352.65
452.33	350.02
452.70	347.63
453.07	344.77
453.43	341.85
453.80	339.09
454.17	336.42
454.54	333.85
454.91	331.13
455.28	328.44
455.65	325.93
456.02	323.48
456.38	321.28
456.75	318.58
457.12	316.37
457.49	314.14
457.86	311.95
458.23	310.15
458.59	308.14
458.96	306.06
459.33	304.25
459.70	302.38
460.07	300.90
460.43	299.17
460.80	297.55
461.17	296.08
461.54	294.57
461.91	293.10
462.27	291.67
462.64	290.41
463.01	289.10
463.38	287.78
463.74	286.39
464.11	285.25
464.48	284.25
464.85	283.12
465.21	282.27
465.58	281.39
465.95	280.29
466.32	279.37
466.68	278.46
467.05	277.56
467.42	276.67
467.78	275.75
468.15	274.89
468.52	274.24
468.88	273.39
469.25	272.62
469.62	272.00
469.98	271.33
470.35	270.72
470.72	270.12
471.08	269.46
471.45	268.94
471.82	268.44
472.18	267.84
472.55	267.41
472.92	266.88
473.28	266.40
473.65	265.92
474.02	265.47
474.38	265.10
474.75	264.78
475.11	264.44
475.48	264.18
475.85	263.96
476.21	263.76
476.58	263.57
476.94	263.40
477.31	263.23
477.67	263.05
478.04	262.94
478.41	262.87
478.77	262.94
479.14	262.89
479.50	262.87
479.87	262.90
480.23	263.00
480.60	263.05
480.96	263.19
481.33	263.42
481.69	263.64
482.06	263.86
482.42	264.07
482.79	264.34
483.15	264.63
483.52	265.01
483.88	265.32
484.25	265.72
484.61	266.18
484.98	266.64
485.34	267.24
485.71	267.79
486.07	268.38
486.44	268.94
486.80	269.65
487.17	270.34
487.53	271.21
487.90	272.09
488.26	273.01
488.62	273.97
488.99	274.95
489.35	275.97
489.72	277.07
490.08	278.28
490.44	279.51
490.81	280.83
491.17	282.17
491.54	283.66
491.90	285.20
492.26	286.85
492.63	288.61
492.99	290.37
493.36	292.31
493.72	294.34
494.08	296.46
494.45	298.69
494.81	301.10
495.17	303.49
495.54	306.04
495.90	308.74
496.26	311.57
496.63	314.56
496.99	317.65
497.35	320.91
497.72	324.35
498.08	327.84
498.44	331.55
498.80	335.48
499.17	339.57
499.53	343.71
499.89	348.09
500.26	352.52
500.62	357.21
500.98	362.16
501.34	367.24
501.71	372.58
502.07	377.99
502.43	383.60
502.79	389.43
503.16	395.44
503.52	401.71
503.88	408.12
504.24	414.72
504.60	421.63
504.97	428.77
505.33	436.03
505.69	443.75
506.05	451.45
506.41	459.37
506.78	467.48
507.14	476.01
507.50	484.75
507.86	493.84
508.22	502.99
508.59	512.17
508.95	521.76
509.31	531.55
509.67	541.72
510.03	552.04
510.39	562.62
510.75	573.43
511.12	584.41
511.48	595.65
511.84	607.11
512.20	618.60
512.56	630.52
512.92	642.64
513.28	654.93
513.64	667.53
514.00	680.22
514.37	693.21
514.73	706.24
515.09	719.25
515.45	732.56
515.81	746.21
516.17	760.24
516.53	774.32
516.89	788.51
517.25	802.67
517.61	817.06
517.97	831.44
518.33	845.92
518.69	860.76
519.05	875.82
519.41	890.93
519.77	906.52
520.13	921.94
520.49	937.37
520.85	952.84
521.21	968.55
521.57	984.71
521.93	1000.52
522.29	1016.93
522.65	1033.07
523.01	1049.30
523.37	1065.33
523.73	1081.47
524.09	1097.64
524.45	1113.90
524.81	1130.52
525.17	1147.46
525.53	1164.48
525.89	1181.36
526.25	1198.14
526.61	1214.52
526.97	1231.37
527.33	1247.82
527.68	1264.59
528.04	1281.14
528.40	1297.79
528.76	1314.85
529.12	1331.51
529.48	1348.39
529.84	1364.39
530.20	1381.22
530.56	1398.40
530.91	1415.82
531.27	1432.70
531.63	1449.22
531.99	1465.99
532.35	1482.03
532.71	1497.77
533.07	1514.07
533.42	1529.97
533.78	1546.04
534.14	1562.36
534.50	1577.73
534.86	1593.65
535.21	1608.80
535.57	1624.76
535.93	1640.40
536.29	1655.21
536.65	1670.25
537.00	1685.01
537.36	1700.36
537.72	1714.90
538.08	1729.18
538.44	1743.03
538.79	1756.99
539.15	1770.73
539.51	1784.38
539.87	1798.71
540.22	1812.61
540.58	1826.43
540.94	1839.86
541.29	1852.83
541.65	1865.50
542.01	1878.70
542.37	1891.05
542.72	1903.47
543.08	1915.30
543.44	1927.60
543.79	1938.95
544.15	1950.05
544.51	1961.64
544.87	1972.62
545.22	1983.44
545.58	1993.64
545.94	2003.45
546.29	2013.09
546.65	2022.82
547.01	2032.07
547.36	2040.93
547.72	2049.31
548.07	2057.03
548.43	2065.24
548.79	2073.28
549.14	2080.77
549.50	2088.16
549.86	2095.94
550.21	2103.30
550.57	2110.39
550.92	2117.01
551.28	2124.01
551.64	2131.06
551.99	2137.64
552.35	2143.70
552.70	2149.75
553.06	2155.74
553.41	2162.05
553.77	2168.27
554.13	2174.36
554.48	2180.52
554.84	2185.73
555.19	2191.11
555.55	2196.23
555.90	2200.75
556.26	2205.48
556.61	2210.37
556.97	2214.55
557.32	2218.59
557.68	2222.70
558.03	2226.98
558.39	2230.60
558.74	2235.25
559.10	2239.16
559.45	2242.77
559.81	2247.18
560.16	2251.12
560.52	2254.34
560.87	2257.78
561.23	2260.52
561.58	2263.54
561.94	2266.12
562.29	2268.55
562.64	2271.09
563.00	2273.87
563.35	2277.25
563.71	2280.60
564.06	2283.73
564.42	2286.61
564.77	2289.08
565.12	2291.31
565.48	2293.21
565.83	2295.11
566.19	2296.22
566.54	2297.10
566.89	2298.11
567.25	2298.68
567.60	2299.89
567.96	2301.58
568.31	2302.32
568.66	2303.25
569.02	2303.87
569.37	2304.07
569.72	2304.87
570.08	2305.02
570.43	2304.89
570.78	2304.20
571.14	2302.51
571.49	2301.09
571.84	2300.90
572.20	2299.74
572.55	2298.73
572.90	2297.25
573.26	2295.89
573.61	2294.29
573.96	2292.42
574.31	2289.54
574.67	2286.40
575.02	2282.82
575.37	2279.42
575.72	2275.59
576.08	2272.27
576.43	2268.80
576.78	2264.98
577.13	2261.92
577.49	2258.86
577.84	2255.28
578.19	2251.48
578.54	2247.86
578.90	2243.60
579.25	2237.95
579.60	2232.87
579.95	2227.83
580.30	2222.66
580.66	2217.28
581.01	2212.31
581.36	2207.35
581.71	2203.01
582.06	2198.61
582.42	2194.02
582.77	2188.58
583.12	2184.10
583.47	2179.24
583.82	2174.12
584.17	2169.11
584.53	2163.61
584.88	2157.85
585.23	2152.11
585.58	2146.78
585.93	2141.30
586.28	2136.54
586.63	2131.38
586.98	2126.17
587.34	2121.38
587.69	2116.54
588.04	2111.26
588.39	2105.51
588.74	2099.07
589.09	2093.09
589.44	2086.20
589.79	2080.15
590.14	2074.58
590.49	2067.89
590.84	2061.53
591.19	2055.62
591.54	2048.98
591.89	2041.42
592.25	2034.70
592.60	2027.47
592.95	2019.72
593.30	2012.21
593.65	2004.61
594.00	1997.65
594.35	1990.53
594.70	1982.45
595.05	1975.09
595.40	1967.91
595.75	1960.41
596.10	1954.07
596.45	1947.05
596.80	1940.85
597.15	1934.15
597.50	1927.04
597.85	1920.64
598.19	1913.96
598.54	1906.72
598.89	1900.18
599.24	1894.37
599.59	1887.43
599.94	1881.27
600.29	1874.99
600.64	1868.49
600.99	1861.05
601.34	1854.07
601.69	1847.02
602.04	1840.16
602.39	1832.91
602.74	1826.04
603.08	1819.28
603.43	1812.56
603.78	1805.39
604.13	1798.20
604.48	1790.80
604.83	1783.94
605.18	1776.76
605.53	1768.75
605.87	1760.72
606.22	1753.36
606.57	1745.26
606.92	1738.09
607.27	1730.75
607.62	1723.66
607.96	1716.16
608.31	1709.35
608.66	1701.70
609.01	1694.24
609.36	1686.57
609.70	1678.44
610.05	1670.21
610.40	1662.46
610.75	1654.14
611.10	1646.34
611.44	1637.96
611.79	1630.15
612.14	1621.39
612.49	1612.26
612.83	1603.85
613.18	1595.78
613.53	1587.65
613.88	1579.11
614.22	1570.83
614.57	1562.26
614.92	1554.25
615.27	1546.64
615.61	1538.30
615.96	1530.29
616.31	1522.59
616.65	1515.24
617.00	1507.76
617.35	1500.33
617.70	1491.94
618.04	1483.41
618.39	1475.37
618.74	1467.73
619.08	1459.40
619.43	1451.93
619.78	1445.02
620.12	1437.91
620.47	1430.38
620.82	1422.27
621.16	1414.99
621.51	1407.36
621.85	1399.74
622.20	1391.31
622.55	1383.12
622.89	1375.38
623.24	1367.87
623.59	1360.56
623.93	1353.05
624.28	1345.74
624.62	1338.04
624.97	1330.91
625.32	1324.17
625.66	1317.01
626.01	1309.87
626.35	1302.34
626.70	1294.54
627.04	1286.87
627.39	1279.05
627.73	1271.64
628.08	1264.71
628.43	1257.24
628.77	1249.89
629.12	1242.38
629.46	1235.21
629.81	1227.85
630.15	1220.58
630.50	1213.24
630.84	1205.04
631.19	1197.15
631.53	1189.70
631.88	1182.23
632.22	1174.64
632.57	1167.35
632.91	1159.88
633.26	1152.33
633.60	1145.12
633.95	1138.07
634.29	1131.06
634.64	1124.37
634.98	1117.05
635.32	1109.92
635.67	1103.52
636.01	1096.88
636.36	1090.11
636.70	1083.64
637.05	1077.04
637.39	1070.59
637.73	1063.92
638.08	1058.06
638.42	1052.12
638.77	1045.65
639.11	1039.01
639.45	1032.61
639.80	1025.99
640.14	1019.49
640.49	1013.03
640.83	1006.66
641.17	1000.37
641.52	994.03
641.86	987.55
642.20	981.70
642.55	975.42
642.89	968.80
643.23	962.25
643.58	956.48
643.92	950.20
644.26	944.03
644.61	938.08
644.95	932.11
645.29	925.40
645.64	918.61
645.98	912.27
646.32	906.47
646.66	900.50
647.01	894.64
647.35	888.96
647.69	883.15
648.04	877.60
648.38	871.75
648.72	865.71
649.06	859.62
649.41	853.69
649.75	847.61
650.09	841.72
650.43	835.97
650.78	829.82
651.12	823.88
651.46	818.21
651.80	812.36
652.14	806.90
652.49	801.63
652.83	796.46
653.17	790.78
653.51	784.96
653.85	779.60
654.20	773.95
654.54	767.93
654.88	762.16
655.22	756.24
655.56	750.55
655.90	745.17
656.25	739.94
656.59	734.59
656.93	729.56
657.27	724.40
657.61	718.97
657.95	713.82
658.29	708.71
658.64	703.47
658.98	698.17
659.32	692.71
659.66	687.37
660.00	682.03
660.34	677.05
660.68	672.25
661.02	667.12
661.36	662.42
661.70	657.94
662.05	653.57
662.39	649.30
662.73	644.92
663.07	640.45
663.41	636.05
663.75	631.48
664.09	626.93
664.43	622.52
664.77	618.31
665.11	614.02
665.45	609.98
665.79	605.96
666.13	601.88
666.47	597.81
666.81	593.75
667.15	589.65
667.49	585.82
667.83	581.98
668.17	578.10
668.51	573.98
668.85	570.00
669.19	566.20
669.53	562.36
669.87	558.49
670.21	554.81
670.55	551.18
670.89	547.87
671.23	544.46
671.57	540.93
671.91	537.47
672.25	533.98
672.58	530.47
672.92	527.01
673.26	523.84
673.60	520.66
673.94	517.57
674.28	514.64
674.62	511.69
674.96	508.56
675.30	505.65
675.64	502.78
675.97	500.04
676.31	497.17
676.65	494.25
676.99	491.53
677.33	488.68
677.67	485.88
678.01	482.76
678.34	479.77
678.68	476.91
679.02	474.07
679.36	471.35
679.70	468.61
680.04	465.88
680.37	462.98
680.71	460.26
681.05	457.57
681.39	454.87
681.73	452.20
682.06	449.72
682.40	447.17
682.74	444.64
683.08	442.09
683.42	439.43
683.75	436.97
684.09	434.42
684.43	431.96
684.77	429.49
685.10	427.20
685.44	424.88
685.78	422.63
686.12	420.40
686.45	418.15
686.79	415.85
687.13	413.64
687.46	411.52
687.80	409.37
688.14	407.21
688.48	405.16
688.81	402.87
689.15	400.69
689.49	398.55
689.82	396.48
690.16	394.40
690.50	392.50
690.83	390.50
691.17	388.51
691.51	386.63
691.84	384.77
692.18	382.82
692.52	380.80
692.85	378.86
693.19	376.96
693.52	375.10
693.86	373.32
694.20	371.54
694.53	369.71
694.87	367.82
695.21	366.04
695.54	364.22
695.88	362.54
696.21	360.80
696.55	359.12
696.88	357.40
697.22	355.72
697.56	354.11
697.89	352.46
698.23	350.87
698.56	349.21
698.90	347.62
699.23	345.99
699.57	344.47
699.90	342.93
700.24	341.39
700.58	339.83
700.91	338.29
701.25	336.84
701.58	335.46
701.92	334.14
702.25	332.78
702.59	331.39
702.92	330.05
703.26	328.76
703.59	327.49
703.93	326.35
704.26	325.14
704.60	323.79
704.93	322.53
705.26	321.26
705.60	320.12
705.93	318.94
706.27	317.89
706.60	316.83
706.94	315.71
707.27	314.62
707.61	313.60
707.94	312.59
708.27	311.53
708.61	310.49
708.94	309.49
709.28	308.49
709.61	307.54
709.94	306.63
710.28	305.61
710.61	304.62
710.95	303.53
711.28	302.57
711.61	301.64
711.95	300.73
712.28	299.82
712.61	298.85
712.95	297.96
713.28	297.09
713.61	296.22
713.95	295.36
714.28	294.50
714.61	293.67
714.95	292.82
715.28	291.98
715.61	291.07
715.95	290.24
716.28	289.39
716.61	288.62
716.95	287.82
717.28	287.08
717.61	286.36
717.94	285.63
718.28	284.84
718.61	284.16
718.94	283.46
719.27	282.76
719.61	282.12
719.94	281.44
720.27	280.70
720.60	280.00
720.94	279.42
721.27	278.84
721.60	278.21
721.93	277.60
722.27	277.07
722.60	276.52
722.93	275.92
723.26	275.37
723.59	274.79
723.93	274.24
724.26	273.69
724.59	273.09
724.92	272.55
725.25	272.03
725.59	271.50
725.92	271.02
726.25	270.51
726.58	270.00
726.91	269.51
727.24	269.09
727.57	268.63
727.91	268.10
728.24	267.64
728.57	267.14
728.90	266.73
729.23	266.21
729.56	265.79
729.89	265.32
730.22	264.82
730.55	264.36
730.89	263.89
731.22	263.45
731.55	263.09
731.88	262.69
732.21	262.27
732.54	261.85
732.87	261.41
733.20	261.04
733.53	260.65
733.86	260.29
734.19	259.88
734.52	259.49
734.85	259.15
735.18	258.73
735.51	258.38
735.84	257.99
736.17	257.65
736.50	257.24
736.83	257.04
737.16	256.75
737.49	256.43
737.82	256.08
738.15	255.73
738.48	255.33
738.81	254.98
739.14	254.67
739.47	254.36
739.80	254.04
740.13	253.75
740.46	253.42
740.79	253.10
741.12	252.79
741.45	252.50
741.78	252.15
742.11	251.84
742.44	251.52
742.77	251.23
743.10	250.95
743.43	250.67
743.75	250.28
744.08	250.10
744.41	249.81
744.74	249.54
745.07	249.26
745.40	249.05
745.73	248.84
746.06	248.59
746.39	248.36
746.71	248.06
747.04	247.80
747.37	247.56
747.70	247.31
748.03	247.06
748.36	246.84
748.68	246.63
749.01	246.39
749.34	246.15
749.67	245.92
750.00	245.68
750.33	245.52
750.65	245.29
750.98	244.98
751.31	244.77
751.64	244.56
751.97	244.42
752.29	244.17
752.62	243.94
752.95	243.75
753.28	243.52
753.60	243.33
753.93	243.18
754.26	242.95
754.59	242.71
754.91	242.51
755.24	242.31
755.57	242.11
755.90	241.94
756.22	241.77
756.55	241.54
756.88	241.35
757.20	241.15
757.53	240.95
757.86	240.78
758.19	240.60
758.51	240.44
758.84	240.18
759.17	240.02
759.49	239.86
759.82	239.71
760.15	239.58
760.47	239.43
760.80	239.21
761.13	239.12
761.45	238.99
761.78	238.82
762.11	238.67
762.43	238.55
762.76	238.37
763.08	238.26
763.41	238.15
763.74	238.00
764.06	237.79
764.39	237.62
764.71	237.48
765.04	237.36
765.37	237.23
765.69	237.14
766.02	236.98
766.34	236.84
766.67	236.62
767.00	236.49
767.32	236.39
767.65	236.33
767.97	236.18
768.30	236.03
768.62	235.93
768.95	235.79
769.27	235.66
769.60	235.57
769.92	235.43
770.25	235.31
770.57	235.22
770.90	235.15
771.22	235.07
771.55	234.95
771.87	234.83
772.20	234.75
772.52	234.74
772.85	234.78
773.17	234.69
773.50	234.64
773.82	234.50
774.15	234.40
774.47	234.23
774.80	234.13
775.12	234.08
775.45	234.00
775.77	233.93
776.09	233.86
776.42	233.77
776.74	233.71
777.07	233.63
777.39	233.54
777.72	233.45
778.04	233.40
778.36	233.32
778.69	233.24
779.01	233.14
779.33	232.97
779.66	232.78
779.98	232.69
780.31	232.62
780.63	232.63
780.95	232.59
781.28	232.56
781.60	232.52
781.92	232.42
782.25	232.35
782.57	232.31
782.89	232.23
783.22	232.18
783.54	232.10
783.86	232.06
784.19	232.00
784.51	231.98
784.83	231.90
785.16	231.87
785.48	231.83
785.80	231.80
786.12	231.77
786.45	231.73
786.77	231.69
787.09	231.63
787.42	231.55
787.74	231.49
788.06	231.44
788.38	231.37
788.71	231.37
789.03	231.34
789.35	231.30
789.67	231.26
789.99	231.27
790.32	231.22
790.64	231.17
790.96	231.22
791.28	231.17
791.61	231.13
791.93	231.12
792.25	231.12
792.57	231.13
792.89	231.04
793.21	231.02
793.54	230.99
793.86	230.99
794.18	230.99
794.50	230.90
794.82	230.87
795.14	230.86
795.47	230.78
795.79	230.73
796.11	230.70
796.43	230.64
796.75	230.56
797.07	230.56
797.39	230.53
797.71	230.43
798.04	230.38
798.36	230.34
798.68	230.28
799.00	230.22
799.32	230.15
799.64	230.15
799.96	230.12
800.28	230.06
800.60	230.01
800.92	229.95
801.24	229.96
801.56	229.91
801.89	229.89
802.21	229.90
802.53	229.86
802.85	229.83
803.17	229.85
803.49	229.82
803.81	229.78
804.13	229.74
804.45	229.68
804.77	229.67
805.09	229.63
805.41	229.58
805.73	229.53
806.05	229.47
806.37	229.41
806.69	229.39
807.01	229.39
807.33	229.35
807.65	229.29
807.97	229.28
808.28	229.26
808.60	229.23
808.92	229.19
809.24	229.23
809.56	229.18
809.88	229.13
810.20	229.11
810.52	229.06
810.84	229.02
811.16	228.99
811.48	228.94
811.80	228.98
812.12	228.93
812.43	228.95
812.75	228.92
813.07	228.92
813.39	228.89
813.71	228.85
814.03	228.82
814.35	228.79
814.67	228.76
814.98	228.73
815.30	228.68
815.62	228.64
815.94	228.54
816.26	228.58
816.58	228.54
816.89	228.55
817.21	228.53
817.53	228.51
817.85	228.49
818.17	228.49
818.48	228.39
818.80	228.44
819.12	228.41
819.44	228.37
819.76	228.32
820.07	228.29
820.39	228.27
820.71	228.26
821.03	228.27
821.34	228.23
821.66	228.23
821.98	228.22
822.30	228.20
822.61	228.28
822.93	228.22
823.25	228.22
823.57	228.18
823.88	228.19
824.20	228.20
824.52	228.22
824.83	228.20
825.15	228.19
825.47	228.16
825.79	228.17
826.10	228.18
826.42	228.19
826.74	228.19
827.05	228.18
827.37	228.18
827.69	228.17
828.00	228.18
828.32	228.19
828.64	228.17
828.95	228.23
829.27	228.19
829.58	228.18
829.90	228.20
830.22	228.22
830.53	228.19
830.85	228.18
831.17	228.18
831.48	228.18
831.80	228.22
832.11	228.20
832.43	228.16
832.75	228.16
833.06	228.23
833.38	228.24
833.69	228.28
834.01	228.28
834.32	228.25
834.64	228.19
834.96	228.18
835.27	228.20
835.59	228.13
835.90	228.08
836.22	228.07
836.53	228.03
836.85	228.00
837.16	228.11
837.48	228.11
837.79	228.16
838.11	228.14
838.42	228.13
838.74	228.16
839.05	228.16
839.37	228.16
839.68	228.10
840.00	228.05
840.31	228.03
840.63	228.05
840.94	228.06
841.26	228.09
841.57	228.08
841.88	228.05
842.20	228.06
842.51	228.06
842.83	228.06
843.14	228.12
843.46	228.08
843.77	228.00
844.08	228.01
844.40	227.90
844.71	227.89
845.03	227.84
845.34	227.76
845.65	227.75
845.97	227.70
846.28	227.67
846.60	227.68
846.91	227.65
847.22	227.60
847.54	227.60
847.85	227.59
848.16	227.55
848.48	227.52
848.79	227.53
849.10	227.51
849.42	227.52
849.73	227.44
850.04	227.45
850.36	227.41
850.67	227.35
850.98	227.34
851.30	227.35
851.61	227.36
851.92	227.37
852.23	227.40
852.55	227.42
852.86	227.40
853.17	227.42
853.49	227.42
853.80	227.46
854.11	227.47
854.42	227.46
854.74	227.47
855.05	227.48
855.36	227.42
855.67	227.44
855.99	227.44
856.30	227.56
856.61	227.57
856.92	227.56
857.23	227.59
857.55	227.59
857.86	227.54
858.17	227.54
858.48	227.51
858.79	227.49
859.11	227.50
859.42	227.51
859.73	227.48
860.04	227.48
860.35	227.46
860.66	227.41
860.98	227.42
861.29	227.42
861.60	227.44
861.91	227.46
862.22	227.44
862.53	227.42
862.84	227.29
863.16	227.28
863.47	227.26
863.78	227.24
864.09	227.25
864.40	227.28
864.71	227.29
865.02	227.35
865.33	227.33
865.64	227.29
865.95	227.27
866.27	227.34
866.58	227.32
866.89	227.31
867.20	227.33
867.51	227.29
867.82	227.30
868.13	227.30
868.44	227.29
868.75	227.34
869.06	227.33
869.37	227.37
869.68	227.36
869.99	227.36
870.30	227.37
870.61	227.41
870.92	227.42
871.23	227.39
871.54	227.38
871.85	227.41
872.16	227.46
872.47	227.45
872.78	227.41
873.09	227.46
873.40	227.46
873.71	227.47
874.02	227.49
874.33	227.48
874.64	227.47
874.95	227.50
875.26	227.45
875.56	227.42
875.87	227.40
876.18	227.40
876.49	227.51
876.80	227.51
877.11	227.52
877.42	227.51
877.73	227.53
878.04	227.54
878.35	227.51
878.66	227.50
878.96	227.53
879.27	227.54
879.58	227.51
879.89	227.49
880.20	227.51
880.51	227.49
880.82	227.45
881.12	227.43
881.43	227.41
881.74	227.41
882.05	227.39
882.36	227.38
882.67	227.40
882.97	227.29
883.28	227.28
883.59	227.25
883.90	227.23
884.21	227.23
884.51	227.21
884.82	227.16
885.13	227.17
885.44	227.15
885.74	227.11
886.05	227.09
886.36	227.08
886.67	227.03
886.98	227.06
887.28	227.09
887.59	227.10
887.90	227.10
888.20	227.05
888.51	227.09
888.82	227.08
889.13	227.02
889.43	227.10
889.74	227.06
890.05	227.03
890.35	227.00
890.66	226.99
890.97	226.95
891.28	226.98
891.58	226.96
891.89	226.92
892.20	226.92
892.50	226.89
892.81	226.88
893.12	226.87
893.42	226.87
893.73	226.86
894.04	226.84
894.34	226.84
894.65	226.88
894.95	226.85
895.26	226.87
895.57	226.91
895.87	226.82
896.18	226.85
896.48	226.86
896.79	226.89
897.10	226.89
897.40	226.91
897.71	226.90
898.01	226.89
898.32	226.92
898.63	226.91
898.93	226.95
899.24	226.97
899.54	226.96
899.85	226.94
900.15	226.95
900.46	226.99
900.76	227.00
901.07	226.98
901.38	226.97
901.68	226.98
901.99	226.97
902.29	226.97
902.60	226.98
902.90	226.94
903.21	226.93
903.51	226.93
903.82	226.93
904.12	226.94
904.43	226.94
904.73	226.95
905.03	226.96
905.34	227.03
905.64	227.01
905.95	227.01
906.25	227.00
906.56	226.99
906.86	226.97
907.17	226.97
907.47	226.99
907.77	226.97
908.08	226.97
908.38	226.96
908.69	227.00
908.99	227.05
909.30	227.08
909.60	227.11
909.90	227.11
910.21	227.09
910.51	227.10
910.81	227.12
911.12	227.12
911.42	227.12
911.73	227.04
912.03	226.99
912.33	227.05
912.64	227.07
912.94	227.07
913.24	227.06
913.55	227.06
913.85	227.05
914.15	227.07
914.46	227.07
914.76	227.05
915.06	227.04
915.37	227.02
915.67	227.04
915.97	227.04
916.27	227.08
916.58	227.08
916.88	227.09
917.18	227.07
917.49	227.13
917.79	227.13
918.09	227.13
918.39	227.19
918.70	227.18
919.00	227.17
919.30	227.23
919.60	227.21
919.91	227.20
920.21	227.19
920.51	227.19
920.81	227.19
921.12	227.23
921.42	227.22
921.72	227.19
922.02	227.17
922.32	227.18
922.63	227.14
922.93	227.20
923.23	227.19
923.53	227.16
923.83	227.10
924.13	227.12
924.44	227.14
924.74	227.16
925.04	227.18
925.34	227.15
925.64	227.09
925.94	227.10
926.24	227.14
926.55	227.13
926.85	227.14
927.15	227.10
927.45	227.07
927.75	227.06
928.05	227.05
928.35	227.01
928.65	226.99
928.95	226.99
929.26	226.95
929.56	226.95
929.86	226.97
930.16	226.94
930.46	226.91
930.76	226.91
931.06	226.87
931.36	226.82
931.66	226.85
931.96	226.83
932.26	226.82
932.56	226.78
932.86	226.79
933.16	226.79
933.46	226.81
933.76	226.80
934.06	226.83
934.36	226.87
934.66	226.86
934.96	226.85
935.26	226.84
935.56	226.83
935.86	226.78
936.16	226.78
936.46	226.75
936.76	226.74
937.06	226.70
937.36	226.69
937.66	226.67
937.96	226.65
938.26	226.66
938.56	226.66
938.86	226.63
939.16	226.64
939.46	226.65
939.76	226.62
940.06	226.64
940.35	226.61
940.65	226.59
940.95	226.62
941.25	226.61
941.55	226.60
941.85	226.56
942.15	226.58
942.45	226.60
942.75	226.62
943.04	226.67
943.34	226.70
943.64	226.69
943.94	226.72
944.24	226.75
944.54	226.75
944.84	226.76
945.13	226.79
945.43	226.77
945.73	226.76
946.03	226.76
946.33	226.78
946.62	226.77
946.92	226.76
947.22	226.77
947.52	226.76
947.82	226.79
948.11	226.81
948.41	226.81
948.71	226.80
949.01	226.82
949.31	226.81
949.60	226.82
949.90	226.85
950.20	226.83
950.50	226.79
950.79	226.82
951.09	226.86
951.39	226.87
951.69	226.87
951.98	226.92
952.28	226.95
952.58	226.94
952.87	226.96
953.17	226.95
953.47	226.94
953.76	226.96
954.06	226.94
954.36	226.94
954.66	226.96
954.95	226.97
955.25	226.95
955.55	226.93
955.84	226.94
956.14	226.94
956.44	226.93
956.73	226.95
957.03	226.93
957.32	226.91
957.62	226.91
957.92	226.94
958.21	226.92
958.51	227.01
958.81	227.00
959.10	226.97
959.40	227.00
959.69	227.00
959.99	227.01
960.29	227.01
960.58	226.99
960.88	227.03
961.17	227.02
961.47	227.06
961.76	227.06
962.06	227.03
962.36	227.00
962.65	227.01
962.95	227.01
963.24	227.00
963.54	227.00
963.83	226.96
964.13	226.94
964.42	226.90
964.72	226.80
965.01	226.82
965.31	226.82
965.60	226.78
965.90	226.86
966.19	226.83
966.49	226.84
966.78	226.84
967.08	226.79
967.37	226.79
967.67	226.71
967.96	226.70
968.26	226.67
968.55	226.67
968.85	226.66
969.14	226.63
969.43	226.60
969.73	226.61
970.02	226.60
970.32	226.60
970.61	226.58
970.91	226.58
971.20	226.56
971.49	226.56
971.79	226.55
972.08	226.46
972.38	226.48
972.67	226.48
972.96	226.46
973.26	226.44
973.55	226.48
973.85	226.49
974.14	226.47
974.43	226.52
974.73	226.50
975.02	226.49
975.31	226.47
975.61	226.49
975.90	226.45
976.19	226.44
976.49	226.44
976.78	226.43
977.07	226.40
977.37	226.41
977.66	226.42
977.95	226.41
978.24	226.43
978.54	226.46
978.83	226.46
979.12	226.49
979.42	226.52
979.71	226.50
980.00	226.49
980.29	226.54
980.59	226.50
980.88	226.55
981.17	226.54
981.46	226.58
981.76	226.60
982.05	226.64
982.34	226.67
982.63	226.67
982.93	226.70
983.22	226.73
983.51	226.72
983.80	226.76
984.09	226.80
984.39	226.77
984.68	226.74
984.97	226.74
985.26	226.75
985.55	226.74
985.85	226.73
986.14	226.79
986.43	226.78
986.72	226.82
987.01	226.77
987.30	226.81
987.59	226.83
987.89	226.82
988.18	226.81
988.47	226.81
988.76	226.83
989.05	226.85
989.34	226.87
989.63	226.92
989.92	226.88
990.22	226.88
990.51	226.92
990.80	226.92
991.09	226.93
991.38	226.95
991.67	226.98
991.96	226.99
992.25	227.00
992.54	227.00
992.83	227.03
993.12	227.05
993.41	227.12
993.70	227.18
993.99	227.20
994.28	227.22
994.58	227.23
994.87	227.23
995.16	227.24
995.45	227.21
995.74	227.20
996.03	227.25
996.32	227.23
996.61	227.25
996.90	227.27
997.19	227.25
997.48	227.27
997.77	227.24
998.06	227.25
998.34	227.23
998.63	227.23
998.92	227.22
999.21	227.27
999.50	227.24
999.79	227.15
1000.08	227.15
1000.37	227.17
1000.66	227.17
1000.95	227.18
1001.24	227.16
1001.53	227.18
1001.82	227.15
1002.11	227.12
1002.40	227.15
1002.68	227.16
1002.97	227.21
1003.26	227.19
1003.55	227.17
1003.84	227.17
1004.13	227.15
1004.42	227.13
1004.71	227.11
1004.99	227.08
1005.28	227.06
1005.57	227.03
1005.86	227.05
1006.15	227.00
1006.44	226.96
1006.72	226.97
1007.01	226.94
1007.30	226.92
1007.59	226.90
1007.88	226.92
1008.17	226.92
1008.45	226.89
1008.74	226.84
1009.03	226.79
1009.32	226.78
1009.60	226.72
1009.89	226.70
1010.18	226.69
1010.47	226.67
1010.76	226.68
1011.04	226.64
1011.33	226.65
1011.62	226.65
1011.91	226.64
1012.19	226.65
1012.48	226.63
1012.77	226.60
1013.05	226.63
1013.34	226.60
1013.63	226.57
1013.92	226.52
1014.20	226.49
1014.49	226.49
1014.78	226.50
1015.06	226.48
1015.35	226.49
1015.64	226.53
1015.92	226.55
1016.21	226.55
1016.50	226.55
1016.78	226.53
1017.07	226.56
1017.36	226.52
1017.64	226.49
1017.93	226.50
1018.22	226.51
1018.50	226.52
1018.79	226.53
1019.08	226.49
1019.36	226.54
1019.65	226.55
1019.93	226.59
1020.22	226.61
1020.51	226.67
1020.79	226.66
1021.08	226.66
1021.36	226.38
1021.65	226.89
1021.94	226.62
1022.22	227.13
1022.51	226.32
1022.79	226.81
1023.08	226.90
1023.36	227.78
1023.65	226.51
>>>>>End Processed Spectral Data<<<<<
