SpectraSuite Data File
++++++++++++++++++++++++++++++++++++
Date: Fri Feb 01 16:03:53 EST 2013
User: group
Dark Spectrum Present: No
Reference Spectrum Present: No
Number of Sampled Component Spectra: 1
Spectrometers: USB2E7196
Integration Time (usec): 35000 (USB2E7196)
Spectra Averaged: 100 (USB2E7196)
Boxcar Smoothing: 10 (USB2E7196)
Correct for Electrical Dark: No (USB2E7196)
Strobe/Lamp Enabled: No (USB2E7196)
Correct for Detector Non-linearity: No (USB2E7196)
Correct for Stray Light: No (USB2E7196)
Number of Pixels in Processed Spectrum: 2048
>>>>>Begin Processed Spectral Data<<<<<
339.09	0.00
339.48	214.54
339.86	216.54
340.24	217.67
340.63	219.09
341.01	221.65
341.39	221.97
341.78	222.98
342.16	224.07
342.54	224.75
342.93	213.01
343.31	223.77
343.69	224.32
344.07	224.75
344.46	225.15
344.84	225.55
345.22	225.81
345.60	226.06
345.99	226.24
346.37	226.39
346.75	226.48
347.13	226.56
347.52	226.65
347.90	226.75
348.28	226.79
348.66	226.83
349.05	226.85
349.43	226.88
349.81	226.94
350.19	227.01
350.57	227.06
350.96	227.11
351.34	227.21
351.72	227.29
352.10	227.37
352.48	227.48
352.87	227.50
353.25	227.56
353.63	227.57
354.01	227.66
354.39	227.72
354.77	227.82
355.15	227.90
355.54	227.96
355.92	228.00
356.30	228.08
356.68	228.25
357.06	228.30
357.44	228.37
357.82	228.44
358.20	228.50
358.58	228.57
358.97	228.65
359.35	228.70
359.73	228.79
360.11	228.83
360.49	228.91
360.87	228.96
361.25	229.02
361.63	229.13
362.01	229.15
362.39	229.15
362.77	229.15
363.15	229.21
363.53	229.25
363.91	229.24
364.29	229.25
364.67	229.13
365.05	229.14
365.43	229.19
365.81	229.23
366.19	229.26
366.57	229.26
366.95	229.26
367.33	229.22
367.71	229.19
368.09	229.22
368.47	229.16
368.85	229.14
369.23	229.11
369.61	229.04
369.99	229.06
370.37	229.05
370.75	229.10
371.13	229.04
371.51	229.00
371.89	228.98
372.27	228.90
372.65	228.90
373.03	228.87
373.41	228.77
373.78	228.68
374.16	228.60
374.54	228.52
374.92	228.49
375.30	228.46
375.68	228.40
376.06	228.33
376.44	228.27
376.82	228.21
377.19	228.15
377.57	228.09
377.95	228.00
378.33	227.93
378.71	227.79
379.09	227.72
379.47	227.65
379.84	227.57
380.22	227.51
380.60	227.40
380.98	227.30
381.36	227.26
381.73	227.20
382.11	227.16
382.49	227.10
382.87	226.99
383.25	226.92
383.62	226.96
384.00	226.88
384.38	226.83
384.76	226.78
385.13	226.75
385.51	226.69
385.89	226.62
386.27	226.57
386.64	226.55
387.02	226.52
387.40	226.46
387.78	226.43
388.15	226.37
388.53	226.36
388.91	226.35
389.29	226.31
389.66	226.28
390.04	226.24
390.42	226.25
390.79	226.24
391.17	226.25
391.55	226.14
391.92	226.16
392.30	226.15
392.68	226.14
393.05	226.17
393.43	226.17
393.81	226.17
394.18	226.18
394.56	226.19
394.94	226.20
395.31	226.19
395.69	226.24
396.06	226.31
396.44	226.32
396.82	226.35
397.19	226.43
397.57	226.45
397.95	226.51
398.32	226.52
398.70	226.60
399.07	226.63
399.45	226.72
399.82	226.77
400.20	226.81
400.58	226.88
400.95	226.90
401.33	227.00
401.70	227.21
402.08	227.29
402.45	227.36
402.83	227.47
403.20	227.63
403.58	227.72
403.95	227.84
404.33	227.97
404.71	228.10
405.08	228.26
405.46	228.39
405.83	228.52
406.21	228.68
406.58	228.84
406.96	229.02
407.33	229.20
407.70	229.39
408.08	229.67
408.45	229.89
408.83	230.14
409.20	230.36
409.58	230.51
409.95	230.77
410.33	231.06
410.70	231.31
411.08	231.57
411.45	231.89
411.82	232.18
412.20	232.54
412.57	232.95
412.95	233.24
413.32	233.69
413.69	234.12
414.07	234.55
414.44	234.98
414.82	235.46
415.19	235.96
415.56	236.53
415.94	237.07
416.31	237.75
416.68	238.38
417.06	239.08
417.43	239.76
417.81	240.53
418.18	241.30
418.55	242.14
418.93	243.05
419.30	243.95
419.67	244.89
420.04	245.83
420.42	246.83
420.79	248.03
421.16	249.14
421.54	250.32
421.91	251.55
422.28	252.81
422.66	254.16
423.03	255.50
423.40	256.84
423.77	258.24
424.15	259.64
424.52	261.10
424.89	262.73
425.26	264.31
425.64	265.77
426.01	267.43
426.38	269.11
426.75	270.78
427.13	272.48
427.50	274.30
427.87	276.19
428.24	278.05
428.61	279.77
428.99	281.73
429.36	283.83
429.73	285.92
430.10	287.96
430.47	290.00
430.85	292.10
431.22	294.31
431.59	296.68
431.96	298.91
432.33	301.40
432.70	303.81
433.08	306.61
433.45	309.24
433.82	311.77
434.19	314.66
434.56	317.45
434.93	320.11
435.30	322.70
435.68	325.61
436.05	328.41
436.42	331.23
436.79	333.74
437.16	336.42
437.53	339.20
437.90	341.97
438.27	344.72
438.64	347.57
439.01	350.14
439.38	352.38
439.75	354.56
440.13	357.03
440.50	359.34
440.87	361.16
441.24	363.12
441.61	365.28
441.98	366.75
442.35	368.49
442.72	370.30
443.09	372.13
443.46	373.12
443.83	373.73
444.20	374.23
444.57	375.08
444.94	375.37
445.31	375.71
445.68	376.05
446.05	376.11
446.42	375.68
446.79	375.26
447.16	374.84
447.53	374.51
447.90	373.36
448.27	372.17
448.64	370.60
449.01	369.42
449.37	367.45
449.74	365.54
450.11	363.30
450.48	360.84
450.85	358.34
451.22	356.20
451.59	354.20
451.96	352.24
452.33	349.62
452.70	347.26
453.07	344.41
453.43	341.55
453.80	338.79
454.17	336.15
454.54	333.63
454.91	330.86
455.28	328.17
455.65	325.69
456.02	323.25
456.38	321.11
456.75	318.47
457.12	316.22
457.49	314.04
457.86	311.92
458.23	310.13
458.59	308.09
458.96	306.00
459.33	304.11
459.70	302.23
460.07	300.72
460.43	298.98
460.80	297.43
461.17	295.99
461.54	294.51
461.91	293.10
462.27	291.68
462.64	290.47
463.01	289.13
463.38	287.91
463.74	286.54
464.11	285.36
464.48	284.34
464.85	283.21
465.21	282.36
465.58	281.45
465.95	280.33
466.32	279.39
466.68	278.45
467.05	277.56
467.42	276.72
467.78	275.79
468.15	274.93
468.52	274.27
468.88	273.41
469.25	272.66
469.62	272.04
469.98	271.35
470.35	270.69
470.72	270.09
471.08	269.36
471.45	268.83
471.82	268.31
472.18	267.69
472.55	267.30
472.92	266.77
473.28	266.33
473.65	265.89
474.02	265.45
474.38	265.11
474.75	264.78
475.11	264.42
475.48	264.18
475.85	263.97
476.21	263.74
476.58	263.52
476.94	263.39
477.31	263.22
477.67	263.09
478.04	263.01
478.41	262.99
478.77	263.04
479.14	262.99
479.50	262.99
479.87	263.07
480.23	263.11
480.60	263.16
480.96	263.19
481.33	263.38
481.69	263.60
482.06	263.78
482.42	263.98
482.79	264.24
483.15	264.55
483.52	264.93
483.88	265.27
484.25	265.67
484.61	266.08
484.98	266.52
485.34	267.07
485.71	267.67
486.07	268.23
486.44	268.81
486.80	269.48
487.17	270.20
487.53	271.04
487.90	271.90
488.26	272.85
488.62	273.89
488.99	274.83
489.35	275.89
489.72	277.01
490.08	278.23
490.44	279.51
490.81	280.84
491.17	282.15
491.54	283.61
491.90	285.13
492.26	286.77
492.63	288.51
492.99	290.30
493.36	292.18
493.72	294.24
494.08	296.30
494.45	298.58
494.81	300.96
495.17	303.41
495.54	306.04
495.90	308.74
496.26	311.53
496.63	314.52
496.99	317.63
497.35	320.89
497.72	324.29
498.08	327.79
498.44	331.47
498.80	335.45
499.17	339.49
499.53	343.65
499.89	348.04
500.26	352.55
500.62	357.23
500.98	362.20
501.34	367.29
501.71	372.61
502.07	378.06
502.43	383.66
502.79	389.49
503.16	395.55
503.52	401.79
503.88	408.20
504.24	414.91
504.60	421.79
504.97	428.93
505.33	436.24
505.69	443.94
506.05	451.74
506.41	459.60
506.78	467.79
507.14	476.27
507.50	485.02
507.86	494.08
508.22	503.26
508.59	512.45
508.95	522.05
509.31	531.90
509.67	542.03
510.03	552.41
510.39	562.93
510.75	573.75
511.12	584.66
511.48	596.00
511.84	607.45
512.20	618.95
512.56	630.90
512.92	643.10
513.28	655.47
513.64	667.94
514.00	680.71
514.37	693.61
514.73	706.68
515.09	719.71
515.45	732.93
515.81	746.42
516.17	760.50
516.53	774.65
516.89	788.82
517.25	802.96
517.61	817.39
517.97	831.82
518.33	846.24
518.69	861.10
519.05	876.11
519.41	891.21
519.77	906.80
520.13	922.16
520.49	937.44
520.85	952.81
521.21	968.51
521.57	984.69
521.93	1000.46
522.29	1016.82
522.65	1033.00
523.01	1049.16
523.37	1065.23
523.73	1081.29
524.09	1097.26
524.45	1113.53
524.81	1130.17
525.17	1146.79
525.53	1163.71
525.89	1180.49
526.25	1197.19
526.61	1213.42
526.97	1230.15
527.33	1246.54
527.68	1263.20
528.04	1279.77
528.40	1296.37
528.76	1313.36
529.12	1329.84
529.48	1346.69
529.84	1362.72
530.20	1379.38
530.56	1396.51
530.91	1413.97
531.27	1430.74
531.63	1447.24
531.99	1463.80
532.35	1479.67
532.71	1495.57
533.07	1511.78
533.42	1527.65
533.78	1543.66
534.14	1559.98
534.50	1575.22
534.86	1591.08
535.21	1606.21
535.57	1622.06
535.93	1637.56
536.29	1652.27
536.65	1667.38
537.00	1682.12
537.36	1697.25
537.72	1711.71
538.08	1725.85
538.44	1739.56
538.79	1753.41
539.15	1767.04
539.51	1780.78
539.87	1795.15
540.22	1808.87
540.58	1822.52
540.94	1835.77
541.29	1848.71
541.65	1861.40
542.01	1874.60
542.37	1886.87
542.72	1899.35
543.08	1911.25
543.44	1923.51
543.79	1934.71
544.15	1945.59
544.51	1957.10
544.87	1968.13
545.22	1978.88
545.58	1989.23
545.94	1998.99
546.29	2008.84
546.65	2018.61
547.01	2027.74
547.36	2036.48
547.72	2045.08
548.07	2052.89
548.43	2061.17
548.79	2069.25
549.14	2076.70
549.50	2084.15
549.86	2091.84
550.21	2099.05
550.57	2106.15
550.92	2112.67
551.28	2119.87
551.64	2126.91
551.99	2133.45
552.35	2139.62
552.70	2145.81
553.06	2151.86
553.41	2158.18
553.77	2164.19
554.13	2170.32
554.48	2176.68
554.84	2182.00
555.19	2187.17
555.55	2192.33
555.90	2196.68
556.26	2201.36
556.61	2206.12
556.97	2210.30
557.32	2214.40
557.68	2218.52
558.03	2222.64
558.39	2226.44
558.74	2230.96
559.10	2234.84
559.45	2238.59
559.81	2242.85
560.16	2246.60
560.52	2249.76
560.87	2253.17
561.23	2255.78
561.58	2258.62
561.94	2261.04
562.29	2263.49
562.64	2266.18
563.00	2268.85
563.35	2272.52
563.71	2275.66
564.06	2279.02
564.42	2281.85
564.77	2284.39
565.12	2286.70
565.48	2288.77
565.83	2290.64
566.19	2291.94
566.54	2292.79
566.89	2293.80
567.25	2294.39
567.60	2295.70
567.96	2297.33
568.31	2298.27
568.66	2299.34
569.02	2300.03
569.37	2300.31
569.72	2301.13
570.08	2301.43
570.43	2301.53
570.78	2300.88
571.14	2299.50
571.49	2298.01
571.84	2297.66
572.20	2296.59
572.55	2295.54
572.90	2293.93
573.26	2292.57
573.61	2290.95
573.96	2289.37
574.31	2286.43
574.67	2283.53
575.02	2279.91
575.37	2276.64
575.72	2272.69
576.08	2269.38
576.43	2265.96
576.78	2262.16
577.13	2259.09
577.49	2255.81
577.84	2252.24
578.19	2248.49
578.54	2244.85
578.90	2240.66
579.25	2235.21
579.60	2230.20
579.95	2225.19
580.30	2220.25
580.66	2215.11
581.01	2210.17
581.36	2205.20
581.71	2201.05
582.06	2196.50
582.42	2192.18
582.77	2186.91
583.12	2182.46
583.47	2177.78
583.82	2172.87
584.17	2167.70
584.53	2162.24
584.88	2156.56
585.23	2150.83
585.58	2145.53
585.93	2140.09
586.28	2135.43
586.63	2130.30
586.98	2125.23
587.34	2120.63
587.69	2115.71
588.04	2110.50
588.39	2104.87
588.74	2098.48
589.09	2092.35
589.44	2085.60
589.79	2079.61
590.14	2074.03
590.49	2067.37
590.84	2061.08
591.19	2055.07
591.54	2048.75
591.89	2041.27
592.25	2034.44
592.60	2027.29
592.95	2019.59
593.30	2012.04
593.65	2004.41
594.00	1997.41
594.35	1990.15
594.70	1982.07
595.05	1974.86
595.40	1967.53
595.75	1959.95
596.10	1953.70
596.45	1946.94
596.80	1940.87
597.15	1934.15
597.50	1926.95
597.85	1920.70
598.19	1913.94
598.54	1906.73
598.89	1900.03
599.24	1894.15
599.59	1887.51
599.94	1881.32
600.29	1874.98
600.64	1868.55
600.99	1860.98
601.34	1854.20
601.69	1847.33
602.04	1840.41
602.39	1833.12
602.74	1826.32
603.08	1819.69
603.43	1813.05
603.78	1805.81
604.13	1798.54
604.48	1791.17
604.83	1784.43
605.18	1777.34
605.53	1769.30
605.87	1761.45
606.22	1754.33
606.57	1746.39
606.92	1739.12
607.27	1731.92
607.62	1725.00
607.96	1717.82
608.31	1711.29
608.66	1703.67
609.01	1696.06
609.36	1688.57
609.70	1680.54
610.05	1672.40
610.40	1664.57
610.75	1656.07
611.10	1648.40
611.44	1640.09
611.79	1632.22
612.14	1623.49
612.49	1614.30
612.83	1606.02
613.18	1597.89
613.53	1589.79
613.88	1581.26
614.22	1572.95
614.57	1564.33
614.92	1556.24
615.27	1548.57
615.61	1540.16
615.96	1532.17
616.31	1524.61
616.65	1517.22
617.00	1509.64
617.35	1502.06
617.70	1493.96
618.04	1485.56
618.39	1477.29
618.74	1469.57
619.08	1461.25
619.43	1453.81
619.78	1446.91
620.12	1439.68
620.47	1432.15
620.82	1423.95
621.16	1416.63
621.51	1409.20
621.85	1401.63
622.20	1393.20
622.55	1384.86
622.89	1377.09
623.24	1369.52
623.59	1362.04
623.93	1354.37
624.28	1347.17
624.62	1339.46
624.97	1332.09
625.32	1325.42
625.66	1318.45
626.01	1311.26
626.35	1303.80
626.70	1295.95
627.04	1288.41
627.39	1280.62
627.73	1273.31
628.08	1266.38
628.43	1259.02
628.77	1251.49
629.12	1243.86
629.46	1236.61
629.81	1229.17
630.15	1222.01
630.50	1214.61
630.84	1206.47
631.19	1198.60
631.53	1191.08
631.88	1183.62
632.22	1176.00
632.57	1168.56
632.91	1160.91
633.26	1153.45
633.60	1146.16
633.95	1139.03
634.29	1131.80
634.64	1125.12
634.98	1117.72
635.32	1110.47
635.67	1103.88
636.01	1097.32
636.36	1090.51
636.70	1084.06
637.05	1077.41
637.39	1070.87
637.73	1064.30
638.08	1058.35
638.42	1052.32
638.77	1045.83
639.11	1039.24
639.45	1032.88
639.80	1026.29
640.14	1020.00
640.49	1013.53
640.83	1007.17
641.17	1000.93
641.52	994.54
641.86	988.03
642.20	982.09
642.55	975.87
642.89	969.36
643.23	962.79
643.58	957.01
643.92	950.77
644.26	944.69
644.61	938.68
644.95	932.56
645.29	926.02
645.64	919.36
645.98	913.07
646.32	907.22
646.66	901.18
647.01	895.38
647.35	889.53
647.69	883.74
648.04	878.21
648.38	872.36
648.72	866.39
649.06	860.38
649.41	854.57
649.75	848.56
650.09	842.66
650.43	836.85
650.78	830.69
651.12	824.71
651.46	819.01
651.80	813.20
652.14	807.91
652.49	802.48
652.83	797.33
653.17	791.59
653.51	785.84
653.85	780.39
654.20	774.71
654.54	768.70
654.88	762.86
655.22	757.04
655.56	751.41
655.90	745.99
656.25	740.73
656.59	735.29
656.93	730.19
657.27	725.02
657.61	719.59
657.95	714.52
658.29	709.43
658.64	704.24
658.98	698.96
659.32	693.40
659.66	688.20
660.00	682.84
660.34	677.92
660.68	673.04
661.02	668.02
661.36	663.37
661.70	658.96
662.05	654.60
662.39	650.18
662.73	645.75
663.07	641.35
663.41	636.94
663.75	632.44
664.09	627.84
664.43	623.46
664.77	619.30
665.11	615.04
665.45	610.96
665.79	606.85
666.13	602.70
666.47	598.63
666.81	594.46
667.15	590.35
667.49	586.40
667.83	582.62
668.17	578.69
668.51	574.54
668.85	570.54
669.19	566.73
669.53	562.87
669.87	558.96
670.21	555.29
670.55	551.63
670.89	548.19
671.23	544.85
671.57	541.38
671.91	537.83
672.25	534.32
672.58	530.81
672.92	527.42
673.26	524.29
673.60	521.15
673.94	518.01
674.28	515.07
674.62	512.15
674.96	509.04
675.30	506.14
675.64	503.24
675.97	500.49
676.31	497.66
676.65	494.78
676.99	492.04
677.33	489.17
677.67	486.39
678.01	483.42
678.34	480.41
678.68	477.45
679.02	474.62
679.36	471.86
679.70	469.14
680.04	466.37
680.37	463.46
680.71	460.70
681.05	458.13
681.39	455.41
681.73	452.77
682.06	450.20
682.40	447.67
682.74	445.11
683.08	442.52
683.42	439.85
683.75	437.30
684.09	434.81
684.43	432.34
684.77	429.86
685.10	427.49
685.44	425.19
685.78	422.92
686.12	420.66
686.45	418.39
686.79	416.07
687.13	413.88
687.46	411.76
687.80	409.57
688.14	407.33
688.48	405.30
688.81	403.02
689.15	400.87
689.49	398.74
689.82	396.67
690.16	394.58
690.50	392.64
690.83	390.69
691.17	388.65
691.51	386.74
691.84	384.87
692.18	382.91
692.52	380.87
692.85	378.95
693.19	377.12
693.52	375.31
693.86	373.49
694.20	371.67
694.53	369.87
694.87	368.02
695.21	366.22
695.54	364.38
695.88	362.68
696.21	360.92
696.55	359.21
696.88	357.49
697.22	355.83
697.56	354.24
697.89	352.63
698.23	351.06
698.56	349.44
698.90	347.89
699.23	346.30
699.57	344.83
699.90	343.28
700.24	341.72
700.58	340.12
700.91	338.63
701.25	337.23
701.58	335.87
701.92	334.49
702.25	333.12
702.59	331.79
702.92	330.47
703.26	329.20
703.59	327.94
703.93	326.80
704.26	325.58
704.60	324.24
704.93	322.96
705.26	321.66
705.60	320.48
705.93	319.29
706.27	318.19
706.60	317.08
706.94	316.01
707.27	314.88
707.61	313.84
707.94	312.81
708.27	311.71
708.61	310.62
708.94	309.62
709.28	308.64
709.61	307.68
709.94	306.72
710.28	305.69
710.61	304.73
710.95	303.69
711.28	302.79
711.61	301.86
711.95	300.93
712.28	300.01
712.61	299.06
712.95	298.13
713.28	297.26
713.61	296.39
713.95	295.49
714.28	294.66
714.61	293.81
714.95	292.96
715.28	292.11
715.61	291.22
715.95	290.37
716.28	289.51
716.61	288.70
716.95	287.94
717.28	287.20
717.61	286.39
717.94	285.62
718.28	284.77
718.61	284.05
718.94	283.37
719.27	282.74
719.61	282.07
719.94	281.45
720.27	280.74
720.60	280.08
720.94	279.50
721.27	278.87
721.60	278.31
721.93	277.71
722.27	277.17
722.60	276.64
722.93	276.06
723.26	275.53
723.59	274.92
723.93	274.32
724.26	273.75
724.59	273.24
724.92	272.70
725.25	272.23
725.59	271.71
725.92	271.17
726.25	270.64
726.58	270.14
726.91	269.61
727.24	269.15
727.57	268.64
727.91	268.13
728.24	267.67
728.57	267.17
728.90	266.76
729.23	266.21
729.56	265.78
729.89	265.31
730.22	264.84
730.55	264.41
730.89	263.99
731.22	263.58
731.55	263.13
731.88	262.67
732.21	262.21
732.54	261.79
732.87	261.40
733.20	261.02
733.53	260.61
733.86	260.20
734.19	259.80
734.52	259.44
734.85	259.10
735.18	258.67
735.51	258.29
735.84	257.87
736.17	257.55
736.50	257.12
736.83	256.91
737.16	256.55
737.49	256.21
737.82	255.82
738.15	255.47
738.48	255.14
738.81	254.86
739.14	254.56
739.47	254.23
739.80	253.92
740.13	253.62
740.46	253.32
740.79	253.03
741.12	252.73
741.45	252.43
741.78	252.06
742.11	251.81
742.44	251.44
742.77	251.15
743.10	250.86
743.43	250.56
743.75	250.16
744.08	250.03
744.41	249.74
744.74	249.47
745.07	249.23
745.40	248.98
745.73	248.74
746.06	248.44
746.39	248.17
746.71	247.87
747.04	247.59
747.37	247.32
747.70	247.07
748.03	246.80
748.36	246.56
748.68	246.34
749.01	246.07
749.34	245.89
749.67	245.66
750.00	245.43
750.33	245.33
750.65	245.15
750.98	244.78
751.31	244.58
751.64	244.38
751.97	244.19
752.29	243.95
752.62	243.70
752.95	243.50
753.28	243.31
753.60	243.13
753.93	242.92
754.26	242.71
754.59	242.46
754.91	242.26
755.24	242.03
755.57	241.84
755.90	241.68
756.22	241.48
756.55	241.27
756.88	241.07
757.20	240.79
757.53	240.58
757.86	240.44
758.19	240.27
758.51	240.11
758.84	239.88
759.17	239.74
759.49	239.59
759.82	239.47
760.15	239.30
760.47	239.16
760.80	238.98
761.13	238.84
761.45	238.70
761.78	238.57
762.11	238.44
762.43	238.30
762.76	238.16
763.08	238.06
763.41	237.94
763.74	237.80
764.06	237.67
764.39	237.53
764.71	237.37
765.04	237.19
765.37	237.11
765.69	237.01
766.02	236.84
766.34	236.73
766.67	236.56
767.00	236.46
767.32	236.38
767.65	236.32
767.97	236.22
768.30	236.09
768.62	236.02
768.95	235.92
769.27	235.78
769.60	235.69
769.92	235.57
770.25	235.45
770.57	235.34
770.90	235.26
771.22	235.15
771.55	235.04
771.87	234.98
772.20	234.84
772.52	234.79
772.85	234.83
773.17	234.71
773.50	234.60
773.82	234.48
774.15	234.37
774.47	234.22
774.80	234.09
775.12	234.04
775.45	233.93
775.77	233.85
776.09	233.78
776.42	233.69
776.74	233.60
777.07	233.50
777.39	233.44
777.72	233.36
778.04	233.31
778.36	233.25
778.69	233.19
779.01	233.11
779.33	232.98
779.66	232.83
779.98	232.76
780.31	232.72
780.63	232.67
780.95	232.63
781.28	232.58
781.60	232.52
781.92	232.44
782.25	232.37
782.57	232.32
782.89	232.27
783.22	232.20
783.54	232.15
783.86	232.13
784.19	232.05
784.51	232.03
784.83	231.94
785.16	231.93
785.48	231.88
785.80	231.82
786.12	231.76
786.45	231.66
786.77	231.63
787.09	231.60
787.42	231.53
787.74	231.45
788.06	231.41
788.38	231.38
788.71	231.33
789.03	231.30
789.35	231.26
789.67	231.22
789.99	231.15
790.32	231.10
790.64	231.05
790.96	231.10
791.28	231.04
791.61	231.01
791.93	230.93
792.25	230.90
792.57	230.96
792.89	230.88
793.21	230.87
793.54	230.82
793.86	230.77
794.18	230.74
794.50	230.71
794.82	230.65
795.14	230.61
795.47	230.58
795.79	230.54
796.11	230.48
796.43	230.41
796.75	230.38
797.07	230.34
797.39	230.33
797.71	230.22
798.04	230.20
798.36	230.13
798.68	230.09
799.00	230.05
799.32	229.96
799.64	229.98
799.96	229.94
800.28	229.93
800.60	229.86
800.92	229.87
801.24	229.82
801.56	229.84
801.89	229.79
802.21	229.76
802.53	229.70
802.85	229.68
803.17	229.72
803.49	229.67
803.81	229.62
804.13	229.58
804.45	229.54
804.77	229.48
805.09	229.45
805.41	229.41
805.73	229.37
806.05	229.31
806.37	229.26
806.69	229.21
807.01	229.17
807.33	229.17
807.65	229.08
807.97	229.12
808.28	229.09
808.60	229.09
808.92	229.05
809.24	229.08
809.56	229.04
809.88	228.98
810.20	228.98
810.52	228.98
810.84	228.91
811.16	228.91
811.48	228.89
811.80	228.93
812.12	228.88
812.43	228.89
812.75	228.89
813.07	228.86
813.39	228.89
813.71	228.88
814.03	228.82
814.35	228.81
814.67	228.73
814.98	228.68
815.30	228.69
815.62	228.66
815.94	228.58
816.26	228.63
816.58	228.58
816.89	228.57
817.21	228.52
817.53	228.54
817.85	228.50
818.17	228.51
818.48	228.45
818.80	228.47
819.12	228.41
819.44	228.38
819.76	228.33
820.07	228.29
820.39	228.26
820.71	228.27
821.03	228.27
821.34	228.26
821.66	228.22
821.98	228.22
822.30	228.20
822.61	228.23
822.93	228.14
823.25	228.12
823.57	228.12
823.88	228.16
824.20	228.13
824.52	228.14
824.83	228.12
825.15	228.10
825.47	228.11
825.79	228.10
826.10	228.11
826.42	228.12
826.74	228.10
827.05	228.09
827.37	228.08
827.69	228.05
828.00	228.03
828.32	228.02
828.64	227.96
828.95	227.99
829.27	227.99
829.58	227.99
829.90	228.02
830.22	228.02
830.53	227.96
830.85	227.94
831.17	227.90
831.48	227.88
831.80	227.86
832.11	227.84
832.43	227.82
832.75	227.78
833.06	227.83
833.38	227.82
833.69	227.81
834.01	227.78
834.32	227.82
834.64	227.83
834.96	227.80
835.27	227.80
835.59	227.80
835.90	227.75
836.22	227.76
836.53	227.70
836.85	227.68
837.16	227.79
837.48	227.79
837.79	227.85
838.11	227.86
838.42	227.89
838.74	227.87
839.05	227.87
839.37	227.87
839.68	227.78
840.00	227.77
840.31	227.77
840.63	227.78
840.94	227.73
841.26	227.68
841.57	227.71
841.88	227.75
842.20	227.72
842.51	227.73
842.83	227.70
843.14	227.79
843.46	227.79
843.77	227.74
844.08	227.72
844.40	227.65
844.71	227.63
845.03	227.60
845.34	227.59
845.65	227.57
845.97	227.57
846.28	227.59
846.60	227.58
846.91	227.57
847.22	227.56
847.54	227.57
847.85	227.59
848.16	227.58
848.48	227.53
848.79	227.57
849.10	227.54
849.42	227.55
849.73	227.45
850.04	227.43
850.36	227.35
850.67	227.33
850.98	227.33
851.30	227.36
851.61	227.32
851.92	227.35
852.23	227.40
852.55	227.40
852.86	227.43
853.17	227.43
853.49	227.43
853.80	227.47
854.11	227.49
854.42	227.48
854.74	227.46
855.05	227.47
855.36	227.39
855.67	227.44
855.99	227.43
856.30	227.57
856.61	227.56
856.92	227.60
857.23	227.61
857.55	227.60
857.86	227.58
858.17	227.64
858.48	227.59
858.79	227.55
859.11	227.58
859.42	227.58
859.73	227.53
860.04	227.51
860.35	227.46
860.66	227.42
860.98	227.43
861.29	227.45
861.60	227.44
861.91	227.49
862.22	227.46
862.53	227.43
862.84	227.32
863.16	227.37
863.47	227.37
863.78	227.36
864.09	227.38
864.40	227.37
864.71	227.36
865.02	227.40
865.33	227.39
865.64	227.36
865.95	227.38
866.27	227.47
866.58	227.48
866.89	227.48
867.20	227.47
867.51	227.44
867.82	227.44
868.13	227.50
868.44	227.46
868.75	227.46
869.06	227.47
869.37	227.47
869.68	227.43
869.99	227.42
870.30	227.41
870.61	227.40
870.92	227.37
871.23	227.33
871.54	227.31
871.85	227.31
872.16	227.31
872.47	227.30
872.78	227.24
873.09	227.22
873.40	227.23
873.71	227.23
874.02	227.21
874.33	227.18
874.64	227.11
874.95	227.12
875.26	227.12
875.56	227.11
875.87	227.08
876.18	227.05
876.49	227.11
876.80	227.13
877.11	227.11
877.42	227.15
877.73	227.18
878.04	227.14
878.35	227.14
878.66	227.12
878.96	227.06
879.27	227.06
879.58	227.06
879.89	227.04
880.20	227.09
880.51	227.12
880.82	227.13
881.12	227.14
881.43	227.14
881.74	227.08
882.05	227.06
882.36	227.07
882.67	227.08
882.97	226.97
883.28	226.94
883.59	226.92
883.90	226.92
884.21	226.94
884.51	226.94
884.82	226.92
885.13	226.92
885.44	226.93
885.74	226.92
886.05	226.91
886.36	226.90
886.67	226.85
886.98	226.88
887.28	226.90
887.59	226.90
887.90	226.89
888.20	226.88
888.51	226.94
888.82	226.91
889.13	226.93
889.43	227.02
889.74	227.02
890.05	227.00
890.35	227.00
890.66	226.95
890.97	226.96
891.28	226.96
891.58	226.99
891.89	226.96
892.20	226.96
892.50	226.94
892.81	226.95
893.12	226.98
893.42	226.96
893.73	226.97
894.04	226.95
894.34	226.98
894.65	227.00
894.95	226.97
895.26	226.98
895.57	227.02
895.87	226.94
896.18	226.97
896.48	227.03
896.79	227.03
897.10	227.05
897.40	227.04
897.71	227.06
898.01	227.05
898.32	227.10
898.63	227.09
898.93	227.10
899.24	227.10
899.54	227.08
899.85	227.07
900.15	227.03
900.46	227.05
900.76	227.05
901.07	227.06
901.38	227.06
901.68	227.07
901.99	227.01
902.29	227.01
902.60	226.99
902.90	226.97
903.21	226.99
903.51	227.01
903.82	227.04
904.12	227.02
904.43	227.04
904.73	227.04
905.03	227.02
905.34	227.10
905.64	227.13
905.95	227.09
906.25	227.06
906.56	227.07
906.86	227.04
907.17	227.03
907.47	227.05
907.77	227.05
908.08	227.01
908.38	227.02
908.69	227.04
908.99	227.07
909.30	227.06
909.60	227.02
909.90	227.01
910.21	226.97
910.51	226.96
910.81	226.94
911.12	226.92
911.42	226.94
911.73	226.83
912.03	226.81
912.33	226.85
912.64	226.87
912.94	226.85
913.24	226.84
913.55	226.86
913.85	226.80
914.15	226.81
914.46	226.83
914.76	226.81
915.06	226.79
915.37	226.74
915.67	226.74
915.97	226.74
916.27	226.71
916.58	226.73
916.88	226.76
917.18	226.70
917.49	226.77
917.79	226.75
918.09	226.80
918.39	226.80
918.70	226.81
919.00	226.79
919.30	226.85
919.60	226.86
919.91	226.83
920.21	226.85
920.51	226.81
920.81	226.82
921.12	226.86
921.42	226.84
921.72	226.85
922.02	226.85
922.32	226.89
922.63	226.94
922.93	226.99
923.23	226.98
923.53	227.02
923.83	226.93
924.13	226.95
924.44	226.91
924.74	226.92
925.04	226.93
925.34	226.93
925.64	226.90
925.94	226.90
926.24	226.94
926.55	226.94
926.85	226.99
927.15	226.97
927.45	227.01
927.75	227.03
928.05	227.03
928.35	227.03
928.65	227.01
928.95	226.97
929.26	226.92
929.56	226.90
929.86	226.88
930.16	226.87
930.46	226.90
930.76	226.90
931.06	226.89
931.36	226.87
931.66	226.89
931.96	226.88
932.26	226.89
932.56	226.86
932.86	226.88
933.16	226.83
933.46	226.85
933.76	226.78
934.06	226.81
934.36	226.86
934.66	226.82
934.96	226.82
935.26	226.81
935.56	226.80
935.86	226.77
936.16	226.78
936.46	226.77
936.76	226.74
937.06	226.75
937.36	226.73
937.66	226.72
937.96	226.69
938.26	226.67
938.56	226.64
938.86	226.62
939.16	226.63
939.46	226.63
939.76	226.61
940.06	226.63
940.35	226.60
940.65	226.53
940.95	226.55
941.25	226.53
941.55	226.51
941.85	226.51
942.15	226.52
942.45	226.52
942.75	226.55
943.04	226.53
943.34	226.54
943.64	226.53
943.94	226.51
944.24	226.52
944.54	226.53
944.84	226.55
945.13	226.55
945.43	226.51
945.73	226.53
946.03	226.51
946.33	226.50
946.62	226.49
946.92	226.52
947.22	226.51
947.52	226.51
947.82	226.54
948.11	226.53
948.41	226.50
948.71	226.49
949.01	226.47
949.31	226.46
949.60	226.45
949.90	226.47
950.20	226.48
950.50	226.45
950.79	226.45
951.09	226.42
951.39	226.41
951.69	226.41
951.98	226.46
952.28	226.46
952.58	226.46
952.87	226.44
953.17	226.42
953.47	226.44
953.76	226.46
954.06	226.42
954.36	226.40
954.66	226.44
954.95	226.47
955.25	226.48
955.55	226.51
955.84	226.50
956.14	226.50
956.44	226.48
956.73	226.47
957.03	226.46
957.32	226.49
957.62	226.49
957.92	226.51
958.21	226.45
958.51	226.56
958.81	226.54
959.10	226.57
959.40	226.62
959.69	226.61
959.99	226.61
960.29	226.65
960.58	226.68
960.88	226.70
961.17	226.71
961.47	226.74
961.76	226.75
962.06	226.76
962.36	226.79
962.65	226.80
962.95	226.82
963.24	226.82
963.54	226.82
963.83	226.86
964.13	226.86
964.42	226.86
964.72	226.85
965.01	226.86
965.31	226.85
965.60	226.77
965.90	226.83
966.19	226.83
966.49	226.83
966.78	226.86
967.08	226.84
967.37	226.80
967.67	226.78
967.96	226.80
968.26	226.81
968.55	226.81
968.85	226.81
969.14	226.83
969.43	226.83
969.73	226.80
970.02	226.84
970.32	226.85
970.61	226.84
970.91	226.81
971.20	226.81
971.49	226.82
971.79	226.86
972.08	226.79
972.38	226.82
972.67	226.82
972.96	226.79
973.26	226.77
973.55	226.83
973.85	226.80
974.14	226.83
974.43	226.83
974.73	226.83
975.02	226.83
975.31	226.84
975.61	226.87
975.90	226.88
976.19	226.85
976.49	226.84
976.78	226.83
977.07	226.79
977.37	226.79
977.66	226.77
977.95	226.74
978.24	226.74
978.54	226.75
978.83	226.71
979.12	226.69
979.42	226.71
979.71	226.69
980.00	226.71
980.29	226.67
980.59	226.62
980.88	226.62
981.17	226.63
981.46	226.60
981.76	226.57
982.05	226.59
982.34	226.57
982.63	226.55
982.93	226.55
983.22	226.55
983.51	226.54
983.80	226.57
984.09	226.59
984.39	226.58
984.68	226.56
984.97	226.58
985.26	226.58
985.55	226.56
985.85	226.52
986.14	226.53
986.43	226.54
986.72	226.54
987.01	226.51
987.30	226.46
987.59	226.45
987.89	226.43
988.18	226.36
988.47	226.36
988.76	226.36
989.05	226.34
989.34	226.34
989.63	226.37
989.92	226.34
990.22	226.32
990.51	226.32
990.80	226.32
991.09	226.33
991.38	226.34
991.67	226.35
991.96	226.31
992.25	226.31
992.54	226.29
992.83	226.29
993.12	226.28
993.41	226.35
993.70	226.39
993.99	226.41
994.28	226.46
994.58	226.50
994.87	226.49
995.16	226.51
995.45	226.51
995.74	226.46
996.03	226.49
996.32	226.51
996.61	226.54
996.90	226.52
997.19	226.51
997.48	226.51
997.77	226.50
998.06	226.56
998.34	226.55
998.63	226.56
998.92	226.58
999.21	226.57
999.50	226.56
999.79	226.52
1000.08	226.54
1000.37	226.53
1000.66	226.49
1000.95	226.53
1001.24	226.55
1001.53	226.56
1001.82	226.60
1002.11	226.58
1002.40	226.56
1002.68	226.57
1002.97	226.61
1003.26	226.59
1003.55	226.60
1003.84	226.64
1004.13	226.69
1004.42	226.70
1004.71	226.71
1004.99	226.69
1005.28	226.75
1005.57	226.72
1005.86	226.72
1006.15	226.72
1006.44	226.74
1006.72	226.76
1007.01	226.72
1007.30	226.70
1007.59	226.69
1007.88	226.69
1008.17	226.68
1008.45	226.68
1008.74	226.67
1009.03	226.65
1009.32	226.65
1009.60	226.66
1009.89	226.62
1010.18	226.54
1010.47	226.54
1010.76	226.53
1011.04	226.52
1011.33	226.53
1011.62	226.59
1011.91	226.60
1012.19	226.58
1012.48	226.58
1012.77	226.57
1013.05	226.62
1013.34	226.65
1013.63	226.63
1013.92	226.61
1014.20	226.62
1014.49	226.62
1014.78	226.63
1015.06	226.58
1015.35	226.59
1015.64	226.56
1015.92	226.57
1016.21	226.57
1016.50	226.56
1016.78	226.58
1017.07	226.60
1017.36	226.56
1017.64	226.52
1017.93	226.54
1018.22	226.54
1018.50	226.53
1018.79	226.54
1019.08	226.48
1019.36	226.45
1019.65	226.47
1019.93	226.50
1020.22	226.51
1020.51	226.57
1020.79	226.55
1021.08	226.43
1021.36	226.47
1021.65	226.63
1021.94	226.14
1022.22	226.35
1022.51	226.58
1022.79	226.61
1023.08	226.58
1023.36	227.83
1023.65	226.38
>>>>>End Processed Spectral Data<<<<<
