SpectraSuite Data File
++++++++++++++++++++++++++++++++++++
Date: Fri Feb 01 15:16:38 EST 2013
User: group
Dark Spectrum Present: No
Reference Spectrum Present: No
Number of Sampled Component Spectra: 1
Spectrometers: USB2E7196
Integration Time (usec): 35000 (USB2E7196)
Spectra Averaged: 100 (USB2E7196)
Boxcar Smoothing: 10 (USB2E7196)
Correct for Electrical Dark: No (USB2E7196)
Strobe/Lamp Enabled: No (USB2E7196)
Correct for Detector Non-linearity: No (USB2E7196)
Correct for Stray Light: No (USB2E7196)
Number of Pixels in Processed Spectrum: 2048
>>>>>Begin Processed Spectral Data<<<<<
339.09	0.00
339.48	215.60
339.86	216.95
340.24	217.90
340.63	219.45
341.01	222.56
341.39	222.24
341.78	223.81
342.16	224.68
342.54	225.34
342.93	213.56
343.31	224.34
343.69	224.86
344.07	225.30
344.46	225.72
344.84	226.11
345.22	226.33
345.60	226.55
345.99	226.71
346.37	226.83
346.75	226.90
347.13	226.98
347.52	227.02
347.90	227.09
348.28	227.13
348.66	227.15
349.05	227.13
349.43	227.16
349.81	227.19
350.19	227.24
350.57	227.30
350.96	227.35
351.34	227.42
351.72	227.53
352.10	227.62
352.48	227.68
352.87	227.72
353.25	227.76
353.63	227.83
354.01	227.90
354.39	227.96
354.77	228.04
355.15	228.13
355.54	228.19
355.92	228.24
356.30	228.30
356.68	228.44
357.06	228.51
357.44	228.55
357.82	228.58
358.20	228.66
358.58	228.68
358.97	228.73
359.35	228.81
359.73	228.85
360.11	228.89
360.49	228.97
360.87	229.02
361.25	229.09
361.63	229.15
362.01	229.20
362.39	229.21
362.77	229.24
363.15	229.25
363.53	229.28
363.91	229.29
364.29	229.28
364.67	229.18
365.05	229.21
365.43	229.26
365.81	229.33
366.19	229.37
366.57	229.39
366.95	229.36
367.33	229.32
367.71	229.28
368.09	229.31
368.47	229.26
368.85	229.22
369.23	229.19
369.61	229.10
369.99	229.10
370.37	229.10
370.75	229.09
371.13	229.05
371.51	228.99
371.89	228.95
372.27	228.93
372.65	228.90
373.03	228.83
373.41	228.79
373.78	228.66
374.16	228.58
374.54	228.47
374.92	228.44
375.30	228.38
375.68	228.31
376.06	228.23
376.44	228.18
376.82	228.09
377.19	228.03
377.57	228.02
377.95	227.91
378.33	227.82
378.71	227.72
379.09	227.65
379.47	227.58
379.84	227.49
380.22	227.41
380.60	227.31
380.98	227.23
381.36	227.13
381.73	227.09
382.11	227.01
382.49	226.97
382.87	226.91
383.25	226.86
383.62	226.89
384.00	226.78
384.38	226.73
384.76	226.70
385.13	226.67
385.51	226.60
385.89	226.54
386.27	226.49
386.64	226.46
387.02	226.42
387.40	226.37
387.78	226.35
388.15	226.32
388.53	226.31
388.91	226.28
389.29	226.23
389.66	226.23
390.04	226.19
390.42	226.20
390.79	226.19
391.17	226.17
391.55	226.07
391.92	226.10
392.30	226.08
392.68	226.08
393.05	226.10
393.43	226.10
393.81	226.14
394.18	226.15
394.56	226.19
394.94	226.21
395.31	226.25
395.69	226.35
396.06	226.40
396.44	226.43
396.82	226.47
397.19	226.59
397.57	226.61
397.95	226.71
398.32	226.74
398.70	226.81
399.07	226.89
399.45	226.95
399.82	227.04
400.20	227.15
400.58	227.26
400.95	227.31
401.33	227.39
401.70	227.52
402.08	227.63
402.45	227.69
402.83	227.84
403.20	227.93
403.58	228.02
403.95	228.17
404.33	228.32
404.71	228.45
405.08	228.63
405.46	228.80
405.83	228.93
406.21	229.07
406.58	229.24
406.96	229.45
407.33	229.65
407.70	229.82
408.08	230.09
408.45	230.30
408.83	230.54
409.20	230.77
409.58	230.96
409.95	231.23
410.33	231.53
410.70	231.77
411.08	232.10
411.45	232.43
411.82	232.74
412.20	233.11
412.57	233.55
412.95	233.83
413.32	234.24
413.69	234.65
414.07	235.15
414.44	235.65
414.82	236.11
415.19	236.67
415.56	237.24
415.94	237.79
416.31	238.42
416.68	239.07
417.06	239.80
417.43	240.51
417.81	241.32
418.18	242.14
418.55	242.98
418.93	243.84
419.30	244.74
419.67	245.69
420.04	246.61
420.42	247.61
420.79	248.84
421.16	250.02
421.54	251.23
421.91	252.43
422.28	253.66
422.66	254.97
423.03	256.30
423.40	257.68
423.77	259.09
424.15	260.52
424.52	261.99
424.89	263.59
425.26	265.15
425.64	266.58
426.01	268.18
426.38	269.83
426.75	271.49
427.13	273.23
427.50	275.05
427.87	276.96
428.24	278.82
428.61	280.54
428.99	282.43
429.36	284.53
429.73	286.56
430.10	288.63
430.47	290.70
430.85	292.82
431.22	295.05
431.59	297.42
431.96	299.65
432.33	302.16
432.70	304.59
433.08	307.38
433.45	310.03
433.82	312.62
434.19	315.55
434.56	318.37
434.93	321.05
435.30	323.66
435.68	326.55
436.05	329.37
436.42	332.18
436.79	334.75
437.16	337.40
437.53	340.25
437.90	343.05
438.27	345.80
438.64	348.63
439.01	351.22
439.38	353.48
439.75	355.66
440.13	358.19
440.50	360.49
440.87	362.33
441.24	364.28
441.61	366.40
441.98	367.83
442.35	369.60
442.72	371.41
443.09	373.16
443.46	374.21
443.83	374.78
444.20	375.26
444.57	376.06
444.94	376.36
445.31	376.64
445.68	376.96
446.05	376.98
446.42	376.54
446.79	376.10
447.16	375.65
447.53	375.33
447.90	374.15
448.27	372.94
448.64	371.36
449.01	370.15
449.37	368.19
449.74	366.31
450.11	364.09
450.48	361.62
450.85	359.15
451.22	356.93
451.59	354.94
451.96	352.98
452.33	350.39
452.70	348.04
453.07	345.24
453.43	342.32
453.80	339.57
454.17	336.90
454.54	334.33
454.91	331.56
455.28	328.91
455.65	326.40
456.02	323.98
456.38	321.82
456.75	319.18
457.12	316.95
457.49	314.72
457.86	312.56
458.23	310.70
458.59	308.62
458.96	306.52
459.33	304.66
459.70	302.81
460.07	301.28
460.43	299.54
460.80	297.91
461.17	296.49
461.54	295.00
461.91	293.59
462.27	292.16
462.64	290.92
463.01	289.56
463.38	288.23
463.74	286.86
464.11	285.68
464.48	284.67
464.85	283.54
465.21	282.69
465.58	281.77
465.95	280.65
466.32	279.76
466.68	278.87
467.05	277.97
467.42	277.10
467.78	276.20
468.15	275.37
468.52	274.73
468.88	273.91
469.25	273.16
469.62	272.53
469.98	271.84
470.35	271.19
470.72	270.54
471.08	269.92
471.45	269.40
471.82	268.86
472.18	268.23
472.55	267.82
472.92	267.28
473.28	266.79
473.65	266.36
474.02	265.89
474.38	265.49
474.75	265.17
475.11	264.76
475.48	264.48
475.85	264.22
476.21	263.96
476.58	263.73
476.94	263.55
477.31	263.36
477.67	263.20
478.04	263.08
478.41	263.03
478.77	263.04
479.14	262.95
479.50	262.96
479.87	262.98
480.23	263.05
480.60	263.12
480.96	263.25
481.33	263.43
481.69	263.63
482.06	263.82
482.42	263.94
482.79	264.22
483.15	264.52
483.52	264.89
483.88	265.25
484.25	265.61
484.61	266.08
484.98	266.55
485.34	267.11
485.71	267.69
486.07	268.31
486.44	268.87
486.80	269.55
487.17	270.27
487.53	271.11
487.90	271.92
488.26	272.84
488.62	273.78
488.99	274.75
489.35	275.77
489.72	276.88
490.08	278.12
490.44	279.32
490.81	280.59
491.17	281.93
491.54	283.39
491.90	284.96
492.26	286.55
492.63	288.24
492.99	290.00
493.36	291.88
493.72	293.87
494.08	295.99
494.45	298.21
494.81	300.60
495.17	303.02
495.54	305.59
495.90	308.29
496.26	311.06
496.63	314.04
496.99	317.13
497.35	320.40
497.72	323.81
498.08	327.34
498.44	331.05
498.80	334.98
499.17	339.01
499.53	343.19
499.89	347.57
500.26	352.05
500.62	356.72
500.98	361.63
501.34	366.73
501.71	372.06
502.07	377.51
502.43	383.10
502.79	388.92
503.16	394.98
503.52	401.25
503.88	407.69
504.24	414.33
504.60	421.21
504.97	428.37
505.33	435.66
505.69	443.35
506.05	451.18
506.41	459.07
506.78	467.20
507.14	475.59
507.50	484.32
507.86	493.37
508.22	502.59
508.59	511.83
508.95	521.39
509.31	531.19
509.67	541.37
510.03	551.69
510.39	562.29
510.75	573.07
511.12	584.02
511.48	595.40
511.84	606.86
512.20	618.39
512.56	630.33
512.92	642.58
513.28	654.85
513.64	667.31
514.00	680.03
514.37	693.03
514.73	706.13
515.09	719.18
515.45	732.48
515.81	746.04
516.17	760.10
516.53	774.23
516.89	788.41
517.25	802.50
517.61	816.96
517.97	831.41
518.33	845.88
518.69	860.69
519.05	875.63
519.41	890.76
519.77	906.34
520.13	921.89
520.49	937.27
520.85	952.80
521.21	968.60
521.57	984.95
521.93	1000.73
522.29	1017.20
522.65	1033.57
523.01	1049.87
523.37	1066.05
523.73	1082.26
524.09	1098.35
524.45	1114.78
524.81	1131.55
525.17	1148.40
525.53	1165.38
525.89	1182.29
526.25	1199.18
526.61	1215.60
526.97	1232.38
527.33	1248.90
527.68	1265.47
528.04	1282.02
528.40	1298.74
528.76	1315.81
529.12	1332.41
529.48	1349.36
529.84	1365.33
530.20	1381.96
530.56	1399.10
530.91	1416.38
531.27	1433.16
531.63	1449.66
531.99	1466.26
532.35	1482.26
532.71	1498.09
533.07	1514.34
533.42	1530.31
533.78	1546.40
534.14	1562.77
534.50	1578.31
534.86	1594.21
535.21	1609.48
535.57	1625.56
535.93	1641.06
536.29	1655.86
536.65	1670.94
537.00	1685.84
537.36	1701.30
537.72	1715.79
538.08	1730.18
538.44	1744.18
538.79	1758.36
539.15	1772.30
539.51	1786.10
539.87	1800.47
540.22	1814.41
540.58	1828.26
540.94	1841.76
541.29	1854.64
541.65	1867.53
542.01	1880.79
542.37	1893.16
542.72	1905.68
543.08	1917.49
543.44	1930.01
543.79	1941.34
544.15	1952.31
544.51	1963.82
544.87	1974.93
545.22	1985.82
545.58	1996.16
545.94	2005.94
546.29	2015.66
546.65	2025.42
547.01	2034.67
547.36	2043.55
547.72	2052.08
548.07	2059.93
548.43	2068.12
548.79	2076.28
549.14	2083.78
549.50	2091.26
549.86	2099.03
550.21	2106.36
550.57	2113.48
550.92	2120.11
551.28	2127.21
551.64	2134.44
551.99	2141.10
552.35	2147.04
552.70	2153.25
553.06	2159.11
553.41	2165.48
553.77	2171.51
554.13	2177.64
554.48	2183.77
554.84	2189.14
555.19	2194.52
555.55	2199.74
555.90	2204.16
556.26	2208.85
556.61	2213.63
556.97	2217.69
557.32	2221.90
557.68	2226.06
558.03	2230.38
558.39	2234.08
558.74	2238.72
559.10	2242.42
559.45	2245.89
559.81	2250.46
560.16	2254.36
560.52	2257.61
560.87	2260.96
561.23	2263.71
561.58	2266.67
561.94	2269.34
562.29	2271.79
562.64	2274.36
563.00	2277.05
563.35	2280.53
563.71	2283.77
564.06	2286.82
564.42	2289.66
564.77	2292.12
565.12	2294.32
565.48	2296.25
565.83	2298.07
566.19	2299.22
566.54	2300.33
566.89	2301.58
567.25	2301.85
567.60	2303.16
567.96	2304.71
568.31	2305.58
568.66	2306.39
569.02	2306.88
569.37	2307.06
569.72	2307.75
570.08	2307.74
570.43	2307.55
570.78	2306.75
571.14	2305.20
571.49	2303.79
571.84	2303.34
572.20	2302.00
572.55	2300.78
572.90	2299.06
573.26	2297.44
573.61	2295.70
573.96	2293.67
574.31	2290.47
574.67	2287.39
575.02	2283.64
575.37	2280.31
575.72	2276.29
576.08	2273.07
576.43	2269.61
576.78	2265.74
577.13	2262.63
577.49	2259.47
577.84	2255.97
578.19	2252.29
578.54	2248.44
578.90	2244.07
579.25	2238.49
579.60	2233.43
579.95	2228.33
580.30	2223.08
580.66	2217.91
581.01	2212.88
581.36	2207.90
581.71	2203.66
582.06	2199.11
582.42	2194.53
582.77	2189.23
583.12	2184.67
583.47	2179.68
583.82	2174.52
584.17	2169.24
584.53	2163.50
584.88	2157.78
585.23	2151.73
585.58	2146.03
585.93	2140.41
586.28	2135.63
586.63	2130.45
586.98	2125.31
587.34	2120.58
587.69	2115.72
588.04	2110.24
588.39	2104.52
588.74	2097.99
589.09	2091.92
589.44	2085.11
589.79	2078.96
590.14	2073.13
590.49	2066.40
590.84	2059.91
591.19	2053.94
591.54	2047.42
591.89	2039.89
592.25	2032.91
592.60	2025.66
592.95	2018.03
593.30	2010.75
593.65	2003.02
594.00	1995.92
594.35	1988.63
594.70	1980.39
595.05	1973.02
595.40	1965.83
595.75	1958.27
596.10	1951.93
596.45	1944.95
596.80	1938.69
597.15	1931.90
597.50	1924.75
597.85	1918.42
598.19	1911.90
598.54	1904.69
598.89	1898.05
599.24	1892.33
599.59	1885.67
599.94	1879.52
600.29	1873.15
600.64	1866.59
600.99	1859.05
601.34	1852.12
601.69	1845.15
602.04	1838.34
602.39	1831.06
602.74	1824.19
603.08	1817.38
603.43	1810.65
603.78	1803.41
604.13	1796.15
604.48	1788.90
604.83	1782.14
605.18	1774.95
605.53	1766.82
605.87	1758.81
606.22	1751.49
606.57	1743.36
606.92	1736.06
607.27	1728.83
607.62	1721.96
607.96	1714.61
608.31	1708.08
608.66	1700.48
609.01	1692.88
609.36	1685.31
609.70	1677.26
610.05	1669.13
610.40	1661.42
610.75	1653.09
611.10	1645.35
611.44	1637.04
611.79	1629.13
612.14	1620.35
612.49	1611.37
612.83	1603.05
613.18	1594.90
613.53	1586.77
613.88	1578.28
614.22	1569.98
614.57	1561.41
614.92	1553.37
615.27	1545.81
615.61	1537.38
615.96	1529.40
616.31	1521.79
616.65	1514.40
617.00	1506.84
617.35	1499.15
617.70	1490.71
618.04	1482.10
618.39	1473.86
618.74	1466.19
619.08	1457.74
619.43	1450.21
619.78	1443.16
620.12	1435.82
620.47	1428.24
620.82	1420.09
621.16	1412.68
621.51	1405.05
621.85	1397.41
622.20	1388.87
622.55	1380.47
622.89	1372.72
623.24	1365.13
623.59	1357.70
623.93	1350.09
624.28	1342.89
624.62	1335.43
624.97	1328.27
625.32	1321.57
625.66	1314.58
626.01	1307.38
626.35	1299.94
626.70	1292.10
627.04	1284.22
627.39	1276.55
627.73	1269.13
628.08	1262.27
628.43	1254.89
628.77	1247.52
629.12	1239.92
629.46	1232.69
629.81	1225.35
630.15	1218.01
630.50	1210.58
630.84	1202.36
631.19	1194.60
631.53	1187.08
631.88	1179.60
632.22	1172.09
632.57	1164.81
632.91	1157.31
633.26	1149.87
633.60	1142.54
633.95	1135.60
634.29	1128.75
634.64	1122.08
634.98	1114.73
635.32	1107.59
635.67	1101.14
636.01	1094.48
636.36	1087.79
636.70	1081.37
637.05	1074.68
637.39	1068.35
637.73	1061.87
638.08	1056.05
638.42	1050.01
638.77	1043.53
639.11	1036.85
639.45	1030.55
639.80	1023.85
640.14	1017.35
640.49	1010.82
640.83	1004.54
641.17	998.30
641.52	991.95
641.86	985.62
642.20	979.85
642.55	973.58
642.89	967.01
643.23	960.51
643.58	954.73
643.92	948.62
644.26	942.66
644.61	936.65
644.95	930.60
645.29	924.01
645.64	917.28
645.98	911.03
646.32	905.35
646.66	899.32
647.01	893.65
647.35	888.04
647.69	882.36
648.04	876.82
648.38	870.95
648.72	864.94
649.06	858.81
649.41	852.89
649.75	846.91
650.09	841.01
650.43	835.26
650.78	829.08
651.12	823.12
651.46	817.39
651.80	811.59
652.14	806.29
652.49	800.97
652.83	795.82
653.17	790.12
653.51	784.30
653.85	778.87
654.20	773.19
654.54	767.16
654.88	761.43
655.22	755.62
655.56	750.01
655.90	744.67
656.25	739.48
656.59	734.19
656.93	729.01
657.27	723.89
657.61	718.47
657.95	713.38
658.29	708.33
658.64	703.07
658.98	697.80
659.32	692.30
659.66	687.04
660.00	681.67
660.34	676.74
660.68	671.88
661.02	666.85
661.36	662.11
661.70	657.64
662.05	653.24
662.39	648.91
662.73	644.39
663.07	639.96
663.41	635.48
663.75	631.00
664.09	626.54
664.43	622.13
664.77	617.97
665.11	613.73
665.45	609.56
665.79	605.54
666.13	601.43
666.47	597.34
666.81	593.20
667.15	589.16
667.49	585.29
667.83	581.47
668.17	577.53
668.51	573.48
668.85	569.47
669.19	565.66
669.53	561.79
669.87	557.93
670.21	554.26
670.55	550.64
670.89	547.18
671.23	543.74
671.57	540.23
671.91	536.74
672.25	533.26
672.58	529.77
672.92	526.35
673.26	523.21
673.60	520.08
673.94	517.03
674.28	514.14
674.62	511.12
674.96	507.96
675.30	505.06
675.64	502.13
675.97	499.38
676.31	496.49
676.65	493.53
676.99	490.83
677.33	487.97
677.67	485.12
678.01	482.12
678.34	479.17
678.68	476.34
679.02	473.46
679.36	470.71
679.70	467.95
680.04	465.19
680.37	462.27
680.71	459.48
681.05	456.85
681.39	454.16
681.73	451.56
682.06	449.09
682.40	446.54
682.74	444.08
683.08	441.57
683.42	439.00
683.75	436.60
684.09	434.09
684.43	431.65
684.77	429.28
685.10	426.96
685.44	424.68
685.78	422.38
686.12	420.18
686.45	417.94
686.79	415.71
687.13	413.53
687.46	411.41
687.80	409.24
688.14	407.08
688.48	405.05
688.81	402.82
689.15	400.66
689.49	398.59
689.82	396.45
690.16	394.42
690.50	392.54
690.83	390.61
691.17	388.66
691.51	386.79
691.84	384.96
692.18	383.03
692.52	381.06
692.85	379.15
693.19	377.35
693.52	375.52
693.86	373.69
694.20	371.93
694.53	370.20
694.87	368.37
695.21	366.56
695.54	364.77
695.88	363.04
696.21	361.37
696.55	359.69
696.88	358.07
697.22	356.42
697.56	354.79
697.89	353.14
698.23	351.55
698.56	349.89
698.90	348.28
699.23	346.62
699.57	345.02
699.90	343.48
700.24	341.88
700.58	340.36
700.91	338.85
701.25	337.38
701.58	335.97
701.92	334.65
702.25	333.27
702.59	331.84
702.92	330.54
703.26	329.24
703.59	327.92
703.93	326.72
704.26	325.42
704.60	324.08
704.93	322.78
705.26	321.48
705.60	320.34
705.93	319.14
706.27	318.18
706.60	317.17
706.94	316.08
707.27	314.99
707.61	313.91
707.94	312.90
708.27	311.82
708.61	310.73
708.94	309.66
709.28	308.71
709.61	307.79
709.94	306.82
710.28	305.77
710.61	304.80
710.95	303.69
711.28	302.77
711.61	301.82
711.95	300.95
712.28	299.97
712.61	298.98
712.95	298.02
713.28	297.07
713.61	296.18
713.95	295.25
714.28	294.37
714.61	293.51
714.95	292.65
715.28	291.78
715.61	290.87
715.95	290.04
716.28	289.15
716.61	288.32
716.95	287.49
717.28	286.75
717.61	285.95
717.94	285.26
718.28	284.46
718.61	283.73
718.94	282.98
719.27	282.34
719.61	281.69
719.94	281.06
720.27	280.35
720.60	279.68
720.94	279.07
721.27	278.47
721.60	277.87
721.93	277.28
722.27	276.73
722.60	276.23
722.93	275.68
723.26	275.13
723.59	274.55
723.93	274.05
724.26	273.46
724.59	272.94
724.92	272.38
725.25	271.90
725.59	271.39
725.92	270.91
726.25	270.41
726.58	269.90
726.91	269.43
727.24	268.96
727.57	268.45
727.91	267.97
728.24	267.52
728.57	267.03
728.90	266.61
729.23	266.16
729.56	265.72
729.89	265.27
730.22	264.80
730.55	264.35
730.89	263.88
731.22	263.47
731.55	263.06
731.88	262.66
732.21	262.22
732.54	261.80
732.87	261.37
733.20	261.00
733.53	260.68
733.86	260.26
734.19	259.88
734.52	259.52
734.85	259.24
735.18	258.85
735.51	258.51
735.84	258.13
736.17	257.81
736.50	257.38
736.83	257.15
737.16	256.88
737.49	256.55
737.82	256.22
738.15	255.89
738.48	255.60
738.81	255.29
739.14	254.97
739.47	254.68
739.80	254.40
740.13	254.10
740.46	253.69
740.79	253.42
741.12	253.10
741.45	252.78
741.78	252.43
742.11	252.18
742.44	251.82
742.77	251.48
743.10	251.14
743.43	250.87
743.75	250.51
744.08	250.31
744.41	250.03
744.74	249.78
745.07	249.52
745.40	249.25
745.73	249.00
746.06	248.72
746.39	248.42
746.71	248.14
747.04	247.85
747.37	247.65
747.70	247.38
748.03	247.13
748.36	246.90
748.68	246.63
749.01	246.34
749.34	246.16
749.67	245.94
750.00	245.70
750.33	245.54
750.65	245.30
750.98	244.98
751.31	244.76
751.64	244.53
751.97	244.35
752.29	244.08
752.62	243.82
752.95	243.63
753.28	243.43
753.60	243.23
753.93	243.06
754.26	242.90
754.59	242.68
754.91	242.48
755.24	242.28
755.57	242.11
755.90	241.90
756.22	241.67
756.55	241.48
756.88	241.32
757.20	241.08
757.53	240.87
757.86	240.68
758.19	240.54
758.51	240.35
758.84	240.15
759.17	240.01
759.49	239.87
759.82	239.72
760.15	239.56
760.47	239.41
760.80	239.21
761.13	239.04
761.45	238.90
761.78	238.74
762.11	238.61
762.43	238.49
762.76	238.38
763.08	238.27
763.41	238.15
763.74	238.02
764.06	237.88
764.39	237.73
764.71	237.59
765.04	237.46
765.37	237.35
765.69	237.19
766.02	237.04
766.34	236.88
766.67	236.77
767.00	236.64
767.32	236.56
767.65	236.53
767.97	236.42
768.30	236.28
768.62	236.16
768.95	236.07
769.27	235.93
769.60	235.83
769.92	235.70
770.25	235.58
770.57	235.45
770.90	235.36
771.22	235.30
771.55	235.19
771.87	235.11
772.20	235.03
772.52	235.06
772.85	235.12
773.17	235.05
773.50	234.95
773.82	234.90
774.15	234.79
774.47	234.65
774.80	234.55
775.12	234.50
775.45	234.45
775.77	234.36
776.09	234.29
776.42	234.24
776.74	234.19
777.07	234.13
777.39	234.09
777.72	234.03
778.04	233.95
778.36	233.92
778.69	233.85
779.01	233.81
779.33	233.64
779.66	233.48
779.98	233.42
780.31	233.34
780.63	233.31
780.95	233.24
781.28	233.16
781.60	233.09
781.92	233.03
782.25	232.93
782.57	232.85
782.89	232.78
783.22	232.71
783.54	232.68
783.86	232.62
784.19	232.54
784.51	232.48
784.83	232.41
785.16	232.36
785.48	232.28
785.80	232.20
786.12	232.16
786.45	232.08
786.77	232.03
787.09	232.00
787.42	231.90
787.74	231.87
788.06	231.85
788.38	231.84
788.71	231.76
789.03	231.76
789.35	231.75
789.67	231.70
789.99	231.62
790.32	231.53
790.64	231.50
790.96	231.55
791.28	231.46
791.61	231.41
791.93	231.35
792.25	231.32
792.57	231.31
792.89	231.25
793.21	231.23
793.54	231.17
793.86	231.09
794.18	231.05
794.50	230.98
794.82	230.92
795.14	230.88
795.47	230.85
795.79	230.80
796.11	230.72
796.43	230.67
796.75	230.61
797.07	230.58
797.39	230.51
797.71	230.39
798.04	230.37
798.36	230.36
798.68	230.31
799.00	230.28
799.32	230.20
799.64	230.16
799.96	230.08
800.28	230.05
800.60	230.02
800.92	229.99
801.24	229.95
801.56	229.93
801.89	229.87
802.21	229.83
802.53	229.80
802.85	229.80
803.17	229.82
803.49	229.82
803.81	229.76
804.13	229.76
804.45	229.70
804.77	229.66
805.09	229.64
805.41	229.58
805.73	229.54
806.05	229.50
806.37	229.51
806.69	229.48
807.01	229.44
807.33	229.48
807.65	229.40
807.97	229.40
808.28	229.37
808.60	229.34
808.92	229.33
809.24	229.35
809.56	229.33
809.88	229.28
810.20	229.25
810.52	229.27
810.84	229.20
811.16	229.22
811.48	229.22
811.80	229.22
812.12	229.24
812.43	229.24
812.75	229.26
813.07	229.19
813.39	229.19
813.71	229.16
814.03	229.13
814.35	229.12
814.67	229.08
814.98	229.07
815.30	229.06
815.62	229.02
815.94	228.96
816.26	228.97
816.58	228.96
816.89	228.95
817.21	228.91
817.53	228.93
817.85	228.89
818.17	228.90
818.48	228.86
818.80	228.87
819.12	228.85
819.44	228.81
819.76	228.81
820.07	228.83
820.39	228.83
820.71	228.80
821.03	228.82
821.34	228.79
821.66	228.76
821.98	228.78
822.30	228.77
822.61	228.79
822.93	228.72
823.25	228.69
823.57	228.67
823.88	228.69
824.20	228.68
824.52	228.68
824.83	228.65
825.15	228.61
825.47	228.57
825.79	228.56
826.10	228.54
826.42	228.52
826.74	228.48
827.05	228.47
827.37	228.46
827.69	228.42
828.00	228.45
828.32	228.45
828.64	228.39
828.95	228.45
829.27	228.39
829.58	228.40
829.90	228.40
830.22	228.42
830.53	228.36
830.85	228.32
831.17	228.29
831.48	228.26
831.80	228.23
832.11	228.19
832.43	228.16
832.75	228.12
833.06	228.17
833.38	228.14
833.69	228.11
834.01	228.12
834.32	228.11
834.64	228.06
834.96	228.03
835.27	228.03
835.59	227.96
835.90	227.92
836.22	227.89
836.53	227.85
836.85	227.81
837.16	227.90
837.48	227.90
837.79	227.95
838.11	227.95
838.42	227.95
838.74	227.97
839.05	228.00
839.37	228.02
839.68	227.94
840.00	227.94
840.31	227.94
840.63	227.91
840.94	227.89
841.26	227.88
841.57	227.89
841.88	227.91
842.20	227.90
842.51	227.89
842.83	227.90
843.14	227.98
843.46	227.99
843.77	227.94
844.08	227.94
844.40	227.91
844.71	227.88
845.03	227.88
845.34	227.86
845.65	227.83
845.97	227.82
846.28	227.85
846.60	227.85
846.91	227.83
847.22	227.84
847.54	227.87
847.85	227.89
848.16	227.86
848.48	227.82
848.79	227.88
849.10	227.90
849.42	227.88
849.73	227.80
850.04	227.77
850.36	227.73
850.67	227.74
850.98	227.72
851.30	227.77
851.61	227.74
851.92	227.76
852.23	227.78
852.55	227.78
852.86	227.75
853.17	227.75
853.49	227.76
853.80	227.78
854.11	227.78
854.42	227.79
854.74	227.80
855.05	227.82
855.36	227.74
855.67	227.71
855.99	227.74
856.30	227.82
856.61	227.83
856.92	227.83
857.23	227.83
857.55	227.79
857.86	227.75
858.17	227.77
858.48	227.74
858.79	227.72
859.11	227.74
859.42	227.75
859.73	227.76
860.04	227.77
860.35	227.76
860.66	227.71
860.98	227.69
861.29	227.70
861.60	227.66
861.91	227.69
862.22	227.69
862.53	227.66
862.84	227.55
863.16	227.58
863.47	227.59
863.78	227.56
864.09	227.60
864.40	227.63
864.71	227.63
865.02	227.63
865.33	227.62
865.64	227.58
865.95	227.56
866.27	227.63
866.58	227.60
866.89	227.56
867.20	227.57
867.51	227.57
867.82	227.57
868.13	227.61
868.44	227.61
868.75	227.63
869.06	227.63
869.37	227.67
869.68	227.62
869.99	227.64
870.30	227.66
870.61	227.66
870.92	227.65
871.23	227.64
871.54	227.67
871.85	227.69
872.16	227.72
872.47	227.70
872.78	227.63
873.09	227.61
873.40	227.62
873.71	227.66
874.02	227.65
874.33	227.64
874.64	227.61
874.95	227.66
875.26	227.62
875.56	227.61
875.87	227.60
876.18	227.60
876.49	227.69
876.80	227.66
877.11	227.66
877.42	227.66
877.73	227.66
878.04	227.61
878.35	227.61
878.66	227.62
878.96	227.65
879.27	227.62
879.58	227.66
879.89	227.65
880.20	227.64
880.51	227.67
880.82	227.64
881.12	227.61
881.43	227.55
881.74	227.57
882.05	227.55
882.36	227.56
882.67	227.56
882.97	227.43
883.28	227.40
883.59	227.36
883.90	227.39
884.21	227.41
884.51	227.43
884.82	227.40
885.13	227.39
885.44	227.37
885.74	227.39
886.05	227.38
886.36	227.39
886.67	227.37
886.98	227.38
887.28	227.41
887.59	227.43
887.90	227.43
888.20	227.42
888.51	227.43
888.82	227.41
889.13	227.41
889.43	227.46
889.74	227.45
890.05	227.47
890.35	227.42
890.66	227.37
890.97	227.39
891.28	227.36
891.58	227.35
891.89	227.35
892.20	227.30
892.50	227.29
892.81	227.24
893.12	227.27
893.42	227.21
893.73	227.20
894.04	227.19
894.34	227.20
894.65	227.20
894.95	227.17
895.26	227.17
895.57	227.23
895.87	227.17
896.18	227.19
896.48	227.18
896.79	227.21
897.10	227.25
897.40	227.22
897.71	227.24
898.01	227.24
898.32	227.26
898.63	227.25
898.93	227.26
899.24	227.25
899.54	227.21
899.85	227.21
900.15	227.19
900.46	227.21
900.76	227.17
901.07	227.19
901.38	227.23
901.68	227.26
901.99	227.17
902.29	227.17
902.60	227.17
902.90	227.16
903.21	227.13
903.51	227.10
903.82	227.12
904.12	227.09
904.43	227.07
904.73	227.04
905.03	227.08
905.34	227.13
905.64	227.15
905.95	227.15
906.25	227.14
906.56	227.12
906.86	227.12
907.17	227.14
907.47	227.13
907.77	227.11
908.08	227.09
908.38	227.11
908.69	227.13
908.99	227.15
909.30	227.18
909.60	227.16
909.90	227.17
910.21	227.16
910.51	227.18
910.81	227.21
911.12	227.19
911.42	227.18
911.73	227.07
912.03	227.05
912.33	227.06
912.64	227.06
912.94	227.08
913.24	227.03
913.55	227.03
913.85	227.01
914.15	227.01
914.46	227.01
914.76	227.00
915.06	227.00
915.37	226.98
915.67	226.92
915.97	226.95
916.27	226.94
916.58	226.93
916.88	226.90
917.18	226.86
917.49	226.97
917.79	226.95
918.09	227.01
918.39	227.07
918.70	227.07
919.00	227.09
919.30	227.12
919.60	227.17
919.91	227.15
920.21	227.19
920.51	227.16
920.81	227.13
921.12	227.16
921.42	227.17
921.72	227.15
922.02	227.20
922.32	227.25
922.63	227.24
922.93	227.30
923.23	227.35
923.53	227.33
923.83	227.27
924.13	227.25
924.44	227.27
924.74	227.26
925.04	227.29
925.34	227.26
925.64	227.24
925.94	227.20
926.24	227.23
926.55	227.23
926.85	227.28
927.15	227.30
927.45	227.30
927.75	227.28
928.05	227.26
928.35	227.24
928.65	227.24
928.95	227.27
929.26	227.25
929.56	227.25
929.86	227.27
930.16	227.26
930.46	227.30
930.76	227.27
931.06	227.23
931.36	227.21
931.66	227.28
931.96	227.29
932.26	227.30
932.56	227.27
932.86	227.25
933.16	227.22
933.46	227.21
933.76	227.19
934.06	227.22
934.36	227.29
934.66	227.29
934.96	227.27
935.26	227.28
935.56	227.30
935.86	227.25
936.16	227.27
936.46	227.27
936.76	227.23
937.06	227.21
937.36	227.23
937.66	227.22
937.96	227.23
938.26	227.18
938.56	227.17
938.86	227.21
939.16	227.25
939.46	227.28
939.76	227.30
940.06	227.28
940.35	227.26
940.65	227.20
940.95	227.18
941.25	227.15
941.55	227.13
941.85	227.08
942.15	227.12
942.45	227.16
942.75	227.15
943.04	227.19
943.34	227.21
943.64	227.22
943.94	227.22
944.24	227.16
944.54	227.20
944.84	227.17
945.13	227.14
945.43	227.11
945.73	227.10
946.03	227.08
946.33	227.05
946.62	227.04
946.92	227.04
947.22	227.06
947.52	227.05
947.82	227.07
948.11	227.07
948.41	227.02
948.71	226.94
949.01	226.94
949.31	226.92
949.60	226.91
949.90	226.90
950.20	226.87
950.50	226.84
950.79	226.82
951.09	226.83
951.39	226.84
951.69	226.83
951.98	226.83
952.28	226.86
952.58	226.87
952.87	226.88
953.17	226.88
953.47	226.88
953.76	226.89
954.06	226.85
954.36	226.84
954.66	226.83
954.95	226.86
955.25	226.85
955.55	226.86
955.84	226.86
956.14	226.85
956.44	226.86
956.73	226.90
957.03	226.90
957.32	226.92
957.62	226.92
957.92	226.93
958.21	226.91
958.51	226.99
958.81	227.00
959.10	227.00
959.40	227.03
959.69	227.02
959.99	227.01
960.29	227.01
960.58	227.00
960.88	227.09
961.17	227.06
961.47	227.09
961.76	227.07
962.06	227.09
962.36	227.09
962.65	227.10
962.95	227.09
963.24	227.09
963.54	227.08
963.83	227.10
964.13	227.09
964.42	227.07
964.72	227.00
965.01	227.00
965.31	227.00
965.60	226.97
965.90	227.04
966.19	227.05
966.49	227.05
966.78	227.06
967.08	227.02
967.37	227.05
967.67	227.01
967.96	227.01
968.26	226.99
968.55	227.02
968.85	226.99
969.14	226.97
969.43	226.98
969.73	226.98
970.02	226.96
970.32	226.96
970.61	226.97
970.91	226.92
971.20	226.92
971.49	226.93
971.79	226.94
972.08	226.89
972.38	226.87
972.67	226.87
972.96	226.88
973.26	226.87
973.55	226.90
973.85	226.94
974.14	226.96
974.43	226.97
974.73	226.95
975.02	226.95
975.31	226.96
975.61	226.93
975.90	226.96
976.19	226.93
976.49	226.96
976.78	226.94
977.07	226.97
977.37	226.97
977.66	226.99
977.95	226.98
978.24	226.99
978.54	227.04
978.83	227.04
979.12	227.03
979.42	227.05
979.71	227.00
980.00	226.98
980.29	226.96
980.59	226.99
980.88	227.01
981.17	227.03
981.46	227.02
981.76	227.05
982.05	227.08
982.34	227.12
982.63	227.12
982.93	227.14
983.22	227.17
983.51	227.17
983.80	227.14
984.09	227.15
984.39	227.13
984.68	227.09
984.97	227.10
985.26	227.09
985.55	227.10
985.85	227.06
986.14	227.08
986.43	227.11
986.72	227.07
987.01	227.06
987.30	227.07
987.59	227.06
987.89	227.08
988.18	227.02
988.47	227.00
988.76	226.99
989.05	226.95
989.34	226.96
989.63	226.99
989.92	227.01
990.22	227.01
990.51	227.01
990.80	227.00
991.09	226.99
991.38	226.98
991.67	226.92
991.96	226.94
992.25	226.93
992.54	226.90
992.83	226.93
993.12	226.91
993.41	226.87
993.70	226.90
993.99	226.90
994.28	226.92
994.58	226.94
994.87	226.90
995.16	226.90
995.45	226.88
995.74	226.84
996.03	226.84
996.32	226.86
996.61	226.89
996.90	226.88
997.19	226.88
997.48	226.86
997.77	226.90
998.06	226.90
998.34	226.86
998.63	226.86
998.92	226.85
999.21	226.87
999.50	226.91
999.79	226.90
1000.08	226.87
1000.37	226.88
1000.66	226.85
1000.95	226.89
1001.24	226.92
1001.53	226.91
1001.82	226.90
1002.11	226.87
1002.40	226.86
1002.68	226.88
1002.97	226.98
1003.26	226.99
1003.55	227.00
1003.84	226.95
1004.13	226.99
1004.42	227.02
1004.71	227.01
1004.99	226.98
1005.28	227.01
1005.57	227.00
1005.86	226.98
1006.15	226.98
1006.44	226.94
1006.72	226.95
1007.01	226.94
1007.30	226.89
1007.59	226.88
1007.88	226.88
1008.17	226.88
1008.45	226.84
1008.74	226.82
1009.03	226.74
1009.32	226.77
1009.60	226.76
1009.89	226.79
1010.18	226.75
1010.47	226.75
1010.76	226.76
1011.04	226.78
1011.33	226.77
1011.62	226.81
1011.91	226.78
1012.19	226.83
1012.48	226.85
1012.77	226.82
1013.05	226.88
1013.34	226.93
1013.63	226.95
1013.92	226.98
1014.20	226.97
1014.49	226.99
1014.78	226.98
1015.06	226.94
1015.35	226.93
1015.64	226.97
1015.92	227.01
1016.21	227.02
1016.50	227.02
1016.78	227.02
1017.07	226.99
1017.36	226.98
1017.64	226.96
1017.93	226.96
1018.22	226.94
1018.50	226.96
1018.79	226.96
1019.08	226.89
1019.36	226.86
1019.65	226.87
1019.93	226.85
1020.22	226.89
1020.51	226.94
1020.79	226.91
1021.08	227.23
1021.36	227.01
1021.65	226.45
1021.94	226.74
1022.22	226.51
1022.51	227.11
1022.79	226.92
1023.08	227.23
1023.36	228.10
1023.65	226.28
>>>>>End Processed Spectral Data<<<<<
