SpectraSuite Data File
++++++++++++++++++++++++++++++++++++
Date: Fri Feb 01 17:54:34 EST 2013
User: group
Dark Spectrum Present: No
Reference Spectrum Present: No
Number of Sampled Component Spectra: 1
Spectrometers: USB2E7196
Integration Time (usec): 35000 (USB2E7196)
Spectra Averaged: 100 (USB2E7196)
Boxcar Smoothing: 10 (USB2E7196)
Correct for Electrical Dark: No (USB2E7196)
Strobe/Lamp Enabled: No (USB2E7196)
Correct for Detector Non-linearity: No (USB2E7196)
Correct for Stray Light: No (USB2E7196)
Number of Pixels in Processed Spectrum: 2048
>>>>>Begin Processed Spectral Data<<<<<
339.09	0.00
339.48	212.78
339.86	214.39
340.24	215.52
340.63	216.91
341.01	219.50
341.39	219.63
341.78	220.74
342.16	222.29
342.54	222.73
342.93	211.11
343.31	221.83
343.69	222.36
344.07	222.83
344.46	223.26
344.84	223.67
345.22	223.93
345.60	224.19
345.99	224.39
346.37	224.52
346.75	224.62
347.13	224.71
347.52	224.78
347.90	224.86
348.28	224.91
348.66	224.98
349.05	225.01
349.43	225.05
349.81	225.11
350.19	225.18
350.57	225.28
350.96	225.35
351.34	225.41
351.72	225.48
352.10	225.57
352.48	225.68
352.87	225.73
353.25	225.81
353.63	225.87
354.01	225.95
354.39	226.06
354.77	226.13
355.15	226.24
355.54	226.29
355.92	226.34
356.30	226.41
356.68	226.53
357.06	226.63
357.44	226.70
357.82	226.77
358.20	226.82
358.58	226.89
358.97	226.94
359.35	227.02
359.73	227.12
360.11	227.16
360.49	227.20
360.87	227.25
361.25	227.33
361.63	227.40
362.01	227.47
362.39	227.48
362.77	227.56
363.15	227.56
363.53	227.63
363.91	227.66
364.29	227.70
364.67	227.63
365.05	227.62
365.43	227.67
365.81	227.70
366.19	227.77
366.57	227.80
366.95	227.80
367.33	227.77
367.71	227.78
368.09	227.79
368.47	227.76
368.85	227.73
369.23	227.71
369.61	227.67
369.99	227.65
370.37	227.64
370.75	227.64
371.13	227.58
371.51	227.51
371.89	227.46
372.27	227.45
372.65	227.41
373.03	227.37
373.41	227.28
373.78	227.21
374.16	227.12
374.54	227.03
374.92	226.98
375.30	226.93
375.68	226.81
376.06	226.78
376.44	226.72
376.82	226.66
377.19	226.57
377.57	226.47
377.95	226.34
378.33	226.26
378.71	226.14
379.09	226.11
379.47	226.05
379.84	225.99
380.22	225.89
380.60	225.78
380.98	225.73
381.36	225.68
381.73	225.59
382.11	225.50
382.49	225.44
382.87	225.36
383.25	225.30
383.62	225.39
384.00	225.29
384.38	225.22
384.76	225.19
385.13	225.16
385.51	225.14
385.89	225.09
386.27	225.03
386.64	224.97
387.02	224.90
387.40	224.84
387.78	224.77
388.15	224.72
388.53	224.69
388.91	224.67
389.29	224.63
389.66	224.63
390.04	224.61
390.42	224.63
390.79	224.60
391.17	224.56
391.55	224.40
391.92	224.42
392.30	224.40
392.68	224.35
393.05	224.35
393.43	224.35
393.81	224.38
394.18	224.39
394.56	224.44
394.94	224.50
395.31	224.52
395.69	224.58
396.06	224.66
396.44	224.71
396.82	224.72
397.19	224.78
397.57	224.79
397.95	224.85
398.32	224.87
398.70	224.93
399.07	225.02
399.45	225.12
399.82	225.13
400.20	225.23
400.58	225.30
400.95	225.33
401.33	225.41
401.70	225.55
402.08	225.65
402.45	225.72
402.83	225.84
403.20	225.94
403.58	226.03
403.95	226.12
404.33	226.25
404.71	226.38
405.08	226.58
405.46	226.74
405.83	226.92
406.21	227.07
406.58	227.26
406.96	227.41
407.33	227.61
407.70	227.86
408.08	228.14
408.45	228.41
408.83	228.70
409.20	228.97
409.58	229.21
409.95	229.53
410.33	229.87
410.70	230.13
411.08	230.53
411.45	230.91
411.82	231.31
412.20	231.76
412.57	232.26
412.95	232.67
413.32	233.18
413.69	233.69
414.07	234.22
414.44	234.82
414.82	235.47
415.19	236.18
415.56	236.89
415.94	237.63
416.31	238.49
416.68	239.29
417.06	240.25
417.43	241.13
417.81	242.12
418.18	243.14
418.55	244.26
418.93	245.40
419.30	246.62
419.67	247.86
420.04	249.13
420.42	250.41
420.79	251.90
421.16	253.42
421.54	255.00
421.91	256.65
422.28	258.35
422.66	260.11
423.03	261.82
423.40	263.60
423.77	265.48
424.15	267.36
424.52	269.32
424.89	271.41
425.26	273.49
425.64	275.44
426.01	277.57
426.38	279.79
426.75	281.98
427.13	284.28
427.50	286.69
427.87	289.23
428.24	291.75
428.61	294.15
428.99	296.73
429.36	299.54
429.73	302.29
430.10	305.00
430.47	307.75
430.85	310.58
431.22	313.57
431.59	316.72
431.96	319.72
432.33	323.02
432.70	326.22
433.08	329.95
433.45	333.43
433.82	336.89
434.19	340.76
434.56	344.53
434.93	348.02
435.30	351.47
435.68	355.26
436.05	359.04
436.42	362.76
436.79	366.14
437.16	369.72
437.53	373.46
437.90	377.16
438.27	380.76
438.64	384.54
439.01	387.99
439.38	391.00
439.75	393.84
440.13	397.20
440.50	400.31
440.87	402.78
441.24	405.45
441.61	408.32
441.98	410.30
442.35	412.74
442.72	415.26
443.09	417.77
443.46	419.18
443.83	419.95
444.20	420.67
444.57	421.84
444.94	422.27
445.31	422.76
445.68	423.16
446.05	423.32
446.42	422.86
446.79	422.32
447.16	421.72
447.53	421.37
447.90	419.84
448.27	418.32
448.64	416.24
449.01	414.73
449.37	412.11
449.74	409.56
450.11	406.52
450.48	403.25
450.85	399.83
451.22	396.93
451.59	394.28
451.96	391.66
452.33	388.15
452.70	385.00
453.07	381.27
453.43	377.53
453.80	373.83
454.17	370.27
454.54	366.90
454.91	363.29
455.28	359.72
455.65	356.45
456.02	353.17
456.38	350.32
456.75	346.73
457.12	343.73
457.49	340.78
457.86	337.90
458.23	335.39
458.59	332.64
458.96	329.83
459.33	327.38
459.70	324.90
460.07	322.88
460.43	320.55
460.80	318.33
461.17	316.35
461.54	314.35
461.91	312.40
462.27	310.46
462.64	308.77
463.01	306.98
463.38	305.17
463.74	303.36
464.11	301.77
464.48	300.39
464.85	298.94
465.21	297.78
465.58	296.52
465.95	295.06
466.32	293.85
466.68	292.61
467.05	291.40
467.42	290.18
467.78	288.95
468.15	287.77
468.52	286.89
468.88	285.78
469.25	284.74
469.62	283.86
469.98	282.93
470.35	282.03
470.72	281.19
471.08	280.34
471.45	279.55
471.82	278.81
472.18	277.99
472.55	277.34
472.92	276.59
473.28	275.96
473.65	275.37
474.02	274.76
474.38	274.27
474.75	273.76
475.11	273.29
475.48	272.90
475.85	272.56
476.21	272.19
476.58	271.87
476.94	271.66
477.31	271.41
477.67	271.17
478.04	270.99
478.41	270.86
478.77	270.83
479.14	270.71
479.50	270.66
479.87	270.70
480.23	270.76
480.60	270.82
480.96	270.83
481.33	270.98
481.69	271.12
482.06	271.24
482.42	271.37
482.79	271.53
483.15	271.83
483.52	272.21
483.88	272.51
484.25	272.88
484.61	273.27
484.98	273.69
485.34	274.23
485.71	274.78
486.07	275.31
486.44	275.84
486.80	276.56
487.17	277.23
487.53	278.00
487.90	278.82
488.26	279.77
488.62	280.78
488.99	281.78
489.35	282.87
489.72	284.07
490.08	285.34
490.44	286.67
490.81	288.03
491.17	289.41
491.54	290.97
491.90	292.60
492.26	294.31
492.63	296.13
492.99	297.97
493.36	299.99
493.72	302.18
494.08	304.41
494.45	306.74
494.81	309.24
495.17	311.83
495.54	314.56
495.90	317.32
496.26	320.27
496.63	323.31
496.99	326.55
497.35	329.95
497.72	333.53
498.08	337.23
498.44	341.09
498.80	345.24
499.17	349.47
499.53	353.81
499.89	358.45
500.26	363.21
500.62	368.12
500.98	373.37
501.34	378.74
501.71	384.32
502.07	390.15
502.43	396.15
502.79	402.25
503.16	408.67
503.52	415.34
503.88	422.10
504.24	429.18
504.60	436.47
504.97	444.00
505.33	451.75
505.69	459.87
506.05	468.18
506.41	476.53
506.78	485.13
507.14	494.14
507.50	503.41
507.86	512.98
508.22	522.75
508.59	532.53
508.95	542.71
509.31	553.15
509.67	563.85
510.03	574.76
510.39	586.00
510.75	597.49
511.12	609.12
511.48	621.19
511.84	633.42
512.20	645.74
512.56	658.59
512.92	671.56
513.28	684.82
513.64	698.08
514.00	711.71
514.37	725.69
514.73	739.73
515.09	753.65
515.45	767.93
515.81	782.46
516.17	797.42
516.53	812.63
516.89	827.88
517.25	843.21
517.61	858.75
517.97	874.38
518.33	889.94
518.69	905.93
519.05	922.02
519.41	938.42
519.77	955.25
520.13	971.99
520.49	988.86
520.85	1005.45
521.21	1022.50
521.57	1040.06
521.93	1057.16
522.29	1074.76
522.65	1092.54
523.01	1110.21
523.37	1127.79
523.73	1145.50
524.09	1163.03
524.45	1180.91
524.81	1199.02
525.17	1217.29
525.53	1235.66
525.89	1254.10
526.25	1272.51
526.61	1290.56
526.97	1309.01
527.33	1327.13
527.68	1345.37
528.04	1363.43
528.40	1381.76
528.76	1400.63
529.12	1418.99
529.48	1437.66
529.84	1455.59
530.20	1473.96
530.56	1492.80
530.91	1512.05
531.27	1530.73
531.63	1549.08
531.99	1567.48
532.35	1585.35
532.71	1603.26
533.07	1621.69
533.42	1639.64
533.78	1657.81
534.14	1676.07
534.50	1693.41
534.86	1711.32
535.21	1728.47
535.57	1746.41
535.93	1763.97
536.29	1780.61
536.65	1797.76
537.00	1814.45
537.36	1832.04
537.72	1848.51
538.08	1864.96
538.44	1880.74
538.79	1896.72
539.15	1912.26
539.51	1928.15
539.87	1944.67
540.22	1960.47
540.58	1976.22
540.94	1991.51
541.29	2006.26
541.65	2021.04
542.01	2036.29
542.37	2050.81
542.72	2065.25
543.08	2079.24
543.44	2093.84
543.79	2107.43
544.15	2120.44
544.51	2134.28
544.87	2147.18
545.22	2160.20
545.58	2172.59
545.94	2184.63
546.29	2196.60
546.65	2208.79
547.01	2220.11
547.36	2230.75
547.72	2241.28
548.07	2251.22
548.43	2261.35
548.79	2271.37
549.14	2281.16
549.50	2290.19
549.86	2299.46
550.21	2308.73
550.57	2317.74
550.92	2326.21
551.28	2335.03
551.64	2344.03
551.99	2352.30
552.35	2360.37
552.70	2368.31
553.06	2375.89
553.41	2383.95
553.77	2391.57
554.13	2399.28
554.48	2407.09
554.84	2414.48
555.19	2421.30
555.55	2428.13
555.90	2434.30
556.26	2441.05
556.61	2447.13
556.97	2453.34
557.32	2459.32
557.68	2465.11
558.03	2470.81
558.39	2476.05
558.74	2482.27
559.10	2487.71
559.45	2492.76
559.81	2498.45
560.16	2503.78
560.52	2508.59
560.87	2513.34
561.23	2517.46
561.58	2521.63
561.94	2525.72
562.29	2529.07
562.64	2533.33
563.00	2537.12
563.35	2542.01
563.71	2546.40
564.06	2550.84
564.42	2555.13
564.77	2558.82
565.12	2562.38
565.48	2565.73
565.83	2568.67
566.19	2571.20
566.54	2572.95
566.89	2575.32
567.25	2576.98
567.60	2579.23
567.96	2582.10
568.31	2583.93
568.66	2585.95
569.02	2587.57
569.37	2588.55
569.72	2590.47
570.08	2591.57
570.43	2592.40
570.78	2592.58
571.14	2591.55
571.49	2590.77
571.84	2590.88
572.20	2590.36
572.55	2589.68
572.90	2588.21
573.26	2587.23
573.61	2585.63
573.96	2584.64
574.31	2582.04
574.67	2579.21
575.02	2575.81
575.37	2572.40
575.72	2568.81
576.08	2565.46
576.43	2562.08
576.78	2558.63
577.13	2555.36
577.49	2551.97
577.84	2548.46
578.19	2544.50
578.54	2540.96
578.90	2536.92
579.25	2531.11
579.60	2526.09
579.95	2521.12
580.30	2515.96
580.66	2510.62
581.01	2505.40
581.36	2499.84
581.71	2495.45
582.06	2490.86
582.42	2486.13
582.77	2480.62
583.12	2475.76
583.47	2470.89
583.82	2465.77
584.17	2460.12
584.53	2454.27
584.88	2448.10
585.23	2441.92
585.58	2436.02
585.93	2430.07
586.28	2424.45
586.63	2418.98
586.98	2413.33
587.34	2407.99
587.69	2402.65
588.04	2397.08
588.39	2391.01
588.74	2383.97
589.09	2377.10
589.44	2369.61
589.79	2362.75
590.14	2356.41
590.49	2348.98
590.84	2341.65
591.19	2334.84
591.54	2327.47
591.89	2319.48
592.25	2312.22
592.60	2304.14
592.95	2295.83
593.30	2287.52
593.65	2279.01
594.00	2271.02
594.35	2262.75
594.70	2253.54
595.05	2245.60
595.40	2237.16
595.75	2228.70
596.10	2221.69
596.45	2214.14
596.80	2207.12
597.15	2199.72
597.50	2191.92
597.85	2184.65
598.19	2177.24
598.54	2169.39
598.89	2161.91
599.24	2155.08
599.59	2147.59
599.94	2140.57
600.29	2133.28
600.64	2125.59
600.99	2117.35
601.34	2109.62
601.69	2101.60
602.04	2093.96
602.39	2085.58
602.74	2077.82
603.08	2070.14
603.43	2062.32
603.78	2053.85
604.13	2045.47
604.48	2037.22
604.83	2029.22
605.18	2021.44
605.53	2012.41
605.87	2003.07
606.22	1994.63
606.57	1985.39
606.92	1976.53
607.27	1968.15
607.62	1960.20
607.96	1951.99
608.31	1944.48
608.66	1935.75
609.01	1927.08
609.36	1918.34
609.70	1909.03
610.05	1899.73
610.40	1890.74
610.75	1881.20
611.10	1872.33
611.44	1862.44
611.79	1853.02
612.14	1842.99
612.49	1832.11
612.83	1822.20
613.18	1812.59
613.53	1803.15
613.88	1793.22
614.22	1783.51
614.57	1773.41
614.92	1764.04
615.27	1755.30
615.61	1745.57
615.96	1736.07
616.31	1727.09
616.65	1718.41
617.00	1709.53
617.35	1700.48
617.70	1690.86
618.04	1680.92
618.39	1671.22
618.74	1662.52
619.08	1652.90
619.43	1643.81
619.78	1635.72
620.12	1627.44
620.47	1618.70
620.82	1608.99
621.16	1600.22
621.51	1591.41
621.85	1582.51
622.20	1572.49
622.55	1562.50
622.89	1553.18
623.24	1544.09
623.59	1535.34
623.93	1526.53
624.28	1518.07
624.62	1509.22
624.97	1500.77
625.32	1492.73
625.66	1484.40
626.01	1475.96
626.35	1467.39
626.70	1458.35
627.04	1449.38
627.39	1440.15
627.73	1431.53
628.08	1423.64
628.43	1415.31
628.77	1406.85
629.12	1398.10
629.46	1389.77
629.81	1381.08
630.15	1372.58
630.50	1364.06
630.84	1354.74
631.19	1345.41
631.53	1336.55
631.88	1327.71
632.22	1318.76
632.57	1310.18
632.91	1301.42
633.26	1292.88
633.60	1284.09
633.95	1275.73
634.29	1267.35
634.64	1259.49
634.98	1250.97
635.32	1242.64
635.67	1234.81
636.01	1226.94
636.36	1219.07
636.70	1211.38
637.05	1203.69
637.39	1196.17
637.73	1188.67
638.08	1181.68
638.42	1174.69
638.77	1167.30
639.11	1159.75
639.45	1152.40
639.80	1144.71
640.14	1137.35
640.49	1129.69
640.83	1122.37
641.17	1115.32
641.52	1108.12
641.86	1100.72
642.20	1093.87
642.55	1086.35
642.89	1078.89
643.23	1071.17
643.58	1064.41
643.92	1057.29
644.26	1050.41
644.61	1043.44
644.95	1036.45
645.29	1028.92
645.64	1021.11
645.98	1013.68
646.32	1006.77
646.66	999.84
647.01	993.19
647.35	986.58
647.69	979.76
648.04	973.39
648.38	966.75
648.72	959.87
649.06	952.96
649.41	946.19
649.75	939.55
650.09	932.69
650.43	926.18
650.78	919.12
651.12	912.26
651.46	905.65
651.80	899.13
652.14	892.94
652.49	886.80
652.83	880.92
653.17	874.50
653.51	868.07
653.85	861.73
654.20	855.28
654.54	848.47
654.88	841.92
655.22	835.14
655.56	828.48
655.90	822.22
656.25	816.17
656.59	809.99
656.93	804.07
657.27	798.20
657.61	791.90
657.95	786.02
658.29	780.15
658.64	774.09
658.98	767.89
659.32	761.54
659.66	755.50
660.00	749.40
660.34	743.68
660.68	737.93
661.02	732.14
661.36	726.77
661.70	721.54
662.05	716.57
662.39	711.67
662.73	706.55
663.07	701.41
663.41	696.33
663.75	691.25
664.09	686.02
664.43	680.95
664.77	676.33
665.11	671.47
665.45	666.73
665.79	662.16
666.13	657.53
666.47	652.85
666.81	648.15
667.15	643.43
667.49	638.87
667.83	634.54
668.17	630.16
668.51	625.48
668.85	620.88
669.19	616.36
669.53	611.94
669.87	607.51
670.21	603.27
670.55	599.01
670.89	595.02
671.23	591.08
671.57	587.07
671.91	583.03
672.25	578.93
672.58	574.89
672.92	570.87
673.26	567.19
673.60	563.56
673.94	559.96
674.28	556.59
674.62	553.25
674.96	549.69
675.30	546.34
675.64	543.07
675.97	539.86
676.31	536.63
676.65	533.31
676.99	530.23
677.33	527.00
677.67	523.83
678.01	520.42
678.34	517.09
678.68	513.70
679.02	510.47
679.36	507.40
679.70	504.32
680.04	501.22
680.37	497.95
680.71	494.74
681.05	491.71
681.39	488.58
681.73	485.49
682.06	482.66
682.40	479.71
682.74	476.72
683.08	473.77
683.42	470.79
683.75	467.90
684.09	464.97
684.43	462.09
684.77	459.19
685.10	456.43
685.44	453.69
685.78	451.09
686.12	448.46
686.45	445.76
686.79	443.13
687.13	440.55
687.46	438.01
687.80	435.49
688.14	432.89
688.48	430.53
688.81	428.03
689.15	425.52
689.49	423.02
689.82	420.59
690.16	418.09
690.50	415.80
690.83	413.51
691.17	411.20
691.51	409.00
691.84	406.92
692.18	404.70
692.52	402.47
692.85	400.20
693.19	398.00
693.52	395.86
693.86	393.74
694.20	391.66
694.53	389.64
694.87	387.54
695.21	385.52
695.54	383.44
695.88	381.41
696.21	379.38
696.55	377.40
696.88	375.46
697.22	373.59
697.56	371.69
697.89	369.79
698.23	367.93
698.56	366.08
698.90	364.27
699.23	362.41
699.57	360.64
699.90	358.93
700.24	357.15
700.58	355.46
700.91	353.75
701.25	352.07
701.58	350.50
701.92	348.95
702.25	347.38
702.59	345.81
702.92	344.31
703.26	342.80
703.59	341.37
703.93	340.01
704.26	338.60
704.60	337.17
704.93	335.79
705.26	334.37
705.60	332.96
705.93	331.55
706.27	330.35
706.60	329.08
706.94	327.78
707.27	326.51
707.61	325.22
707.94	324.01
708.27	322.74
708.61	321.48
708.94	320.29
709.28	319.13
709.61	317.99
709.94	316.85
710.28	315.66
710.61	314.48
710.95	313.22
711.28	312.16
711.61	311.00
711.95	309.89
712.28	308.82
712.61	307.75
712.95	306.70
713.28	305.62
713.61	304.61
713.95	303.62
714.28	302.66
714.61	301.69
714.95	300.74
715.28	299.83
715.61	298.81
715.95	297.85
716.28	296.83
716.61	295.88
716.95	294.92
717.28	294.05
717.61	293.24
717.94	292.44
718.28	291.52
718.61	290.69
718.94	289.86
719.27	289.07
719.61	288.34
719.94	287.58
720.27	286.80
720.60	286.02
720.94	285.29
721.27	284.63
721.60	283.95
721.93	283.24
722.27	282.62
722.60	281.98
722.93	281.29
723.26	280.74
723.59	280.09
723.93	279.51
724.26	278.87
724.59	278.19
724.92	277.55
725.25	276.96
725.59	276.38
725.92	275.80
726.25	275.22
726.58	274.64
726.91	274.07
727.24	273.52
727.57	273.00
727.91	272.42
728.24	271.80
728.57	271.26
728.90	270.71
729.23	270.12
729.56	269.63
729.89	269.10
730.22	268.51
730.55	267.97
730.89	267.48
731.22	266.97
731.55	266.49
731.88	266.00
732.21	265.48
732.54	265.01
732.87	264.46
733.20	263.99
733.53	263.51
733.86	263.07
734.19	262.56
734.52	262.13
734.85	261.75
735.18	261.29
735.51	260.85
735.84	260.42
736.17	259.99
736.50	259.56
736.83	259.28
737.16	258.92
737.49	258.52
737.82	258.10
738.15	257.75
738.48	257.34
738.81	256.95
739.14	256.60
739.47	256.21
739.80	255.90
740.13	255.58
740.46	255.23
740.79	254.82
741.12	254.48
741.45	254.11
741.78	253.71
742.11	253.38
742.44	253.00
742.77	252.69
743.10	252.35
743.43	251.99
743.75	251.54
744.08	251.34
744.41	251.06
744.74	250.74
745.07	250.38
745.40	250.09
745.73	249.82
746.06	249.48
746.39	249.18
746.71	248.85
747.04	248.50
747.37	248.24
747.70	248.00
748.03	247.70
748.36	247.42
748.68	247.16
749.01	246.89
749.34	246.64
749.67	246.37
750.00	246.11
750.33	245.94
750.65	245.69
750.98	245.31
751.31	245.00
751.64	244.76
751.97	244.59
752.29	244.36
752.62	244.04
752.95	243.79
753.28	243.57
753.60	243.36
753.93	243.16
754.26	242.89
754.59	242.61
754.91	242.36
755.24	242.13
755.57	241.90
755.90	241.69
756.22	241.47
756.55	241.21
756.88	240.95
757.20	240.67
757.53	240.49
757.86	240.26
758.19	240.11
758.51	239.92
758.84	239.65
759.17	239.45
759.49	239.31
759.82	239.21
760.15	239.02
760.47	238.85
760.80	238.63
761.13	238.50
761.45	238.33
761.78	238.18
762.11	238.01
762.43	237.79
762.76	237.63
763.08	237.49
763.41	237.38
763.74	237.27
764.06	237.08
764.39	236.89
764.71	236.71
765.04	236.52
765.37	236.36
765.69	236.23
766.02	236.05
766.34	235.88
766.67	235.70
767.00	235.57
767.32	235.45
767.65	235.41
767.97	235.27
768.30	235.15
768.62	235.04
768.95	234.86
769.27	234.78
769.60	234.67
769.92	234.49
770.25	234.36
770.57	234.20
770.90	234.12
771.22	234.03
771.55	233.92
771.87	233.84
772.20	233.72
772.52	233.69
772.85	233.73
773.17	233.67
773.50	233.52
773.82	233.43
774.15	233.31
774.47	233.14
774.80	232.98
775.12	232.88
775.45	232.77
775.77	232.74
776.09	232.65
776.42	232.56
776.74	232.49
777.07	232.39
777.39	232.32
777.72	232.22
778.04	232.12
778.36	232.08
778.69	232.01
779.01	231.97
779.33	231.81
779.66	231.64
779.98	231.52
780.31	231.49
780.63	231.46
780.95	231.43
781.28	231.37
781.60	231.31
781.92	231.28
782.25	231.20
782.57	231.14
782.89	231.09
783.22	231.03
783.54	231.01
783.86	231.00
784.19	230.94
784.51	230.89
784.83	230.85
785.16	230.78
785.48	230.75
785.80	230.66
786.12	230.63
786.45	230.55
786.77	230.52
787.09	230.42
787.42	230.31
787.74	230.26
788.06	230.19
788.38	230.17
788.71	230.10
789.03	230.04
789.35	230.01
789.67	229.98
789.99	229.93
790.32	229.83
790.64	229.75
790.96	229.83
791.28	229.77
791.61	229.72
791.93	229.67
792.25	229.62
792.57	229.66
792.89	229.60
793.21	229.59
793.54	229.54
793.86	229.49
794.18	229.46
794.50	229.40
794.82	229.34
795.14	229.31
795.47	229.25
795.79	229.23
796.11	229.13
796.43	229.06
796.75	229.02
797.07	229.01
797.39	228.94
797.71	228.79
798.04	228.74
798.36	228.70
798.68	228.66
799.00	228.58
799.32	228.49
799.64	228.47
799.96	228.42
800.28	228.38
800.60	228.35
800.92	228.34
801.24	228.24
801.56	228.23
801.89	228.14
802.21	228.11
802.53	228.06
802.85	228.06
803.17	228.06
803.49	227.98
803.81	227.92
804.13	227.92
804.45	227.88
804.77	227.86
805.09	227.84
805.41	227.80
805.73	227.75
806.05	227.68
806.37	227.62
806.69	227.55
807.01	227.47
807.33	227.44
807.65	227.39
807.97	227.45
808.28	227.39
808.60	227.36
808.92	227.35
809.24	227.36
809.56	227.31
809.88	227.23
810.20	227.23
810.52	227.22
810.84	227.17
811.16	227.09
811.48	227.04
811.80	227.04
812.12	227.00
812.43	226.98
812.75	226.94
813.07	226.88
813.39	226.87
813.71	226.85
814.03	226.82
814.35	226.78
814.67	226.71
814.98	226.68
815.30	226.67
815.62	226.62
815.94	226.52
816.26	226.54
816.58	226.50
816.89	226.48
817.21	226.43
817.53	226.45
817.85	226.46
818.17	226.47
818.48	226.42
818.80	226.44
819.12	226.40
819.44	226.40
819.76	226.40
820.07	226.39
820.39	226.36
820.71	226.37
821.03	226.35
821.34	226.33
821.66	226.34
821.98	226.33
822.30	226.32
822.61	226.37
822.93	226.33
823.25	226.33
823.57	226.32
823.88	226.34
824.20	226.30
824.52	226.29
824.83	226.24
825.15	226.20
825.47	226.17
825.79	226.19
826.10	226.16
826.42	226.16
826.74	226.16
827.05	226.16
827.37	226.14
827.69	226.10
828.00	226.09
828.32	226.07
828.64	226.04
828.95	226.08
829.27	226.08
829.58	226.08
829.90	226.08
830.22	226.09
830.53	226.05
830.85	226.04
831.17	226.00
831.48	226.00
831.80	226.01
832.11	225.98
832.43	225.99
832.75	225.98
833.06	226.04
833.38	226.02
833.69	226.02
834.01	226.04
834.32	226.07
834.64	226.06
834.96	226.07
835.27	226.05
835.59	226.03
835.90	225.97
836.22	225.97
836.53	225.95
836.85	225.91
837.16	226.01
837.48	226.00
837.79	226.06
838.11	226.06
838.42	226.06
838.74	226.09
839.05	226.03
839.37	226.03
839.68	225.94
840.00	225.92
840.31	225.92
840.63	225.86
840.94	225.84
841.26	225.85
841.57	225.85
841.88	225.86
842.20	225.83
842.51	225.81
842.83	225.76
843.14	225.82
843.46	225.80
843.77	225.76
844.08	225.75
844.40	225.67
844.71	225.63
845.03	225.61
845.34	225.53
845.65	225.56
845.97	225.53
846.28	225.54
846.60	225.54
846.91	225.57
847.22	225.55
847.54	225.56
847.85	225.54
848.16	225.50
848.48	225.45
848.79	225.46
849.10	225.48
849.42	225.48
849.73	225.39
850.04	225.39
850.36	225.30
850.67	225.31
850.98	225.33
851.30	225.33
851.61	225.32
851.92	225.35
852.23	225.35
852.55	225.37
852.86	225.32
853.17	225.29
853.49	225.23
853.80	225.28
854.11	225.25
854.42	225.25
854.74	225.25
855.05	225.24
855.36	225.18
855.67	225.18
855.99	225.18
856.30	225.26
856.61	225.24
856.92	225.27
857.23	225.22
857.55	225.21
857.86	225.21
858.17	225.20
858.48	225.15
858.79	225.12
859.11	225.09
859.42	225.12
859.73	225.09
860.04	225.09
860.35	225.04
860.66	225.02
860.98	224.97
861.29	224.96
861.60	224.97
861.91	224.98
862.22	224.95
862.53	224.97
862.84	224.89
863.16	224.90
863.47	224.85
863.78	224.86
864.09	224.85
864.40	224.84
864.71	224.86
865.02	224.87
865.33	224.84
865.64	224.83
865.95	224.82
866.27	224.91
866.58	224.93
866.89	224.95
867.20	224.97
867.51	224.98
867.82	224.99
868.13	225.03
868.44	225.04
868.75	225.07
869.06	225.05
869.37	225.05
869.68	225.03
869.99	225.09
870.30	225.10
870.61	225.10
870.92	225.08
871.23	225.08
871.54	225.11
871.85	225.17
872.16	225.20
872.47	225.19
872.78	225.14
873.09	225.15
873.40	225.13
873.71	225.16
874.02	225.18
874.33	225.20
874.64	225.17
874.95	225.18
875.26	225.15
875.56	225.14
875.87	225.15
876.18	225.13
876.49	225.23
876.80	225.21
877.11	225.23
877.42	225.24
877.73	225.25
878.04	225.25
878.35	225.24
878.66	225.26
878.96	225.28
879.27	225.28
879.58	225.27
879.89	225.26
880.20	225.27
880.51	225.29
880.82	225.25
881.12	225.25
881.43	225.23
881.74	225.21
882.05	225.21
882.36	225.20
882.67	225.23
882.97	225.09
883.28	225.07
883.59	225.04
883.90	225.03
884.21	224.97
884.51	224.97
884.82	224.93
885.13	224.92
885.44	224.92
885.74	224.89
886.05	224.86
886.36	224.84
886.67	224.73
886.98	224.75
887.28	224.77
887.59	224.74
887.90	224.77
888.20	224.76
888.51	224.79
888.82	224.75
889.13	224.76
889.43	224.88
889.74	224.87
890.05	224.89
890.35	224.91
890.66	224.90
890.97	224.88
891.28	224.87
891.58	224.86
891.89	224.85
892.20	224.83
892.50	224.84
892.81	224.85
893.12	224.90
893.42	224.85
893.73	224.83
894.04	224.83
894.34	224.81
894.65	224.79
894.95	224.74
895.26	224.73
895.57	224.76
895.87	224.65
896.18	224.66
896.48	224.66
896.79	224.66
897.10	224.71
897.40	224.71
897.71	224.71
898.01	224.69
898.32	224.74
898.63	224.72
898.93	224.72
899.24	224.74
899.54	224.76
899.85	224.74
900.15	224.76
900.46	224.77
900.76	224.79
901.07	224.79
901.38	224.81
901.68	224.85
901.99	224.77
902.29	224.76
902.60	224.78
902.90	224.76
903.21	224.76
903.51	224.73
903.82	224.74
904.12	224.76
904.43	224.79
904.73	224.78
905.03	224.80
905.34	224.90
905.64	224.89
905.95	224.86
906.25	224.86
906.56	224.86
906.86	224.86
907.17	224.83
907.47	224.84
907.77	224.85
908.08	224.82
908.38	224.87
908.69	224.90
908.99	224.92
909.30	224.94
909.60	224.95
909.90	224.99
910.21	224.97
910.51	224.95
910.81	224.95
911.12	224.96
911.42	224.96
911.73	224.89
912.03	224.88
912.33	224.95
912.64	224.96
912.94	224.95
913.24	224.92
913.55	224.97
913.85	224.98
914.15	224.99
914.46	225.01
914.76	224.98
915.06	224.97
915.37	224.97
915.67	224.98
915.97	225.00
916.27	224.98
916.58	225.00
916.88	225.02
917.18	224.98
917.49	225.05
917.79	225.04
918.09	225.06
918.39	225.09
918.70	225.07
919.00	225.08
919.30	225.11
919.60	225.13
919.91	225.09
920.21	225.09
920.51	225.08
920.81	225.06
921.12	225.11
921.42	225.10
921.72	225.08
922.02	225.08
922.32	225.10
922.63	225.11
922.93	225.14
923.23	225.16
923.53	225.16
923.83	225.11
924.13	225.12
924.44	225.10
924.74	225.10
925.04	225.12
925.34	225.12
925.64	225.09
925.94	225.08
926.24	225.16
926.55	225.18
926.85	225.16
927.15	225.18
927.45	225.16
927.75	225.16
928.05	225.15
928.35	225.14
928.65	225.13
928.95	225.12
929.26	225.08
929.56	225.05
929.86	225.07
930.16	225.04
930.46	225.01
930.76	225.03
931.06	224.98
931.36	224.90
931.66	224.93
931.96	224.92
932.26	224.97
932.56	224.89
932.86	224.86
933.16	224.85
933.46	224.84
933.76	224.81
934.06	224.82
934.36	224.83
934.66	224.79
934.96	224.78
935.26	224.77
935.56	224.80
935.86	224.78
936.16	224.73
936.46	224.76
936.76	224.74
937.06	224.71
937.36	224.73
937.66	224.74
937.96	224.70
938.26	224.65
938.56	224.63
938.86	224.65
939.16	224.71
939.46	224.75
939.76	224.73
940.06	224.74
940.35	224.74
940.65	224.73
940.95	224.76
941.25	224.71
941.55	224.71
941.85	224.69
942.15	224.73
942.45	224.75
942.75	224.72
943.04	224.73
943.34	224.76
943.64	224.74
943.94	224.75
944.24	224.76
944.54	224.84
944.84	224.82
945.13	224.79
945.43	224.73
945.73	224.71
946.03	224.71
946.33	224.71
946.62	224.68
946.92	224.68
947.22	224.67
947.52	224.68
947.82	224.65
948.11	224.65
948.41	224.63
948.71	224.62
949.01	224.62
949.31	224.64
949.60	224.61
949.90	224.62
950.20	224.61
950.50	224.60
950.79	224.57
951.09	224.57
951.39	224.56
951.69	224.54
951.98	224.54
952.28	224.51
952.58	224.54
952.87	224.54
953.17	224.53
953.47	224.51
953.76	224.53
954.06	224.54
954.36	224.50
954.66	224.48
954.95	224.48
955.25	224.50
955.55	224.53
955.84	224.52
956.14	224.56
956.44	224.58
956.73	224.55
957.03	224.54
957.32	224.58
957.62	224.60
957.92	224.62
958.21	224.61
958.51	224.74
958.81	224.73
959.10	224.72
959.40	224.75
959.69	224.80
959.99	224.78
960.29	224.78
960.58	224.81
960.88	224.85
961.17	224.86
961.47	224.87
961.76	224.82
962.06	224.82
962.36	224.78
962.65	224.78
962.95	224.80
963.24	224.83
963.54	224.80
963.83	224.80
964.13	224.78
964.42	224.78
964.72	224.69
965.01	224.68
965.31	224.70
965.60	224.66
965.90	224.70
966.19	224.70
966.49	224.70
966.78	224.73
967.08	224.72
967.37	224.74
967.67	224.69
967.96	224.70
968.26	224.70
968.55	224.74
968.85	224.74
969.14	224.73
969.43	224.69
969.73	224.67
970.02	224.66
970.32	224.66
970.61	224.64
970.91	224.64
971.20	224.60
971.49	224.61
971.79	224.61
972.08	224.53
972.38	224.53
972.67	224.55
972.96	224.52
973.26	224.48
973.55	224.50
973.85	224.53
974.14	224.51
974.43	224.53
974.73	224.50
975.02	224.48
975.31	224.49
975.61	224.49
975.90	224.50
976.19	224.50
976.49	224.52
976.78	224.53
977.07	224.52
977.37	224.52
977.66	224.52
977.95	224.52
978.24	224.55
978.54	224.57
978.83	224.55
979.12	224.57
979.42	224.57
979.71	224.54
980.00	224.51
980.29	224.54
980.59	224.54
980.88	224.55
981.17	224.56
981.46	224.54
981.76	224.57
982.05	224.59
982.34	224.59
982.63	224.59
982.93	224.62
983.22	224.65
983.51	224.68
983.80	224.67
984.09	224.70
984.39	224.70
984.68	224.68
984.97	224.68
985.26	224.69
985.55	224.70
985.85	224.70
986.14	224.73
986.43	224.75
986.72	224.74
987.01	224.74
987.30	224.73
987.59	224.71
987.89	224.70
988.18	224.67
988.47	224.64
988.76	224.62
989.05	224.60
989.34	224.59
989.63	224.65
989.92	224.63
990.22	224.59
990.51	224.58
990.80	224.56
991.09	224.58
991.38	224.58
991.67	224.58
991.96	224.54
992.25	224.57
992.54	224.56
992.83	224.55
993.12	224.57
993.41	224.57
993.70	224.65
993.99	224.65
994.28	224.69
994.58	224.73
994.87	224.71
995.16	224.71
995.45	224.73
995.74	224.67
996.03	224.72
996.32	224.71
996.61	224.72
996.90	224.71
997.19	224.70
997.48	224.69
997.77	224.66
998.06	224.68
998.34	224.63
998.63	224.63
998.92	224.61
999.21	224.61
999.50	224.63
999.79	224.57
1000.08	224.58
1000.37	224.58
1000.66	224.58
1000.95	224.62
1001.24	224.59
1001.53	224.60
1001.82	224.57
1002.11	224.55
1002.40	224.59
1002.68	224.62
1002.97	224.69
1003.26	224.69
1003.55	224.68
1003.84	224.70
1004.13	224.74
1004.42	224.73
1004.71	224.73
1004.99	224.72
1005.28	224.72
1005.57	224.70
1005.86	224.70
1006.15	224.69
1006.44	224.65
1006.72	224.66
1007.01	224.64
1007.30	224.66
1007.59	224.62
1007.88	224.64
1008.17	224.67
1008.45	224.63
1008.74	224.59
1009.03	224.55
1009.32	224.55
1009.60	224.50
1009.89	224.50
1010.18	224.45
1010.47	224.45
1010.76	224.43
1011.04	224.42
1011.33	224.41
1011.62	224.41
1011.91	224.42
1012.19	224.41
1012.48	224.41
1012.77	224.42
1013.05	224.49
1013.34	224.49
1013.63	224.52
1013.92	224.50
1014.20	224.48
1014.49	224.49
1014.78	224.46
1015.06	224.41
1015.35	224.39
1015.64	224.44
1015.92	224.44
1016.21	224.45
1016.50	224.48
1016.78	224.49
1017.07	224.52
1017.36	224.51
1017.64	224.53
1017.93	224.53
1018.22	224.52
1018.50	224.52
1018.79	224.51
1019.08	224.46
1019.36	224.48
1019.65	224.42
1019.93	224.45
1020.22	224.46
1020.51	224.51
1020.79	224.54
1021.08	224.05
1021.36	224.23
1021.65	224.68
1021.94	224.95
1022.22	224.69
1022.51	223.96
1022.79	224.93
1023.08	224.65
1023.36	225.61
1023.65	224.43
>>>>>End Processed Spectral Data<<<<<
