SpectraSuite Data File
++++++++++++++++++++++++++++++++++++
Date: Fri Feb 01 16:08:12 EST 2013
User: group
Dark Spectrum Present: No
Reference Spectrum Present: No
Number of Sampled Component Spectra: 1
Spectrometers: USB2E7196
Integration Time (usec): 35000 (USB2E7196)
Spectra Averaged: 100 (USB2E7196)
Boxcar Smoothing: 10 (USB2E7196)
Correct for Electrical Dark: No (USB2E7196)
Strobe/Lamp Enabled: No (USB2E7196)
Correct for Detector Non-linearity: No (USB2E7196)
Correct for Stray Light: No (USB2E7196)
Number of Pixels in Processed Spectrum: 2048
>>>>>Begin Processed Spectral Data<<<<<
339.09	0.00
339.48	214.82
339.86	216.50
340.24	217.18
340.63	218.87
341.01	221.62
341.39	221.89
341.78	223.12
342.16	223.97
342.54	224.80
342.93	213.05
343.31	223.81
343.69	224.34
344.07	224.76
344.46	225.18
344.84	225.53
345.22	225.77
345.60	226.01
345.99	226.18
346.37	226.32
346.75	226.39
347.13	226.47
347.52	226.54
347.90	226.59
348.28	226.59
348.66	226.61
349.05	226.56
349.43	226.55
349.81	226.59
350.19	226.63
350.57	226.67
350.96	226.73
351.34	226.79
351.72	226.87
352.10	227.00
352.48	227.10
352.87	227.16
353.25	227.20
353.63	227.25
354.01	227.30
354.39	227.36
354.77	227.41
355.15	227.47
355.54	227.51
355.92	227.58
356.30	227.67
356.68	227.80
357.06	227.88
357.44	227.96
357.82	228.02
358.20	228.08
358.58	228.16
358.97	228.21
359.35	228.29
359.73	228.37
360.11	228.41
360.49	228.44
360.87	228.48
361.25	228.58
361.63	228.65
362.01	228.72
362.39	228.78
362.77	228.84
363.15	228.91
363.53	228.96
363.91	229.00
364.29	229.01
364.67	228.97
365.05	229.01
365.43	229.03
365.81	229.02
366.19	229.11
366.57	229.12
366.95	229.13
367.33	229.12
367.71	229.09
368.09	229.09
368.47	229.08
368.85	229.08
369.23	229.04
369.61	228.99
369.99	228.98
370.37	228.95
370.75	228.96
371.13	228.93
371.51	228.84
371.89	228.79
372.27	228.75
372.65	228.70
373.03	228.65
373.41	228.61
373.78	228.62
374.16	228.50
374.54	228.44
374.92	228.39
375.30	228.34
375.68	228.29
376.06	228.23
376.44	228.14
376.82	228.09
377.19	228.03
377.57	227.98
377.95	227.87
378.33	227.79
378.71	227.68
379.09	227.61
379.47	227.59
379.84	227.55
380.22	227.47
380.60	227.37
380.98	227.28
381.36	227.22
381.73	227.11
382.11	227.08
382.49	227.01
382.87	226.92
383.25	226.87
383.62	226.93
384.00	226.87
384.38	226.85
384.76	226.80
385.13	226.77
385.51	226.71
385.89	226.68
386.27	226.63
386.64	226.60
387.02	226.54
387.40	226.48
387.78	226.43
388.15	226.40
388.53	226.39
388.91	226.38
389.29	226.32
389.66	226.30
390.04	226.26
390.42	226.25
390.79	226.22
391.17	226.19
391.55	226.06
391.92	225.99
392.30	226.02
392.68	226.02
393.05	226.02
393.43	226.02
393.81	226.03
394.18	226.01
394.56	226.02
394.94	226.05
395.31	226.06
395.69	226.07
396.06	226.10
396.44	226.13
396.82	226.16
397.19	226.25
397.57	226.27
397.95	226.29
398.32	226.34
398.70	226.41
399.07	226.47
399.45	226.51
399.82	226.62
400.20	226.63
400.58	226.66
400.95	226.68
401.33	226.79
401.70	226.91
402.08	227.01
402.45	227.10
402.83	227.20
403.20	227.28
403.58	227.38
403.95	227.51
404.33	227.62
404.71	227.74
405.08	227.90
405.46	228.06
405.83	228.21
406.21	228.33
406.58	228.48
406.96	228.64
407.33	228.80
407.70	228.99
408.08	229.30
408.45	229.57
408.83	229.81
409.20	229.99
409.58	230.16
409.95	230.43
410.33	230.69
410.70	230.93
411.08	231.27
411.45	231.58
411.82	231.89
412.20	232.26
412.57	232.71
412.95	233.00
413.32	233.37
413.69	233.77
414.07	234.21
414.44	234.69
414.82	235.15
415.19	235.69
415.56	236.24
415.94	236.77
416.31	237.36
416.68	238.01
417.06	238.74
417.43	239.46
417.81	240.23
418.18	241.03
418.55	241.88
418.93	242.74
419.30	243.64
419.67	244.59
420.04	245.55
420.42	246.53
420.79	247.74
421.16	248.92
421.54	250.14
421.91	251.37
422.28	252.63
422.66	254.01
423.03	255.33
423.40	256.68
423.77	258.12
424.15	259.56
424.52	261.06
424.89	262.68
425.26	264.18
425.64	265.62
426.01	267.21
426.38	268.87
426.75	270.53
427.13	272.28
427.50	274.13
427.87	276.00
428.24	277.84
428.61	279.57
428.99	281.52
429.36	283.65
429.73	285.72
430.10	287.71
430.47	289.76
430.85	291.88
431.22	294.09
431.59	296.45
431.96	298.70
432.33	301.07
432.70	303.45
433.08	306.28
433.45	308.94
433.82	311.50
434.19	314.40
434.56	317.23
434.93	319.81
435.30	322.40
435.68	325.26
436.05	328.12
436.42	330.85
436.79	333.32
437.16	335.98
437.53	338.79
437.90	341.63
438.27	344.36
438.64	347.19
439.01	349.78
439.38	352.03
439.75	354.20
440.13	356.72
440.50	359.01
440.87	360.85
441.24	362.74
441.61	364.95
441.98	366.39
442.35	368.15
442.72	369.99
443.09	371.79
443.46	372.80
443.83	373.38
444.20	373.96
444.57	374.84
444.94	375.08
445.31	375.42
445.68	375.75
446.05	375.81
446.42	375.41
446.79	374.97
447.16	374.51
447.53	374.19
447.90	373.03
448.27	371.86
448.64	370.27
449.01	369.15
449.37	367.14
449.74	365.24
450.11	363.05
450.48	360.60
450.85	358.03
451.22	355.85
451.59	353.81
451.96	351.85
452.33	349.21
452.70	346.89
453.07	344.05
453.43	341.16
453.80	338.40
454.17	335.73
454.54	333.20
454.91	330.49
455.28	327.83
455.65	325.38
456.02	322.98
456.38	320.87
456.75	318.22
457.12	316.00
457.49	313.80
457.86	311.63
458.23	309.81
458.59	307.79
458.96	305.76
459.33	303.88
459.70	301.99
460.07	300.53
460.43	298.82
460.80	297.20
461.17	295.76
461.54	294.27
461.91	292.87
462.27	291.47
462.64	290.22
463.01	288.84
463.38	287.52
463.74	286.17
464.11	284.99
464.48	284.01
464.85	282.92
465.21	282.09
465.58	281.19
465.95	280.05
466.32	279.13
466.68	278.19
467.05	277.35
467.42	276.51
467.78	275.58
468.15	274.75
468.52	274.14
468.88	273.32
469.25	272.55
469.62	271.91
469.98	271.25
470.35	270.62
470.72	270.05
471.08	269.45
471.45	268.89
471.82	268.35
472.18	267.72
472.55	267.29
472.92	266.77
473.28	266.29
473.65	265.90
474.02	265.51
474.38	265.16
474.75	264.84
475.11	264.49
475.48	264.23
475.85	263.99
476.21	263.73
476.58	263.58
476.94	263.43
477.31	263.29
477.67	263.09
478.04	262.96
478.41	262.92
478.77	262.95
479.14	262.90
479.50	262.91
479.87	262.99
480.23	263.04
480.60	263.06
480.96	263.15
481.33	263.38
481.69	263.57
482.06	263.81
482.42	264.03
482.79	264.27
483.15	264.58
483.52	264.99
483.88	265.34
484.25	265.68
484.61	266.15
484.98	266.58
485.34	267.16
485.71	267.78
486.07	268.36
486.44	268.89
486.80	269.59
487.17	270.31
487.53	271.13
487.90	272.01
488.26	272.97
488.62	273.92
488.99	274.88
489.35	275.87
489.72	276.97
490.08	278.17
490.44	279.43
490.81	280.78
491.17	282.08
491.54	283.61
491.90	285.11
492.26	286.76
492.63	288.47
492.99	290.24
493.36	292.12
493.72	294.16
494.08	296.29
494.45	298.55
494.81	300.93
495.17	303.39
495.54	305.94
495.90	308.63
496.26	311.46
496.63	314.39
496.99	317.54
497.35	320.79
497.72	324.20
498.08	327.72
498.44	331.41
498.80	335.38
499.17	339.42
499.53	343.65
499.89	348.00
500.26	352.51
500.62	357.20
500.98	362.18
501.34	367.27
501.71	372.66
502.07	378.14
502.43	383.75
502.79	389.54
503.16	395.65
503.52	401.92
503.88	408.33
504.24	414.99
504.60	421.90
504.97	429.07
505.33	436.40
505.69	444.10
506.05	451.90
506.41	459.75
506.78	467.88
507.14	476.31
507.50	485.04
507.86	494.10
508.22	503.35
508.59	512.57
508.95	522.16
509.31	531.97
509.67	542.09
510.03	552.42
510.39	563.00
510.75	573.80
511.12	584.74
511.48	596.08
511.84	607.63
512.20	619.13
512.56	631.07
512.92	643.29
513.28	655.66
513.64	668.07
514.00	680.84
514.37	693.77
514.73	706.82
515.09	719.81
515.45	733.17
515.81	746.77
516.17	760.78
516.53	774.91
516.89	789.03
517.25	803.20
517.61	817.63
517.97	832.01
518.33	846.30
518.69	861.18
519.05	876.08
519.41	891.07
519.77	906.58
520.13	921.97
520.49	937.22
520.85	952.61
521.21	968.30
521.57	984.38
521.93	1000.18
522.29	1016.43
522.65	1032.67
523.01	1048.81
523.37	1064.71
523.73	1080.85
524.09	1096.88
524.45	1113.19
524.81	1129.67
525.17	1146.34
525.53	1163.25
525.89	1180.19
526.25	1196.95
526.61	1213.23
526.97	1230.02
527.33	1246.43
527.68	1263.00
528.04	1279.46
528.40	1295.99
528.76	1313.05
529.12	1329.71
529.48	1346.49
529.84	1362.46
530.20	1379.00
530.56	1395.88
530.91	1413.26
531.27	1429.92
531.63	1446.25
531.99	1462.65
532.35	1478.61
532.71	1494.52
533.07	1510.75
533.42	1526.63
533.78	1542.51
534.14	1558.81
534.50	1574.03
534.86	1589.89
535.21	1604.97
535.57	1620.92
535.93	1636.30
536.29	1651.02
536.65	1665.93
537.00	1680.60
537.36	1695.90
537.72	1710.35
538.08	1724.68
538.44	1738.34
538.79	1752.18
539.15	1765.83
539.51	1779.51
539.87	1793.70
540.22	1807.20
540.58	1820.79
540.94	1833.92
541.29	1846.70
541.65	1859.25
542.01	1872.42
542.37	1884.72
542.72	1897.22
543.08	1908.85
543.44	1921.11
543.79	1932.36
544.15	1943.30
544.51	1954.84
544.87	1965.70
545.22	1976.50
545.58	1986.82
545.94	1996.66
546.29	2006.36
546.65	2016.21
547.01	2025.48
547.36	2034.24
547.72	2042.88
548.07	2050.64
548.43	2058.77
548.79	2066.75
549.14	2074.30
549.50	2081.55
549.86	2089.14
550.21	2096.38
550.57	2103.55
550.92	2110.25
551.28	2117.08
551.64	2124.19
551.99	2130.52
552.35	2136.75
552.70	2142.79
553.06	2148.61
553.41	2154.76
553.77	2160.77
554.13	2166.81
554.48	2172.97
554.84	2178.36
555.19	2183.53
555.55	2188.74
555.90	2193.34
556.26	2198.28
556.61	2203.02
556.97	2207.42
557.32	2211.54
557.68	2215.72
558.03	2219.98
558.39	2223.61
558.74	2228.20
559.10	2232.05
559.45	2235.82
559.81	2240.05
560.16	2244.05
560.52	2247.39
560.87	2250.80
561.23	2253.65
561.58	2256.67
561.94	2259.05
562.29	2261.38
562.64	2264.04
563.00	2266.68
563.35	2270.24
563.71	2273.33
564.06	2276.54
564.42	2279.32
564.77	2281.98
565.12	2284.07
565.48	2286.00
565.83	2287.98
566.19	2289.41
566.54	2290.34
566.89	2291.59
567.25	2292.23
567.60	2293.56
567.96	2295.23
568.31	2296.05
568.66	2297.21
569.02	2297.72
569.37	2298.16
569.72	2299.22
570.08	2299.44
570.43	2299.52
570.78	2298.78
571.14	2297.27
571.49	2295.87
571.84	2295.75
572.20	2294.59
572.55	2293.63
572.90	2292.06
573.26	2290.57
573.61	2288.85
573.96	2287.16
574.31	2284.19
574.67	2281.18
575.02	2277.51
575.37	2274.10
575.72	2270.56
576.08	2267.14
576.43	2263.88
576.78	2260.32
577.13	2257.16
577.49	2254.11
577.84	2250.69
578.19	2247.04
578.54	2243.46
578.90	2239.27
579.25	2233.60
579.60	2228.63
579.95	2223.59
580.30	2218.65
580.66	2213.53
581.01	2208.57
581.36	2203.62
581.71	2199.53
582.06	2195.12
582.42	2190.77
582.77	2185.50
583.12	2180.99
583.47	2176.36
583.82	2171.39
584.17	2166.11
584.53	2160.62
584.88	2155.06
585.23	2149.18
585.58	2143.68
585.93	2138.24
586.28	2133.53
586.63	2128.48
586.98	2123.46
587.34	2118.84
587.69	2114.04
588.04	2108.79
588.39	2103.29
588.74	2096.80
589.09	2090.72
589.44	2084.07
589.79	2078.00
590.14	2072.56
590.49	2065.80
590.84	2059.33
591.19	2053.34
591.54	2046.91
591.89	2039.52
592.25	2032.76
592.60	2025.67
592.95	2018.13
593.30	2010.84
593.65	2003.35
594.00	1996.38
594.35	1988.99
594.70	1980.95
595.05	1973.72
595.40	1966.57
595.75	1958.98
596.10	1952.85
596.45	1946.05
596.80	1939.83
597.15	1933.32
597.50	1926.23
597.85	1919.84
598.19	1913.20
598.54	1906.01
598.89	1899.47
599.24	1893.54
599.59	1886.88
599.94	1880.65
600.29	1874.36
600.64	1867.86
600.99	1860.43
601.34	1853.63
601.69	1846.64
602.04	1839.76
602.39	1832.47
602.74	1825.52
603.08	1818.81
603.43	1812.02
603.78	1804.73
604.13	1797.70
604.48	1790.30
604.83	1783.44
605.18	1776.60
605.53	1768.72
605.87	1760.85
606.22	1753.54
606.57	1745.60
606.92	1738.24
607.27	1731.23
607.62	1724.42
607.96	1717.13
608.31	1710.53
608.66	1702.90
609.01	1695.51
609.36	1688.17
609.70	1680.09
610.05	1672.23
610.40	1664.56
610.75	1656.24
611.10	1648.58
611.44	1639.98
611.79	1631.94
612.14	1623.21
612.49	1613.91
612.83	1605.44
613.18	1597.29
613.53	1589.24
613.88	1580.76
614.22	1572.44
614.57	1563.76
614.92	1555.65
615.27	1548.19
615.61	1539.79
615.96	1531.88
616.31	1524.23
616.65	1516.69
617.00	1509.15
617.35	1501.33
617.70	1493.00
618.04	1484.48
618.39	1476.25
618.74	1468.68
619.08	1460.46
619.43	1452.94
619.78	1446.10
620.12	1438.89
620.47	1431.27
620.82	1423.05
621.16	1415.67
621.51	1408.07
621.85	1400.37
622.20	1391.90
622.55	1383.39
622.89	1375.55
623.24	1367.68
623.59	1360.15
623.93	1352.62
624.28	1345.42
624.62	1337.98
624.97	1330.97
625.32	1324.21
625.66	1317.20
626.01	1310.08
626.35	1302.62
626.70	1294.77
627.04	1287.07
627.39	1279.37
627.73	1272.04
628.08	1265.20
628.43	1257.93
628.77	1250.54
629.12	1243.01
629.46	1235.81
629.81	1228.38
630.15	1221.12
630.50	1213.87
630.84	1205.81
631.19	1197.87
631.53	1190.29
631.88	1182.70
632.22	1174.97
632.57	1167.66
632.91	1159.98
633.26	1152.52
633.60	1145.14
633.95	1138.07
634.29	1131.01
634.64	1124.36
634.98	1117.00
635.32	1109.74
635.67	1103.06
636.01	1096.41
636.36	1089.55
636.70	1083.00
637.05	1076.43
637.39	1070.05
637.73	1063.60
638.08	1057.66
638.42	1051.70
638.77	1045.31
639.11	1038.70
639.45	1032.27
639.80	1025.61
640.14	1019.40
640.49	1012.83
640.83	1006.52
641.17	1000.34
641.52	994.00
641.86	987.49
642.20	981.63
642.55	975.37
642.89	968.88
643.23	962.27
643.58	956.55
643.92	950.50
644.26	944.50
644.61	938.48
644.95	932.45
645.29	925.84
645.64	919.16
645.98	912.77
646.32	906.94
646.66	900.90
647.01	895.17
647.35	889.45
647.69	883.56
648.04	878.05
648.38	872.17
648.72	866.15
649.06	860.10
649.41	854.29
649.75	848.30
650.09	842.39
650.43	836.68
650.78	830.56
651.12	824.45
651.46	818.68
651.80	812.89
652.14	807.46
652.49	802.17
652.83	796.91
653.17	791.27
653.51	785.59
653.85	780.17
654.20	774.50
654.54	768.43
654.88	762.77
655.22	756.90
655.56	751.26
655.90	745.81
656.25	740.55
656.59	735.11
656.93	730.06
657.27	724.92
657.61	719.43
657.95	714.30
658.29	709.27
658.64	703.98
658.98	698.65
659.32	693.20
659.66	688.00
660.00	682.70
660.34	677.72
660.68	672.82
661.02	667.82
661.36	663.09
661.70	658.58
662.05	654.25
662.39	649.90
662.73	645.43
663.07	641.10
663.41	636.73
663.75	632.26
664.09	627.67
664.43	623.25
664.77	619.18
665.11	614.90
665.45	610.75
665.79	606.73
666.13	602.68
666.47	598.57
666.81	594.34
667.15	590.25
667.49	586.36
667.83	582.43
668.17	578.54
668.51	574.53
668.85	570.52
669.19	566.63
669.53	562.79
669.87	558.91
670.21	555.11
670.55	551.41
670.89	548.00
671.23	544.57
671.57	541.07
671.91	537.51
672.25	534.04
672.58	530.56
672.92	527.12
673.26	523.88
673.60	520.68
673.94	517.59
674.28	514.66
674.62	511.71
674.96	508.63
675.30	505.71
675.64	502.74
675.97	499.98
676.31	497.10
676.65	494.13
676.99	491.49
677.33	488.69
677.67	485.85
678.01	482.79
678.34	479.83
678.68	476.95
679.02	474.22
679.36	471.43
679.70	468.68
680.04	465.98
680.37	463.13
680.71	460.37
681.05	457.80
681.39	455.02
681.73	452.36
682.06	449.84
682.40	447.31
682.74	444.78
683.08	442.24
683.42	439.69
683.75	437.20
684.09	434.62
684.43	432.12
684.77	429.70
685.10	427.35
685.44	425.00
685.78	422.74
686.12	420.44
686.45	418.18
686.79	415.90
687.13	413.66
687.46	411.52
687.80	409.39
688.14	407.13
688.48	405.10
688.81	402.88
689.15	400.75
689.49	398.59
689.82	396.49
690.16	394.38
690.50	392.41
690.83	390.45
691.17	388.43
691.51	386.53
691.84	384.63
692.18	382.71
692.52	380.77
692.85	378.80
693.19	376.89
693.52	375.10
693.86	373.24
694.20	371.49
694.53	369.68
694.87	367.80
695.21	366.04
695.54	364.24
695.88	362.49
696.21	360.76
696.55	359.12
696.88	357.44
697.22	355.78
697.56	354.16
697.89	352.52
698.23	350.94
698.56	349.38
698.90	347.84
699.23	346.23
699.57	344.68
699.90	343.18
700.24	341.64
700.58	340.05
700.91	338.61
701.25	337.12
701.58	335.77
701.92	334.39
702.25	332.98
702.59	331.62
702.92	330.31
703.26	329.01
703.59	327.68
703.93	326.50
704.26	325.24
704.60	323.97
704.93	322.75
705.26	321.50
705.60	320.31
705.93	319.12
706.27	318.05
706.60	316.97
706.94	315.88
707.27	314.74
707.61	313.73
707.94	312.65
708.27	311.53
708.61	310.42
708.94	309.44
709.28	308.49
709.61	307.54
709.94	306.58
710.28	305.56
710.61	304.59
710.95	303.52
711.28	302.62
711.61	301.64
711.95	300.68
712.28	299.76
712.61	298.77
712.95	297.84
713.28	296.98
713.61	296.06
713.95	295.15
714.28	294.35
714.61	293.45
714.95	292.59
715.28	291.79
715.61	290.90
715.95	290.03
716.28	289.17
716.61	288.29
716.95	287.50
717.28	286.76
717.61	286.00
717.94	285.26
718.28	284.43
718.61	283.69
718.94	283.03
719.27	282.40
719.61	281.77
719.94	281.14
720.27	280.41
720.60	279.75
720.94	279.15
721.27	278.52
721.60	277.99
721.93	277.41
722.27	276.85
722.60	276.29
722.93	275.74
723.26	275.19
723.59	274.67
723.93	274.12
724.26	273.56
724.59	272.99
724.92	272.48
725.25	272.00
725.59	271.52
725.92	271.01
726.25	270.48
726.58	269.98
726.91	269.46
727.24	269.00
727.57	268.56
727.91	268.04
728.24	267.60
728.57	267.09
728.90	266.66
729.23	266.18
729.56	265.78
729.89	265.32
730.22	264.83
730.55	264.35
730.89	263.88
731.22	263.44
731.55	263.03
731.88	262.59
732.21	262.16
732.54	261.67
732.87	261.23
733.20	260.82
733.53	260.45
733.86	260.06
734.19	259.66
734.52	259.29
734.85	258.97
735.18	258.52
735.51	258.15
735.84	257.73
736.17	257.35
736.50	256.94
736.83	256.70
737.16	256.41
737.49	256.11
737.82	255.78
738.15	255.41
738.48	255.06
738.81	254.74
739.14	254.42
739.47	254.14
739.80	253.81
740.13	253.48
740.46	253.13
740.79	252.78
741.12	252.47
741.45	252.13
741.78	251.78
742.11	251.52
742.44	251.22
742.77	250.95
743.10	250.66
743.43	250.36
743.75	249.96
744.08	249.79
744.41	249.51
744.74	249.22
745.07	248.94
745.40	248.69
745.73	248.45
746.06	248.17
746.39	247.88
746.71	247.63
747.04	247.35
747.37	247.09
747.70	246.86
748.03	246.60
748.36	246.39
748.68	246.14
749.01	245.89
749.34	245.66
749.67	245.44
750.00	245.22
750.33	245.04
750.65	244.83
750.98	244.48
751.31	244.24
751.64	244.04
751.97	243.92
752.29	243.67
752.62	243.43
752.95	243.22
753.28	243.00
753.60	242.79
753.93	242.62
754.26	242.44
754.59	242.19
754.91	242.00
755.24	241.79
755.57	241.61
755.90	241.45
756.22	241.24
756.55	241.02
756.88	240.83
757.20	240.62
757.53	240.41
757.86	240.21
758.19	240.04
758.51	239.84
758.84	239.59
759.17	239.45
759.49	239.33
759.82	239.23
760.15	239.11
760.47	238.96
760.80	238.82
761.13	238.67
761.45	238.56
761.78	238.42
762.11	238.26
762.43	238.13
762.76	237.99
763.08	237.86
763.41	237.78
763.74	237.69
764.06	237.52
764.39	237.44
764.71	237.33
765.04	237.22
765.37	237.15
765.69	237.07
766.02	236.93
766.34	236.79
766.67	236.63
767.00	236.51
767.32	236.48
767.65	236.39
767.97	236.28
768.30	236.19
768.62	236.07
768.95	235.97
769.27	235.88
769.60	235.78
769.92	235.64
770.25	235.51
770.57	235.37
770.90	235.29
771.22	235.16
771.55	235.06
771.87	234.96
772.20	234.83
772.52	234.80
772.85	234.84
773.17	234.74
773.50	234.66
773.82	234.55
774.15	234.38
774.47	234.26
774.80	234.17
775.12	234.08
775.45	234.01
775.77	233.95
776.09	233.84
776.42	233.77
776.74	233.76
777.07	233.66
777.39	233.56
777.72	233.50
778.04	233.44
778.36	233.40
778.69	233.33
779.01	233.26
779.33	233.08
779.66	232.91
779.98	232.82
780.31	232.73
780.63	232.71
780.95	232.65
781.28	232.56
781.60	232.46
781.92	232.37
782.25	232.28
782.57	232.19
782.89	232.12
783.22	232.03
783.54	231.93
783.86	231.89
784.19	231.82
784.51	231.76
784.83	231.69
785.16	231.58
785.48	231.50
785.80	231.45
786.12	231.41
786.45	231.31
786.77	231.26
787.09	231.22
787.42	231.12
787.74	231.07
788.06	231.04
788.38	231.02
788.71	230.98
789.03	230.94
789.35	230.90
789.67	230.82
789.99	230.78
790.32	230.71
790.64	230.70
790.96	230.77
791.28	230.68
791.61	230.65
791.93	230.64
792.25	230.60
792.57	230.62
792.89	230.59
793.21	230.60
793.54	230.54
793.86	230.51
794.18	230.49
794.50	230.47
794.82	230.43
795.14	230.39
795.47	230.36
795.79	230.36
796.11	230.33
796.43	230.29
796.75	230.26
797.07	230.24
797.39	230.18
797.71	230.07
798.04	230.07
798.36	230.04
798.68	230.03
799.00	230.00
799.32	229.93
799.64	229.91
799.96	229.88
800.28	229.89
800.60	229.85
800.92	229.84
801.24	229.77
801.56	229.76
801.89	229.73
802.21	229.68
802.53	229.63
802.85	229.63
803.17	229.69
803.49	229.65
803.81	229.63
804.13	229.61
804.45	229.53
804.77	229.52
805.09	229.49
805.41	229.45
805.73	229.41
806.05	229.34
806.37	229.32
806.69	229.29
807.01	229.27
807.33	229.24
807.65	229.20
807.97	229.22
808.28	229.19
808.60	229.15
808.92	229.16
809.24	229.20
809.56	229.16
809.88	229.09
810.20	229.08
810.52	229.08
810.84	229.04
811.16	229.02
811.48	228.98
811.80	228.98
812.12	228.95
812.43	228.95
812.75	228.98
813.07	228.92
813.39	228.90
813.71	228.85
814.03	228.83
814.35	228.81
814.67	228.76
814.98	228.74
815.30	228.74
815.62	228.71
815.94	228.61
816.26	228.66
816.58	228.64
816.89	228.64
817.21	228.58
817.53	228.56
817.85	228.59
818.17	228.56
818.48	228.50
818.80	228.52
819.12	228.48
819.44	228.42
819.76	228.40
820.07	228.37
820.39	228.35
820.71	228.33
821.03	228.29
821.34	228.27
821.66	228.27
821.98	228.21
822.30	228.16
822.61	228.23
822.93	228.12
823.25	228.09
823.57	228.07
823.88	228.10
824.20	228.06
824.52	228.00
824.83	227.98
825.15	227.96
825.47	227.87
825.79	227.85
826.10	227.82
826.42	227.82
826.74	227.79
827.05	227.77
827.37	227.75
827.69	227.76
828.00	227.75
828.32	227.72
828.64	227.72
828.95	227.77
829.27	227.70
829.58	227.71
829.90	227.71
830.22	227.69
830.53	227.64
830.85	227.65
831.17	227.63
831.48	227.65
831.80	227.65
832.11	227.67
832.43	227.62
832.75	227.63
833.06	227.66
833.38	227.64
833.69	227.68
834.01	227.69
834.32	227.67
834.64	227.66
834.96	227.69
835.27	227.67
835.59	227.62
835.90	227.59
836.22	227.58
836.53	227.53
836.85	227.49
837.16	227.58
837.48	227.60
837.79	227.62
838.11	227.61
838.42	227.62
838.74	227.65
839.05	227.69
839.37	227.71
839.68	227.66
840.00	227.67
840.31	227.65
840.63	227.64
840.94	227.66
841.26	227.63
841.57	227.61
841.88	227.64
842.20	227.63
842.51	227.64
842.83	227.64
843.14	227.75
843.46	227.75
843.77	227.70
844.08	227.64
844.40	227.65
844.71	227.63
845.03	227.60
845.34	227.60
845.65	227.62
845.97	227.58
846.28	227.58
846.60	227.59
846.91	227.54
847.22	227.53
847.54	227.52
847.85	227.54
848.16	227.52
848.48	227.48
848.79	227.55
849.10	227.55
849.42	227.56
849.73	227.45
850.04	227.46
850.36	227.40
850.67	227.44
850.98	227.43
851.30	227.45
851.61	227.45
851.92	227.42
852.23	227.40
852.55	227.43
852.86	227.42
853.17	227.44
853.49	227.49
853.80	227.49
854.11	227.47
854.42	227.44
854.74	227.43
855.05	227.43
855.36	227.36
855.67	227.35
855.99	227.36
856.30	227.45
856.61	227.44
856.92	227.43
857.23	227.41
857.55	227.39
857.86	227.33
858.17	227.35
858.48	227.33
858.79	227.28
859.11	227.30
859.42	227.25
859.73	227.25
860.04	227.20
860.35	227.18
860.66	227.18
860.98	227.17
861.29	227.18
861.60	227.17
861.91	227.17
862.22	227.16
862.53	227.13
862.84	227.04
863.16	227.05
863.47	227.02
863.78	227.03
864.09	227.04
864.40	227.07
864.71	227.07
865.02	227.06
865.33	227.05
865.64	227.03
865.95	227.04
866.27	227.06
866.58	227.02
866.89	227.01
867.20	226.98
867.51	226.96
867.82	226.95
868.13	226.94
868.44	226.92
868.75	226.92
869.06	226.93
869.37	226.91
869.68	226.89
869.99	226.93
870.30	226.93
870.61	226.90
870.92	226.87
871.23	226.85
871.54	226.83
871.85	226.85
872.16	226.83
872.47	226.84
872.78	226.78
873.09	226.80
873.40	226.81
873.71	226.82
874.02	226.84
874.33	226.80
874.64	226.78
874.95	226.82
875.26	226.79
875.56	226.80
875.87	226.79
876.18	226.77
876.49	226.85
876.80	226.86
877.11	226.85
877.42	226.85
877.73	226.85
878.04	226.84
878.35	226.85
878.66	226.84
878.96	226.84
879.27	226.82
879.58	226.84
879.89	226.83
880.20	226.87
880.51	226.89
880.82	226.90
881.12	226.92
881.43	226.89
881.74	226.90
882.05	226.85
882.36	226.88
882.67	226.90
882.97	226.81
883.28	226.80
883.59	226.79
883.90	226.82
884.21	226.83
884.51	226.85
884.82	226.86
885.13	226.87
885.44	226.85
885.74	226.88
886.05	226.84
886.36	226.83
886.67	226.77
886.98	226.80
887.28	226.83
887.59	226.82
887.90	226.82
888.20	226.80
888.51	226.84
888.82	226.82
889.13	226.81
889.43	226.86
889.74	226.86
890.05	226.88
890.35	226.90
890.66	226.89
890.97	226.86
891.28	226.83
891.58	226.84
891.89	226.85
892.20	226.85
892.50	226.87
892.81	226.87
893.12	226.87
893.42	226.84
893.73	226.83
894.04	226.84
894.34	226.84
894.65	226.82
894.95	226.80
895.26	226.78
895.57	226.84
895.87	226.75
896.18	226.75
896.48	226.74
896.79	226.71
897.10	226.74
897.40	226.78
897.71	226.78
898.01	226.76
898.32	226.77
898.63	226.76
898.93	226.77
899.24	226.78
899.54	226.78
899.85	226.78
900.15	226.78
900.46	226.76
900.76	226.78
901.07	226.82
901.38	226.81
901.68	226.84
901.99	226.76
902.29	226.79
902.60	226.78
902.90	226.79
903.21	226.77
903.51	226.70
903.82	226.70
904.12	226.71
904.43	226.72
904.73	226.67
905.03	226.69
905.34	226.76
905.64	226.75
905.95	226.73
906.25	226.74
906.56	226.71
906.86	226.72
907.17	226.68
907.47	226.66
907.77	226.67
908.08	226.63
908.38	226.65
908.69	226.62
908.99	226.63
909.30	226.62
909.60	226.62
909.90	226.66
910.21	226.63
910.51	226.64
910.81	226.63
911.12	226.65
911.42	226.61
911.73	226.50
912.03	226.51
912.33	226.55
912.64	226.49
912.94	226.51
913.24	226.49
913.55	226.53
913.85	226.48
914.15	226.48
914.46	226.51
914.76	226.51
915.06	226.51
915.37	226.51
915.67	226.50
915.97	226.52
916.27	226.50
916.58	226.53
916.88	226.50
917.18	226.51
917.49	226.54
917.79	226.54
918.09	226.57
918.39	226.59
918.70	226.59
919.00	226.60
919.30	226.64
919.60	226.65
919.91	226.63
920.21	226.68
920.51	226.67
920.81	226.69
921.12	226.72
921.42	226.75
921.72	226.74
922.02	226.75
922.32	226.77
922.63	226.76
922.93	226.84
923.23	226.88
923.53	226.88
923.83	226.85
924.13	226.88
924.44	226.86
924.74	226.89
925.04	226.88
925.34	226.91
925.64	226.89
925.94	226.89
926.24	226.94
926.55	226.94
926.85	227.00
927.15	226.99
927.45	226.96
927.75	226.96
928.05	226.99
928.35	226.97
928.65	227.00
928.95	227.00
929.26	226.95
929.56	226.97
929.86	226.94
930.16	226.94
930.46	226.95
930.76	226.98
931.06	226.95
931.36	226.96
931.66	226.98
931.96	226.98
932.26	226.95
932.56	226.93
932.86	226.90
933.16	226.87
933.46	226.87
933.76	226.87
934.06	226.90
934.36	226.91
934.66	226.95
934.96	226.92
935.26	226.93
935.56	226.94
935.86	226.89
936.16	226.93
936.46	226.96
936.76	226.93
937.06	226.90
937.36	226.88
937.66	226.87
937.96	226.85
938.26	226.85
938.56	226.86
938.86	226.85
939.16	226.90
939.46	226.90
939.76	226.92
940.06	226.91
940.35	226.88
940.65	226.82
940.95	226.78
941.25	226.75
941.55	226.73
941.85	226.74
942.15	226.74
942.45	226.75
942.75	226.70
943.04	226.71
943.34	226.73
943.64	226.73
943.94	226.71
944.24	226.69
944.54	226.67
944.84	226.68
945.13	226.66
945.43	226.64
945.73	226.62
946.03	226.58
946.33	226.58
946.62	226.56
946.92	226.57
947.22	226.59
947.52	226.61
947.82	226.60
948.11	226.55
948.41	226.54
948.71	226.48
949.01	226.50
949.31	226.48
949.60	226.48
949.90	226.48
950.20	226.48
950.50	226.51
950.79	226.52
951.09	226.51
951.39	226.50
951.69	226.48
951.98	226.52
952.28	226.52
952.58	226.49
952.87	226.50
953.17	226.49
953.47	226.46
953.76	226.46
954.06	226.48
954.36	226.43
954.66	226.43
954.95	226.47
955.25	226.51
955.55	226.53
955.84	226.53
956.14	226.54
956.44	226.53
956.73	226.47
957.03	226.45
957.32	226.46
957.62	226.46
957.92	226.48
958.21	226.47
958.51	226.57
958.81	226.61
959.10	226.63
959.40	226.67
959.69	226.70
959.99	226.69
960.29	226.66
960.58	226.70
960.88	226.77
961.17	226.76
961.47	226.76
961.76	226.75
962.06	226.74
962.36	226.73
962.65	226.76
962.95	226.78
963.24	226.79
963.54	226.80
963.83	226.82
964.13	226.84
964.42	226.78
964.72	226.72
965.01	226.70
965.31	226.66
965.60	226.63
965.90	226.68
966.19	226.67
966.49	226.72
966.78	226.69
967.08	226.67
967.37	226.66
967.67	226.62
967.96	226.64
968.26	226.63
968.55	226.64
968.85	226.65
969.14	226.64
969.43	226.61
969.73	226.60
970.02	226.60
970.32	226.58
970.61	226.61
970.91	226.60
971.20	226.56
971.49	226.58
971.79	226.59
972.08	226.51
972.38	226.51
972.67	226.48
972.96	226.50
973.26	226.47
973.55	226.51
973.85	226.53
974.14	226.49
974.43	226.48
974.73	226.47
975.02	226.42
975.31	226.43
975.61	226.44
975.90	226.42
976.19	226.39
976.49	226.41
976.78	226.39
977.07	226.33
977.37	226.32
977.66	226.31
977.95	226.28
978.24	226.29
978.54	226.27
978.83	226.29
979.12	226.27
979.42	226.25
979.71	226.21
980.00	226.19
980.29	226.21
980.59	226.21
980.88	226.22
981.17	226.26
981.46	226.27
981.76	226.26
982.05	226.28
982.34	226.29
982.63	226.27
982.93	226.27
983.22	226.32
983.51	226.36
983.80	226.36
984.09	226.39
984.39	226.38
984.68	226.38
984.97	226.38
985.26	226.39
985.55	226.41
985.85	226.41
986.14	226.41
986.43	226.42
986.72	226.43
987.01	226.42
987.30	226.41
987.59	226.40
987.89	226.45
988.18	226.45
988.47	226.46
988.76	226.46
989.05	226.47
989.34	226.48
989.63	226.50
989.92	226.51
990.22	226.51
990.51	226.53
990.80	226.53
991.09	226.52
991.38	226.49
991.67	226.49
991.96	226.50
992.25	226.52
992.54	226.54
992.83	226.55
993.12	226.51
993.41	226.54
993.70	226.53
993.99	226.55
994.28	226.55
994.58	226.57
994.87	226.54
995.16	226.56
995.45	226.54
995.74	226.49
996.03	226.52
996.32	226.52
996.61	226.54
996.90	226.55
997.19	226.55
997.48	226.61
997.77	226.62
998.06	226.61
998.34	226.58
998.63	226.57
998.92	226.55
999.21	226.54
999.50	226.55
999.79	226.57
1000.08	226.52
1000.37	226.52
1000.66	226.51
1000.95	226.55
1001.24	226.53
1001.53	226.52
1001.82	226.54
1002.11	226.51
1002.40	226.53
1002.68	226.55
1002.97	226.62
1003.26	226.62
1003.55	226.57
1003.84	226.56
1004.13	226.58
1004.42	226.57
1004.71	226.57
1004.99	226.56
1005.28	226.60
1005.57	226.57
1005.86	226.56
1006.15	226.57
1006.44	226.57
1006.72	226.57
1007.01	226.55
1007.30	226.53
1007.59	226.55
1007.88	226.55
1008.17	226.52
1008.45	226.48
1008.74	226.44
1009.03	226.37
1009.32	226.38
1009.60	226.39
1009.89	226.38
1010.18	226.37
1010.47	226.34
1010.76	226.33
1011.04	226.31
1011.33	226.32
1011.62	226.34
1011.91	226.32
1012.19	226.31
1012.48	226.27
1012.77	226.27
1013.05	226.33
1013.34	226.33
1013.63	226.31
1013.92	226.30
1014.20	226.29
1014.49	226.31
1014.78	226.30
1015.06	226.28
1015.35	226.26
1015.64	226.27
1015.92	226.24
1016.21	226.24
1016.50	226.25
1016.78	226.26
1017.07	226.28
1017.36	226.26
1017.64	226.23
1017.93	226.19
1018.22	226.20
1018.50	226.20
1018.79	226.18
1019.08	226.13
1019.36	226.15
1019.65	226.15
1019.93	226.21
1020.22	226.23
1020.51	226.24
1020.79	226.22
1021.08	226.42
1021.36	225.91
1021.65	226.01
1021.94	226.49
1022.22	226.49
1022.51	226.33
1022.79	227.34
1023.08	226.16
1023.36	226.70
1023.65	225.75
>>>>>End Processed Spectral Data<<<<<
