SpectraSuite Data File
++++++++++++++++++++++++++++++++++++
Date: Fri Feb 01 16:07:47 EST 2013
User: group
Dark Spectrum Present: No
Reference Spectrum Present: No
Number of Sampled Component Spectra: 1
Spectrometers: USB2E7196
Integration Time (usec): 35000 (USB2E7196)
Spectra Averaged: 100 (USB2E7196)
Boxcar Smoothing: 10 (USB2E7196)
Correct for Electrical Dark: No (USB2E7196)
Strobe/Lamp Enabled: No (USB2E7196)
Correct for Detector Non-linearity: No (USB2E7196)
Correct for Stray Light: No (USB2E7196)
Number of Pixels in Processed Spectrum: 2048
>>>>>Begin Processed Spectral Data<<<<<
339.09	0.00
339.48	214.92
339.86	215.96
340.24	218.04
340.63	219.10
341.01	222.40
341.39	221.75
341.78	222.76
342.16	224.36
342.54	225.22
342.93	213.11
343.31	223.88
343.69	224.41
344.07	224.89
344.46	225.29
344.84	225.66
345.22	225.86
345.60	226.14
345.99	226.35
346.37	226.47
346.75	226.55
347.13	226.64
347.52	226.66
347.90	226.74
348.28	226.74
348.66	226.83
349.05	226.83
349.43	226.89
349.81	226.95
350.19	226.99
350.57	227.05
350.96	227.13
351.34	227.22
351.72	227.29
352.10	227.40
352.48	227.49
352.87	227.55
353.25	227.60
353.63	227.64
354.01	227.69
354.39	227.76
354.77	227.84
355.15	227.93
355.54	228.01
355.92	228.04
356.30	228.11
356.68	228.23
357.06	228.28
357.44	228.35
357.82	228.39
358.20	228.45
358.58	228.50
358.97	228.55
359.35	228.60
359.73	228.70
360.11	228.74
360.49	228.75
360.87	228.80
361.25	228.86
361.63	228.95
362.01	228.99
362.39	229.00
362.77	229.03
363.15	228.99
363.53	229.01
363.91	229.05
364.29	229.05
364.67	228.99
365.05	229.00
365.43	228.97
365.81	229.00
366.19	229.05
366.57	229.10
366.95	229.10
367.33	229.05
367.71	229.00
368.09	229.01
368.47	229.01
368.85	228.98
369.23	228.97
369.61	228.88
369.99	228.89
370.37	228.87
370.75	228.87
371.13	228.84
371.51	228.77
371.89	228.71
372.27	228.70
372.65	228.61
373.03	228.57
373.41	228.54
373.78	228.45
374.16	228.32
374.54	228.21
374.92	228.13
375.30	228.08
375.68	228.00
376.06	227.94
376.44	227.86
376.82	227.80
377.19	227.69
377.57	227.62
377.95	227.53
378.33	227.42
378.71	227.29
379.09	227.24
379.47	227.18
379.84	227.12
380.22	227.03
380.60	226.95
380.98	226.89
381.36	226.82
381.73	226.76
382.11	226.74
382.49	226.68
382.87	226.63
383.25	226.59
383.62	226.67
384.00	226.57
384.38	226.53
384.76	226.49
385.13	226.49
385.51	226.43
385.89	226.37
386.27	226.38
386.64	226.36
387.02	226.30
387.40	226.24
387.78	226.22
388.15	226.20
388.53	226.19
388.91	226.14
389.29	226.12
389.66	226.09
390.04	226.04
390.42	226.05
390.79	226.06
391.17	226.02
391.55	225.89
391.92	225.88
392.30	225.88
392.68	225.85
393.05	225.89
393.43	225.92
393.81	225.91
394.18	225.88
394.56	225.87
394.94	225.91
395.31	225.97
395.69	226.02
396.06	226.08
396.44	226.12
396.82	226.17
397.19	226.24
397.57	226.29
397.95	226.39
398.32	226.38
398.70	226.42
399.07	226.55
399.45	226.60
399.82	226.66
400.20	226.70
400.58	226.81
400.95	226.84
401.33	226.94
401.70	227.11
402.08	227.21
402.45	227.35
402.83	227.47
403.20	227.61
403.58	227.72
403.95	227.85
404.33	227.98
404.71	228.11
405.08	228.27
405.46	228.43
405.83	228.59
406.21	228.77
406.58	228.93
406.96	229.08
407.33	229.28
407.70	229.54
408.08	229.80
408.45	230.00
408.83	230.26
409.20	230.50
409.58	230.68
409.95	230.96
410.33	231.19
410.70	231.45
411.08	231.71
411.45	232.02
411.82	232.34
412.20	232.69
412.57	233.09
412.95	233.37
413.32	233.77
413.69	234.16
414.07	234.60
414.44	235.07
414.82	235.55
415.19	236.08
415.56	236.59
415.94	237.12
416.31	237.75
416.68	238.34
417.06	239.05
417.43	239.74
417.81	240.49
418.18	241.29
418.55	242.10
418.93	243.00
419.30	243.87
419.67	244.77
420.04	245.74
420.42	246.77
420.79	247.96
421.16	249.12
421.54	250.31
421.91	251.53
422.28	252.76
422.66	254.04
423.03	255.34
423.40	256.67
423.77	258.10
424.15	259.52
424.52	261.02
424.89	262.64
425.26	264.17
425.64	265.59
426.01	267.17
426.38	268.83
426.75	270.46
427.13	272.17
427.50	273.92
427.87	275.77
428.24	277.57
428.61	279.32
428.99	281.18
429.36	283.23
429.73	285.26
430.10	287.28
430.47	289.36
430.85	291.46
431.22	293.68
431.59	296.08
431.96	298.34
432.33	300.84
432.70	303.16
433.08	305.99
433.45	308.64
433.82	311.25
434.19	314.14
434.56	316.94
434.93	319.57
435.30	322.26
435.68	325.13
436.05	327.97
436.42	330.76
436.79	333.33
437.16	336.03
437.53	338.88
437.90	341.70
438.27	344.44
438.64	347.27
439.01	349.85
439.38	352.04
439.75	354.21
440.13	356.68
440.50	358.98
440.87	360.77
441.24	362.67
441.61	364.84
441.98	366.30
442.35	368.10
442.72	370.00
443.09	371.77
443.46	372.77
443.83	373.38
444.20	373.91
444.57	374.73
444.94	375.04
445.31	375.35
445.68	375.71
446.05	375.78
446.42	375.39
446.79	374.96
447.16	374.52
447.53	374.17
447.90	372.99
448.27	371.83
448.64	370.34
449.01	369.25
449.37	367.28
449.74	365.39
450.11	363.16
450.48	360.66
450.85	358.13
451.22	356.02
451.59	353.98
451.96	352.03
452.33	349.45
452.70	347.10
453.07	344.29
453.43	341.36
453.80	338.60
454.17	335.95
454.54	333.43
454.91	330.71
455.28	328.07
455.65	325.65
456.02	323.24
456.38	321.04
456.75	318.39
457.12	316.16
457.49	313.98
457.86	311.82
458.23	309.99
458.59	307.95
458.96	305.84
459.33	303.99
459.70	302.14
460.07	300.64
460.43	298.93
460.80	297.36
461.17	295.95
461.54	294.50
461.91	293.06
462.27	291.64
462.64	290.43
463.01	289.09
463.38	287.78
463.74	286.41
464.11	285.26
464.48	284.24
464.85	283.11
465.21	282.21
465.58	281.28
465.95	280.20
466.32	279.31
466.68	278.42
467.05	277.54
467.42	276.61
467.78	275.67
468.15	274.80
468.52	274.15
468.88	273.29
469.25	272.47
469.62	271.86
469.98	271.17
470.35	270.54
470.72	269.90
471.08	269.24
471.45	268.71
471.82	268.17
472.18	267.58
472.55	267.16
472.92	266.66
473.28	266.19
473.65	265.77
474.02	265.33
474.38	264.98
474.75	264.64
475.11	264.33
475.48	264.07
475.85	263.84
476.21	263.61
476.58	263.43
476.94	263.32
477.31	263.17
477.67	263.03
478.04	262.91
478.41	262.87
478.77	262.93
479.14	262.87
479.50	262.89
479.87	262.95
480.23	263.04
480.60	263.12
480.96	263.24
481.33	263.45
481.69	263.67
482.06	263.87
482.42	264.06
482.79	264.29
483.15	264.61
483.52	264.97
483.88	265.27
484.25	265.68
484.61	266.11
484.98	266.57
485.34	267.17
485.71	267.76
486.07	268.40
486.44	268.95
486.80	269.67
487.17	270.39
487.53	271.23
487.90	272.08
488.26	273.02
488.62	273.98
488.99	274.93
489.35	275.96
489.72	277.07
490.08	278.30
490.44	279.61
490.81	280.94
491.17	282.30
491.54	283.84
491.90	285.39
492.26	287.03
492.63	288.71
492.99	290.46
493.36	292.36
493.72	294.42
494.08	296.53
494.45	298.77
494.81	301.12
495.17	303.50
495.54	306.04
495.90	308.73
496.26	311.55
496.63	314.50
496.99	317.64
497.35	320.89
497.72	324.30
498.08	327.78
498.44	331.49
498.80	335.45
499.17	339.49
499.53	343.66
499.89	348.07
500.26	352.58
500.62	357.24
500.98	362.21
501.34	367.32
501.71	372.66
502.07	378.12
502.43	383.70
502.79	389.57
503.16	395.69
503.52	401.96
503.88	408.41
504.24	415.08
504.60	421.97
504.97	429.14
505.33	436.45
505.69	444.12
506.05	451.85
506.41	459.75
506.78	467.97
507.14	476.43
507.50	485.11
507.86	494.17
508.22	503.45
508.59	512.66
508.95	522.18
509.31	532.03
509.67	542.10
510.03	552.41
510.39	563.00
510.75	573.73
511.12	584.69
511.48	595.95
511.84	607.39
512.20	618.92
512.56	630.86
512.92	643.04
513.28	655.42
513.64	667.89
514.00	680.50
514.37	693.38
514.73	706.40
515.09	719.44
515.45	732.73
515.81	746.26
516.17	760.27
516.53	774.38
516.89	788.52
517.25	802.64
517.61	817.06
517.97	831.40
518.33	845.82
518.69	860.56
519.05	875.50
519.41	890.64
519.77	906.13
520.13	921.57
520.49	936.92
520.85	952.27
521.21	967.92
521.57	984.11
521.93	999.81
522.29	1016.16
522.65	1032.35
523.01	1048.49
523.37	1064.39
523.73	1080.43
524.09	1096.46
524.45	1112.68
524.81	1129.37
525.17	1146.08
525.53	1162.91
525.89	1179.69
526.25	1196.41
526.61	1212.82
526.97	1229.49
527.33	1245.96
527.68	1262.43
528.04	1278.86
528.40	1295.32
528.76	1312.47
529.12	1329.07
529.48	1345.95
529.84	1361.88
530.20	1378.50
530.56	1395.39
530.91	1412.85
531.27	1429.61
531.63	1445.95
531.99	1462.46
532.35	1478.37
532.71	1494.29
533.07	1510.49
533.42	1526.49
533.78	1542.54
534.14	1558.74
534.50	1574.02
534.86	1589.76
535.21	1604.86
535.57	1620.74
535.93	1636.25
536.29	1650.90
536.65	1665.89
537.00	1680.57
537.36	1695.97
537.72	1710.43
538.08	1724.92
538.44	1738.62
538.79	1752.35
539.15	1765.92
539.51	1779.59
539.87	1793.90
540.22	1807.49
540.58	1821.24
540.94	1834.24
541.29	1846.99
541.65	1859.60
542.01	1872.74
542.37	1884.98
542.72	1897.51
543.08	1909.25
543.44	1921.50
543.79	1932.67
544.15	1943.57
544.51	1955.07
544.87	1965.80
545.22	1976.54
545.58	1986.58
545.94	1996.20
546.29	2006.03
546.65	2016.03
547.01	2025.25
547.36	2033.78
547.72	2042.26
548.07	2050.09
548.43	2058.29
548.79	2066.31
549.14	2073.83
549.50	2081.02
549.86	2088.73
550.21	2095.83
550.57	2103.04
550.92	2109.67
551.28	2116.70
551.64	2123.78
551.99	2130.34
552.35	2136.54
552.70	2142.74
553.06	2148.82
553.41	2155.24
553.77	2161.34
554.13	2167.31
554.48	2173.40
554.84	2179.00
555.19	2184.21
555.55	2189.36
555.90	2193.92
556.26	2198.82
556.61	2203.45
556.97	2208.09
557.32	2212.07
557.68	2216.25
558.03	2220.55
558.39	2224.20
558.74	2228.96
559.10	2232.76
559.45	2236.41
559.81	2240.71
560.16	2244.46
560.52	2247.61
560.87	2251.00
561.23	2253.67
561.58	2256.59
561.94	2259.20
562.29	2261.36
562.64	2264.14
563.00	2266.72
563.35	2270.28
563.71	2273.33
564.06	2276.54
564.42	2279.24
564.77	2282.00
565.12	2284.43
565.48	2286.24
565.83	2288.20
566.19	2289.46
566.54	2290.46
566.89	2291.57
567.25	2292.08
567.60	2293.34
567.96	2295.11
568.31	2295.95
568.66	2297.00
569.02	2297.72
569.37	2297.99
569.72	2299.00
570.08	2299.17
570.43	2299.27
570.78	2298.63
571.14	2297.16
571.49	2295.77
571.84	2295.32
572.20	2294.16
572.55	2292.91
572.90	2291.27
573.26	2289.88
573.61	2288.11
573.96	2286.47
574.31	2283.45
574.67	2280.63
575.02	2277.14
575.37	2273.78
575.72	2270.06
576.08	2266.70
576.43	2263.31
576.78	2259.64
577.13	2256.30
577.49	2253.03
577.84	2249.54
578.19	2245.96
578.54	2242.40
578.90	2238.36
579.25	2232.98
579.60	2228.14
579.95	2223.33
580.30	2218.40
580.66	2213.20
581.01	2208.21
581.36	2203.17
581.71	2199.11
582.06	2194.66
582.42	2190.19
582.77	2184.98
583.12	2180.53
583.47	2175.99
583.82	2171.05
584.17	2166.02
584.53	2160.78
584.88	2155.25
585.23	2149.45
585.58	2144.03
585.93	2138.48
586.28	2133.71
586.63	2128.72
586.98	2123.46
587.34	2118.76
587.69	2113.77
588.04	2108.59
588.39	2103.07
588.74	2096.48
589.09	2090.35
589.44	2083.60
589.79	2077.47
590.14	2071.78
590.49	2065.16
590.84	2058.67
591.19	2052.73
591.54	2046.27
591.89	2038.98
592.25	2032.30
592.60	2025.24
592.95	2017.65
593.30	2010.57
593.65	2002.90
594.00	1995.69
594.35	1988.49
594.70	1980.34
595.05	1973.46
595.40	1966.24
595.75	1958.66
596.10	1952.64
596.45	1945.96
596.80	1939.80
597.15	1933.38
597.50	1926.58
597.85	1920.03
598.19	1913.46
598.54	1906.38
598.89	1899.72
599.24	1893.71
599.59	1887.14
599.94	1880.89
600.29	1874.54
600.64	1867.73
600.99	1860.43
601.34	1853.66
601.69	1846.68
602.04	1839.94
602.39	1832.48
602.74	1825.67
603.08	1819.06
603.43	1812.47
603.78	1805.13
604.13	1797.87
604.48	1790.55
604.83	1783.47
605.18	1776.68
605.53	1768.67
605.87	1760.56
606.22	1753.29
606.57	1745.32
606.92	1737.95
607.27	1730.82
607.62	1723.91
607.96	1716.68
608.31	1710.05
608.66	1702.50
609.01	1695.02
609.36	1687.51
609.70	1679.46
610.05	1671.32
610.40	1663.64
610.75	1655.14
611.10	1647.42
611.44	1639.07
611.79	1631.11
612.14	1622.44
612.49	1613.24
612.83	1604.92
613.18	1596.78
613.53	1588.69
613.88	1580.15
614.22	1571.78
614.57	1563.08
614.92	1555.11
615.27	1547.63
615.61	1539.34
615.96	1531.33
616.31	1523.67
616.65	1516.23
617.00	1508.70
617.35	1501.09
617.70	1492.76
618.04	1484.30
618.39	1476.15
618.74	1468.52
619.08	1460.14
619.43	1452.57
619.78	1445.73
620.12	1438.57
620.47	1431.06
620.82	1422.97
621.16	1415.61
621.51	1408.03
621.85	1400.41
622.20	1391.93
622.55	1383.47
622.89	1375.57
623.24	1367.83
623.59	1360.44
623.93	1352.90
624.28	1345.73
624.62	1338.30
624.97	1331.20
625.32	1324.44
625.66	1317.43
626.01	1310.21
626.35	1302.83
626.70	1295.03
627.04	1287.29
627.39	1279.40
627.73	1271.97
628.08	1265.04
628.43	1257.84
628.77	1250.55
629.12	1243.08
629.46	1235.84
629.81	1228.36
630.15	1221.21
630.50	1214.02
630.84	1205.85
631.19	1197.97
631.53	1190.37
631.88	1182.74
632.22	1175.11
632.57	1167.81
632.91	1160.30
633.26	1153.03
633.60	1145.56
633.95	1138.47
634.29	1131.29
634.64	1124.63
634.98	1117.39
635.32	1110.19
635.67	1103.51
636.01	1096.79
636.36	1089.96
636.70	1083.42
637.05	1077.04
637.39	1070.55
637.73	1063.95
638.08	1058.11
638.42	1052.05
638.77	1045.67
639.11	1039.15
639.45	1032.66
639.80	1026.01
640.14	1019.49
640.49	1012.94
640.83	1006.74
641.17	1000.62
641.52	994.39
641.86	987.95
642.20	981.99
642.55	975.59
642.89	969.11
643.23	962.51
643.58	956.74
643.92	950.52
644.26	944.43
644.61	938.32
644.95	932.33
645.29	925.70
645.64	918.93
645.98	912.61
646.32	906.73
646.66	900.74
647.01	894.92
647.35	889.24
647.69	883.35
648.04	877.77
648.38	871.94
648.72	865.86
649.06	859.93
649.41	854.05
649.75	848.17
650.09	842.27
650.43	836.51
650.78	830.40
651.12	824.45
651.46	818.63
651.80	812.96
652.14	807.57
652.49	802.31
652.83	797.17
653.17	791.51
653.51	785.78
653.85	780.33
654.20	774.68
654.54	768.65
654.88	762.89
655.22	757.05
655.56	751.32
655.90	745.93
656.25	740.60
656.59	735.27
656.93	730.12
657.27	724.94
657.61	719.44
657.95	714.29
658.29	709.20
658.64	703.94
658.98	698.52
659.32	693.02
659.66	687.64
660.00	682.30
660.34	677.35
660.68	672.42
661.02	667.41
661.36	662.69
661.70	658.25
662.05	653.94
662.39	649.59
662.73	645.12
663.07	640.69
663.41	636.25
663.75	631.79
664.09	627.27
664.43	622.92
664.77	618.89
665.11	614.70
665.45	610.51
665.79	606.50
666.13	602.47
666.47	598.34
666.81	594.30
667.15	590.20
667.49	586.23
667.83	582.37
668.17	578.49
668.51	574.49
668.85	570.49
669.19	566.60
669.53	562.77
669.87	558.89
670.21	555.24
670.55	551.58
670.89	548.09
671.23	544.71
671.57	541.11
671.91	537.60
672.25	534.04
672.58	530.64
672.92	527.19
673.26	524.02
673.60	520.88
673.94	517.74
674.28	514.80
674.62	511.89
674.96	508.85
675.30	505.96
675.64	503.01
675.97	500.20
676.31	497.33
676.65	494.37
676.99	491.68
677.33	488.78
677.67	485.98
678.01	482.93
678.34	479.97
678.68	477.15
679.02	474.33
679.36	471.59
679.70	468.77
680.04	466.07
680.37	463.23
680.71	460.43
681.05	457.82
681.39	455.17
681.73	452.48
682.06	449.87
682.40	447.28
682.74	444.73
683.08	442.16
683.42	439.55
683.75	437.07
684.09	434.49
684.43	432.00
684.77	429.54
685.10	427.21
685.44	424.88
685.78	422.61
686.12	420.31
686.45	418.02
686.79	415.75
687.13	413.51
687.46	411.32
687.80	409.20
688.14	406.97
688.48	404.94
688.81	402.76
689.15	400.65
689.49	398.48
689.82	396.42
690.16	394.38
690.50	392.48
690.83	390.54
691.17	388.58
691.51	386.71
691.84	384.86
692.18	382.99
692.52	381.02
692.85	379.07
693.19	377.17
693.52	375.38
693.86	373.52
694.20	371.79
694.53	370.00
694.87	368.12
695.21	366.32
695.54	364.42
695.88	362.67
696.21	360.99
696.55	359.34
696.88	357.61
697.22	355.97
697.56	354.24
697.89	352.59
698.23	351.04
698.56	349.39
698.90	347.82
699.23	346.19
699.57	344.61
699.90	343.02
700.24	341.51
700.58	339.95
700.91	338.51
701.25	337.06
701.58	335.62
701.92	334.27
702.25	332.92
702.59	331.60
702.92	330.24
703.26	328.86
703.59	327.55
703.93	326.34
704.26	325.04
704.60	323.78
704.93	322.49
705.26	321.21
705.60	320.04
705.93	318.87
706.27	317.77
706.60	316.69
706.94	315.67
707.27	314.52
707.61	313.45
707.94	312.40
708.27	311.30
708.61	310.24
708.94	309.22
709.28	308.20
709.61	307.22
709.94	306.29
710.28	305.36
710.61	304.40
710.95	303.34
711.28	302.43
711.61	301.51
711.95	300.63
712.28	299.65
712.61	298.67
712.95	297.73
713.28	296.84
713.61	295.98
713.95	295.08
714.28	294.26
714.61	293.43
714.95	292.60
715.28	291.72
715.61	290.84
715.95	289.99
716.28	289.13
716.61	288.26
716.95	287.43
717.28	286.61
717.61	285.86
717.94	285.15
718.28	284.36
718.61	283.61
718.94	282.86
719.27	282.24
719.61	281.61
719.94	280.98
720.27	280.26
720.60	279.60
720.94	278.96
721.27	278.34
721.60	277.73
721.93	277.14
722.27	276.60
722.60	276.05
722.93	275.50
723.26	275.02
723.59	274.46
723.93	273.93
724.26	273.42
724.59	272.82
724.92	272.27
725.25	271.79
725.59	271.27
725.92	270.82
726.25	270.30
726.58	269.80
726.91	269.27
727.24	268.83
727.57	268.35
727.91	267.83
728.24	267.40
728.57	266.94
728.90	266.48
729.23	266.01
729.56	265.58
729.89	265.11
730.22	264.60
730.55	264.13
730.89	263.66
731.22	263.21
731.55	262.77
731.88	262.38
732.21	261.96
732.54	261.54
732.87	261.11
733.20	260.70
733.53	260.32
733.86	259.98
734.19	259.59
734.52	259.19
734.85	258.90
735.18	258.47
735.51	258.09
735.84	257.69
736.17	257.33
736.50	256.94
736.83	256.71
737.16	256.40
737.49	256.10
737.82	255.73
738.15	255.40
738.48	255.10
738.81	254.73
739.14	254.36
739.47	254.06
739.80	253.72
740.13	253.43
740.46	253.07
740.79	252.73
741.12	252.43
741.45	252.14
741.78	251.80
742.11	251.53
742.44	251.20
742.77	250.94
743.10	250.62
743.43	250.36
743.75	249.95
744.08	249.80
744.41	249.54
744.74	249.31
745.07	249.04
745.40	248.80
745.73	248.58
746.06	248.34
746.39	248.07
746.71	247.79
747.04	247.52
747.37	247.30
747.70	247.07
748.03	246.78
748.36	246.56
748.68	246.33
749.01	246.09
749.34	245.92
749.67	245.70
750.00	245.46
750.33	245.26
750.65	245.10
750.98	244.74
751.31	244.51
751.64	244.28
751.97	244.05
752.29	243.80
752.62	243.55
752.95	243.33
753.28	243.13
753.60	242.95
753.93	242.79
754.26	242.61
754.59	242.39
754.91	242.19
755.24	241.96
755.57	241.76
755.90	241.53
756.22	241.31
756.55	241.10
756.88	240.92
757.20	240.67
757.53	240.43
757.86	240.28
758.19	240.11
758.51	239.99
758.84	239.81
759.17	239.63
759.49	239.47
759.82	239.35
760.15	239.18
760.47	239.02
760.80	238.84
761.13	238.68
761.45	238.52
761.78	238.37
762.11	238.23
762.43	238.11
762.76	238.00
763.08	237.84
763.41	237.71
763.74	237.55
764.06	237.45
764.39	237.33
764.71	237.21
765.04	237.06
765.37	236.90
765.69	236.81
766.02	236.71
766.34	236.56
766.67	236.40
767.00	236.29
767.32	236.24
767.65	236.17
767.97	236.05
768.30	235.97
768.62	235.85
768.95	235.74
769.27	235.60
769.60	235.52
769.92	235.41
770.25	235.29
770.57	235.23
770.90	235.10
771.22	235.04
771.55	234.89
771.87	234.80
772.20	234.71
772.52	234.66
772.85	234.69
773.17	234.64
773.50	234.55
773.82	234.47
774.15	234.31
774.47	234.17
774.80	234.08
775.12	233.96
775.45	233.91
775.77	233.83
776.09	233.76
776.42	233.67
776.74	233.59
777.07	233.55
777.39	233.48
777.72	233.40
778.04	233.29
778.36	233.23
778.69	233.15
779.01	233.08
779.33	232.93
779.66	232.75
779.98	232.65
780.31	232.59
780.63	232.56
780.95	232.51
781.28	232.44
781.60	232.36
781.92	232.27
782.25	232.17
782.57	232.08
782.89	232.00
783.22	231.93
783.54	231.87
783.86	231.79
784.19	231.72
784.51	231.66
784.83	231.61
785.16	231.57
785.48	231.53
785.80	231.46
786.12	231.42
786.45	231.40
786.77	231.38
787.09	231.33
787.42	231.22
787.74	231.18
788.06	231.14
788.38	231.09
788.71	231.06
789.03	231.02
789.35	231.01
789.67	230.95
789.99	230.91
790.32	230.84
790.64	230.80
790.96	230.82
791.28	230.77
791.61	230.73
791.93	230.69
792.25	230.64
792.57	230.68
792.89	230.59
793.21	230.52
793.54	230.44
793.86	230.39
794.18	230.36
794.50	230.30
794.82	230.29
795.14	230.26
795.47	230.26
795.79	230.22
796.11	230.20
796.43	230.21
796.75	230.16
797.07	230.16
797.39	230.10
797.71	230.05
798.04	230.02
798.36	230.00
798.68	229.95
799.00	229.94
799.32	229.86
799.64	229.89
799.96	229.85
800.28	229.83
800.60	229.82
800.92	229.79
801.24	229.77
801.56	229.71
801.89	229.67
802.21	229.64
802.53	229.62
802.85	229.62
803.17	229.60
803.49	229.57
803.81	229.57
804.13	229.56
804.45	229.49
804.77	229.48
805.09	229.45
805.41	229.42
805.73	229.38
806.05	229.34
806.37	229.32
806.69	229.29
807.01	229.29
807.33	229.27
807.65	229.24
807.97	229.25
808.28	229.25
808.60	229.22
808.92	229.16
809.24	229.23
809.56	229.17
809.88	229.14
810.20	229.12
810.52	229.04
810.84	229.03
811.16	229.01
811.48	228.98
811.80	228.97
812.12	228.96
812.43	228.95
812.75	228.93
813.07	228.86
813.39	228.83
813.71	228.78
814.03	228.75
814.35	228.71
814.67	228.63
814.98	228.61
815.30	228.58
815.62	228.57
815.94	228.44
816.26	228.47
816.58	228.42
816.89	228.39
817.21	228.38
817.53	228.37
817.85	228.34
818.17	228.31
818.48	228.27
818.80	228.28
819.12	228.21
819.44	228.22
819.76	228.21
820.07	228.22
820.39	228.21
820.71	228.20
821.03	228.19
821.34	228.15
821.66	228.13
821.98	228.11
822.30	228.09
822.61	228.13
822.93	228.05
823.25	228.04
823.57	228.01
823.88	228.01
824.20	227.98
824.52	227.97
824.83	227.97
825.15	227.93
825.47	227.89
825.79	227.90
826.10	227.85
826.42	227.82
826.74	227.83
827.05	227.83
827.37	227.80
827.69	227.81
828.00	227.85
828.32	227.85
828.64	227.83
828.95	227.87
829.27	227.82
829.58	227.82
829.90	227.82
830.22	227.82
830.53	227.81
830.85	227.78
831.17	227.78
831.48	227.76
831.80	227.77
832.11	227.77
832.43	227.79
832.75	227.79
833.06	227.85
833.38	227.82
833.69	227.81
834.01	227.81
834.32	227.78
834.64	227.76
834.96	227.74
835.27	227.71
835.59	227.67
835.90	227.63
836.22	227.62
836.53	227.58
836.85	227.59
837.16	227.67
837.48	227.68
837.79	227.75
838.11	227.72
838.42	227.69
838.74	227.71
839.05	227.68
839.37	227.66
839.68	227.62
840.00	227.62
840.31	227.60
840.63	227.60
840.94	227.60
841.26	227.57
841.57	227.56
841.88	227.62
842.20	227.59
842.51	227.60
842.83	227.60
843.14	227.68
843.46	227.64
843.77	227.58
844.08	227.60
844.40	227.51
844.71	227.50
845.03	227.51
845.34	227.47
845.65	227.46
845.97	227.46
846.28	227.44
846.60	227.39
846.91	227.38
847.22	227.41
847.54	227.39
847.85	227.43
848.16	227.42
848.48	227.36
848.79	227.42
849.10	227.45
849.42	227.48
849.73	227.40
850.04	227.42
850.36	227.41
850.67	227.41
850.98	227.44
851.30	227.47
851.61	227.46
851.92	227.47
852.23	227.50
852.55	227.50
852.86	227.51
853.17	227.53
853.49	227.55
853.80	227.55
854.11	227.58
854.42	227.57
854.74	227.57
855.05	227.59
855.36	227.52
855.67	227.48
855.99	227.44
856.30	227.55
856.61	227.52
856.92	227.49
857.23	227.48
857.55	227.45
857.86	227.42
858.17	227.43
858.48	227.42
858.79	227.35
859.11	227.39
859.42	227.38
859.73	227.38
860.04	227.38
860.35	227.32
860.66	227.27
860.98	227.28
861.29	227.29
861.60	227.28
861.91	227.33
862.22	227.30
862.53	227.31
862.84	227.21
863.16	227.26
863.47	227.27
863.78	227.27
864.09	227.27
864.40	227.26
864.71	227.23
865.02	227.23
865.33	227.23
865.64	227.17
865.95	227.17
866.27	227.24
866.58	227.21
866.89	227.23
867.20	227.22
867.51	227.18
867.82	227.18
868.13	227.20
868.44	227.16
868.75	227.20
869.06	227.18
869.37	227.16
869.68	227.11
869.99	227.09
870.30	227.08
870.61	227.09
870.92	227.08
871.23	227.10
871.54	227.11
871.85	227.12
872.16	227.14
872.47	227.12
872.78	227.03
873.09	227.05
873.40	227.06
873.71	227.08
874.02	227.08
874.33	227.04
874.64	227.02
874.95	226.99
875.26	226.94
875.56	226.95
875.87	226.94
876.18	226.95
876.49	227.04
876.80	227.02
877.11	227.01
877.42	227.02
877.73	227.03
878.04	227.01
878.35	227.01
878.66	227.02
878.96	227.01
879.27	227.00
879.58	226.97
879.89	226.94
880.20	226.92
880.51	226.92
880.82	226.92
881.12	226.94
881.43	226.94
881.74	226.97
882.05	226.95
882.36	226.94
882.67	226.91
882.97	226.82
883.28	226.79
883.59	226.78
883.90	226.77
884.21	226.79
884.51	226.77
884.82	226.75
885.13	226.72
885.44	226.72
885.74	226.73
886.05	226.73
886.36	226.74
886.67	226.73
886.98	226.79
887.28	226.81
887.59	226.77
887.90	226.78
888.20	226.74
888.51	226.76
888.82	226.77
889.13	226.80
889.43	226.84
889.74	226.80
890.05	226.80
890.35	226.81
890.66	226.78
890.97	226.80
891.28	226.79
891.58	226.79
891.89	226.82
892.20	226.85
892.50	226.84
892.81	226.82
893.12	226.84
893.42	226.75
893.73	226.79
894.04	226.81
894.34	226.79
894.65	226.81
894.95	226.80
895.26	226.83
895.57	226.88
895.87	226.85
896.18	226.89
896.48	226.88
896.79	226.86
897.10	226.86
897.40	226.85
897.71	226.88
898.01	226.86
898.32	226.84
898.63	226.83
898.93	226.85
899.24	226.84
899.54	226.83
899.85	226.83
900.15	226.82
900.46	226.85
900.76	226.89
901.07	226.91
901.38	226.91
901.68	226.90
901.99	226.83
902.29	226.83
902.60	226.84
902.90	226.87
903.21	226.88
903.51	226.88
903.82	226.92
904.12	226.93
904.43	226.93
904.73	226.93
905.03	226.94
905.34	227.04
905.64	227.05
905.95	227.05
906.25	227.06
906.56	227.07
906.86	227.05
907.17	227.02
907.47	227.00
907.77	226.97
908.08	226.96
908.38	227.00
908.69	226.99
908.99	227.02
909.30	227.00
909.60	227.00
909.90	227.02
910.21	226.97
910.51	226.94
910.81	226.96
911.12	226.96
911.42	226.95
911.73	226.84
912.03	226.86
912.33	226.83
912.64	226.82
912.94	226.78
913.24	226.77
913.55	226.76
913.85	226.77
914.15	226.80
914.46	226.78
914.76	226.73
915.06	226.73
915.37	226.70
915.67	226.70
915.97	226.73
916.27	226.70
916.58	226.70
916.88	226.67
917.18	226.67
917.49	226.73
917.79	226.69
918.09	226.70
918.39	226.71
918.70	226.73
919.00	226.72
919.30	226.73
919.60	226.70
919.91	226.68
920.21	226.67
920.51	226.62
920.81	226.59
921.12	226.61
921.42	226.59
921.72	226.59
922.02	226.59
922.32	226.57
922.63	226.55
922.93	226.60
923.23	226.63
923.53	226.59
923.83	226.51
924.13	226.53
924.44	226.51
924.74	226.50
925.04	226.51
925.34	226.48
925.64	226.45
925.94	226.47
926.24	226.55
926.55	226.51
926.85	226.52
927.15	226.56
927.45	226.54
927.75	226.54
928.05	226.51
928.35	226.47
928.65	226.49
928.95	226.51
929.26	226.47
929.56	226.46
929.86	226.50
930.16	226.49
930.46	226.47
930.76	226.49
931.06	226.49
931.36	226.48
931.66	226.54
931.96	226.53
932.26	226.52
932.56	226.48
932.86	226.51
933.16	226.51
933.46	226.50
933.76	226.51
934.06	226.55
934.36	226.59
934.66	226.58
934.96	226.58
935.26	226.59
935.56	226.60
935.86	226.57
936.16	226.55
936.46	226.56
936.76	226.60
937.06	226.58
937.36	226.56
937.66	226.58
937.96	226.58
938.26	226.59
938.56	226.61
938.86	226.63
939.16	226.65
939.46	226.66
939.76	226.66
940.06	226.65
940.35	226.60
940.65	226.59
940.95	226.59
941.25	226.56
941.55	226.54
941.85	226.54
942.15	226.59
942.45	226.60
942.75	226.62
943.04	226.62
943.34	226.63
943.64	226.64
943.94	226.60
944.24	226.63
944.54	226.66
944.84	226.64
945.13	226.64
945.43	226.65
945.73	226.70
946.03	226.71
946.33	226.71
946.62	226.73
946.92	226.73
947.22	226.76
947.52	226.77
947.82	226.81
948.11	226.81
948.41	226.77
948.71	226.78
949.01	226.78
949.31	226.73
949.60	226.72
949.90	226.75
950.20	226.77
950.50	226.74
950.79	226.71
951.09	226.72
951.39	226.70
951.69	226.67
951.98	226.66
952.28	226.67
952.58	226.66
952.87	226.65
953.17	226.66
953.47	226.65
953.76	226.67
954.06	226.61
954.36	226.60
954.66	226.60
954.95	226.60
955.25	226.60
955.55	226.62
955.84	226.62
956.14	226.59
956.44	226.56
956.73	226.55
957.03	226.54
957.32	226.54
957.62	226.51
957.92	226.52
958.21	226.50
958.51	226.57
958.81	226.61
959.10	226.61
959.40	226.62
959.69	226.63
959.99	226.62
960.29	226.62
960.58	226.61
960.88	226.67
961.17	226.62
961.47	226.62
961.76	226.62
962.06	226.60
962.36	226.60
962.65	226.61
962.95	226.61
963.24	226.62
963.54	226.63
963.83	226.64
964.13	226.65
964.42	226.64
964.72	226.57
965.01	226.55
965.31	226.56
965.60	226.52
965.90	226.56
966.19	226.55
966.49	226.56
966.78	226.53
967.08	226.52
967.37	226.55
967.67	226.57
967.96	226.58
968.26	226.58
968.55	226.59
968.85	226.58
969.14	226.56
969.43	226.54
969.73	226.52
970.02	226.53
970.32	226.48
970.61	226.47
970.91	226.42
971.20	226.41
971.49	226.38
971.79	226.40
972.08	226.37
972.38	226.38
972.67	226.39
972.96	226.41
973.26	226.38
973.55	226.40
973.85	226.37
974.14	226.34
974.43	226.35
974.73	226.34
975.02	226.34
975.31	226.34
975.61	226.35
975.90	226.34
976.19	226.34
976.49	226.38
976.78	226.37
977.07	226.37
977.37	226.36
977.66	226.35
977.95	226.30
978.24	226.28
978.54	226.26
978.83	226.26
979.12	226.29
979.42	226.29
979.71	226.29
980.00	226.29
980.29	226.31
980.59	226.30
980.88	226.33
981.17	226.33
981.46	226.34
981.76	226.32
982.05	226.37
982.34	226.36
982.63	226.37
982.93	226.37
983.22	226.39
983.51	226.42
983.80	226.47
984.09	226.53
984.39	226.53
984.68	226.54
984.97	226.53
985.26	226.49
985.55	226.52
985.85	226.51
986.14	226.52
986.43	226.54
986.72	226.55
987.01	226.50
987.30	226.53
987.59	226.52
987.89	226.55
988.18	226.52
988.47	226.53
988.76	226.53
989.05	226.53
989.34	226.54
989.63	226.54
989.92	226.53
990.22	226.50
990.51	226.48
990.80	226.48
991.09	226.49
991.38	226.49
991.67	226.45
991.96	226.43
992.25	226.44
992.54	226.41
992.83	226.41
993.12	226.43
993.41	226.41
993.70	226.45
993.99	226.45
994.28	226.44
994.58	226.46
994.87	226.45
995.16	226.43
995.45	226.41
995.74	226.40
996.03	226.41
996.32	226.44
996.61	226.48
996.90	226.47
997.19	226.47
997.48	226.50
997.77	226.48
998.06	226.49
998.34	226.48
998.63	226.48
998.92	226.47
999.21	226.45
999.50	226.46
999.79	226.43
1000.08	226.44
1000.37	226.43
1000.66	226.40
1000.95	226.43
1001.24	226.45
1001.53	226.47
1001.82	226.44
1002.11	226.42
1002.40	226.40
1002.68	226.43
1002.97	226.50
1003.26	226.47
1003.55	226.47
1003.84	226.48
1004.13	226.48
1004.42	226.46
1004.71	226.46
1004.99	226.44
1005.28	226.48
1005.57	226.46
1005.86	226.45
1006.15	226.42
1006.44	226.42
1006.72	226.44
1007.01	226.38
1007.30	226.38
1007.59	226.35
1007.88	226.37
1008.17	226.34
1008.45	226.34
1008.74	226.27
1009.03	226.19
1009.32	226.23
1009.60	226.21
1009.89	226.19
1010.18	226.18
1010.47	226.22
1010.76	226.20
1011.04	226.20
1011.33	226.23
1011.62	226.22
1011.91	226.22
1012.19	226.23
1012.48	226.22
1012.77	226.20
1013.05	226.27
1013.34	226.25
1013.63	226.26
1013.92	226.25
1014.20	226.26
1014.49	226.27
1014.78	226.29
1015.06	226.31
1015.35	226.31
1015.64	226.32
1015.92	226.36
1016.21	226.36
1016.50	226.33
1016.78	226.34
1017.07	226.38
1017.36	226.36
1017.64	226.35
1017.93	226.35
1018.22	226.37
1018.50	226.39
1018.79	226.43
1019.08	226.39
1019.36	226.42
1019.65	226.42
1019.93	226.47
1020.22	226.52
1020.51	226.55
1020.79	226.53
1021.08	226.66
1021.36	226.42
1021.65	226.62
1021.94	226.66
1022.22	226.57
1022.51	226.22
1022.79	227.17
1023.08	227.05
1023.36	227.26
1023.65	226.03
>>>>>End Processed Spectral Data<<<<<
