SpectraSuite Data File
++++++++++++++++++++++++++++++++++++
Date: Fri Feb 01 15:39:27 EST 2013
User: group
Dark Spectrum Present: No
Reference Spectrum Present: No
Number of Sampled Component Spectra: 1
Spectrometers: USB2E7196
Integration Time (usec): 35000 (USB2E7196)
Spectra Averaged: 100 (USB2E7196)
Boxcar Smoothing: 10 (USB2E7196)
Correct for Electrical Dark: No (USB2E7196)
Strobe/Lamp Enabled: No (USB2E7196)
Correct for Detector Non-linearity: No (USB2E7196)
Correct for Stray Light: No (USB2E7196)
Number of Pixels in Processed Spectrum: 2048
>>>>>Begin Processed Spectral Data<<<<<
339.09	0.00
339.48	214.87
339.86	215.96
340.24	217.92
340.63	220.16
341.01	221.71
341.39	222.23
341.78	223.97
342.16	224.99
342.54	224.94
342.93	213.50
343.31	224.31
343.69	224.85
344.07	225.37
344.46	225.81
344.84	226.15
345.22	226.40
345.60	226.64
345.99	226.82
346.37	226.94
346.75	227.03
347.13	227.12
347.52	227.19
347.90	227.25
348.28	227.27
348.66	227.31
349.05	227.30
349.43	227.33
349.81	227.40
350.19	227.45
350.57	227.49
350.96	227.54
351.34	227.61
351.72	227.71
352.10	227.80
352.48	227.85
352.87	227.89
353.25	227.99
353.63	228.06
354.01	228.10
354.39	228.19
354.77	228.24
355.15	228.32
355.54	228.37
355.92	228.41
356.30	228.48
356.68	228.61
357.06	228.69
357.44	228.73
357.82	228.79
358.20	228.87
358.58	228.90
358.97	228.98
359.35	229.02
359.73	229.08
360.11	229.09
360.49	229.15
360.87	229.20
361.25	229.23
361.63	229.28
362.01	229.32
362.39	229.31
362.77	229.40
363.15	229.42
363.53	229.43
363.91	229.44
364.29	229.42
364.67	229.32
365.05	229.33
365.43	229.33
365.81	229.33
366.19	229.32
366.57	229.34
366.95	229.29
367.33	229.26
367.71	229.22
368.09	229.21
368.47	229.18
368.85	229.15
369.23	229.13
369.61	229.05
369.99	229.03
370.37	228.97
370.75	228.92
371.13	228.84
371.51	228.80
371.89	228.74
372.27	228.70
372.65	228.68
373.03	228.61
373.41	228.55
373.78	228.48
374.16	228.38
374.54	228.29
374.92	228.25
375.30	228.16
375.68	228.05
376.06	228.00
376.44	227.93
376.82	227.85
377.19	227.78
377.57	227.74
377.95	227.62
378.33	227.55
378.71	227.42
379.09	227.38
379.47	227.33
379.84	227.28
380.22	227.21
380.60	227.13
380.98	227.06
381.36	226.97
381.73	226.87
382.11	226.85
382.49	226.81
382.87	226.71
383.25	226.66
383.62	226.76
384.00	226.67
384.38	226.63
384.76	226.60
385.13	226.59
385.51	226.52
385.89	226.49
386.27	226.46
386.64	226.46
387.02	226.41
387.40	226.35
387.78	226.34
388.15	226.28
388.53	226.22
388.91	226.20
389.29	226.19
389.66	226.22
390.04	226.14
390.42	226.17
390.79	226.20
391.17	226.19
391.55	226.06
391.92	226.09
392.30	226.11
392.68	226.12
393.05	226.12
393.43	226.14
393.81	226.17
394.18	226.22
394.56	226.23
394.94	226.27
395.31	226.31
395.69	226.35
396.06	226.41
396.44	226.51
396.82	226.54
397.19	226.63
397.57	226.68
397.95	226.78
398.32	226.80
398.70	226.90
399.07	227.02
399.45	227.07
399.82	227.13
400.20	227.18
400.58	227.22
400.95	227.26
401.33	227.37
401.70	227.56
402.08	227.63
402.45	227.74
402.83	227.85
403.20	227.98
403.58	228.08
403.95	228.20
404.33	228.28
404.71	228.40
405.08	228.60
405.46	228.73
405.83	228.87
406.21	229.01
406.58	229.17
406.96	229.34
407.33	229.55
407.70	229.72
408.08	229.97
408.45	230.21
408.83	230.43
409.20	230.62
409.58	230.79
409.95	231.08
410.33	231.36
410.70	231.60
411.08	231.91
411.45	232.24
411.82	232.54
412.20	232.90
412.57	233.35
412.95	233.60
413.32	234.01
413.69	234.45
414.07	234.88
414.44	235.30
414.82	235.77
415.19	236.27
415.56	236.84
415.94	237.39
416.31	238.03
416.68	238.67
417.06	239.38
417.43	240.03
417.81	240.72
418.18	241.49
418.55	242.34
418.93	243.14
419.30	243.99
419.67	244.92
420.04	245.86
420.42	246.85
420.79	248.04
421.16	249.17
421.54	250.35
421.91	251.53
422.28	252.81
422.66	254.13
423.03	255.49
423.40	256.80
423.77	258.21
424.15	259.60
424.52	261.08
424.89	262.69
425.26	264.27
425.64	265.79
426.01	267.38
426.38	269.03
426.75	270.71
427.13	272.48
427.50	274.29
427.87	276.20
428.24	278.06
428.61	279.77
428.99	281.73
429.36	283.79
429.73	285.91
430.10	287.94
430.47	290.02
430.85	292.10
431.22	294.38
431.59	296.80
431.96	299.07
432.33	301.58
432.70	304.00
433.08	306.79
433.45	309.40
433.82	312.01
434.19	314.90
434.56	317.73
434.93	320.38
435.30	322.99
435.68	325.89
436.05	328.70
436.42	331.53
436.79	334.01
437.16	336.72
437.53	339.56
437.90	342.40
438.27	345.15
438.64	348.01
439.01	350.57
439.38	352.78
439.75	354.95
440.13	357.45
440.50	359.79
440.87	361.63
441.24	363.62
441.61	365.79
441.98	367.28
442.35	369.12
442.72	371.00
443.09	372.85
443.46	373.84
443.83	374.44
444.20	374.97
444.57	375.85
444.94	376.18
445.31	376.51
445.68	376.86
446.05	376.93
446.42	376.55
446.79	376.13
447.16	375.71
447.53	375.46
447.90	374.29
448.27	373.08
448.64	371.52
449.01	370.37
449.37	368.34
449.74	366.44
450.11	364.16
450.48	361.67
450.85	359.14
451.22	357.05
451.59	355.05
451.96	353.10
452.33	350.48
452.70	348.11
453.07	345.28
453.43	342.35
453.80	339.57
454.17	336.81
454.54	334.28
454.91	331.53
455.28	328.77
455.65	326.25
456.02	323.81
456.38	321.63
456.75	318.98
457.12	316.72
457.49	314.51
457.86	312.34
458.23	310.47
458.59	308.41
458.96	306.28
459.33	304.38
459.70	302.50
460.07	301.00
460.43	299.25
460.80	297.62
461.17	296.16
461.54	294.69
461.91	293.31
462.27	291.84
462.64	290.54
463.01	289.21
463.38	287.92
463.74	286.49
464.11	285.33
464.48	284.26
464.85	283.19
465.21	282.30
465.58	281.35
465.95	280.22
466.32	279.27
466.68	278.38
467.05	277.51
467.42	276.60
467.78	275.67
468.15	274.80
468.52	274.13
468.88	273.29
469.25	272.51
469.62	271.93
469.98	271.25
470.35	270.63
470.72	270.03
471.08	269.38
471.45	268.87
471.82	268.34
472.18	267.76
472.55	267.31
472.92	266.79
473.28	266.34
473.65	265.95
474.02	265.52
474.38	265.12
474.75	264.82
475.11	264.49
475.48	264.27
475.85	264.05
476.21	263.83
476.58	263.64
476.94	263.45
477.31	263.21
477.67	263.09
478.04	263.01
478.41	262.97
478.77	263.05
479.14	263.01
479.50	263.03
479.87	263.09
480.23	263.22
480.60	263.26
480.96	263.39
481.33	263.55
481.69	263.79
482.06	264.01
482.42	264.19
482.79	264.45
483.15	264.75
483.52	265.13
483.88	265.47
484.25	265.87
484.61	266.32
484.98	266.81
485.34	267.36
485.71	267.95
486.07	268.56
486.44	269.11
486.80	269.82
487.17	270.59
487.53	271.42
487.90	272.27
488.26	273.24
488.62	274.22
488.99	275.19
489.35	276.21
489.72	277.35
490.08	278.56
490.44	279.83
490.81	281.19
491.17	282.54
491.54	284.02
491.90	285.57
492.26	287.18
492.63	288.93
492.99	290.73
493.36	292.64
493.72	294.68
494.08	296.80
494.45	299.06
494.81	301.38
495.17	303.76
495.54	306.32
495.90	309.01
496.26	311.82
496.63	314.77
496.99	317.91
497.35	321.12
497.72	324.51
498.08	328.00
498.44	331.63
498.80	335.55
499.17	339.60
499.53	343.76
499.89	348.21
500.26	352.66
500.62	357.27
500.98	362.22
501.34	367.26
501.71	372.53
502.07	377.94
502.43	383.53
502.79	389.41
503.16	395.47
503.52	401.77
503.88	408.15
504.24	414.79
504.60	421.65
504.97	428.83
505.33	436.13
505.69	443.88
506.05	451.67
506.41	459.56
506.78	467.64
507.14	476.10
507.50	484.76
507.86	493.79
508.22	503.02
508.59	512.17
508.95	521.77
509.31	531.61
509.67	541.75
510.03	552.02
510.39	562.57
510.75	573.37
511.12	584.23
511.48	595.53
511.84	607.01
512.20	618.52
512.56	630.41
512.92	642.65
513.28	654.92
513.64	667.35
514.00	680.00
514.37	692.99
514.73	706.03
515.09	719.02
515.45	732.37
515.81	745.99
516.17	760.02
516.53	774.11
516.89	788.34
517.25	802.55
517.61	817.06
517.97	831.54
518.33	845.97
518.69	860.75
519.05	875.85
519.41	891.01
519.77	906.60
520.13	922.09
520.49	937.42
520.85	952.87
521.21	968.69
521.57	984.98
521.93	1000.74
522.29	1017.24
522.65	1033.60
523.01	1049.79
523.37	1065.81
523.73	1082.03
524.09	1098.22
524.45	1114.52
524.81	1131.08
525.17	1147.89
525.53	1164.85
525.89	1181.75
526.25	1198.70
526.61	1215.07
526.97	1231.86
527.33	1248.29
527.68	1264.89
528.04	1281.42
528.40	1298.01
528.76	1314.94
529.12	1331.54
529.48	1348.38
529.84	1364.48
530.20	1381.08
530.56	1398.20
530.91	1415.72
531.27	1432.55
531.63	1448.96
531.99	1465.68
532.35	1481.64
532.71	1497.49
533.07	1513.66
533.42	1529.51
533.78	1545.52
534.14	1561.70
534.50	1577.11
534.86	1593.04
535.21	1608.31
535.57	1624.31
535.93	1639.85
536.29	1654.89
536.65	1670.01
537.00	1684.95
537.36	1700.17
537.72	1714.69
538.08	1729.15
538.44	1742.82
538.79	1756.68
539.15	1770.42
539.51	1783.99
539.87	1798.51
540.22	1812.28
540.58	1826.07
540.94	1839.59
541.29	1852.55
541.65	1865.24
542.01	1878.48
542.37	1890.77
542.72	1903.10
543.08	1914.89
543.44	1927.32
543.79	1938.47
544.15	1949.42
544.51	1961.01
544.87	1971.93
545.22	1982.71
545.58	1992.85
545.94	2002.61
546.29	2012.46
546.65	2022.38
547.01	2031.64
547.36	2040.33
547.72	2048.71
548.07	2056.46
548.43	2064.56
548.79	2072.52
549.14	2080.13
549.50	2087.45
549.86	2095.28
550.21	2102.63
550.57	2109.78
550.92	2116.33
551.28	2123.44
551.64	2130.59
551.99	2137.12
552.35	2143.29
552.70	2149.57
553.06	2155.54
553.41	2161.85
553.77	2167.98
554.13	2174.05
554.48	2180.31
554.84	2185.61
555.19	2190.93
555.55	2196.14
555.90	2200.63
556.26	2205.51
556.61	2210.31
556.97	2214.57
557.32	2218.56
557.68	2222.71
558.03	2227.00
558.39	2230.80
558.74	2235.26
559.10	2239.03
559.45	2242.69
559.81	2247.07
560.16	2250.88
560.52	2254.11
560.87	2257.55
561.23	2260.14
561.58	2263.07
561.94	2265.50
562.29	2267.93
562.64	2270.67
563.00	2273.24
563.35	2276.59
563.71	2279.72
564.06	2282.84
564.42	2285.76
564.77	2288.19
565.12	2290.33
565.48	2292.23
565.83	2293.87
566.19	2295.06
566.54	2296.04
566.89	2297.00
567.25	2297.56
567.60	2298.86
567.96	2300.52
568.31	2301.40
568.66	2302.51
569.02	2303.03
569.37	2303.35
569.72	2304.28
570.08	2304.34
570.43	2304.44
570.78	2303.86
571.14	2302.31
571.49	2301.06
571.84	2300.56
572.20	2299.45
572.55	2298.53
572.90	2297.04
573.26	2295.75
573.61	2294.18
573.96	2292.37
574.31	2289.46
574.67	2286.32
575.02	2282.65
575.37	2279.32
575.72	2275.46
576.08	2272.05
576.43	2268.80
576.78	2265.12
577.13	2261.82
577.49	2258.87
577.84	2255.29
578.19	2251.66
578.54	2247.91
578.90	2243.46
579.25	2237.92
579.60	2233.01
579.95	2227.96
580.30	2222.85
580.66	2217.72
581.01	2212.77
581.36	2207.74
581.71	2203.55
582.06	2199.19
582.42	2194.73
582.77	2189.34
583.12	2184.68
583.47	2180.02
583.82	2174.78
584.17	2169.42
584.53	2164.05
584.88	2158.41
585.23	2152.71
585.58	2147.27
585.93	2141.80
586.28	2137.18
586.63	2132.07
586.98	2126.86
587.34	2122.13
587.69	2117.23
588.04	2111.83
588.39	2106.04
588.74	2099.61
589.09	2093.42
589.44	2086.51
589.79	2080.49
590.14	2075.05
590.49	2068.61
590.84	2062.12
591.19	2056.05
591.54	2049.65
591.89	2042.11
592.25	2035.09
592.60	2027.69
592.95	2019.95
593.30	2012.64
593.65	2004.95
594.00	1997.89
594.35	1990.74
594.70	1982.65
595.05	1975.22
595.40	1967.96
595.75	1960.52
596.10	1954.16
596.45	1947.29
596.80	1941.13
597.15	1934.39
597.50	1927.11
597.85	1920.68
598.19	1914.00
598.54	1906.83
598.89	1900.08
599.24	1894.14
599.59	1887.24
599.94	1881.18
600.29	1874.85
600.64	1868.27
600.99	1860.77
601.34	1853.93
601.69	1846.92
602.04	1840.07
602.39	1832.79
602.74	1825.96
603.08	1819.23
603.43	1812.49
603.78	1805.14
604.13	1797.87
604.48	1790.44
604.83	1783.60
605.18	1776.36
605.53	1768.33
605.87	1760.44
606.22	1753.25
606.57	1745.29
606.92	1738.17
607.27	1730.86
607.62	1723.96
607.96	1716.54
608.31	1709.76
608.66	1702.20
609.01	1694.59
609.36	1686.87
609.70	1678.85
610.05	1670.65
610.40	1662.81
610.75	1654.56
611.10	1646.89
611.44	1638.51
611.79	1630.66
612.14	1621.80
612.49	1612.79
612.83	1604.50
613.18	1596.42
613.53	1588.37
613.88	1579.83
614.22	1571.52
614.57	1563.00
614.92	1554.83
615.27	1547.34
615.61	1539.11
615.96	1531.05
616.31	1523.33
616.65	1515.97
617.00	1508.38
617.35	1500.82
617.70	1492.57
618.04	1484.06
618.39	1475.90
618.74	1468.31
619.08	1459.94
619.43	1452.43
619.78	1445.56
620.12	1438.24
620.47	1430.72
620.82	1422.45
621.16	1415.12
621.51	1407.56
621.85	1399.81
622.20	1391.29
622.55	1382.86
622.89	1375.09
623.24	1367.47
623.59	1360.26
623.93	1352.80
624.28	1345.59
624.62	1338.04
624.97	1330.92
625.32	1324.21
625.66	1317.23
626.01	1310.00
626.35	1302.58
626.70	1294.92
627.04	1287.07
627.39	1279.36
627.73	1271.84
628.08	1264.95
628.43	1257.61
628.77	1250.26
629.12	1242.79
629.46	1235.69
629.81	1228.34
630.15	1221.09
630.50	1213.70
630.84	1205.46
631.19	1197.51
631.53	1190.03
631.88	1182.52
632.22	1174.86
632.57	1167.41
632.91	1159.82
633.26	1152.35
633.60	1145.02
633.95	1137.90
634.29	1130.89
634.64	1124.23
634.98	1116.90
635.32	1109.71
635.67	1103.12
636.01	1096.45
636.36	1089.61
636.70	1083.19
637.05	1076.59
637.39	1070.05
637.73	1063.46
638.08	1057.52
638.42	1051.61
638.77	1045.04
639.11	1038.36
639.45	1031.90
639.80	1025.30
640.14	1018.86
640.49	1012.41
640.83	1006.14
641.17	999.88
641.52	993.56
641.86	987.09
642.20	981.28
642.55	975.01
642.89	968.43
643.23	961.91
643.58	956.09
643.92	949.81
644.26	943.72
644.61	937.76
644.95	931.74
645.29	925.15
645.64	918.38
645.98	912.10
646.32	906.30
646.66	900.31
647.01	894.57
647.35	888.92
647.69	883.02
648.04	877.41
648.38	871.60
648.72	865.58
649.06	859.49
649.41	853.55
649.75	847.56
650.09	841.73
650.43	835.88
650.78	829.76
651.12	823.79
651.46	818.03
651.80	812.24
652.14	806.83
652.49	801.45
652.83	796.29
653.17	790.62
653.51	784.85
653.85	779.46
654.20	773.73
654.54	767.71
654.88	762.06
655.22	756.23
655.56	750.65
655.90	745.23
656.25	740.02
656.59	734.62
656.93	729.57
657.27	724.39
657.61	719.06
657.95	714.03
658.29	709.03
658.64	703.93
658.98	698.75
659.32	693.35
659.66	688.18
660.00	682.83
660.34	677.92
660.68	673.10
661.02	668.13
661.36	663.54
661.70	659.08
662.05	654.68
662.39	650.30
662.73	645.76
663.07	641.41
663.41	636.99
663.75	632.54
664.09	627.96
664.43	623.56
664.77	619.41
665.11	615.19
665.45	611.06
665.79	606.95
666.13	602.75
666.47	598.60
666.81	594.47
667.15	590.36
667.49	586.50
667.83	582.70
668.17	578.79
668.51	574.64
668.85	570.58
669.19	566.75
669.53	562.91
669.87	559.07
670.21	555.39
670.55	551.74
670.89	548.35
671.23	544.92
671.57	541.42
671.91	537.85
672.25	534.28
672.58	530.73
672.92	527.35
673.26	524.19
673.60	521.10
673.94	518.00
674.28	515.09
674.62	512.09
674.96	508.92
675.30	505.95
675.64	503.04
675.97	500.29
676.31	497.40
676.65	494.48
676.99	491.75
677.33	488.83
677.67	485.98
678.01	482.97
678.34	480.00
678.68	477.12
679.02	474.28
679.36	471.61
679.70	468.91
680.04	466.10
680.37	463.20
680.71	460.40
681.05	457.75
681.39	455.02
681.73	452.36
682.06	449.83
682.40	447.30
682.74	444.77
683.08	442.17
683.42	439.57
683.75	437.10
684.09	434.53
684.43	432.04
684.77	429.57
685.10	427.23
685.44	424.92
685.78	422.65
686.12	420.41
686.45	418.07
686.79	415.72
687.13	413.49
687.46	411.35
687.80	409.19
688.14	407.00
688.48	404.96
688.81	402.71
689.15	400.55
689.49	398.38
689.82	396.29
690.16	394.26
690.50	392.33
690.83	390.38
691.17	388.41
691.51	386.53
691.84	384.65
692.18	382.66
692.52	380.68
692.85	378.77
693.19	376.95
693.52	375.14
693.86	373.34
694.20	371.61
694.53	369.81
694.87	367.99
695.21	366.18
695.54	364.32
695.88	362.66
696.21	361.01
696.55	359.35
696.88	357.69
697.22	356.02
697.56	354.41
697.89	352.74
698.23	351.14
698.56	349.54
698.90	347.99
699.23	346.38
699.57	344.86
699.90	343.32
700.24	341.75
700.58	340.23
700.91	338.74
701.25	337.30
701.58	335.95
701.92	334.57
702.25	333.20
702.59	331.85
702.92	330.52
703.26	329.22
703.59	327.93
703.93	326.73
704.26	325.53
704.60	324.26
704.93	323.00
705.26	321.79
705.60	320.61
705.93	319.46
706.27	318.44
706.60	317.38
706.94	316.30
707.27	315.22
707.61	314.13
707.94	313.11
708.27	312.03
708.61	310.94
708.94	309.93
709.28	308.99
709.61	308.05
709.94	307.14
710.28	306.10
710.61	305.14
710.95	304.07
711.28	303.11
711.61	302.14
711.95	301.21
712.28	300.27
712.61	299.30
712.95	298.37
713.28	297.45
713.61	296.54
713.95	295.66
714.28	294.81
714.61	293.99
714.95	293.16
715.28	292.28
715.61	291.43
715.95	290.58
716.28	289.71
716.61	288.85
716.95	288.02
717.28	287.28
717.61	286.46
717.94	285.72
718.28	284.91
718.61	284.18
718.94	283.50
719.27	282.83
719.61	282.15
719.94	281.49
720.27	280.80
720.60	280.13
720.94	279.48
721.27	278.86
721.60	278.18
721.93	277.57
722.27	277.00
722.60	276.38
722.93	275.80
723.26	275.21
723.59	274.66
723.93	274.06
724.26	273.52
724.59	272.97
724.92	272.46
725.25	271.99
725.59	271.47
725.92	270.94
726.25	270.44
726.58	269.93
726.91	269.43
727.24	268.94
727.57	268.48
727.91	267.96
728.24	267.54
728.57	267.07
728.90	266.61
729.23	266.12
729.56	265.73
729.89	265.28
730.22	264.84
730.55	264.38
730.89	263.94
731.22	263.48
731.55	263.02
731.88	262.59
732.21	262.15
732.54	261.72
732.87	261.29
733.20	260.90
733.53	260.52
733.86	260.16
734.19	259.77
734.52	259.38
734.85	259.07
735.18	258.62
735.51	258.28
735.84	257.90
736.17	257.59
736.50	257.19
736.83	256.96
737.16	256.65
737.49	256.29
737.82	256.00
738.15	255.67
738.48	255.37
738.81	255.07
739.14	254.77
739.47	254.46
739.80	254.14
740.13	253.80
740.46	253.50
740.79	253.16
741.12	252.85
741.45	252.54
741.78	252.22
742.11	251.94
742.44	251.62
742.77	251.36
743.10	251.04
743.43	250.75
743.75	250.39
744.08	250.23
744.41	249.99
744.74	249.69
745.07	249.42
745.40	249.20
745.73	248.96
746.06	248.64
746.39	248.42
746.71	248.20
747.04	247.92
747.37	247.66
747.70	247.45
748.03	247.24
748.36	247.02
748.68	246.79
749.01	246.55
749.34	246.31
749.67	246.09
750.00	245.90
750.33	245.77
750.65	245.52
750.98	245.21
751.31	245.00
751.64	244.80
751.97	244.61
752.29	244.37
752.62	244.13
752.95	243.94
753.28	243.70
753.60	243.46
753.93	243.31
754.26	243.08
754.59	242.85
754.91	242.61
755.24	242.41
755.57	242.21
755.90	242.02
756.22	241.84
756.55	241.64
756.88	241.42
757.20	241.16
757.53	240.97
757.86	240.73
758.19	240.55
758.51	240.38
758.84	240.20
759.17	240.00
759.49	239.81
759.82	239.73
760.15	239.56
760.47	239.44
760.80	239.29
761.13	239.16
761.45	239.01
761.78	238.87
762.11	238.73
762.43	238.56
762.76	238.41
763.08	238.27
763.41	238.13
763.74	237.99
764.06	237.87
764.39	237.73
764.71	237.60
765.04	237.48
765.37	237.31
765.69	237.16
766.02	237.04
766.34	236.93
766.67	236.76
767.00	236.65
767.32	236.56
767.65	236.48
767.97	236.35
768.30	236.26
768.62	236.16
768.95	236.03
769.27	235.92
769.60	235.81
769.92	235.68
770.25	235.54
770.57	235.42
770.90	235.26
771.22	235.13
771.55	235.04
771.87	234.96
772.20	234.88
772.52	234.87
772.85	234.90
773.17	234.80
773.50	234.69
773.82	234.57
774.15	234.41
774.47	234.25
774.80	234.15
775.12	234.02
775.45	233.94
775.77	233.87
776.09	233.79
776.42	233.69
776.74	233.62
777.07	233.53
777.39	233.46
777.72	233.41
778.04	233.38
778.36	233.29
778.69	233.16
779.01	233.07
779.33	232.93
779.66	232.76
779.98	232.69
780.31	232.64
780.63	232.63
780.95	232.61
781.28	232.55
781.60	232.49
781.92	232.43
782.25	232.39
782.57	232.30
782.89	232.23
783.22	232.18
783.54	232.11
783.86	232.06
784.19	232.00
784.51	231.96
784.83	231.88
785.16	231.83
785.48	231.83
785.80	231.82
786.12	231.74
786.45	231.70
786.77	231.67
787.09	231.62
787.42	231.53
787.74	231.47
788.06	231.45
788.38	231.41
788.71	231.36
789.03	231.30
789.35	231.29
789.67	231.28
789.99	231.27
790.32	231.24
790.64	231.22
790.96	231.29
791.28	231.25
791.61	231.25
791.93	231.20
792.25	231.14
792.57	231.16
792.89	231.17
793.21	231.10
793.54	231.05
793.86	230.99
794.18	231.00
794.50	230.98
794.82	230.93
795.14	230.90
795.47	230.90
795.79	230.90
796.11	230.82
796.43	230.78
796.75	230.76
797.07	230.71
797.39	230.68
797.71	230.58
798.04	230.53
798.36	230.49
798.68	230.46
799.00	230.43
799.32	230.33
799.64	230.31
799.96	230.31
800.28	230.28
800.60	230.25
800.92	230.21
801.24	230.15
801.56	230.13
801.89	230.09
802.21	230.05
802.53	229.95
802.85	229.94
803.17	229.95
803.49	229.89
803.81	229.87
804.13	229.85
804.45	229.80
804.77	229.78
805.09	229.75
805.41	229.73
805.73	229.72
806.05	229.66
806.37	229.61
806.69	229.56
807.01	229.55
807.33	229.52
807.65	229.43
807.97	229.44
808.28	229.39
808.60	229.38
808.92	229.32
809.24	229.39
809.56	229.36
809.88	229.31
810.20	229.28
810.52	229.25
810.84	229.18
811.16	229.14
811.48	229.12
811.80	229.13
812.12	229.10
812.43	229.07
812.75	229.06
813.07	229.04
813.39	229.01
813.71	228.96
814.03	228.94
814.35	228.94
814.67	228.86
814.98	228.84
815.30	228.81
815.62	228.79
815.94	228.70
816.26	228.73
816.58	228.67
816.89	228.68
817.21	228.65
817.53	228.66
817.85	228.65
818.17	228.64
818.48	228.56
818.80	228.56
819.12	228.52
819.44	228.53
819.76	228.49
820.07	228.46
820.39	228.44
820.71	228.43
821.03	228.41
821.34	228.43
821.66	228.41
821.98	228.40
822.30	228.37
822.61	228.44
822.93	228.38
823.25	228.38
823.57	228.34
823.88	228.36
824.20	228.34
824.52	228.36
824.83	228.35
825.15	228.36
825.47	228.34
825.79	228.31
826.10	228.28
826.42	228.27
826.74	228.28
827.05	228.25
827.37	228.23
827.69	228.23
828.00	228.21
828.32	228.19
828.64	228.20
828.95	228.25
829.27	228.20
829.58	228.21
829.90	228.24
830.22	228.24
830.53	228.21
830.85	228.23
831.17	228.20
831.48	228.16
831.80	228.16
832.11	228.15
832.43	228.14
832.75	228.13
833.06	228.18
833.38	228.15
833.69	228.12
834.01	228.12
834.32	228.11
834.64	228.09
834.96	228.08
835.27	228.09
835.59	228.04
835.90	228.00
836.22	227.93
836.53	227.88
836.85	227.87
837.16	227.95
837.48	227.94
837.79	227.93
838.11	227.91
838.42	227.88
838.74	227.92
839.05	227.90
839.37	227.88
839.68	227.83
840.00	227.83
840.31	227.85
840.63	227.84
840.94	227.85
841.26	227.81
841.57	227.80
841.88	227.79
842.20	227.78
842.51	227.76
842.83	227.76
843.14	227.84
843.46	227.80
843.77	227.78
844.08	227.76
844.40	227.74
844.71	227.74
845.03	227.69
845.34	227.63
845.65	227.64
845.97	227.65
846.28	227.67
846.60	227.66
846.91	227.67
847.22	227.67
847.54	227.65
847.85	227.67
848.16	227.68
848.48	227.64
848.79	227.68
849.10	227.68
849.42	227.71
849.73	227.62
850.04	227.64
850.36	227.57
850.67	227.59
850.98	227.57
851.30	227.58
851.61	227.59
851.92	227.59
852.23	227.62
852.55	227.62
852.86	227.58
853.17	227.60
853.49	227.59
853.80	227.63
854.11	227.67
854.42	227.67
854.74	227.63
855.05	227.64
855.36	227.59
855.67	227.59
855.99	227.57
856.30	227.68
856.61	227.65
856.92	227.63
857.23	227.62
857.55	227.60
857.86	227.59
858.17	227.64
858.48	227.60
858.79	227.57
859.11	227.57
859.42	227.59
859.73	227.56
860.04	227.53
860.35	227.45
860.66	227.39
860.98	227.38
861.29	227.40
861.60	227.40
861.91	227.42
862.22	227.41
862.53	227.38
862.84	227.27
863.16	227.31
863.47	227.29
863.78	227.29
864.09	227.30
864.40	227.31
864.71	227.29
865.02	227.29
865.33	227.25
865.64	227.24
865.95	227.22
866.27	227.28
866.58	227.27
866.89	227.31
867.20	227.37
867.51	227.37
867.82	227.37
868.13	227.39
868.44	227.37
868.75	227.38
869.06	227.42
869.37	227.40
869.68	227.39
869.99	227.40
870.30	227.42
870.61	227.43
870.92	227.42
871.23	227.43
871.54	227.47
871.85	227.49
872.16	227.48
872.47	227.46
872.78	227.41
873.09	227.44
873.40	227.43
873.71	227.36
874.02	227.37
874.33	227.34
874.64	227.33
874.95	227.31
875.26	227.29
875.56	227.25
875.87	227.27
876.18	227.24
876.49	227.34
876.80	227.30
877.11	227.29
877.42	227.29
877.73	227.26
878.04	227.23
878.35	227.24
878.66	227.24
878.96	227.25
879.27	227.22
879.58	227.21
879.89	227.22
880.20	227.28
880.51	227.24
880.82	227.25
881.12	227.23
881.43	227.22
881.74	227.17
882.05	227.18
882.36	227.15
882.67	227.16
882.97	227.06
883.28	227.06
883.59	227.04
883.90	227.04
884.21	227.06
884.51	227.06
884.82	227.09
885.13	227.07
885.44	227.06
885.74	227.05
886.05	227.04
886.36	227.02
886.67	226.92
886.98	227.01
887.28	226.98
887.59	226.99
887.90	227.01
888.20	227.04
888.51	227.07
888.82	227.07
889.13	227.07
889.43	227.14
889.74	227.11
890.05	227.11
890.35	227.08
890.66	227.06
890.97	227.04
891.28	227.01
891.58	227.02
891.89	227.04
892.20	227.05
892.50	227.06
892.81	227.03
893.12	227.05
893.42	226.98
893.73	227.00
894.04	226.95
894.34	226.94
894.65	226.96
894.95	226.92
895.26	226.90
895.57	226.91
895.87	226.85
896.18	226.88
896.48	226.90
896.79	226.90
897.10	226.91
897.40	226.92
897.71	226.94
898.01	226.92
898.32	226.89
898.63	226.89
898.93	226.88
899.24	226.87
899.54	226.88
899.85	226.85
900.15	226.85
900.46	226.87
900.76	226.88
901.07	226.88
901.38	226.89
901.68	226.93
901.99	226.93
902.29	226.89
902.60	226.88
902.90	226.87
903.21	226.91
903.51	226.88
903.82	226.91
904.12	226.90
904.43	226.90
904.73	226.94
905.03	226.94
905.34	227.04
905.64	227.06
905.95	227.07
906.25	227.11
906.56	227.12
906.86	227.16
907.17	227.15
907.47	227.17
907.77	227.18
908.08	227.15
908.38	227.12
908.69	227.17
908.99	227.23
909.30	227.25
909.60	227.20
909.90	227.21
910.21	227.17
910.51	227.19
910.81	227.21
911.12	227.21
911.42	227.21
911.73	227.12
912.03	227.14
912.33	227.17
912.64	227.18
912.94	227.16
913.24	227.13
913.55	227.13
913.85	227.12
914.15	227.15
914.46	227.17
914.76	227.20
915.06	227.18
915.37	227.15
915.67	227.11
915.97	227.13
916.27	227.16
916.58	227.18
916.88	227.14
917.18	227.13
917.49	227.18
917.79	227.18
918.09	227.21
918.39	227.23
918.70	227.23
919.00	227.22
919.30	227.28
919.60	227.29
919.91	227.28
920.21	227.31
920.51	227.27
920.81	227.27
921.12	227.27
921.42	227.28
921.72	227.25
922.02	227.27
922.32	227.28
922.63	227.25
922.93	227.30
923.23	227.31
923.53	227.30
923.83	227.20
924.13	227.20
924.44	227.17
924.74	227.16
925.04	227.18
925.34	227.17
925.64	227.11
925.94	227.11
926.24	227.14
926.55	227.10
926.85	227.09
927.15	227.09
927.45	227.05
927.75	227.05
928.05	227.08
928.35	227.06
928.65	227.06
928.95	227.07
929.26	227.01
929.56	227.02
929.86	227.04
930.16	227.06
930.46	227.06
930.76	227.08
931.06	227.04
931.36	226.98
931.66	226.99
931.96	227.03
932.26	227.03
932.56	227.00
932.86	227.02
933.16	227.01
933.46	227.00
933.76	227.00
934.06	226.98
934.36	227.02
934.66	227.01
934.96	227.00
935.26	227.01
935.56	227.02
935.86	226.99
936.16	226.97
936.46	226.97
936.76	226.94
937.06	226.93
937.36	226.93
937.66	226.97
937.96	226.96
938.26	226.90
938.56	226.87
938.86	226.86
939.16	226.85
939.46	226.87
939.76	226.86
940.06	226.84
940.35	226.86
940.65	226.78
940.95	226.82
941.25	226.80
941.55	226.77
941.85	226.77
942.15	226.78
942.45	226.83
942.75	226.80
943.04	226.84
943.34	226.85
943.64	226.86
943.94	226.86
944.24	226.88
944.54	226.91
944.84	226.95
945.13	226.93
945.43	226.92
945.73	226.90
946.03	226.89
946.33	226.91
946.62	226.90
946.92	226.91
947.22	226.88
947.52	226.88
947.82	226.91
948.11	226.89
948.41	226.89
948.71	226.86
949.01	226.86
949.31	226.85
949.60	226.86
949.90	226.88
950.20	226.85
950.50	226.84
950.79	226.83
951.09	226.85
951.39	226.88
951.69	226.89
951.98	226.89
952.28	226.92
952.58	226.95
952.87	226.96
953.17	226.95
953.47	226.97
953.76	227.01
954.06	226.98
954.36	226.96
954.66	226.93
954.95	226.96
955.25	226.98
955.55	226.98
955.84	226.96
956.14	226.97
956.44	226.99
956.73	226.98
957.03	226.97
957.32	226.92
957.62	226.92
957.92	226.92
958.21	226.95
958.51	227.03
958.81	227.00
959.10	227.01
959.40	227.04
959.69	227.04
959.99	227.04
960.29	227.07
960.58	227.09
960.88	227.13
961.17	227.10
961.47	227.14
961.76	227.14
962.06	227.15
962.36	227.15
962.65	227.17
962.95	227.16
963.24	227.15
963.54	227.19
963.83	227.20
964.13	227.20
964.42	227.15
964.72	227.09
965.01	227.11
965.31	227.09
965.60	227.06
965.90	227.09
966.19	227.04
966.49	227.04
966.78	227.00
967.08	227.01
967.37	227.00
967.67	226.93
967.96	226.93
968.26	226.94
968.55	226.90
968.85	226.89
969.14	226.87
969.43	226.87
969.73	226.85
970.02	226.83
970.32	226.81
970.61	226.85
970.91	226.83
971.20	226.80
971.49	226.79
971.79	226.80
972.08	226.77
972.38	226.78
972.67	226.77
972.96	226.79
973.26	226.75
973.55	226.79
973.85	226.79
974.14	226.77
974.43	226.72
974.73	226.71
975.02	226.70
975.31	226.68
975.61	226.71
975.90	226.69
976.19	226.68
976.49	226.66
976.78	226.66
977.07	226.65
977.37	226.66
977.66	226.67
977.95	226.66
978.24	226.62
978.54	226.65
978.83	226.64
979.12	226.69
979.42	226.69
979.71	226.66
980.00	226.66
980.29	226.70
980.59	226.73
980.88	226.78
981.17	226.78
981.46	226.77
981.76	226.73
982.05	226.76
982.34	226.77
982.63	226.82
982.93	226.81
983.22	226.85
983.51	226.85
983.80	226.83
984.09	226.87
984.39	226.90
984.68	226.89
984.97	226.88
985.26	226.84
985.55	226.85
985.85	226.84
986.14	226.86
986.43	226.82
986.72	226.81
987.01	226.74
987.30	226.73
987.59	226.73
987.89	226.75
988.18	226.73
988.47	226.72
988.76	226.67
989.05	226.68
989.34	226.63
989.63	226.68
989.92	226.67
990.22	226.66
990.51	226.64
990.80	226.64
991.09	226.66
991.38	226.65
991.67	226.67
991.96	226.66
992.25	226.70
992.54	226.72
992.83	226.72
993.12	226.74
993.41	226.77
993.70	226.84
993.99	226.88
994.28	226.92
994.58	226.91
994.87	226.93
995.16	226.91
995.45	226.95
995.74	226.93
996.03	226.93
996.32	226.95
996.61	226.99
996.90	226.99
997.19	227.00
997.48	227.03
997.77	227.00
998.06	227.05
998.34	227.02
998.63	226.98
998.92	226.99
999.21	227.01
999.50	227.00
999.79	226.97
1000.08	226.98
1000.37	226.96
1000.66	226.97
1000.95	226.99
1001.24	227.00
1001.53	226.97
1001.82	226.96
1002.11	226.93
1002.40	226.92
1002.68	226.93
1002.97	226.98
1003.26	226.97
1003.55	226.95
1003.84	226.94
1004.13	226.95
1004.42	226.93
1004.71	226.96
1004.99	226.97
1005.28	226.99
1005.57	226.98
1005.86	226.98
1006.15	226.94
1006.44	226.93
1006.72	226.95
1007.01	226.95
1007.30	226.96
1007.59	226.95
1007.88	226.94
1008.17	226.97
1008.45	226.94
1008.74	226.90
1009.03	226.87
1009.32	226.87
1009.60	226.87
1009.89	226.88
1010.18	226.84
1010.47	226.87
1010.76	226.87
1011.04	226.85
1011.33	226.84
1011.62	226.83
1011.91	226.80
1012.19	226.80
1012.48	226.81
1012.77	226.78
1013.05	226.83
1013.34	226.83
1013.63	226.82
1013.92	226.82
1014.20	226.83
1014.49	226.78
1014.78	226.79
1015.06	226.75
1015.35	226.72
1015.64	226.73
1015.92	226.71
1016.21	226.67
1016.50	226.66
1016.78	226.67
1017.07	226.66
1017.36	226.65
1017.64	226.64
1017.93	226.66
1018.22	226.64
1018.50	226.63
1018.79	226.63
1019.08	226.56
1019.36	226.57
1019.65	226.55
1019.93	226.58
1020.22	226.57
1020.51	226.65
1020.79	226.64
1021.08	226.56
1021.36	226.51
1021.65	226.79
1021.94	226.66
1022.22	226.99
1022.51	226.34
1022.79	227.14
1023.08	226.59
1023.36	227.65
1023.65	226.59
>>>>>End Processed Spectral Data<<<<<
