SpectraSuite Data File
++++++++++++++++++++++++++++++++++++
Date: Fri Feb 01 14:53:16 EST 2013
User: group
Dark Spectrum Present: No
Reference Spectrum Present: No
Number of Sampled Component Spectra: 1
Spectrometers: USB2E7196
Integration Time (usec): 35000 (USB2E7196)
Spectra Averaged: 100 (USB2E7196)
Boxcar Smoothing: 10 (USB2E7196)
Correct for Electrical Dark: No (USB2E7196)
Strobe/Lamp Enabled: No (USB2E7196)
Correct for Detector Non-linearity: No (USB2E7196)
Correct for Stray Light: No (USB2E7196)
Number of Pixels in Processed Spectrum: 2048
>>>>>Begin Processed Spectral Data<<<<<
339.09	0.00
339.48	215.03
339.86	217.50
340.24	218.44
340.63	219.92
341.01	222.24
341.39	221.78
341.78	224.24
342.16	225.17
342.54	225.83
342.93	213.85
343.31	224.64
343.69	225.20
344.07	225.65
344.46	226.05
344.84	226.43
345.22	226.69
345.60	226.99
345.99	227.15
346.37	227.28
346.75	227.36
347.13	227.44
347.52	227.47
347.90	227.55
348.28	227.59
348.66	227.63
349.05	227.64
349.43	227.68
349.81	227.73
350.19	227.78
350.57	227.86
350.96	227.91
351.34	228.01
351.72	228.10
352.10	228.19
352.48	228.26
352.87	228.30
353.25	228.39
353.63	228.42
354.01	228.50
354.39	228.61
354.77	228.68
355.15	228.78
355.54	228.85
355.92	228.89
356.30	228.99
356.68	229.13
357.06	229.21
357.44	229.26
357.82	229.33
358.20	229.40
358.58	229.40
358.97	229.47
359.35	229.57
359.73	229.64
360.11	229.67
360.49	229.75
360.87	229.83
361.25	229.84
361.63	229.92
362.01	229.95
362.39	229.92
362.77	229.98
363.15	229.99
363.53	230.00
363.91	230.04
364.29	230.00
364.67	229.91
365.05	229.90
365.43	229.90
365.81	229.89
366.19	229.90
366.57	229.96
366.95	229.91
367.33	229.83
367.71	229.79
368.09	229.81
368.47	229.80
368.85	229.73
369.23	229.72
369.61	229.65
369.99	229.59
370.37	229.61
370.75	229.58
371.13	229.52
371.51	229.46
371.89	229.41
372.27	229.36
372.65	229.33
373.03	229.27
373.41	229.19
373.78	229.13
374.16	229.02
374.54	228.94
374.92	228.89
375.30	228.82
375.68	228.73
376.06	228.63
376.44	228.52
376.82	228.43
377.19	228.33
377.57	228.24
377.95	228.17
378.33	228.06
378.71	227.94
379.09	227.85
379.47	227.78
379.84	227.67
380.22	227.61
380.60	227.48
380.98	227.40
381.36	227.32
381.73	227.22
382.11	227.18
382.49	227.06
382.87	226.95
383.25	226.89
383.62	226.94
384.00	226.86
384.38	226.81
384.76	226.76
385.13	226.73
385.51	226.68
385.89	226.60
386.27	226.54
386.64	226.49
387.02	226.49
387.40	226.44
387.78	226.42
388.15	226.37
388.53	226.33
388.91	226.29
389.29	226.27
389.66	226.25
390.04	226.21
390.42	226.25
390.79	226.26
391.17	226.26
391.55	226.15
391.92	226.16
392.30	226.17
392.68	226.17
393.05	226.20
393.43	226.18
393.81	226.22
394.18	226.24
394.56	226.30
394.94	226.29
395.31	226.31
395.69	226.38
396.06	226.42
396.44	226.51
396.82	226.58
397.19	226.71
397.57	226.75
397.95	226.84
398.32	226.85
398.70	226.93
399.07	227.03
399.45	227.08
399.82	227.15
400.20	227.24
400.58	227.33
400.95	227.39
401.33	227.55
401.70	227.73
402.08	227.83
402.45	227.94
402.83	228.08
403.20	228.22
403.58	228.32
403.95	228.47
404.33	228.60
404.71	228.69
405.08	228.88
405.46	229.04
405.83	229.21
406.21	229.36
406.58	229.54
406.96	229.71
407.33	229.94
407.70	230.18
408.08	230.48
408.45	230.69
408.83	230.93
409.20	231.14
409.58	231.31
409.95	231.60
410.33	231.87
410.70	232.15
411.08	232.44
411.45	232.78
411.82	233.10
412.20	233.45
412.57	233.91
412.95	234.16
413.32	234.60
413.69	235.01
414.07	235.46
414.44	235.92
414.82	236.42
415.19	236.93
415.56	237.46
415.94	237.97
416.31	238.62
416.68	239.23
417.06	239.94
417.43	240.58
417.81	241.34
418.18	242.09
418.55	242.89
418.93	243.76
419.30	244.63
419.67	245.55
420.04	246.51
420.42	247.47
420.79	248.65
421.16	249.78
421.54	250.94
421.91	252.16
422.28	253.38
422.66	254.68
423.03	255.99
423.40	257.30
423.77	258.71
424.15	260.11
424.52	261.57
424.89	263.18
425.26	264.74
425.64	266.20
426.01	267.80
426.38	269.44
426.75	271.06
427.13	272.76
427.50	274.53
427.87	276.40
428.24	278.27
428.61	280.00
428.99	281.92
429.36	283.98
429.73	286.03
430.10	288.06
430.47	290.12
430.85	292.24
431.22	294.49
431.59	296.86
431.96	299.13
432.33	301.63
432.70	303.99
433.08	306.83
433.45	309.48
433.82	312.05
434.19	314.96
434.56	317.83
434.93	320.48
435.30	323.10
435.68	325.93
436.05	328.72
436.42	331.59
436.79	334.10
437.16	336.84
437.53	339.68
437.90	342.53
438.27	345.29
438.64	348.13
439.01	350.73
439.38	352.95
439.75	355.14
440.13	357.61
440.50	359.94
440.87	361.77
441.24	363.68
441.61	365.87
441.98	367.33
442.35	369.12
442.72	371.00
443.09	372.85
443.46	373.88
443.83	374.49
444.20	374.94
444.57	375.81
444.94	376.14
445.31	376.47
445.68	376.77
446.05	376.85
446.42	376.40
446.79	376.00
447.16	375.56
447.53	375.20
447.90	374.07
448.27	372.96
448.64	371.41
449.01	370.29
449.37	368.32
449.74	366.43
450.11	364.16
450.48	361.72
450.85	359.18
451.22	357.04
451.59	355.07
451.96	353.15
452.33	350.52
452.70	348.11
453.07	345.29
453.43	342.40
453.80	339.61
454.17	336.99
454.54	334.42
454.91	331.72
455.28	329.06
455.65	326.57
456.02	324.10
456.38	321.96
456.75	319.29
457.12	317.02
457.49	314.81
457.86	312.64
458.23	310.79
458.59	308.74
458.96	306.66
459.33	304.79
459.70	302.91
460.07	301.40
460.43	299.72
460.80	298.07
461.17	296.70
461.54	295.22
461.91	293.80
462.27	292.32
462.64	291.03
463.01	289.66
463.38	288.35
463.74	286.98
464.11	285.78
464.48	284.75
464.85	283.66
465.21	282.79
465.58	281.90
465.95	280.77
466.32	279.88
466.68	278.96
467.05	278.07
467.42	277.14
467.78	276.21
468.15	275.32
468.52	274.69
468.88	273.75
469.25	272.98
469.62	272.33
469.98	271.70
470.35	271.04
470.72	270.47
471.08	269.81
471.45	269.25
471.82	268.71
472.18	268.10
472.55	267.62
472.92	267.11
473.28	266.63
473.65	266.20
474.02	265.71
474.38	265.33
474.75	264.97
475.11	264.64
475.48	264.38
475.85	264.12
476.21	263.89
476.58	263.70
476.94	263.53
477.31	263.33
477.67	263.15
478.04	263.06
478.41	262.95
478.77	262.97
479.14	262.92
479.50	262.90
479.87	262.93
480.23	263.02
480.60	263.03
480.96	263.07
481.33	263.23
481.69	263.40
482.06	263.63
482.42	263.82
482.79	264.08
483.15	264.36
483.52	264.72
483.88	265.04
484.25	265.39
484.61	265.80
484.98	266.21
485.34	266.75
485.71	267.31
486.07	267.89
486.44	268.47
486.80	269.11
487.17	269.82
487.53	270.65
487.90	271.49
488.26	272.46
488.62	273.49
488.99	274.45
489.35	275.48
489.72	276.59
490.08	277.79
490.44	278.97
490.81	280.33
491.17	281.65
491.54	283.12
491.90	284.69
492.26	286.31
492.63	288.05
492.99	289.83
493.36	291.75
493.72	293.79
494.08	295.86
494.45	298.15
494.81	300.52
495.17	302.92
495.54	305.46
495.90	308.12
496.26	310.88
496.63	313.82
496.99	316.93
497.35	320.14
497.72	323.47
498.08	326.99
498.44	330.62
498.80	334.55
499.17	338.57
499.53	342.72
499.89	347.06
500.26	351.59
500.62	356.26
500.98	361.24
501.34	366.25
501.71	371.56
502.07	376.92
502.43	382.52
502.79	388.32
503.16	394.34
503.52	400.59
503.88	406.96
504.24	413.59
504.60	420.42
504.97	427.53
505.33	434.82
505.69	442.53
506.05	450.27
506.41	458.08
506.78	466.23
507.14	474.60
507.50	483.26
507.86	492.23
508.22	501.33
508.59	510.46
508.95	520.00
509.31	529.79
509.67	539.82
510.03	550.08
510.39	560.63
510.75	571.36
511.12	582.24
511.48	593.50
511.84	604.96
512.20	616.45
512.56	628.36
512.92	640.54
513.28	652.71
513.64	665.23
514.00	677.97
514.37	690.85
514.73	703.88
515.09	716.94
515.45	730.25
515.81	743.83
516.17	757.77
516.53	771.86
516.89	786.10
517.25	800.31
517.61	814.77
517.97	829.17
518.33	843.63
518.69	858.46
519.05	873.45
519.41	888.53
519.77	904.11
520.13	919.64
520.49	935.03
520.85	950.61
521.21	966.31
521.57	982.54
521.93	998.42
522.29	1014.89
522.65	1031.19
523.01	1047.42
523.37	1063.55
523.73	1079.86
524.09	1096.07
524.45	1112.36
524.81	1129.07
525.17	1145.90
525.53	1162.90
525.89	1179.78
526.25	1196.59
526.61	1213.08
526.97	1229.89
527.33	1246.43
527.68	1263.03
528.04	1279.65
528.40	1296.28
528.76	1313.41
529.12	1330.08
529.48	1346.93
529.84	1362.94
530.20	1379.70
530.56	1396.82
530.91	1414.27
531.27	1431.11
531.63	1447.60
531.99	1464.19
532.35	1480.29
532.71	1496.28
533.07	1512.65
533.42	1528.77
533.78	1544.85
534.14	1561.14
534.50	1576.40
534.86	1592.20
535.21	1607.40
535.57	1623.35
535.93	1638.97
536.29	1653.83
536.65	1669.04
537.00	1684.09
537.36	1699.57
537.72	1714.00
538.08	1728.40
538.44	1742.27
538.79	1756.12
539.15	1769.88
539.51	1783.81
539.87	1798.27
540.22	1812.00
540.58	1825.67
540.94	1839.07
541.29	1852.07
541.65	1864.82
542.01	1878.28
542.37	1890.67
542.72	1903.15
543.08	1915.09
543.44	1927.45
543.79	1938.78
544.15	1949.80
544.51	1961.21
544.87	1972.22
545.22	1983.30
545.58	1993.51
545.94	2003.27
546.29	2013.31
546.65	2023.19
547.01	2032.35
547.36	2041.03
547.72	2049.63
548.07	2057.55
548.43	2065.76
548.79	2073.85
549.14	2081.46
549.50	2089.01
549.86	2096.85
550.21	2104.29
550.57	2111.29
550.92	2117.93
551.28	2125.00
551.64	2131.92
551.99	2138.46
552.35	2144.51
552.70	2150.50
553.06	2156.50
553.41	2162.68
553.77	2168.62
554.13	2174.53
554.48	2180.55
554.84	2185.92
555.19	2191.08
555.55	2196.14
555.90	2200.40
556.26	2205.25
556.61	2209.89
556.97	2213.95
557.32	2217.99
557.68	2221.99
558.03	2226.30
558.39	2229.94
558.74	2234.37
559.10	2238.19
559.45	2241.65
559.81	2245.94
560.16	2249.60
560.52	2252.68
560.87	2256.20
561.23	2258.66
561.58	2261.57
561.94	2264.15
562.29	2266.53
562.64	2269.12
563.00	2271.67
563.35	2275.18
563.71	2278.14
564.06	2281.26
564.42	2283.93
564.77	2286.30
565.12	2288.44
565.48	2290.20
565.83	2291.74
566.19	2292.73
566.54	2293.56
566.89	2294.60
567.25	2295.05
567.60	2296.37
567.96	2297.86
568.31	2298.53
568.66	2299.50
569.02	2299.90
569.37	2299.85
569.72	2300.45
570.08	2300.34
570.43	2300.04
570.78	2299.07
571.14	2297.23
571.49	2295.70
571.84	2295.17
572.20	2293.64
572.55	2292.21
572.90	2290.37
573.26	2288.78
573.61	2287.15
573.96	2285.14
574.31	2281.97
574.67	2278.67
575.02	2274.73
575.37	2271.26
575.72	2267.07
576.08	2263.43
576.43	2259.93
576.78	2256.25
577.13	2252.81
577.49	2249.40
577.84	2245.87
578.19	2242.09
578.54	2238.38
578.90	2233.84
579.25	2228.23
579.60	2223.29
579.95	2218.20
580.30	2212.99
580.66	2207.75
581.01	2202.56
581.36	2197.47
581.71	2193.11
582.06	2188.50
582.42	2183.86
582.77	2178.37
583.12	2173.66
583.47	2168.95
583.82	2163.85
584.17	2158.38
584.53	2152.81
584.88	2147.20
585.23	2141.32
585.58	2135.60
585.93	2129.87
586.28	2125.01
586.63	2119.69
586.98	2114.36
587.34	2109.66
587.69	2104.67
588.04	2099.25
588.39	2093.40
588.74	2086.71
589.09	2080.52
589.44	2073.78
589.79	2067.59
590.14	2061.76
590.49	2055.13
590.84	2048.50
591.19	2042.22
591.54	2035.68
591.89	2027.97
592.25	2021.00
592.60	2013.76
592.95	2006.02
593.30	1998.54
593.65	1990.67
594.00	1983.54
594.35	1976.28
594.70	1967.96
595.05	1960.74
595.40	1953.49
595.75	1945.90
596.10	1939.59
596.45	1932.70
596.80	1926.21
597.15	1919.62
597.50	1912.49
597.85	1905.92
598.19	1899.33
598.54	1892.40
598.89	1885.64
599.24	1879.79
599.59	1873.04
599.94	1866.65
600.29	1860.28
600.64	1853.76
600.99	1846.36
601.34	1839.44
601.69	1832.40
602.04	1825.49
602.39	1818.06
602.74	1811.13
603.08	1804.45
603.43	1797.79
603.78	1790.44
604.13	1783.22
604.48	1775.90
604.83	1769.18
605.18	1762.31
605.53	1754.17
605.87	1745.98
606.22	1738.87
606.57	1731.02
606.92	1723.69
607.27	1716.45
607.62	1709.72
607.96	1702.52
608.31	1696.11
608.66	1688.54
609.01	1681.06
609.36	1673.64
609.70	1665.71
610.05	1657.72
610.40	1650.04
610.75	1641.81
611.10	1634.17
611.44	1625.88
611.79	1617.96
612.14	1609.21
612.49	1600.14
612.83	1591.93
613.18	1583.92
613.53	1575.81
613.88	1567.28
614.22	1559.06
614.57	1550.56
614.92	1542.59
615.27	1535.05
615.61	1526.68
615.96	1518.71
616.31	1511.07
616.65	1503.76
617.00	1496.21
617.35	1488.48
617.70	1480.16
618.04	1471.54
618.39	1463.42
618.74	1455.90
619.08	1447.55
619.43	1440.25
619.78	1433.41
620.12	1426.32
620.47	1418.87
620.82	1410.75
621.16	1403.50
621.51	1396.03
621.85	1388.51
622.20	1380.01
622.55	1371.78
622.89	1363.99
623.24	1356.49
623.59	1349.25
623.93	1341.72
624.28	1334.63
624.62	1327.28
624.97	1320.20
625.32	1313.59
625.66	1306.62
626.01	1299.48
626.35	1292.21
626.70	1284.36
627.04	1276.70
627.39	1268.92
627.73	1261.46
628.08	1254.60
628.43	1247.30
628.77	1239.99
629.12	1232.43
629.46	1225.37
629.81	1217.96
630.15	1210.91
630.50	1203.49
630.84	1195.40
631.19	1187.68
631.53	1180.18
631.88	1172.69
632.22	1165.18
632.57	1157.92
632.91	1150.48
633.26	1143.13
633.60	1135.75
633.95	1128.76
634.29	1121.69
634.64	1115.18
634.98	1108.01
635.32	1101.01
635.67	1094.53
636.01	1088.01
636.36	1081.37
636.70	1074.91
637.05	1068.50
637.39	1062.05
637.73	1055.72
638.08	1049.86
638.42	1043.90
638.77	1037.46
639.11	1030.93
639.45	1024.62
639.80	1018.04
640.14	1011.68
640.49	1005.25
640.83	999.10
641.17	992.92
641.52	986.70
641.86	980.24
642.20	974.50
642.55	968.20
642.89	961.73
643.23	955.14
643.58	949.44
643.92	943.33
644.26	937.31
644.61	931.34
644.95	925.33
645.29	918.80
645.64	912.06
645.98	905.88
646.32	900.12
646.66	894.13
647.01	888.42
647.35	882.80
647.69	877.02
648.04	871.59
648.38	865.87
648.72	859.89
649.06	853.86
649.41	847.92
649.75	842.03
650.09	836.14
650.43	830.43
650.78	824.30
651.12	818.38
651.46	812.66
651.80	806.97
652.14	801.65
652.49	796.35
652.83	791.24
653.17	785.57
653.51	779.87
653.85	774.52
654.20	768.95
654.54	762.98
654.88	757.26
655.22	751.37
655.56	745.77
655.90	740.35
656.25	735.22
656.59	729.92
656.93	724.88
657.27	719.80
657.61	714.42
657.95	709.34
658.29	704.25
658.64	699.09
658.98	693.81
659.32	688.40
659.66	683.22
660.00	677.99
660.34	673.17
660.68	668.34
661.02	663.34
661.36	658.71
661.70	654.29
662.05	650.05
662.39	645.73
662.73	641.29
663.07	636.99
663.41	632.55
663.75	628.12
664.09	623.62
664.43	619.35
664.77	615.31
665.11	611.17
665.45	607.13
665.79	603.04
666.13	598.94
666.47	594.87
666.81	590.79
667.15	586.76
667.49	582.81
667.83	579.03
668.17	575.21
668.51	571.24
668.85	567.22
669.19	563.37
669.53	559.56
669.87	555.75
670.21	552.12
670.55	548.52
670.89	545.16
671.23	541.73
671.57	538.22
671.91	534.74
672.25	531.24
672.58	527.79
672.92	524.45
673.26	521.42
673.60	518.32
673.94	515.26
674.28	512.31
674.62	509.43
674.96	506.37
675.30	503.40
675.64	500.46
675.97	497.76
676.31	494.95
676.65	492.10
676.99	489.40
677.33	486.59
677.67	483.82
678.01	480.83
678.34	477.93
678.68	475.10
679.02	472.33
679.36	469.61
679.70	466.90
680.04	464.14
680.37	461.22
680.71	458.46
681.05	455.87
681.39	453.20
681.73	450.57
682.06	448.05
682.40	445.57
682.74	443.03
683.08	440.46
683.42	437.88
683.75	435.37
684.09	432.81
684.43	430.36
684.77	427.98
685.10	425.68
685.44	423.37
685.78	421.07
686.12	418.82
686.45	416.54
686.79	414.24
687.13	412.09
687.46	409.97
687.80	407.80
688.14	405.62
688.48	403.61
688.81	401.38
689.15	399.26
689.49	397.15
689.82	395.12
690.16	393.09
690.50	391.14
690.83	389.25
691.17	387.35
691.51	385.46
691.84	383.57
692.18	381.64
692.52	379.71
692.85	377.77
693.19	375.94
693.52	374.17
693.86	372.45
694.20	370.72
694.53	368.96
694.87	367.15
695.21	365.36
695.54	363.53
695.88	361.83
696.21	360.18
696.55	358.52
696.88	356.82
697.22	355.18
697.56	353.63
697.89	351.99
698.23	350.41
698.56	348.85
698.90	347.30
699.23	345.66
699.57	344.10
699.90	342.61
700.24	341.08
700.58	339.53
700.91	338.00
701.25	336.51
701.58	335.21
701.92	333.91
702.25	332.55
702.59	331.21
702.92	329.90
703.26	328.57
703.59	327.31
703.93	326.19
704.26	324.98
704.60	323.63
704.93	322.38
705.26	321.11
705.60	319.91
705.93	318.80
706.27	317.80
706.60	316.78
706.94	315.69
707.27	314.58
707.61	313.52
707.94	312.50
708.27	311.49
708.61	310.39
708.94	309.37
709.28	308.40
709.61	307.49
709.94	306.53
710.28	305.50
710.61	304.51
710.95	303.42
711.28	302.51
711.61	301.62
711.95	300.73
712.28	299.82
712.61	298.88
712.95	297.93
713.28	297.04
713.61	296.16
713.95	295.35
714.28	294.51
714.61	293.67
714.95	292.85
715.28	291.98
715.61	291.11
715.95	290.27
716.28	289.44
716.61	288.65
716.95	287.86
717.28	287.19
717.61	286.45
717.94	285.72
718.28	284.93
718.61	284.18
718.94	283.49
719.27	282.85
719.61	282.16
719.94	281.51
720.27	280.78
720.60	280.10
720.94	279.42
721.27	278.85
721.60	278.31
721.93	277.74
722.27	277.17
722.60	276.63
722.93	276.03
723.26	275.48
723.59	274.90
723.93	274.32
724.26	273.73
724.59	273.19
724.92	272.66
725.25	272.18
725.59	271.68
725.92	271.14
726.25	270.66
726.58	270.21
726.91	269.73
727.24	269.32
727.57	268.84
727.91	268.36
728.24	267.90
728.57	267.38
728.90	266.92
729.23	266.44
729.56	266.01
729.89	265.58
730.22	265.09
730.55	264.60
730.89	264.17
731.22	263.76
731.55	263.34
731.88	262.93
732.21	262.50
732.54	262.07
732.87	261.67
733.20	261.23
733.53	260.83
733.86	260.45
734.19	260.04
734.52	259.66
734.85	259.34
735.18	258.93
735.51	258.59
735.84	258.20
736.17	257.86
736.50	257.46
736.83	257.21
737.16	256.88
737.49	256.56
737.82	256.24
738.15	255.93
738.48	255.60
738.81	255.29
739.14	254.98
739.47	254.66
739.80	254.39
740.13	254.12
740.46	253.81
740.79	253.49
741.12	253.19
741.45	252.89
741.78	252.55
742.11	252.29
742.44	251.95
742.77	251.68
743.10	251.39
743.43	251.11
743.75	250.74
744.08	250.62
744.41	250.36
744.74	250.09
745.07	249.79
745.40	249.54
745.73	249.30
746.06	249.03
746.39	248.78
746.71	248.51
747.04	248.21
747.37	247.96
747.70	247.74
748.03	247.48
748.36	247.26
748.68	247.05
749.01	246.77
749.34	246.54
749.67	246.31
750.00	246.11
750.33	245.95
750.65	245.74
750.98	245.39
751.31	245.18
751.64	244.99
751.97	244.82
752.29	244.58
752.62	244.33
752.95	244.11
753.28	243.86
753.60	243.65
753.93	243.45
754.26	243.24
754.59	243.00
754.91	242.78
755.24	242.58
755.57	242.38
755.90	242.19
756.22	242.01
756.55	241.82
756.88	241.60
757.20	241.35
757.53	241.16
757.86	241.03
758.19	240.84
758.51	240.65
758.84	240.43
759.17	240.27
759.49	240.10
759.82	239.97
760.15	239.86
760.47	239.70
760.80	239.52
761.13	239.38
761.45	239.24
761.78	239.12
762.11	238.96
762.43	238.78
762.76	238.65
763.08	238.49
763.41	238.37
763.74	238.23
764.06	238.10
764.39	237.94
764.71	237.75
765.04	237.60
765.37	237.47
765.69	237.33
766.02	237.18
766.34	237.06
766.67	236.90
767.00	236.80
767.32	236.74
767.65	236.71
767.97	236.58
768.30	236.47
768.62	236.34
768.95	236.21
769.27	236.12
769.60	236.02
769.92	235.91
770.25	235.77
770.57	235.64
770.90	235.51
771.22	235.43
771.55	235.35
771.87	235.28
772.20	235.17
772.52	235.18
772.85	235.22
773.17	235.08
773.50	234.99
773.82	234.86
774.15	234.73
774.47	234.55
774.80	234.44
775.12	234.34
775.45	234.29
775.77	234.23
776.09	234.17
776.42	234.08
776.74	234.04
777.07	233.99
777.39	233.94
777.72	233.85
778.04	233.77
778.36	233.68
778.69	233.60
779.01	233.56
779.33	233.43
779.66	233.26
779.98	233.19
780.31	233.14
780.63	233.12
780.95	233.10
781.28	233.04
781.60	232.98
781.92	232.88
782.25	232.81
782.57	232.74
782.89	232.67
783.22	232.65
783.54	232.55
783.86	232.50
784.19	232.43
784.51	232.45
784.83	232.41
785.16	232.39
785.48	232.31
785.80	232.25
786.12	232.21
786.45	232.16
786.77	232.15
787.09	232.09
787.42	232.02
787.74	231.97
788.06	231.96
788.38	231.94
788.71	231.93
789.03	231.90
789.35	231.87
789.67	231.81
789.99	231.76
790.32	231.76
790.64	231.76
790.96	231.81
791.28	231.72
791.61	231.65
791.93	231.62
792.25	231.61
792.57	231.62
792.89	231.56
793.21	231.52
793.54	231.50
793.86	231.49
794.18	231.45
794.50	231.37
794.82	231.34
795.14	231.30
795.47	231.29
795.79	231.22
796.11	231.17
796.43	231.10
796.75	231.03
797.07	230.97
797.39	230.90
797.71	230.80
798.04	230.82
798.36	230.80
798.68	230.76
799.00	230.70
799.32	230.66
799.64	230.63
799.96	230.64
800.28	230.60
800.60	230.54
800.92	230.52
801.24	230.50
801.56	230.46
801.89	230.43
802.21	230.38
802.53	230.38
802.85	230.38
803.17	230.40
803.49	230.37
803.81	230.33
804.13	230.27
804.45	230.25
804.77	230.22
805.09	230.19
805.41	230.15
805.73	230.13
806.05	230.08
806.37	230.06
806.69	230.00
807.01	229.96
807.33	229.93
807.65	229.87
807.97	229.90
808.28	229.86
808.60	229.85
808.92	229.82
809.24	229.85
809.56	229.79
809.88	229.74
810.20	229.73
810.52	229.75
810.84	229.72
811.16	229.62
811.48	229.55
811.80	229.55
812.12	229.50
812.43	229.48
812.75	229.42
813.07	229.37
813.39	229.34
813.71	229.33
814.03	229.32
814.35	229.33
814.67	229.26
814.98	229.26
815.30	229.26
815.62	229.26
815.94	229.16
816.26	229.18
816.58	229.13
816.89	229.12
817.21	229.07
817.53	229.05
817.85	229.07
818.17	229.07
818.48	229.03
818.80	229.06
819.12	229.04
819.44	229.02
819.76	229.02
820.07	229.03
820.39	229.00
820.71	228.96
821.03	228.93
821.34	228.90
821.66	228.86
821.98	228.84
822.30	228.78
822.61	228.84
822.93	228.78
823.25	228.83
823.57	228.81
823.88	228.84
824.20	228.84
824.52	228.89
824.83	228.89
825.15	228.88
825.47	228.84
825.79	228.87
826.10	228.86
826.42	228.82
826.74	228.82
827.05	228.81
827.37	228.84
827.69	228.83
828.00	228.85
828.32	228.86
828.64	228.84
828.95	228.92
829.27	228.90
829.58	228.91
829.90	228.93
830.22	228.95
830.53	228.92
830.85	228.95
831.17	228.92
831.48	228.92
831.80	228.91
832.11	228.89
832.43	228.85
832.75	228.83
833.06	228.90
833.38	228.88
833.69	228.88
834.01	228.85
834.32	228.84
834.64	228.84
834.96	228.84
835.27	228.81
835.59	228.77
835.90	228.71
836.22	228.69
836.53	228.61
836.85	228.58
837.16	228.63
837.48	228.60
837.79	228.60
838.11	228.59
838.42	228.59
838.74	228.61
839.05	228.62
839.37	228.63
839.68	228.57
840.00	228.52
840.31	228.49
840.63	228.52
840.94	228.48
841.26	228.44
841.57	228.40
841.88	228.43
842.20	228.41
842.51	228.40
842.83	228.37
843.14	228.46
843.46	228.46
843.77	228.40
844.08	228.39
844.40	228.34
844.71	228.29
845.03	228.27
845.34	228.27
845.65	228.23
845.97	228.24
846.28	228.23
846.60	228.24
846.91	228.23
847.22	228.19
847.54	228.19
847.85	228.18
848.16	228.17
848.48	228.12
848.79	228.14
849.10	228.13
849.42	228.17
849.73	228.06
850.04	228.01
850.36	227.96
850.67	227.93
850.98	227.91
851.30	227.93
851.61	227.90
851.92	227.87
852.23	227.90
852.55	227.90
852.86	227.89
853.17	227.90
853.49	227.90
853.80	227.93
854.11	227.95
854.42	227.94
854.74	227.93
855.05	227.93
855.36	227.86
855.67	227.86
855.99	227.84
856.30	227.97
856.61	227.99
856.92	228.02
857.23	228.02
857.55	228.01
857.86	227.99
858.17	228.01
858.48	227.99
858.79	227.94
859.11	227.94
859.42	227.92
859.73	227.91
860.04	227.90
860.35	227.86
860.66	227.82
860.98	227.85
861.29	227.88
861.60	227.88
861.91	227.93
862.22	227.92
862.53	227.91
862.84	227.84
863.16	227.85
863.47	227.83
863.78	227.84
864.09	227.87
864.40	227.89
864.71	227.92
865.02	227.97
865.33	227.97
865.64	227.94
865.95	227.95
866.27	228.04
866.58	228.02
866.89	228.04
867.20	228.07
867.51	228.01
867.82	227.99
868.13	228.00
868.44	228.01
868.75	228.01
869.06	228.01
869.37	228.00
869.68	228.00
869.99	228.00
870.30	228.01
870.61	228.01
870.92	228.01
871.23	227.96
871.54	227.95
871.85	227.99
872.16	228.00
872.47	228.00
872.78	227.88
873.09	227.90
873.40	227.86
873.71	227.87
874.02	227.92
874.33	227.92
874.64	227.89
874.95	227.89
875.26	227.87
875.56	227.85
875.87	227.82
876.18	227.79
876.49	227.85
876.80	227.81
877.11	227.80
877.42	227.76
877.73	227.80
878.04	227.76
878.35	227.74
878.66	227.71
878.96	227.69
879.27	227.71
879.58	227.71
879.89	227.72
880.20	227.71
880.51	227.66
880.82	227.66
881.12	227.69
881.43	227.63
881.74	227.59
882.05	227.58
882.36	227.53
882.67	227.53
882.97	227.47
883.28	227.50
883.59	227.49
883.90	227.50
884.21	227.51
884.51	227.52
884.82	227.52
885.13	227.51
885.44	227.50
885.74	227.49
886.05	227.47
886.36	227.47
886.67	227.44
886.98	227.48
887.28	227.47
887.59	227.44
887.90	227.45
888.20	227.47
888.51	227.49
888.82	227.53
889.13	227.53
889.43	227.61
889.74	227.56
890.05	227.54
890.35	227.50
890.66	227.47
890.97	227.46
891.28	227.44
891.58	227.44
891.89	227.46
892.20	227.48
892.50	227.48
892.81	227.48
893.12	227.49
893.42	227.42
893.73	227.43
894.04	227.46
894.34	227.48
894.65	227.48
894.95	227.47
895.26	227.43
895.57	227.49
895.87	227.40
896.18	227.45
896.48	227.47
896.79	227.50
897.10	227.54
897.40	227.55
897.71	227.58
898.01	227.61
898.32	227.65
898.63	227.65
898.93	227.66
899.24	227.66
899.54	227.66
899.85	227.67
900.15	227.67
900.46	227.67
900.76	227.67
901.07	227.65
901.38	227.68
901.68	227.70
901.99	227.65
902.29	227.63
902.60	227.67
902.90	227.67
903.21	227.68
903.51	227.64
903.82	227.66
904.12	227.64
904.43	227.63
904.73	227.59
905.03	227.60
905.34	227.71
905.64	227.68
905.95	227.70
906.25	227.73
906.56	227.72
906.86	227.68
907.17	227.67
907.47	227.72
907.77	227.71
908.08	227.68
908.38	227.72
908.69	227.71
908.99	227.68
909.30	227.66
909.60	227.70
909.90	227.71
910.21	227.67
910.51	227.66
910.81	227.66
911.12	227.67
911.42	227.65
911.73	227.56
912.03	227.60
912.33	227.62
912.64	227.61
912.94	227.61
913.24	227.62
913.55	227.61
913.85	227.60
914.15	227.59
914.46	227.64
914.76	227.58
915.06	227.58
915.37	227.56
915.67	227.54
915.97	227.48
916.27	227.46
916.58	227.46
916.88	227.46
917.18	227.47
917.49	227.53
917.79	227.55
918.09	227.53
918.39	227.52
918.70	227.50
919.00	227.50
919.30	227.51
919.60	227.50
919.91	227.49
920.21	227.49
920.51	227.47
920.81	227.44
921.12	227.46
921.42	227.49
921.72	227.47
922.02	227.48
922.32	227.48
922.63	227.49
922.93	227.52
923.23	227.49
923.53	227.48
923.83	227.41
924.13	227.38
924.44	227.38
924.74	227.38
925.04	227.39
925.34	227.38
925.64	227.37
925.94	227.38
926.24	227.43
926.55	227.39
926.85	227.43
927.15	227.44
927.45	227.45
927.75	227.41
928.05	227.44
928.35	227.45
928.65	227.48
928.95	227.50
929.26	227.49
929.56	227.53
929.86	227.49
930.16	227.50
930.46	227.50
930.76	227.51
931.06	227.48
931.36	227.44
931.66	227.44
931.96	227.42
932.26	227.43
932.56	227.39
932.86	227.42
933.16	227.41
933.46	227.41
933.76	227.37
934.06	227.43
934.36	227.47
934.66	227.45
934.96	227.46
935.26	227.45
935.56	227.46
935.86	227.40
936.16	227.43
936.46	227.41
936.76	227.39
937.06	227.41
937.36	227.38
937.66	227.42
937.96	227.40
938.26	227.39
938.56	227.41
938.86	227.44
939.16	227.44
939.46	227.44
939.76	227.45
940.06	227.48
940.35	227.43
940.65	227.41
940.95	227.41
941.25	227.34
941.55	227.35
941.85	227.37
942.15	227.44
942.45	227.48
942.75	227.49
943.04	227.54
943.34	227.53
943.64	227.58
943.94	227.56
944.24	227.58
944.54	227.60
944.84	227.57
945.13	227.54
945.43	227.56
945.73	227.55
946.03	227.56
946.33	227.54
946.62	227.54
946.92	227.52
947.22	227.54
947.52	227.60
947.82	227.61
948.11	227.58
948.41	227.52
948.71	227.49
949.01	227.48
949.31	227.44
949.60	227.44
949.90	227.42
950.20	227.42
950.50	227.42
950.79	227.41
951.09	227.41
951.39	227.43
951.69	227.39
951.98	227.39
952.28	227.36
952.58	227.37
952.87	227.37
953.17	227.40
953.47	227.37
953.76	227.34
954.06	227.32
954.36	227.30
954.66	227.31
954.95	227.30
955.25	227.32
955.55	227.33
955.84	227.32
956.14	227.32
956.44	227.32
956.73	227.31
957.03	227.30
957.32	227.31
957.62	227.30
957.92	227.32
958.21	227.33
958.51	227.44
958.81	227.45
959.10	227.42
959.40	227.40
959.69	227.42
959.99	227.43
960.29	227.42
960.58	227.42
960.88	227.47
961.17	227.45
961.47	227.45
961.76	227.43
962.06	227.42
962.36	227.42
962.65	227.42
962.95	227.44
963.24	227.46
963.54	227.47
963.83	227.48
964.13	227.47
964.42	227.48
964.72	227.42
965.01	227.41
965.31	227.42
965.60	227.40
965.90	227.47
966.19	227.44
966.49	227.47
966.78	227.49
967.08	227.44
967.37	227.47
967.67	227.46
967.96	227.48
968.26	227.47
968.55	227.47
968.85	227.46
969.14	227.45
969.43	227.43
969.73	227.41
970.02	227.38
970.32	227.36
970.61	227.36
970.91	227.30
971.20	227.29
971.49	227.28
971.79	227.29
972.08	227.21
972.38	227.20
972.67	227.19
972.96	227.17
973.26	227.15
973.55	227.14
973.85	227.12
974.14	227.14
974.43	227.14
974.73	227.10
975.02	227.08
975.31	227.08
975.61	227.05
975.90	227.06
976.19	227.05
976.49	227.05
976.78	227.04
977.07	227.06
977.37	227.08
977.66	227.09
977.95	227.10
978.24	227.12
978.54	227.16
978.83	227.16
979.12	227.17
979.42	227.19
979.71	227.24
980.00	227.22
980.29	227.23
980.59	227.24
980.88	227.27
981.17	227.25
981.46	227.24
981.76	227.25
982.05	227.27
982.34	227.26
982.63	227.26
982.93	227.28
983.22	227.31
983.51	227.28
983.80	227.26
984.09	227.23
984.39	227.21
984.68	227.20
984.97	227.18
985.26	227.16
985.55	227.16
985.85	227.11
986.14	227.14
986.43	227.12
986.72	227.11
987.01	227.10
987.30	227.13
987.59	227.14
987.89	227.17
988.18	227.10
988.47	227.14
988.76	227.13
989.05	227.12
989.34	227.10
989.63	227.12
989.92	227.11
990.22	227.13
990.51	227.16
990.80	227.12
991.09	227.14
991.38	227.18
991.67	227.17
991.96	227.18
992.25	227.19
992.54	227.16
992.83	227.14
993.12	227.14
993.41	227.16
993.70	227.18
993.99	227.17
994.28	227.20
994.58	227.21
994.87	227.17
995.16	227.15
995.45	227.15
995.74	227.13
996.03	227.16
996.32	227.17
996.61	227.17
996.90	227.17
997.19	227.15
997.48	227.14
997.77	227.13
998.06	227.13
998.34	227.10
998.63	227.09
998.92	227.11
999.21	227.13
999.50	227.12
999.79	227.10
1000.08	227.08
1000.37	227.09
1000.66	227.07
1000.95	227.13
1001.24	227.11
1001.53	227.13
1001.82	227.10
1002.11	227.06
1002.40	227.06
1002.68	227.06
1002.97	227.15
1003.26	227.18
1003.55	227.13
1003.84	227.12
1004.13	227.14
1004.42	227.13
1004.71	227.13
1004.99	227.12
1005.28	227.12
1005.57	227.14
1005.86	227.13
1006.15	227.14
1006.44	227.12
1006.72	227.14
1007.01	227.10
1007.30	227.13
1007.59	227.11
1007.88	227.13
1008.17	227.17
1008.45	227.19
1008.74	227.15
1009.03	227.09
1009.32	227.04
1009.60	227.06
1009.89	227.08
1010.18	227.05
1010.47	227.05
1010.76	227.06
1011.04	227.06
1011.33	227.07
1011.62	227.09
1011.91	227.10
1012.19	227.12
1012.48	227.14
1012.77	227.13
1013.05	227.19
1013.34	227.19
1013.63	227.20
1013.92	227.22
1014.20	227.17
1014.49	227.16
1014.78	227.17
1015.06	227.14
1015.35	227.19
1015.64	227.21
1015.92	227.25
1016.21	227.26
1016.50	227.28
1016.78	227.32
1017.07	227.33
1017.36	227.32
1017.64	227.27
1017.93	227.26
1018.22	227.23
1018.50	227.24
1018.79	227.27
1019.08	227.23
1019.36	227.24
1019.65	227.23
1019.93	227.24
1020.22	227.28
1020.51	227.31
1020.79	227.30
1021.08	226.91
1021.36	227.33
1021.65	227.83
1021.94	227.17
1022.22	227.38
1022.51	227.13
1022.79	227.37
1023.08	227.39
1023.36	227.97
1023.65	227.03
>>>>>End Processed Spectral Data<<<<<
