SpectraSuite Data File
++++++++++++++++++++++++++++++++++++
Date: Fri Feb 01 16:20:37 EST 2013
User: group
Dark Spectrum Present: No
Reference Spectrum Present: No
Number of Sampled Component Spectra: 1
Spectrometers: USB2E7196
Integration Time (usec): 35000 (USB2E7196)
Spectra Averaged: 100 (USB2E7196)
Boxcar Smoothing: 10 (USB2E7196)
Correct for Electrical Dark: No (USB2E7196)
Strobe/Lamp Enabled: No (USB2E7196)
Correct for Detector Non-linearity: No (USB2E7196)
Correct for Stray Light: No (USB2E7196)
Number of Pixels in Processed Spectrum: 2048
>>>>>Begin Processed Spectral Data<<<<<
339.09	0.00
339.48	214.73
339.86	215.33
340.24	216.75
340.63	218.43
341.01	221.15
341.39	220.95
341.78	222.67
342.16	223.69
342.54	224.02
342.93	212.63
343.31	223.39
343.69	223.91
344.07	224.38
344.46	224.82
344.84	225.20
345.22	225.45
345.60	225.71
345.99	225.85
346.37	226.00
346.75	226.11
347.13	226.16
347.52	226.23
347.90	226.28
348.28	226.27
348.66	226.33
349.05	226.33
349.43	226.33
349.81	226.40
350.19	226.44
350.57	226.48
350.96	226.54
351.34	226.61
351.72	226.67
352.10	226.77
352.48	226.87
352.87	226.94
353.25	226.98
353.63	227.02
354.01	227.10
354.39	227.14
354.77	227.20
355.15	227.29
355.54	227.36
355.92	227.40
356.30	227.47
356.68	227.57
357.06	227.64
357.44	227.70
357.82	227.75
358.20	227.85
358.58	227.91
358.97	227.97
359.35	228.02
359.73	228.12
360.11	228.16
360.49	228.18
360.87	228.17
361.25	228.18
361.63	228.25
362.01	228.30
362.39	228.35
362.77	228.42
363.15	228.46
363.53	228.49
363.91	228.52
364.29	228.52
364.67	228.45
365.05	228.45
365.43	228.49
365.81	228.52
366.19	228.54
366.57	228.57
366.95	228.57
367.33	228.54
367.71	228.52
368.09	228.54
368.47	228.53
368.85	228.55
369.23	228.60
369.61	228.57
369.99	228.57
370.37	228.55
370.75	228.52
371.13	228.46
371.51	228.40
371.89	228.38
372.27	228.35
372.65	228.35
373.03	228.31
373.41	228.25
373.78	228.15
374.16	228.03
374.54	227.96
374.92	227.88
375.30	227.85
375.68	227.77
376.06	227.71
376.44	227.67
376.82	227.62
377.19	227.58
377.57	227.49
377.95	227.41
378.33	227.34
378.71	227.27
379.09	227.23
379.47	227.18
379.84	227.09
380.22	227.06
380.60	226.95
380.98	226.85
381.36	226.79
381.73	226.76
382.11	226.74
382.49	226.66
382.87	226.60
383.25	226.55
383.62	226.59
384.00	226.49
384.38	226.42
384.76	226.35
385.13	226.34
385.51	226.31
385.89	226.27
386.27	226.27
386.64	226.23
387.02	226.18
387.40	226.11
387.78	226.10
388.15	226.08
388.53	226.08
388.91	226.09
389.29	226.06
389.66	226.06
390.04	226.00
390.42	226.01
390.79	225.98
391.17	225.95
391.55	225.82
391.92	225.84
392.30	225.87
392.68	225.88
393.05	225.84
393.43	225.85
393.81	225.85
394.18	225.79
394.56	225.82
394.94	225.85
395.31	225.87
395.69	225.93
396.06	225.97
396.44	225.98
396.82	225.99
397.19	226.08
397.57	226.09
397.95	226.16
398.32	226.18
398.70	226.26
399.07	226.35
399.45	226.44
399.82	226.48
400.20	226.51
400.58	226.57
400.95	226.59
401.33	226.67
401.70	226.82
402.08	226.93
402.45	227.02
402.83	227.15
403.20	227.26
403.58	227.33
403.95	227.41
404.33	227.55
404.71	227.68
405.08	227.84
405.46	227.97
405.83	228.11
406.21	228.23
406.58	228.40
406.96	228.54
407.33	228.70
407.70	228.91
408.08	229.14
408.45	229.34
408.83	229.59
409.20	229.80
409.58	229.96
409.95	230.19
410.33	230.46
410.70	230.69
411.08	230.95
411.45	231.24
411.82	231.53
412.20	231.87
412.57	232.31
412.95	232.57
413.32	232.97
413.69	233.34
414.07	233.77
414.44	234.21
414.82	234.68
415.19	235.25
415.56	235.79
415.94	236.35
416.31	237.00
416.68	237.62
417.06	238.32
417.43	239.00
417.81	239.78
418.18	240.55
418.55	241.38
418.93	242.26
419.30	243.17
419.67	244.15
420.04	245.11
420.42	246.04
420.79	247.24
421.16	248.40
421.54	249.62
421.91	250.83
422.28	252.10
422.66	253.46
423.03	254.76
423.40	256.08
423.77	257.48
424.15	258.91
424.52	260.40
424.89	262.04
425.26	263.61
425.64	265.05
426.01	266.65
426.38	268.30
426.75	269.96
427.13	271.66
427.50	273.47
427.87	275.31
428.24	277.22
428.61	278.96
428.99	280.87
429.36	282.96
429.73	285.05
430.10	287.10
430.47	289.13
430.85	291.27
431.22	293.51
431.59	295.86
431.96	298.07
432.33	300.57
432.70	302.92
433.08	305.72
433.45	308.35
433.82	310.91
434.19	313.80
434.56	316.59
434.93	319.25
435.30	321.82
435.68	324.68
436.05	327.48
436.42	330.24
436.79	332.74
437.16	335.43
437.53	338.26
437.90	341.07
438.27	343.76
438.64	346.53
439.01	349.13
439.38	351.37
439.75	353.53
440.13	355.99
440.50	358.32
440.87	360.15
441.24	362.07
441.61	364.23
441.98	365.71
442.35	367.54
442.72	369.40
443.09	371.20
443.46	372.17
443.83	372.77
444.20	373.38
444.57	374.23
444.94	374.52
445.31	374.86
445.68	375.23
446.05	375.33
446.42	374.95
446.79	374.53
447.16	374.05
447.53	373.74
447.90	372.59
448.27	371.42
448.64	369.84
449.01	368.66
449.37	366.71
449.74	364.82
450.11	362.60
450.48	360.12
450.85	357.61
451.22	355.49
451.59	353.47
451.96	351.43
452.33	348.80
452.70	346.45
453.07	343.62
453.43	340.69
453.80	337.93
454.17	335.25
454.54	332.72
454.91	330.02
455.28	327.32
455.65	324.85
456.02	322.44
456.38	320.30
456.75	317.69
457.12	315.42
457.49	313.21
457.86	311.02
458.23	309.20
458.59	307.18
458.96	305.13
459.33	303.24
459.70	301.39
460.07	299.91
460.43	298.24
460.80	296.64
461.17	295.19
461.54	293.69
461.91	292.25
462.27	290.79
462.64	289.59
463.01	288.28
463.38	286.97
463.74	285.59
464.11	284.45
464.48	283.43
464.85	282.36
465.21	281.52
465.58	280.62
465.95	279.51
466.32	278.60
466.68	277.69
467.05	276.84
467.42	275.99
467.78	275.12
468.15	274.22
468.52	273.56
468.88	272.66
469.25	271.90
469.62	271.32
469.98	270.66
470.35	270.01
470.72	269.41
471.08	268.76
471.45	268.21
471.82	267.66
472.18	267.07
472.55	266.60
472.92	266.03
473.28	265.58
473.65	265.13
474.02	264.68
474.38	264.32
474.75	264.01
475.11	263.66
475.48	263.31
475.85	263.02
476.21	262.75
476.58	262.57
476.94	262.44
477.31	262.24
477.67	262.11
478.04	262.03
478.41	261.96
478.77	262.01
479.14	261.96
479.50	261.98
479.87	262.04
480.23	262.14
480.60	262.24
480.96	262.31
481.33	262.54
481.69	262.73
482.06	262.91
482.42	263.09
482.79	263.36
483.15	263.72
483.52	264.14
483.88	264.51
484.25	264.97
484.61	265.38
484.98	265.86
485.34	266.38
485.71	266.96
486.07	267.58
486.44	268.15
486.80	268.83
487.17	269.56
487.53	270.41
487.90	271.26
488.26	272.21
488.62	273.22
488.99	274.21
489.35	275.29
489.72	276.44
490.08	277.63
490.44	278.87
490.81	280.19
491.17	281.58
491.54	283.08
491.90	284.60
492.26	286.26
492.63	288.03
492.99	289.83
493.36	291.74
493.72	293.81
494.08	295.90
494.45	298.19
494.81	300.53
495.17	302.95
495.54	305.52
495.90	308.20
496.26	311.01
496.63	314.00
496.99	317.13
497.35	320.37
497.72	323.86
498.08	327.40
498.44	331.13
498.80	335.09
499.17	339.10
499.53	343.29
499.89	347.73
500.26	352.22
500.62	356.91
500.98	361.92
501.34	366.99
501.71	372.39
502.07	377.82
502.43	383.53
502.79	389.35
503.16	395.49
503.52	401.82
503.88	408.17
504.24	414.83
504.60	421.75
504.97	428.96
505.33	436.22
505.69	443.96
506.05	451.73
506.41	459.63
506.78	467.82
507.14	476.28
507.50	484.93
507.86	493.94
508.22	503.15
508.59	512.33
508.95	521.97
509.31	531.81
509.67	542.00
510.03	552.27
510.39	562.89
510.75	573.69
511.12	584.56
511.48	595.91
511.84	607.28
512.20	618.76
512.56	630.68
512.92	642.91
513.28	655.23
513.64	667.71
514.00	680.35
514.37	693.31
514.73	706.37
515.09	719.47
515.45	732.88
515.81	746.46
516.17	760.49
516.53	774.58
516.89	788.69
517.25	802.77
517.61	817.21
517.97	831.66
518.33	845.95
518.69	860.73
519.05	875.67
519.41	890.87
519.77	906.40
520.13	921.76
520.49	937.10
520.85	952.45
521.21	968.15
521.57	984.43
521.93	1000.17
522.29	1016.49
522.65	1032.67
523.01	1048.71
523.37	1064.72
523.73	1080.75
524.09	1096.78
524.45	1113.07
524.81	1129.67
525.17	1146.36
525.53	1163.16
525.89	1180.01
526.25	1196.76
526.61	1213.10
526.97	1229.77
527.33	1246.10
527.68	1262.71
528.04	1279.08
528.40	1295.64
528.76	1312.56
529.12	1329.10
529.48	1345.83
529.84	1361.79
530.20	1378.37
530.56	1395.24
530.91	1412.58
531.27	1429.30
531.63	1445.74
531.99	1462.15
532.35	1478.11
532.71	1493.96
533.07	1510.13
533.42	1525.98
533.78	1541.92
534.14	1558.13
534.50	1573.35
534.86	1589.26
535.21	1604.41
535.57	1620.34
535.93	1635.76
536.29	1650.52
536.65	1665.39
537.00	1680.11
537.36	1695.33
537.72	1709.81
538.08	1724.38
538.44	1738.04
538.79	1751.92
539.15	1765.40
539.51	1779.12
539.87	1793.34
540.22	1806.97
540.58	1820.78
540.94	1834.11
541.29	1846.89
541.65	1859.54
542.01	1872.79
542.37	1884.92
542.72	1897.26
543.08	1909.00
543.44	1921.43
543.79	1932.57
544.15	1943.49
544.51	1955.14
544.87	1966.11
545.22	1976.73
545.58	1986.83
545.94	1996.46
546.29	2006.29
546.65	2016.10
547.01	2025.27
547.36	2033.99
547.72	2042.43
548.07	2050.11
548.43	2058.27
548.79	2066.31
549.14	2073.80
549.50	2080.95
549.86	2088.62
550.21	2095.80
550.57	2102.87
550.92	2109.29
551.28	2116.19
551.64	2123.21
551.99	2129.61
552.35	2135.84
552.70	2142.12
553.06	2148.11
553.41	2154.60
553.77	2160.55
554.13	2166.71
554.48	2173.00
554.84	2178.32
555.19	2183.61
555.55	2188.72
555.90	2193.07
556.26	2197.99
556.61	2202.71
556.97	2207.13
557.32	2211.30
557.68	2215.51
558.03	2219.73
558.39	2223.45
558.74	2228.17
559.10	2232.07
559.45	2235.67
559.81	2239.79
560.16	2243.57
560.52	2246.76
560.87	2250.09
561.23	2252.74
561.58	2255.64
561.94	2257.98
562.29	2260.46
562.64	2263.08
563.00	2265.73
563.35	2269.35
563.71	2272.46
564.06	2275.72
564.42	2278.54
564.77	2281.05
565.12	2283.31
565.48	2285.28
565.83	2287.19
566.19	2288.56
566.54	2289.58
566.89	2290.84
567.25	2291.50
567.60	2292.82
567.96	2294.65
568.31	2295.62
568.66	2296.79
569.02	2297.37
569.37	2297.83
569.72	2298.79
570.08	2299.04
570.43	2299.07
570.78	2298.41
571.14	2296.98
571.49	2295.64
571.84	2295.33
572.20	2294.31
572.55	2293.33
572.90	2291.79
573.26	2290.56
573.61	2288.90
573.96	2287.09
574.31	2284.16
574.67	2281.23
575.02	2277.76
575.37	2274.33
575.72	2270.49
576.08	2267.07
576.43	2263.78
576.78	2259.98
577.13	2256.76
577.49	2253.67
577.84	2250.22
578.19	2246.86
578.54	2243.27
578.90	2239.21
579.25	2233.78
579.60	2228.87
579.95	2223.89
580.30	2219.00
580.66	2213.89
581.01	2209.15
581.36	2204.35
581.71	2200.20
582.06	2195.80
582.42	2191.17
582.77	2185.99
583.12	2181.58
583.47	2176.97
583.82	2172.02
584.17	2166.93
584.53	2161.47
584.88	2155.87
585.23	2150.14
585.58	2144.46
585.93	2139.06
586.28	2134.15
586.63	2129.18
586.98	2124.06
587.34	2119.32
587.69	2114.46
588.04	2109.14
588.39	2103.44
588.74	2096.91
589.09	2090.70
589.44	2083.95
589.79	2078.10
590.14	2072.53
590.49	2065.88
590.84	2059.58
591.19	2053.70
591.54	2047.36
591.89	2040.01
592.25	2033.31
592.60	2026.16
592.95	2018.60
593.30	2011.22
593.65	2003.98
594.00	1996.97
594.35	1989.83
594.70	1981.88
595.05	1974.78
595.40	1967.57
595.75	1960.08
596.10	1954.02
596.45	1947.42
596.80	1941.34
597.15	1934.73
597.50	1927.53
597.85	1921.19
598.19	1914.57
598.54	1907.40
598.89	1900.77
599.24	1894.99
599.59	1888.30
599.94	1882.18
600.29	1875.76
600.64	1869.24
600.99	1861.67
601.34	1854.72
601.69	1847.85
602.04	1841.00
602.39	1833.68
602.74	1826.73
603.08	1819.98
603.43	1813.21
603.78	1805.88
604.13	1798.54
604.48	1791.20
604.83	1784.51
605.18	1777.50
605.53	1769.54
605.87	1761.63
606.22	1754.37
606.57	1746.35
606.92	1739.09
607.27	1731.97
607.62	1725.25
607.96	1718.00
608.31	1711.41
608.66	1703.87
609.01	1696.28
609.36	1688.78
609.70	1680.69
610.05	1672.78
610.40	1665.11
610.75	1656.83
611.10	1649.26
611.44	1640.98
611.79	1633.04
612.14	1624.22
612.49	1615.08
612.83	1606.73
613.18	1598.62
613.53	1590.54
613.88	1582.04
614.22	1573.71
614.57	1565.11
614.92	1557.04
615.27	1549.44
615.61	1541.06
615.96	1533.02
616.31	1525.42
616.65	1518.07
617.00	1510.51
617.35	1502.97
617.70	1494.61
618.04	1486.12
618.39	1477.83
618.74	1470.14
619.08	1461.90
619.43	1454.38
619.78	1447.46
620.12	1440.13
620.47	1432.53
620.82	1424.41
621.16	1416.95
621.51	1409.39
621.85	1401.66
622.20	1393.08
622.55	1384.77
622.89	1376.91
623.24	1369.22
623.59	1361.69
623.93	1354.13
624.28	1346.91
624.62	1339.21
624.97	1332.08
625.32	1325.29
625.66	1318.28
626.01	1311.08
626.35	1303.58
626.70	1295.89
627.04	1288.16
627.39	1280.33
627.73	1272.87
628.08	1266.00
628.43	1258.73
628.77	1251.25
629.12	1243.73
629.46	1236.65
629.81	1229.24
630.15	1221.98
630.50	1214.61
630.84	1206.47
631.19	1198.56
631.53	1191.00
631.88	1183.37
632.22	1175.71
632.57	1168.37
632.91	1160.76
633.26	1153.34
633.60	1145.91
633.95	1138.67
634.29	1131.65
634.64	1125.19
634.98	1117.89
635.32	1110.57
635.67	1103.88
636.01	1097.27
636.36	1090.42
636.70	1083.79
637.05	1077.19
637.39	1070.70
637.73	1064.19
638.08	1058.32
638.42	1052.31
638.77	1045.89
639.11	1039.41
639.45	1032.99
639.80	1026.39
640.14	1019.98
640.49	1013.54
640.83	1007.29
641.17	1001.10
641.52	994.66
641.86	988.07
642.20	982.18
642.55	975.96
642.89	969.48
643.23	963.02
643.58	957.21
643.92	951.10
644.26	944.99
644.61	938.98
644.95	932.93
645.29	926.30
645.64	919.52
645.98	913.22
646.32	907.30
646.66	901.22
647.01	895.37
647.35	889.66
647.69	883.67
648.04	878.15
648.38	872.40
648.72	866.40
649.06	860.38
649.41	854.50
649.75	848.57
650.09	842.65
650.43	836.81
650.78	830.72
651.12	824.69
651.46	818.93
651.80	813.10
652.14	807.74
652.49	802.40
652.83	797.22
653.17	791.46
653.51	785.73
653.85	780.35
654.20	774.71
654.54	768.71
654.88	763.00
655.22	757.07
655.56	751.35
655.90	746.01
656.25	740.80
656.59	735.47
656.93	730.38
657.27	725.23
657.61	719.78
657.95	714.67
658.29	709.62
658.64	704.40
658.98	699.22
659.32	693.73
659.66	688.45
660.00	683.13
660.34	678.16
660.68	673.28
661.02	668.23
661.36	663.50
661.70	658.98
662.05	654.68
662.39	650.34
662.73	645.86
663.07	641.46
663.41	636.95
663.75	632.41
664.09	627.81
664.43	623.44
664.77	619.38
665.11	615.12
665.45	611.00
665.79	606.90
666.13	602.72
666.47	598.60
666.81	594.41
667.15	590.29
667.49	586.41
667.83	582.56
668.17	578.66
668.51	574.59
668.85	570.59
669.19	566.75
669.53	562.91
669.87	559.08
670.21	555.34
670.55	551.68
670.89	548.25
671.23	544.80
671.57	541.23
671.91	537.58
672.25	534.07
672.58	530.51
672.92	527.02
673.26	523.82
673.60	520.66
673.94	517.62
674.28	514.66
674.62	511.71
674.96	508.64
675.30	505.76
675.64	502.78
675.97	499.97
676.31	497.07
676.65	494.12
676.99	491.38
677.33	488.45
677.67	485.64
678.01	482.61
678.34	479.61
678.68	476.80
679.02	473.98
679.36	471.24
679.70	468.56
680.04	465.89
680.37	463.02
680.71	460.26
681.05	457.58
681.39	454.85
681.73	452.17
682.06	449.65
682.40	447.03
682.74	444.55
683.08	441.99
683.42	439.40
683.75	436.87
684.09	434.31
684.43	431.90
684.77	429.44
685.10	427.10
685.44	424.80
685.78	422.47
686.12	420.26
686.45	417.94
686.79	415.57
687.13	413.33
687.46	411.16
687.80	408.95
688.14	406.78
688.48	404.76
688.81	402.48
689.15	400.34
689.49	398.21
689.82	396.13
690.16	394.06
690.50	392.11
690.83	390.20
691.17	388.20
691.51	386.32
691.84	384.46
692.18	382.47
692.52	380.46
692.85	378.54
693.19	376.66
693.52	374.80
693.86	373.02
694.20	371.25
694.53	369.48
694.87	367.66
695.21	365.90
695.54	364.07
695.88	362.38
696.21	360.64
696.55	358.96
696.88	357.23
697.22	355.60
697.56	353.99
697.89	352.32
698.23	350.74
698.56	349.08
698.90	347.52
699.23	345.90
699.57	344.38
699.90	342.84
700.24	341.31
700.58	339.83
700.91	338.33
701.25	336.88
701.58	335.44
701.92	334.12
702.25	332.70
702.59	331.37
702.92	330.06
703.26	328.72
703.59	327.48
703.93	326.32
704.26	325.08
704.60	323.77
704.93	322.55
705.26	321.31
705.60	320.17
705.93	318.99
706.27	317.96
706.60	316.89
706.94	315.79
707.27	314.63
707.61	313.54
707.94	312.51
708.27	311.42
708.61	310.37
708.94	309.30
709.28	308.30
709.61	307.36
709.94	306.41
710.28	305.40
710.61	304.42
710.95	303.30
711.28	302.38
711.61	301.41
711.95	300.45
712.28	299.48
712.61	298.47
712.95	297.58
713.28	296.70
713.61	295.81
713.95	294.92
714.28	294.13
714.61	293.29
714.95	292.48
715.28	291.59
715.61	290.74
715.95	289.89
716.28	289.04
716.61	288.15
716.95	287.31
717.28	286.56
717.61	285.77
717.94	285.06
718.28	284.23
718.61	283.50
718.94	282.82
719.27	282.18
719.61	281.53
719.94	280.81
720.27	280.10
720.60	279.44
720.94	278.80
721.27	278.17
721.60	277.59
721.93	276.95
722.27	276.44
722.60	275.89
722.93	275.33
723.26	274.79
723.59	274.22
723.93	273.68
724.26	273.15
724.59	272.55
724.92	272.04
725.25	271.59
725.59	271.05
725.92	270.54
726.25	270.00
726.58	269.51
726.91	269.03
727.24	268.52
727.57	268.05
727.91	267.57
728.24	267.12
728.57	266.60
728.90	266.15
729.23	265.64
729.56	265.20
729.89	264.75
730.22	264.28
730.55	263.84
730.89	263.45
731.22	263.00
731.55	262.57
731.88	262.14
732.21	261.69
732.54	261.29
732.87	260.88
733.20	260.47
733.53	260.10
733.86	259.72
734.19	259.36
734.52	258.97
734.85	258.65
735.18	258.22
735.51	257.87
735.84	257.46
736.17	257.13
736.50	256.71
736.83	256.50
737.16	256.17
737.49	255.82
737.82	255.41
738.15	255.06
738.48	254.75
738.81	254.41
739.14	254.10
739.47	253.78
739.80	253.48
740.13	253.20
740.46	252.86
740.79	252.53
741.12	252.23
741.45	251.91
741.78	251.54
742.11	251.25
742.44	250.94
742.77	250.67
743.10	250.36
743.43	250.06
743.75	249.64
744.08	249.47
744.41	249.19
744.74	248.92
745.07	248.65
745.40	248.42
745.73	248.21
746.06	247.88
746.39	247.64
746.71	247.36
747.04	247.09
747.37	246.83
747.70	246.59
748.03	246.32
748.36	246.07
748.68	245.82
749.01	245.61
749.34	245.38
749.67	245.11
750.00	244.89
750.33	244.74
750.65	244.50
750.98	244.15
751.31	243.93
751.64	243.72
751.97	243.51
752.29	243.24
752.62	242.97
752.95	242.78
753.28	242.52
753.60	242.29
753.93	242.11
754.26	241.91
754.59	241.66
754.91	241.44
755.24	241.26
755.57	241.07
755.90	240.85
756.22	240.65
756.55	240.49
756.88	240.28
757.20	240.07
757.53	239.87
757.86	239.73
758.19	239.56
758.51	239.38
758.84	239.19
759.17	239.02
759.49	238.83
759.82	238.69
760.15	238.57
760.47	238.45
760.80	238.24
761.13	238.10
761.45	237.96
761.78	237.84
762.11	237.71
762.43	237.54
762.76	237.40
763.08	237.27
763.41	237.13
763.74	237.03
764.06	236.90
764.39	236.77
764.71	236.62
765.04	236.50
765.37	236.35
765.69	236.24
766.02	236.09
766.34	236.00
766.67	235.86
767.00	235.73
767.32	235.66
767.65	235.60
767.97	235.50
768.30	235.41
768.62	235.28
768.95	235.14
769.27	235.04
769.60	234.95
769.92	234.85
770.25	234.72
770.57	234.59
770.90	234.49
771.22	234.41
771.55	234.33
771.87	234.21
772.20	234.15
772.52	234.15
772.85	234.23
773.17	234.11
773.50	234.01
773.82	233.90
774.15	233.77
774.47	233.66
774.80	233.58
775.12	233.46
775.45	233.40
775.77	233.32
776.09	233.25
776.42	233.17
776.74	233.11
777.07	233.04
777.39	232.99
777.72	232.88
778.04	232.81
778.36	232.74
778.69	232.67
779.01	232.60
779.33	232.46
779.66	232.27
779.98	232.19
780.31	232.18
780.63	232.16
780.95	232.08
781.28	232.00
781.60	231.91
781.92	231.88
782.25	231.80
782.57	231.74
782.89	231.66
783.22	231.63
783.54	231.52
783.86	231.47
784.19	231.39
784.51	231.38
784.83	231.31
785.16	231.22
785.48	231.19
785.80	231.14
786.12	231.05
786.45	230.99
786.77	230.99
787.09	230.91
787.42	230.82
787.74	230.80
788.06	230.78
788.38	230.75
788.71	230.72
789.03	230.67
789.35	230.65
789.67	230.61
789.99	230.54
790.32	230.51
790.64	230.44
790.96	230.48
791.28	230.37
791.61	230.35
791.93	230.34
792.25	230.30
792.57	230.34
792.89	230.31
793.21	230.29
793.54	230.20
793.86	230.15
794.18	230.13
794.50	230.10
794.82	230.03
795.14	229.95
795.47	229.89
795.79	229.86
796.11	229.81
796.43	229.77
796.75	229.77
797.07	229.72
797.39	229.69
797.71	229.55
798.04	229.56
798.36	229.49
798.68	229.46
799.00	229.40
799.32	229.31
799.64	229.29
799.96	229.26
800.28	229.26
800.60	229.23
800.92	229.22
801.24	229.15
801.56	229.13
801.89	229.12
802.21	229.10
802.53	229.04
802.85	229.01
803.17	229.03
803.49	228.97
803.81	228.95
804.13	228.92
804.45	228.90
804.77	228.87
805.09	228.85
805.41	228.79
805.73	228.76
806.05	228.67
806.37	228.63
806.69	228.58
807.01	228.55
807.33	228.52
807.65	228.45
807.97	228.50
808.28	228.49
808.60	228.46
808.92	228.43
809.24	228.49
809.56	228.43
809.88	228.42
810.20	228.39
810.52	228.37
810.84	228.34
811.16	228.31
811.48	228.25
811.80	228.29
812.12	228.30
812.43	228.30
812.75	228.33
813.07	228.33
813.39	228.32
813.71	228.29
814.03	228.29
814.35	228.24
814.67	228.16
814.98	228.11
815.30	228.09
815.62	228.06
815.94	227.97
816.26	228.02
816.58	227.99
816.89	227.99
817.21	227.97
817.53	228.01
817.85	228.01
818.17	228.04
818.48	228.00
818.80	227.99
819.12	227.96
819.44	227.91
819.76	227.89
820.07	227.83
820.39	227.80
820.71	227.78
821.03	227.79
821.34	227.75
821.66	227.76
821.98	227.75
822.30	227.72
822.61	227.79
822.93	227.69
823.25	227.62
823.57	227.61
823.88	227.62
824.20	227.57
824.52	227.56
824.83	227.52
825.15	227.49
825.47	227.49
825.79	227.49
826.10	227.46
826.42	227.41
826.74	227.46
827.05	227.49
827.37	227.46
827.69	227.45
828.00	227.49
828.32	227.47
828.64	227.47
828.95	227.53
829.27	227.47
829.58	227.47
829.90	227.51
830.22	227.49
830.53	227.44
830.85	227.42
831.17	227.41
831.48	227.40
831.80	227.38
832.11	227.34
832.43	227.33
832.75	227.32
833.06	227.42
833.38	227.35
833.69	227.34
834.01	227.36
834.32	227.36
834.64	227.33
834.96	227.32
835.27	227.30
835.59	227.24
835.90	227.23
836.22	227.22
836.53	227.19
836.85	227.18
837.16	227.27
837.48	227.25
837.79	227.25
838.11	227.21
838.42	227.22
838.74	227.22
839.05	227.21
839.37	227.20
839.68	227.10
840.00	227.09
840.31	227.09
840.63	227.06
840.94	227.03
841.26	227.00
841.57	226.97
841.88	226.97
842.20	226.93
842.51	226.90
842.83	226.91
843.14	227.00
843.46	226.98
843.77	226.90
844.08	226.91
844.40	226.88
844.71	226.90
845.03	226.87
845.34	226.86
845.65	226.83
845.97	226.85
846.28	226.84
846.60	226.82
846.91	226.78
847.22	226.81
847.54	226.85
847.85	226.85
848.16	226.85
848.48	226.84
848.79	226.88
849.10	226.91
849.42	226.87
849.73	226.75
850.04	226.77
850.36	226.74
850.67	226.75
850.98	226.74
851.30	226.77
851.61	226.77
851.92	226.76
852.23	226.80
852.55	226.77
852.86	226.78
853.17	226.78
853.49	226.80
853.80	226.80
854.11	226.75
854.42	226.73
854.74	226.74
855.05	226.75
855.36	226.72
855.67	226.75
855.99	226.76
856.30	226.88
856.61	226.87
856.92	226.88
857.23	226.85
857.55	226.83
857.86	226.81
858.17	226.79
858.48	226.78
858.79	226.77
859.11	226.79
859.42	226.78
859.73	226.80
860.04	226.77
860.35	226.72
860.66	226.73
860.98	226.74
861.29	226.72
861.60	226.68
861.91	226.70
862.22	226.64
862.53	226.58
862.84	226.45
863.16	226.44
863.47	226.43
863.78	226.45
864.09	226.46
864.40	226.47
864.71	226.48
865.02	226.47
865.33	226.41
865.64	226.38
865.95	226.41
866.27	226.45
866.58	226.46
866.89	226.48
867.20	226.46
867.51	226.45
867.82	226.48
868.13	226.52
868.44	226.47
868.75	226.48
869.06	226.51
869.37	226.55
869.68	226.53
869.99	226.54
870.30	226.53
870.61	226.51
870.92	226.48
871.23	226.51
871.54	226.53
871.85	226.57
872.16	226.62
872.47	226.58
872.78	226.53
873.09	226.54
873.40	226.53
873.71	226.53
874.02	226.53
874.33	226.51
874.64	226.51
874.95	226.49
875.26	226.46
875.56	226.47
875.87	226.45
876.18	226.44
876.49	226.53
876.80	226.54
877.11	226.54
877.42	226.53
877.73	226.49
878.04	226.47
878.35	226.49
878.66	226.47
878.96	226.49
879.27	226.50
879.58	226.50
879.89	226.50
880.20	226.52
880.51	226.52
880.82	226.53
881.12	226.50
881.43	226.54
881.74	226.54
882.05	226.56
882.36	226.57
882.67	226.59
882.97	226.49
883.28	226.48
883.59	226.47
883.90	226.48
884.21	226.52
884.51	226.50
884.82	226.45
885.13	226.42
885.44	226.41
885.74	226.41
886.05	226.38
886.36	226.39
886.67	226.38
886.98	226.42
887.28	226.42
887.59	226.43
887.90	226.40
888.20	226.39
888.51	226.41
888.82	226.38
889.13	226.35
889.43	226.43
889.74	226.41
890.05	226.37
890.35	226.38
890.66	226.35
890.97	226.37
891.28	226.39
891.58	226.41
891.89	226.44
892.20	226.42
892.50	226.42
892.81	226.38
893.12	226.36
893.42	226.31
893.73	226.32
894.04	226.32
894.34	226.34
894.65	226.35
894.95	226.29
895.26	226.31
895.57	226.38
895.87	226.28
896.18	226.31
896.48	226.35
896.79	226.34
897.10	226.36
897.40	226.36
897.71	226.36
898.01	226.35
898.32	226.31
898.63	226.30
898.93	226.31
899.24	226.33
899.54	226.33
899.85	226.32
900.15	226.29
900.46	226.32
900.76	226.34
901.07	226.33
901.38	226.35
901.68	226.37
901.99	226.33
902.29	226.34
902.60	226.31
902.90	226.29
903.21	226.28
903.51	226.29
903.82	226.29
904.12	226.28
904.43	226.28
904.73	226.29
905.03	226.31
905.34	226.38
905.64	226.36
905.95	226.32
906.25	226.31
906.56	226.32
906.86	226.31
907.17	226.27
907.47	226.28
907.77	226.23
908.08	226.20
908.38	226.18
908.69	226.22
908.99	226.25
909.30	226.26
909.60	226.25
909.90	226.23
910.21	226.19
910.51	226.21
910.81	226.19
911.12	226.22
911.42	226.21
911.73	226.09
912.03	226.10
912.33	226.14
912.64	226.15
912.94	226.10
913.24	226.05
913.55	226.03
913.85	226.02
914.15	226.06
914.46	226.06
914.76	226.05
915.06	226.02
915.37	225.99
915.67	226.00
915.97	226.01
916.27	226.02
916.58	226.01
916.88	225.99
917.18	225.99
917.49	226.04
917.79	226.06
918.09	226.06
918.39	226.10
918.70	226.09
919.00	226.08
919.30	226.12
919.60	226.13
919.91	226.12
920.21	226.10
920.51	226.08
920.81	226.06
921.12	226.10
921.42	226.07
921.72	226.06
922.02	226.08
922.32	226.10
922.63	226.08
922.93	226.14
923.23	226.13
923.53	226.13
923.83	226.10
924.13	226.08
924.44	226.14
924.74	226.15
925.04	226.17
925.34	226.18
925.64	226.17
925.94	226.15
926.24	226.25
926.55	226.26
926.85	226.28
927.15	226.27
927.45	226.27
927.75	226.28
928.05	226.28
928.35	226.25
928.65	226.26
928.95	226.28
929.26	226.23
929.56	226.27
929.86	226.29
930.16	226.24
930.46	226.25
930.76	226.25
931.06	226.22
931.36	226.19
931.66	226.24
931.96	226.23
932.26	226.28
932.56	226.23
932.86	226.24
933.16	226.23
933.46	226.25
933.76	226.26
934.06	226.29
934.36	226.35
934.66	226.36
934.96	226.34
935.26	226.35
935.56	226.38
935.86	226.35
936.16	226.32
936.46	226.34
936.76	226.35
937.06	226.32
937.36	226.33
937.66	226.34
937.96	226.31
938.26	226.33
938.56	226.30
938.86	226.29
939.16	226.32
939.46	226.33
939.76	226.37
940.06	226.35
940.35	226.37
940.65	226.29
940.95	226.29
941.25	226.27
941.55	226.28
941.85	226.26
942.15	226.26
942.45	226.28
942.75	226.28
943.04	226.26
943.34	226.25
943.64	226.22
943.94	226.20
944.24	226.19
944.54	226.17
944.84	226.17
945.13	226.17
945.43	226.14
945.73	226.17
946.03	226.14
946.33	226.10
946.62	226.03
946.92	226.04
947.22	226.01
947.52	226.03
947.82	226.03
948.11	226.03
948.41	226.00
948.71	225.98
949.01	225.99
949.31	225.97
949.60	225.98
949.90	225.99
950.20	225.96
950.50	225.95
950.79	225.92
951.09	225.91
951.39	225.91
951.69	225.90
951.98	225.88
952.28	225.86
952.58	225.88
952.87	225.87
953.17	225.89
953.47	225.92
953.76	225.92
954.06	225.90
954.36	225.85
954.66	225.86
954.95	225.89
955.25	225.87
955.55	225.90
955.84	225.89
956.14	225.88
956.44	225.90
956.73	225.88
957.03	225.91
957.32	225.92
957.62	225.90
957.92	225.92
958.21	225.90
958.51	226.03
958.81	226.04
959.10	226.05
959.40	226.08
959.69	226.08
959.99	226.08
960.29	226.09
960.58	226.13
960.88	226.14
961.17	226.11
961.47	226.11
961.76	226.08
962.06	226.07
962.36	226.05
962.65	226.06
962.95	226.08
963.24	226.10
963.54	226.14
963.83	226.13
964.13	226.14
964.42	226.16
964.72	226.06
965.01	226.05
965.31	226.08
965.60	226.06
965.90	226.09
966.19	226.08
966.49	226.08
966.78	226.06
967.08	226.07
967.37	226.07
967.67	226.09
967.96	226.13
968.26	226.16
968.55	226.21
968.85	226.22
969.14	226.21
969.43	226.19
969.73	226.18
970.02	226.20
970.32	226.18
970.61	226.14
970.91	226.12
971.20	226.12
971.49	226.12
971.79	226.11
972.08	226.05
972.38	226.09
972.67	226.08
972.96	226.12
973.26	226.08
973.55	226.13
973.85	226.11
974.14	226.12
974.43	226.14
974.73	226.13
975.02	226.13
975.31	226.14
975.61	226.14
975.90	226.15
976.19	226.11
976.49	226.12
976.78	226.17
977.07	226.19
977.37	226.22
977.66	226.23
977.95	226.21
978.24	226.24
978.54	226.25
978.83	226.24
979.12	226.18
979.42	226.20
979.71	226.16
980.00	226.14
980.29	226.15
980.59	226.10
980.88	226.11
981.17	226.08
981.46	226.06
981.76	226.05
982.05	226.08
982.34	226.11
982.63	226.12
982.93	226.10
983.22	226.10
983.51	226.10
983.80	226.12
984.09	226.11
984.39	226.09
984.68	226.02
984.97	226.02
985.26	226.05
985.55	226.06
985.85	226.02
986.14	226.02
986.43	225.99
986.72	225.99
987.01	225.96
987.30	225.97
987.59	225.98
987.89	225.99
988.18	225.92
988.47	225.90
988.76	225.89
989.05	225.87
989.34	225.85
989.63	225.82
989.92	225.77
990.22	225.80
990.51	225.79
990.80	225.81
991.09	225.80
991.38	225.80
991.67	225.77
991.96	225.78
992.25	225.78
992.54	225.78
992.83	225.77
993.12	225.77
993.41	225.79
993.70	225.79
993.99	225.78
994.28	225.77
994.58	225.78
994.87	225.77
995.16	225.77
995.45	225.77
995.74	225.77
996.03	225.81
996.32	225.80
996.61	225.79
996.90	225.76
997.19	225.77
997.48	225.78
997.77	225.77
998.06	225.76
998.34	225.77
998.63	225.78
998.92	225.76
999.21	225.79
999.50	225.78
999.79	225.76
1000.08	225.77
1000.37	225.80
1000.66	225.78
1000.95	225.80
1001.24	225.79
1001.53	225.79
1001.82	225.78
1002.11	225.77
1002.40	225.77
1002.68	225.84
1002.97	225.96
1003.26	225.96
1003.55	225.94
1003.84	225.95
1004.13	226.01
1004.42	226.01
1004.71	226.03
1004.99	226.07
1005.28	226.04
1005.57	226.08
1005.86	226.14
1006.15	226.15
1006.44	226.17
1006.72	226.22
1007.01	226.21
1007.30	226.24
1007.59	226.27
1007.88	226.27
1008.17	226.29
1008.45	226.30
1008.74	226.25
1009.03	226.18
1009.32	226.18
1009.60	226.19
1009.89	226.24
1010.18	226.20
1010.47	226.24
1010.76	226.24
1011.04	226.24
1011.33	226.28
1011.62	226.26
1011.91	226.22
1012.19	226.21
1012.48	226.20
1012.77	226.19
1013.05	226.23
1013.34	226.25
1013.63	226.24
1013.92	226.26
1014.20	226.22
1014.49	226.23
1014.78	226.25
1015.06	226.24
1015.35	226.26
1015.64	226.29
1015.92	226.25
1016.21	226.26
1016.50	226.19
1016.78	226.15
1017.07	226.12
1017.36	226.09
1017.64	226.06
1017.93	226.06
1018.22	226.07
1018.50	226.07
1018.79	226.04
1019.08	225.98
1019.36	225.95
1019.65	225.93
1019.93	225.93
1020.22	225.93
1020.51	225.98
1020.79	225.93
1021.08	226.15
1021.36	226.04
1021.65	225.84
1021.94	225.67
1022.22	225.84
1022.51	225.95
1022.79	226.12
1023.08	225.93
1023.36	227.15
1023.65	225.38
>>>>>End Processed Spectral Data<<<<<
