SpectraSuite Data File
++++++++++++++++++++++++++++++++++++
Date: Fri Feb 01 15:03:16 EST 2013
User: group
Dark Spectrum Present: No
Reference Spectrum Present: No
Number of Sampled Component Spectra: 1
Spectrometers: USB2E7196
Integration Time (usec): 35000 (USB2E7196)
Spectra Averaged: 100 (USB2E7196)
Boxcar Smoothing: 10 (USB2E7196)
Correct for Electrical Dark: No (USB2E7196)
Strobe/Lamp Enabled: No (USB2E7196)
Correct for Detector Non-linearity: No (USB2E7196)
Correct for Stray Light: No (USB2E7196)
Number of Pixels in Processed Spectrum: 2048
>>>>>Begin Processed Spectral Data<<<<<
339.09	0.00
339.48	215.68
339.86	217.35
340.24	218.14
340.63	219.76
341.01	221.69
341.39	221.54
341.78	223.00
342.16	224.25
342.54	224.55
342.93	213.41
343.31	224.18
343.69	224.71
344.07	225.15
344.46	225.57
344.84	225.96
345.22	226.21
345.60	226.50
345.99	226.69
346.37	226.82
346.75	226.94
347.13	227.04
347.52	227.10
347.90	227.17
348.28	227.20
348.66	227.25
349.05	227.28
349.43	227.32
349.81	227.33
350.19	227.38
350.57	227.39
350.96	227.46
351.34	227.53
351.72	227.63
352.10	227.72
352.48	227.83
352.87	227.86
353.25	227.96
353.63	228.02
354.01	228.13
354.39	228.20
354.77	228.29
355.15	228.37
355.54	228.44
355.92	228.50
356.30	228.57
356.68	228.71
357.06	228.76
357.44	228.85
357.82	228.91
358.20	229.00
358.58	229.10
358.97	229.17
359.35	229.29
359.73	229.33
360.11	229.38
360.49	229.40
360.87	229.45
361.25	229.49
361.63	229.55
362.01	229.58
362.39	229.58
362.77	229.62
363.15	229.63
363.53	229.62
363.91	229.62
364.29	229.65
364.67	229.58
365.05	229.58
365.43	229.58
365.81	229.62
366.19	229.62
366.57	229.64
366.95	229.63
367.33	229.57
367.71	229.56
368.09	229.53
368.47	229.49
368.85	229.44
369.23	229.41
369.61	229.35
369.99	229.35
370.37	229.37
370.75	229.37
371.13	229.30
371.51	229.29
371.89	229.27
372.27	229.25
372.65	229.18
373.03	229.12
373.41	229.03
373.78	228.93
374.16	228.85
374.54	228.73
374.92	228.65
375.30	228.58
375.68	228.51
376.06	228.49
376.44	228.42
376.82	228.35
377.19	228.29
377.57	228.20
377.95	228.07
378.33	227.97
378.71	227.83
379.09	227.76
379.47	227.64
379.84	227.55
380.22	227.43
380.60	227.33
380.98	227.24
381.36	227.18
381.73	227.11
382.11	227.06
382.49	227.01
382.87	226.91
383.25	226.82
383.62	226.84
384.00	226.76
384.38	226.69
384.76	226.63
385.13	226.58
385.51	226.51
385.89	226.43
386.27	226.37
386.64	226.34
387.02	226.30
387.40	226.25
387.78	226.21
388.15	226.19
388.53	226.18
388.91	226.16
389.29	226.14
389.66	226.11
390.04	226.04
390.42	226.03
390.79	226.02
391.17	226.02
391.55	225.92
391.92	225.90
392.30	225.92
392.68	225.91
393.05	225.94
393.43	225.97
393.81	226.02
394.18	226.06
394.56	226.08
394.94	226.13
395.31	226.17
395.69	226.22
396.06	226.27
396.44	226.34
396.82	226.36
397.19	226.47
397.57	226.52
397.95	226.64
398.32	226.67
398.70	226.78
399.07	226.91
399.45	226.96
399.82	227.02
400.20	227.10
400.58	227.20
400.95	227.27
401.33	227.39
401.70	227.57
402.08	227.66
402.45	227.78
402.83	227.93
403.20	228.08
403.58	228.17
403.95	228.32
404.33	228.42
404.71	228.58
405.08	228.73
405.46	228.91
405.83	229.04
406.21	229.23
406.58	229.37
406.96	229.51
407.33	229.71
407.70	229.94
408.08	230.23
408.45	230.44
408.83	230.66
409.20	230.87
409.58	231.03
409.95	231.32
410.33	231.57
410.70	231.82
411.08	232.11
411.45	232.46
411.82	232.79
412.20	233.18
412.57	233.58
412.95	233.89
413.32	234.32
413.69	234.74
414.07	235.17
414.44	235.66
414.82	236.16
415.19	236.73
415.56	237.29
415.94	237.79
416.31	238.46
416.68	239.10
417.06	239.83
417.43	240.54
417.81	241.29
418.18	242.08
418.55	242.91
418.93	243.79
419.30	244.71
419.67	245.60
420.04	246.54
420.42	247.54
420.79	248.77
421.16	249.87
421.54	251.07
421.91	252.29
422.28	253.51
422.66	254.82
423.03	256.10
423.40	257.39
423.77	258.78
424.15	260.18
424.52	261.65
424.89	263.23
425.26	264.76
425.64	266.19
426.01	267.77
426.38	269.43
426.75	271.09
427.13	272.78
427.50	274.63
427.87	276.51
428.24	278.36
428.61	280.07
428.99	282.02
429.36	284.10
429.73	286.16
430.10	288.21
430.47	290.24
430.85	292.35
431.22	294.60
431.59	297.02
431.96	299.24
432.33	301.76
432.70	304.17
433.08	306.95
433.45	309.60
433.82	312.25
434.19	315.15
434.56	317.97
434.93	320.59
435.30	323.19
435.68	326.07
436.05	328.90
436.42	331.70
436.79	334.21
437.16	336.93
437.53	339.77
437.90	342.53
438.27	345.29
438.64	348.13
439.01	350.74
439.38	352.95
439.75	355.16
440.13	357.66
440.50	359.99
440.87	361.87
441.24	363.85
441.61	365.97
441.98	367.45
442.35	369.27
442.72	371.18
443.09	372.98
443.46	374.02
443.83	374.62
444.20	375.11
444.57	375.98
444.94	376.29
445.31	376.64
445.68	377.07
446.05	377.16
446.42	376.79
446.79	376.37
447.16	375.96
447.53	375.68
447.90	374.47
448.27	373.33
448.64	371.78
449.01	370.65
449.37	368.71
449.74	366.85
450.11	364.57
450.48	362.10
450.85	359.54
451.22	357.36
451.59	355.33
451.96	353.40
452.33	350.78
452.70	348.35
453.07	345.50
453.43	342.56
453.80	339.78
454.17	337.10
454.54	334.57
454.91	331.88
455.28	329.15
455.65	326.66
456.02	324.23
456.38	322.02
456.75	319.35
457.12	317.09
457.49	314.86
457.86	312.68
458.23	310.85
458.59	308.82
458.96	306.77
459.33	304.93
459.70	303.10
460.07	301.61
460.43	299.91
460.80	298.33
461.17	296.92
461.54	295.42
461.91	293.98
462.27	292.52
462.64	291.23
463.01	289.90
463.38	288.60
463.74	287.22
464.11	286.07
464.48	285.03
464.85	283.92
465.21	283.06
465.58	282.11
465.95	281.00
466.32	280.09
466.68	279.17
467.05	278.25
467.42	277.32
467.78	276.35
468.15	275.49
468.52	274.76
468.88	273.87
469.25	273.06
469.62	272.42
469.98	271.72
470.35	271.06
470.72	270.41
471.08	269.75
471.45	269.19
471.82	268.65
472.18	268.03
472.55	267.59
472.92	267.02
473.28	266.52
473.65	266.02
474.02	265.55
474.38	265.17
474.75	264.82
475.11	264.46
475.48	264.15
475.85	263.90
476.21	263.67
476.58	263.49
476.94	263.37
477.31	263.15
477.67	263.03
478.04	262.90
478.41	262.86
478.77	262.86
479.14	262.77
479.50	262.73
479.87	262.78
480.23	262.82
480.60	262.87
480.96	262.94
481.33	263.14
481.69	263.33
482.06	263.47
482.42	263.64
482.79	263.88
483.15	264.20
483.52	264.56
483.88	264.90
484.25	265.26
484.61	265.69
484.98	266.20
485.34	266.72
485.71	267.31
486.07	267.95
486.44	268.52
486.80	269.25
487.17	269.96
487.53	270.76
487.90	271.60
488.26	272.56
488.62	273.57
488.99	274.57
489.35	275.64
489.72	276.79
490.08	278.05
490.44	279.29
490.81	280.64
491.17	281.98
491.54	283.47
491.90	285.00
492.26	286.59
492.63	288.27
492.99	290.05
493.36	291.92
493.72	293.90
494.08	295.97
494.45	298.14
494.81	300.49
495.17	302.92
495.54	305.47
495.90	308.11
496.26	310.88
496.63	313.81
496.99	316.87
497.35	320.14
497.72	323.52
498.08	327.04
498.44	330.68
498.80	334.60
499.17	338.58
499.53	342.75
499.89	347.14
500.26	351.65
500.62	356.32
500.98	361.28
501.34	366.37
501.71	371.72
502.07	377.16
502.43	382.80
502.79	388.63
503.16	394.71
503.52	401.01
503.88	407.42
504.24	414.06
504.60	420.99
504.97	428.06
505.33	435.34
505.69	443.00
506.05	450.77
506.41	458.66
506.78	466.82
507.14	475.32
507.50	484.03
507.86	493.03
508.22	502.21
508.59	511.43
508.95	520.98
509.31	530.75
509.67	540.83
510.03	551.09
510.39	561.63
510.75	572.39
511.12	583.30
511.48	594.59
511.84	606.04
512.20	617.54
512.56	629.52
512.92	641.72
513.28	654.00
513.64	666.45
514.00	679.18
514.37	692.05
514.73	704.96
515.09	717.95
515.45	731.19
515.81	744.79
516.17	758.73
516.53	772.85
516.89	787.07
517.25	801.38
517.61	815.85
517.97	830.27
518.33	844.71
518.69	859.47
519.05	874.52
519.41	889.73
519.77	905.27
520.13	920.76
520.49	936.17
520.85	951.71
521.21	967.45
521.57	983.65
521.93	999.58
522.29	1016.08
522.65	1032.45
523.01	1048.77
523.37	1064.89
523.73	1081.14
524.09	1097.35
524.45	1113.67
524.81	1130.31
525.17	1147.17
525.53	1164.24
525.89	1181.16
526.25	1198.05
526.61	1214.46
526.97	1231.21
527.33	1247.78
527.68	1264.45
528.04	1280.90
528.40	1297.61
528.76	1314.76
529.12	1331.45
529.48	1348.33
529.84	1364.40
530.20	1381.09
530.56	1398.20
530.91	1415.58
531.27	1432.39
531.63	1448.87
531.99	1465.59
532.35	1481.61
532.71	1497.53
533.07	1513.76
533.42	1529.71
533.78	1545.81
534.14	1562.12
534.50	1577.57
534.86	1593.56
535.21	1608.76
535.57	1624.89
535.93	1640.43
536.29	1655.26
536.65	1670.47
537.00	1685.45
537.36	1701.05
537.72	1715.72
538.08	1730.17
538.44	1744.12
538.79	1758.21
539.15	1772.12
539.51	1785.99
539.87	1800.53
540.22	1814.36
540.58	1828.30
540.94	1841.85
541.29	1854.89
541.65	1867.74
542.01	1881.12
542.37	1893.40
542.72	1906.03
543.08	1917.88
543.44	1930.40
543.79	1941.83
544.15	1952.85
544.51	1964.40
544.87	1975.29
545.22	1986.11
545.58	1996.43
545.94	2006.36
546.29	2016.28
546.65	2026.00
547.01	2035.20
547.36	2043.93
547.72	2052.44
548.07	2060.31
548.43	2068.53
548.79	2076.56
549.14	2084.08
549.50	2091.41
549.86	2099.20
550.21	2106.46
550.57	2113.64
550.92	2120.15
551.28	2127.36
551.64	2134.49
551.99	2140.98
552.35	2147.17
552.70	2153.26
553.06	2159.19
553.41	2165.42
553.77	2171.39
554.13	2177.64
554.48	2183.72
554.84	2189.09
555.19	2194.48
555.55	2199.57
555.90	2203.88
556.26	2208.82
556.61	2213.54
556.97	2217.68
557.32	2221.80
557.68	2225.90
558.03	2230.17
558.39	2233.89
558.74	2238.42
559.10	2242.21
559.45	2245.92
559.81	2250.29
560.16	2253.95
560.52	2257.05
560.87	2260.43
561.23	2262.96
561.58	2265.74
561.94	2268.27
562.29	2270.52
562.64	2273.08
563.00	2275.74
563.35	2279.23
563.71	2282.25
564.06	2285.36
564.42	2288.15
564.77	2290.44
565.12	2292.68
565.48	2294.33
565.83	2296.04
566.19	2296.98
566.54	2297.73
566.89	2298.68
567.25	2298.88
567.60	2300.36
567.96	2301.94
568.31	2302.69
568.66	2303.58
569.02	2304.14
569.37	2304.33
569.72	2305.23
570.08	2305.26
570.43	2304.97
570.78	2304.11
571.14	2302.46
571.49	2301.03
571.84	2300.73
572.20	2299.36
572.55	2298.11
572.90	2296.54
573.26	2295.09
573.61	2293.48
573.96	2291.45
574.31	2288.34
574.67	2285.24
575.02	2281.39
575.37	2277.82
575.72	2273.94
576.08	2270.65
576.43	2266.99
576.78	2263.23
577.13	2259.87
577.49	2256.58
577.84	2252.98
578.19	2249.38
578.54	2245.45
578.90	2241.01
579.25	2235.19
579.60	2230.14
579.95	2224.99
580.30	2219.93
580.66	2214.64
581.01	2209.45
581.36	2204.60
581.71	2200.27
582.06	2195.79
582.42	2191.18
582.77	2185.82
583.12	2181.01
583.47	2175.96
583.82	2170.78
584.17	2165.29
584.53	2159.58
584.88	2153.79
585.23	2147.87
585.58	2142.14
585.93	2136.64
586.28	2131.89
586.63	2126.76
586.98	2121.74
587.34	2117.05
587.69	2111.85
588.04	2106.43
588.39	2100.63
588.74	2094.06
589.09	2087.74
589.44	2080.83
589.79	2074.68
590.14	2069.03
590.49	2062.33
590.84	2055.96
591.19	2049.91
591.54	2043.43
591.89	2035.94
592.25	2029.14
592.60	2021.88
592.95	2014.29
593.30	2006.86
593.65	1999.04
594.00	1991.98
594.35	1984.60
594.70	1976.31
595.05	1969.10
595.40	1961.76
595.75	1954.12
596.10	1947.81
596.45	1940.93
596.80	1934.66
597.15	1927.91
597.50	1920.67
597.85	1914.18
598.19	1907.39
598.54	1900.23
598.89	1893.68
599.24	1887.74
599.59	1880.97
599.94	1874.59
600.29	1868.11
600.64	1861.52
600.99	1854.07
601.34	1847.13
601.69	1840.08
602.04	1833.20
602.39	1825.82
602.74	1818.92
603.08	1812.29
603.43	1805.49
603.78	1798.27
604.13	1790.98
604.48	1783.73
604.83	1776.95
605.18	1770.04
605.53	1762.01
605.87	1754.09
606.22	1746.68
606.57	1738.80
606.92	1731.45
607.27	1724.35
607.62	1717.44
607.96	1710.01
608.31	1703.29
608.66	1695.60
609.01	1688.00
609.36	1680.47
609.70	1672.34
610.05	1664.23
610.40	1656.49
610.75	1648.14
611.10	1640.62
611.44	1632.31
611.79	1624.26
612.14	1615.57
612.49	1606.43
612.83	1598.13
613.18	1589.99
613.53	1581.97
613.88	1573.37
614.22	1565.04
614.57	1556.58
614.92	1548.51
615.27	1541.00
615.61	1532.75
615.96	1524.71
616.31	1517.20
616.65	1509.69
617.00	1502.37
617.35	1494.68
617.70	1486.28
618.04	1477.80
618.39	1469.41
618.74	1461.83
619.08	1453.70
619.43	1446.22
619.78	1439.30
620.12	1432.04
620.47	1424.52
620.82	1416.40
621.16	1409.07
621.51	1401.48
621.85	1393.85
622.20	1385.33
622.55	1377.05
622.89	1369.27
623.24	1361.66
623.59	1354.38
623.93	1347.03
624.28	1339.72
624.62	1332.22
624.97	1325.15
625.32	1318.46
625.66	1311.51
626.01	1304.29
626.35	1296.63
626.70	1288.91
627.04	1281.27
627.39	1273.69
627.73	1266.21
628.08	1259.24
628.43	1251.88
628.77	1244.60
629.12	1236.97
629.46	1229.90
629.81	1222.59
630.15	1215.40
630.50	1208.15
630.84	1200.03
631.19	1192.19
631.53	1184.77
631.88	1177.38
632.22	1169.83
632.57	1162.58
632.91	1155.10
633.26	1147.72
633.60	1140.63
633.95	1133.58
634.29	1126.46
634.64	1119.81
634.98	1112.51
635.32	1105.44
635.67	1099.00
636.01	1092.41
636.36	1085.76
636.70	1079.37
637.05	1072.81
637.39	1066.34
637.73	1059.87
638.08	1053.94
638.42	1047.95
638.77	1041.56
639.11	1034.93
639.45	1028.61
639.80	1021.92
640.14	1015.48
640.49	1009.05
640.83	1002.67
641.17	996.42
641.52	990.19
641.86	983.86
642.20	978.16
642.55	971.89
642.89	965.33
643.23	958.92
643.58	953.11
643.92	946.83
644.26	940.80
644.61	934.90
644.95	928.83
645.29	922.24
645.64	915.55
645.98	909.26
646.32	903.48
646.66	897.49
647.01	891.74
647.35	886.13
647.69	880.32
648.04	874.92
648.38	869.20
648.72	863.19
649.06	857.05
649.41	851.18
649.75	845.19
650.09	839.28
650.43	833.35
650.78	827.30
651.12	821.46
651.46	815.71
651.80	809.82
652.14	804.47
652.49	799.12
652.83	793.93
653.17	788.20
653.51	782.47
653.85	777.01
654.20	771.33
654.54	765.36
654.88	759.65
655.22	753.76
655.56	748.05
655.90	742.62
656.25	737.45
656.59	732.15
656.93	727.09
657.27	721.97
657.61	716.59
657.95	711.44
658.29	706.35
658.64	701.16
658.98	695.99
659.32	690.55
659.66	685.38
660.00	680.07
660.34	675.14
660.68	670.27
661.02	665.30
661.36	660.64
661.70	656.20
662.05	651.83
662.39	647.48
662.73	643.06
663.07	638.67
663.41	634.15
663.75	629.62
664.09	625.11
664.43	620.78
664.77	616.71
665.11	612.45
665.45	608.40
665.79	604.29
666.13	600.17
666.47	596.16
666.81	591.95
667.15	587.89
667.49	584.06
667.83	580.25
668.17	576.33
668.51	572.27
668.85	568.28
669.19	564.42
669.53	560.59
669.87	556.69
670.21	553.06
670.55	549.50
670.89	546.12
671.23	542.68
671.57	539.11
671.91	535.58
672.25	532.17
672.58	528.68
672.92	525.29
673.26	522.15
673.60	518.98
673.94	515.96
674.28	513.09
674.62	510.18
674.96	507.14
675.30	504.23
675.64	501.33
675.97	498.53
676.31	495.74
676.65	492.81
676.99	490.15
677.33	487.32
677.67	484.54
678.01	481.49
678.34	478.55
678.68	475.80
679.02	473.03
679.36	470.31
679.70	467.54
680.04	464.85
680.37	462.00
680.71	459.24
681.05	456.69
681.39	454.00
681.73	451.39
682.06	448.84
682.40	446.37
682.74	443.88
683.08	441.36
683.42	438.77
683.75	436.37
684.09	433.87
684.43	431.38
684.77	428.97
685.10	426.69
685.44	424.45
685.78	422.15
686.12	419.92
686.45	417.65
686.79	415.38
687.13	413.16
687.46	411.02
687.80	408.89
688.14	406.68
688.48	404.60
688.81	402.31
689.15	400.22
689.49	398.06
689.82	395.99
690.16	393.93
690.50	392.01
690.83	390.07
691.17	388.07
691.51	386.25
691.84	384.39
692.18	382.42
692.52	380.39
692.85	378.47
693.19	376.59
693.52	374.78
693.86	373.00
694.20	371.27
694.53	369.52
694.87	367.69
695.21	365.92
695.54	364.13
695.88	362.44
696.21	360.72
696.55	359.08
696.88	357.41
697.22	355.75
697.56	354.13
697.89	352.47
698.23	350.85
698.56	349.17
698.90	347.55
699.23	345.95
699.57	344.40
699.90	342.87
700.24	341.31
700.58	339.75
700.91	338.23
701.25	336.76
701.58	335.37
701.92	334.01
702.25	332.63
702.59	331.23
702.92	329.89
703.26	328.59
703.59	327.28
703.93	326.09
704.26	324.90
704.60	323.61
704.93	322.28
705.26	321.05
705.60	319.91
705.93	318.79
706.27	317.77
706.60	316.73
706.94	315.65
707.27	314.52
707.61	313.50
707.94	312.54
708.27	311.47
708.61	310.37
708.94	309.32
709.28	308.34
709.61	307.39
709.94	306.44
710.28	305.45
710.61	304.49
710.95	303.41
711.28	302.48
711.61	301.51
711.95	300.62
712.28	299.69
712.61	298.71
712.95	297.74
713.28	296.84
713.61	295.94
713.95	295.05
714.28	294.24
714.61	293.35
714.95	292.47
715.28	291.64
715.61	290.75
715.95	289.94
716.28	289.07
716.61	288.22
716.95	287.44
717.28	286.72
717.61	285.95
717.94	285.25
718.28	284.44
718.61	283.78
718.94	283.09
719.27	282.45
719.61	281.84
719.94	281.24
720.27	280.57
720.60	279.94
720.94	279.35
721.27	278.73
721.60	278.20
721.93	277.64
722.27	277.10
722.60	276.58
722.93	276.00
723.26	275.53
723.59	275.02
723.93	274.47
724.26	273.91
724.59	273.38
724.92	272.85
725.25	272.39
725.59	271.85
725.92	271.36
726.25	270.88
726.58	270.37
726.91	269.88
727.24	269.38
727.57	268.92
727.91	268.40
728.24	267.96
728.57	267.45
728.90	267.01
729.23	266.51
729.56	266.10
729.89	265.65
730.22	265.17
730.55	264.71
730.89	264.29
731.22	263.85
731.55	263.42
731.88	263.00
732.21	262.54
732.54	262.12
732.87	261.71
733.20	261.30
733.53	260.92
733.86	260.56
734.19	260.15
734.52	259.74
734.85	259.42
735.18	259.02
735.51	258.67
735.84	258.27
736.17	257.90
736.50	257.48
736.83	257.23
737.16	256.88
737.49	256.53
737.82	256.14
738.15	255.80
738.48	255.43
738.81	255.09
739.14	254.77
739.47	254.44
739.80	254.10
740.13	253.79
740.46	253.43
740.79	253.06
741.12	252.76
741.45	252.47
741.78	252.13
742.11	251.85
742.44	251.51
742.77	251.24
743.10	250.94
743.43	250.65
743.75	250.25
744.08	250.08
744.41	249.82
744.74	249.55
745.07	249.26
745.40	249.00
745.73	248.73
746.06	248.43
746.39	248.17
746.71	247.90
747.04	247.57
747.37	247.37
747.70	247.12
748.03	246.83
748.36	246.61
748.68	246.35
749.01	246.07
749.34	245.83
749.67	245.58
750.00	245.37
750.33	245.24
750.65	245.05
750.98	244.69
751.31	244.42
751.64	244.21
751.97	244.05
752.29	243.82
752.62	243.60
752.95	243.44
753.28	243.23
753.60	243.04
753.93	242.90
754.26	242.71
754.59	242.51
754.91	242.33
755.24	242.10
755.57	241.94
755.90	241.79
756.22	241.61
756.55	241.43
756.88	241.25
757.20	241.00
757.53	240.83
757.86	240.73
758.19	240.64
758.51	240.50
758.84	240.31
759.17	240.20
759.49	240.04
759.82	239.93
760.15	239.80
760.47	239.68
760.80	239.51
761.13	239.37
761.45	239.21
761.78	239.10
762.11	238.99
762.43	238.84
762.76	238.72
763.08	238.61
763.41	238.49
763.74	238.38
764.06	238.24
764.39	238.09
764.71	237.95
765.04	237.80
765.37	237.66
765.69	237.55
766.02	237.43
766.34	237.32
766.67	237.16
767.00	237.06
767.32	237.00
767.65	236.95
767.97	236.80
768.30	236.71
768.62	236.59
768.95	236.49
769.27	236.41
769.60	236.28
769.92	236.20
770.25	236.07
770.57	235.94
770.90	235.83
771.22	235.75
771.55	235.61
771.87	235.50
772.20	235.39
772.52	235.35
772.85	235.33
773.17	235.27
773.50	235.14
773.82	235.03
774.15	234.88
774.47	234.72
774.80	234.63
775.12	234.55
775.45	234.46
775.77	234.35
776.09	234.27
776.42	234.18
776.74	234.08
777.07	233.99
777.39	233.91
777.72	233.82
778.04	233.70
778.36	233.64
778.69	233.58
779.01	233.54
779.33	233.39
779.66	233.21
779.98	233.10
780.31	233.07
780.63	233.01
780.95	232.95
781.28	232.90
781.60	232.84
781.92	232.76
782.25	232.73
782.57	232.65
782.89	232.55
783.22	232.48
783.54	232.41
783.86	232.35
784.19	232.27
784.51	232.25
784.83	232.18
785.16	232.10
785.48	232.05
785.80	232.00
786.12	231.94
786.45	231.91
786.77	231.89
787.09	231.81
787.42	231.76
787.74	231.73
788.06	231.64
788.38	231.60
788.71	231.56
789.03	231.50
789.35	231.50
789.67	231.46
789.99	231.45
790.32	231.38
790.64	231.38
790.96	231.43
791.28	231.38
791.61	231.32
791.93	231.31
792.25	231.27
792.57	231.29
792.89	231.23
793.21	231.21
793.54	231.14
793.86	231.08
794.18	231.02
794.50	230.96
794.82	230.94
795.14	230.91
795.47	230.86
795.79	230.80
796.11	230.77
796.43	230.71
796.75	230.65
797.07	230.64
797.39	230.60
797.71	230.52
798.04	230.47
798.36	230.47
798.68	230.42
799.00	230.40
799.32	230.31
799.64	230.28
799.96	230.22
800.28	230.19
800.60	230.17
800.92	230.18
801.24	230.12
801.56	230.12
801.89	230.08
802.21	230.07
802.53	230.08
802.85	230.04
803.17	230.09
803.49	230.04
803.81	230.01
804.13	229.95
804.45	229.89
804.77	229.86
805.09	229.86
805.41	229.81
805.73	229.76
806.05	229.76
806.37	229.76
806.69	229.74
807.01	229.76
807.33	229.76
807.65	229.69
807.97	229.74
808.28	229.71
808.60	229.68
808.92	229.65
809.24	229.67
809.56	229.64
809.88	229.55
810.20	229.55
810.52	229.56
810.84	229.55
811.16	229.51
811.48	229.51
811.80	229.50
812.12	229.49
812.43	229.50
812.75	229.45
813.07	229.39
813.39	229.38
813.71	229.32
814.03	229.30
814.35	229.29
814.67	229.23
814.98	229.20
815.30	229.19
815.62	229.11
815.94	229.01
816.26	229.02
816.58	228.99
816.89	228.98
817.21	228.93
817.53	228.90
817.85	228.90
818.17	228.86
818.48	228.83
818.80	228.82
819.12	228.78
819.44	228.74
819.76	228.72
820.07	228.71
820.39	228.69
820.71	228.68
821.03	228.65
821.34	228.63
821.66	228.61
821.98	228.59
822.30	228.63
822.61	228.72
822.93	228.68
823.25	228.68
823.57	228.65
823.88	228.68
824.20	228.68
824.52	228.66
824.83	228.66
825.15	228.63
825.47	228.59
825.79	228.58
826.10	228.58
826.42	228.59
826.74	228.57
827.05	228.58
827.37	228.55
827.69	228.56
828.00	228.54
828.32	228.54
828.64	228.55
828.95	228.57
829.27	228.53
829.58	228.52
829.90	228.52
830.22	228.50
830.53	228.44
830.85	228.45
831.17	228.46
831.48	228.44
831.80	228.45
832.11	228.48
832.43	228.50
832.75	228.49
833.06	228.56
833.38	228.53
833.69	228.49
834.01	228.50
834.32	228.49
834.64	228.51
834.96	228.50
835.27	228.49
835.59	228.41
835.90	228.37
836.22	228.37
836.53	228.36
836.85	228.35
837.16	228.46
837.48	228.41
837.79	228.41
838.11	228.39
838.42	228.38
838.74	228.38
839.05	228.35
839.37	228.31
839.68	228.22
840.00	228.19
840.31	228.22
840.63	228.18
840.94	228.15
841.26	228.10
841.57	228.08
841.88	228.08
842.20	228.08
842.51	228.04
842.83	227.99
843.14	228.07
843.46	228.04
843.77	227.97
844.08	227.99
844.40	227.95
844.71	227.98
845.03	227.97
845.34	227.93
845.65	227.92
845.97	227.92
846.28	227.93
846.60	227.93
846.91	227.88
847.22	227.90
847.54	227.93
847.85	227.93
848.16	227.93
848.48	227.90
848.79	227.90
849.10	227.92
849.42	227.96
849.73	227.84
850.04	227.85
850.36	227.81
850.67	227.82
850.98	227.80
851.30	227.81
851.61	227.77
851.92	227.78
852.23	227.80
852.55	227.81
852.86	227.80
853.17	227.81
853.49	227.84
853.80	227.83
854.11	227.80
854.42	227.79
854.74	227.76
855.05	227.77
855.36	227.74
855.67	227.75
855.99	227.73
856.30	227.86
856.61	227.86
856.92	227.85
857.23	227.80
857.55	227.82
857.86	227.76
858.17	227.80
858.48	227.77
858.79	227.77
859.11	227.77
859.42	227.75
859.73	227.73
860.04	227.70
860.35	227.70
860.66	227.68
860.98	227.68
861.29	227.69
861.60	227.69
861.91	227.71
862.22	227.68
862.53	227.67
862.84	227.54
863.16	227.53
863.47	227.52
863.78	227.54
864.09	227.52
864.40	227.56
864.71	227.54
865.02	227.56
865.33	227.50
865.64	227.49
865.95	227.49
866.27	227.57
866.58	227.55
866.89	227.53
867.20	227.51
867.51	227.49
867.82	227.48
868.13	227.48
868.44	227.46
868.75	227.49
869.06	227.50
869.37	227.52
869.68	227.51
869.99	227.52
870.30	227.50
870.61	227.51
870.92	227.46
871.23	227.41
871.54	227.39
871.85	227.44
872.16	227.47
872.47	227.49
872.78	227.44
873.09	227.44
873.40	227.43
873.71	227.45
874.02	227.47
874.33	227.45
874.64	227.45
874.95	227.47
875.26	227.40
875.56	227.38
875.87	227.37
876.18	227.37
876.49	227.46
876.80	227.47
877.11	227.45
877.42	227.45
877.73	227.48
878.04	227.48
878.35	227.47
878.66	227.44
878.96	227.42
879.27	227.41
879.58	227.43
879.89	227.43
880.20	227.46
880.51	227.44
880.82	227.47
881.12	227.46
881.43	227.44
881.74	227.46
882.05	227.44
882.36	227.47
882.67	227.49
882.97	227.38
883.28	227.38
883.59	227.37
883.90	227.41
884.21	227.38
884.51	227.39
884.82	227.38
885.13	227.39
885.44	227.38
885.74	227.41
886.05	227.39
886.36	227.38
886.67	227.33
886.98	227.39
887.28	227.36
887.59	227.38
887.90	227.40
888.20	227.38
888.51	227.43
888.82	227.39
889.13	227.37
889.43	227.43
889.74	227.42
890.05	227.45
890.35	227.44
890.66	227.43
890.97	227.40
891.28	227.39
891.58	227.38
891.89	227.39
892.20	227.34
892.50	227.37
892.81	227.37
893.12	227.39
893.42	227.33
893.73	227.35
894.04	227.34
894.34	227.32
894.65	227.32
894.95	227.29
895.26	227.29
895.57	227.33
895.87	227.26
896.18	227.27
896.48	227.27
896.79	227.25
897.10	227.27
897.40	227.28
897.71	227.27
898.01	227.26
898.32	227.26
898.63	227.27
898.93	227.26
899.24	227.28
899.54	227.26
899.85	227.25
900.15	227.24
900.46	227.23
900.76	227.23
901.07	227.24
901.38	227.24
901.68	227.23
901.99	227.20
902.29	227.20
902.60	227.19
902.90	227.16
903.21	227.17
903.51	227.15
903.82	227.16
904.12	227.19
904.43	227.21
904.73	227.21
905.03	227.21
905.34	227.30
905.64	227.29
905.95	227.27
906.25	227.26
906.56	227.26
906.86	227.26
907.17	227.26
907.47	227.24
907.77	227.24
908.08	227.23
908.38	227.21
908.69	227.23
908.99	227.28
909.30	227.30
909.60	227.28
909.90	227.32
910.21	227.28
910.51	227.25
910.81	227.25
911.12	227.24
911.42	227.25
911.73	227.13
912.03	227.14
912.33	227.19
912.64	227.24
912.94	227.24
913.24	227.20
913.55	227.19
913.85	227.21
914.15	227.23
914.46	227.27
914.76	227.28
915.06	227.26
915.37	227.21
915.67	227.17
915.97	227.17
916.27	227.17
916.58	227.20
916.88	227.23
917.18	227.23
917.49	227.31
917.79	227.31
918.09	227.35
918.39	227.37
918.70	227.37
919.00	227.35
919.30	227.39
919.60	227.40
919.91	227.39
920.21	227.37
920.51	227.35
920.81	227.32
921.12	227.35
921.42	227.32
921.72	227.33
922.02	227.35
922.32	227.38
922.63	227.38
922.93	227.42
923.23	227.42
923.53	227.43
923.83	227.34
924.13	227.32
924.44	227.31
924.74	227.30
925.04	227.33
925.34	227.30
925.64	227.26
925.94	227.29
926.24	227.34
926.55	227.34
926.85	227.35
927.15	227.35
927.45	227.33
927.75	227.36
928.05	227.36
928.35	227.36
928.65	227.37
928.95	227.38
929.26	227.32
929.56	227.29
929.86	227.28
930.16	227.29
930.46	227.28
930.76	227.30
931.06	227.27
931.36	227.21
931.66	227.21
931.96	227.19
932.26	227.16
932.56	227.11
932.86	227.10
933.16	227.09
933.46	227.09
933.76	227.07
934.06	227.08
934.36	227.14
934.66	227.11
934.96	227.09
935.26	227.04
935.56	227.07
935.86	227.09
936.16	227.07
936.46	227.06
936.76	227.07
937.06	227.02
937.36	227.02
937.66	227.01
937.96	227.04
938.26	227.01
938.56	227.01
938.86	227.04
939.16	227.07
939.46	227.09
939.76	227.10
940.06	227.09
940.35	227.07
940.65	227.01
940.95	227.01
941.25	226.98
941.55	226.97
941.85	226.96
942.15	226.96
942.45	226.95
942.75	226.97
943.04	226.96
943.34	226.96
943.64	226.95
943.94	226.96
944.24	226.92
944.54	226.95
944.84	226.92
945.13	226.88
945.43	226.85
945.73	226.85
946.03	226.82
946.33	226.80
946.62	226.79
946.92	226.80
947.22	226.82
947.52	226.84
947.82	226.85
948.11	226.85
948.41	226.84
948.71	226.82
949.01	226.83
949.31	226.82
949.60	226.85
949.90	226.86
950.20	226.84
950.50	226.89
950.79	226.90
951.09	226.92
951.39	226.94
951.69	226.91
951.98	226.91
952.28	226.90
952.58	226.94
952.87	226.95
953.17	226.94
953.47	226.97
953.76	226.96
954.06	226.97
954.36	226.97
954.66	226.98
954.95	227.01
955.25	227.00
955.55	227.03
955.84	226.99
956.14	227.01
956.44	227.03
956.73	227.01
957.03	227.03
957.32	227.03
957.62	227.04
957.92	227.09
958.21	227.12
958.51	227.23
958.81	227.26
959.10	227.25
959.40	227.27
959.69	227.26
959.99	227.28
960.29	227.28
960.58	227.27
960.88	227.30
961.17	227.27
961.47	227.27
961.76	227.26
962.06	227.30
962.36	227.27
962.65	227.29
962.95	227.30
963.24	227.25
963.54	227.29
963.83	227.27
964.13	227.26
964.42	227.21
964.72	227.16
965.01	227.14
965.31	227.14
965.60	227.12
965.90	227.20
966.19	227.16
966.49	227.15
966.78	227.15
967.08	227.14
967.37	227.17
967.67	227.18
967.96	227.19
968.26	227.18
968.55	227.22
968.85	227.22
969.14	227.25
969.43	227.27
969.73	227.26
970.02	227.25
970.32	227.27
970.61	227.23
970.91	227.18
971.20	227.17
971.49	227.17
971.79	227.16
972.08	227.06
972.38	227.08
972.67	227.11
972.96	227.13
973.26	227.09
973.55	227.15
973.85	227.11
974.14	227.09
974.43	227.10
974.73	227.07
975.02	227.06
975.31	227.00
975.61	227.02
975.90	226.99
976.19	226.98
976.49	226.97
976.78	227.01
977.07	227.03
977.37	227.00
977.66	227.02
977.95	227.03
978.24	227.04
978.54	227.06
978.83	227.03
979.12	227.02
979.42	227.00
979.71	226.94
980.00	226.95
980.29	226.99
980.59	226.95
980.88	226.98
981.17	226.97
981.46	226.96
981.76	226.96
982.05	227.00
982.34	227.00
982.63	227.00
982.93	227.00
983.22	227.05
983.51	227.07
983.80	227.07
984.09	227.07
984.39	227.06
984.68	227.06
984.97	227.07
985.26	227.06
985.55	227.07
985.85	227.03
986.14	227.05
986.43	227.06
986.72	227.05
987.01	227.04
987.30	227.02
987.59	227.01
987.89	226.97
988.18	226.90
988.47	226.89
988.76	226.91
989.05	226.88
989.34	226.85
989.63	226.84
989.92	226.83
990.22	226.82
990.51	226.83
990.80	226.83
991.09	226.84
991.38	226.85
991.67	226.85
991.96	226.85
992.25	226.87
992.54	226.81
992.83	226.82
993.12	226.77
993.41	226.82
993.70	226.87
993.99	226.93
994.28	226.97
994.58	226.97
994.87	226.95
995.16	226.94
995.45	226.92
995.74	226.90
996.03	226.93
996.32	226.93
996.61	226.93
996.90	226.92
997.19	226.91
997.48	226.91
997.77	226.93
998.06	226.94
998.34	226.94
998.63	226.96
998.92	226.94
999.21	227.00
999.50	226.98
999.79	226.94
1000.08	226.91
1000.37	226.91
1000.66	226.94
1000.95	226.95
1001.24	226.95
1001.53	226.98
1001.82	227.01
1002.11	226.97
1002.40	226.98
1002.68	227.02
1002.97	227.13
1003.26	227.10
1003.55	227.08
1003.84	227.09
1004.13	227.13
1004.42	227.11
1004.71	227.11
1004.99	227.13
1005.28	227.14
1005.57	227.15
1005.86	227.16
1006.15	227.17
1006.44	227.18
1006.72	227.20
1007.01	227.21
1007.30	227.24
1007.59	227.21
1007.88	227.19
1008.17	227.18
1008.45	227.19
1008.74	227.14
1009.03	227.06
1009.32	227.08
1009.60	227.11
1009.89	227.05
1010.18	227.02
1010.47	226.99
1010.76	227.00
1011.04	227.00
1011.33	227.00
1011.62	227.02
1011.91	226.99
1012.19	226.99
1012.48	226.97
1012.77	226.94
1013.05	226.99
1013.34	227.00
1013.63	227.00
1013.92	227.00
1014.20	226.99
1014.49	226.99
1014.78	227.01
1015.06	226.98
1015.35	226.96
1015.64	226.95
1015.92	226.97
1016.21	226.97
1016.50	226.98
1016.78	226.97
1017.07	226.97
1017.36	226.95
1017.64	226.94
1017.93	226.95
1018.22	226.93
1018.50	226.94
1018.79	226.97
1019.08	226.91
1019.36	226.91
1019.65	226.91
1019.93	226.97
1020.22	227.01
1020.51	227.04
1020.79	227.02
1021.08	226.88
1021.36	226.90
1021.65	227.25
1021.94	226.93
1022.22	227.48
1022.51	226.95
1022.79	227.91
1023.08	227.40
1023.36	227.95
1023.65	226.69
>>>>>End Processed Spectral Data<<<<<
