SpectraSuite Data File
++++++++++++++++++++++++++++++++++++
Date: Fri Feb 01 15:55:00 EST 2013
User: group
Dark Spectrum Present: No
Reference Spectrum Present: No
Number of Sampled Component Spectra: 1
Spectrometers: USB2E7196
Integration Time (usec): 35000 (USB2E7196)
Spectra Averaged: 100 (USB2E7196)
Boxcar Smoothing: 10 (USB2E7196)
Correct for Electrical Dark: No (USB2E7196)
Strobe/Lamp Enabled: No (USB2E7196)
Correct for Detector Non-linearity: No (USB2E7196)
Correct for Stray Light: No (USB2E7196)
Number of Pixels in Processed Spectrum: 2048
>>>>>Begin Processed Spectral Data<<<<<
339.09	0.00
339.48	215.05
339.86	216.23
340.24	217.73
340.63	219.66
341.01	221.96
341.39	221.93
341.78	223.37
342.16	223.89
342.54	224.85
342.93	213.21
343.31	223.99
343.69	224.54
344.07	224.99
344.46	225.41
344.84	225.76
345.22	226.01
345.60	226.27
345.99	226.45
346.37	226.61
346.75	226.71
347.13	226.80
347.52	226.86
347.90	226.97
348.28	226.99
348.66	227.03
349.05	227.00
349.43	227.08
349.81	227.11
350.19	227.15
350.57	227.25
350.96	227.33
351.34	227.41
351.72	227.46
352.10	227.59
352.48	227.66
352.87	227.74
353.25	227.82
353.63	227.86
354.01	227.93
354.39	227.98
354.77	228.05
355.15	228.14
355.54	228.17
355.92	228.19
356.30	228.27
356.68	228.37
357.06	228.47
357.44	228.52
357.82	228.61
358.20	228.72
358.58	228.78
358.97	228.84
359.35	228.94
359.73	229.02
360.11	229.07
360.49	229.11
360.87	229.12
361.25	229.16
361.63	229.23
362.01	229.26
362.39	229.32
362.77	229.34
363.15	229.37
363.53	229.40
363.91	229.43
364.29	229.41
364.67	229.33
365.05	229.31
365.43	229.31
365.81	229.27
366.19	229.29
366.57	229.31
366.95	229.30
367.33	229.26
367.71	229.23
368.09	229.24
368.47	229.22
368.85	229.22
369.23	229.22
369.61	229.18
369.99	229.19
370.37	229.15
370.75	229.16
371.13	229.08
371.51	229.06
371.89	229.00
372.27	228.99
372.65	228.94
373.03	228.92
373.41	228.86
373.78	228.82
374.16	228.74
374.54	228.60
374.92	228.53
375.30	228.43
375.68	228.37
376.06	228.28
376.44	228.19
376.82	228.14
377.19	228.03
377.57	227.96
377.95	227.87
378.33	227.80
378.71	227.68
379.09	227.65
379.47	227.57
379.84	227.51
380.22	227.43
380.60	227.36
380.98	227.26
381.36	227.20
381.73	227.13
382.11	227.02
382.49	227.02
382.87	226.95
383.25	226.93
383.62	226.98
384.00	226.91
384.38	226.88
384.76	226.83
385.13	226.83
385.51	226.77
385.89	226.67
386.27	226.62
386.64	226.59
387.02	226.54
387.40	226.53
387.78	226.52
388.15	226.46
388.53	226.44
388.91	226.41
389.29	226.38
389.66	226.39
390.04	226.39
390.42	226.38
390.79	226.35
391.17	226.34
391.55	226.23
391.92	226.21
392.30	226.23
392.68	226.23
393.05	226.20
393.43	226.20
393.81	226.24
394.18	226.23
394.56	226.25
394.94	226.30
395.31	226.32
395.69	226.34
396.06	226.41
396.44	226.44
396.82	226.50
397.19	226.60
397.57	226.60
397.95	226.64
398.32	226.64
398.70	226.72
399.07	226.81
399.45	226.87
399.82	226.92
400.20	226.98
400.58	227.04
400.95	227.04
401.33	227.16
401.70	227.31
402.08	227.41
402.45	227.52
402.83	227.63
403.20	227.73
403.58	227.85
403.95	227.95
404.33	228.08
404.71	228.18
405.08	228.37
405.46	228.53
405.83	228.72
406.21	228.87
406.58	229.03
406.96	229.18
407.33	229.35
407.70	229.60
408.08	229.84
408.45	230.06
408.83	230.33
409.20	230.51
409.58	230.70
409.95	230.97
410.33	231.22
410.70	231.41
411.08	231.73
411.45	232.02
411.82	232.31
412.20	232.68
412.57	233.09
412.95	233.36
413.32	233.74
413.69	234.12
414.07	234.57
414.44	235.01
414.82	235.47
415.19	236.05
415.56	236.56
415.94	237.14
416.31	237.79
416.68	238.43
417.06	239.14
417.43	239.78
417.81	240.53
418.18	241.34
418.55	242.22
418.93	243.07
419.30	243.98
419.67	244.90
420.04	245.85
420.42	246.83
420.79	248.03
421.16	249.17
421.54	250.36
421.91	251.55
422.28	252.79
422.66	254.12
423.03	255.42
423.40	256.74
423.77	258.14
424.15	259.56
424.52	261.02
424.89	262.68
425.26	264.27
425.64	265.71
426.01	267.31
426.38	268.93
426.75	270.59
427.13	272.31
427.50	274.15
427.87	276.03
428.24	277.90
428.61	279.61
428.99	281.57
429.36	283.70
429.73	285.79
430.10	287.87
430.47	289.98
430.85	292.11
431.22	294.36
431.59	296.73
431.96	298.98
432.33	301.49
432.70	303.81
433.08	306.61
433.45	309.26
433.82	311.84
434.19	314.77
434.56	317.63
434.93	320.31
435.30	322.92
435.68	325.80
436.05	328.61
436.42	331.43
436.79	333.91
437.16	336.61
437.53	339.41
437.90	342.20
438.27	344.86
438.64	347.67
439.01	350.24
439.38	352.47
439.75	354.64
440.13	357.13
440.50	359.49
440.87	361.38
441.24	363.33
441.61	365.47
441.98	366.94
442.35	368.70
442.72	370.56
443.09	372.39
443.46	373.42
443.83	374.05
444.20	374.52
444.57	375.38
444.94	375.62
445.31	375.98
445.68	376.30
446.05	376.35
446.42	375.95
446.79	375.57
447.16	375.15
447.53	374.81
447.90	373.63
448.27	372.46
448.64	370.83
449.01	369.69
449.37	367.77
449.74	365.86
450.11	363.60
450.48	361.12
450.85	358.56
451.22	356.39
451.59	354.35
451.96	352.42
452.33	349.84
452.70	347.50
453.07	344.66
453.43	341.77
453.80	339.06
454.17	336.40
454.54	333.86
454.91	331.14
455.28	328.49
455.65	325.98
456.02	323.52
456.38	321.37
456.75	318.68
457.12	316.40
457.49	314.15
457.86	311.99
458.23	310.11
458.59	308.08
458.96	306.02
459.33	304.17
459.70	302.31
460.07	300.76
460.43	299.06
460.80	297.44
461.17	296.04
461.54	294.56
461.91	293.12
462.27	291.61
462.64	290.33
463.01	288.99
463.38	287.72
463.74	286.38
464.11	285.27
464.48	284.26
464.85	283.13
465.21	282.27
465.58	281.31
465.95	280.21
466.32	279.28
466.68	278.37
467.05	277.47
467.42	276.57
467.78	275.65
468.15	274.75
468.52	274.12
468.88	273.21
469.25	272.45
469.62	271.84
469.98	271.22
470.35	270.58
470.72	269.99
471.08	269.37
471.45	268.80
471.82	268.23
472.18	267.61
472.55	267.19
472.92	266.68
473.28	266.28
473.65	265.80
474.02	265.36
474.38	264.98
474.75	264.62
475.11	264.33
475.48	264.08
475.85	263.89
476.21	263.64
476.58	263.49
476.94	263.32
477.31	263.15
477.67	262.98
478.04	262.91
478.41	262.85
478.77	262.84
479.14	262.79
479.50	262.81
479.87	262.90
480.23	263.02
480.60	263.08
480.96	263.15
481.33	263.40
481.69	263.61
482.06	263.80
482.42	264.01
482.79	264.24
483.15	264.56
483.52	264.92
483.88	265.28
484.25	265.67
484.61	266.08
484.98	266.56
485.34	267.13
485.71	267.70
486.07	268.29
486.44	268.89
486.80	269.57
487.17	270.29
487.53	271.11
487.90	271.94
488.26	272.91
488.62	273.90
488.99	274.85
489.35	275.89
489.72	277.03
490.08	278.25
490.44	279.49
490.81	280.81
491.17	282.13
491.54	283.60
491.90	285.15
492.26	286.78
492.63	288.47
492.99	290.27
493.36	292.12
493.72	294.17
494.08	296.25
494.45	298.50
494.81	300.87
495.17	303.29
495.54	305.83
495.90	308.50
496.26	311.26
496.63	314.26
496.99	317.36
497.35	320.61
497.72	324.05
498.08	327.57
498.44	331.26
498.80	335.22
499.17	339.25
499.53	343.38
499.89	347.77
500.26	352.27
500.62	356.90
500.98	361.89
501.34	366.92
501.71	372.24
502.07	377.71
502.43	383.31
502.79	389.14
503.16	395.29
503.52	401.56
503.88	407.98
504.24	414.62
504.60	421.54
504.97	428.61
505.33	435.92
505.69	443.70
506.05	451.43
506.41	459.30
506.78	467.48
507.14	475.95
507.50	484.72
507.86	493.79
508.22	502.99
508.59	512.17
508.95	521.79
509.31	531.62
509.67	541.64
510.03	551.92
510.39	562.45
510.75	573.20
511.12	584.13
511.48	595.39
511.84	606.79
512.20	618.30
512.56	630.34
512.92	642.54
513.28	654.85
513.64	667.33
514.00	680.04
514.37	692.99
514.73	706.11
515.09	719.07
515.45	732.27
515.81	745.87
516.17	759.92
516.53	774.04
516.89	788.25
517.25	802.46
517.61	816.89
517.97	831.45
518.33	845.89
518.69	860.72
519.05	875.73
519.41	890.95
519.77	906.48
520.13	921.87
520.49	937.13
520.85	952.52
521.21	968.24
521.57	984.48
521.93	1000.28
522.29	1016.59
522.65	1032.90
523.01	1049.13
523.37	1065.12
523.73	1081.21
524.09	1097.33
524.45	1113.57
524.81	1130.23
525.17	1147.03
525.53	1163.82
525.89	1180.68
526.25	1197.42
526.61	1213.69
526.97	1230.41
527.33	1246.82
527.68	1263.41
528.04	1279.92
528.40	1296.41
528.76	1313.42
529.12	1330.06
529.48	1346.76
529.84	1362.68
530.20	1379.24
530.56	1396.29
530.91	1413.67
531.27	1430.45
531.63	1446.85
531.99	1463.39
532.35	1479.31
532.71	1495.16
533.07	1511.41
533.42	1527.27
533.78	1543.37
534.14	1559.70
534.50	1575.03
534.86	1591.02
535.21	1606.19
535.57	1621.99
535.93	1637.57
536.29	1652.31
536.65	1667.27
537.00	1682.16
537.36	1697.59
537.72	1712.08
538.08	1726.44
538.44	1740.19
538.79	1754.06
539.15	1767.70
539.51	1781.47
539.87	1795.91
540.22	1809.57
540.58	1823.22
540.94	1836.56
541.29	1849.43
541.65	1862.12
542.01	1875.29
542.37	1887.55
542.72	1899.91
543.08	1911.84
543.44	1924.25
543.79	1935.55
544.15	1946.58
544.51	1958.16
544.87	1969.08
545.22	1979.81
545.58	1989.96
545.94	1999.93
546.29	2009.74
546.65	2019.64
547.01	2028.90
547.36	2037.40
547.72	2045.89
548.07	2053.71
548.43	2061.80
548.79	2069.90
549.14	2077.40
549.50	2084.66
549.86	2092.31
550.21	2099.76
550.57	2106.77
550.92	2113.30
551.28	2120.27
551.64	2127.14
551.99	2133.56
552.35	2139.72
552.70	2145.87
553.06	2151.89
553.41	2157.99
553.77	2164.00
554.13	2170.07
554.48	2176.22
554.84	2181.74
555.19	2187.09
555.55	2192.28
555.90	2196.79
556.26	2201.53
556.61	2206.51
556.97	2210.85
557.32	2214.90
557.68	2218.95
558.03	2223.38
558.39	2227.20
558.74	2231.95
559.10	2236.09
559.45	2239.79
559.81	2244.06
560.16	2247.98
560.52	2251.25
560.87	2254.92
561.23	2257.71
561.58	2260.74
561.94	2263.16
562.29	2265.50
562.64	2268.06
563.00	2270.78
563.35	2274.18
563.71	2277.32
564.06	2280.36
564.42	2283.30
564.77	2285.93
565.12	2288.20
565.48	2289.97
565.83	2291.80
566.19	2293.00
566.54	2293.80
566.89	2294.92
567.25	2295.38
567.60	2296.84
567.96	2298.52
568.31	2299.25
568.66	2300.22
569.02	2300.61
569.37	2300.95
569.72	2301.92
570.08	2302.18
570.43	2302.23
570.78	2301.86
571.14	2300.19
571.49	2298.86
571.84	2298.47
572.20	2297.24
572.55	2296.19
572.90	2294.73
573.26	2293.23
573.61	2291.62
573.96	2289.77
574.31	2286.86
574.67	2283.90
575.02	2280.10
575.37	2276.68
575.72	2272.81
576.08	2269.56
576.43	2266.30
576.78	2262.66
577.13	2259.42
577.49	2256.40
577.84	2252.77
578.19	2248.95
578.54	2245.43
578.90	2241.08
579.25	2235.46
579.60	2230.57
579.95	2225.44
580.30	2220.38
580.66	2215.24
581.01	2210.30
581.36	2205.37
581.71	2201.15
582.06	2196.83
582.42	2192.33
582.77	2187.11
583.12	2182.60
583.47	2177.83
583.82	2172.81
584.17	2167.58
584.53	2162.04
584.88	2156.28
585.23	2150.52
585.58	2145.06
585.93	2139.56
586.28	2134.93
586.63	2129.95
586.98	2124.79
587.34	2120.18
587.69	2115.26
588.04	2109.85
588.39	2104.21
588.74	2097.87
589.09	2091.66
589.44	2084.76
589.79	2078.79
590.14	2073.22
590.49	2066.64
590.84	2060.25
591.19	2054.31
591.54	2047.77
591.89	2040.37
592.25	2033.55
592.60	2026.54
592.95	2018.89
593.30	2011.60
593.65	2003.89
594.00	1996.80
594.35	1989.58
594.70	1981.56
595.05	1974.35
595.40	1967.19
595.75	1959.64
596.10	1953.32
596.45	1946.65
596.80	1940.57
597.15	1933.97
597.50	1926.89
597.85	1920.44
598.19	1913.86
598.54	1906.61
598.89	1900.03
599.24	1894.32
599.59	1887.62
599.94	1881.21
600.29	1875.00
600.64	1868.43
600.99	1861.06
601.34	1854.19
601.69	1847.23
602.04	1840.40
602.39	1833.21
602.74	1826.45
603.08	1819.71
603.43	1812.89
603.78	1805.49
604.13	1798.24
604.48	1790.83
604.83	1783.94
605.18	1776.83
605.53	1768.78
605.87	1760.71
606.22	1753.58
606.57	1745.57
606.92	1738.35
607.27	1731.28
607.62	1724.25
607.96	1716.96
608.31	1710.24
608.66	1702.72
609.01	1695.15
609.36	1687.55
609.70	1679.45
610.05	1671.28
610.40	1663.56
610.75	1655.31
611.10	1647.70
611.44	1639.37
611.79	1631.41
612.14	1622.68
612.49	1613.61
612.83	1605.19
613.18	1597.22
613.53	1588.99
613.88	1580.45
614.22	1572.06
614.57	1563.36
614.92	1555.43
615.27	1547.75
615.61	1539.46
615.96	1531.38
616.31	1523.83
616.65	1516.38
617.00	1508.83
617.35	1501.15
617.70	1492.74
618.04	1484.33
618.39	1476.07
618.74	1468.39
619.08	1460.17
619.43	1452.64
619.78	1445.71
620.12	1438.60
620.47	1431.04
620.82	1422.94
621.16	1415.54
621.51	1408.06
621.85	1400.49
622.20	1391.92
622.55	1383.66
622.89	1375.86
623.24	1368.28
623.59	1360.88
623.93	1353.28
624.28	1346.04
624.62	1338.53
624.97	1331.36
625.32	1324.59
625.66	1317.59
626.01	1310.34
626.35	1302.81
626.70	1295.10
627.04	1287.35
627.39	1279.49
627.73	1272.10
628.08	1265.18
628.43	1257.86
628.77	1250.29
629.12	1242.69
629.46	1235.50
629.81	1228.13
630.15	1220.83
630.50	1213.38
630.84	1205.10
631.19	1197.35
631.53	1189.82
631.88	1182.27
632.22	1174.73
632.57	1167.50
632.91	1159.92
633.26	1152.57
633.60	1145.27
633.95	1138.04
634.29	1131.03
634.64	1124.37
634.98	1117.02
635.32	1109.80
635.67	1103.18
636.01	1096.56
636.36	1089.78
636.70	1083.30
637.05	1076.69
637.39	1070.25
637.73	1063.74
638.08	1057.90
638.42	1051.93
638.77	1045.52
639.11	1038.94
639.45	1032.56
639.80	1025.80
640.14	1019.47
640.49	1013.01
640.83	1006.68
641.17	1000.49
641.52	994.20
641.86	987.66
642.20	981.78
642.55	975.53
642.89	969.09
643.23	962.61
643.58	956.85
643.92	950.59
644.26	944.52
644.61	938.53
644.95	932.53
645.29	925.92
645.64	919.13
645.98	912.80
646.32	907.06
646.66	901.04
647.01	895.19
647.35	889.43
647.69	883.56
648.04	878.04
648.38	872.30
648.72	866.26
649.06	860.35
649.41	854.49
649.75	848.54
650.09	842.67
650.43	836.94
650.78	830.78
651.12	824.82
651.46	819.06
651.80	813.27
652.14	807.93
652.49	802.61
652.83	797.47
653.17	791.79
653.51	786.00
653.85	780.58
654.20	774.97
654.54	768.96
654.88	763.20
655.22	757.30
655.56	751.56
655.90	746.16
656.25	740.90
656.59	735.51
656.93	730.40
657.27	725.20
657.61	719.74
657.95	714.59
658.29	709.56
658.64	704.35
658.98	699.09
659.32	693.61
659.66	688.34
660.00	683.00
660.34	678.03
660.68	673.08
661.02	668.07
661.36	663.38
661.70	658.87
662.05	654.52
662.39	650.17
662.73	645.75
663.07	641.31
663.41	636.82
663.75	632.26
664.09	627.74
664.43	623.32
664.77	619.19
665.11	614.99
665.45	610.87
665.79	606.77
666.13	602.58
666.47	598.48
666.81	594.29
667.15	590.17
667.49	586.22
667.83	582.43
668.17	578.49
668.51	574.42
668.85	570.41
669.19	566.59
669.53	562.73
669.87	558.80
670.21	555.15
670.55	551.51
670.89	548.11
671.23	544.62
671.57	541.01
671.91	537.45
672.25	533.96
672.58	530.40
672.92	526.97
673.26	523.81
673.60	520.66
673.94	517.54
674.28	514.61
674.62	511.69
674.96	508.54
675.30	505.64
675.64	502.70
675.97	499.88
676.31	497.00
676.65	494.11
676.99	491.43
677.33	488.54
677.67	485.70
678.01	482.72
678.34	479.71
678.68	476.94
679.02	474.12
679.36	471.34
679.70	468.61
680.04	465.86
680.37	462.98
680.71	460.18
681.05	457.62
681.39	454.92
681.73	452.27
682.06	449.73
682.40	447.17
682.74	444.66
683.08	442.15
683.42	439.59
683.75	437.09
684.09	434.54
684.43	432.11
684.77	429.70
685.10	427.29
685.44	425.01
685.78	422.74
686.12	420.50
686.45	418.27
686.79	416.07
687.13	413.93
687.46	411.75
687.80	409.63
688.14	407.39
688.48	405.35
688.81	403.10
689.15	400.95
689.49	398.81
689.82	396.73
690.16	394.63
690.50	392.68
690.83	390.74
691.17	388.74
691.51	386.80
691.84	384.93
692.18	383.05
692.52	381.09
692.85	379.09
693.19	377.21
693.52	375.35
693.86	373.51
694.20	371.72
694.53	369.96
694.87	368.11
695.21	366.35
695.54	364.52
695.88	362.79
696.21	361.12
696.55	359.45
696.88	357.77
697.22	356.12
697.56	354.46
697.89	352.73
698.23	351.12
698.56	349.55
698.90	347.99
699.23	346.35
699.57	344.80
699.90	343.31
700.24	341.78
700.58	340.26
700.91	338.72
701.25	337.26
701.58	335.87
701.92	334.45
702.25	333.07
702.59	331.69
702.92	330.35
703.26	328.99
703.59	327.71
703.93	326.50
704.26	325.31
704.60	324.05
704.93	322.82
705.26	321.57
705.60	320.36
705.93	319.16
706.27	318.11
706.60	317.02
706.94	315.91
707.27	314.77
707.61	313.67
707.94	312.62
708.27	311.52
708.61	310.46
708.94	309.48
709.28	308.53
709.61	307.58
709.94	306.65
710.28	305.67
710.61	304.69
710.95	303.61
711.28	302.64
711.61	301.67
711.95	300.73
712.28	299.76
712.61	298.76
712.95	297.81
713.28	296.92
713.61	296.02
713.95	295.16
714.28	294.29
714.61	293.43
714.95	292.64
715.28	291.79
715.61	290.88
715.95	290.00
716.28	289.10
716.61	288.30
716.95	287.47
717.28	286.73
717.61	285.92
717.94	285.15
718.28	284.34
718.61	283.64
718.94	282.97
719.27	282.31
719.61	281.69
719.94	281.04
720.27	280.29
720.60	279.67
720.94	279.00
721.27	278.43
721.60	277.87
721.93	277.22
722.27	276.66
722.60	276.13
722.93	275.56
723.26	274.99
723.59	274.39
723.93	273.82
724.26	273.25
724.59	272.70
724.92	272.22
725.25	271.73
725.59	271.22
725.92	270.68
726.25	270.21
726.58	269.75
726.91	269.26
727.24	268.81
727.57	268.34
727.91	267.86
728.24	267.39
728.57	266.91
728.90	266.49
729.23	266.00
729.56	265.60
729.89	265.14
730.22	264.69
730.55	264.23
730.89	263.79
731.22	263.33
731.55	262.92
731.88	262.50
732.21	262.07
732.54	261.62
732.87	261.20
733.20	260.79
733.53	260.35
733.86	259.99
734.19	259.61
734.52	259.22
734.85	258.94
735.18	258.52
735.51	258.19
735.84	257.79
736.17	257.47
736.50	257.04
736.83	256.83
737.16	256.49
737.49	256.16
737.82	255.81
738.15	255.53
738.48	255.19
738.81	254.84
739.14	254.52
739.47	254.21
739.80	253.91
740.13	253.60
740.46	253.29
740.79	252.99
741.12	252.68
741.45	252.37
741.78	252.00
742.11	251.73
742.44	251.37
742.77	251.11
743.10	250.79
743.43	250.53
743.75	250.15
744.08	249.98
744.41	249.68
744.74	249.41
745.07	249.10
745.40	248.85
745.73	248.63
746.06	248.37
746.39	248.11
746.71	247.82
747.04	247.57
747.37	247.31
747.70	247.03
748.03	246.81
748.36	246.57
748.68	246.35
749.01	246.11
749.34	245.91
749.67	245.67
750.00	245.44
750.33	245.25
750.65	245.04
750.98	244.70
751.31	244.51
751.64	244.30
751.97	244.16
752.29	243.92
752.62	243.70
752.95	243.46
753.28	243.26
753.60	243.04
753.93	242.84
754.26	242.69
754.59	242.48
754.91	242.24
755.24	242.01
755.57	241.79
755.90	241.58
756.22	241.38
756.55	241.18
756.88	240.98
757.20	240.77
757.53	240.51
757.86	240.38
758.19	240.21
758.51	240.02
758.84	239.80
759.17	239.66
759.49	239.49
759.82	239.36
760.15	239.19
760.47	239.06
760.80	238.92
761.13	238.74
761.45	238.59
761.78	238.48
762.11	238.36
762.43	238.22
762.76	238.09
763.08	237.95
763.41	237.83
763.74	237.73
764.06	237.59
764.39	237.51
764.71	237.39
765.04	237.27
765.37	237.14
765.69	237.01
766.02	236.88
766.34	236.75
766.67	236.63
767.00	236.55
767.32	236.50
767.65	236.46
767.97	236.36
768.30	236.26
768.62	236.13
768.95	236.04
769.27	235.95
769.60	235.87
769.92	235.78
770.25	235.64
770.57	235.50
770.90	235.42
771.22	235.33
771.55	235.22
771.87	235.11
772.20	235.06
772.52	235.06
772.85	235.09
773.17	235.01
773.50	234.90
773.82	234.81
774.15	234.69
774.47	234.55
774.80	234.44
775.12	234.34
775.45	234.27
775.77	234.19
776.09	234.11
776.42	234.01
776.74	233.97
777.07	233.89
777.39	233.84
777.72	233.72
778.04	233.64
778.36	233.55
778.69	233.48
779.01	233.39
779.33	233.22
779.66	233.05
779.98	232.95
780.31	232.90
780.63	232.89
780.95	232.84
781.28	232.73
781.60	232.68
781.92	232.64
782.25	232.58
782.57	232.52
782.89	232.45
783.22	232.40
783.54	232.31
783.86	232.29
784.19	232.19
784.51	232.19
784.83	232.10
785.16	232.05
785.48	232.03
785.80	231.98
786.12	231.96
786.45	231.89
786.77	231.86
787.09	231.81
787.42	231.69
787.74	231.62
788.06	231.60
788.38	231.55
788.71	231.48
789.03	231.43
789.35	231.37
789.67	231.31
789.99	231.24
790.32	231.15
790.64	231.08
790.96	231.14
791.28	231.07
791.61	231.00
791.93	230.93
792.25	230.88
792.57	230.89
792.89	230.79
793.21	230.73
793.54	230.68
793.86	230.61
794.18	230.56
794.50	230.45
794.82	230.38
795.14	230.35
795.47	230.31
795.79	230.26
796.11	230.22
796.43	230.19
796.75	230.17
797.07	230.14
797.39	230.12
797.71	230.00
798.04	229.95
798.36	229.96
798.68	229.94
799.00	229.92
799.32	229.81
799.64	229.82
799.96	229.80
800.28	229.78
800.60	229.75
800.92	229.75
801.24	229.76
801.56	229.74
801.89	229.69
802.21	229.65
802.53	229.59
802.85	229.55
803.17	229.55
803.49	229.48
803.81	229.45
804.13	229.43
804.45	229.40
804.77	229.41
805.09	229.39
805.41	229.38
805.73	229.33
806.05	229.32
806.37	229.28
806.69	229.27
807.01	229.24
807.33	229.24
807.65	229.19
807.97	229.19
808.28	229.17
808.60	229.16
808.92	229.16
809.24	229.24
809.56	229.21
809.88	229.20
810.20	229.19
810.52	229.20
810.84	229.15
811.16	229.15
811.48	229.11
811.80	229.10
812.12	229.07
812.43	229.05
812.75	229.06
813.07	229.06
813.39	229.04
813.71	229.03
814.03	229.02
814.35	228.99
814.67	228.93
814.98	228.95
815.30	228.89
815.62	228.85
815.94	228.76
816.26	228.80
816.58	228.75
816.89	228.72
817.21	228.69
817.53	228.72
817.85	228.71
818.17	228.72
818.48	228.69
818.80	228.71
819.12	228.68
819.44	228.66
819.76	228.62
820.07	228.59
820.39	228.55
820.71	228.53
821.03	228.53
821.34	228.55
821.66	228.51
821.98	228.53
822.30	228.50
822.61	228.55
822.93	228.47
823.25	228.46
823.57	228.50
823.88	228.48
824.20	228.45
824.52	228.42
824.83	228.38
825.15	228.35
825.47	228.31
825.79	228.34
826.10	228.31
826.42	228.27
826.74	228.27
827.05	228.25
827.37	228.22
827.69	228.18
828.00	228.17
828.32	228.16
828.64	228.14
828.95	228.19
829.27	228.15
829.58	228.13
829.90	228.11
830.22	228.08
830.53	228.05
830.85	228.00
831.17	228.00
831.48	227.98
831.80	227.96
832.11	227.94
832.43	227.84
832.75	227.81
833.06	227.87
833.38	227.85
833.69	227.85
834.01	227.85
834.32	227.86
834.64	227.82
834.96	227.81
835.27	227.78
835.59	227.75
835.90	227.71
836.22	227.67
836.53	227.66
836.85	227.60
837.16	227.68
837.48	227.68
837.79	227.66
838.11	227.64
838.42	227.63
838.74	227.64
839.05	227.67
839.37	227.64
839.68	227.57
840.00	227.55
840.31	227.55
840.63	227.50
840.94	227.48
841.26	227.48
841.57	227.48
841.88	227.47
842.20	227.44
842.51	227.41
842.83	227.44
843.14	227.56
843.46	227.59
843.77	227.50
844.08	227.49
844.40	227.50
844.71	227.49
845.03	227.46
845.34	227.43
845.65	227.40
845.97	227.43
846.28	227.44
846.60	227.47
846.91	227.45
847.22	227.47
847.54	227.47
847.85	227.47
848.16	227.46
848.48	227.46
848.79	227.50
849.10	227.53
849.42	227.53
849.73	227.42
850.04	227.39
850.36	227.36
850.67	227.40
850.98	227.36
851.30	227.40
851.61	227.42
851.92	227.44
852.23	227.49
852.55	227.43
852.86	227.41
853.17	227.38
853.49	227.39
853.80	227.44
854.11	227.45
854.42	227.47
854.74	227.43
855.05	227.42
855.36	227.36
855.67	227.37
855.99	227.36
856.30	227.46
856.61	227.46
856.92	227.49
857.23	227.47
857.55	227.46
857.86	227.41
858.17	227.40
858.48	227.39
858.79	227.35
859.11	227.38
859.42	227.41
859.73	227.42
860.04	227.42
860.35	227.36
860.66	227.33
860.98	227.32
861.29	227.39
861.60	227.37
861.91	227.43
862.22	227.37
862.53	227.39
862.84	227.30
863.16	227.33
863.47	227.31
863.78	227.31
864.09	227.32
864.40	227.32
864.71	227.33
865.02	227.30
865.33	227.26
865.64	227.25
865.95	227.23
866.27	227.29
866.58	227.26
866.89	227.31
867.20	227.32
867.51	227.29
867.82	227.21
868.13	227.22
868.44	227.15
868.75	227.22
869.06	227.21
869.37	227.19
869.68	227.15
869.99	227.14
870.30	227.16
870.61	227.15
870.92	227.15
871.23	227.15
871.54	227.19
871.85	227.23
872.16	227.26
872.47	227.25
872.78	227.19
873.09	227.20
873.40	227.15
873.71	227.15
874.02	227.17
874.33	227.17
874.64	227.15
874.95	227.19
875.26	227.14
875.56	227.13
875.87	227.16
876.18	227.14
876.49	227.23
876.80	227.21
877.11	227.21
877.42	227.21
877.73	227.22
878.04	227.20
878.35	227.18
878.66	227.17
878.96	227.19
879.27	227.19
879.58	227.16
879.89	227.14
880.20	227.16
880.51	227.12
880.82	227.10
881.12	227.12
881.43	227.11
881.74	227.12
882.05	227.11
882.36	227.10
882.67	227.13
882.97	227.02
883.28	227.00
883.59	226.97
883.90	226.96
884.21	226.94
884.51	226.94
884.82	226.96
885.13	226.93
885.44	226.90
885.74	226.89
886.05	226.92
886.36	226.91
886.67	226.87
886.98	226.93
887.28	226.97
887.59	226.97
887.90	226.98
888.20	226.95
888.51	226.94
888.82	226.93
889.13	226.94
889.43	227.02
889.74	227.03
890.05	227.04
890.35	227.08
890.66	227.07
890.97	227.07
891.28	227.05
891.58	227.08
891.89	227.06
892.20	227.05
892.50	227.06
892.81	227.09
893.12	227.07
893.42	227.04
893.73	227.04
894.04	227.02
894.34	227.03
894.65	227.07
894.95	227.07
895.26	227.09
895.57	227.14
895.87	227.03
896.18	227.03
896.48	227.07
896.79	227.05
897.10	227.07
897.40	227.05
897.71	227.07
898.01	227.05
898.32	227.08
898.63	227.10
898.93	227.10
899.24	227.09
899.54	227.14
899.85	227.10
900.15	227.10
900.46	227.08
900.76	227.06
901.07	227.05
901.38	227.05
901.68	227.02
901.99	227.00
902.29	227.03
902.60	227.03
902.90	227.00
903.21	227.00
903.51	226.99
903.82	226.99
904.12	227.00
904.43	227.01
904.73	227.03
905.03	227.02
905.34	227.07
905.64	227.08
905.95	227.05
906.25	227.05
906.56	227.02
906.86	227.04
907.17	227.04
907.47	227.02
907.77	227.01
908.08	227.00
908.38	226.95
908.69	226.95
908.99	226.98
909.30	226.98
909.60	226.95
909.90	226.93
910.21	226.93
910.51	226.89
910.81	226.88
911.12	226.85
911.42	226.85
911.73	226.78
912.03	226.79
912.33	226.80
912.64	226.80
912.94	226.82
913.24	226.80
913.55	226.80
913.85	226.79
914.15	226.82
914.46	226.85
914.76	226.86
915.06	226.89
915.37	226.83
915.67	226.85
915.97	226.84
916.27	226.81
916.58	226.84
916.88	226.81
917.18	226.81
917.49	226.87
917.79	226.85
918.09	226.85
918.39	226.89
918.70	226.88
919.00	226.89
919.30	226.95
919.60	226.96
919.91	226.97
920.21	226.97
920.51	226.96
920.81	226.94
921.12	226.98
921.42	226.95
921.72	226.98
922.02	226.96
922.32	226.98
922.63	227.01
922.93	227.02
923.23	227.08
923.53	227.11
923.83	227.03
924.13	227.06
924.44	227.07
924.74	227.06
925.04	227.09
925.34	227.09
925.64	227.01
925.94	227.04
926.24	227.06
926.55	227.05
926.85	227.04
927.15	227.05
927.45	227.04
927.75	227.03
928.05	227.02
928.35	227.01
928.65	227.05
928.95	227.04
929.26	227.03
929.56	227.01
929.86	227.01
930.16	227.01
930.46	227.00
930.76	227.01
931.06	226.99
931.36	226.96
931.66	226.99
931.96	227.05
932.26	227.02
932.56	227.00
932.86	227.01
933.16	227.01
933.46	227.02
933.76	226.99
934.06	227.03
934.36	227.04
934.66	227.01
934.96	227.00
935.26	227.00
935.56	227.01
935.86	227.00
936.16	226.97
936.46	226.99
936.76	226.97
937.06	226.93
937.36	226.90
937.66	226.88
937.96	226.84
938.26	226.79
938.56	226.80
938.86	226.78
939.16	226.81
939.46	226.83
939.76	226.81
940.06	226.82
940.35	226.80
940.65	226.76
940.95	226.82
941.25	226.77
941.55	226.76
941.85	226.73
942.15	226.76
942.45	226.81
942.75	226.78
943.04	226.79
943.34	226.82
943.64	226.84
943.94	226.86
944.24	226.87
944.54	226.87
944.84	226.88
945.13	226.87
945.43	226.85
945.73	226.83
946.03	226.82
946.33	226.81
946.62	226.75
946.92	226.78
947.22	226.75
947.52	226.79
947.82	226.82
948.11	226.83
948.41	226.79
948.71	226.72
949.01	226.70
949.31	226.71
949.60	226.68
949.90	226.69
950.20	226.66
950.50	226.67
950.79	226.68
951.09	226.65
951.39	226.63
951.69	226.64
951.98	226.66
952.28	226.67
952.58	226.68
952.87	226.70
953.17	226.73
953.47	226.72
953.76	226.71
954.06	226.69
954.36	226.67
954.66	226.67
954.95	226.71
955.25	226.76
955.55	226.74
955.84	226.75
956.14	226.76
956.44	226.78
956.73	226.75
957.03	226.77
957.32	226.78
957.62	226.77
957.92	226.80
958.21	226.79
958.51	226.89
958.81	226.88
959.10	226.91
959.40	226.90
959.69	226.92
959.99	226.97
960.29	227.00
960.58	226.99
960.88	227.02
961.17	227.03
961.47	227.03
961.76	227.03
962.06	227.04
962.36	227.05
962.65	227.07
962.95	227.07
963.24	227.05
963.54	227.07
963.83	227.10
964.13	227.07
964.42	227.05
964.72	226.99
965.01	226.98
965.31	226.97
965.60	226.97
965.90	227.01
966.19	226.97
966.49	226.96
966.78	226.96
967.08	226.96
967.37	226.94
967.67	226.94
967.96	226.95
968.26	226.95
968.55	226.94
968.85	226.94
969.14	226.98
969.43	226.97
969.73	226.97
970.02	226.93
970.32	226.93
970.61	226.94
970.91	226.94
971.20	226.93
971.49	226.91
971.79	226.90
972.08	226.81
972.38	226.80
972.67	226.75
972.96	226.76
973.26	226.73
973.55	226.75
973.85	226.72
974.14	226.72
974.43	226.71
974.73	226.70
975.02	226.68
975.31	226.67
975.61	226.67
975.90	226.65
976.19	226.66
976.49	226.68
976.78	226.66
977.07	226.63
977.37	226.65
977.66	226.66
977.95	226.64
978.24	226.61
978.54	226.65
978.83	226.68
979.12	226.66
979.42	226.66
979.71	226.65
980.00	226.66
980.29	226.67
980.59	226.63
980.88	226.68
981.17	226.68
981.46	226.68
981.76	226.63
982.05	226.66
982.34	226.64
982.63	226.61
982.93	226.62
983.22	226.61
983.51	226.60
983.80	226.63
984.09	226.65
984.39	226.69
984.68	226.67
984.97	226.67
985.26	226.68
985.55	226.68
985.85	226.65
986.14	226.65
986.43	226.62
986.72	226.67
987.01	226.60
987.30	226.59
987.59	226.56
987.89	226.60
988.18	226.59
988.47	226.61
988.76	226.62
989.05	226.60
989.34	226.60
989.63	226.63
989.92	226.61
990.22	226.59
990.51	226.58
990.80	226.57
991.09	226.59
991.38	226.60
991.67	226.64
991.96	226.64
992.25	226.68
992.54	226.73
992.83	226.71
993.12	226.76
993.41	226.77
993.70	226.84
993.99	226.86
994.28	226.87
994.58	226.88
994.87	226.88
995.16	226.90
995.45	226.90
995.74	226.87
996.03	226.87
996.32	226.93
996.61	226.98
996.90	227.02
997.19	227.02
997.48	227.01
997.77	227.00
998.06	227.01
998.34	227.00
998.63	226.98
998.92	226.98
999.21	226.98
999.50	226.98
999.79	226.92
1000.08	226.92
1000.37	226.91
1000.66	226.88
1000.95	226.90
1001.24	226.93
1001.53	226.95
1001.82	226.96
1002.11	226.95
1002.40	226.94
1002.68	226.98
1002.97	227.03
1003.26	227.01
1003.55	227.01
1003.84	227.01
1004.13	227.06
1004.42	227.04
1004.71	227.04
1004.99	227.03
1005.28	227.03
1005.57	227.05
1005.86	227.04
1006.15	227.02
1006.44	226.99
1006.72	227.02
1007.01	226.99
1007.30	226.97
1007.59	226.95
1007.88	226.93
1008.17	226.94
1008.45	226.88
1008.74	226.81
1009.03	226.73
1009.32	226.72
1009.60	226.69
1009.89	226.68
1010.18	226.63
1010.47	226.60
1010.76	226.59
1011.04	226.58
1011.33	226.67
1011.62	226.66
1011.91	226.64
1012.19	226.62
1012.48	226.63
1012.77	226.62
1013.05	226.65
1013.34	226.65
1013.63	226.63
1013.92	226.62
1014.20	226.59
1014.49	226.57
1014.78	226.55
1015.06	226.54
1015.35	226.53
1015.64	226.56
1015.92	226.54
1016.21	226.53
1016.50	226.54
1016.78	226.54
1017.07	226.55
1017.36	226.43
1017.64	226.41
1017.93	226.42
1018.22	226.40
1018.50	226.38
1018.79	226.38
1019.08	226.34
1019.36	226.32
1019.65	226.30
1019.93	226.32
1020.22	226.34
1020.51	226.41
1020.79	226.42
1021.08	226.01
1021.36	226.14
1021.65	226.46
1021.94	226.36
1022.22	226.05
1022.51	226.10
1022.79	226.62
1023.08	226.50
1023.36	227.29
1023.65	226.35
>>>>>End Processed Spectral Data<<<<<
