SpectraSuite Data File
++++++++++++++++++++++++++++++++++++
Date: Fri Feb 01 18:03:21 EST 2013
User: group
Dark Spectrum Present: No
Reference Spectrum Present: No
Number of Sampled Component Spectra: 1
Spectrometers: USB2E7196
Integration Time (usec): 35000 (USB2E7196)
Spectra Averaged: 100 (USB2E7196)
Boxcar Smoothing: 10 (USB2E7196)
Correct for Electrical Dark: No (USB2E7196)
Strobe/Lamp Enabled: No (USB2E7196)
Correct for Detector Non-linearity: No (USB2E7196)
Correct for Stray Light: No (USB2E7196)
Number of Pixels in Processed Spectrum: 2048
>>>>>Begin Processed Spectral Data<<<<<
339.09	0.00
339.48	212.93
339.86	213.98
340.24	215.80
340.63	216.78
341.01	219.75
341.39	219.55
341.78	221.36
342.16	222.00
342.54	222.69
342.93	211.14
343.31	221.85
343.69	222.40
344.07	222.86
344.46	223.27
344.84	223.65
345.22	223.91
345.60	224.14
345.99	224.32
346.37	224.47
346.75	224.59
347.13	224.68
347.52	224.72
347.90	224.79
348.28	224.84
348.66	224.92
349.05	224.88
349.43	224.95
349.81	224.99
350.19	225.05
350.57	225.11
350.96	225.21
351.34	225.26
351.72	225.34
352.10	225.48
352.48	225.58
352.87	225.63
353.25	225.68
353.63	225.75
354.01	225.83
354.39	225.91
354.77	225.97
355.15	226.07
355.54	226.14
355.92	226.18
356.30	226.27
356.68	226.37
357.06	226.46
357.44	226.51
357.82	226.61
358.20	226.68
358.58	226.76
358.97	226.82
359.35	226.92
359.73	226.97
360.11	227.02
360.49	227.05
360.87	227.11
361.25	227.18
361.63	227.29
362.01	227.33
362.39	227.36
362.77	227.42
363.15	227.43
363.53	227.48
363.91	227.51
364.29	227.53
364.67	227.45
365.05	227.46
365.43	227.49
365.81	227.48
366.19	227.54
366.57	227.58
366.95	227.59
367.33	227.50
367.71	227.48
368.09	227.47
368.47	227.45
368.85	227.46
369.23	227.45
369.61	227.39
369.99	227.39
370.37	227.36
370.75	227.36
371.13	227.32
371.51	227.27
371.89	227.24
372.27	227.23
372.65	227.22
373.03	227.21
373.41	227.13
373.78	227.09
374.16	226.97
374.54	226.88
374.92	226.79
375.30	226.77
375.68	226.72
376.06	226.67
376.44	226.64
376.82	226.56
377.19	226.51
377.57	226.43
377.95	226.35
378.33	226.26
378.71	226.16
379.09	226.13
379.47	226.08
379.84	226.01
380.22	225.93
380.60	225.84
380.98	225.74
381.36	225.72
381.73	225.66
382.11	225.61
382.49	225.58
382.87	225.52
383.25	225.44
383.62	225.51
384.00	225.45
384.38	225.41
384.76	225.37
385.13	225.33
385.51	225.29
385.89	225.26
386.27	225.25
386.64	225.20
387.02	225.14
387.40	225.10
387.78	225.06
388.15	225.04
388.53	225.00
388.91	224.96
389.29	224.92
389.66	224.93
390.04	224.93
390.42	224.91
390.79	224.91
391.17	224.91
391.55	224.79
391.92	224.76
392.30	224.75
392.68	224.73
393.05	224.73
393.43	224.74
393.81	224.76
394.18	224.73
394.56	224.76
394.94	224.79
395.31	224.82
395.69	224.86
396.06	224.90
396.44	224.97
396.82	225.03
397.19	225.10
397.57	225.09
397.95	225.12
398.32	225.14
398.70	225.19
399.07	225.30
399.45	225.36
399.82	225.45
400.20	225.54
400.58	225.64
400.95	225.69
401.33	225.79
401.70	225.94
402.08	226.04
402.45	226.13
402.83	226.27
403.20	226.40
403.58	226.51
403.95	226.65
404.33	226.75
404.71	226.88
405.08	227.06
405.46	227.23
405.83	227.42
406.21	227.61
406.58	227.82
406.96	227.98
407.33	228.21
407.70	228.44
408.08	228.75
408.45	228.98
408.83	229.28
409.20	229.54
409.58	229.75
409.95	230.11
410.33	230.46
410.70	230.77
411.08	231.13
411.45	231.54
411.82	231.95
412.20	232.41
412.57	232.96
412.95	233.36
413.32	233.88
413.69	234.41
414.07	234.98
414.44	235.58
414.82	236.21
415.19	236.92
415.56	237.66
415.94	238.37
416.31	239.23
416.68	240.08
417.06	241.04
417.43	241.95
417.81	242.98
418.18	244.02
418.55	245.11
418.93	246.26
419.30	247.46
419.67	248.69
420.04	250.01
420.42	251.36
420.79	252.92
421.16	254.45
421.54	256.02
421.91	257.65
422.28	259.33
422.66	261.15
423.03	262.85
423.40	264.66
423.77	266.61
424.15	268.55
424.52	270.52
424.89	272.71
425.26	274.79
425.64	276.73
426.01	278.88
426.38	281.13
426.75	283.42
427.13	285.76
427.50	288.23
427.87	290.78
428.24	293.28
428.61	295.69
428.99	298.35
429.36	301.26
429.73	304.06
430.10	306.86
430.47	309.66
430.85	312.57
431.22	315.58
431.59	318.74
431.96	321.77
432.33	325.14
432.70	328.33
433.08	332.17
433.45	335.75
433.82	339.26
434.19	343.24
434.56	346.99
434.93	350.61
435.30	354.17
435.68	358.04
436.05	361.89
436.42	365.69
436.79	369.11
437.16	372.75
437.53	376.56
437.90	380.33
438.27	384.07
438.64	387.93
439.01	391.42
439.38	394.52
439.75	397.44
440.13	400.86
440.50	404.08
440.87	406.58
441.24	409.24
441.61	412.21
441.98	414.21
442.35	416.74
442.72	419.28
443.09	421.74
443.46	423.10
443.83	423.94
444.20	424.63
444.57	425.83
444.94	426.25
445.31	426.76
445.68	427.24
446.05	427.32
446.42	426.78
446.79	426.27
447.16	425.66
447.53	425.26
447.90	423.66
448.27	422.10
448.64	419.97
449.01	418.43
449.37	415.77
449.74	413.17
450.11	410.04
450.48	406.70
450.85	403.29
451.22	400.41
451.59	397.66
451.96	395.03
452.33	391.45
452.70	388.25
453.07	384.41
453.43	380.51
453.80	376.80
454.17	373.21
454.54	369.77
454.91	366.10
455.28	362.49
455.65	359.16
456.02	355.75
456.38	352.82
456.75	349.19
457.12	346.14
457.49	343.12
457.86	340.23
458.23	337.65
458.59	334.83
458.96	331.97
459.33	329.43
459.70	326.88
460.07	324.78
460.43	322.39
460.80	320.16
461.17	318.14
461.54	316.04
461.91	314.06
462.27	312.03
462.64	310.25
463.01	308.36
463.38	306.54
463.74	304.69
464.11	303.09
464.48	301.69
464.85	300.14
465.21	298.95
465.58	297.68
465.95	296.20
466.32	294.95
466.68	293.73
467.05	292.48
467.42	291.22
467.78	289.96
468.15	288.76
468.52	287.84
468.88	286.68
469.25	285.64
469.62	284.80
469.98	283.86
470.35	283.04
470.72	282.22
471.08	281.33
471.45	280.58
471.82	279.83
472.18	278.99
472.55	278.40
472.92	277.65
473.28	276.96
473.65	276.34
474.02	275.72
474.38	275.17
474.75	274.71
475.11	274.24
475.48	273.89
475.85	273.55
476.21	273.22
476.58	272.94
476.94	272.68
477.31	272.38
477.67	272.16
478.04	271.93
478.41	271.76
478.77	271.71
479.14	271.57
479.50	271.50
479.87	271.48
480.23	271.46
480.60	271.43
480.96	271.50
481.33	271.62
481.69	271.79
482.06	271.93
482.42	272.03
482.79	272.21
483.15	272.45
483.52	272.79
483.88	273.10
484.25	273.46
484.61	273.87
484.98	274.30
485.34	274.85
485.71	275.44
486.07	276.04
486.44	276.62
486.80	277.35
487.17	278.10
487.53	278.99
487.90	279.84
488.26	280.85
488.62	281.87
488.99	282.88
489.35	283.92
489.72	285.17
490.08	286.46
490.44	287.80
490.81	289.21
491.17	290.64
491.54	292.19
491.90	293.80
492.26	295.53
492.63	297.38
492.99	299.24
493.36	301.25
493.72	303.41
494.08	305.64
494.45	308.03
494.81	310.58
495.17	313.17
495.54	315.89
495.90	318.74
496.26	321.72
496.63	324.84
496.99	328.16
497.35	331.51
497.72	335.07
498.08	338.77
498.44	342.68
498.80	346.81
499.17	351.10
499.53	355.52
499.89	360.15
500.26	364.87
500.62	369.80
500.98	375.04
501.34	380.47
501.71	386.10
502.07	391.86
502.43	397.75
502.79	403.89
503.16	410.35
503.52	417.06
503.88	423.89
504.24	430.93
504.60	438.26
504.97	445.85
505.33	453.69
505.69	461.92
506.05	470.24
506.41	478.69
506.78	487.32
507.14	496.33
507.50	505.65
507.86	515.32
508.22	525.20
508.59	535.06
508.95	545.27
509.31	555.80
509.67	566.58
510.03	577.59
510.39	588.99
510.75	600.56
511.12	612.23
511.48	624.27
511.84	636.58
512.20	648.89
512.56	661.84
512.92	674.90
513.28	688.16
513.64	701.59
514.00	715.30
514.37	729.34
514.73	743.37
515.09	757.44
515.45	771.73
515.81	786.37
516.17	801.44
516.53	816.76
516.89	832.12
517.25	847.43
517.61	863.05
517.97	878.57
518.33	894.18
518.69	910.18
519.05	926.43
519.41	942.95
519.77	959.92
520.13	976.71
520.49	993.46
520.85	1010.24
521.21	1027.32
521.57	1044.99
521.93	1062.12
522.29	1080.07
522.65	1097.88
523.01	1115.63
523.37	1133.28
523.73	1151.06
524.09	1168.65
524.45	1186.53
524.81	1204.95
525.17	1223.50
525.53	1242.24
525.89	1260.93
526.25	1279.63
526.61	1297.83
526.97	1316.40
527.33	1334.63
527.68	1352.86
528.04	1371.26
528.40	1389.74
528.76	1408.72
529.12	1427.17
529.48	1446.12
529.84	1464.00
530.20	1482.60
530.56	1501.70
530.91	1521.15
531.27	1539.92
531.63	1558.43
531.99	1577.09
532.35	1595.11
532.71	1613.01
533.07	1631.31
533.42	1649.43
533.78	1667.59
534.14	1686.04
534.50	1703.47
534.86	1721.61
535.21	1739.13
535.57	1757.16
535.93	1774.82
536.29	1791.81
536.65	1809.17
537.00	1826.17
537.36	1843.86
537.72	1860.58
538.08	1877.39
538.44	1893.36
538.79	1909.61
539.15	1925.41
539.51	1941.42
539.87	1958.03
540.22	1974.03
540.58	1990.16
540.94	2005.53
541.29	2020.59
541.65	2035.54
542.01	2050.99
542.37	2065.52
542.72	2080.25
543.08	2094.35
543.44	2109.14
543.79	2122.72
544.15	2135.97
544.51	2149.78
544.87	2162.96
545.22	2176.20
545.58	2188.46
545.94	2200.48
546.29	2212.43
546.65	2224.59
547.01	2235.90
547.36	2246.83
547.72	2257.53
548.07	2267.49
548.43	2277.87
548.79	2287.94
549.14	2297.62
549.50	2306.98
549.86	2316.74
550.21	2326.01
550.57	2335.25
550.92	2343.82
551.28	2352.77
551.64	2361.66
551.99	2370.06
552.35	2378.24
552.70	2386.25
553.06	2394.23
553.41	2402.48
553.77	2410.44
554.13	2418.48
554.48	2426.63
554.84	2434.05
555.19	2440.93
555.55	2448.01
555.90	2454.33
556.26	2461.28
556.61	2467.48
556.97	2473.76
557.32	2479.63
557.68	2485.34
558.03	2491.36
558.39	2496.59
558.74	2503.05
559.10	2508.80
559.45	2514.04
559.81	2519.82
560.16	2525.07
560.52	2529.79
560.87	2534.56
561.23	2538.49
561.58	2542.83
561.94	2546.83
562.29	2550.30
562.64	2554.55
563.00	2558.23
563.35	2563.21
563.71	2567.37
564.06	2572.00
564.42	2576.15
564.77	2579.93
565.12	2583.69
565.48	2586.74
565.83	2589.79
566.19	2592.11
566.54	2593.86
566.89	2596.09
567.25	2597.78
567.60	2600.19
567.96	2603.11
568.31	2604.95
568.66	2607.24
569.02	2608.70
569.37	2609.77
569.72	2611.66
570.08	2612.71
570.43	2613.58
570.78	2613.63
571.14	2612.85
571.49	2612.03
571.84	2612.27
572.20	2611.73
572.55	2611.22
572.90	2609.92
573.26	2609.19
573.61	2607.95
573.96	2606.63
574.31	2604.00
574.67	2601.17
575.02	2597.73
575.37	2594.29
575.72	2590.72
576.08	2587.46
576.43	2584.23
576.78	2580.81
577.13	2577.66
577.49	2574.42
577.84	2571.03
578.19	2567.11
578.54	2563.50
578.90	2559.45
579.25	2553.59
579.60	2548.40
579.95	2543.09
580.30	2537.89
580.66	2532.31
581.01	2527.05
581.36	2521.82
581.71	2517.36
582.06	2512.62
582.42	2507.93
582.77	2502.31
583.12	2497.37
583.47	2492.31
583.82	2487.13
584.17	2481.24
584.53	2475.26
584.88	2469.21
585.23	2462.88
585.58	2456.92
585.93	2450.84
586.28	2445.44
586.63	2439.94
586.98	2434.37
587.34	2429.12
587.69	2423.81
588.04	2418.08
588.39	2411.86
588.74	2404.68
589.09	2397.92
589.44	2390.50
589.79	2383.65
590.14	2377.27
590.49	2369.92
590.84	2362.69
591.19	2355.73
591.54	2348.59
591.89	2340.42
592.25	2332.91
592.60	2324.87
592.95	2316.36
593.30	2308.07
593.65	2299.57
594.00	2291.49
594.35	2283.14
594.70	2274.01
595.05	2266.01
595.40	2257.63
595.75	2248.90
596.10	2241.88
596.45	2234.12
596.80	2227.04
597.15	2219.50
597.50	2211.64
597.85	2204.06
598.19	2196.58
598.54	2188.73
598.89	2181.09
599.24	2174.23
599.59	2166.47
599.94	2159.27
600.29	2152.02
600.64	2144.37
600.99	2135.77
601.34	2127.97
601.69	2119.89
602.04	2112.00
602.39	2103.39
602.74	2095.37
603.08	2087.64
603.43	2079.91
603.78	2071.45
604.13	2062.95
604.48	2054.53
604.83	2046.38
605.18	2038.54
605.53	2029.21
605.87	2019.70
606.22	2011.16
606.57	2001.83
606.92	1993.15
607.27	1984.77
607.62	1976.63
607.96	1968.11
608.31	1960.42
608.66	1951.45
609.01	1942.69
609.36	1933.76
609.70	1924.41
610.05	1915.19
610.40	1906.19
610.75	1896.24
611.10	1887.22
611.44	1877.32
611.79	1867.97
612.14	1857.83
612.49	1846.91
612.83	1837.03
613.18	1827.47
613.53	1817.92
613.88	1808.04
614.22	1798.36
614.57	1788.10
614.92	1778.70
615.27	1770.01
615.61	1760.19
615.96	1750.75
616.31	1741.69
616.65	1732.98
617.00	1723.90
617.35	1714.78
617.70	1705.01
618.04	1695.01
618.39	1685.42
618.74	1676.57
619.08	1666.72
619.43	1657.69
619.78	1649.54
620.12	1641.02
620.47	1632.15
620.82	1622.55
621.16	1613.62
621.51	1604.56
621.85	1595.55
622.20	1585.49
622.55	1575.49
622.89	1566.17
623.24	1557.03
623.59	1548.34
623.93	1539.51
624.28	1531.02
624.62	1522.13
624.97	1513.60
625.32	1505.64
625.66	1497.19
626.01	1488.71
626.35	1479.98
626.70	1470.71
627.04	1461.65
627.39	1452.49
627.73	1443.65
628.08	1435.47
628.43	1426.93
628.77	1418.35
629.12	1409.47
629.46	1401.06
629.81	1392.16
630.15	1383.72
630.50	1375.11
630.84	1365.38
631.19	1355.98
631.53	1347.17
631.88	1338.24
632.22	1329.35
632.57	1320.69
632.91	1311.92
633.26	1303.19
633.60	1294.34
633.95	1285.96
634.29	1277.62
634.64	1269.73
634.98	1261.16
635.32	1252.76
635.67	1244.84
636.01	1236.97
636.36	1228.94
636.70	1221.17
637.05	1213.49
637.39	1205.82
637.73	1198.19
638.08	1191.31
638.42	1184.30
638.77	1176.69
639.11	1169.11
639.45	1161.55
639.80	1153.67
640.14	1146.08
640.49	1138.46
640.83	1131.19
641.17	1124.00
641.52	1116.61
641.86	1109.03
642.20	1102.13
642.55	1094.72
642.89	1087.25
643.23	1079.59
643.58	1072.86
643.92	1065.75
644.26	1058.86
644.61	1051.72
644.95	1044.60
645.29	1036.97
645.64	1029.05
645.98	1021.64
646.32	1014.65
646.66	1007.71
647.01	1001.06
647.35	994.44
647.69	987.51
648.04	980.99
648.38	974.30
648.72	967.50
649.06	960.43
649.41	953.59
649.75	946.72
650.09	939.87
650.43	933.19
650.78	926.14
651.12	919.04
651.46	912.29
651.80	905.73
652.14	899.60
652.49	893.39
652.83	887.39
653.17	880.83
653.51	874.27
653.85	867.96
654.20	861.46
654.54	854.46
654.88	847.77
655.22	840.93
655.56	834.32
655.90	827.82
656.25	821.79
656.59	815.56
656.93	809.63
657.27	803.66
657.61	797.31
657.95	791.31
658.29	785.50
658.64	779.38
658.98	773.15
659.32	766.73
659.66	760.73
660.00	754.69
660.34	748.97
660.68	743.27
661.02	737.36
661.36	731.85
661.70	726.66
662.05	721.65
662.39	716.67
662.73	711.44
663.07	706.42
663.41	701.27
663.75	696.07
664.09	690.71
664.43	685.57
664.77	680.83
665.11	675.92
665.45	671.13
665.79	666.35
666.13	661.67
666.47	656.92
666.81	652.06
667.15	647.19
667.49	642.66
667.83	638.18
668.17	633.69
668.51	628.95
668.85	624.27
669.19	619.82
669.53	615.36
669.87	610.96
670.21	606.69
670.55	602.46
670.89	598.43
671.23	594.46
671.57	590.36
671.91	586.25
672.25	582.16
672.58	578.02
672.92	574.14
673.26	570.41
673.60	566.78
673.94	563.20
674.28	559.87
674.62	556.46
674.96	552.88
675.30	549.47
675.64	546.18
675.97	542.93
676.31	539.63
676.65	536.30
676.99	533.14
677.33	529.84
677.67	526.60
678.01	523.21
678.34	519.82
678.68	516.55
679.02	513.32
679.36	510.18
679.70	507.12
680.04	504.01
680.37	500.74
680.71	497.46
681.05	494.44
681.39	491.31
681.73	488.21
682.06	485.28
682.40	482.35
682.74	479.29
683.08	476.38
683.42	473.31
683.75	470.37
684.09	467.41
684.43	464.50
684.77	461.60
685.10	458.82
685.44	456.15
685.78	453.47
686.12	450.80
686.45	448.12
686.79	445.40
687.13	442.82
687.46	440.20
687.80	437.76
688.14	435.10
688.48	432.66
688.81	430.11
689.15	427.60
689.49	425.06
689.82	422.70
690.16	420.31
690.50	418.06
690.83	415.74
691.17	413.39
691.51	411.21
691.84	409.06
692.18	406.83
692.52	404.55
692.85	402.23
693.19	400.09
693.52	397.96
693.86	395.87
694.20	393.75
694.53	391.71
694.87	389.52
695.21	387.44
695.54	385.30
695.88	383.22
696.21	381.26
696.55	379.32
696.88	377.32
697.22	375.32
697.56	373.45
697.89	371.58
698.23	369.78
698.56	367.89
698.90	366.06
699.23	364.16
699.57	362.30
699.90	360.54
700.24	358.72
700.58	356.95
700.91	355.22
701.25	353.54
701.58	351.95
701.92	350.38
702.25	348.83
702.59	347.31
702.92	345.80
703.26	344.25
703.59	342.78
703.93	341.45
704.26	340.07
704.60	338.56
704.93	337.09
705.26	335.62
705.60	334.21
705.93	332.86
706.27	331.66
706.60	330.41
706.94	329.16
707.27	327.85
707.61	326.59
707.94	325.38
708.27	324.10
708.61	322.81
708.94	321.60
709.28	320.45
709.61	319.30
709.94	318.20
710.28	316.98
710.61	315.80
710.95	314.50
711.28	313.40
711.61	312.33
711.95	311.30
712.28	310.17
712.61	309.08
712.95	308.00
713.28	306.93
713.61	305.93
713.95	304.91
714.28	303.92
714.61	302.93
714.95	301.94
715.28	300.95
715.61	299.96
715.95	298.98
716.28	297.99
716.61	297.00
716.95	296.05
717.28	295.18
717.61	294.30
717.94	293.43
718.28	292.50
718.61	291.61
718.94	290.77
719.27	290.03
719.61	289.28
719.94	288.49
720.27	287.69
720.60	286.91
720.94	286.16
721.27	285.51
721.60	284.85
721.93	284.15
722.27	283.48
722.60	282.85
722.93	282.19
723.26	281.56
723.59	280.92
723.93	280.27
724.26	279.66
724.59	279.02
724.92	278.42
725.25	277.81
725.59	277.18
725.92	276.55
726.25	275.94
726.58	275.36
726.91	274.79
727.24	274.23
727.57	273.64
727.91	273.06
728.24	272.48
728.57	271.89
728.90	271.36
729.23	270.81
729.56	270.24
729.89	269.66
730.22	269.08
730.55	268.52
730.89	267.97
731.22	267.41
731.55	266.87
731.88	266.34
732.21	265.84
732.54	265.36
732.87	264.86
733.20	264.34
733.53	263.88
733.86	263.42
734.19	262.94
734.52	262.53
734.85	262.11
735.18	261.60
735.51	261.13
735.84	260.67
736.17	260.25
736.50	259.81
736.83	259.54
737.16	259.14
737.49	258.75
737.82	258.32
738.15	257.95
738.48	257.58
738.81	257.20
739.14	256.83
739.47	256.41
739.80	256.06
740.13	255.72
740.46	255.33
740.79	254.96
741.12	254.59
741.45	254.21
741.78	253.79
742.11	253.45
742.44	253.13
742.77	252.80
743.10	252.42
743.43	252.07
743.75	251.66
744.08	251.48
744.41	251.15
744.74	250.87
745.07	250.57
745.40	250.28
745.73	250.01
746.06	249.66
746.39	249.38
746.71	249.12
747.04	248.80
747.37	248.50
747.70	248.21
748.03	247.92
748.36	247.68
748.68	247.44
749.01	247.20
749.34	246.93
749.67	246.65
750.00	246.45
750.33	246.26
750.65	246.02
750.98	245.62
751.31	245.39
751.64	245.17
751.97	244.97
752.29	244.70
752.62	244.42
752.95	244.21
753.28	243.99
753.60	243.72
753.93	243.52
754.26	243.31
754.59	243.04
754.91	242.81
755.24	242.57
755.57	242.35
755.90	242.14
756.22	241.94
756.55	241.71
756.88	241.44
757.20	241.20
757.53	240.96
757.86	240.78
758.19	240.60
758.51	240.36
758.84	240.11
759.17	239.94
759.49	239.78
759.82	239.65
760.15	239.48
760.47	239.31
760.80	239.12
761.13	238.93
761.45	238.76
761.78	238.56
762.11	238.39
762.43	238.23
762.76	238.06
763.08	237.91
763.41	237.76
763.74	237.61
764.06	237.46
764.39	237.29
764.71	237.14
765.04	236.97
765.37	236.86
765.69	236.71
766.02	236.55
766.34	236.38
766.67	236.18
767.00	236.05
767.32	235.98
767.65	235.91
767.97	235.80
768.30	235.69
768.62	235.55
768.95	235.43
769.27	235.29
769.60	235.20
769.92	235.04
770.25	234.91
770.57	234.79
770.90	234.63
771.22	234.53
771.55	234.45
771.87	234.35
772.20	234.22
772.52	234.19
772.85	234.20
773.17	234.12
773.50	234.04
773.82	233.90
774.15	233.71
774.47	233.54
774.80	233.42
775.12	233.33
775.45	233.28
775.77	233.17
776.09	233.09
776.42	232.96
776.74	232.93
777.07	232.86
777.39	232.80
777.72	232.73
778.04	232.67
778.36	232.53
778.69	232.44
779.01	232.33
779.33	232.17
779.66	231.97
779.98	231.86
780.31	231.77
780.63	231.73
780.95	231.67
781.28	231.57
781.60	231.50
781.92	231.40
782.25	231.30
782.57	231.24
782.89	231.16
783.22	231.06
783.54	230.96
783.86	230.87
784.19	230.76
784.51	230.72
784.83	230.64
785.16	230.60
785.48	230.55
785.80	230.51
786.12	230.45
786.45	230.39
786.77	230.35
787.09	230.26
787.42	230.19
787.74	230.14
788.06	230.12
788.38	230.08
788.71	230.04
789.03	230.01
789.35	229.96
789.67	229.90
789.99	229.88
790.32	229.82
790.64	229.76
790.96	229.83
791.28	229.74
791.61	229.68
791.93	229.64
792.25	229.60
792.57	229.64
792.89	229.58
793.21	229.54
793.54	229.49
793.86	229.47
794.18	229.41
794.50	229.35
794.82	229.30
795.14	229.29
795.47	229.25
795.79	229.19
796.11	229.12
796.43	229.11
796.75	229.07
797.07	229.06
797.39	229.05
797.71	228.91
798.04	228.91
798.36	228.87
798.68	228.84
799.00	228.80
799.32	228.71
799.64	228.74
799.96	228.71
800.28	228.69
800.60	228.64
800.92	228.62
801.24	228.60
801.56	228.57
801.89	228.51
802.21	228.49
802.53	228.48
802.85	228.44
803.17	228.43
803.49	228.38
803.81	228.33
804.13	228.25
804.45	228.22
804.77	228.22
805.09	228.17
805.41	228.12
805.73	228.08
806.05	228.03
806.37	227.94
806.69	227.91
807.01	227.88
807.33	227.88
807.65	227.80
807.97	227.82
808.28	227.78
808.60	227.75
808.92	227.71
809.24	227.73
809.56	227.71
809.88	227.66
810.20	227.64
810.52	227.60
810.84	227.58
811.16	227.55
811.48	227.48
811.80	227.46
812.12	227.45
812.43	227.42
812.75	227.41
813.07	227.41
813.39	227.38
813.71	227.34
814.03	227.29
814.35	227.28
814.67	227.20
814.98	227.17
815.30	227.16
815.62	227.10
815.94	226.99
816.26	227.03
816.58	226.97
816.89	226.91
817.21	226.86
817.53	226.88
817.85	226.86
818.17	226.83
818.48	226.79
818.80	226.77
819.12	226.72
819.44	226.63
819.76	226.60
820.07	226.57
820.39	226.52
820.71	226.51
821.03	226.52
821.34	226.51
821.66	226.51
821.98	226.49
822.30	226.47
822.61	226.56
822.93	226.49
823.25	226.49
823.57	226.49
823.88	226.52
824.20	226.50
824.52	226.50
824.83	226.49
825.15	226.49
825.47	226.50
825.79	226.49
826.10	226.52
826.42	226.49
826.74	226.47
827.05	226.47
827.37	226.41
827.69	226.39
828.00	226.39
828.32	226.39
828.64	226.38
828.95	226.45
829.27	226.43
829.58	226.41
829.90	226.44
830.22	226.46
830.53	226.44
830.85	226.41
831.17	226.40
831.48	226.42
831.80	226.41
832.11	226.37
832.43	226.36
832.75	226.34
833.06	226.40
833.38	226.39
833.69	226.38
834.01	226.40
834.32	226.39
834.64	226.36
834.96	226.32
835.27	226.32
835.59	226.29
835.90	226.23
836.22	226.25
836.53	226.20
836.85	226.16
837.16	226.23
837.48	226.21
837.79	226.21
838.11	226.19
838.42	226.18
838.74	226.17
839.05	226.17
839.37	226.14
839.68	226.09
840.00	226.08
840.31	226.09
840.63	226.08
840.94	226.05
841.26	226.02
841.57	225.99
841.88	225.96
842.20	225.92
842.51	225.92
842.83	225.91
843.14	226.00
843.46	225.99
843.77	225.93
844.08	225.91
844.40	225.89
844.71	225.86
845.03	225.84
845.34	225.81
845.65	225.80
845.97	225.84
846.28	225.83
846.60	225.84
846.91	225.80
847.22	225.80
847.54	225.82
847.85	225.83
848.16	225.85
848.48	225.86
848.79	225.89
849.10	225.86
849.42	225.82
849.73	225.70
850.04	225.69
850.36	225.63
850.67	225.66
850.98	225.65
851.30	225.64
851.61	225.67
851.92	225.69
852.23	225.74
852.55	225.75
852.86	225.76
853.17	225.75
853.49	225.78
853.80	225.80
854.11	225.81
854.42	225.84
854.74	225.82
855.05	225.82
855.36	225.77
855.67	225.80
855.99	225.81
856.30	225.95
856.61	225.92
856.92	225.96
857.23	225.95
857.55	225.94
857.86	225.96
858.17	225.96
858.48	225.91
858.79	225.84
859.11	225.81
859.42	225.80
859.73	225.78
860.04	225.75
860.35	225.72
860.66	225.67
860.98	225.64
861.29	225.63
861.60	225.61
861.91	225.61
862.22	225.58
862.53	225.55
862.84	225.44
863.16	225.48
863.47	225.46
863.78	225.45
864.09	225.46
864.40	225.45
864.71	225.42
865.02	225.42
865.33	225.39
865.64	225.36
865.95	225.33
866.27	225.42
866.58	225.44
866.89	225.47
867.20	225.44
867.51	225.42
867.82	225.42
868.13	225.45
868.44	225.44
868.75	225.46
869.06	225.45
869.37	225.43
869.68	225.35
869.99	225.37
870.30	225.38
870.61	225.38
870.92	225.38
871.23	225.38
871.54	225.44
871.85	225.49
872.16	225.49
872.47	225.46
872.78	225.38
873.09	225.38
873.40	225.35
873.71	225.40
874.02	225.41
874.33	225.42
874.64	225.37
874.95	225.39
875.26	225.38
875.56	225.40
875.87	225.41
876.18	225.47
876.49	225.54
876.80	225.52
877.11	225.51
877.42	225.47
877.73	225.48
878.04	225.45
878.35	225.44
878.66	225.43
878.96	225.45
879.27	225.43
879.58	225.38
879.89	225.36
880.20	225.36
880.51	225.36
880.82	225.33
881.12	225.35
881.43	225.34
881.74	225.31
882.05	225.29
882.36	225.29
882.67	225.30
882.97	225.19
883.28	225.18
883.59	225.17
883.90	225.18
884.21	225.18
884.51	225.15
884.82	225.11
885.13	225.16
885.44	225.15
885.74	225.16
886.05	225.17
886.36	225.17
886.67	225.14
886.98	225.18
887.28	225.19
887.59	225.18
887.90	225.18
888.20	225.18
888.51	225.22
888.82	225.20
889.13	225.18
889.43	225.26
889.74	225.25
890.05	225.25
890.35	225.25
890.66	225.25
890.97	225.23
891.28	225.21
891.58	225.17
891.89	225.17
892.20	225.14
892.50	225.14
892.81	225.14
893.12	225.12
893.42	225.08
893.73	225.09
894.04	225.10
894.34	225.08
894.65	225.07
894.95	225.01
895.26	225.04
895.57	225.10
895.87	224.98
896.18	225.01
896.48	225.04
896.79	225.03
897.10	225.04
897.40	225.05
897.71	225.08
898.01	225.10
898.32	225.14
898.63	225.14
898.93	225.16
899.24	225.15
899.54	225.18
899.85	225.18
900.15	225.18
900.46	225.17
900.76	225.19
901.07	225.21
901.38	225.23
901.68	225.21
901.99	225.14
902.29	225.18
902.60	225.18
902.90	225.16
903.21	225.19
903.51	225.21
903.82	225.23
904.12	225.23
904.43	225.20
904.73	225.17
905.03	225.19
905.34	225.30
905.64	225.30
905.95	225.31
906.25	225.30
906.56	225.27
906.86	225.28
907.17	225.27
907.47	225.28
907.77	225.25
908.08	225.22
908.38	225.24
908.69	225.23
908.99	225.25
909.30	225.24
909.60	225.19
909.90	225.16
910.21	225.12
910.51	225.10
910.81	225.09
911.12	225.10
911.42	225.07
911.73	224.96
912.03	224.96
912.33	224.98
912.64	224.98
912.94	224.97
913.24	224.94
913.55	224.94
913.85	224.93
914.15	224.97
914.46	224.97
914.76	224.96
915.06	224.95
915.37	224.89
915.67	224.91
915.97	224.91
916.27	224.90
916.58	224.93
916.88	224.94
917.18	224.96
917.49	225.02
917.79	225.05
918.09	225.05
918.39	225.07
918.70	225.06
919.00	225.02
919.30	225.08
919.60	225.07
919.91	225.09
920.21	225.05
920.51	225.04
920.81	225.07
921.12	225.11
921.42	225.09
921.72	225.15
922.02	225.11
922.32	225.12
922.63	225.11
922.93	225.14
923.23	225.11
923.53	225.09
923.83	225.01
924.13	225.01
924.44	225.01
924.74	225.03
925.04	225.06
925.34	225.08
925.64	225.07
925.94	225.09
926.24	225.11
926.55	225.11
926.85	225.13
927.15	225.09
927.45	225.06
927.75	225.07
928.05	225.03
928.35	225.06
928.65	225.09
928.95	225.12
929.26	225.09
929.56	225.13
929.86	225.14
930.16	225.10
930.46	225.10
930.76	225.13
931.06	225.06
931.36	225.02
931.66	225.03
931.96	225.02
932.26	225.00
932.56	224.98
932.86	224.98
933.16	224.97
933.46	224.97
933.76	224.96
934.06	224.98
934.36	225.01
934.66	225.01
934.96	225.00
935.26	225.01
935.56	225.03
935.86	225.02
936.16	225.04
936.46	225.05
936.76	225.02
937.06	224.97
937.36	224.97
937.66	224.99
937.96	224.96
938.26	224.94
938.56	224.95
938.86	224.91
939.16	224.96
939.46	224.97
939.76	225.00
940.06	224.99
940.35	224.95
940.65	224.87
940.95	224.89
941.25	224.87
941.55	224.83
941.85	224.78
942.15	224.77
942.45	224.78
942.75	224.77
943.04	224.82
943.34	224.85
943.64	224.89
943.94	224.85
944.24	224.86
944.54	224.88
944.84	224.87
945.13	224.86
945.43	224.84
945.73	224.82
946.03	224.78
946.33	224.78
946.62	224.80
946.92	224.83
947.22	224.80
947.52	224.78
947.82	224.78
948.11	224.80
948.41	224.78
948.71	224.75
949.01	224.76
949.31	224.70
949.60	224.72
949.90	224.73
950.20	224.75
950.50	224.73
950.79	224.69
951.09	224.71
951.39	224.72
951.69	224.68
951.98	224.71
952.28	224.76
952.58	224.75
952.87	224.79
953.17	224.79
953.47	224.78
953.76	224.79
954.06	224.78
954.36	224.79
954.66	224.84
954.95	224.86
955.25	224.89
955.55	224.91
955.84	224.91
956.14	224.90
956.44	224.89
956.73	224.89
957.03	224.94
957.32	224.93
957.62	224.94
957.92	224.96
958.21	224.98
958.51	225.08
958.81	225.11
959.10	225.09
959.40	225.10
959.69	225.11
959.99	225.11
960.29	225.16
960.58	225.12
960.88	225.17
961.17	225.16
961.47	225.14
961.76	225.18
962.06	225.16
962.36	225.18
962.65	225.20
962.95	225.22
963.24	225.19
963.54	225.18
963.83	225.17
964.13	225.18
964.42	225.13
964.72	225.01
965.01	224.99
965.31	225.00
965.60	224.99
965.90	225.08
966.19	225.09
966.49	225.07
966.78	225.09
967.08	225.06
967.37	225.09
967.67	225.09
967.96	225.08
968.26	225.08
968.55	225.10
968.85	225.08
969.14	225.07
969.43	225.08
969.73	225.11
970.02	225.11
970.32	225.14
970.61	225.14
970.91	225.13
971.20	225.13
971.49	225.10
971.79	225.11
972.08	225.02
972.38	225.01
972.67	224.99
972.96	225.00
973.26	224.99
973.55	224.99
973.85	225.00
974.14	224.99
974.43	225.00
974.73	224.96
975.02	224.95
975.31	224.95
975.61	224.94
975.90	224.91
976.19	224.89
976.49	224.88
976.78	224.91
977.07	224.90
977.37	224.90
977.66	224.92
977.95	224.90
978.24	224.91
978.54	224.93
978.83	224.96
979.12	224.93
979.42	224.93
979.71	224.91
980.00	224.91
980.29	224.91
980.59	224.87
980.88	224.90
981.17	224.92
981.46	224.93
981.76	224.93
982.05	224.96
982.34	224.96
982.63	224.95
982.93	224.94
983.22	224.96
983.51	224.96
983.80	225.01
984.09	225.03
984.39	225.01
984.68	225.01
984.97	224.99
985.26	224.99
985.55	224.98
985.85	224.98
986.14	224.96
986.43	224.96
986.72	224.97
987.01	224.92
987.30	224.92
987.59	224.89
987.89	224.90
988.18	224.87
988.47	224.88
988.76	224.84
989.05	224.84
989.34	224.83
989.63	224.84
989.92	224.78
990.22	224.80
990.51	224.83
990.80	224.82
991.09	224.83
991.38	224.85
991.67	224.83
991.96	224.81
992.25	224.84
992.54	224.83
992.83	224.85
993.12	224.85
993.41	224.86
993.70	224.90
993.99	224.92
994.28	224.94
994.58	224.95
994.87	224.99
995.16	224.96
995.45	224.95
995.74	224.92
996.03	224.95
996.32	224.94
996.61	224.94
996.90	224.95
997.19	224.92
997.48	224.93
997.77	224.94
998.06	224.95
998.34	224.91
998.63	224.91
998.92	224.92
999.21	224.94
999.50	224.93
999.79	224.88
1000.08	224.86
1000.37	224.85
1000.66	224.85
1000.95	224.86
1001.24	224.91
1001.53	224.94
1001.82	224.94
1002.11	224.92
1002.40	224.92
1002.68	224.94
1002.97	224.98
1003.26	225.00
1003.55	225.01
1003.84	225.03
1004.13	225.07
1004.42	225.08
1004.71	225.07
1004.99	225.04
1005.28	225.07
1005.57	225.09
1005.86	225.09
1006.15	225.09
1006.44	225.08
1006.72	225.07
1007.01	225.08
1007.30	225.06
1007.59	225.07
1007.88	225.07
1008.17	225.05
1008.45	225.03
1008.74	224.99
1009.03	224.98
1009.32	224.97
1009.60	224.96
1009.89	224.96
1010.18	224.90
1010.47	224.90
1010.76	224.89
1011.04	224.88
1011.33	224.90
1011.62	224.92
1011.91	224.96
1012.19	224.99
1012.48	225.00
1012.77	224.99
1013.05	225.02
1013.34	224.98
1013.63	224.97
1013.92	224.98
1014.20	224.99
1014.49	224.99
1014.78	224.99
1015.06	224.95
1015.35	224.96
1015.64	224.95
1015.92	224.97
1016.21	224.98
1016.50	225.00
1016.78	225.01
1017.07	225.00
1017.36	224.95
1017.64	224.90
1017.93	224.88
1018.22	224.85
1018.50	224.87
1018.79	224.88
1019.08	224.81
1019.36	224.83
1019.65	224.83
1019.93	224.87
1020.22	224.89
1020.51	224.95
1020.79	224.95
1021.08	224.51
1021.36	225.17
1021.65	224.99
1021.94	224.60
1022.22	224.84
1022.51	225.17
1022.79	225.69
1023.08	224.91
1023.36	226.31
1023.65	224.49
>>>>>End Processed Spectral Data<<<<<
