SpectraSuite Data File
++++++++++++++++++++++++++++++++++++
Date: Fri Feb 01 16:07:32 EST 2013
User: group
Dark Spectrum Present: No
Reference Spectrum Present: No
Number of Sampled Component Spectra: 1
Spectrometers: USB2E7196
Integration Time (usec): 35000 (USB2E7196)
Spectra Averaged: 100 (USB2E7196)
Boxcar Smoothing: 10 (USB2E7196)
Correct for Electrical Dark: No (USB2E7196)
Strobe/Lamp Enabled: No (USB2E7196)
Correct for Detector Non-linearity: No (USB2E7196)
Correct for Stray Light: No (USB2E7196)
Number of Pixels in Processed Spectrum: 2048
>>>>>Begin Processed Spectral Data<<<<<
339.09	0.00
339.48	215.20
339.86	216.13
340.24	216.82
340.63	219.37
341.01	222.14
341.39	221.29
341.78	222.97
342.16	224.11
342.54	224.12
342.93	212.84
343.31	223.59
343.69	224.10
344.07	224.55
344.46	225.01
344.84	225.36
345.22	225.57
345.60	225.84
345.99	226.00
346.37	226.08
346.75	226.20
347.13	226.26
347.52	226.38
347.90	226.44
348.28	226.50
348.66	226.55
349.05	226.59
349.43	226.65
349.81	226.69
350.19	226.76
350.57	226.82
350.96	226.90
351.34	227.01
351.72	227.11
352.10	227.25
352.48	227.29
352.87	227.36
353.25	227.42
353.63	227.50
354.01	227.60
354.39	227.72
354.77	227.78
355.15	227.90
355.54	227.95
355.92	228.00
356.30	228.08
356.68	228.23
357.06	228.26
357.44	228.33
357.82	228.39
358.20	228.46
358.58	228.55
358.97	228.62
359.35	228.70
359.73	228.79
360.11	228.81
360.49	228.89
360.87	228.95
361.25	229.05
361.63	229.12
362.01	229.16
362.39	229.22
362.77	229.27
363.15	229.30
363.53	229.33
363.91	229.36
364.29	229.40
364.67	229.33
365.05	229.38
365.43	229.39
365.81	229.44
366.19	229.49
366.57	229.50
366.95	229.48
367.33	229.44
367.71	229.41
368.09	229.42
368.47	229.40
368.85	229.35
369.23	229.33
369.61	229.25
369.99	229.29
370.37	229.26
370.75	229.26
371.13	229.18
371.51	229.16
371.89	229.11
372.27	229.04
372.65	228.96
373.03	228.89
373.41	228.80
373.78	228.73
374.16	228.57
374.54	228.48
374.92	228.44
375.30	228.37
375.68	228.28
376.06	228.22
376.44	228.15
376.82	228.11
377.19	228.01
377.57	227.94
377.95	227.77
378.33	227.69
378.71	227.59
379.09	227.55
379.47	227.47
379.84	227.38
380.22	227.34
380.60	227.26
380.98	227.22
381.36	227.14
381.73	227.03
382.11	227.03
382.49	227.01
382.87	226.95
383.25	226.88
383.62	226.94
384.00	226.86
384.38	226.79
384.76	226.72
385.13	226.67
385.51	226.60
385.89	226.56
386.27	226.50
386.64	226.46
387.02	226.39
387.40	226.34
387.78	226.33
388.15	226.29
388.53	226.26
388.91	226.20
389.29	226.20
389.66	226.18
390.04	226.11
390.42	226.07
390.79	226.01
391.17	225.98
391.55	225.85
391.92	225.84
392.30	225.84
392.68	225.81
393.05	225.83
393.43	225.88
393.81	225.87
394.18	225.86
394.56	225.85
394.94	225.88
395.31	225.87
395.69	225.88
396.06	225.88
396.44	225.88
396.82	225.90
397.19	225.97
397.57	226.00
397.95	226.06
398.32	226.06
398.70	226.12
399.07	226.22
399.45	226.27
399.82	226.34
400.20	226.38
400.58	226.46
400.95	226.49
401.33	226.56
401.70	226.72
402.08	226.83
402.45	226.92
402.83	227.06
403.20	227.18
403.58	227.27
403.95	227.45
404.33	227.61
404.71	227.74
405.08	227.93
405.46	228.09
405.83	228.26
406.21	228.42
406.58	228.60
406.96	228.73
407.33	228.90
407.70	229.07
408.08	229.39
408.45	229.65
408.83	229.89
409.20	230.13
409.58	230.32
409.95	230.60
410.33	230.89
410.70	231.13
411.08	231.43
411.45	231.73
411.82	232.04
412.20	232.37
412.57	232.81
412.95	233.08
413.32	233.48
413.69	233.85
414.07	234.29
414.44	234.78
414.82	235.28
415.19	235.85
415.56	236.41
415.94	236.92
416.31	237.53
416.68	238.16
417.06	238.87
417.43	239.56
417.81	240.32
418.18	241.06
418.55	241.91
418.93	242.78
419.30	243.68
419.67	244.60
420.04	245.57
420.42	246.51
420.79	247.68
421.16	248.84
421.54	250.07
421.91	251.29
422.28	252.52
422.66	253.85
423.03	255.15
423.40	256.49
423.77	257.91
424.15	259.34
424.52	260.82
424.89	262.42
425.26	263.94
425.64	265.37
426.01	266.96
426.38	268.58
426.75	270.27
427.13	271.99
427.50	273.81
427.87	275.70
428.24	277.58
428.61	279.35
428.99	281.29
429.36	283.42
429.73	285.48
430.10	287.46
430.47	289.50
430.85	291.61
431.22	293.85
431.59	296.20
431.96	298.43
432.33	300.88
432.70	303.25
433.08	306.06
433.45	308.72
433.82	311.35
434.19	314.23
434.56	317.03
434.93	319.70
435.30	322.30
435.68	325.18
436.05	328.04
436.42	330.86
436.79	333.35
437.16	336.03
437.53	338.85
437.90	341.69
438.27	344.43
438.64	347.23
439.01	349.81
439.38	351.99
439.75	354.13
440.13	356.64
440.50	358.93
440.87	360.75
441.24	362.66
441.61	364.81
441.98	366.34
442.35	368.09
442.72	369.92
443.09	371.71
443.46	372.70
443.83	373.24
444.20	373.69
444.57	374.55
444.94	374.81
445.31	375.17
445.68	375.51
446.05	375.63
446.42	375.30
446.79	374.90
447.16	374.50
447.53	374.24
447.90	373.10
448.27	371.99
448.64	370.43
449.01	369.31
449.37	367.33
449.74	365.45
450.11	363.23
450.48	360.79
450.85	358.28
451.22	356.15
451.59	354.15
451.96	352.24
452.33	349.64
452.70	347.30
453.07	344.46
453.43	341.59
453.80	338.82
454.17	336.12
454.54	333.58
454.91	330.88
455.28	328.20
455.65	325.70
456.02	323.26
456.38	321.16
456.75	318.52
457.12	316.31
457.49	314.10
457.86	311.95
458.23	310.10
458.59	308.10
458.96	306.00
459.33	304.18
459.70	302.32
460.07	300.83
460.43	299.12
460.80	297.50
461.17	296.02
461.54	294.51
461.91	293.09
462.27	291.66
462.64	290.43
463.01	289.10
463.38	287.84
463.74	286.45
464.11	285.23
464.48	284.19
464.85	283.06
465.21	282.16
465.58	281.24
465.95	280.14
466.32	279.22
466.68	278.31
467.05	277.42
467.42	276.53
467.78	275.57
468.15	274.70
468.52	274.05
468.88	273.24
469.25	272.47
469.62	271.88
469.98	271.20
470.35	270.57
470.72	269.98
471.08	269.33
471.45	268.77
471.82	268.25
472.18	267.66
472.55	267.23
472.92	266.77
473.28	266.33
473.65	265.87
474.02	265.44
474.38	265.07
474.75	264.71
475.11	264.34
475.48	264.12
475.85	263.87
476.21	263.64
476.58	263.43
476.94	263.28
477.31	263.11
477.67	262.95
478.04	262.81
478.41	262.73
478.77	262.74
479.14	262.72
479.50	262.74
479.87	262.81
480.23	262.88
480.60	262.89
480.96	262.98
481.33	263.18
481.69	263.35
482.06	263.58
482.42	263.82
482.79	264.11
483.15	264.38
483.52	264.76
483.88	265.13
484.25	265.50
484.61	265.92
484.98	266.34
485.34	266.88
485.71	267.49
486.07	268.09
486.44	268.62
486.80	269.29
487.17	270.00
487.53	270.78
487.90	271.64
488.26	272.64
488.62	273.61
488.99	274.60
489.35	275.68
489.72	276.76
490.08	277.92
490.44	279.15
490.81	280.48
491.17	281.85
491.54	283.30
491.90	284.86
492.26	286.48
492.63	288.25
492.99	290.05
493.36	291.90
493.72	293.97
494.08	296.12
494.45	298.38
494.81	300.75
495.17	303.21
495.54	305.76
495.90	308.42
496.26	311.24
496.63	314.17
496.99	317.28
497.35	320.58
497.72	324.01
498.08	327.53
498.44	331.25
498.80	335.22
499.17	339.26
499.53	343.42
499.89	347.81
500.26	352.30
500.62	357.02
500.98	362.02
501.34	367.04
501.71	372.30
502.07	377.77
502.43	383.44
502.79	389.31
503.16	395.39
503.52	401.65
503.88	408.03
504.24	414.71
504.60	421.61
504.97	428.75
505.33	436.04
505.69	443.73
506.05	451.52
506.41	459.37
506.78	467.59
507.14	476.08
507.50	484.78
507.86	493.82
508.22	503.00
508.59	512.27
508.95	521.92
509.31	531.82
509.67	541.91
510.03	552.17
510.39	562.67
510.75	573.50
511.12	584.41
511.48	595.67
511.84	607.16
512.20	618.66
512.56	630.52
512.92	642.65
513.28	654.99
513.64	667.47
514.00	680.11
514.37	692.98
514.73	706.02
515.09	719.09
515.45	732.28
515.81	745.87
516.17	759.80
516.53	773.97
516.89	788.10
517.25	802.34
517.61	816.71
517.97	831.07
518.33	845.49
518.69	860.30
519.05	875.24
519.41	890.34
519.77	905.93
520.13	921.40
520.49	936.76
520.85	952.15
521.21	967.76
521.57	983.98
521.93	999.70
522.29	1016.09
522.65	1032.25
523.01	1048.51
523.37	1064.46
523.73	1080.61
524.09	1096.59
524.45	1112.79
524.81	1129.38
525.17	1146.09
525.53	1163.06
525.89	1179.84
526.25	1196.64
526.61	1213.02
526.97	1229.76
527.33	1246.14
527.68	1262.62
528.04	1279.17
528.40	1295.80
528.76	1312.93
529.12	1329.44
529.48	1346.31
529.84	1362.21
530.20	1378.76
530.56	1395.78
530.91	1413.16
531.27	1429.87
531.63	1446.36
531.99	1462.96
532.35	1478.81
532.71	1494.66
533.07	1510.85
533.42	1526.83
533.78	1542.85
534.14	1559.02
534.50	1574.22
534.86	1589.96
535.21	1605.24
535.57	1621.04
535.93	1636.34
536.29	1650.97
536.65	1666.06
537.00	1680.73
537.36	1696.07
537.72	1710.57
538.08	1724.98
538.44	1738.74
538.79	1752.53
539.15	1766.00
539.51	1779.66
539.87	1793.98
540.22	1807.71
540.58	1821.42
540.94	1834.45
541.29	1847.19
541.65	1859.86
542.01	1873.08
542.37	1885.40
542.72	1897.77
543.08	1909.47
543.44	1921.95
543.79	1933.20
544.15	1944.06
544.51	1955.52
544.87	1966.44
545.22	1977.32
545.58	1987.34
545.94	1996.95
546.29	2006.72
546.65	2016.62
547.01	2025.83
547.36	2034.50
547.72	2043.05
548.07	2050.84
548.43	2059.06
548.79	2067.01
549.14	2074.61
549.50	2081.94
549.86	2089.53
550.21	2096.70
550.57	2103.88
550.92	2110.39
551.28	2117.49
551.64	2124.56
551.99	2131.13
552.35	2137.34
552.70	2143.35
553.06	2149.43
553.41	2155.90
553.77	2161.95
554.13	2167.94
554.48	2174.05
554.84	2179.60
555.19	2184.77
555.55	2189.97
555.90	2194.48
556.26	2199.42
556.61	2204.04
556.97	2208.56
557.32	2212.85
557.68	2217.07
558.03	2221.28
558.39	2224.92
558.74	2229.40
559.10	2233.38
559.45	2236.97
559.81	2240.96
560.16	2244.80
560.52	2248.02
560.87	2251.43
561.23	2254.21
561.58	2257.16
561.94	2259.74
562.29	2261.98
562.64	2264.54
563.00	2267.04
563.35	2270.52
563.71	2273.59
564.06	2276.86
564.42	2279.49
564.77	2282.03
565.12	2284.40
565.48	2286.38
565.83	2288.23
566.19	2289.56
566.54	2290.37
566.89	2291.65
567.25	2292.48
567.60	2293.69
567.96	2295.39
568.31	2296.15
568.66	2297.20
569.02	2297.77
569.37	2298.14
569.72	2299.23
570.08	2299.73
570.43	2299.84
570.78	2299.23
571.14	2297.74
571.49	2296.28
571.84	2295.93
572.20	2294.66
572.55	2293.43
572.90	2291.69
573.26	2290.33
573.61	2288.61
573.96	2286.89
574.31	2283.94
574.67	2280.98
575.02	2277.35
575.37	2273.99
575.72	2270.36
576.08	2266.88
576.43	2263.46
576.78	2259.83
577.13	2256.46
577.49	2253.08
577.84	2249.51
578.19	2245.79
578.54	2242.33
578.90	2238.38
579.25	2232.85
579.60	2228.02
579.95	2223.11
580.30	2218.30
580.66	2213.08
581.01	2208.18
581.36	2203.24
581.71	2199.06
582.06	2194.69
582.42	2190.48
582.77	2185.28
583.12	2180.65
583.47	2176.12
583.82	2171.38
584.17	2166.16
584.53	2160.76
584.88	2155.29
585.23	2149.69
585.58	2144.27
585.93	2138.66
586.28	2133.65
586.63	2128.58
586.98	2123.60
587.34	2118.90
587.69	2113.97
588.04	2108.88
588.39	2103.22
588.74	2096.77
589.09	2090.72
589.44	2083.88
589.79	2077.58
590.14	2071.83
590.49	2065.25
590.84	2058.69
591.19	2052.59
591.54	2046.11
591.89	2038.74
592.25	2031.95
592.60	2024.68
592.95	2017.19
593.30	2009.95
593.65	2002.36
594.00	1995.31
594.35	1987.90
594.70	1979.80
595.05	1972.77
595.40	1965.64
595.75	1958.15
596.10	1952.09
596.45	1945.25
596.80	1939.04
597.15	1932.64
597.50	1925.75
597.85	1919.31
598.19	1912.95
598.54	1905.98
598.89	1899.26
599.24	1893.45
599.59	1886.82
599.94	1880.61
600.29	1874.25
600.64	1867.63
600.99	1860.38
601.34	1853.69
601.69	1846.78
602.04	1839.98
602.39	1832.56
602.74	1825.63
603.08	1818.93
603.43	1812.12
603.78	1804.90
604.13	1797.81
604.48	1790.67
604.83	1783.82
605.18	1776.99
605.53	1768.89
605.87	1760.80
606.22	1753.56
606.57	1745.52
606.92	1738.10
607.27	1731.03
607.62	1724.28
607.96	1717.16
608.31	1710.63
608.66	1702.93
609.01	1695.46
609.36	1688.07
609.70	1679.97
610.05	1671.99
610.40	1664.40
610.75	1656.06
611.10	1648.38
611.44	1639.82
611.79	1631.72
612.14	1622.97
612.49	1613.75
612.83	1605.34
613.18	1597.26
613.53	1589.30
613.88	1580.80
614.22	1572.60
614.57	1564.00
614.92	1555.86
615.27	1548.25
615.61	1539.89
615.96	1531.91
616.31	1524.20
616.65	1516.67
617.00	1509.23
617.35	1501.46
617.70	1493.15
618.04	1484.74
618.39	1476.54
618.74	1469.13
619.08	1460.79
619.43	1453.16
619.78	1446.24
620.12	1439.19
620.47	1431.61
620.82	1423.36
621.16	1415.90
621.51	1408.18
621.85	1400.49
622.20	1391.98
622.55	1383.61
622.89	1375.87
623.24	1368.13
623.59	1360.69
623.93	1353.20
624.28	1345.96
624.62	1338.50
624.97	1331.35
625.32	1324.53
625.66	1317.51
626.01	1310.29
626.35	1302.92
626.70	1295.19
627.04	1287.56
627.39	1279.69
627.73	1272.27
628.08	1265.46
628.43	1258.25
628.77	1251.01
629.12	1243.61
629.46	1236.50
629.81	1228.94
630.15	1221.56
630.50	1214.28
630.84	1206.10
631.19	1198.22
631.53	1190.64
631.88	1183.03
632.22	1175.33
632.57	1168.02
632.91	1160.33
633.26	1152.94
633.60	1145.48
633.95	1138.33
634.29	1131.23
634.64	1124.61
634.98	1117.23
635.32	1110.07
635.67	1103.49
636.01	1096.79
636.36	1089.89
636.70	1083.24
637.05	1076.74
637.39	1070.32
637.73	1063.78
638.08	1057.84
638.42	1051.81
638.77	1045.43
639.11	1038.89
639.45	1032.47
639.80	1025.79
640.14	1019.51
640.49	1012.93
640.83	1006.68
641.17	1000.53
641.52	994.15
641.86	987.57
642.20	981.83
642.55	975.37
642.89	968.85
643.23	962.29
643.58	956.59
643.92	950.45
644.26	944.38
644.61	938.34
644.95	932.37
645.29	925.93
645.64	919.19
645.98	912.89
646.32	907.02
646.66	901.02
647.01	895.27
647.35	889.50
647.69	883.52
648.04	877.89
648.38	872.04
648.72	866.09
649.06	860.09
649.41	854.12
649.75	848.20
650.09	842.23
650.43	836.42
650.78	830.15
651.12	824.27
651.46	818.57
651.80	812.86
652.14	807.49
652.49	802.06
652.83	796.87
653.17	791.21
653.51	785.54
653.85	780.08
654.20	774.39
654.54	768.38
654.88	762.74
655.22	756.86
655.56	751.10
655.90	745.54
656.25	740.33
656.59	734.96
656.93	729.90
657.27	724.78
657.61	719.36
657.95	714.34
658.29	709.20
658.64	703.91
658.98	698.51
659.32	692.93
659.66	687.74
660.00	682.54
660.34	677.60
660.68	672.68
661.02	667.68
661.36	662.97
661.70	658.49
662.05	654.14
662.39	649.89
662.73	645.47
663.07	641.24
663.41	636.79
663.75	632.39
664.09	627.81
664.43	623.41
664.77	619.33
665.11	615.09
665.45	610.90
665.79	606.88
666.13	602.78
666.47	598.67
666.81	594.50
667.15	590.31
667.49	586.35
667.83	582.46
668.17	578.57
668.51	574.57
668.85	570.56
669.19	566.73
669.53	562.88
669.87	559.08
670.21	555.38
670.55	551.76
670.89	548.29
671.23	544.94
671.57	541.39
671.91	537.88
672.25	534.35
672.58	530.84
672.92	527.45
673.26	524.32
673.60	521.23
673.94	518.18
674.28	515.24
674.62	512.33
674.96	509.30
675.30	506.33
675.64	503.36
675.97	500.56
676.31	497.70
676.65	494.79
676.99	492.09
677.33	489.18
677.67	486.35
678.01	483.29
678.34	480.29
678.68	477.39
679.02	474.50
679.36	471.74
679.70	469.03
680.04	466.24
680.37	463.38
680.71	460.54
681.05	457.94
681.39	455.18
681.73	452.50
682.06	449.96
682.40	447.46
682.74	444.93
683.08	442.36
683.42	439.76
683.75	437.23
684.09	434.66
684.43	432.16
684.77	429.64
685.10	427.31
685.44	424.95
685.78	422.67
686.12	420.42
686.45	418.07
686.79	415.75
687.13	413.55
687.46	411.33
687.80	409.17
688.14	406.88
688.48	404.88
688.81	402.61
689.15	400.46
689.49	398.28
689.82	396.22
690.16	394.13
690.50	392.14
690.83	390.20
691.17	388.17
691.51	386.31
691.84	384.48
692.18	382.56
692.52	380.60
692.85	378.68
693.19	376.82
693.52	375.07
693.86	373.26
694.20	371.48
694.53	369.71
694.87	367.88
695.21	366.14
695.54	364.27
695.88	362.59
696.21	360.85
696.55	359.17
696.88	357.45
697.22	355.78
697.56	354.13
697.89	352.46
698.23	350.89
698.56	349.28
698.90	347.71
699.23	346.07
699.57	344.52
699.90	342.98
700.24	341.44
700.58	339.85
700.91	338.38
701.25	336.90
701.58	335.52
701.92	334.17
702.25	332.77
702.59	331.44
702.92	330.10
703.26	328.80
703.59	327.52
703.93	326.32
704.26	325.09
704.60	323.83
704.93	322.57
705.26	321.30
705.60	320.09
705.93	318.90
706.27	317.85
706.60	316.77
706.94	315.71
707.27	314.56
707.61	313.53
707.94	312.49
708.27	311.45
708.61	310.34
708.94	309.33
709.28	308.34
709.61	307.34
709.94	306.40
710.28	305.37
710.61	304.38
710.95	303.33
711.28	302.45
711.61	301.52
711.95	300.61
712.28	299.71
712.61	298.73
712.95	297.79
713.28	296.89
713.61	296.03
713.95	295.14
714.28	294.33
714.61	293.45
714.95	292.62
715.28	291.71
715.61	290.87
715.95	290.02
716.28	289.18
716.61	288.35
716.95	287.51
717.28	286.77
717.61	286.03
717.94	285.27
718.28	284.48
718.61	283.73
718.94	283.03
719.27	282.35
719.61	281.70
719.94	281.07
720.27	280.35
720.60	279.67
720.94	279.02
721.27	278.38
721.60	277.78
721.93	277.16
722.27	276.66
722.60	276.10
722.93	275.48
723.26	274.94
723.59	274.40
723.93	273.85
724.26	273.30
724.59	272.73
724.92	272.26
725.25	271.72
725.59	271.22
725.92	270.68
726.25	270.18
726.58	269.69
726.91	269.19
727.24	268.73
727.57	268.27
727.91	267.75
728.24	267.32
728.57	266.84
728.90	266.42
729.23	265.92
729.56	265.49
729.89	265.08
730.22	264.59
730.55	264.08
730.89	263.64
731.22	263.21
731.55	262.75
731.88	262.30
732.21	261.85
732.54	261.42
732.87	261.05
733.20	260.63
733.53	260.22
733.86	259.80
734.19	259.41
734.52	259.03
734.85	258.73
735.18	258.33
735.51	257.97
735.84	257.57
736.17	257.21
736.50	256.80
736.83	256.55
737.16	256.21
737.49	255.90
737.82	255.55
738.15	255.18
738.48	254.87
738.81	254.55
739.14	254.23
739.47	253.93
739.80	253.63
740.13	253.34
740.46	253.04
740.79	252.71
741.12	252.40
741.45	252.09
741.78	251.77
742.11	251.46
742.44	251.15
742.77	250.87
743.10	250.56
743.43	250.28
743.75	249.89
744.08	249.76
744.41	249.50
744.74	249.22
745.07	249.01
745.40	248.76
745.73	248.52
746.06	248.27
746.39	248.00
746.71	247.72
747.04	247.44
747.37	247.19
747.70	246.96
748.03	246.71
748.36	246.50
748.68	246.26
749.01	246.03
749.34	245.81
749.67	245.60
750.00	245.40
750.33	245.26
750.65	245.07
750.98	244.75
751.31	244.55
751.64	244.36
751.97	244.18
752.29	243.98
752.62	243.75
752.95	243.53
753.28	243.34
753.60	243.14
753.93	242.99
754.26	242.79
754.59	242.59
754.91	242.41
755.24	242.20
755.57	241.99
755.90	241.82
756.22	241.65
756.55	241.43
756.88	241.22
757.20	241.00
757.53	240.82
757.86	240.63
758.19	240.47
758.51	240.28
758.84	240.08
759.17	239.88
759.49	239.74
759.82	239.60
760.15	239.43
760.47	239.28
760.80	239.11
761.13	238.98
761.45	238.84
761.78	238.70
762.11	238.55
762.43	238.41
762.76	238.27
763.08	238.12
763.41	238.01
763.74	237.86
764.06	237.67
764.39	237.53
764.71	237.40
765.04	237.20
765.37	237.10
765.69	236.95
766.02	236.85
766.34	236.68
766.67	236.57
767.00	236.47
767.32	236.42
767.65	236.36
767.97	236.24
768.30	236.11
768.62	235.97
768.95	235.84
769.27	235.72
769.60	235.61
769.92	235.47
770.25	235.34
770.57	235.25
770.90	235.17
771.22	235.04
771.55	234.93
771.87	234.86
772.20	234.74
772.52	234.72
772.85	234.69
773.17	234.60
773.50	234.46
773.82	234.36
774.15	234.16
774.47	234.01
774.80	233.89
775.12	233.78
775.45	233.69
775.77	233.60
776.09	233.56
776.42	233.45
776.74	233.42
777.07	233.29
777.39	233.21
777.72	233.14
778.04	233.07
778.36	233.00
778.69	232.93
779.01	232.85
779.33	232.68
779.66	232.53
779.98	232.45
780.31	232.39
780.63	232.35
780.95	232.34
781.28	232.27
781.60	232.22
781.92	232.19
782.25	232.13
782.57	232.10
782.89	232.00
783.22	231.95
783.54	231.87
783.86	231.86
784.19	231.80
784.51	231.76
784.83	231.71
785.16	231.66
785.48	231.61
785.80	231.59
786.12	231.57
786.45	231.53
786.77	231.53
787.09	231.51
787.42	231.42
787.74	231.36
788.06	231.33
788.38	231.30
788.71	231.25
789.03	231.21
789.35	231.18
789.67	231.12
789.99	231.07
790.32	231.01
790.64	231.01
790.96	231.02
791.28	230.96
791.61	230.92
791.93	230.89
792.25	230.86
792.57	230.88
792.89	230.82
793.21	230.79
793.54	230.69
793.86	230.64
794.18	230.62
794.50	230.58
794.82	230.51
795.14	230.49
795.47	230.44
795.79	230.41
796.11	230.36
796.43	230.36
796.75	230.33
797.07	230.33
797.39	230.25
797.71	230.16
798.04	230.14
798.36	230.12
798.68	230.08
799.00	230.09
799.32	230.02
799.64	230.03
799.96	229.99
800.28	229.96
800.60	229.93
800.92	229.88
801.24	229.84
801.56	229.84
801.89	229.79
802.21	229.77
802.53	229.71
802.85	229.69
803.17	229.69
803.49	229.63
803.81	229.57
804.13	229.56
804.45	229.50
804.77	229.45
805.09	229.38
805.41	229.35
805.73	229.30
806.05	229.23
806.37	229.18
806.69	229.15
807.01	229.14
807.33	229.10
807.65	229.05
807.97	229.07
808.28	229.04
808.60	228.98
808.92	228.95
809.24	229.01
809.56	228.94
809.88	228.86
810.20	228.83
810.52	228.80
810.84	228.75
811.16	228.73
811.48	228.68
811.80	228.71
812.12	228.65
812.43	228.62
812.75	228.61
813.07	228.56
813.39	228.51
813.71	228.44
814.03	228.39
814.35	228.33
814.67	228.27
814.98	228.24
815.30	228.23
815.62	228.19
815.94	228.09
816.26	228.15
816.58	228.11
816.89	228.12
817.21	228.10
817.53	228.07
817.85	228.03
818.17	228.03
818.48	228.01
818.80	228.02
819.12	227.99
819.44	227.92
819.76	227.90
820.07	227.89
820.39	227.89
820.71	227.93
821.03	227.94
821.34	227.93
821.66	227.92
821.98	227.91
822.30	227.91
822.61	227.95
822.93	227.87
823.25	227.89
823.57	227.86
823.88	227.88
824.20	227.90
824.52	227.94
824.83	227.89
825.15	227.83
825.47	227.81
825.79	227.80
826.10	227.81
826.42	227.81
826.74	227.84
827.05	227.84
827.37	227.84
827.69	227.84
828.00	227.83
828.32	227.84
828.64	227.84
828.95	227.88
829.27	227.89
829.58	227.89
829.90	227.90
830.22	227.91
830.53	227.87
830.85	227.87
831.17	227.85
831.48	227.87
831.80	227.89
832.11	227.88
832.43	227.90
832.75	227.91
833.06	227.97
833.38	227.94
833.69	227.96
834.01	227.95
834.32	227.94
834.64	227.95
834.96	227.95
835.27	227.93
835.59	227.89
835.90	227.87
836.22	227.86
836.53	227.84
836.85	227.79
837.16	227.89
837.48	227.89
837.79	227.93
838.11	227.92
838.42	227.93
838.74	227.96
839.05	227.97
839.37	227.94
839.68	227.89
840.00	227.87
840.31	227.85
840.63	227.82
840.94	227.81
841.26	227.77
841.57	227.77
841.88	227.80
842.20	227.78
842.51	227.78
842.83	227.79
843.14	227.86
843.46	227.86
843.77	227.80
844.08	227.80
844.40	227.72
844.71	227.70
845.03	227.68
845.34	227.62
845.65	227.58
845.97	227.60
846.28	227.58
846.60	227.58
846.91	227.56
847.22	227.56
847.54	227.58
847.85	227.61
848.16	227.58
848.48	227.56
848.79	227.60
849.10	227.55
849.42	227.57
849.73	227.45
850.04	227.47
850.36	227.42
850.67	227.40
850.98	227.40
851.30	227.43
851.61	227.42
851.92	227.44
852.23	227.44
852.55	227.46
852.86	227.44
853.17	227.45
853.49	227.48
853.80	227.47
854.11	227.43
854.42	227.39
854.74	227.36
855.05	227.35
855.36	227.27
855.67	227.29
855.99	227.23
856.30	227.34
856.61	227.32
856.92	227.32
857.23	227.30
857.55	227.30
857.86	227.28
858.17	227.28
858.48	227.24
858.79	227.22
859.11	227.17
859.42	227.14
859.73	227.10
860.04	227.08
860.35	227.04
860.66	227.04
860.98	227.02
861.29	227.00
861.60	226.99
861.91	227.02
862.22	227.00
862.53	226.99
862.84	226.87
863.16	226.91
863.47	226.86
863.78	226.89
864.09	226.88
864.40	226.88
864.71	226.88
865.02	226.90
865.33	226.90
865.64	226.88
865.95	226.88
866.27	226.97
866.58	226.93
866.89	226.98
867.20	226.95
867.51	226.95
867.82	226.96
868.13	226.96
868.44	226.95
868.75	226.99
869.06	226.97
869.37	227.02
869.68	226.99
869.99	227.04
870.30	227.01
870.61	227.03
870.92	227.03
871.23	227.01
871.54	227.04
871.85	227.05
872.16	227.06
872.47	227.08
872.78	227.00
873.09	227.03
873.40	226.99
873.71	227.00
874.02	227.02
874.33	227.02
874.64	227.02
874.95	227.04
875.26	227.00
875.56	227.02
875.87	226.98
876.18	226.94
876.49	227.00
876.80	227.03
877.11	227.00
877.42	227.01
877.73	227.05
878.04	227.02
878.35	227.03
878.66	227.03
878.96	227.00
879.27	227.04
879.58	227.04
879.89	227.02
880.20	227.05
880.51	227.04
880.82	227.08
881.12	227.07
881.43	227.06
881.74	227.03
882.05	227.04
882.36	227.09
882.67	227.12
882.97	227.06
883.28	227.04
883.59	227.04
883.90	227.03
884.21	227.05
884.51	227.06
884.82	227.04
885.13	227.07
885.44	227.06
885.74	227.03
886.05	227.02
886.36	227.06
886.67	227.01
886.98	227.07
887.28	227.07
887.59	227.06
887.90	227.06
888.20	227.07
888.51	227.08
888.82	227.02
889.13	227.06
889.43	227.14
889.74	227.12
890.05	227.12
890.35	227.12
890.66	227.09
890.97	227.06
891.28	227.05
891.58	227.04
891.89	227.04
892.20	227.07
892.50	227.03
892.81	226.99
893.12	227.01
893.42	226.95
893.73	226.91
894.04	226.93
894.34	226.91
894.65	226.90
894.95	226.89
895.26	226.90
895.57	226.88
895.87	226.76
896.18	226.77
896.48	226.77
896.79	226.74
897.10	226.75
897.40	226.73
897.71	226.76
898.01	226.73
898.32	226.76
898.63	226.71
898.93	226.74
899.24	226.76
899.54	226.77
899.85	226.75
900.15	226.75
900.46	226.80
900.76	226.82
901.07	226.82
901.38	226.77
901.68	226.77
901.99	226.74
902.29	226.76
902.60	226.78
902.90	226.79
903.21	226.80
903.51	226.79
903.82	226.81
904.12	226.80
904.43	226.79
904.73	226.78
905.03	226.80
905.34	226.88
905.64	226.87
905.95	226.85
906.25	226.86
906.56	226.87
906.86	226.81
907.17	226.81
907.47	226.81
907.77	226.85
908.08	226.87
908.38	226.89
908.69	226.88
908.99	226.89
909.30	226.89
909.60	226.91
909.90	226.90
910.21	226.91
910.51	226.89
910.81	226.90
911.12	226.91
911.42	226.90
911.73	226.83
912.03	226.85
912.33	226.88
912.64	226.91
912.94	226.91
913.24	226.89
913.55	226.89
913.85	226.91
914.15	226.93
914.46	226.91
914.76	226.89
915.06	226.92
915.37	226.89
915.67	226.90
915.97	226.90
916.27	226.88
916.58	226.83
916.88	226.88
917.18	226.88
917.49	226.93
917.79	226.95
918.09	226.95
918.39	226.95
918.70	226.96
919.00	226.95
919.30	227.00
919.60	227.04
919.91	227.02
920.21	227.00
920.51	226.98
920.81	227.01
921.12	227.03
921.42	227.02
921.72	227.04
922.02	227.02
922.32	227.02
922.63	227.06
922.93	227.12
923.23	227.07
923.53	227.04
923.83	227.00
924.13	227.01
924.44	227.01
924.74	227.03
925.04	226.99
925.34	226.98
925.64	226.90
925.94	226.87
926.24	226.94
926.55	226.94
926.85	226.93
927.15	226.89
927.45	226.87
927.75	226.86
928.05	226.83
928.35	226.86
928.65	226.87
928.95	226.85
929.26	226.81
929.56	226.84
929.86	226.86
930.16	226.87
930.46	226.83
930.76	226.83
931.06	226.78
931.36	226.80
931.66	226.81
931.96	226.83
932.26	226.82
932.56	226.76
932.86	226.74
933.16	226.73
933.46	226.73
933.76	226.73
934.06	226.78
934.36	226.82
934.66	226.79
934.96	226.75
935.26	226.78
935.56	226.79
935.86	226.77
936.16	226.73
936.46	226.68
936.76	226.69
937.06	226.66
937.36	226.64
937.66	226.65
937.96	226.60
938.26	226.59
938.56	226.60
938.86	226.61
939.16	226.63
939.46	226.67
939.76	226.65
940.06	226.65
940.35	226.58
940.65	226.50
940.95	226.55
941.25	226.53
941.55	226.51
941.85	226.51
942.15	226.54
942.45	226.61
942.75	226.62
943.04	226.63
943.34	226.65
943.64	226.66
943.94	226.64
944.24	226.66
944.54	226.65
944.84	226.66
945.13	226.65
945.43	226.64
945.73	226.65
946.03	226.65
946.33	226.66
946.62	226.68
946.92	226.71
947.22	226.70
947.52	226.72
947.82	226.71
948.11	226.69
948.41	226.65
948.71	226.60
949.01	226.58
949.31	226.54
949.60	226.54
949.90	226.58
950.20	226.57
950.50	226.56
950.79	226.58
951.09	226.61
951.39	226.61
951.69	226.60
951.98	226.61
952.28	226.60
952.58	226.60
952.87	226.58
953.17	226.60
953.47	226.55
953.76	226.54
954.06	226.52
954.36	226.53
954.66	226.57
954.95	226.61
955.25	226.62
955.55	226.68
955.84	226.67
956.14	226.62
956.44	226.63
956.73	226.63
957.03	226.62
957.32	226.61
957.62	226.59
957.92	226.58
958.21	226.57
958.51	226.66
958.81	226.64
959.10	226.66
959.40	226.66
959.69	226.68
959.99	226.69
960.29	226.72
960.58	226.71
960.88	226.71
961.17	226.67
961.47	226.69
961.76	226.66
962.06	226.68
962.36	226.70
962.65	226.66
962.95	226.65
963.24	226.65
963.54	226.63
963.83	226.64
964.13	226.64
964.42	226.58
964.72	226.53
965.01	226.55
965.31	226.52
965.60	226.48
965.90	226.53
966.19	226.50
966.49	226.48
966.78	226.49
967.08	226.48
967.37	226.49
967.67	226.46
967.96	226.50
968.26	226.45
968.55	226.45
968.85	226.44
969.14	226.43
969.43	226.43
969.73	226.40
970.02	226.39
970.32	226.37
970.61	226.37
970.91	226.32
971.20	226.27
971.49	226.27
971.79	226.26
972.08	226.20
972.38	226.20
972.67	226.21
972.96	226.20
973.26	226.16
973.55	226.17
973.85	226.17
974.14	226.13
974.43	226.17
974.73	226.15
975.02	226.13
975.31	226.12
975.61	226.09
975.90	226.09
976.19	226.09
976.49	226.12
976.78	226.14
977.07	226.16
977.37	226.19
977.66	226.18
977.95	226.20
978.24	226.20
978.54	226.18
978.83	226.17
979.12	226.18
979.42	226.20
979.71	226.19
980.00	226.19
980.29	226.21
980.59	226.17
980.88	226.19
981.17	226.23
981.46	226.26
981.76	226.29
982.05	226.34
982.34	226.32
982.63	226.29
982.93	226.29
983.22	226.29
983.51	226.31
983.80	226.34
984.09	226.39
984.39	226.38
984.68	226.40
984.97	226.40
985.26	226.39
985.55	226.42
985.85	226.41
986.14	226.46
986.43	226.47
986.72	226.48
987.01	226.46
987.30	226.45
987.59	226.47
987.89	226.46
988.18	226.44
988.47	226.48
988.76	226.51
989.05	226.50
989.34	226.52
989.63	226.52
989.92	226.51
990.22	226.47
990.51	226.48
990.80	226.50
991.09	226.52
991.38	226.54
991.67	226.50
991.96	226.45
992.25	226.45
992.54	226.42
992.83	226.40
993.12	226.41
993.41	226.46
993.70	226.47
993.99	226.51
994.28	226.52
994.58	226.51
994.87	226.49
995.16	226.49
995.45	226.48
995.74	226.46
996.03	226.51
996.32	226.52
996.61	226.54
996.90	226.51
997.19	226.48
997.48	226.46
997.77	226.46
998.06	226.49
998.34	226.45
998.63	226.48
998.92	226.50
999.21	226.52
999.50	226.50
999.79	226.47
1000.08	226.43
1000.37	226.40
1000.66	226.39
1000.95	226.41
1001.24	226.41
1001.53	226.39
1001.82	226.39
1002.11	226.33
1002.40	226.30
1002.68	226.33
1002.97	226.43
1003.26	226.44
1003.55	226.42
1003.84	226.42
1004.13	226.46
1004.42	226.49
1004.71	226.48
1004.99	226.46
1005.28	226.48
1005.57	226.45
1005.86	226.41
1006.15	226.45
1006.44	226.44
1006.72	226.43
1007.01	226.44
1007.30	226.46
1007.59	226.47
1007.88	226.47
1008.17	226.48
1008.45	226.48
1008.74	226.43
1009.03	226.37
1009.32	226.34
1009.60	226.36
1009.89	226.37
1010.18	226.33
1010.47	226.32
1010.76	226.31
1011.04	226.32
1011.33	226.32
1011.62	226.36
1011.91	226.41
1012.19	226.40
1012.48	226.44
1012.77	226.46
1013.05	226.49
1013.34	226.51
1013.63	226.52
1013.92	226.55
1014.20	226.56
1014.49	226.56
1014.78	226.59
1015.06	226.56
1015.35	226.57
1015.64	226.60
1015.92	226.64
1016.21	226.64
1016.50	226.64
1016.78	226.68
1017.07	226.71
1017.36	226.69
1017.64	226.66
1017.93	226.66
1018.22	226.67
1018.50	226.64
1018.79	226.63
1019.08	226.58
1019.36	226.59
1019.65	226.55
1019.93	226.58
1020.22	226.60
1020.51	226.69
1020.79	226.68
1021.08	226.95
1021.36	226.11
1021.65	226.53
1021.94	226.26
1022.22	226.95
1022.51	226.05
1022.79	227.30
1023.08	226.92
1023.36	228.21
1023.65	226.44
>>>>>End Processed Spectral Data<<<<<
