SpectraSuite Data File
++++++++++++++++++++++++++++++++++++
Date: Fri Feb 01 15:32:14 EST 2013
User: group
Dark Spectrum Present: No
Reference Spectrum Present: No
Number of Sampled Component Spectra: 1
Spectrometers: USB2E7196
Integration Time (usec): 35000 (USB2E7196)
Spectra Averaged: 100 (USB2E7196)
Boxcar Smoothing: 10 (USB2E7196)
Correct for Electrical Dark: No (USB2E7196)
Strobe/Lamp Enabled: No (USB2E7196)
Correct for Detector Non-linearity: No (USB2E7196)
Correct for Stray Light: No (USB2E7196)
Number of Pixels in Processed Spectrum: 2048
>>>>>Begin Processed Spectral Data<<<<<
339.09	0.00
339.48	213.98
339.86	216.72
340.24	217.62
340.63	219.34
341.01	221.99
341.39	222.29
341.78	223.05
342.16	223.96
342.54	225.16
342.93	213.26
343.31	224.06
343.69	224.65
344.07	225.10
344.46	225.54
344.84	225.93
345.22	226.13
345.60	226.36
345.99	226.55
346.37	226.68
346.75	226.78
347.13	226.84
347.52	226.92
347.90	226.98
348.28	226.98
348.66	227.01
349.05	227.01
349.43	227.07
349.81	227.08
350.19	227.10
350.57	227.14
350.96	227.24
351.34	227.29
351.72	227.38
352.10	227.46
352.48	227.49
352.87	227.53
353.25	227.63
353.63	227.69
354.01	227.75
354.39	227.83
354.77	227.93
355.15	228.03
355.54	228.05
355.92	228.07
356.30	228.18
356.68	228.32
357.06	228.37
357.44	228.40
357.82	228.47
358.20	228.57
358.58	228.66
358.97	228.71
359.35	228.77
359.73	228.86
360.11	228.92
360.49	228.99
360.87	229.03
361.25	229.05
361.63	229.11
362.01	229.14
362.39	229.17
362.77	229.19
363.15	229.17
363.53	229.19
363.91	229.24
364.29	229.23
364.67	229.16
365.05	229.19
365.43	229.21
365.81	229.23
366.19	229.28
366.57	229.30
366.95	229.28
367.33	229.27
367.71	229.21
368.09	229.22
368.47	229.20
368.85	229.19
369.23	229.18
369.61	229.11
369.99	229.11
370.37	229.09
370.75	229.06
371.13	229.04
371.51	229.00
371.89	228.96
372.27	228.94
372.65	228.87
373.03	228.81
373.41	228.76
373.78	228.67
374.16	228.52
374.54	228.41
374.92	228.34
375.30	228.29
375.68	228.23
376.06	228.13
376.44	228.06
376.82	228.00
377.19	227.94
377.57	227.88
377.95	227.79
378.33	227.72
378.71	227.64
379.09	227.57
379.47	227.49
379.84	227.39
380.22	227.30
380.60	227.22
380.98	227.17
381.36	227.09
381.73	227.05
382.11	227.02
382.49	226.96
382.87	226.86
383.25	226.77
383.62	226.82
384.00	226.79
384.38	226.74
384.76	226.71
385.13	226.68
385.51	226.62
385.89	226.56
386.27	226.51
386.64	226.43
387.02	226.39
387.40	226.36
387.78	226.31
388.15	226.29
388.53	226.28
388.91	226.20
389.29	226.19
389.66	226.15
390.04	226.13
390.42	226.15
390.79	226.16
391.17	226.17
391.55	226.10
391.92	226.08
392.30	226.09
392.68	226.04
393.05	226.05
393.43	226.09
393.81	226.09
394.18	226.08
394.56	226.14
394.94	226.18
395.31	226.19
395.69	226.26
396.06	226.30
396.44	226.33
396.82	226.42
397.19	226.49
397.57	226.56
397.95	226.61
398.32	226.61
398.70	226.70
399.07	226.76
399.45	226.78
399.82	226.87
400.20	226.93
400.58	227.02
400.95	227.06
401.33	227.14
401.70	227.30
402.08	227.42
402.45	227.51
402.83	227.66
403.20	227.79
403.58	227.90
403.95	228.02
404.33	228.16
404.71	228.27
405.08	228.45
405.46	228.58
405.83	228.72
406.21	228.90
406.58	229.06
406.96	229.22
407.33	229.41
407.70	229.58
408.08	229.86
408.45	230.10
408.83	230.34
409.20	230.58
409.58	230.78
409.95	231.05
410.33	231.28
410.70	231.52
411.08	231.84
411.45	232.17
411.82	232.50
412.20	232.85
412.57	233.29
412.95	233.63
413.32	234.06
413.69	234.50
414.07	234.93
414.44	235.36
414.82	235.84
415.19	236.39
415.56	236.97
415.94	237.52
416.31	238.16
416.68	238.76
417.06	239.47
417.43	240.14
417.81	240.92
418.18	241.73
418.55	242.56
418.93	243.41
419.30	244.31
419.67	245.23
420.04	246.20
420.42	247.16
420.79	248.30
421.16	249.48
421.54	250.64
421.91	251.84
422.28	253.11
422.66	254.44
423.03	255.75
423.40	257.07
423.77	258.48
424.15	259.90
424.52	261.43
424.89	263.04
425.26	264.64
425.64	266.09
426.01	267.69
426.38	269.32
426.75	270.96
427.13	272.67
427.50	274.47
427.87	276.33
428.24	278.21
428.61	279.97
428.99	281.90
429.36	284.02
429.73	286.11
430.10	288.17
430.47	290.23
430.85	292.36
431.22	294.59
431.59	296.97
431.96	299.18
432.33	301.70
432.70	304.06
433.08	306.86
433.45	309.48
433.82	312.07
434.19	315.02
434.56	317.83
434.93	320.52
435.30	323.12
435.68	326.02
436.05	328.88
436.42	331.70
436.79	334.19
437.16	336.87
437.53	339.67
437.90	342.47
438.27	345.27
438.64	348.10
439.01	350.70
439.38	352.98
439.75	355.19
440.13	357.64
440.50	360.00
440.87	361.81
441.24	363.77
441.61	365.99
441.98	367.44
442.35	369.26
442.72	371.09
443.09	372.94
443.46	373.96
443.83	374.54
444.20	374.98
444.57	375.80
444.94	376.12
445.31	376.47
445.68	376.82
446.05	376.83
446.42	376.41
446.79	375.97
447.16	375.48
447.53	375.14
447.90	373.96
448.27	372.78
448.64	371.19
449.01	370.04
449.37	368.00
449.74	366.11
450.11	363.84
450.48	361.33
450.85	358.79
451.22	356.65
451.59	354.63
451.96	352.70
452.33	350.12
452.70	347.75
453.07	344.89
453.43	341.99
453.80	339.19
454.17	336.53
454.54	334.04
454.91	331.30
455.28	328.61
455.65	326.13
456.02	323.70
456.38	321.55
456.75	318.89
457.12	316.69
457.49	314.44
457.86	312.34
458.23	310.51
458.59	308.46
458.96	306.34
459.33	304.45
459.70	302.60
460.07	301.10
460.43	299.39
460.80	297.77
461.17	296.34
461.54	294.88
461.91	293.43
462.27	291.93
462.64	290.72
463.01	289.41
463.38	288.12
463.74	286.76
464.11	285.59
464.48	284.56
464.85	283.41
465.21	282.56
465.58	281.62
465.95	280.49
466.32	279.58
466.68	278.70
467.05	277.82
467.42	276.89
467.78	275.96
468.15	275.09
468.52	274.44
468.88	273.57
469.25	272.80
469.62	272.18
469.98	271.54
470.35	270.86
470.72	270.21
471.08	269.53
471.45	268.98
471.82	268.48
472.18	267.87
472.55	267.46
472.92	266.94
473.28	266.47
473.65	266.05
474.02	265.63
474.38	265.22
474.75	264.86
475.11	264.52
475.48	264.24
475.85	263.97
476.21	263.78
476.58	263.57
476.94	263.42
477.31	263.28
477.67	263.07
478.04	262.93
478.41	262.86
478.77	262.87
479.14	262.78
479.50	262.77
479.87	262.82
480.23	262.82
480.60	262.86
480.96	262.94
481.33	263.14
481.69	263.31
482.06	263.55
482.42	263.76
482.79	264.03
483.15	264.32
483.52	264.72
483.88	265.04
484.25	265.43
484.61	265.83
484.98	266.26
485.34	266.86
485.71	267.47
486.07	268.08
486.44	268.68
486.80	269.41
487.17	270.09
487.53	270.92
487.90	271.80
488.26	272.78
488.62	273.74
488.99	274.70
489.35	275.75
489.72	276.81
490.08	278.01
490.44	279.25
490.81	280.60
491.17	281.92
491.54	283.41
491.90	284.97
492.26	286.62
492.63	288.38
492.99	290.19
493.36	292.08
493.72	294.14
494.08	296.21
494.45	298.45
494.81	300.83
495.17	303.24
495.54	305.80
495.90	308.44
496.26	311.25
496.63	314.20
496.99	317.35
497.35	320.66
497.72	324.03
498.08	327.56
498.44	331.24
498.80	335.19
499.17	339.23
499.53	343.38
499.89	347.76
500.26	352.23
500.62	356.89
500.98	361.89
501.34	366.96
501.71	372.34
502.07	377.80
502.43	383.42
502.79	389.23
503.16	395.34
503.52	401.66
503.88	408.07
504.24	414.73
504.60	421.60
504.97	428.72
505.33	436.09
505.69	443.81
506.05	451.60
506.41	459.50
506.78	467.65
507.14	476.09
507.50	484.85
507.86	493.88
508.22	503.04
508.59	512.21
508.95	521.79
509.31	531.64
509.67	541.79
510.03	552.10
510.39	562.61
510.75	573.45
511.12	584.39
511.48	595.71
511.84	607.15
512.20	618.72
512.56	630.66
512.92	642.87
513.28	655.18
513.64	667.64
514.00	680.37
514.37	693.27
514.73	706.39
515.09	719.44
515.45	732.76
515.81	746.35
516.17	760.38
516.53	774.56
516.89	788.73
517.25	802.83
517.61	817.26
517.97	831.91
518.33	846.31
518.69	861.16
519.05	876.25
519.41	891.44
519.77	907.05
520.13	922.57
520.49	937.98
520.85	953.43
521.21	969.28
521.57	985.57
521.93	1001.43
522.29	1017.83
522.65	1034.08
523.01	1050.27
523.37	1066.50
523.73	1082.64
524.09	1098.68
524.45	1115.03
524.81	1131.72
525.17	1148.65
525.53	1165.51
525.89	1182.49
526.25	1199.33
526.61	1215.63
526.97	1232.52
527.33	1248.96
527.68	1265.61
528.04	1282.16
528.40	1298.86
528.76	1315.86
529.12	1332.46
529.48	1349.43
529.84	1365.54
530.20	1382.24
530.56	1399.39
530.91	1416.75
531.27	1433.58
531.63	1450.08
531.99	1466.80
532.35	1482.80
532.71	1498.61
533.07	1514.85
533.42	1530.79
533.78	1546.92
534.14	1563.28
534.50	1578.62
534.86	1594.47
535.21	1609.72
535.57	1625.65
535.93	1641.08
536.29	1655.92
536.65	1670.97
537.00	1685.82
537.36	1701.14
537.72	1715.71
538.08	1730.08
538.44	1743.84
538.79	1757.85
539.15	1771.74
539.51	1785.47
539.87	1799.91
540.22	1813.77
540.58	1827.63
540.94	1841.04
541.29	1853.93
541.65	1866.67
542.01	1879.87
542.37	1892.32
542.72	1904.82
543.08	1916.68
543.44	1929.16
543.79	1940.52
544.15	1951.71
544.51	1963.17
544.87	1974.12
545.22	1984.95
545.58	1995.24
545.94	2005.02
546.29	2014.88
546.65	2024.72
547.01	2033.92
547.36	2042.60
547.72	2051.15
548.07	2058.93
548.43	2067.00
548.79	2075.01
549.14	2082.63
549.50	2090.09
549.86	2097.83
550.21	2105.05
550.57	2112.28
550.92	2118.74
551.28	2125.83
551.64	2132.77
551.99	2139.37
552.35	2145.68
552.70	2151.72
553.06	2157.72
553.41	2164.23
553.77	2170.29
554.13	2176.36
554.48	2182.53
554.84	2188.12
555.19	2193.46
555.55	2198.73
555.90	2203.30
556.26	2208.09
556.61	2212.85
556.97	2216.95
557.32	2221.04
557.68	2225.34
558.03	2229.62
558.39	2233.56
558.74	2238.12
559.10	2242.14
559.45	2245.81
559.81	2250.13
560.16	2254.12
560.52	2257.36
560.87	2260.83
561.23	2263.42
561.58	2266.32
561.94	2268.88
562.29	2271.15
562.64	2273.72
563.00	2276.40
563.35	2279.91
563.71	2283.12
564.06	2286.24
564.42	2289.26
564.77	2291.79
565.12	2293.88
565.48	2295.56
565.83	2297.40
566.19	2298.55
566.54	2299.42
566.89	2300.55
567.25	2301.08
567.60	2302.36
567.96	2304.11
568.31	2304.75
568.66	2305.85
569.02	2306.34
569.37	2306.55
569.72	2307.38
570.08	2307.43
570.43	2307.37
570.78	2306.63
571.14	2305.12
571.49	2303.74
571.84	2303.33
572.20	2302.02
572.55	2301.02
572.90	2299.63
573.26	2298.18
573.61	2296.63
573.96	2294.80
574.31	2291.78
574.67	2288.53
575.02	2284.79
575.37	2281.33
575.72	2277.55
576.08	2274.21
576.43	2271.08
576.78	2267.37
577.13	2264.13
577.49	2261.02
577.84	2257.43
578.19	2253.71
578.54	2249.84
578.90	2245.50
579.25	2239.88
579.60	2234.89
579.95	2229.85
580.30	2224.78
580.66	2219.44
581.01	2214.41
581.36	2209.29
581.71	2204.96
582.06	2200.66
582.42	2196.14
582.77	2190.83
583.12	2186.15
583.47	2181.28
583.82	2176.01
584.17	2170.81
584.53	2165.29
584.88	2159.59
585.23	2153.66
585.58	2148.18
585.93	2142.96
586.28	2138.21
586.63	2132.98
586.98	2127.86
587.34	2123.02
587.69	2118.17
588.04	2112.83
588.39	2107.04
588.74	2100.66
589.09	2094.51
589.44	2087.56
589.79	2081.54
590.14	2075.87
590.49	2069.29
590.84	2062.99
591.19	2056.84
591.54	2050.25
591.89	2042.80
592.25	2036.04
592.60	2028.81
592.95	2021.15
593.30	2013.62
593.65	2006.03
594.00	1999.13
594.35	1991.90
594.70	1983.86
595.05	1976.45
595.40	1969.27
595.75	1961.75
596.10	1955.36
596.45	1948.49
596.80	1942.23
597.15	1935.47
597.50	1928.21
597.85	1921.72
598.19	1914.86
598.54	1907.80
598.89	1901.11
599.24	1895.33
599.59	1888.52
599.94	1882.36
600.29	1876.02
600.64	1869.42
600.99	1861.74
601.34	1854.74
601.69	1847.63
602.04	1840.65
602.39	1833.27
602.74	1826.37
603.08	1819.50
603.43	1812.79
603.78	1805.54
604.13	1798.27
604.48	1790.92
604.83	1784.14
605.18	1777.08
605.53	1769.12
605.87	1761.07
606.22	1753.81
606.57	1745.67
606.92	1738.42
607.27	1731.26
607.62	1724.30
607.96	1716.95
608.31	1710.38
608.66	1702.76
609.01	1695.19
609.36	1687.56
609.70	1679.47
610.05	1671.29
610.40	1663.66
610.75	1655.30
611.10	1647.72
611.44	1639.38
611.79	1631.51
612.14	1622.77
612.49	1613.54
612.83	1605.17
613.18	1597.13
613.53	1589.04
613.88	1580.49
614.22	1572.20
614.57	1563.61
614.92	1555.44
615.27	1547.88
615.61	1539.49
615.96	1531.38
616.31	1523.82
616.65	1516.53
617.00	1508.99
617.35	1501.37
617.70	1492.96
618.04	1484.38
618.39	1476.04
618.74	1468.35
619.08	1459.98
619.43	1452.36
619.78	1445.50
620.12	1438.32
620.47	1430.65
620.82	1422.43
621.16	1415.11
621.51	1407.45
621.85	1399.74
622.20	1391.25
622.55	1382.80
622.89	1375.02
623.24	1367.46
623.59	1360.05
623.93	1352.48
624.28	1345.16
624.62	1337.61
624.97	1330.52
625.32	1323.90
625.66	1316.84
626.01	1309.65
626.35	1302.17
626.70	1294.47
627.04	1286.73
627.39	1278.96
627.73	1271.49
628.08	1264.57
628.43	1257.05
628.77	1249.62
629.12	1242.05
629.46	1234.86
629.81	1227.54
630.15	1220.30
630.50	1212.94
630.84	1204.78
631.19	1196.97
631.53	1189.57
631.88	1182.04
632.22	1174.38
632.57	1166.99
632.91	1159.37
633.26	1151.99
633.60	1144.63
633.95	1137.51
634.29	1130.54
634.64	1123.88
634.98	1116.62
635.32	1109.54
635.67	1103.10
636.01	1096.48
636.36	1089.71
636.70	1083.24
637.05	1076.62
637.39	1070.20
637.73	1063.58
638.08	1057.69
638.42	1051.60
638.77	1045.06
639.11	1038.43
639.45	1032.10
639.80	1025.40
640.14	1019.07
640.49	1012.58
640.83	1006.29
641.17	1000.04
641.52	993.69
641.86	987.29
642.20	981.41
642.55	975.08
642.89	968.53
643.23	962.00
643.58	956.21
643.92	949.99
644.26	943.94
644.61	937.92
644.95	931.94
645.29	925.28
645.64	918.60
645.98	912.31
646.32	906.55
646.66	900.45
647.01	894.77
647.35	889.08
647.69	883.22
648.04	877.78
648.38	872.08
648.72	865.96
649.06	859.83
649.41	853.95
649.75	848.01
650.09	842.04
650.43	836.27
650.78	830.17
651.12	824.22
651.46	818.46
651.80	812.67
652.14	807.23
652.49	801.90
652.83	796.70
653.17	790.94
653.51	785.14
653.85	779.83
654.20	774.08
654.54	768.05
654.88	762.33
655.22	756.37
655.56	750.64
655.90	745.28
656.25	739.98
656.59	734.63
656.93	729.55
657.27	724.39
657.61	718.92
657.95	713.75
658.29	708.69
658.64	703.51
658.98	698.22
659.32	692.80
659.66	687.60
660.00	682.24
660.34	677.30
660.68	672.40
661.02	667.31
661.36	662.65
661.70	658.13
662.05	653.71
662.39	649.40
662.73	644.87
663.07	640.48
663.41	636.06
663.75	631.57
664.09	626.99
664.43	622.64
664.77	618.54
665.11	614.31
665.45	610.16
665.79	606.02
666.13	601.86
666.47	597.77
666.81	593.59
667.15	589.47
667.49	585.61
667.83	581.85
668.17	577.94
668.51	573.88
668.85	569.93
669.19	566.17
669.53	562.28
669.87	558.40
670.21	554.66
670.55	551.01
670.89	547.55
671.23	544.05
671.57	540.50
671.91	536.98
672.25	533.51
672.58	530.05
672.92	526.68
673.26	523.51
673.60	520.41
673.94	517.33
674.28	514.44
674.62	511.54
674.96	508.37
675.30	505.44
675.64	502.49
675.97	499.71
676.31	496.85
676.65	493.96
676.99	491.32
677.33	488.54
677.67	485.76
678.01	482.74
678.34	479.86
678.68	477.06
679.02	474.27
679.36	471.51
679.70	468.76
680.04	466.01
680.37	463.13
680.71	460.34
681.05	457.72
681.39	454.98
681.73	452.35
682.06	449.82
682.40	447.29
682.74	444.77
683.08	442.22
683.42	439.64
683.75	437.10
684.09	434.53
684.43	432.05
684.77	429.63
685.10	427.33
685.44	424.98
685.78	422.66
686.12	420.37
686.45	418.11
686.79	415.78
687.13	413.58
687.46	411.45
687.80	409.24
688.14	407.03
688.48	405.04
688.81	402.75
689.15	400.63
689.49	398.49
689.82	396.43
690.16	394.32
690.50	392.31
690.83	390.35
691.17	388.38
691.51	386.50
691.84	384.59
692.18	382.65
692.52	380.69
692.85	378.75
693.19	376.88
693.52	375.03
693.86	373.22
694.20	371.42
694.53	369.67
694.87	367.90
695.21	366.12
695.54	364.26
695.88	362.55
696.21	360.84
696.55	359.12
696.88	357.41
697.22	355.76
697.56	354.14
697.89	352.51
698.23	350.88
698.56	349.30
698.90	347.73
699.23	346.05
699.57	344.53
699.90	342.99
700.24	341.48
700.58	339.92
700.91	338.47
701.25	337.06
701.58	335.71
701.92	334.34
702.25	332.97
702.59	331.61
702.92	330.33
703.26	329.04
703.59	327.77
703.93	326.61
704.26	325.37
704.60	324.05
704.93	322.84
705.26	321.61
705.60	320.39
705.93	319.23
706.27	318.21
706.60	317.12
706.94	316.09
707.27	314.94
707.61	313.89
707.94	312.85
708.27	311.73
708.61	310.62
708.94	309.56
709.28	308.58
709.61	307.60
709.94	306.61
710.28	305.58
710.61	304.67
710.95	303.62
711.28	302.71
711.61	301.81
711.95	300.87
712.28	299.92
712.61	298.95
712.95	298.03
713.28	297.16
713.61	296.30
713.95	295.39
714.28	294.52
714.61	293.66
714.95	292.87
715.28	292.04
715.61	291.16
715.95	290.32
716.28	289.45
716.61	288.63
716.95	287.88
717.28	287.12
717.61	286.30
717.94	285.56
718.28	284.75
718.61	284.02
718.94	283.33
719.27	282.68
719.61	282.04
719.94	281.40
720.27	280.68
720.60	279.99
720.94	279.37
721.27	278.85
721.60	278.26
721.93	277.63
722.27	277.06
722.60	276.52
722.93	275.99
723.26	275.47
723.59	274.90
723.93	274.30
724.26	273.78
724.59	273.23
724.92	272.71
725.25	272.20
725.59	271.70
725.92	271.18
726.25	270.66
726.58	270.16
726.91	269.65
727.24	269.22
727.57	268.76
727.91	268.26
728.24	267.74
728.57	267.26
728.90	266.78
729.23	266.26
729.56	265.83
729.89	265.36
730.22	264.88
730.55	264.42
730.89	263.97
731.22	263.51
731.55	263.05
731.88	262.61
732.21	262.17
732.54	261.72
732.87	261.28
733.20	260.87
733.53	260.46
733.86	260.06
734.19	259.59
734.52	259.20
734.85	258.89
735.18	258.49
735.51	258.07
735.84	257.74
736.17	257.40
736.50	256.99
736.83	256.73
737.16	256.40
737.49	256.09
737.82	255.77
738.15	255.42
738.48	255.11
738.81	254.77
739.14	254.43
739.47	254.10
739.80	253.81
740.13	253.50
740.46	253.15
740.79	252.83
741.12	252.56
741.45	252.24
741.78	251.91
742.11	251.64
742.44	251.36
742.77	251.04
743.10	250.73
743.43	250.45
743.75	250.04
744.08	249.86
744.41	249.58
744.74	249.32
745.07	249.07
745.40	248.86
745.73	248.65
746.06	248.39
746.39	248.14
746.71	247.88
747.04	247.63
747.37	247.39
747.70	247.14
748.03	246.86
748.36	246.65
748.68	246.39
749.01	246.18
749.34	245.95
749.67	245.75
750.00	245.54
750.33	245.38
750.65	245.22
750.98	244.88
751.31	244.66
751.64	244.46
751.97	244.30
752.29	244.05
752.62	243.79
752.95	243.60
753.28	243.41
753.60	243.21
753.93	243.02
754.26	242.85
754.59	242.68
754.91	242.52
755.24	242.33
755.57	242.14
755.90	241.93
756.22	241.71
756.55	241.48
756.88	241.28
757.20	241.04
757.53	240.81
757.86	240.68
758.19	240.54
758.51	240.35
758.84	240.12
759.17	239.95
759.49	239.83
759.82	239.74
760.15	239.60
760.47	239.45
760.80	239.29
761.13	239.16
761.45	238.99
761.78	238.83
762.11	238.67
762.43	238.54
762.76	238.36
763.08	238.26
763.41	238.17
763.74	238.04
764.06	237.91
764.39	237.81
764.71	237.68
765.04	237.49
765.37	237.37
765.69	237.26
766.02	237.08
766.34	236.96
766.67	236.75
767.00	236.60
767.32	236.52
767.65	236.47
767.97	236.33
768.30	236.23
768.62	236.13
768.95	236.01
769.27	235.87
769.60	235.78
769.92	235.64
770.25	235.47
770.57	235.35
770.90	235.22
771.22	235.10
771.55	234.96
771.87	234.91
772.20	234.80
772.52	234.77
772.85	234.83
773.17	234.73
773.50	234.65
773.82	234.56
774.15	234.42
774.47	234.25
774.80	234.13
775.12	234.00
775.45	233.89
775.77	233.79
776.09	233.74
776.42	233.67
776.74	233.63
777.07	233.59
777.39	233.50
777.72	233.46
778.04	233.39
778.36	233.32
778.69	233.26
779.01	233.16
779.33	233.02
779.66	232.82
779.98	232.75
780.31	232.69
780.63	232.67
780.95	232.60
781.28	232.57
781.60	232.49
781.92	232.45
782.25	232.44
782.57	232.42
782.89	232.32
783.22	232.25
783.54	232.22
783.86	232.17
784.19	232.14
784.51	232.11
784.83	232.02
785.16	232.03
785.48	231.97
785.80	231.97
786.12	231.91
786.45	231.87
786.77	231.82
787.09	231.77
787.42	231.70
787.74	231.67
788.06	231.61
788.38	231.58
788.71	231.58
789.03	231.52
789.35	231.50
789.67	231.48
789.99	231.45
790.32	231.37
790.64	231.33
790.96	231.37
791.28	231.27
791.61	231.29
791.93	231.23
792.25	231.17
792.57	231.19
792.89	231.15
793.21	231.14
793.54	231.12
793.86	231.08
794.18	231.05
794.50	231.00
794.82	230.98
795.14	230.96
795.47	230.92
795.79	230.86
796.11	230.79
796.43	230.72
796.75	230.66
797.07	230.65
797.39	230.62
797.71	230.48
798.04	230.46
798.36	230.41
798.68	230.41
799.00	230.41
799.32	230.32
799.64	230.30
799.96	230.26
800.28	230.23
800.60	230.22
800.92	230.21
801.24	230.16
801.56	230.13
801.89	230.07
802.21	230.03
802.53	230.00
802.85	229.99
803.17	230.02
803.49	229.98
803.81	229.92
804.13	229.87
804.45	229.84
804.77	229.78
805.09	229.74
805.41	229.67
805.73	229.61
806.05	229.55
806.37	229.53
806.69	229.51
807.01	229.45
807.33	229.41
807.65	229.31
807.97	229.35
808.28	229.29
808.60	229.25
808.92	229.21
809.24	229.23
809.56	229.16
809.88	229.11
810.20	229.14
810.52	229.13
810.84	229.08
811.16	229.04
811.48	229.02
811.80	229.01
812.12	228.96
812.43	228.93
812.75	228.92
813.07	228.89
813.39	228.84
813.71	228.82
814.03	228.80
814.35	228.78
814.67	228.71
814.98	228.67
815.30	228.67
815.62	228.62
815.94	228.54
816.26	228.57
816.58	228.49
816.89	228.45
817.21	228.40
817.53	228.42
817.85	228.41
818.17	228.40
818.48	228.36
818.80	228.36
819.12	228.31
819.44	228.26
819.76	228.22
820.07	228.19
820.39	228.17
820.71	228.18
821.03	228.19
821.34	228.19
821.66	228.22
821.98	228.23
822.30	228.25
822.61	228.29
822.93	228.24
823.25	228.24
823.57	228.20
823.88	228.21
824.20	228.19
824.52	228.20
824.83	228.23
825.15	228.22
825.47	228.22
825.79	228.25
826.10	228.25
826.42	228.24
826.74	228.24
827.05	228.22
827.37	228.20
827.69	228.18
828.00	228.15
828.32	228.10
828.64	228.11
828.95	228.15
829.27	228.12
829.58	228.11
829.90	228.11
830.22	228.16
830.53	228.16
830.85	228.16
831.17	228.14
831.48	228.09
831.80	228.12
832.11	228.14
832.43	228.10
832.75	228.10
833.06	228.15
833.38	228.12
833.69	228.11
834.01	228.10
834.32	228.08
834.64	228.07
834.96	228.08
835.27	228.05
835.59	228.05
835.90	228.03
836.22	228.02
836.53	228.06
836.85	228.04
837.16	228.12
837.48	228.12
837.79	228.17
838.11	228.17
838.42	228.12
838.74	228.10
839.05	228.09
839.37	228.08
839.68	228.01
840.00	228.03
840.31	228.06
840.63	228.06
840.94	228.06
841.26	228.03
841.57	228.04
841.88	228.00
842.20	227.94
842.51	227.91
842.83	227.92
843.14	227.97
843.46	227.94
843.77	227.87
844.08	227.86
844.40	227.83
844.71	227.82
845.03	227.82
845.34	227.82
845.65	227.81
845.97	227.82
846.28	227.79
846.60	227.78
846.91	227.76
847.22	227.71
847.54	227.71
847.85	227.73
848.16	227.70
848.48	227.69
848.79	227.71
849.10	227.73
849.42	227.73
849.73	227.61
850.04	227.60
850.36	227.53
850.67	227.49
850.98	227.42
851.30	227.39
851.61	227.38
851.92	227.35
852.23	227.36
852.55	227.35
852.86	227.35
853.17	227.34
853.49	227.33
853.80	227.37
854.11	227.35
854.42	227.37
854.74	227.33
855.05	227.35
855.36	227.30
855.67	227.30
855.99	227.26
856.30	227.40
856.61	227.37
856.92	227.38
857.23	227.39
857.55	227.39
857.86	227.39
858.17	227.40
858.48	227.37
858.79	227.37
859.11	227.39
859.42	227.39
859.73	227.40
860.04	227.41
860.35	227.42
860.66	227.41
860.98	227.39
861.29	227.41
861.60	227.39
861.91	227.44
862.22	227.45
862.53	227.45
862.84	227.30
863.16	227.35
863.47	227.33
863.78	227.33
864.09	227.35
864.40	227.37
864.71	227.39
865.02	227.41
865.33	227.41
865.64	227.41
865.95	227.40
866.27	227.45
866.58	227.46
866.89	227.42
867.20	227.42
867.51	227.39
867.82	227.38
868.13	227.44
868.44	227.36
868.75	227.35
869.06	227.37
869.37	227.38
869.68	227.34
869.99	227.40
870.30	227.45
870.61	227.45
870.92	227.42
871.23	227.42
871.54	227.45
871.85	227.49
872.16	227.50
872.47	227.51
872.78	227.44
873.09	227.42
873.40	227.47
873.71	227.48
874.02	227.52
874.33	227.54
874.64	227.50
874.95	227.57
875.26	227.57
875.56	227.58
875.87	227.61
876.18	227.64
876.49	227.74
876.80	227.70
877.11	227.71
877.42	227.70
877.73	227.66
878.04	227.64
878.35	227.62
878.66	227.64
878.96	227.63
879.27	227.63
879.58	227.60
879.89	227.56
880.20	227.59
880.51	227.57
880.82	227.56
881.12	227.54
881.43	227.52
881.74	227.48
882.05	227.46
882.36	227.45
882.67	227.42
882.97	227.29
883.28	227.30
883.59	227.30
883.90	227.30
884.21	227.34
884.51	227.32
884.82	227.28
885.13	227.24
885.44	227.24
885.74	227.26
886.05	227.32
886.36	227.32
886.67	227.25
886.98	227.28
887.28	227.30
887.59	227.29
887.90	227.29
888.20	227.30
888.51	227.30
888.82	227.25
889.13	227.25
889.43	227.34
889.74	227.33
890.05	227.29
890.35	227.30
890.66	227.26
890.97	227.27
891.28	227.27
891.58	227.27
891.89	227.26
892.20	227.23
892.50	227.16
892.81	227.13
893.12	227.16
893.42	227.14
893.73	227.11
894.04	227.09
894.34	227.09
894.65	227.04
894.95	227.00
895.26	227.00
895.57	227.01
895.87	226.92
896.18	226.90
896.48	226.93
896.79	226.92
897.10	226.91
897.40	226.89
897.71	226.89
898.01	226.87
898.32	226.87
898.63	226.85
898.93	226.87
899.24	226.87
899.54	226.84
899.85	226.80
900.15	226.79
900.46	226.81
900.76	226.80
901.07	226.82
901.38	226.83
901.68	226.83
901.99	226.81
902.29	226.80
902.60	226.79
902.90	226.74
903.21	226.73
903.51	226.75
903.82	226.78
904.12	226.80
904.43	226.82
904.73	226.80
905.03	226.80
905.34	226.90
905.64	226.88
905.95	226.88
906.25	226.90
906.56	226.91
906.86	226.91
907.17	226.91
907.47	226.94
907.77	226.96
908.08	226.95
908.38	226.97
908.69	227.02
908.99	227.05
909.30	227.10
909.60	227.12
909.90	227.13
910.21	227.13
910.51	227.10
910.81	227.09
911.12	227.12
911.42	227.13
911.73	227.05
912.03	227.09
912.33	227.10
912.64	227.07
912.94	227.05
913.24	227.06
913.55	227.06
913.85	227.05
914.15	227.09
914.46	227.10
914.76	227.08
915.06	227.04
915.37	227.03
915.67	227.00
915.97	227.03
916.27	227.01
916.58	226.99
916.88	227.02
917.18	227.01
917.49	227.06
917.79	227.08
918.09	227.10
918.39	227.12
918.70	227.15
919.00	227.19
919.30	227.27
919.60	227.29
919.91	227.29
920.21	227.32
920.51	227.30
920.81	227.30
921.12	227.35
921.42	227.37
921.72	227.35
922.02	227.38
922.32	227.41
922.63	227.40
922.93	227.45
923.23	227.45
923.53	227.44
923.83	227.39
924.13	227.39
924.44	227.38
924.74	227.38
925.04	227.37
925.34	227.36
925.64	227.31
925.94	227.28
926.24	227.31
926.55	227.25
926.85	227.29
927.15	227.27
927.45	227.22
927.75	227.24
928.05	227.26
928.35	227.23
928.65	227.22
928.95	227.25
929.26	227.19
929.56	227.22
929.86	227.19
930.16	227.16
930.46	227.14
930.76	227.14
931.06	227.11
931.36	227.06
931.66	227.07
931.96	227.06
932.26	227.03
932.56	226.99
932.86	227.01
933.16	226.98
933.46	227.00
933.76	226.98
934.06	226.98
934.36	226.97
934.66	226.95
934.96	226.95
935.26	226.91
935.56	226.92
935.86	226.87
936.16	226.88
936.46	226.88
936.76	226.88
937.06	226.86
937.36	226.84
937.66	226.87
937.96	226.82
938.26	226.80
938.56	226.78
938.86	226.75
939.16	226.78
939.46	226.77
939.76	226.75
940.06	226.73
940.35	226.72
940.65	226.70
940.95	226.71
941.25	226.67
941.55	226.67
941.85	226.66
942.15	226.69
942.45	226.70
942.75	226.75
943.04	226.76
943.34	226.79
943.64	226.77
943.94	226.77
944.24	226.82
944.54	226.84
944.84	226.89
945.13	226.94
945.43	226.92
945.73	226.92
946.03	226.93
946.33	226.94
946.62	226.91
946.92	226.89
947.22	226.93
947.52	226.92
947.82	226.93
948.11	226.95
948.41	226.95
948.71	226.98
949.01	226.96
949.31	226.96
949.60	226.95
949.90	226.99
950.20	226.97
950.50	226.99
950.79	226.98
951.09	227.00
951.39	226.99
951.69	227.03
951.98	227.05
952.28	227.08
952.58	227.07
952.87	227.11
953.17	227.10
953.47	227.10
953.76	227.12
954.06	227.14
954.36	227.12
954.66	227.09
954.95	227.10
955.25	227.13
955.55	227.13
955.84	227.11
956.14	227.08
956.44	227.12
956.73	227.09
957.03	227.11
957.32	227.08
957.62	227.04
957.92	227.03
958.21	227.02
958.51	227.11
958.81	227.13
959.10	227.12
959.40	227.17
959.69	227.12
959.99	227.13
960.29	227.10
960.58	227.10
960.88	227.15
961.17	227.13
961.47	227.10
961.76	227.11
962.06	227.11
962.36	227.09
962.65	227.08
962.95	227.04
963.24	227.03
963.54	227.06
963.83	227.08
964.13	227.03
964.42	227.01
964.72	226.92
965.01	226.92
965.31	226.91
965.60	226.89
965.90	226.93
966.19	226.92
966.49	226.93
966.78	226.90
967.08	226.88
967.37	226.85
967.67	226.83
967.96	226.81
968.26	226.82
968.55	226.83
968.85	226.80
969.14	226.82
969.43	226.80
969.73	226.79
970.02	226.78
970.32	226.82
970.61	226.80
970.91	226.74
971.20	226.74
971.49	226.75
971.79	226.76
972.08	226.70
972.38	226.67
972.67	226.67
972.96	226.69
973.26	226.68
973.55	226.73
973.85	226.74
974.14	226.75
974.43	226.73
974.73	226.75
975.02	226.76
975.31	226.76
975.61	226.73
975.90	226.71
976.19	226.69
976.49	226.67
976.78	226.68
977.07	226.69
977.37	226.69
977.66	226.67
977.95	226.64
978.24	226.66
978.54	226.70
978.83	226.67
979.12	226.70
979.42	226.70
979.71	226.68
980.00	226.64
980.29	226.62
980.59	226.61
980.88	226.61
981.17	226.61
981.46	226.60
981.76	226.63
982.05	226.65
982.34	226.68
982.63	226.66
982.93	226.64
983.22	226.65
983.51	226.65
983.80	226.68
984.09	226.70
984.39	226.69
984.68	226.65
984.97	226.67
985.26	226.64
985.55	226.63
985.85	226.61
986.14	226.64
986.43	226.68
986.72	226.66
987.01	226.64
987.30	226.63
987.59	226.63
987.89	226.63
988.18	226.59
988.47	226.60
988.76	226.60
989.05	226.62
989.34	226.63
989.63	226.68
989.92	226.65
990.22	226.65
990.51	226.65
990.80	226.64
991.09	226.63
991.38	226.65
991.67	226.62
991.96	226.60
992.25	226.62
992.54	226.58
992.83	226.59
993.12	226.60
993.41	226.61
993.70	226.65
993.99	226.68
994.28	226.70
994.58	226.68
994.87	226.69
995.16	226.69
995.45	226.67
995.74	226.63
996.03	226.63
996.32	226.65
996.61	226.67
996.90	226.69
997.19	226.70
997.48	226.71
997.77	226.70
998.06	226.72
998.34	226.69
998.63	226.70
998.92	226.74
999.21	226.73
999.50	226.73
999.79	226.69
1000.08	226.65
1000.37	226.67
1000.66	226.70
1000.95	226.73
1001.24	226.71
1001.53	226.72
1001.82	226.71
1002.11	226.72
1002.40	226.70
1002.68	226.73
1002.97	226.78
1003.26	226.76
1003.55	226.75
1003.84	226.77
1004.13	226.77
1004.42	226.78
1004.71	226.80
1004.99	226.76
1005.28	226.79
1005.57	226.79
1005.86	226.78
1006.15	226.82
1006.44	226.81
1006.72	226.80
1007.01	226.76
1007.30	226.79
1007.59	226.78
1007.88	226.77
1008.17	226.78
1008.45	226.75
1008.74	226.70
1009.03	226.63
1009.32	226.64
1009.60	226.65
1009.89	226.67
1010.18	226.63
1010.47	226.63
1010.76	226.63
1011.04	226.64
1011.33	226.62
1011.62	226.64
1011.91	226.68
1012.19	226.64
1012.48	226.64
1012.77	226.62
1013.05	226.68
1013.34	226.68
1013.63	226.67
1013.92	226.69
1014.20	226.71
1014.49	226.72
1014.78	226.76
1015.06	226.76
1015.35	226.76
1015.64	226.78
1015.92	226.75
1016.21	226.78
1016.50	226.77
1016.78	226.77
1017.07	226.79
1017.36	226.79
1017.64	226.79
1017.93	226.77
1018.22	226.79
1018.50	226.79
1018.79	226.79
1019.08	226.74
1019.36	226.72
1019.65	226.71
1019.93	226.75
1020.22	226.74
1020.51	226.84
1020.79	226.83
1021.08	226.83
1021.36	226.64
1021.65	226.66
1021.94	226.54
1022.22	226.52
1022.51	226.34
1022.79	227.37
1023.08	227.00
1023.36	228.68
1023.65	226.88
>>>>>End Processed Spectral Data<<<<<
