SpectraSuite Data File
++++++++++++++++++++++++++++++++++++
Date: Fri Feb 01 15:58:12 EST 2013
User: group
Dark Spectrum Present: No
Reference Spectrum Present: No
Number of Sampled Component Spectra: 1
Spectrometers: USB2E7196
Integration Time (usec): 35000 (USB2E7196)
Spectra Averaged: 100 (USB2E7196)
Boxcar Smoothing: 10 (USB2E7196)
Correct for Electrical Dark: No (USB2E7196)
Strobe/Lamp Enabled: No (USB2E7196)
Correct for Detector Non-linearity: No (USB2E7196)
Correct for Stray Light: No (USB2E7196)
Number of Pixels in Processed Spectrum: 2048
>>>>>Begin Processed Spectral Data<<<<<
339.09	0.00
339.48	214.53
339.86	216.20
340.24	216.80
340.63	218.68
341.01	221.35
341.39	221.78
341.78	222.41
342.16	223.96
342.54	224.78
342.93	212.91
343.31	223.68
343.69	224.21
344.07	224.67
344.46	225.12
344.84	225.51
345.22	225.78
345.60	226.06
345.99	226.25
346.37	226.38
346.75	226.44
347.13	226.51
347.52	226.56
347.90	226.62
348.28	226.64
348.66	226.72
349.05	226.73
349.43	226.78
349.81	226.83
350.19	226.89
350.57	226.96
350.96	227.03
351.34	227.10
351.72	227.17
352.10	227.25
352.48	227.33
352.87	227.37
353.25	227.43
353.63	227.45
354.01	227.54
354.39	227.65
354.77	227.76
355.15	227.86
355.54	227.93
355.92	227.99
356.30	228.07
356.68	228.17
357.06	228.24
357.44	228.30
357.82	228.38
358.20	228.45
358.58	228.51
358.97	228.57
359.35	228.66
359.73	228.75
360.11	228.82
360.49	228.91
360.87	228.98
361.25	229.02
361.63	229.11
362.01	229.14
362.39	229.15
362.77	229.19
363.15	229.21
363.53	229.23
363.91	229.25
364.29	229.25
364.67	229.17
365.05	229.17
365.43	229.18
365.81	229.17
366.19	229.23
366.57	229.27
366.95	229.28
367.33	229.25
367.71	229.25
368.09	229.26
368.47	229.21
368.85	229.17
369.23	229.20
369.61	229.14
369.99	229.14
370.37	229.10
370.75	229.11
371.13	229.02
371.51	228.98
371.89	228.94
372.27	228.91
372.65	228.85
373.03	228.83
373.41	228.77
373.78	228.74
374.16	228.66
374.54	228.56
374.92	228.49
375.30	228.41
375.68	228.32
376.06	228.25
376.44	228.20
376.82	228.12
377.19	228.01
377.57	227.92
377.95	227.81
378.33	227.75
378.71	227.64
379.09	227.59
379.47	227.55
379.84	227.46
380.22	227.39
380.60	227.32
380.98	227.20
381.36	227.13
381.73	227.03
382.11	226.94
382.49	226.91
382.87	226.82
383.25	226.79
383.62	226.85
384.00	226.77
384.38	226.70
384.76	226.67
385.13	226.67
385.51	226.61
385.89	226.55
386.27	226.50
386.64	226.46
387.02	226.43
387.40	226.38
387.78	226.33
388.15	226.31
388.53	226.27
388.91	226.27
389.29	226.22
389.66	226.19
390.04	226.16
390.42	226.13
390.79	226.14
391.17	226.12
391.55	226.00
391.92	226.00
392.30	226.02
392.68	226.02
393.05	226.00
393.43	226.01
393.81	226.03
394.18	226.05
394.56	226.06
394.94	226.10
395.31	226.11
395.69	226.21
396.06	226.25
396.44	226.31
396.82	226.37
397.19	226.50
397.57	226.57
397.95	226.62
398.32	226.67
398.70	226.72
399.07	226.77
399.45	226.88
399.82	226.93
400.20	226.99
400.58	227.07
400.95	227.12
401.33	227.27
401.70	227.46
402.08	227.56
402.45	227.67
402.83	227.80
403.20	227.93
403.58	227.99
403.95	228.10
404.33	228.25
404.71	228.35
405.08	228.48
405.46	228.60
405.83	228.78
406.21	228.94
406.58	229.10
406.96	229.29
407.33	229.43
407.70	229.65
408.08	229.92
408.45	230.11
408.83	230.39
409.20	230.57
409.58	230.73
409.95	231.00
410.33	231.25
410.70	231.48
411.08	231.74
411.45	232.10
411.82	232.41
412.20	232.73
412.57	233.17
412.95	233.49
413.32	233.90
413.69	234.31
414.07	234.68
414.44	235.15
414.82	235.60
415.19	236.14
415.56	236.70
415.94	237.24
416.31	237.90
416.68	238.46
417.06	239.18
417.43	239.88
417.81	240.61
418.18	241.40
418.55	242.20
418.93	243.06
419.30	243.92
419.67	244.86
420.04	245.84
420.42	246.84
420.79	247.98
421.16	249.09
421.54	250.25
421.91	251.49
422.28	252.75
422.66	254.09
423.03	255.41
423.40	256.73
423.77	258.10
424.15	259.51
424.52	261.01
424.89	262.59
425.26	264.10
425.64	265.55
426.01	267.11
426.38	268.78
426.75	270.52
427.13	272.26
427.50	274.07
427.87	275.91
428.24	277.74
428.61	279.51
428.99	281.47
429.36	283.56
429.73	285.65
430.10	287.68
430.47	289.73
430.85	291.80
431.22	294.03
431.59	296.39
431.96	298.63
432.33	301.14
432.70	303.50
433.08	306.29
433.45	308.91
433.82	311.50
434.19	314.39
434.56	317.15
434.93	319.77
435.30	322.38
435.68	325.26
436.05	328.08
436.42	330.85
436.79	333.38
437.16	336.10
437.53	338.90
437.90	341.69
438.27	344.40
438.64	347.26
439.01	349.84
439.38	352.14
439.75	354.27
440.13	356.70
440.50	359.04
440.87	360.92
441.24	362.89
441.61	365.02
441.98	366.50
442.35	368.28
442.72	370.13
443.09	371.93
443.46	372.90
443.83	373.48
444.20	373.98
444.57	374.82
444.94	375.12
445.31	375.51
445.68	375.88
446.05	375.99
446.42	375.59
446.79	375.18
447.16	374.75
447.53	374.47
447.90	373.35
448.27	372.20
448.64	370.62
449.01	369.49
449.37	367.57
449.74	365.70
450.11	363.47
450.48	360.99
450.85	358.49
451.22	356.41
451.59	354.42
451.96	352.46
452.33	349.86
452.70	347.48
453.07	344.60
453.43	341.69
453.80	338.95
454.17	336.28
454.54	333.74
454.91	330.98
455.28	328.29
455.65	325.82
456.02	323.38
456.38	321.24
456.75	318.58
457.12	316.34
457.49	314.11
457.86	311.93
458.23	310.10
458.59	308.03
458.96	305.92
459.33	304.07
459.70	302.25
460.07	300.73
460.43	299.01
460.80	297.43
461.17	295.99
461.54	294.46
461.91	293.05
462.27	291.60
462.64	290.33
463.01	289.00
463.38	287.69
463.74	286.34
464.11	285.18
464.48	284.21
464.85	283.09
465.21	282.21
465.58	281.31
465.95	280.22
466.32	279.35
466.68	278.44
467.05	277.59
467.42	276.69
467.78	275.76
468.15	274.88
468.52	274.21
468.88	273.36
469.25	272.58
469.62	271.93
469.98	271.29
470.35	270.66
470.72	270.07
471.08	269.42
471.45	268.87
471.82	268.32
472.18	267.68
472.55	267.25
472.92	266.74
473.28	266.27
473.65	265.82
474.02	265.37
474.38	265.01
474.75	264.67
475.11	264.33
475.48	264.06
475.85	263.85
476.21	263.60
476.58	263.41
476.94	263.29
477.31	263.17
477.67	263.01
478.04	262.91
478.41	262.82
478.77	262.86
479.14	262.83
479.50	262.82
479.87	262.88
480.23	262.94
480.60	262.97
480.96	263.07
481.33	263.27
481.69	263.47
482.06	263.67
482.42	263.85
482.79	264.11
483.15	264.45
483.52	264.81
483.88	265.17
484.25	265.53
484.61	265.96
484.98	266.39
485.34	266.95
485.71	267.55
486.07	268.18
486.44	268.74
486.80	269.45
487.17	270.20
487.53	271.01
487.90	271.89
488.26	272.84
488.62	273.84
488.99	274.81
489.35	275.84
489.72	276.93
490.08	278.18
490.44	279.45
490.81	280.76
491.17	282.09
491.54	283.57
491.90	285.14
492.26	286.79
492.63	288.54
492.99	290.27
493.36	292.18
493.72	294.23
494.08	296.32
494.45	298.55
494.81	300.93
495.17	303.40
495.54	305.98
495.90	308.68
496.26	311.46
496.63	314.45
496.99	317.57
497.35	320.85
497.72	324.26
498.08	327.79
498.44	331.42
498.80	335.39
499.17	339.49
499.53	343.65
499.89	348.00
500.26	352.51
500.62	357.26
500.98	362.23
501.34	367.28
501.71	372.65
502.07	378.09
502.43	383.67
502.79	389.48
503.16	395.55
503.52	401.82
503.88	408.28
504.24	414.94
504.60	421.87
504.97	428.99
505.33	436.27
505.69	443.95
506.05	451.74
506.41	459.61
506.78	467.69
507.14	476.20
507.50	484.96
507.86	493.99
508.22	503.21
508.59	512.37
508.95	522.02
509.31	531.81
509.67	541.89
510.03	552.22
510.39	562.81
510.75	573.62
511.12	584.58
511.48	595.84
511.84	607.25
512.20	618.76
512.56	630.78
512.92	643.02
513.28	655.40
513.64	667.90
514.00	680.64
514.37	693.60
514.73	706.61
515.09	719.63
515.45	732.83
515.81	746.32
516.17	760.39
516.53	774.42
516.89	788.61
517.25	802.81
517.61	817.25
517.97	831.68
518.33	846.09
518.69	860.85
519.05	875.85
519.41	891.02
519.77	906.45
520.13	921.78
520.49	937.12
520.85	952.59
521.21	968.32
521.57	984.60
521.93	1000.28
522.29	1016.69
522.65	1032.87
523.01	1049.10
523.37	1065.12
523.73	1081.18
524.09	1097.25
524.45	1113.51
524.81	1130.08
525.17	1146.93
525.53	1163.63
525.89	1180.48
526.25	1197.30
526.61	1213.65
526.97	1230.42
527.33	1246.91
527.68	1263.52
528.04	1279.97
528.40	1296.46
528.76	1313.50
529.12	1329.96
529.48	1346.85
529.84	1362.75
530.20	1379.45
530.56	1396.49
530.91	1414.01
531.27	1430.63
531.63	1447.09
531.99	1463.65
532.35	1479.56
532.71	1495.26
533.07	1511.62
533.42	1527.52
533.78	1543.44
534.14	1559.67
534.50	1574.99
534.86	1590.91
535.21	1606.07
535.57	1621.93
535.93	1637.32
536.29	1652.12
536.65	1667.16
537.00	1681.91
537.36	1697.16
537.72	1711.59
538.08	1725.99
538.44	1739.59
538.79	1753.52
539.15	1767.18
539.51	1780.87
539.87	1795.17
540.22	1808.95
540.58	1822.72
540.94	1836.05
541.29	1849.03
541.65	1861.65
542.01	1874.83
542.37	1886.98
542.72	1899.27
543.08	1910.96
543.44	1923.45
543.79	1934.56
544.15	1945.37
544.51	1956.86
544.87	1967.82
545.22	1978.56
545.58	1988.63
545.94	1998.38
546.29	2008.08
546.65	2017.83
547.01	2027.15
547.36	2035.95
547.72	2044.40
548.07	2052.02
548.43	2060.09
548.79	2068.05
549.14	2075.56
549.50	2082.80
549.86	2090.58
550.21	2097.92
550.57	2105.06
550.92	2111.46
551.28	2118.45
551.64	2125.61
551.99	2132.18
552.35	2138.31
552.70	2144.53
553.06	2150.47
553.41	2156.87
553.77	2163.01
554.13	2169.13
554.48	2175.25
554.84	2180.65
555.19	2185.94
555.55	2191.20
555.90	2195.70
556.26	2200.35
556.61	2205.19
556.97	2209.51
557.32	2213.61
557.68	2217.72
558.03	2222.08
558.39	2225.93
558.74	2230.72
559.10	2234.61
559.45	2238.24
559.81	2242.61
560.16	2246.34
560.52	2249.61
560.87	2252.86
561.23	2255.57
561.58	2258.60
561.94	2261.03
562.29	2263.51
562.64	2266.10
563.00	2268.73
563.35	2272.12
563.71	2275.39
564.06	2278.57
564.42	2281.37
564.77	2283.79
565.12	2286.01
565.48	2287.92
565.83	2289.74
566.19	2290.85
566.54	2291.80
566.89	2292.84
567.25	2293.35
567.60	2294.63
567.96	2296.41
568.31	2297.45
568.66	2298.60
569.02	2299.10
569.37	2299.60
569.72	2300.44
570.08	2300.60
570.43	2300.54
570.78	2300.04
571.14	2298.64
571.49	2297.24
571.84	2296.93
572.20	2295.75
572.55	2294.71
572.90	2293.20
573.26	2291.83
573.61	2290.23
573.96	2288.35
574.31	2285.55
574.67	2282.55
575.02	2278.99
575.37	2275.46
575.72	2271.58
576.08	2268.31
576.43	2265.05
576.78	2261.19
577.13	2257.97
577.49	2254.90
577.84	2251.50
578.19	2247.85
578.54	2244.11
578.90	2239.99
579.25	2234.38
579.60	2229.44
579.95	2224.61
580.30	2219.54
580.66	2214.43
581.01	2209.52
581.36	2204.68
581.71	2200.53
582.06	2196.17
582.42	2191.82
582.77	2186.62
583.12	2182.05
583.47	2177.30
583.82	2172.18
584.17	2166.97
584.53	2161.39
584.88	2155.83
585.23	2150.18
585.58	2144.69
585.93	2139.27
586.28	2134.46
586.63	2129.47
586.98	2124.49
587.34	2119.64
587.69	2114.82
588.04	2109.49
588.39	2103.88
588.74	2097.48
589.09	2091.34
589.44	2084.45
589.79	2078.34
590.14	2072.86
590.49	2066.30
590.84	2059.91
591.19	2054.05
591.54	2047.61
591.89	2040.26
592.25	2033.52
592.60	2026.24
592.95	2018.60
593.30	2011.20
593.65	2003.52
594.00	1996.51
594.35	1989.30
594.70	1981.31
595.05	1974.06
595.40	1966.79
595.75	1959.23
596.10	1952.94
596.45	1946.21
596.80	1940.24
597.15	1933.71
597.50	1926.55
597.85	1920.19
598.19	1913.45
598.54	1906.05
598.89	1899.36
599.24	1893.59
599.59	1886.73
599.94	1880.53
600.29	1874.23
600.64	1867.75
600.99	1860.25
601.34	1853.43
601.69	1846.48
602.04	1839.74
602.39	1832.47
602.74	1825.65
603.08	1818.89
603.43	1812.17
603.78	1804.81
604.13	1797.52
604.48	1790.19
604.83	1783.36
605.18	1776.16
605.53	1768.34
605.87	1760.55
606.22	1753.40
606.57	1745.37
606.92	1738.13
607.27	1730.89
607.62	1723.93
607.96	1716.69
608.31	1710.24
608.66	1702.62
609.01	1695.09
609.36	1687.43
609.70	1679.48
610.05	1671.45
610.40	1663.76
610.75	1655.48
611.10	1647.83
611.44	1639.41
611.79	1631.33
612.14	1622.61
612.49	1613.52
612.83	1605.06
613.18	1596.87
613.53	1588.80
613.88	1580.23
614.22	1571.87
614.57	1563.37
614.92	1555.37
615.27	1547.70
615.61	1539.32
615.96	1531.34
616.31	1523.62
616.65	1516.32
617.00	1508.63
617.35	1501.00
617.70	1492.58
618.04	1484.04
618.39	1475.67
618.74	1468.08
619.08	1459.78
619.43	1452.29
619.78	1445.49
620.12	1438.36
620.47	1430.82
620.82	1422.64
621.16	1415.30
621.51	1407.76
621.85	1400.09
622.20	1391.61
622.55	1383.23
622.89	1375.39
623.24	1367.74
623.59	1360.44
623.93	1352.88
624.28	1345.66
624.62	1338.06
624.97	1331.00
625.32	1324.31
625.66	1317.46
626.01	1310.28
626.35	1302.90
626.70	1295.19
627.04	1287.52
627.39	1279.65
627.73	1272.30
628.08	1265.30
628.43	1257.96
628.77	1250.57
629.12	1243.04
629.46	1235.81
629.81	1228.47
630.15	1221.23
630.50	1213.80
630.84	1205.57
631.19	1197.65
631.53	1190.16
631.88	1182.67
632.22	1175.08
632.57	1167.73
632.91	1160.03
633.26	1152.57
633.60	1145.16
633.95	1138.06
634.29	1130.93
634.64	1124.30
634.98	1116.97
635.32	1109.90
635.67	1103.35
636.01	1096.75
636.36	1089.94
636.70	1083.42
637.05	1076.85
637.39	1070.35
637.73	1063.80
638.08	1057.92
638.42	1051.91
638.77	1045.43
639.11	1038.79
639.45	1032.37
639.80	1025.75
640.14	1019.48
640.49	1012.96
640.83	1006.68
641.17	1000.37
641.52	994.00
641.86	987.53
642.20	981.59
642.55	975.30
642.89	968.81
643.23	962.24
643.58	956.36
643.92	950.26
644.26	944.13
644.61	938.14
644.95	932.13
645.29	925.55
645.64	918.70
645.98	912.40
646.32	906.57
646.66	900.51
647.01	894.61
647.35	888.81
647.69	882.95
648.04	877.45
648.38	871.61
648.72	865.63
649.06	859.56
649.41	853.78
649.75	847.80
650.09	841.88
650.43	836.08
650.78	830.04
651.12	824.03
651.46	818.30
651.80	812.57
652.14	807.25
652.49	801.89
652.83	796.82
653.17	791.04
653.51	785.28
653.85	779.94
654.20	774.40
654.54	768.42
654.88	762.73
655.22	756.82
655.56	751.19
655.90	745.84
656.25	740.60
656.59	735.25
656.93	730.10
657.27	724.88
657.61	719.47
657.95	714.37
658.29	709.27
658.64	704.12
658.98	698.81
659.32	693.29
659.66	688.10
660.00	682.82
660.34	677.98
660.68	673.04
661.02	667.97
661.36	663.20
661.70	658.70
662.05	654.35
662.39	650.05
662.73	645.62
663.07	641.21
663.41	636.78
663.75	632.23
664.09	627.66
664.43	623.27
664.77	619.18
665.11	614.94
665.45	610.86
665.79	606.74
666.13	602.58
666.47	598.46
666.81	594.31
667.15	590.18
667.49	586.24
667.83	582.44
668.17	578.51
668.51	574.42
668.85	570.43
669.19	566.58
669.53	562.68
669.87	558.76
670.21	555.09
670.55	551.41
670.89	548.02
671.23	544.58
671.57	541.07
671.91	537.53
672.25	534.05
672.58	530.55
672.92	527.13
673.26	523.93
673.60	520.81
673.94	517.63
674.28	514.76
674.62	511.87
674.96	508.80
675.30	505.88
675.64	502.96
675.97	500.21
676.31	497.36
676.65	494.40
676.99	491.72
677.33	488.80
677.67	485.97
678.01	482.93
678.34	480.04
678.68	477.20
679.02	474.38
679.36	471.57
679.70	468.77
680.04	466.05
680.37	463.21
680.71	460.41
681.05	457.86
681.39	455.15
681.73	452.47
682.06	449.93
682.40	447.40
682.74	444.89
683.08	442.33
683.42	439.72
683.75	437.29
684.09	434.77
684.43	432.27
684.77	429.85
685.10	427.47
685.44	425.15
685.78	422.84
686.12	420.58
686.45	418.31
686.79	416.08
687.13	413.87
687.46	411.70
687.80	409.53
688.14	407.33
688.48	405.20
688.81	402.94
689.15	400.77
689.49	398.63
689.82	396.59
690.16	394.50
690.50	392.58
690.83	390.63
691.17	388.61
691.51	386.78
691.84	384.92
692.18	383.03
692.52	381.04
692.85	379.10
693.19	377.19
693.52	375.36
693.86	373.52
694.20	371.69
694.53	369.91
694.87	368.07
695.21	366.24
695.54	364.43
695.88	362.70
696.21	360.99
696.55	359.29
696.88	357.59
697.22	355.94
697.56	354.30
697.89	352.65
698.23	351.04
698.56	349.39
698.90	347.79
699.23	346.11
699.57	344.55
699.90	343.00
700.24	341.54
700.58	340.00
700.91	338.50
701.25	337.06
701.58	335.67
701.92	334.33
702.25	332.94
702.59	331.57
702.92	330.25
703.26	328.96
703.59	327.68
703.93	326.51
704.26	325.26
704.60	323.94
704.93	322.67
705.26	321.45
705.60	320.31
705.93	319.14
706.27	318.12
706.60	317.08
706.94	316.02
707.27	314.88
707.61	313.82
707.94	312.81
708.27	311.73
708.61	310.66
708.94	309.68
709.28	308.74
709.61	307.75
709.94	306.80
710.28	305.80
710.61	304.78
710.95	303.72
711.28	302.78
711.61	301.86
711.95	300.92
712.28	299.96
712.61	298.95
712.95	298.01
713.28	297.14
713.61	296.25
713.95	295.37
714.28	294.47
714.61	293.60
714.95	292.70
715.28	291.87
715.61	291.01
715.95	290.13
716.28	289.26
716.61	288.46
716.95	287.66
717.28	286.91
717.61	286.17
717.94	285.40
718.28	284.61
718.61	283.86
718.94	283.16
719.27	282.52
719.61	281.87
719.94	281.24
720.27	280.54
720.60	279.83
720.94	279.17
721.27	278.64
721.60	278.09
721.93	277.54
722.27	276.98
722.60	276.46
722.93	275.87
723.26	275.33
723.59	274.73
723.93	274.20
724.26	273.63
724.59	273.08
724.92	272.60
725.25	272.08
725.59	271.57
725.92	271.12
726.25	270.58
726.58	270.11
726.91	269.62
727.24	269.12
727.57	268.63
727.91	268.15
728.24	267.64
728.57	267.14
728.90	266.68
729.23	266.16
729.56	265.70
729.89	265.24
730.22	264.77
730.55	264.33
730.89	263.89
731.22	263.44
731.55	263.01
731.88	262.54
732.21	262.17
732.54	261.76
732.87	261.26
733.20	260.91
733.53	260.52
733.86	260.13
734.19	259.75
734.52	259.39
734.85	259.08
735.18	258.67
735.51	258.28
735.84	257.90
736.17	257.59
736.50	257.19
736.83	256.96
737.16	256.61
737.49	256.29
737.82	255.92
738.15	255.62
738.48	255.24
738.81	254.92
739.14	254.56
739.47	254.25
739.80	253.97
740.13	253.61
740.46	253.27
740.79	252.94
741.12	252.62
741.45	252.32
741.78	251.97
742.11	251.68
742.44	251.38
742.77	251.08
743.10	250.76
743.43	250.48
743.75	250.10
744.08	249.95
744.41	249.70
744.74	249.40
745.07	249.07
745.40	248.83
745.73	248.60
746.06	248.32
746.39	248.05
746.71	247.79
747.04	247.53
747.37	247.27
747.70	247.03
748.03	246.79
748.36	246.55
748.68	246.28
749.01	246.07
749.34	245.83
749.67	245.61
750.00	245.37
750.33	245.21
750.65	244.99
750.98	244.65
751.31	244.41
751.64	244.21
751.97	244.07
752.29	243.88
752.62	243.61
752.95	243.40
753.28	243.19
753.60	242.95
753.93	242.77
754.26	242.60
754.59	242.36
754.91	242.13
755.24	241.93
755.57	241.74
755.90	241.51
756.22	241.33
756.55	241.17
756.88	241.00
757.20	240.77
757.53	240.56
757.86	240.41
758.19	240.24
758.51	240.09
758.84	239.89
759.17	239.70
759.49	239.56
759.82	239.41
760.15	239.28
760.47	239.17
760.80	239.02
761.13	238.87
761.45	238.76
761.78	238.64
762.11	238.54
762.43	238.39
762.76	238.26
763.08	238.14
763.41	237.98
763.74	237.83
764.06	237.72
764.39	237.58
764.71	237.44
765.04	237.28
765.37	237.15
765.69	237.04
766.02	236.92
766.34	236.78
766.67	236.69
767.00	236.59
767.32	236.50
767.65	236.43
767.97	236.34
768.30	236.20
768.62	236.10
768.95	235.96
769.27	235.90
769.60	235.86
769.92	235.72
770.25	235.63
770.57	235.52
770.90	235.40
771.22	235.34
771.55	235.23
771.87	235.17
772.20	235.05
772.52	235.03
772.85	235.08
773.17	234.99
773.50	234.88
773.82	234.79
774.15	234.65
774.47	234.51
774.80	234.39
775.12	234.32
775.45	234.24
775.77	234.15
776.09	234.06
776.42	233.92
776.74	233.87
777.07	233.75
777.39	233.68
777.72	233.62
778.04	233.57
778.36	233.50
778.69	233.45
779.01	233.43
779.33	233.28
779.66	233.09
779.98	233.04
780.31	232.95
780.63	232.88
780.95	232.85
781.28	232.79
781.60	232.72
781.92	232.62
782.25	232.55
782.57	232.49
782.89	232.41
783.22	232.35
783.54	232.29
783.86	232.28
784.19	232.22
784.51	232.18
784.83	232.10
785.16	232.00
785.48	231.93
785.80	231.87
786.12	231.84
786.45	231.79
786.77	231.71
787.09	231.65
787.42	231.57
787.74	231.54
788.06	231.48
788.38	231.42
788.71	231.39
789.03	231.38
789.35	231.36
789.67	231.30
789.99	231.27
790.32	231.21
790.64	231.16
790.96	231.18
791.28	231.11
791.61	231.07
791.93	231.04
792.25	230.98
792.57	231.00
792.89	230.91
793.21	230.86
793.54	230.86
793.86	230.81
794.18	230.75
794.50	230.69
794.82	230.63
795.14	230.62
795.47	230.60
795.79	230.52
796.11	230.47
796.43	230.45
796.75	230.42
797.07	230.39
797.39	230.35
797.71	230.27
798.04	230.22
798.36	230.19
798.68	230.18
799.00	230.14
799.32	230.05
799.64	230.04
799.96	230.01
800.28	229.97
800.60	229.97
800.92	229.99
801.24	229.93
801.56	229.92
801.89	229.88
802.21	229.82
802.53	229.78
802.85	229.74
803.17	229.75
803.49	229.70
803.81	229.67
804.13	229.62
804.45	229.56
804.77	229.54
805.09	229.49
805.41	229.45
805.73	229.43
806.05	229.33
806.37	229.30
806.69	229.25
807.01	229.22
807.33	229.18
807.65	229.08
807.97	229.15
808.28	229.11
808.60	229.05
808.92	229.04
809.24	229.10
809.56	229.07
809.88	229.05
810.20	229.01
810.52	228.98
810.84	228.97
811.16	228.95
811.48	228.95
811.80	229.00
812.12	228.97
812.43	228.97
812.75	229.00
813.07	228.98
813.39	228.99
813.71	228.95
814.03	228.91
814.35	228.91
814.67	228.84
814.98	228.83
815.30	228.84
815.62	228.82
815.94	228.69
816.26	228.72
816.58	228.62
816.89	228.65
817.21	228.65
817.53	228.62
817.85	228.59
818.17	228.57
818.48	228.50
818.80	228.49
819.12	228.44
819.44	228.42
819.76	228.38
820.07	228.35
820.39	228.35
820.71	228.33
821.03	228.34
821.34	228.31
821.66	228.32
821.98	228.32
822.30	228.29
822.61	228.38
822.93	228.34
823.25	228.37
823.57	228.33
823.88	228.35
824.20	228.39
824.52	228.42
824.83	228.40
825.15	228.39
825.47	228.41
825.79	228.39
826.10	228.38
826.42	228.37
826.74	228.37
827.05	228.36
827.37	228.35
827.69	228.29
828.00	228.29
828.32	228.26
828.64	228.25
828.95	228.29
829.27	228.23
829.58	228.20
829.90	228.17
830.22	228.17
830.53	228.13
830.85	228.07
831.17	228.03
831.48	228.00
831.80	227.95
832.11	227.92
832.43	227.90
832.75	227.88
833.06	227.93
833.38	227.89
833.69	227.89
834.01	227.93
834.32	227.95
834.64	227.92
834.96	227.90
835.27	227.87
835.59	227.83
835.90	227.80
836.22	227.80
836.53	227.82
836.85	227.81
837.16	227.89
837.48	227.89
837.79	227.90
838.11	227.91
838.42	227.93
838.74	227.94
839.05	227.93
839.37	227.91
839.68	227.81
840.00	227.78
840.31	227.78
840.63	227.73
840.94	227.71
841.26	227.71
841.57	227.69
841.88	227.72
842.20	227.70
842.51	227.68
842.83	227.65
843.14	227.68
843.46	227.65
843.77	227.55
844.08	227.55
844.40	227.47
844.71	227.47
845.03	227.43
845.34	227.37
845.65	227.36
845.97	227.37
846.28	227.42
846.60	227.42
846.91	227.40
847.22	227.37
847.54	227.38
847.85	227.38
848.16	227.37
848.48	227.29
848.79	227.32
849.10	227.34
849.42	227.35
849.73	227.25
850.04	227.20
850.36	227.21
850.67	227.23
850.98	227.27
851.30	227.25
851.61	227.26
851.92	227.27
852.23	227.32
852.55	227.32
852.86	227.33
853.17	227.34
853.49	227.33
853.80	227.33
854.11	227.35
854.42	227.34
854.74	227.31
855.05	227.34
855.36	227.27
855.67	227.24
855.99	227.27
856.30	227.39
856.61	227.42
856.92	227.41
857.23	227.39
857.55	227.36
857.86	227.38
858.17	227.40
858.48	227.39
858.79	227.35
859.11	227.32
859.42	227.31
859.73	227.28
860.04	227.30
860.35	227.31
860.66	227.29
860.98	227.32
861.29	227.36
861.60	227.33
861.91	227.36
862.22	227.38
862.53	227.35
862.84	227.25
863.16	227.29
863.47	227.26
863.78	227.28
864.09	227.30
864.40	227.30
864.71	227.28
865.02	227.29
865.33	227.30
865.64	227.29
865.95	227.29
866.27	227.38
866.58	227.36
866.89	227.36
867.20	227.33
867.51	227.27
867.82	227.25
868.13	227.30
868.44	227.28
868.75	227.26
869.06	227.25
869.37	227.27
869.68	227.25
869.99	227.26
870.30	227.24
870.61	227.23
870.92	227.22
871.23	227.20
871.54	227.22
871.85	227.24
872.16	227.25
872.47	227.23
872.78	227.17
873.09	227.17
873.40	227.17
873.71	227.17
874.02	227.21
874.33	227.20
874.64	227.16
874.95	227.19
875.26	227.17
875.56	227.19
875.87	227.17
876.18	227.13
876.49	227.23
876.80	227.25
877.11	227.23
877.42	227.23
877.73	227.24
878.04	227.20
878.35	227.19
878.66	227.19
878.96	227.16
879.27	227.14
879.58	227.13
879.89	227.12
880.20	227.15
880.51	227.09
880.82	227.09
881.12	227.10
881.43	227.05
881.74	227.06
882.05	227.04
882.36	227.04
882.67	227.05
882.97	226.95
883.28	226.90
883.59	226.87
883.90	226.88
884.21	226.89
884.51	226.91
884.82	226.88
885.13	226.86
885.44	226.88
885.74	226.87
886.05	226.85
886.36	226.88
886.67	226.82
886.98	226.90
887.28	226.90
887.59	226.91
887.90	226.91
888.20	226.92
888.51	226.90
888.82	226.87
889.13	226.86
889.43	226.92
889.74	226.91
890.05	226.91
890.35	226.92
890.66	226.92
890.97	226.90
891.28	226.90
891.58	226.93
891.89	226.93
892.20	226.95
892.50	226.97
892.81	226.93
893.12	226.93
893.42	226.93
893.73	226.94
894.04	226.95
894.34	226.94
894.65	226.93
894.95	226.95
895.26	226.97
895.57	227.03
895.87	226.93
896.18	226.95
896.48	226.97
896.79	226.94
897.10	226.96
897.40	226.99
897.71	226.99
898.01	226.96
898.32	226.99
898.63	226.97
898.93	227.00
899.24	227.01
899.54	227.02
899.85	227.01
900.15	226.98
900.46	226.98
900.76	227.03
901.07	227.03
901.38	227.05
901.68	227.08
901.99	227.04
902.29	227.06
902.60	227.07
902.90	227.08
903.21	227.09
903.51	227.05
903.82	227.03
904.12	227.04
904.43	227.09
904.73	227.07
905.03	227.05
905.34	227.12
905.64	227.15
905.95	227.15
906.25	227.12
906.56	227.15
906.86	227.12
907.17	227.10
907.47	227.08
907.77	227.06
908.08	227.04
908.38	227.06
908.69	227.08
908.99	227.10
909.30	227.09
909.60	227.12
909.90	227.17
910.21	227.15
910.51	227.17
910.81	227.14
911.12	227.17
911.42	227.19
911.73	227.07
912.03	227.05
912.33	227.06
912.64	227.08
912.94	227.08
913.24	227.06
913.55	227.04
913.85	227.07
914.15	227.07
914.46	227.05
914.76	227.01
915.06	227.00
915.37	226.98
915.67	226.98
915.97	226.95
916.27	226.91
916.58	226.92
916.88	226.88
917.18	226.87
917.49	226.91
917.79	226.95
918.09	226.96
918.39	226.96
918.70	226.96
919.00	226.97
919.30	226.99
919.60	226.99
919.91	226.99
920.21	226.97
920.51	226.97
920.81	226.98
921.12	226.99
921.42	226.96
921.72	226.96
922.02	226.98
922.32	226.97
922.63	226.98
922.93	227.03
923.23	227.04
923.53	227.01
923.83	226.93
924.13	226.89
924.44	226.86
924.74	226.87
925.04	226.90
925.34	226.90
925.64	226.83
925.94	226.84
926.24	226.88
926.55	226.85
926.85	226.85
927.15	226.85
927.45	226.86
927.75	226.89
928.05	226.86
928.35	226.83
928.65	226.86
928.95	226.86
929.26	226.78
929.56	226.79
929.86	226.79
930.16	226.77
930.46	226.78
930.76	226.80
931.06	226.77
931.36	226.74
931.66	226.72
931.96	226.76
932.26	226.74
932.56	226.70
932.86	226.74
933.16	226.71
933.46	226.70
933.76	226.70
934.06	226.71
934.36	226.76
934.66	226.73
934.96	226.70
935.26	226.70
935.56	226.72
935.86	226.68
936.16	226.68
936.46	226.72
936.76	226.71
937.06	226.71
937.36	226.72
937.66	226.72
937.96	226.73
938.26	226.69
938.56	226.68
938.86	226.70
939.16	226.74
939.46	226.73
939.76	226.72
940.06	226.75
940.35	226.72
940.65	226.70
940.95	226.74
941.25	226.72
941.55	226.71
941.85	226.72
942.15	226.77
942.45	226.80
942.75	226.76
943.04	226.76
943.34	226.80
943.64	226.79
943.94	226.77
944.24	226.78
944.54	226.81
944.84	226.82
945.13	226.78
945.43	226.74
945.73	226.78
946.03	226.79
946.33	226.77
946.62	226.77
946.92	226.76
947.22	226.78
947.52	226.80
947.82	226.81
948.11	226.80
948.41	226.78
948.71	226.73
949.01	226.76
949.31	226.74
949.60	226.70
949.90	226.74
950.20	226.71
950.50	226.71
950.79	226.71
951.09	226.72
951.39	226.72
951.69	226.70
951.98	226.71
952.28	226.71
952.58	226.66
952.87	226.68
953.17	226.69
953.47	226.64
953.76	226.63
954.06	226.63
954.36	226.62
954.66	226.64
954.95	226.66
955.25	226.66
955.55	226.67
955.84	226.66
956.14	226.62
956.44	226.61
956.73	226.59
957.03	226.59
957.32	226.58
957.62	226.59
957.92	226.61
958.21	226.60
958.51	226.69
958.81	226.72
959.10	226.70
959.40	226.73
959.69	226.75
959.99	226.77
960.29	226.75
960.58	226.74
960.88	226.77
961.17	226.79
961.47	226.81
961.76	226.80
962.06	226.80
962.36	226.79
962.65	226.83
962.95	226.86
963.24	226.84
963.54	226.83
963.83	226.81
964.13	226.82
964.42	226.81
964.72	226.73
965.01	226.73
965.31	226.73
965.60	226.70
965.90	226.75
966.19	226.73
966.49	226.72
966.78	226.72
967.08	226.72
967.37	226.71
967.67	226.65
967.96	226.65
968.26	226.65
968.55	226.66
968.85	226.63
969.14	226.62
969.43	226.63
969.73	226.62
970.02	226.63
970.32	226.61
970.61	226.61
970.91	226.60
971.20	226.60
971.49	226.57
971.79	226.57
972.08	226.51
972.38	226.52
972.67	226.54
972.96	226.56
973.26	226.50
973.55	226.53
973.85	226.55
974.14	226.56
974.43	226.57
974.73	226.58
975.02	226.58
975.31	226.59
975.61	226.58
975.90	226.57
976.19	226.58
976.49	226.57
976.78	226.55
977.07	226.54
977.37	226.53
977.66	226.59
977.95	226.54
978.24	226.55
978.54	226.58
978.83	226.56
979.12	226.54
979.42	226.56
979.71	226.55
980.00	226.55
980.29	226.56
980.59	226.55
980.88	226.58
981.17	226.58
981.46	226.59
981.76	226.61
982.05	226.65
982.34	226.67
982.63	226.69
982.93	226.71
983.22	226.70
983.51	226.72
983.80	226.68
984.09	226.72
984.39	226.70
984.68	226.68
984.97	226.66
985.26	226.64
985.55	226.66
985.85	226.65
986.14	226.69
986.43	226.72
986.72	226.73
987.01	226.71
987.30	226.69
987.59	226.67
987.89	226.68
988.18	226.63
988.47	226.62
988.76	226.61
989.05	226.60
989.34	226.61
989.63	226.61
989.92	226.61
990.22	226.61
990.51	226.60
990.80	226.59
991.09	226.61
991.38	226.69
991.67	226.67
991.96	226.63
992.25	226.59
992.54	226.52
992.83	226.47
993.12	226.43
993.41	226.43
993.70	226.48
993.99	226.46
994.28	226.51
994.58	226.50
994.87	226.49
995.16	226.48
995.45	226.44
995.74	226.43
996.03	226.44
996.32	226.45
996.61	226.51
996.90	226.50
997.19	226.50
997.48	226.43
997.77	226.40
998.06	226.43
998.34	226.44
998.63	226.47
998.92	226.49
999.21	226.52
999.50	226.58
999.79	226.53
1000.08	226.57
1000.37	226.54
1000.66	226.56
1000.95	226.58
1001.24	226.59
1001.53	226.66
1001.82	226.65
1002.11	226.64
1002.40	226.63
1002.68	226.66
1002.97	226.75
1003.26	226.75
1003.55	226.76
1003.84	226.78
1004.13	226.79
1004.42	226.82
1004.71	226.82
1004.99	226.79
1005.28	226.83
1005.57	226.80
1005.86	226.76
1006.15	226.73
1006.44	226.72
1006.72	226.74
1007.01	226.75
1007.30	226.76
1007.59	226.73
1007.88	226.71
1008.17	226.73
1008.45	226.74
1008.74	226.70
1009.03	226.65
1009.32	226.67
1009.60	226.69
1009.89	226.71
1010.18	226.69
1010.47	226.65
1010.76	226.65
1011.04	226.71
1011.33	226.70
1011.62	226.74
1011.91	226.79
1012.19	226.81
1012.48	226.85
1012.77	226.82
1013.05	226.88
1013.34	226.87
1013.63	226.88
1013.92	226.92
1014.20	226.93
1014.49	226.90
1014.78	226.92
1015.06	226.90
1015.35	226.88
1015.64	226.90
1015.92	226.90
1016.21	226.89
1016.50	226.90
1016.78	226.90
1017.07	226.89
1017.36	226.88
1017.64	226.87
1017.93	226.88
1018.22	226.85
1018.50	226.81
1018.79	226.81
1019.08	226.70
1019.36	226.70
1019.65	226.67
1019.93	226.68
1020.22	226.70
1020.51	226.77
1020.79	226.74
1021.08	226.50
1021.36	226.16
1021.65	226.60
1021.94	226.00
1022.22	226.71
1022.51	226.25
1022.79	227.13
1023.08	227.40
1023.36	227.99
1023.65	226.45
>>>>>End Processed Spectral Data<<<<<
