SpectraSuite Data File
++++++++++++++++++++++++++++++++++++
Date: Fri Feb 01 17:34:40 EST 2013
User: group
Dark Spectrum Present: No
Reference Spectrum Present: No
Number of Sampled Component Spectra: 1
Spectrometers: USB2E7196
Integration Time (usec): 35000 (USB2E7196)
Spectra Averaged: 100 (USB2E7196)
Boxcar Smoothing: 10 (USB2E7196)
Correct for Electrical Dark: No (USB2E7196)
Strobe/Lamp Enabled: No (USB2E7196)
Correct for Detector Non-linearity: No (USB2E7196)
Correct for Stray Light: No (USB2E7196)
Number of Pixels in Processed Spectrum: 2048
>>>>>Begin Processed Spectral Data<<<<<
339.09	0.00
339.48	212.98
339.86	214.58
340.24	216.17
340.63	217.24
341.01	219.67
341.39	220.06
341.78	220.83
342.16	221.94
342.54	222.87
342.93	211.42
343.31	222.13
343.69	222.67
344.07	223.13
344.46	223.53
344.84	223.91
345.22	224.19
345.60	224.43
345.99	224.64
346.37	224.81
346.75	224.92
347.13	224.99
347.52	225.04
347.90	225.10
348.28	225.14
348.66	225.16
349.05	225.16
349.43	225.21
349.81	225.27
350.19	225.28
350.57	225.30
350.96	225.36
351.34	225.42
351.72	225.50
352.10	225.59
352.48	225.62
352.87	225.69
353.25	225.71
353.63	225.78
354.01	225.85
354.39	225.91
354.77	225.96
355.15	226.03
355.54	226.10
355.92	226.14
356.30	226.21
356.68	226.33
357.06	226.35
357.44	226.39
357.82	226.42
358.20	226.50
358.58	226.56
358.97	226.66
359.35	226.75
359.73	226.81
360.11	226.86
360.49	226.97
360.87	227.00
361.25	227.07
361.63	227.15
362.01	227.18
362.39	227.23
362.77	227.29
363.15	227.33
363.53	227.36
363.91	227.39
364.29	227.39
364.67	227.33
365.05	227.36
365.43	227.41
365.81	227.45
366.19	227.49
366.57	227.54
366.95	227.51
367.33	227.47
367.71	227.46
368.09	227.48
368.47	227.46
368.85	227.44
369.23	227.49
369.61	227.42
369.99	227.43
370.37	227.40
370.75	227.43
371.13	227.39
371.51	227.34
371.89	227.34
372.27	227.35
372.65	227.34
373.03	227.30
373.41	227.25
373.78	227.21
374.16	227.14
374.54	227.04
374.92	226.98
375.30	226.99
375.68	226.91
376.06	226.86
376.44	226.76
376.82	226.72
377.19	226.64
377.57	226.58
377.95	226.48
378.33	226.41
378.71	226.29
379.09	226.24
379.47	226.21
379.84	226.12
380.22	226.02
380.60	225.92
380.98	225.85
381.36	225.78
381.73	225.71
382.11	225.68
382.49	225.64
382.87	225.53
383.25	225.41
383.62	225.48
384.00	225.40
384.38	225.39
384.76	225.36
385.13	225.36
385.51	225.29
385.89	225.23
386.27	225.20
386.64	225.15
387.02	225.10
387.40	225.03
387.78	225.00
388.15	224.96
388.53	224.94
388.91	224.93
389.29	224.90
389.66	224.89
390.04	224.80
390.42	224.79
390.79	224.81
391.17	224.81
391.55	224.69
391.92	224.68
392.30	224.66
392.68	224.61
393.05	224.56
393.43	224.56
393.81	224.55
394.18	224.53
394.56	224.52
394.94	224.56
395.31	224.57
395.69	224.61
396.06	224.65
396.44	224.67
396.82	224.64
397.19	224.70
397.57	224.72
397.95	224.82
398.32	224.83
398.70	224.86
399.07	224.89
399.45	224.94
399.82	224.97
400.20	225.03
400.58	225.11
400.95	225.10
401.33	225.20
401.70	225.37
402.08	225.46
402.45	225.57
402.83	225.64
403.20	225.75
403.58	225.84
403.95	225.95
404.33	226.08
404.71	226.21
405.08	226.35
405.46	226.45
405.83	226.57
406.21	226.73
406.58	226.91
406.96	227.08
407.33	227.27
407.70	227.46
408.08	227.72
408.45	227.92
408.83	228.17
409.20	228.38
409.58	228.56
409.95	228.85
410.33	229.08
410.70	229.34
411.08	229.64
411.45	229.94
411.82	230.26
412.20	230.63
412.57	231.10
412.95	231.42
413.32	231.88
413.69	232.29
414.07	232.75
414.44	233.18
414.82	233.71
415.19	234.26
415.56	234.85
415.94	235.43
416.31	236.13
416.68	236.79
417.06	237.52
417.43	238.25
417.81	239.05
418.18	239.90
418.55	240.80
418.93	241.72
419.30	242.65
419.67	243.67
420.04	244.65
420.42	245.64
420.79	246.88
421.16	248.06
421.54	249.33
421.91	250.61
422.28	251.95
422.66	253.31
423.03	254.65
423.40	256.03
423.77	257.50
424.15	258.97
424.52	260.55
424.89	262.23
425.26	263.82
425.64	265.28
426.01	266.96
426.38	268.69
426.75	270.40
427.13	272.24
427.50	274.12
427.87	276.08
428.24	278.01
428.61	279.84
428.99	281.88
429.36	284.04
429.73	286.18
430.10	288.26
430.47	290.39
430.85	292.60
431.22	294.90
431.59	297.34
431.96	299.68
432.33	302.21
432.70	304.67
433.08	307.62
433.45	310.42
433.82	313.11
434.19	316.13
434.56	319.08
434.93	321.79
435.30	324.51
435.68	327.54
436.05	330.49
436.42	333.41
436.79	336.05
437.16	338.88
437.53	341.84
437.90	344.78
438.27	347.66
438.64	350.62
439.01	353.36
439.38	355.73
439.75	357.98
440.13	360.61
440.50	363.04
440.87	364.99
441.24	367.00
441.61	369.29
441.98	370.82
442.35	372.74
442.72	374.74
443.09	376.61
443.46	377.65
443.83	378.32
444.20	378.88
444.57	379.77
444.94	380.06
445.31	380.45
445.68	380.82
446.05	380.90
446.42	380.53
446.79	380.12
447.16	379.67
447.53	379.38
447.90	378.21
448.27	377.06
448.64	375.38
449.01	374.21
449.37	372.16
449.74	370.23
450.11	367.87
450.48	365.28
450.85	362.68
451.22	360.44
451.59	358.34
451.96	356.33
452.33	353.59
452.70	351.18
453.07	348.21
453.43	345.23
453.80	342.38
454.17	339.61
454.54	336.96
454.91	334.12
455.28	331.31
455.65	328.71
456.02	326.13
456.38	323.92
456.75	321.15
457.12	318.79
457.49	316.41
457.86	314.14
458.23	312.22
458.59	310.05
458.96	307.88
459.33	305.95
459.70	303.97
460.07	302.37
460.43	300.58
460.80	298.88
461.17	297.39
461.54	295.79
461.91	294.27
462.27	292.76
462.64	291.45
463.01	290.08
463.38	288.74
463.74	287.35
464.11	286.12
464.48	285.03
464.85	283.89
465.21	283.01
465.58	282.02
465.95	280.87
466.32	279.95
466.68	279.00
467.05	278.01
467.42	277.06
467.78	276.10
468.15	275.16
468.52	274.46
468.88	273.52
469.25	272.72
469.62	272.07
469.98	271.36
470.35	270.69
470.72	270.02
471.08	269.31
471.45	268.72
471.82	268.17
472.18	267.56
472.55	267.08
472.92	266.52
473.28	266.02
473.65	265.54
474.02	265.07
474.38	264.68
474.75	264.36
475.11	264.02
475.48	263.76
475.85	263.51
476.21	263.33
476.58	263.13
476.94	262.98
477.31	262.81
477.67	262.66
478.04	262.54
478.41	262.50
478.77	262.56
479.14	262.50
479.50	262.52
479.87	262.58
480.23	262.67
480.60	262.74
480.96	262.87
481.33	263.11
481.69	263.31
482.06	263.54
482.42	263.76
482.79	264.04
483.15	264.38
483.52	264.75
483.88	265.05
484.25	265.46
484.61	265.90
484.98	266.33
485.34	266.90
485.71	267.50
486.07	268.12
486.44	268.66
486.80	269.40
487.17	270.08
487.53	270.88
487.90	271.72
488.26	272.67
488.62	273.69
488.99	274.64
489.35	275.67
489.72	276.72
490.08	277.89
490.44	279.11
490.81	280.44
491.17	281.82
491.54	283.32
491.90	284.85
492.26	286.51
492.63	288.27
492.99	289.97
493.36	291.83
493.72	293.82
494.08	295.93
494.45	298.14
494.81	300.52
495.17	302.96
495.54	305.50
495.90	308.12
496.26	310.89
496.63	313.83
496.99	316.96
497.35	320.25
497.72	323.68
498.08	327.20
498.44	330.82
498.80	334.67
499.17	338.67
499.53	342.76
499.89	347.08
500.26	351.51
500.62	356.17
500.98	361.09
501.34	366.10
501.71	371.32
502.07	376.67
502.43	382.14
502.79	387.81
503.16	393.81
503.52	400.01
503.88	406.29
504.24	412.82
504.60	419.54
504.97	426.56
505.33	433.69
505.69	441.24
506.05	448.83
506.41	456.59
506.78	464.55
507.14	472.89
507.50	481.35
507.86	490.17
508.22	499.23
508.59	508.26
508.95	517.62
509.31	527.27
509.67	537.21
510.03	547.30
510.39	557.63
510.75	568.15
511.12	578.77
511.48	589.73
511.84	600.90
512.20	612.14
512.56	623.75
512.92	635.59
513.28	647.61
513.64	659.76
514.00	672.13
514.37	684.80
514.73	697.49
515.09	710.17
515.45	723.15
515.81	736.27
516.17	749.79
516.53	763.58
516.89	777.29
517.25	790.99
517.61	805.01
517.97	818.97
518.33	832.95
518.69	847.33
519.05	861.85
519.41	876.56
519.77	891.66
520.13	906.70
520.49	921.75
520.85	936.57
521.21	951.74
521.57	967.51
521.93	982.72
522.29	998.56
522.65	1014.33
523.01	1029.92
523.37	1045.41
523.73	1061.11
524.09	1076.63
524.45	1092.45
524.81	1108.56
525.17	1124.81
525.53	1141.20
525.89	1157.58
526.25	1173.90
526.61	1189.80
526.97	1206.11
527.33	1222.07
527.68	1238.08
528.04	1253.96
528.40	1270.08
528.76	1286.82
529.12	1302.81
529.48	1319.13
529.84	1334.70
530.20	1350.93
530.56	1367.40
530.91	1384.46
531.27	1400.73
531.63	1416.74
531.99	1432.90
532.35	1448.51
532.71	1463.95
533.07	1479.82
533.42	1495.39
533.78	1511.13
534.14	1527.04
534.50	1541.88
534.86	1557.29
535.21	1572.15
535.57	1587.70
535.93	1602.82
536.29	1617.03
536.65	1631.74
537.00	1646.20
537.36	1661.22
537.72	1675.34
538.08	1689.51
538.44	1702.94
538.79	1716.62
539.15	1729.88
539.51	1743.25
539.87	1757.26
540.22	1770.77
540.58	1784.22
540.94	1797.12
541.29	1809.53
541.65	1822.02
542.01	1835.06
542.37	1847.20
542.72	1859.41
543.08	1871.17
543.44	1883.59
543.79	1894.86
544.15	1905.73
544.51	1917.12
544.87	1927.84
545.22	1938.69
545.58	1949.06
545.94	1958.85
546.29	1968.75
546.65	1978.85
547.01	1988.19
547.36	1996.96
547.72	2005.60
548.07	2013.81
548.43	2021.99
548.79	2030.06
549.14	2037.88
549.50	2045.36
549.86	2053.14
550.21	2060.67
550.57	2067.98
550.92	2074.65
551.28	2081.94
551.64	2089.42
551.99	2096.26
552.35	2102.73
552.70	2109.09
553.06	2115.33
553.41	2121.97
553.77	2128.12
554.13	2134.27
554.48	2140.68
554.84	2146.70
555.19	2152.15
555.55	2157.65
555.90	2162.79
556.26	2168.23
556.61	2173.27
556.97	2178.06
557.32	2182.66
557.68	2187.12
558.03	2191.77
558.39	2195.81
558.74	2200.63
559.10	2204.55
559.45	2208.58
559.81	2213.25
560.16	2217.33
560.52	2220.88
560.87	2224.62
561.23	2227.66
561.58	2230.91
561.94	2233.78
562.29	2236.33
562.64	2239.60
563.00	2242.33
563.35	2246.16
563.71	2249.70
564.06	2253.14
564.42	2256.27
564.77	2259.19
565.12	2262.12
565.48	2264.49
565.83	2266.81
566.19	2268.76
566.54	2270.14
566.89	2271.95
567.25	2272.97
567.60	2274.72
567.96	2276.77
568.31	2277.94
568.66	2279.58
569.02	2280.64
569.37	2281.47
569.72	2282.81
570.08	2283.34
570.43	2283.85
570.78	2283.59
571.14	2282.54
571.49	2281.55
571.84	2281.45
572.20	2280.90
572.55	2280.18
572.90	2278.82
573.26	2277.97
573.61	2276.48
573.96	2275.55
574.31	2272.79
574.67	2270.22
575.02	2267.07
575.37	2263.96
575.72	2260.62
576.08	2257.64
576.43	2254.64
576.78	2251.61
577.13	2248.63
577.49	2245.70
577.84	2242.78
578.19	2239.42
578.54	2236.15
578.90	2232.56
579.25	2227.65
579.60	2223.13
579.95	2218.48
580.30	2213.86
580.66	2208.96
581.01	2204.32
581.36	2199.50
581.71	2195.77
582.06	2191.90
582.42	2187.79
582.77	2183.10
583.12	2179.09
583.47	2174.84
583.82	2170.40
584.17	2165.40
584.53	2160.38
584.88	2155.24
585.23	2149.79
585.58	2144.56
585.93	2139.39
586.28	2134.71
586.63	2129.92
586.98	2124.94
587.34	2120.28
587.69	2115.73
588.04	2110.87
588.39	2105.64
588.74	2099.38
589.09	2093.52
589.44	2086.89
589.79	2080.92
590.14	2075.51
590.49	2069.01
590.84	2062.71
591.19	2056.87
591.54	2050.65
591.89	2043.72
592.25	2037.28
592.60	2030.14
592.95	2022.96
593.30	2015.75
593.65	2008.31
594.00	2001.44
594.35	1994.46
594.70	1986.72
595.05	1979.97
595.40	1972.77
595.75	1965.45
596.10	1959.50
596.45	1953.01
596.80	1947.03
597.15	1940.74
597.50	1934.01
597.85	1927.75
598.19	1921.37
598.54	1914.77
598.89	1908.18
599.24	1902.17
599.59	1895.74
599.94	1889.64
600.29	1883.38
600.64	1877.03
600.99	1869.79
601.34	1863.06
601.69	1856.13
602.04	1849.49
602.39	1842.04
602.74	1835.39
603.08	1828.92
603.43	1822.34
603.78	1815.05
604.13	1807.97
604.48	1801.00
604.83	1794.14
605.18	1787.48
605.53	1779.61
605.87	1771.46
606.22	1764.28
606.57	1756.39
606.92	1748.75
607.27	1741.77
607.62	1734.98
607.96	1727.74
608.31	1721.45
608.66	1714.03
609.01	1706.60
609.36	1698.99
609.70	1691.12
610.05	1683.09
610.40	1675.35
610.75	1667.02
611.10	1659.26
611.44	1650.79
611.79	1642.46
612.14	1633.68
612.49	1624.39
612.83	1615.91
613.18	1607.67
613.53	1599.52
613.88	1590.99
614.22	1582.67
614.57	1573.90
614.92	1565.77
615.27	1558.26
615.61	1549.77
615.96	1541.60
616.31	1533.73
616.65	1526.32
617.00	1518.54
617.35	1510.72
617.70	1502.32
618.04	1493.79
618.39	1485.46
618.74	1477.81
619.08	1469.60
619.43	1462.07
619.78	1455.01
620.12	1447.85
620.47	1440.25
620.82	1432.01
621.16	1424.37
621.51	1416.70
621.85	1408.95
622.20	1400.42
622.55	1391.95
622.89	1383.87
623.24	1376.07
623.59	1368.60
623.93	1360.82
624.28	1353.58
624.62	1346.06
624.97	1338.70
625.32	1331.62
625.66	1324.48
626.01	1317.20
626.35	1309.86
626.70	1301.94
627.04	1294.01
627.39	1286.00
627.73	1278.44
628.08	1271.47
628.43	1264.25
628.77	1256.88
629.12	1249.40
629.46	1242.03
629.81	1234.38
630.15	1227.16
630.50	1219.71
630.84	1211.55
631.19	1203.59
631.53	1195.86
631.88	1188.16
632.22	1180.48
632.57	1173.15
632.91	1165.63
633.26	1158.21
633.60	1150.46
633.95	1143.11
634.29	1136.01
634.64	1129.16
634.98	1121.89
635.32	1114.74
635.67	1108.12
636.01	1101.39
636.36	1094.48
636.70	1087.83
637.05	1081.24
637.39	1074.79
637.73	1068.21
638.08	1062.26
638.42	1056.22
638.77	1049.82
639.11	1043.29
639.45	1036.91
639.80	1030.24
640.14	1023.82
640.49	1017.28
640.83	1011.04
641.17	1004.88
641.52	998.64
641.86	992.19
642.20	986.18
642.55	979.59
642.89	973.09
643.23	966.53
643.58	960.65
643.92	954.59
644.26	948.62
644.61	942.39
644.95	936.48
645.29	929.94
645.64	923.28
645.98	916.87
646.32	910.89
646.66	904.82
647.01	899.05
647.35	893.36
647.69	887.40
648.04	881.81
648.38	876.04
648.72	869.99
649.06	864.05
649.41	858.11
649.75	852.28
650.09	846.32
650.43	840.58
650.78	834.51
651.12	828.51
651.46	822.67
651.80	817.04
652.14	811.50
652.49	806.04
652.83	800.77
653.17	795.16
653.51	789.46
653.85	784.07
654.20	778.50
654.54	772.44
654.88	766.66
655.22	760.72
655.56	755.00
655.90	749.49
656.25	744.20
656.59	738.86
656.93	733.73
657.27	728.49
657.61	722.96
657.95	717.76
658.29	712.59
658.64	707.31
658.98	701.95
659.32	696.50
659.66	691.27
660.00	686.00
660.34	681.05
660.68	676.09
661.02	670.94
661.36	666.21
661.70	661.66
662.05	657.33
662.39	653.03
662.73	648.60
663.07	644.20
663.41	639.73
663.75	635.24
664.09	630.64
664.43	626.23
664.77	622.12
665.11	617.94
665.45	613.78
665.79	609.68
666.13	605.50
666.47	601.38
666.81	597.24
667.15	593.08
667.49	589.07
667.83	585.13
668.17	581.19
668.51	577.08
668.85	572.99
669.19	569.02
669.53	565.17
669.87	561.24
670.21	557.58
670.55	553.86
670.89	550.44
671.23	546.98
671.57	543.44
671.91	539.94
672.25	536.40
672.58	532.87
672.92	529.39
673.26	526.22
673.60	523.04
673.94	519.94
674.28	516.97
674.62	514.08
674.96	511.05
675.30	508.15
675.64	505.20
675.97	502.39
676.31	499.56
676.65	496.60
676.99	493.84
677.33	490.91
677.67	488.12
678.01	485.08
678.34	482.18
678.68	479.23
679.02	476.34
679.36	473.53
679.70	470.79
680.04	468.06
680.37	465.19
680.71	462.37
681.05	459.76
681.39	457.04
681.73	454.30
682.06	451.72
682.40	449.19
682.74	446.59
683.08	443.99
683.42	441.42
683.75	438.94
684.09	436.33
684.43	433.87
684.77	431.36
685.10	428.95
685.44	426.58
685.78	424.29
686.12	422.03
686.45	419.71
686.79	417.44
687.13	415.21
687.46	412.98
687.80	410.78
688.14	408.44
688.48	406.37
688.81	404.19
689.15	402.02
689.49	399.86
689.82	397.76
690.16	395.71
690.50	393.69
690.83	391.68
691.17	389.72
691.51	387.77
691.84	385.91
692.18	383.97
692.52	381.99
692.85	380.02
693.19	378.10
693.52	376.29
693.86	374.41
694.20	372.59
694.53	370.80
694.87	368.92
695.21	367.17
695.54	365.30
695.88	363.51
696.21	361.78
696.55	360.03
696.88	358.37
697.22	356.67
697.56	355.01
697.89	353.35
698.23	351.74
698.56	350.12
698.90	348.58
699.23	346.90
699.57	345.33
699.90	343.81
700.24	342.22
700.58	340.65
700.91	339.18
701.25	337.73
701.58	336.34
701.92	334.98
702.25	333.55
702.59	332.18
702.92	330.83
703.26	329.49
703.59	328.22
703.93	326.97
704.26	325.69
704.60	324.40
704.93	323.13
705.26	321.86
705.60	320.65
705.93	319.42
706.27	318.38
706.60	317.30
706.94	316.17
707.27	315.03
707.61	313.95
707.94	312.89
708.27	311.76
708.61	310.65
708.94	309.57
709.28	308.60
709.61	307.60
709.94	306.61
710.28	305.56
710.61	304.54
710.95	303.41
711.28	302.47
711.61	301.48
711.95	300.56
712.28	299.58
712.61	298.58
712.95	297.59
713.28	296.69
713.61	295.73
713.95	294.83
714.28	293.99
714.61	293.11
714.95	292.23
715.28	291.36
715.61	290.47
715.95	289.62
716.28	288.73
716.61	287.84
716.95	287.02
717.28	286.26
717.61	285.49
717.94	284.78
718.28	283.97
718.61	283.25
718.94	282.51
719.27	281.82
719.61	281.13
719.94	280.49
720.27	279.76
720.60	279.13
720.94	278.51
721.27	277.89
721.60	277.29
721.93	276.68
722.27	276.08
722.60	275.53
722.93	274.96
723.26	274.41
723.59	273.90
723.93	273.34
724.26	272.78
724.59	272.19
724.92	271.65
725.25	271.12
725.59	270.59
725.92	270.08
726.25	269.55
726.58	269.08
726.91	268.59
727.24	268.06
727.57	267.55
727.91	267.03
728.24	266.53
728.57	265.99
728.90	265.57
729.23	265.08
729.56	264.63
729.89	264.18
730.22	263.67
730.55	263.21
730.89	262.75
731.22	262.32
731.55	261.91
731.88	261.47
732.21	261.02
732.54	260.57
732.87	260.14
733.20	259.74
733.53	259.34
733.86	258.97
734.19	258.57
734.52	258.19
734.85	257.84
735.18	257.43
735.51	257.10
735.84	256.67
736.17	256.37
736.50	255.98
736.83	255.72
737.16	255.41
737.49	255.03
737.82	254.69
738.15	254.33
738.48	253.96
738.81	253.62
739.14	253.29
739.47	252.96
739.80	252.65
740.13	252.37
740.46	252.04
740.79	251.69
741.12	251.42
741.45	251.08
741.78	250.72
742.11	250.47
742.44	250.14
742.77	249.85
743.10	249.54
743.43	249.21
743.75	248.83
744.08	248.70
744.41	248.44
744.74	248.19
745.07	247.91
745.40	247.70
745.73	247.46
746.06	247.19
746.39	246.93
746.71	246.65
747.04	246.34
747.37	246.07
747.70	245.83
748.03	245.54
748.36	245.33
748.68	245.12
749.01	244.82
749.34	244.60
749.67	244.40
750.00	244.16
750.33	244.04
750.65	243.80
750.98	243.43
751.31	243.21
751.64	242.97
751.97	242.78
752.29	242.51
752.62	242.23
752.95	242.01
753.28	241.80
753.60	241.58
753.93	241.41
754.26	241.21
754.59	240.96
754.91	240.75
755.24	240.54
755.57	240.34
755.90	240.18
756.22	239.94
756.55	239.72
756.88	239.49
757.20	239.21
757.53	239.01
757.86	238.81
758.19	238.62
758.51	238.43
758.84	238.21
759.17	238.02
759.49	237.90
759.82	237.81
760.15	237.63
760.47	237.45
760.80	237.29
761.13	237.18
761.45	237.01
761.78	236.86
762.11	236.73
762.43	236.59
762.76	236.45
763.08	236.30
763.41	236.15
763.74	236.01
764.06	235.88
764.39	235.74
764.71	235.60
765.04	235.44
765.37	235.30
765.69	235.18
766.02	235.09
766.34	234.95
766.67	234.78
767.00	234.69
767.32	234.64
767.65	234.55
767.97	234.39
768.30	234.29
768.62	234.17
768.95	234.05
769.27	233.93
769.60	233.83
769.92	233.75
770.25	233.65
770.57	233.56
770.90	233.45
771.22	233.36
771.55	233.29
771.87	233.21
772.20	233.14
772.52	233.15
772.85	233.15
773.17	233.03
773.50	232.95
773.82	232.82
774.15	232.67
774.47	232.57
774.80	232.47
775.12	232.40
775.45	232.34
775.77	232.24
776.09	232.16
776.42	232.11
776.74	232.03
777.07	231.95
777.39	231.86
777.72	231.80
778.04	231.74
778.36	231.67
778.69	231.61
779.01	231.52
779.33	231.36
779.66	231.19
779.98	231.15
780.31	231.08
780.63	231.06
780.95	231.02
781.28	230.92
781.60	230.85
781.92	230.80
782.25	230.71
782.57	230.66
782.89	230.58
783.22	230.49
783.54	230.42
783.86	230.38
784.19	230.31
784.51	230.32
784.83	230.26
785.16	230.23
785.48	230.20
785.80	230.19
786.12	230.16
786.45	230.13
786.77	230.07
787.09	230.04
787.42	229.98
787.74	229.97
788.06	229.95
788.38	229.89
788.71	229.81
789.03	229.79
789.35	229.75
789.67	229.72
789.99	229.67
790.32	229.63
790.64	229.60
790.96	229.64
791.28	229.52
791.61	229.42
791.93	229.33
792.25	229.28
792.57	229.28
792.89	229.24
793.21	229.17
793.54	229.14
793.86	229.07
794.18	229.03
794.50	228.93
794.82	228.89
795.14	228.86
795.47	228.84
795.79	228.77
796.11	228.72
796.43	228.68
796.75	228.67
797.07	228.63
797.39	228.55
797.71	228.45
798.04	228.40
798.36	228.42
798.68	228.38
799.00	228.34
799.32	228.25
799.64	228.22
799.96	228.19
800.28	228.14
800.60	228.10
800.92	228.05
801.24	228.04
801.56	227.99
801.89	227.99
802.21	227.98
802.53	227.95
802.85	227.92
803.17	227.92
803.49	227.83
803.81	227.80
804.13	227.78
804.45	227.72
804.77	227.74
805.09	227.69
805.41	227.68
805.73	227.63
806.05	227.58
806.37	227.53
806.69	227.50
807.01	227.48
807.33	227.46
807.65	227.39
807.97	227.41
808.28	227.41
808.60	227.31
808.92	227.28
809.24	227.31
809.56	227.26
809.88	227.21
810.20	227.20
810.52	227.22
810.84	227.18
811.16	227.16
811.48	227.11
811.80	227.12
812.12	227.08
812.43	227.07
812.75	227.05
813.07	227.05
813.39	227.03
813.71	226.95
814.03	226.94
814.35	226.90
814.67	226.86
814.98	226.81
815.30	226.85
815.62	226.80
815.94	226.75
816.26	226.80
816.58	226.76
816.89	226.77
817.21	226.70
817.53	226.70
817.85	226.68
818.17	226.66
818.48	226.62
818.80	226.60
819.12	226.57
819.44	226.57
819.76	226.55
820.07	226.53
820.39	226.56
820.71	226.52
821.03	226.51
821.34	226.47
821.66	226.48
821.98	226.47
822.30	226.48
822.61	226.54
822.93	226.46
823.25	226.46
823.57	226.42
823.88	226.44
824.20	226.47
824.52	226.49
824.83	226.50
825.15	226.47
825.47	226.48
825.79	226.47
826.10	226.43
826.42	226.43
826.74	226.42
827.05	226.40
827.37	226.40
827.69	226.43
828.00	226.40
828.32	226.40
828.64	226.35
828.95	226.40
829.27	226.32
829.58	226.34
829.90	226.33
830.22	226.32
830.53	226.30
830.85	226.24
831.17	226.20
831.48	226.19
831.80	226.19
832.11	226.17
832.43	226.19
832.75	226.19
833.06	226.23
833.38	226.22
833.69	226.22
834.01	226.23
834.32	226.21
834.64	226.22
834.96	226.18
835.27	226.20
835.59	226.11
835.90	226.12
836.22	226.07
836.53	226.04
836.85	226.03
837.16	226.12
837.48	226.11
837.79	226.13
838.11	226.11
838.42	226.10
838.74	226.10
839.05	226.07
839.37	226.05
839.68	225.98
840.00	225.94
840.31	225.93
840.63	225.91
840.94	225.89
841.26	225.88
841.57	225.88
841.88	225.88
842.20	225.88
842.51	225.86
842.83	225.88
843.14	225.97
843.46	225.95
843.77	225.89
844.08	225.84
844.40	225.80
844.71	225.80
845.03	225.77
845.34	225.73
845.65	225.71
845.97	225.72
846.28	225.72
846.60	225.75
846.91	225.72
847.22	225.72
847.54	225.75
847.85	225.74
848.16	225.73
848.48	225.69
848.79	225.71
849.10	225.69
849.42	225.69
849.73	225.60
850.04	225.59
850.36	225.52
850.67	225.55
850.98	225.54
851.30	225.55
851.61	225.55
851.92	225.58
852.23	225.62
852.55	225.61
852.86	225.61
853.17	225.62
853.49	225.67
853.80	225.68
854.11	225.70
854.42	225.67
854.74	225.68
855.05	225.70
855.36	225.63
855.67	225.65
855.99	225.63
856.30	225.74
856.61	225.74
856.92	225.76
857.23	225.78
857.55	225.78
857.86	225.78
858.17	225.81
858.48	225.78
858.79	225.72
859.11	225.73
859.42	225.74
859.73	225.71
860.04	225.66
860.35	225.60
860.66	225.53
860.98	225.59
861.29	225.59
861.60	225.57
861.91	225.60
862.22	225.58
862.53	225.58
862.84	225.43
863.16	225.46
863.47	225.45
863.78	225.41
864.09	225.44
864.40	225.44
864.71	225.42
865.02	225.40
865.33	225.38
865.64	225.36
865.95	225.32
866.27	225.37
866.58	225.35
866.89	225.37
867.20	225.39
867.51	225.34
867.82	225.32
868.13	225.35
868.44	225.32
868.75	225.35
869.06	225.34
869.37	225.35
869.68	225.32
869.99	225.31
870.30	225.32
870.61	225.28
870.92	225.24
871.23	225.26
871.54	225.26
871.85	225.30
872.16	225.30
872.47	225.30
872.78	225.24
873.09	225.27
873.40	225.24
873.71	225.20
874.02	225.22
874.33	225.22
874.64	225.18
874.95	225.21
875.26	225.17
875.56	225.18
875.87	225.19
876.18	225.17
876.49	225.27
876.80	225.27
877.11	225.28
877.42	225.30
877.73	225.23
878.04	225.27
878.35	225.29
878.66	225.28
878.96	225.28
879.27	225.30
879.58	225.29
879.89	225.29
880.20	225.33
880.51	225.32
880.82	225.31
881.12	225.35
881.43	225.32
881.74	225.28
882.05	225.27
882.36	225.26
882.67	225.25
882.97	225.17
883.28	225.14
883.59	225.09
883.90	225.13
884.21	225.17
884.51	225.17
884.82	225.12
885.13	225.15
885.44	225.13
885.74	225.13
886.05	225.12
886.36	225.13
886.67	225.11
886.98	225.14
887.28	225.14
887.59	225.13
887.90	225.13
888.20	225.15
888.51	225.14
888.82	225.16
889.13	225.17
889.43	225.22
889.74	225.20
890.05	225.21
890.35	225.18
890.66	225.17
890.97	225.14
891.28	225.15
891.58	225.13
891.89	225.16
892.20	225.12
892.50	225.10
892.81	225.10
893.12	225.10
893.42	225.04
893.73	225.05
894.04	225.04
894.34	225.04
894.65	225.01
894.95	225.00
895.26	225.00
895.57	225.02
895.87	224.90
896.18	224.92
896.48	224.91
896.79	224.89
897.10	224.88
897.40	224.86
897.71	224.83
898.01	224.81
898.32	224.79
898.63	224.78
898.93	224.83
899.24	224.81
899.54	224.82
899.85	224.80
900.15	224.79
900.46	224.77
900.76	224.79
901.07	224.79
901.38	224.77
901.68	224.76
901.99	224.71
902.29	224.74
902.60	224.71
902.90	224.72
903.21	224.71
903.51	224.69
903.82	224.72
904.12	224.73
904.43	224.73
904.73	224.73
905.03	224.72
905.34	224.77
905.64	224.76
905.95	224.73
906.25	224.76
906.56	224.75
906.86	224.75
907.17	224.72
907.47	224.75
907.77	224.76
908.08	224.76
908.38	224.77
908.69	224.78
908.99	224.81
909.30	224.80
909.60	224.78
909.90	224.80
910.21	224.74
910.51	224.73
910.81	224.72
911.12	224.71
911.42	224.70
911.73	224.59
912.03	224.58
912.33	224.60
912.64	224.58
912.94	224.56
913.24	224.52
913.55	224.52
913.85	224.50
914.15	224.53
914.46	224.52
914.76	224.52
915.06	224.55
915.37	224.52
915.67	224.53
915.97	224.58
916.27	224.58
916.58	224.61
916.88	224.62
917.18	224.68
917.49	224.76
917.79	224.77
918.09	224.83
918.39	224.89
918.70	224.90
919.00	224.90
919.30	224.94
919.60	224.97
919.91	224.99
920.21	225.02
920.51	225.01
920.81	225.02
921.12	225.04
921.42	225.01
921.72	225.07
922.02	225.09
922.32	225.10
922.63	225.11
922.93	225.19
923.23	225.19
923.53	225.15
923.83	225.11
924.13	225.14
924.44	225.14
924.74	225.18
925.04	225.22
925.34	225.24
925.64	225.23
925.94	225.25
926.24	225.30
926.55	225.31
926.85	225.34
927.15	225.31
927.45	225.32
927.75	225.33
928.05	225.31
928.35	225.33
928.65	225.38
928.95	225.39
929.26	225.35
929.56	225.40
929.86	225.40
930.16	225.38
930.46	225.39
930.76	225.38
931.06	225.30
931.36	225.24
931.66	225.24
931.96	225.26
932.26	225.26
932.56	225.22
932.86	225.21
933.16	225.16
933.46	225.20
933.76	225.17
934.06	225.17
934.36	225.19
934.66	225.18
934.96	225.13
935.26	225.11
935.56	225.09
935.86	225.04
936.16	225.04
936.46	225.05
936.76	225.01
937.06	225.00
937.36	225.03
937.66	225.02
937.96	225.05
938.26	225.02
938.56	225.00
938.86	224.96
939.16	225.00
939.46	225.01
939.76	225.02
940.06	225.02
940.35	225.03
940.65	224.99
940.95	224.97
941.25	224.96
941.55	224.95
941.85	224.97
942.15	224.95
942.45	224.97
942.75	224.91
943.04	224.92
943.34	224.95
943.64	224.95
943.94	224.95
944.24	224.90
944.54	224.91
944.84	224.88
945.13	224.91
945.43	224.88
945.73	224.87
946.03	224.87
946.33	224.87
946.62	224.85
946.92	224.85
947.22	224.86
947.52	224.83
947.82	224.84
948.11	224.81
948.41	224.80
948.71	224.78
949.01	224.81
949.31	224.81
949.60	224.78
949.90	224.75
950.20	224.75
950.50	224.77
950.79	224.78
951.09	224.80
951.39	224.80
951.69	224.81
951.98	224.83
952.28	224.85
952.58	224.88
952.87	224.89
953.17	224.94
953.47	224.92
953.76	224.94
954.06	224.92
954.36	224.93
954.66	224.95
954.95	224.98
955.25	225.02
955.55	225.05
955.84	225.02
956.14	225.05
956.44	225.04
956.73	225.02
957.03	225.05
957.32	225.05
957.62	225.02
957.92	225.03
958.21	225.04
958.51	225.13
958.81	225.13
959.10	225.10
959.40	225.10
959.69	225.14
959.99	225.16
960.29	225.17
960.58	225.16
960.88	225.21
961.17	225.19
961.47	225.18
961.76	225.18
962.06	225.23
962.36	225.23
962.65	225.26
962.95	225.29
963.24	225.27
963.54	225.28
963.83	225.30
964.13	225.29
964.42	225.27
964.72	225.18
965.01	225.15
965.31	225.17
965.60	225.15
965.90	225.20
966.19	225.16
966.49	225.19
966.78	225.22
967.08	225.20
967.37	225.18
967.67	225.19
967.96	225.22
968.26	225.22
968.55	225.23
968.85	225.21
969.14	225.19
969.43	225.17
969.73	225.16
970.02	225.16
970.32	225.16
970.61	225.12
970.91	225.09
971.20	225.11
971.49	225.11
971.79	225.09
972.08	225.01
972.38	225.00
972.67	224.99
972.96	224.98
973.26	224.95
973.55	224.99
973.85	224.95
974.14	224.91
974.43	224.91
974.73	224.87
975.02	224.87
975.31	224.85
975.61	224.85
975.90	224.83
976.19	224.81
976.49	224.82
976.78	224.85
977.07	224.82
977.37	224.81
977.66	224.83
977.95	224.80
978.24	224.78
978.54	224.83
978.83	224.82
979.12	224.79
979.42	224.78
979.71	224.76
980.00	224.75
980.29	224.74
980.59	224.70
980.88	224.78
981.17	224.73
981.46	224.73
981.76	224.72
982.05	224.74
982.34	224.75
982.63	224.73
982.93	224.72
983.22	224.75
983.51	224.75
983.80	224.75
984.09	224.82
984.39	224.83
984.68	224.79
984.97	224.76
985.26	224.75
985.55	224.77
985.85	224.74
986.14	224.78
986.43	224.78
986.72	224.79
987.01	224.72
987.30	224.75
987.59	224.77
987.89	224.80
988.18	224.79
988.47	224.78
988.76	224.78
989.05	224.78
989.34	224.78
989.63	224.83
989.92	224.81
990.22	224.77
990.51	224.78
990.80	224.79
991.09	224.85
991.38	224.85
991.67	224.86
991.96	224.88
992.25	224.86
992.54	224.85
992.83	224.87
993.12	224.86
993.41	224.90
993.70	224.96
993.99	224.96
994.28	224.95
994.58	224.94
994.87	224.90
995.16	224.90
995.45	224.90
995.74	224.86
996.03	224.86
996.32	224.90
996.61	224.91
996.90	224.90
997.19	224.90
997.48	224.90
997.77	224.89
998.06	224.85
998.34	224.88
998.63	224.85
998.92	224.85
999.21	224.87
999.50	224.83
999.79	224.77
1000.08	224.79
1000.37	224.79
1000.66	224.81
1000.95	224.85
1001.24	224.88
1001.53	224.88
1001.82	224.87
1002.11	224.87
1002.40	224.87
1002.68	224.88
1002.97	224.95
1003.26	224.90
1003.55	224.89
1003.84	224.91
1004.13	224.95
1004.42	224.94
1004.71	224.93
1004.99	224.92
1005.28	224.96
1005.57	224.95
1005.86	224.94
1006.15	224.91
1006.44	224.90
1006.72	224.93
1007.01	224.93
1007.30	224.87
1007.59	224.84
1007.88	224.84
1008.17	224.84
1008.45	224.77
1008.74	224.74
1009.03	224.68
1009.32	224.67
1009.60	224.68
1009.89	224.67
1010.18	224.66
1010.47	224.65
1010.76	224.67
1011.04	224.66
1011.33	224.64
1011.62	224.60
1011.91	224.58
1012.19	224.58
1012.48	224.59
1012.77	224.56
1013.05	224.59
1013.34	224.61
1013.63	224.64
1013.92	224.60
1014.20	224.60
1014.49	224.62
1014.78	224.61
1015.06	224.60
1015.35	224.61
1015.64	224.59
1015.92	224.61
1016.21	224.61
1016.50	224.62
1016.78	224.60
1017.07	224.60
1017.36	224.58
1017.64	224.61
1017.93	224.63
1018.22	224.64
1018.50	224.64
1018.79	224.67
1019.08	224.62
1019.36	224.64
1019.65	224.63
1019.93	224.67
1020.22	224.65
1020.51	224.70
1020.79	224.69
1021.08	224.63
1021.36	224.77
1021.65	225.15
1021.94	224.38
1022.22	224.92
1022.51	224.79
1022.79	225.12
1023.08	224.18
1023.36	225.58
1023.65	224.10
>>>>>End Processed Spectral Data<<<<<
