SpectraSuite Data File
++++++++++++++++++++++++++++++++++++
Date: Fri Feb 01 16:16:54 EST 2013
User: group
Dark Spectrum Present: No
Reference Spectrum Present: No
Number of Sampled Component Spectra: 1
Spectrometers: USB2E7196
Integration Time (usec): 35000 (USB2E7196)
Spectra Averaged: 100 (USB2E7196)
Boxcar Smoothing: 10 (USB2E7196)
Correct for Electrical Dark: No (USB2E7196)
Strobe/Lamp Enabled: No (USB2E7196)
Correct for Detector Non-linearity: No (USB2E7196)
Correct for Stray Light: No (USB2E7196)
Number of Pixels in Processed Spectrum: 2048
>>>>>Begin Processed Spectral Data<<<<<
339.09	0.00
339.48	214.42
339.86	215.43
340.24	216.86
340.63	218.18
341.01	221.20
341.39	220.55
341.78	222.35
342.16	223.81
342.54	223.51
342.93	212.33
343.31	223.06
343.69	223.58
344.07	224.06
344.46	224.51
344.84	224.88
345.22	225.12
345.60	225.40
345.99	225.62
346.37	225.75
346.75	225.88
347.13	225.94
347.52	226.01
347.90	226.13
348.28	226.16
348.66	226.26
349.05	226.26
349.43	226.30
349.81	226.36
350.19	226.42
350.57	226.47
350.96	226.55
351.34	226.61
351.72	226.69
352.10	226.76
352.48	226.80
352.87	226.85
353.25	226.91
353.63	226.97
354.01	226.99
354.39	227.06
354.77	227.14
355.15	227.24
355.54	227.31
355.92	227.33
356.30	227.41
356.68	227.57
357.06	227.64
357.44	227.69
357.82	227.76
358.20	227.83
358.58	227.89
358.97	227.94
359.35	228.07
359.73	228.17
360.11	228.25
360.49	228.32
360.87	228.39
361.25	228.47
361.63	228.57
362.01	228.66
362.39	228.71
362.77	228.75
363.15	228.78
363.53	228.82
363.91	228.87
364.29	228.90
364.67	228.80
365.05	228.84
365.43	228.87
365.81	228.87
366.19	228.91
366.57	228.92
366.95	228.95
367.33	228.88
367.71	228.83
368.09	228.85
368.47	228.82
368.85	228.79
369.23	228.76
369.61	228.68
369.99	228.64
370.37	228.59
370.75	228.58
371.13	228.50
371.51	228.46
371.89	228.40
372.27	228.34
372.65	228.30
373.03	228.23
373.41	228.19
373.78	228.15
374.16	228.06
374.54	227.96
374.92	227.89
375.30	227.84
375.68	227.81
376.06	227.73
376.44	227.68
376.82	227.63
377.19	227.55
377.57	227.49
377.95	227.40
378.33	227.32
378.71	227.22
379.09	227.17
379.47	227.07
379.84	227.01
380.22	226.94
380.60	226.85
380.98	226.78
381.36	226.71
381.73	226.64
382.11	226.59
382.49	226.57
382.87	226.52
383.25	226.45
383.62	226.48
384.00	226.38
384.38	226.32
384.76	226.29
385.13	226.30
385.51	226.23
385.89	226.19
386.27	226.15
386.64	226.09
387.02	226.07
387.40	226.04
387.78	226.01
388.15	226.00
388.53	225.95
388.91	225.91
389.29	225.85
389.66	225.84
390.04	225.80
390.42	225.78
390.79	225.74
391.17	225.73
391.55	225.61
391.92	225.63
392.30	225.61
392.68	225.58
393.05	225.56
393.43	225.54
393.81	225.53
394.18	225.53
394.56	225.56
394.94	225.59
395.31	225.60
395.69	225.65
396.06	225.68
396.44	225.73
396.82	225.79
397.19	225.91
397.57	225.92
397.95	225.99
398.32	226.03
398.70	226.09
399.07	226.16
399.45	226.23
399.82	226.30
400.20	226.39
400.58	226.48
400.95	226.51
401.33	226.65
401.70	226.82
402.08	226.91
402.45	227.00
402.83	227.10
403.20	227.20
403.58	227.29
403.95	227.41
404.33	227.54
404.71	227.63
405.08	227.81
405.46	227.95
405.83	228.06
406.21	228.19
406.58	228.36
406.96	228.50
407.33	228.67
407.70	228.81
408.08	229.05
408.45	229.25
408.83	229.49
409.20	229.67
409.58	229.83
409.95	230.07
410.33	230.36
410.70	230.60
411.08	230.88
411.45	231.20
411.82	231.49
412.20	231.82
412.57	232.25
412.95	232.51
413.32	232.91
413.69	233.31
414.07	233.73
414.44	234.17
414.82	234.68
415.19	235.20
415.56	235.78
415.94	236.35
416.31	236.97
416.68	237.61
417.06	238.32
417.43	238.97
417.81	239.73
418.18	240.49
418.55	241.36
418.93	242.24
419.30	243.10
419.67	244.06
420.04	245.02
420.42	246.02
420.79	247.22
421.16	248.37
421.54	249.60
421.91	250.80
422.28	252.04
422.66	253.34
423.03	254.63
423.40	255.94
423.77	257.33
424.15	258.74
424.52	260.18
424.89	261.77
425.26	263.34
425.64	264.76
426.01	266.35
426.38	267.98
426.75	269.64
427.13	271.34
427.50	273.12
427.87	274.98
428.24	276.80
428.61	278.51
428.99	280.45
429.36	282.54
429.73	284.64
430.10	286.63
430.47	288.67
430.85	290.77
431.22	292.97
431.59	295.33
431.96	297.57
432.33	300.05
432.70	302.44
433.08	305.25
433.45	307.90
433.82	310.50
434.19	313.36
434.56	316.15
434.93	318.87
435.30	321.46
435.68	324.32
436.05	327.14
436.42	329.91
436.79	332.40
437.16	335.12
437.53	337.94
437.90	340.75
438.27	343.53
438.64	346.39
439.01	349.00
439.38	351.26
439.75	353.43
440.13	355.92
440.50	358.25
440.87	360.10
441.24	362.04
441.61	364.19
441.98	365.68
442.35	367.46
442.72	369.29
443.09	371.11
443.46	372.11
443.83	372.72
444.20	373.25
444.57	374.06
444.94	374.31
445.31	374.67
445.68	375.05
446.05	375.06
446.42	374.68
446.79	374.29
447.16	373.81
447.53	373.49
447.90	372.32
448.27	371.15
448.64	369.53
449.01	368.41
449.37	366.47
449.74	364.55
450.11	362.37
450.48	359.89
450.85	357.36
451.22	355.26
451.59	353.26
451.96	351.37
452.33	348.80
452.70	346.46
453.07	343.64
453.43	340.79
453.80	338.05
454.17	335.36
454.54	332.85
454.91	330.17
455.28	327.52
455.65	325.06
456.02	322.61
456.38	320.50
456.75	317.83
457.12	315.56
457.49	313.36
457.86	311.17
458.23	309.33
458.59	307.29
458.96	305.21
459.33	303.33
459.70	301.43
460.07	299.94
460.43	298.20
460.80	296.56
461.17	295.09
461.54	293.64
461.91	292.22
462.27	290.77
462.64	289.50
463.01	288.14
463.38	286.87
463.74	285.50
464.11	284.33
464.48	283.34
464.85	282.25
465.21	281.42
465.58	280.48
465.95	279.36
466.32	278.50
466.68	277.60
467.05	276.71
467.42	275.81
467.78	274.90
468.15	274.01
468.52	273.33
468.88	272.48
469.25	271.68
469.62	271.11
469.98	270.45
470.35	269.84
470.72	269.24
471.08	268.57
471.45	268.08
471.82	267.56
472.18	266.96
472.55	266.54
472.92	265.98
473.28	265.52
473.65	265.12
474.02	264.65
474.38	264.30
474.75	263.98
475.11	263.63
475.48	263.35
475.85	263.12
476.21	262.92
476.58	262.74
476.94	262.61
477.31	262.42
477.67	262.23
478.04	262.12
478.41	262.08
478.77	262.13
479.14	262.08
479.50	262.10
479.87	262.15
480.23	262.22
480.60	262.32
480.96	262.44
481.33	262.64
481.69	262.88
482.06	263.05
482.42	263.26
482.79	263.56
483.15	263.87
483.52	264.28
483.88	264.61
484.25	265.03
484.61	265.46
484.98	265.92
485.34	266.51
485.71	267.09
486.07	267.74
486.44	268.30
486.80	268.99
487.17	269.72
487.53	270.54
487.90	271.39
488.26	272.35
488.62	273.36
488.99	274.34
489.35	275.37
489.72	276.57
490.08	277.77
490.44	279.00
490.81	280.39
491.17	281.73
491.54	283.27
491.90	284.82
492.26	286.47
492.63	288.23
492.99	290.03
493.36	291.94
493.72	293.96
494.08	296.08
494.45	298.33
494.81	300.70
495.17	303.17
495.54	305.77
495.90	308.45
496.26	311.26
496.63	314.24
496.99	317.34
497.35	320.58
497.72	324.01
498.08	327.55
498.44	331.21
498.80	335.19
499.17	339.24
499.53	343.43
499.89	347.79
500.26	352.31
500.62	357.00
500.98	362.06
501.34	367.09
501.71	372.46
502.07	377.91
502.43	383.53
502.79	389.36
503.16	395.43
503.52	401.74
503.88	408.12
504.24	414.78
504.60	421.68
504.97	428.77
505.33	436.09
505.69	443.81
506.05	451.59
506.41	459.50
506.78	467.58
507.14	476.06
507.50	484.78
507.86	493.81
508.22	503.04
508.59	512.19
508.95	521.87
509.31	531.70
509.67	541.80
510.03	552.06
510.39	562.62
510.75	573.43
511.12	584.30
511.48	595.61
511.84	607.04
512.20	618.59
512.56	630.52
512.92	642.68
513.28	655.01
513.64	667.49
514.00	680.09
514.37	693.16
514.73	706.16
515.09	719.26
515.45	732.54
515.81	746.05
516.17	760.02
516.53	774.13
516.89	788.26
517.25	802.41
517.61	816.86
517.97	831.32
518.33	845.76
518.69	860.56
519.05	875.49
519.41	890.56
519.77	905.99
520.13	921.48
520.49	936.84
520.85	952.30
521.21	967.91
521.57	984.19
521.93	999.87
522.29	1016.13
522.65	1032.25
523.01	1048.38
523.37	1064.43
523.73	1080.57
524.09	1096.54
524.45	1112.78
524.81	1129.40
525.17	1146.14
525.53	1162.94
525.89	1179.69
526.25	1196.53
526.61	1212.90
526.97	1229.61
527.33	1246.06
527.68	1262.58
528.04	1279.01
528.40	1295.52
528.76	1312.55
529.12	1329.10
529.48	1345.86
529.84	1361.89
530.20	1378.45
530.56	1395.28
530.91	1412.67
531.27	1429.27
531.63	1445.63
531.99	1462.10
532.35	1478.05
532.71	1493.84
533.07	1510.02
533.42	1525.88
533.78	1541.83
534.14	1557.99
534.50	1573.38
534.86	1589.18
535.21	1604.30
535.57	1620.17
535.93	1635.56
536.29	1650.27
536.65	1665.11
537.00	1679.85
537.36	1695.16
537.72	1709.70
538.08	1724.21
538.44	1737.96
538.79	1751.86
539.15	1765.43
539.51	1779.23
539.87	1793.53
540.22	1807.25
540.58	1820.93
540.94	1834.21
541.29	1846.91
541.65	1859.52
542.01	1872.68
542.37	1884.96
542.72	1897.43
543.08	1909.18
543.44	1921.55
543.79	1932.78
544.15	1943.73
544.51	1955.29
544.87	1966.27
545.22	1977.08
545.58	1987.25
545.94	1996.85
546.29	2006.68
546.65	2016.65
547.01	2025.79
547.36	2034.42
547.72	2042.81
548.07	2050.59
548.43	2058.72
548.79	2066.73
549.14	2074.34
549.50	2081.47
549.86	2089.11
550.21	2096.34
550.57	2103.40
550.92	2109.88
551.28	2116.80
551.64	2123.80
551.99	2130.23
552.35	2136.38
552.70	2142.43
553.06	2148.42
553.41	2154.81
553.77	2160.90
554.13	2166.89
554.48	2173.04
554.84	2178.50
555.19	2183.78
555.55	2189.02
555.90	2193.36
556.26	2198.31
556.61	2203.00
556.97	2207.43
557.32	2211.59
557.68	2215.72
558.03	2220.05
558.39	2223.75
558.74	2228.39
559.10	2232.30
559.45	2236.01
559.81	2240.14
560.16	2244.04
560.52	2247.22
560.87	2250.71
561.23	2253.29
561.58	2256.26
561.94	2258.77
562.29	2261.19
562.64	2264.06
563.00	2266.73
563.35	2270.44
563.71	2273.59
564.06	2276.66
564.42	2279.47
564.77	2282.02
565.12	2284.33
565.48	2286.43
565.83	2288.32
566.19	2289.72
566.54	2290.74
566.89	2291.87
567.25	2292.53
567.60	2293.76
567.96	2295.63
568.31	2296.29
568.66	2297.60
569.02	2298.25
569.37	2298.52
569.72	2299.35
570.08	2299.40
570.43	2299.46
570.78	2298.83
571.14	2297.28
571.49	2296.03
571.84	2295.88
572.20	2294.76
572.55	2293.67
572.90	2291.90
573.26	2290.62
573.61	2289.00
573.96	2287.34
574.31	2284.53
574.67	2281.49
575.02	2277.98
575.37	2274.48
575.72	2270.85
576.08	2267.26
576.43	2263.90
576.78	2260.41
577.13	2257.31
577.49	2254.33
577.84	2250.84
578.19	2247.18
578.54	2243.68
578.90	2239.52
579.25	2233.90
579.60	2229.00
579.95	2224.02
580.30	2219.06
580.66	2213.88
581.01	2208.89
581.36	2203.87
581.71	2199.71
582.06	2195.40
582.42	2190.93
582.77	2185.72
583.12	2181.22
583.47	2176.74
583.82	2171.81
584.17	2166.61
584.53	2161.14
584.88	2155.47
585.23	2149.70
585.58	2144.15
585.93	2138.71
586.28	2134.10
586.63	2129.20
586.98	2124.16
587.34	2119.57
587.69	2114.83
588.04	2109.52
588.39	2103.98
588.74	2097.59
589.09	2091.39
589.44	2084.68
589.79	2078.69
590.14	2073.15
590.49	2066.50
590.84	2060.03
591.19	2054.04
591.54	2047.65
591.89	2040.39
592.25	2033.70
592.60	2026.57
592.95	2019.13
593.30	2011.75
593.65	2004.08
594.00	1996.94
594.35	1989.73
594.70	1981.59
595.05	1974.40
595.40	1967.33
595.75	1959.84
596.10	1953.67
596.45	1947.02
596.80	1940.93
597.15	1934.37
597.50	1927.30
597.85	1920.95
598.19	1914.34
598.54	1907.37
598.89	1900.65
599.24	1894.71
599.59	1887.95
599.94	1881.74
600.29	1875.42
600.64	1868.81
600.99	1861.39
601.34	1854.56
601.69	1847.59
602.04	1840.89
602.39	1833.67
602.74	1826.78
603.08	1820.04
603.43	1813.48
603.78	1806.17
604.13	1798.84
604.48	1791.50
604.83	1784.53
605.18	1777.66
605.53	1769.82
605.87	1761.73
606.22	1754.60
606.57	1746.58
606.92	1739.27
607.27	1732.18
607.62	1725.21
607.96	1718.08
608.31	1711.49
608.66	1703.98
609.01	1696.50
609.36	1688.93
609.70	1680.82
610.05	1672.86
610.40	1665.20
610.75	1656.65
611.10	1649.06
611.44	1640.74
611.79	1632.76
612.14	1624.26
612.49	1615.01
612.83	1606.54
613.18	1598.38
613.53	1590.16
613.88	1581.60
614.22	1573.31
614.57	1564.71
614.92	1556.68
615.27	1549.05
615.61	1540.80
615.96	1532.71
616.31	1524.92
616.65	1517.51
617.00	1509.97
617.35	1502.17
617.70	1493.83
618.04	1485.41
618.39	1477.14
618.74	1469.52
619.08	1461.23
619.43	1453.62
619.78	1446.78
620.12	1439.58
620.47	1432.09
620.82	1423.81
621.16	1416.46
621.51	1408.95
621.85	1401.33
622.20	1392.87
622.55	1384.51
622.89	1376.64
623.24	1369.00
623.59	1361.57
623.93	1354.07
624.28	1346.83
624.62	1339.37
624.97	1332.18
625.32	1325.40
625.66	1318.28
626.01	1311.05
626.35	1303.61
626.70	1295.80
627.04	1288.07
627.39	1280.32
627.73	1272.96
628.08	1266.12
628.43	1258.79
628.77	1251.34
629.12	1243.71
629.46	1236.56
629.81	1229.14
630.15	1221.83
630.50	1214.45
630.84	1206.32
631.19	1198.33
631.53	1190.68
631.88	1182.99
632.22	1175.37
632.57	1168.07
632.91	1160.57
633.26	1153.12
633.60	1145.67
633.95	1138.58
634.29	1131.43
634.64	1124.77
634.98	1117.44
635.32	1110.31
635.67	1103.74
636.01	1097.14
636.36	1090.36
636.70	1083.83
637.05	1077.31
637.39	1070.91
637.73	1064.36
638.08	1058.49
638.42	1052.53
638.77	1046.14
639.11	1039.62
639.45	1033.28
639.80	1026.63
640.14	1020.25
640.49	1013.83
640.83	1007.65
641.17	1001.41
641.52	995.13
641.86	988.58
642.20	982.64
642.55	976.34
642.89	969.85
643.23	963.27
643.58	957.48
643.92	951.27
644.26	945.10
644.61	938.99
644.95	933.00
645.29	926.43
645.64	919.59
645.98	913.31
646.32	907.43
646.66	901.36
647.01	895.56
647.35	889.89
647.69	883.98
648.04	878.34
648.38	872.51
648.72	866.51
649.06	860.50
649.41	854.60
649.75	848.61
650.09	842.71
650.43	836.91
650.78	830.66
651.12	824.66
651.46	818.97
651.80	813.27
652.14	807.89
652.49	802.55
652.83	797.38
653.17	791.67
653.51	785.97
653.85	780.55
654.20	774.87
654.54	768.71
654.88	762.95
655.22	757.04
655.56	751.33
655.90	745.80
656.25	740.48
656.59	735.10
656.93	729.99
657.27	724.74
657.61	719.22
657.95	714.20
658.29	709.15
658.64	703.85
658.98	698.53
659.32	693.02
659.66	687.77
660.00	682.52
660.34	677.53
660.68	672.64
661.02	667.65
661.36	662.93
661.70	658.49
662.05	654.10
662.39	649.75
662.73	645.27
663.07	640.93
663.41	636.46
663.75	631.95
664.09	627.39
664.43	623.02
664.77	618.96
665.11	614.67
665.45	610.50
665.79	606.43
666.13	602.29
666.47	598.21
666.81	594.03
667.15	589.93
667.49	586.06
667.83	582.25
668.17	578.31
668.51	574.20
668.85	570.11
669.19	566.25
669.53	562.44
669.87	558.61
670.21	554.89
670.55	551.27
670.89	547.88
671.23	544.45
671.57	540.95
671.91	537.37
672.25	533.84
672.58	530.31
672.92	526.87
673.26	523.70
673.60	520.52
673.94	517.43
674.28	514.56
674.62	511.57
674.96	508.43
675.30	505.51
675.64	502.57
675.97	499.82
676.31	497.00
676.65	494.12
676.99	491.40
677.33	488.55
677.67	485.81
678.01	482.77
678.34	479.86
678.68	476.97
679.02	474.18
679.36	471.47
679.70	468.82
680.04	466.08
680.37	463.23
680.71	460.44
681.05	457.85
681.39	455.09
681.73	452.41
682.06	449.89
682.40	447.30
682.74	444.81
683.08	442.25
683.42	439.65
683.75	437.18
684.09	434.60
684.43	432.16
684.77	429.67
685.10	427.31
685.44	424.93
685.78	422.65
686.12	420.40
686.45	418.07
686.79	415.75
687.13	413.60
687.46	411.39
687.80	409.21
688.14	406.91
688.48	404.83
688.81	402.65
689.15	400.46
689.49	398.30
689.82	396.18
690.16	394.07
690.50	392.10
690.83	390.05
691.17	388.08
691.51	386.12
691.84	384.27
692.18	382.33
692.52	380.39
692.85	378.43
693.19	376.53
693.52	374.71
693.86	372.89
694.20	371.05
694.53	369.29
694.87	367.42
695.21	365.65
695.54	363.81
695.88	362.03
696.21	360.31
696.55	358.68
696.88	357.00
697.22	355.39
697.56	353.76
697.89	352.16
698.23	350.56
698.56	348.99
698.90	347.38
699.23	345.76
699.57	344.16
699.90	342.64
700.24	341.08
700.58	339.56
700.91	338.04
701.25	336.62
701.58	335.19
701.92	333.85
702.25	332.48
702.59	331.12
702.92	329.85
703.26	328.52
703.59	327.24
703.93	326.10
704.26	324.87
704.60	323.57
704.93	322.31
705.26	321.03
705.60	319.82
705.93	318.63
706.27	317.53
706.60	316.48
706.94	315.39
707.27	314.27
707.61	313.21
707.94	312.17
708.27	311.05
708.61	310.03
708.94	309.05
709.28	308.06
709.61	307.07
709.94	306.11
710.28	305.14
710.61	304.16
710.95	303.06
711.28	302.11
711.61	301.19
711.95	300.27
712.28	299.32
712.61	298.33
712.95	297.40
713.28	296.56
713.61	295.65
713.95	294.78
714.28	293.95
714.61	293.08
714.95	292.25
715.28	291.41
715.61	290.49
715.95	289.61
716.28	288.76
716.61	287.95
716.95	287.11
717.28	286.37
717.61	285.56
717.94	284.81
718.28	283.98
718.61	283.28
718.94	282.57
719.27	281.89
719.61	281.27
719.94	280.62
720.27	279.89
720.60	279.24
720.94	278.60
721.27	278.00
721.60	277.43
721.93	276.81
722.27	276.25
722.60	275.73
722.93	275.19
723.26	274.67
723.59	274.12
723.93	273.57
724.26	272.98
724.59	272.42
724.92	271.90
725.25	271.44
725.59	270.85
725.92	270.37
726.25	269.87
726.58	269.37
726.91	268.84
727.24	268.40
727.57	267.90
727.91	267.40
728.24	266.91
728.57	266.39
728.90	265.94
729.23	265.43
729.56	264.97
729.89	264.52
730.22	264.01
730.55	263.54
730.89	263.09
731.22	262.67
731.55	262.26
731.88	261.82
732.21	261.34
732.54	260.93
732.87	260.48
733.20	260.08
733.53	259.68
733.86	259.34
734.19	258.91
734.52	258.57
734.85	258.23
735.18	257.82
735.51	257.46
735.84	257.08
736.17	256.76
736.50	256.39
736.83	256.11
737.16	255.79
737.49	255.43
737.82	255.12
738.15	254.79
738.48	254.43
738.81	254.12
739.14	253.84
739.47	253.52
739.80	253.18
740.13	252.89
740.46	252.55
740.79	252.19
741.12	251.87
741.45	251.54
741.78	251.20
742.11	250.94
742.44	250.63
742.77	250.32
743.10	250.01
743.43	249.70
743.75	249.32
744.08	249.11
744.41	248.85
744.74	248.55
745.07	248.23
745.40	248.02
745.73	247.78
746.06	247.50
746.39	247.24
746.71	246.99
747.04	246.72
747.37	246.45
747.70	246.23
748.03	245.97
748.36	245.76
748.68	245.52
749.01	245.25
749.34	245.02
749.67	244.81
750.00	244.59
750.33	244.42
750.65	244.20
750.98	243.90
751.31	243.69
751.64	243.45
751.97	243.25
752.29	243.02
752.62	242.78
752.95	242.58
753.28	242.39
753.60	242.18
753.93	241.98
754.26	241.83
754.59	241.62
754.91	241.43
755.24	241.20
755.57	241.00
755.90	240.83
756.22	240.62
756.55	240.42
756.88	240.18
757.20	239.97
757.53	239.78
757.86	239.62
758.19	239.47
758.51	239.33
758.84	239.17
759.17	238.97
759.49	238.80
759.82	238.67
760.15	238.55
760.47	238.40
760.80	238.24
761.13	238.11
761.45	237.99
761.78	237.87
762.11	237.73
762.43	237.62
762.76	237.48
763.08	237.36
763.41	237.24
763.74	237.17
764.06	237.05
764.39	236.92
764.71	236.78
765.04	236.63
765.37	236.49
765.69	236.40
766.02	236.31
766.34	236.20
766.67	236.01
767.00	235.86
767.32	235.80
767.65	235.73
767.97	235.62
768.30	235.49
768.62	235.37
768.95	235.27
769.27	235.17
769.60	235.08
769.92	234.98
770.25	234.89
770.57	234.76
770.90	234.64
771.22	234.52
771.55	234.42
771.87	234.34
772.20	234.22
772.52	234.17
772.85	234.17
773.17	234.04
773.50	233.94
773.82	233.85
774.15	233.72
774.47	233.59
774.80	233.52
775.12	233.41
775.45	233.33
775.77	233.24
776.09	233.13
776.42	233.04
776.74	232.98
777.07	232.85
777.39	232.77
777.72	232.68
778.04	232.65
778.36	232.59
778.69	232.49
779.01	232.45
779.33	232.28
779.66	232.10
779.98	232.06
780.31	232.02
780.63	232.00
780.95	231.95
781.28	231.84
781.60	231.74
781.92	231.67
782.25	231.61
782.57	231.56
782.89	231.50
783.22	231.42
783.54	231.36
783.86	231.36
784.19	231.28
784.51	231.24
784.83	231.19
785.16	231.12
785.48	231.10
785.80	231.03
786.12	231.00
786.45	230.98
786.77	230.92
787.09	230.87
787.42	230.78
787.74	230.71
788.06	230.74
788.38	230.72
788.71	230.67
789.03	230.64
789.35	230.61
789.67	230.57
789.99	230.56
790.32	230.50
790.64	230.45
790.96	230.53
791.28	230.48
791.61	230.43
791.93	230.39
792.25	230.37
792.57	230.43
792.89	230.39
793.21	230.34
793.54	230.29
793.86	230.23
794.18	230.23
794.50	230.20
794.82	230.15
795.14	230.15
795.47	230.14
795.79	230.11
796.11	230.02
796.43	230.03
796.75	230.01
797.07	229.98
797.39	229.95
797.71	229.84
798.04	229.81
798.36	229.80
798.68	229.78
799.00	229.72
799.32	229.63
799.64	229.64
799.96	229.65
800.28	229.65
800.60	229.65
800.92	229.62
801.24	229.58
801.56	229.53
801.89	229.48
802.21	229.47
802.53	229.46
802.85	229.47
803.17	229.43
803.49	229.38
803.81	229.35
804.13	229.33
804.45	229.30
804.77	229.30
805.09	229.24
805.41	229.20
805.73	229.19
806.05	229.12
806.37	229.06
806.69	228.97
807.01	228.93
807.33	228.94
807.65	228.88
807.97	228.90
808.28	228.87
808.60	228.83
808.92	228.75
809.24	228.76
809.56	228.71
809.88	228.68
810.20	228.65
810.52	228.62
810.84	228.54
811.16	228.47
811.48	228.43
811.80	228.43
812.12	228.39
812.43	228.37
812.75	228.36
813.07	228.32
813.39	228.33
813.71	228.28
814.03	228.22
814.35	228.18
814.67	228.13
814.98	228.08
815.30	228.05
815.62	228.02
815.94	227.95
816.26	227.96
816.58	227.91
816.89	227.90
817.21	227.88
817.53	227.88
817.85	227.89
818.17	227.84
818.48	227.80
818.80	227.79
819.12	227.73
819.44	227.68
819.76	227.66
820.07	227.63
820.39	227.62
820.71	227.59
821.03	227.58
821.34	227.55
821.66	227.57
821.98	227.53
822.30	227.52
822.61	227.53
822.93	227.47
823.25	227.46
823.57	227.42
823.88	227.41
824.20	227.40
824.52	227.40
824.83	227.40
825.15	227.38
825.47	227.35
825.79	227.37
826.10	227.37
826.42	227.35
826.74	227.36
827.05	227.36
827.37	227.35
827.69	227.36
828.00	227.34
828.32	227.31
828.64	227.34
828.95	227.41
829.27	227.36
829.58	227.33
829.90	227.34
830.22	227.37
830.53	227.33
830.85	227.32
831.17	227.26
831.48	227.25
831.80	227.23
832.11	227.25
832.43	227.24
832.75	227.26
833.06	227.32
833.38	227.28
833.69	227.25
834.01	227.24
834.32	227.24
834.64	227.24
834.96	227.20
835.27	227.21
835.59	227.15
835.90	227.14
836.22	227.18
836.53	227.15
836.85	227.15
837.16	227.27
837.48	227.27
837.79	227.30
838.11	227.31
838.42	227.32
838.74	227.34
839.05	227.31
839.37	227.27
839.68	227.21
840.00	227.19
840.31	227.22
840.63	227.22
840.94	227.16
841.26	227.15
841.57	227.16
841.88	227.13
842.20	227.12
842.51	227.08
842.83	227.06
843.14	227.13
843.46	227.05
843.77	226.97
844.08	226.96
844.40	226.95
844.71	226.91
845.03	226.90
845.34	226.86
845.65	226.86
845.97	226.87
846.28	226.86
846.60	226.87
846.91	226.84
847.22	226.82
847.54	226.86
847.85	226.85
848.16	226.83
848.48	226.80
848.79	226.82
849.10	226.84
849.42	226.83
849.73	226.76
850.04	226.81
850.36	226.75
850.67	226.76
850.98	226.73
851.30	226.74
851.61	226.72
851.92	226.69
852.23	226.71
852.55	226.68
852.86	226.66
853.17	226.65
853.49	226.64
853.80	226.65
854.11	226.63
854.42	226.66
854.74	226.63
855.05	226.64
855.36	226.58
855.67	226.60
855.99	226.57
856.30	226.66
856.61	226.65
856.92	226.66
857.23	226.64
857.55	226.61
857.86	226.58
858.17	226.58
858.48	226.57
858.79	226.55
859.11	226.57
859.42	226.58
859.73	226.57
860.04	226.60
860.35	226.57
860.66	226.57
860.98	226.55
861.29	226.57
861.60	226.58
861.91	226.60
862.22	226.59
862.53	226.58
862.84	226.46
863.16	226.47
863.47	226.45
863.78	226.44
864.09	226.49
864.40	226.50
864.71	226.51
865.02	226.52
865.33	226.50
865.64	226.49
865.95	226.53
866.27	226.60
866.58	226.58
866.89	226.60
867.20	226.61
867.51	226.59
867.82	226.58
868.13	226.61
868.44	226.61
868.75	226.62
869.06	226.65
869.37	226.66
869.68	226.64
869.99	226.67
870.30	226.69
870.61	226.67
870.92	226.65
871.23	226.66
871.54	226.67
871.85	226.71
872.16	226.72
872.47	226.71
872.78	226.66
873.09	226.68
873.40	226.67
873.71	226.68
874.02	226.71
874.33	226.72
874.64	226.71
874.95	226.71
875.26	226.69
875.56	226.70
875.87	226.70
876.18	226.70
876.49	226.81
876.80	226.80
877.11	226.80
877.42	226.82
877.73	226.84
878.04	226.83
878.35	226.81
878.66	226.80
878.96	226.79
879.27	226.77
879.58	226.74
879.89	226.72
880.20	226.71
880.51	226.69
880.82	226.67
881.12	226.63
881.43	226.61
881.74	226.57
882.05	226.54
882.36	226.53
882.67	226.52
882.97	226.38
883.28	226.37
883.59	226.37
883.90	226.40
884.21	226.37
884.51	226.37
884.82	226.34
885.13	226.34
885.44	226.32
885.74	226.33
886.05	226.33
886.36	226.31
886.67	226.24
886.98	226.25
887.28	226.27
887.59	226.26
887.90	226.22
888.20	226.22
888.51	226.23
888.82	226.20
889.13	226.19
889.43	226.28
889.74	226.25
890.05	226.21
890.35	226.19
890.66	226.15
890.97	226.15
891.28	226.13
891.58	226.10
891.89	226.07
892.20	226.01
892.50	226.00
892.81	226.01
893.12	226.03
893.42	226.03
893.73	226.03
894.04	226.05
894.34	226.10
894.65	226.08
894.95	226.03
895.26	226.04
895.57	226.10
895.87	225.99
896.18	226.02
896.48	226.03
896.79	226.03
897.10	226.06
897.40	226.05
897.71	226.07
898.01	226.05
898.32	226.08
898.63	226.05
898.93	226.05
899.24	226.02
899.54	226.01
899.85	225.95
900.15	225.92
900.46	225.89
900.76	225.87
901.07	225.89
901.38	225.95
901.68	225.97
901.99	225.91
902.29	225.93
902.60	225.89
902.90	225.85
903.21	225.82
903.51	225.82
903.82	225.83
904.12	225.81
904.43	225.84
904.73	225.85
905.03	225.91
905.34	226.00
905.64	226.04
905.95	226.08
906.25	226.11
906.56	226.12
906.86	226.15
907.17	226.14
907.47	226.14
907.77	226.11
908.08	226.11
908.38	226.13
908.69	226.17
908.99	226.19
909.30	226.25
909.60	226.26
909.90	226.26
910.21	226.24
910.51	226.25
910.81	226.25
911.12	226.26
911.42	226.26
911.73	226.12
912.03	226.12
912.33	226.13
912.64	226.12
912.94	226.11
913.24	226.11
913.55	226.11
913.85	226.12
914.15	226.16
914.46	226.13
914.76	226.11
915.06	226.10
915.37	226.08
915.67	226.04
915.97	226.02
916.27	226.01
916.58	226.01
916.88	226.02
917.18	226.01
917.49	226.06
917.79	226.08
918.09	226.13
918.39	226.16
918.70	226.15
919.00	226.16
919.30	226.20
919.60	226.16
919.91	226.13
920.21	226.12
920.51	226.10
920.81	226.12
921.12	226.13
921.42	226.11
921.72	226.13
922.02	226.17
922.32	226.21
922.63	226.21
922.93	226.26
923.23	226.24
923.53	226.23
923.83	226.17
924.13	226.17
924.44	226.17
924.74	226.16
925.04	226.21
925.34	226.19
925.64	226.16
925.94	226.19
926.24	226.24
926.55	226.26
926.85	226.27
927.15	226.27
927.45	226.27
927.75	226.29
928.05	226.29
928.35	226.29
928.65	226.28
928.95	226.28
929.26	226.25
929.56	226.28
929.86	226.30
930.16	226.31
930.46	226.30
930.76	226.29
931.06	226.26
931.36	226.23
931.66	226.29
931.96	226.30
932.26	226.28
932.56	226.28
932.86	226.24
933.16	226.25
933.46	226.23
933.76	226.21
934.06	226.21
934.36	226.22
934.66	226.18
934.96	226.20
935.26	226.21
935.56	226.24
935.86	226.21
936.16	226.19
936.46	226.14
936.76	226.11
937.06	226.10
937.36	226.11
937.66	226.09
937.96	226.05
938.26	226.03
938.56	226.04
938.86	226.01
939.16	226.05
939.46	226.04
939.76	226.05
940.06	226.06
940.35	226.06
940.65	226.00
940.95	226.02
941.25	226.00
941.55	225.98
941.85	225.99
942.15	226.01
942.45	226.03
942.75	226.09
943.04	226.13
943.34	226.15
943.64	226.14
943.94	226.13
944.24	226.12
944.54	226.10
944.84	226.10
945.13	226.09
945.43	226.11
945.73	226.11
946.03	226.11
946.33	226.11
946.62	226.08
946.92	226.10
947.22	226.10
947.52	226.09
947.82	226.11
948.11	226.08
948.41	226.07
948.71	226.10
949.01	226.05
949.31	226.05
949.60	226.03
949.90	226.05
950.20	226.03
950.50	226.05
950.79	226.09
951.09	226.11
951.39	226.13
951.69	226.10
951.98	226.11
952.28	226.12
952.58	226.12
952.87	226.12
953.17	226.13
953.47	226.12
953.76	226.12
954.06	226.09
954.36	226.06
954.66	226.06
954.95	226.04
955.25	226.06
955.55	226.04
955.84	226.05
956.14	226.06
956.44	226.09
956.73	226.06
957.03	226.02
957.32	225.98
957.62	226.00
957.92	226.02
958.21	226.00
958.51	226.11
958.81	226.12
959.10	226.12
959.40	226.17
959.69	226.19
959.99	226.22
960.29	226.23
960.58	226.22
960.88	226.25
961.17	226.21
961.47	226.23
961.76	226.25
962.06	226.27
962.36	226.25
962.65	226.26
962.95	226.28
963.24	226.27
963.54	226.29
963.83	226.30
964.13	226.27
964.42	226.27
964.72	226.18
965.01	226.19
965.31	226.19
965.60	226.16
965.90	226.25
966.19	226.22
966.49	226.21
966.78	226.23
967.08	226.23
967.37	226.27
967.67	226.25
967.96	226.24
968.26	226.25
968.55	226.25
968.85	226.24
969.14	226.24
969.43	226.23
969.73	226.24
970.02	226.20
970.32	226.20
970.61	226.20
970.91	226.17
971.20	226.13
971.49	226.11
971.79	226.13
972.08	226.01
972.38	226.02
972.67	226.00
972.96	225.99
973.26	225.95
973.55	225.99
973.85	225.95
974.14	225.98
974.43	225.96
974.73	225.95
975.02	225.96
975.31	225.97
975.61	225.98
975.90	225.95
976.19	225.94
976.49	225.97
976.78	225.97
977.07	225.98
977.37	226.00
977.66	226.02
977.95	225.98
978.24	225.98
978.54	226.00
978.83	226.02
979.12	226.02
979.42	226.03
979.71	225.99
980.00	226.01
980.29	225.99
980.59	225.97
980.88	225.98
981.17	225.96
981.46	225.95
981.76	225.95
982.05	226.01
982.34	226.01
982.63	225.97
982.93	225.99
983.22	226.02
983.51	226.02
983.80	226.03
984.09	226.04
984.39	226.04
984.68	226.02
984.97	226.02
985.26	226.01
985.55	226.03
985.85	226.04
986.14	226.06
986.43	226.07
986.72	226.07
987.01	226.05
987.30	226.04
987.59	226.01
987.89	226.00
988.18	225.98
988.47	225.99
988.76	225.99
989.05	225.97
989.34	225.96
989.63	225.96
989.92	225.95
990.22	225.94
990.51	225.96
990.80	225.95
991.09	225.99
991.38	225.99
991.67	225.97
991.96	225.91
992.25	225.90
992.54	225.88
992.83	225.88
993.12	225.85
993.41	225.87
993.70	225.93
993.99	225.97
994.28	225.97
994.58	225.97
994.87	225.94
995.16	225.94
995.45	225.93
995.74	225.93
996.03	225.89
996.32	225.91
996.61	225.95
996.90	225.95
997.19	225.92
997.48	225.92
997.77	225.93
998.06	225.96
998.34	225.97
998.63	225.96
998.92	225.96
999.21	225.98
999.50	225.98
999.79	225.96
1000.08	225.94
1000.37	225.95
1000.66	225.94
1000.95	225.99
1001.24	225.99
1001.53	226.05
1001.82	226.04
1002.11	226.06
1002.40	226.07
1002.68	226.06
1002.97	226.13
1003.26	226.14
1003.55	226.14
1003.84	226.14
1004.13	226.18
1004.42	226.17
1004.71	226.20
1004.99	226.20
1005.28	226.26
1005.57	226.24
1005.86	226.24
1006.15	226.23
1006.44	226.23
1006.72	226.27
1007.01	226.25
1007.30	226.24
1007.59	226.20
1007.88	226.19
1008.17	226.20
1008.45	226.21
1008.74	226.18
1009.03	226.15
1009.32	226.13
1009.60	226.16
1009.89	226.12
1010.18	226.09
1010.47	226.07
1010.76	226.04
1011.04	226.02
1011.33	226.02
1011.62	226.03
1011.91	226.03
1012.19	226.06
1012.48	226.05
1012.77	226.01
1013.05	226.05
1013.34	226.07
1013.63	226.07
1013.92	226.08
1014.20	226.08
1014.49	226.07
1014.78	226.06
1015.06	226.02
1015.35	226.05
1015.64	226.03
1015.92	226.06
1016.21	226.05
1016.50	226.05
1016.78	226.06
1017.07	226.08
1017.36	226.06
1017.64	226.06
1017.93	226.07
1018.22	226.05
1018.50	226.03
1018.79	226.06
1019.08	226.02
1019.36	226.01
1019.65	226.00
1019.93	226.00
1020.22	226.04
1020.51	226.05
1020.79	226.04
1021.08	225.92
1021.36	225.89
1021.65	226.22
1021.94	226.10
1022.22	225.98
1022.51	226.05
1022.79	226.08
1023.08	226.59
1023.36	226.62
1023.65	225.38
>>>>>End Processed Spectral Data<<<<<
