SpectraSuite Data File
++++++++++++++++++++++++++++++++++++
Date: Fri Feb 01 15:13:38 EST 2013
User: group
Dark Spectrum Present: No
Reference Spectrum Present: No
Number of Sampled Component Spectra: 1
Spectrometers: USB2E7196
Integration Time (usec): 35000 (USB2E7196)
Spectra Averaged: 100 (USB2E7196)
Boxcar Smoothing: 10 (USB2E7196)
Correct for Electrical Dark: No (USB2E7196)
Strobe/Lamp Enabled: No (USB2E7196)
Correct for Detector Non-linearity: No (USB2E7196)
Correct for Stray Light: No (USB2E7196)
Number of Pixels in Processed Spectrum: 2048
>>>>>Begin Processed Spectral Data<<<<<
339.09	0.00
339.48	215.05
339.86	217.18
340.24	218.59
340.63	219.44
341.01	222.09
341.39	222.06
341.78	223.49
342.16	224.35
342.54	224.84
342.93	213.60
343.31	224.38
343.69	224.97
344.07	225.42
344.46	225.85
344.84	226.22
345.22	226.47
345.60	226.74
345.99	226.90
346.37	227.04
346.75	227.18
347.13	227.25
347.52	227.29
347.90	227.36
348.28	227.37
348.66	227.43
349.05	227.40
349.43	227.42
349.81	227.42
350.19	227.44
350.57	227.49
350.96	227.58
351.34	227.65
351.72	227.70
352.10	227.81
352.48	227.83
352.87	227.90
353.25	227.97
353.63	228.01
354.01	228.11
354.39	228.19
354.77	228.25
355.15	228.35
355.54	228.41
355.92	228.45
356.30	228.55
356.68	228.65
357.06	228.73
357.44	228.81
357.82	228.89
358.20	228.99
358.58	229.03
358.97	229.08
359.35	229.17
359.73	229.24
360.11	229.26
360.49	229.31
360.87	229.35
361.25	229.37
361.63	229.47
362.01	229.52
362.39	229.54
362.77	229.56
363.15	229.60
363.53	229.64
363.91	229.67
364.29	229.69
364.67	229.62
365.05	229.63
365.43	229.66
365.81	229.66
366.19	229.69
366.57	229.74
366.95	229.71
367.33	229.70
367.71	229.67
368.09	229.67
368.47	229.67
368.85	229.66
369.23	229.68
369.61	229.60
369.99	229.56
370.37	229.55
370.75	229.55
371.13	229.49
371.51	229.43
371.89	229.38
372.27	229.31
372.65	229.25
373.03	229.20
373.41	229.11
373.78	229.03
374.16	228.92
374.54	228.82
374.92	228.75
375.30	228.67
375.68	228.57
376.06	228.51
376.44	228.42
376.82	228.36
377.19	228.26
377.57	228.18
377.95	228.05
378.33	227.96
378.71	227.87
379.09	227.76
379.47	227.70
379.84	227.60
380.22	227.54
380.60	227.46
380.98	227.40
381.36	227.33
381.73	227.27
382.11	227.22
382.49	227.16
382.87	227.09
383.25	227.00
383.62	227.07
384.00	227.00
384.38	226.92
384.76	226.86
385.13	226.86
385.51	226.80
385.89	226.78
386.27	226.74
386.64	226.68
387.02	226.68
387.40	226.61
387.78	226.55
388.15	226.52
388.53	226.48
388.91	226.43
389.29	226.42
389.66	226.40
390.04	226.36
390.42	226.37
390.79	226.39
391.17	226.40
391.55	226.27
391.92	226.28
392.30	226.30
392.68	226.29
393.05	226.27
393.43	226.29
393.81	226.30
394.18	226.29
394.56	226.31
394.94	226.36
395.31	226.41
395.69	226.53
396.06	226.55
396.44	226.61
396.82	226.65
397.19	226.71
397.57	226.77
397.95	226.83
398.32	226.87
398.70	226.92
399.07	227.02
399.45	227.07
399.82	227.16
400.20	227.25
400.58	227.31
400.95	227.37
401.33	227.47
401.70	227.64
402.08	227.76
402.45	227.86
402.83	228.02
403.20	228.13
403.58	228.20
403.95	228.34
404.33	228.49
404.71	228.63
405.08	228.83
405.46	228.95
405.83	229.13
406.21	229.30
406.58	229.50
406.96	229.64
407.33	229.88
407.70	230.07
408.08	230.36
408.45	230.62
408.83	230.87
409.20	231.10
409.58	231.29
409.95	231.56
410.33	231.86
410.70	232.08
411.08	232.41
411.45	232.75
411.82	233.09
412.20	233.40
412.57	233.83
412.95	234.13
413.32	234.57
413.69	234.98
414.07	235.37
414.44	235.81
414.82	236.33
415.19	236.83
415.56	237.38
415.94	237.90
416.31	238.52
416.68	239.15
417.06	239.88
417.43	240.53
417.81	241.27
418.18	242.02
418.55	242.86
418.93	243.73
419.30	244.61
419.67	245.52
420.04	246.51
420.42	247.48
420.79	248.66
421.16	249.79
421.54	250.98
421.91	252.18
422.28	253.44
422.66	254.73
423.03	256.03
423.40	257.32
423.77	258.70
424.15	260.10
424.52	261.55
424.89	263.10
425.26	264.68
425.64	266.14
426.01	267.73
426.38	269.34
426.75	270.98
427.13	272.70
427.50	274.47
427.87	276.35
428.24	278.21
428.61	279.97
428.99	281.88
429.36	283.92
429.73	286.03
430.10	288.06
430.47	290.13
430.85	292.27
431.22	294.50
431.59	296.91
431.96	299.19
432.33	301.71
432.70	304.12
433.08	306.96
433.45	309.59
433.82	312.23
434.19	315.12
434.56	317.98
434.93	320.62
435.30	323.27
435.68	326.16
436.05	329.02
436.42	331.78
436.79	334.31
437.16	337.06
437.53	339.87
437.90	342.68
438.27	345.43
438.64	348.21
439.01	350.79
439.38	353.06
439.75	355.21
440.13	357.68
440.50	360.05
440.87	361.88
441.24	363.85
441.61	366.00
441.98	367.48
442.35	369.25
442.72	371.12
443.09	372.97
443.46	373.99
443.83	374.58
444.20	375.13
444.57	375.97
444.94	376.29
445.31	376.64
445.68	377.02
446.05	377.10
446.42	376.76
446.79	376.38
447.16	375.93
447.53	375.64
447.90	374.46
448.27	373.25
448.64	371.68
449.01	370.52
449.37	368.58
449.74	366.69
450.11	364.42
450.48	361.93
450.85	359.36
451.22	357.22
451.59	355.22
451.96	353.27
452.33	350.65
452.70	348.26
453.07	345.41
453.43	342.48
453.80	339.69
454.17	337.02
454.54	334.48
454.91	331.71
455.28	329.02
455.65	326.56
456.02	324.11
456.38	321.93
456.75	319.26
457.12	316.96
457.49	314.76
457.86	312.61
458.23	310.76
458.59	308.71
458.96	306.59
459.33	304.69
459.70	302.82
460.07	301.32
460.43	299.57
460.80	297.96
461.17	296.51
461.54	295.04
461.91	293.63
462.27	292.17
462.64	290.94
463.01	289.55
463.38	288.24
463.74	286.87
464.11	285.74
464.48	284.73
464.85	283.63
465.21	282.74
465.58	281.79
465.95	280.71
466.32	279.80
466.68	278.91
467.05	277.99
467.42	277.08
467.78	276.16
468.15	275.31
468.52	274.58
468.88	273.71
469.25	272.93
469.62	272.29
469.98	271.61
470.35	270.99
470.72	270.41
471.08	269.73
471.45	269.18
471.82	268.61
472.18	267.97
472.55	267.56
472.92	267.04
473.28	266.59
473.65	266.11
474.02	265.67
474.38	265.31
474.75	264.97
475.11	264.62
475.48	264.32
475.85	264.08
476.21	263.88
476.58	263.68
476.94	263.51
477.31	263.31
477.67	263.16
478.04	263.04
478.41	262.99
478.77	263.06
479.14	262.98
479.50	262.96
479.87	263.05
480.23	263.10
480.60	263.13
480.96	263.22
481.33	263.42
481.69	263.60
482.06	263.79
482.42	264.01
482.79	264.29
483.15	264.61
483.52	264.98
483.88	265.31
484.25	265.73
484.61	266.16
484.98	266.62
485.34	267.16
485.71	267.71
486.07	268.25
486.44	268.81
486.80	269.55
487.17	270.28
487.53	271.09
487.90	271.93
488.26	272.87
488.62	273.86
488.99	274.87
489.35	275.89
489.72	276.99
490.08	278.17
490.44	279.40
490.81	280.70
491.17	282.03
491.54	283.49
491.90	285.00
492.26	286.61
492.63	288.34
492.99	290.11
493.36	291.99
493.72	294.05
494.08	296.12
494.45	298.35
494.81	300.76
495.17	303.17
495.54	305.72
495.90	308.37
496.26	311.15
496.63	314.06
496.99	317.15
497.35	320.40
497.72	323.80
498.08	327.30
498.44	331.02
498.80	334.96
499.17	339.02
499.53	343.16
499.89	347.58
500.26	352.06
500.62	356.73
500.98	361.69
501.34	366.77
501.71	372.13
502.07	377.56
502.43	383.15
502.79	388.94
503.16	395.01
503.52	401.31
503.88	407.73
504.24	414.39
504.60	421.30
504.97	428.46
505.33	435.75
505.69	443.51
506.05	451.23
506.41	459.09
506.78	467.18
507.14	475.65
507.50	484.37
507.86	493.42
508.22	502.61
508.59	511.86
508.95	521.48
509.31	531.30
509.67	541.37
510.03	551.67
510.39	562.28
510.75	573.07
511.12	584.03
511.48	595.31
511.84	606.73
512.20	618.27
512.56	630.21
512.92	642.38
513.28	654.65
513.64	667.17
514.00	679.95
514.37	692.95
514.73	705.97
515.09	719.01
515.45	732.30
515.81	745.91
516.17	759.91
516.53	774.06
516.89	788.20
517.25	802.41
517.61	816.87
517.97	831.26
518.33	845.76
518.69	860.51
519.05	875.50
519.41	890.73
519.77	906.30
520.13	921.76
520.49	937.19
520.85	952.74
521.21	968.50
521.57	984.81
521.93	1000.61
522.29	1017.14
522.65	1033.39
523.01	1049.63
523.37	1065.63
523.73	1081.78
524.09	1097.87
524.45	1114.20
524.81	1130.91
525.17	1147.76
525.53	1164.82
525.89	1181.69
526.25	1198.59
526.61	1215.14
526.97	1231.86
527.33	1248.34
527.68	1265.03
528.04	1281.60
528.40	1298.27
528.76	1315.34
529.12	1331.98
529.48	1348.99
529.84	1364.98
530.20	1381.72
530.56	1398.94
530.91	1416.37
531.27	1433.25
531.63	1449.94
531.99	1466.68
532.35	1482.65
532.71	1498.57
533.07	1514.77
533.42	1530.70
533.78	1546.80
534.14	1563.06
534.50	1578.46
534.86	1594.47
535.21	1609.67
535.57	1625.65
535.93	1641.23
536.29	1656.14
536.65	1671.26
537.00	1686.06
537.36	1701.48
537.72	1716.18
538.08	1730.59
538.44	1744.64
538.79	1758.60
539.15	1772.16
539.51	1786.04
539.87	1800.46
540.22	1814.35
540.58	1828.24
540.94	1841.77
541.29	1854.78
541.65	1867.59
542.01	1880.93
542.37	1893.23
542.72	1905.80
543.08	1917.61
543.44	1929.93
543.79	1941.17
544.15	1952.16
544.51	1963.75
544.87	1974.76
545.22	1985.50
545.58	1995.69
545.94	2005.46
546.29	2015.41
546.65	2025.20
547.01	2034.39
547.36	2043.33
547.72	2051.58
548.07	2059.46
548.43	2067.65
548.79	2075.71
549.14	2083.15
549.50	2090.62
549.86	2098.41
550.21	2105.58
550.57	2112.80
550.92	2119.47
551.28	2126.56
551.64	2133.62
551.99	2140.12
552.35	2146.34
552.70	2152.51
553.06	2158.47
553.41	2164.81
553.77	2170.75
554.13	2176.96
554.48	2183.11
554.84	2188.38
555.19	2193.90
555.55	2199.03
555.90	2203.48
556.26	2208.27
556.61	2213.07
556.97	2217.18
557.32	2221.34
557.68	2225.61
558.03	2229.94
558.39	2233.66
558.74	2238.25
559.10	2242.11
559.45	2245.93
559.81	2250.32
560.16	2254.15
560.52	2257.46
560.87	2260.92
561.23	2263.68
561.58	2266.64
561.94	2269.13
562.29	2271.76
562.64	2274.50
563.00	2277.16
563.35	2280.74
563.71	2283.83
564.06	2286.96
564.42	2289.81
564.77	2292.26
565.12	2294.40
565.48	2296.26
565.83	2298.01
566.19	2299.35
566.54	2300.36
566.89	2301.33
567.25	2301.71
567.60	2303.00
567.96	2304.59
568.31	2305.31
568.66	2306.31
569.02	2306.75
569.37	2307.05
569.72	2307.57
570.08	2307.52
570.43	2307.50
570.78	2306.57
571.14	2304.97
571.49	2303.65
571.84	2303.31
572.20	2302.03
572.55	2300.99
572.90	2299.26
573.26	2297.77
573.61	2295.89
573.96	2293.88
574.31	2290.79
574.67	2287.64
575.02	2283.72
575.37	2280.24
575.72	2276.21
576.08	2272.73
576.43	2269.33
576.78	2265.56
577.13	2262.37
577.49	2259.28
577.84	2255.54
578.19	2251.92
578.54	2248.17
578.90	2243.84
579.25	2238.18
579.60	2233.10
579.95	2227.81
580.30	2222.74
580.66	2217.44
581.01	2212.37
581.36	2207.35
581.71	2203.19
582.06	2198.65
582.42	2194.19
582.77	2188.76
583.12	2184.09
583.47	2179.23
583.82	2173.98
584.17	2168.59
584.53	2162.98
584.88	2157.20
585.23	2151.27
585.58	2145.53
585.93	2140.13
586.28	2135.26
586.63	2130.09
586.98	2124.90
587.34	2120.27
587.69	2115.25
588.04	2109.96
588.39	2104.28
588.74	2097.79
589.09	2091.42
589.44	2084.51
589.79	2078.45
590.14	2072.77
590.49	2066.24
590.84	2059.80
591.19	2053.78
591.54	2047.22
591.89	2039.59
592.25	2032.66
592.60	2025.48
592.95	2017.77
593.30	2010.23
593.65	2002.49
594.00	1995.36
594.35	1988.16
594.70	1979.99
595.05	1972.72
595.40	1965.37
595.75	1957.78
596.10	1951.33
596.45	1944.51
596.80	1938.36
597.15	1931.71
597.50	1924.45
597.85	1917.90
598.19	1911.15
598.54	1903.98
598.89	1897.29
599.24	1891.46
599.59	1884.62
599.94	1878.34
600.29	1872.10
600.64	1865.56
600.99	1858.04
601.34	1851.14
601.69	1844.04
602.04	1837.11
602.39	1829.77
602.74	1822.90
603.08	1816.15
603.43	1809.47
603.78	1802.22
604.13	1794.97
604.48	1787.50
604.83	1780.72
605.18	1773.67
605.53	1765.63
605.87	1757.71
606.22	1750.43
606.57	1742.43
606.92	1735.19
607.27	1728.11
607.62	1721.07
607.96	1713.64
608.31	1707.05
608.66	1699.36
609.01	1691.77
609.36	1684.22
609.70	1676.06
610.05	1667.83
610.40	1660.11
610.75	1651.80
611.10	1644.20
611.44	1635.85
611.79	1627.93
612.14	1619.27
612.49	1610.26
612.83	1601.92
613.18	1593.74
613.53	1585.71
613.88	1577.26
614.22	1568.90
614.57	1560.26
614.92	1552.34
615.27	1544.72
615.61	1536.35
615.96	1528.41
616.31	1520.85
616.65	1513.45
617.00	1506.02
617.35	1498.55
617.70	1490.18
618.04	1481.64
618.39	1473.32
618.74	1465.68
619.08	1457.43
619.43	1449.87
619.78	1442.88
620.12	1435.65
620.47	1428.22
620.82	1420.08
621.16	1412.67
621.51	1405.15
621.85	1397.51
622.20	1389.01
622.55	1380.85
622.89	1373.12
623.24	1365.54
623.59	1358.18
623.93	1350.65
624.28	1343.33
624.62	1335.80
624.97	1328.61
625.32	1321.92
625.66	1314.90
626.01	1307.59
626.35	1300.00
626.70	1292.31
627.04	1284.56
627.39	1276.91
627.73	1269.44
628.08	1262.51
628.43	1255.09
628.77	1247.67
629.12	1240.14
629.46	1232.93
629.81	1225.39
630.15	1218.10
630.50	1210.65
630.84	1202.49
631.19	1194.72
631.53	1187.30
631.88	1179.77
632.22	1172.15
632.57	1164.83
632.91	1157.29
633.26	1150.05
633.60	1142.75
633.95	1135.71
634.29	1128.68
634.64	1121.91
634.98	1114.55
635.32	1107.43
635.67	1100.96
636.01	1094.35
636.36	1087.55
636.70	1081.18
637.05	1074.69
637.39	1068.21
637.73	1061.69
638.08	1055.82
638.42	1049.70
638.77	1043.23
639.11	1036.64
639.45	1030.34
639.80	1023.70
640.14	1017.26
640.49	1010.69
640.83	1004.40
641.17	998.04
641.52	991.78
641.86	985.54
642.20	979.74
642.55	973.42
642.89	966.87
643.23	960.41
643.58	954.60
643.92	948.26
644.26	942.18
644.61	936.32
644.95	930.28
645.29	923.67
645.64	916.93
645.98	910.65
646.32	904.79
646.66	898.81
647.01	893.02
647.35	887.38
647.69	881.59
648.04	876.14
648.38	870.33
648.72	864.26
649.06	858.12
649.41	852.23
649.75	846.24
650.09	840.36
650.43	834.57
650.78	828.46
651.12	822.55
651.46	816.88
651.80	811.01
652.14	805.61
652.49	800.30
652.83	795.23
653.17	789.44
653.51	783.68
653.85	778.32
654.20	772.72
654.54	766.77
654.88	761.08
655.22	755.21
655.56	749.63
655.90	744.22
656.25	738.94
656.59	733.62
656.93	728.58
657.27	723.41
657.61	717.95
657.95	712.84
658.29	707.71
658.64	702.43
658.98	697.16
659.32	691.70
659.66	686.45
660.00	681.12
660.34	676.25
660.68	671.43
661.02	666.40
661.36	661.71
661.70	657.12
662.05	652.71
662.39	648.35
662.73	643.93
663.07	639.57
663.41	635.19
663.75	630.64
664.09	626.01
664.43	621.62
664.77	617.50
665.11	613.27
665.45	609.23
665.79	605.14
666.13	601.04
666.47	597.03
666.81	592.82
667.15	588.71
667.49	584.87
667.83	581.05
668.17	577.06
668.51	572.93
668.85	569.01
669.19	565.24
669.53	561.37
669.87	557.46
670.21	553.79
670.55	550.16
670.89	546.80
671.23	543.42
671.57	539.94
671.91	536.47
672.25	533.03
672.58	529.51
672.92	526.19
673.26	523.05
673.60	519.89
673.94	516.89
674.28	514.01
674.62	511.10
674.96	507.95
675.30	505.05
675.64	502.17
675.97	499.35
676.31	496.42
676.65	493.59
676.99	490.96
677.33	488.12
677.67	485.31
678.01	482.23
678.34	479.27
678.68	476.44
679.02	473.67
679.36	470.91
679.70	468.24
680.04	465.45
680.37	462.56
680.71	459.79
681.05	457.15
681.39	454.46
681.73	451.74
682.06	449.25
682.40	446.71
682.74	444.17
683.08	441.72
683.42	439.18
683.75	436.67
684.09	434.07
684.43	431.63
684.77	429.15
685.10	426.87
685.44	424.61
685.78	422.30
686.12	420.08
686.45	417.77
686.79	415.46
687.13	413.30
687.46	411.17
687.80	409.09
688.14	406.91
688.48	404.85
688.81	402.64
689.15	400.52
689.49	398.45
689.82	396.41
690.16	394.27
690.50	392.33
690.83	390.39
691.17	388.44
691.51	386.59
691.84	384.75
692.18	382.78
692.52	380.80
692.85	378.89
693.19	376.99
693.52	375.22
693.86	373.45
694.20	371.63
694.53	369.87
694.87	368.02
695.21	366.24
695.54	364.39
695.88	362.67
696.21	360.96
696.55	359.23
696.88	357.55
697.22	355.96
697.56	354.34
697.89	352.66
698.23	351.06
698.56	349.42
698.90	347.85
699.23	346.22
699.57	344.71
699.90	343.21
700.24	341.66
700.58	340.09
700.91	338.60
701.25	337.19
701.58	335.80
701.92	334.44
702.25	333.08
702.59	331.77
702.92	330.48
703.26	329.21
703.59	327.97
703.93	326.79
704.26	325.54
704.60	324.24
704.93	322.97
705.26	321.69
705.60	320.50
705.93	319.37
706.27	318.38
706.60	317.26
706.94	316.18
707.27	315.04
707.61	314.00
707.94	312.95
708.27	311.87
708.61	310.79
708.94	309.77
709.28	308.80
709.61	307.85
709.94	306.89
710.28	305.82
710.61	304.83
710.95	303.77
711.28	302.84
711.61	301.91
711.95	301.01
712.28	300.08
712.61	299.12
712.95	298.16
713.28	297.26
713.61	296.38
713.95	295.44
714.28	294.63
714.61	293.75
714.95	292.93
715.28	292.09
715.61	291.19
715.95	290.34
716.28	289.50
716.61	288.61
716.95	287.83
717.28	287.16
717.61	286.39
717.94	285.65
718.28	284.83
718.61	284.10
718.94	283.42
719.27	282.77
719.61	282.12
719.94	281.49
720.27	280.76
720.60	280.11
720.94	279.57
721.27	278.99
721.60	278.41
721.93	277.79
722.27	277.23
722.60	276.70
722.93	276.09
723.26	275.54
723.59	275.01
723.93	274.47
724.26	273.92
724.59	273.35
724.92	272.82
725.25	272.33
725.59	271.80
725.92	271.32
726.25	270.82
726.58	270.35
726.91	269.85
727.24	269.37
727.57	268.91
727.91	268.37
728.24	267.89
728.57	267.42
728.90	266.96
729.23	266.43
729.56	266.02
729.89	265.58
730.22	265.08
730.55	264.60
730.89	264.11
731.22	263.60
731.55	263.18
731.88	262.78
732.21	262.34
732.54	261.94
732.87	261.52
733.20	261.12
733.53	260.69
733.86	260.30
734.19	259.96
734.52	259.55
734.85	259.23
735.18	258.77
735.51	258.41
735.84	258.05
736.17	257.74
736.50	257.33
736.83	257.14
737.16	256.82
737.49	256.50
737.82	256.15
738.15	255.85
738.48	255.53
738.81	255.17
739.14	254.86
739.47	254.48
739.80	254.14
740.13	253.80
740.46	253.49
740.79	253.16
741.12	252.81
741.45	252.52
741.78	252.16
742.11	251.89
742.44	251.56
742.77	251.26
743.10	250.92
743.43	250.64
743.75	250.21
744.08	250.07
744.41	249.80
744.74	249.55
745.07	249.27
745.40	249.02
745.73	248.79
746.06	248.51
746.39	248.27
746.71	248.01
747.04	247.71
747.37	247.47
747.70	247.22
748.03	246.95
748.36	246.74
748.68	246.52
749.01	246.28
749.34	246.08
749.67	245.88
750.00	245.69
750.33	245.53
750.65	245.32
750.98	244.98
751.31	244.76
751.64	244.53
751.97	244.35
752.29	244.13
752.62	243.89
752.95	243.69
753.28	243.48
753.60	243.29
753.93	243.16
754.26	242.93
754.59	242.72
754.91	242.54
755.24	242.34
755.57	242.15
755.90	241.97
756.22	241.76
756.55	241.57
756.88	241.34
757.20	241.08
757.53	240.90
757.86	240.72
758.19	240.58
758.51	240.42
758.84	240.22
759.17	240.03
759.49	239.91
759.82	239.82
760.15	239.70
760.47	239.55
760.80	239.40
761.13	239.31
761.45	239.15
761.78	239.02
762.11	238.88
762.43	238.73
762.76	238.58
763.08	238.46
763.41	238.33
763.74	238.22
764.06	238.10
764.39	237.97
764.71	237.88
765.04	237.71
765.37	237.60
765.69	237.48
766.02	237.39
766.34	237.25
766.67	237.09
767.00	236.95
767.32	236.88
767.65	236.84
767.97	236.73
768.30	236.62
768.62	236.50
768.95	236.37
769.27	236.25
769.60	236.14
769.92	236.02
770.25	235.89
770.57	235.79
770.90	235.70
771.22	235.60
771.55	235.47
771.87	235.37
772.20	235.27
772.52	235.26
772.85	235.28
773.17	235.18
773.50	235.05
773.82	234.97
774.15	234.83
774.47	234.65
774.80	234.50
775.12	234.45
775.45	234.37
775.77	234.31
776.09	234.26
776.42	234.21
776.74	234.18
777.07	234.11
777.39	234.04
777.72	233.96
778.04	233.91
778.36	233.80
778.69	233.75
779.01	233.67
779.33	233.48
779.66	233.30
779.98	233.24
780.31	233.19
780.63	233.16
780.95	233.13
781.28	233.07
781.60	233.03
781.92	232.94
782.25	232.92
782.57	232.84
782.89	232.76
783.22	232.69
783.54	232.59
783.86	232.55
784.19	232.47
784.51	232.44
784.83	232.39
785.16	232.38
785.48	232.33
785.80	232.28
786.12	232.25
786.45	232.18
786.77	232.13
787.09	232.08
787.42	231.96
787.74	231.91
788.06	231.90
788.38	231.86
788.71	231.81
789.03	231.71
789.35	231.67
789.67	231.63
789.99	231.61
790.32	231.54
790.64	231.50
790.96	231.51
791.28	231.44
791.61	231.34
791.93	231.27
792.25	231.26
792.57	231.29
792.89	231.22
793.21	231.21
793.54	231.18
793.86	231.18
794.18	231.17
794.50	231.09
794.82	231.05
795.14	231.01
795.47	230.98
795.79	230.97
796.11	230.95
796.43	230.90
796.75	230.82
797.07	230.80
797.39	230.75
797.71	230.69
798.04	230.66
798.36	230.65
798.68	230.65
799.00	230.60
799.32	230.53
799.64	230.54
799.96	230.49
800.28	230.48
800.60	230.44
800.92	230.42
801.24	230.41
801.56	230.40
801.89	230.36
802.21	230.32
802.53	230.28
802.85	230.27
803.17	230.27
803.49	230.26
803.81	230.25
804.13	230.22
804.45	230.19
804.77	230.18
805.09	230.14
805.41	230.10
805.73	230.07
806.05	230.00
806.37	229.98
806.69	229.98
807.01	229.93
807.33	229.90
807.65	229.83
807.97	229.85
808.28	229.79
808.60	229.76
808.92	229.71
809.24	229.73
809.56	229.70
809.88	229.64
810.20	229.61
810.52	229.57
810.84	229.56
811.16	229.50
811.48	229.48
811.80	229.48
812.12	229.42
812.43	229.41
812.75	229.41
813.07	229.41
813.39	229.37
813.71	229.32
814.03	229.29
814.35	229.31
814.67	229.23
814.98	229.20
815.30	229.19
815.62	229.15
815.94	229.07
816.26	229.08
816.58	229.09
816.89	229.07
817.21	229.05
817.53	229.01
817.85	229.01
818.17	228.96
818.48	228.93
818.80	228.96
819.12	228.94
819.44	228.88
819.76	228.82
820.07	228.80
820.39	228.81
820.71	228.78
821.03	228.74
821.34	228.75
821.66	228.73
821.98	228.74
822.30	228.74
822.61	228.79
822.93	228.71
823.25	228.64
823.57	228.63
823.88	228.64
824.20	228.63
824.52	228.59
824.83	228.57
825.15	228.55
825.47	228.51
825.79	228.48
826.10	228.49
826.42	228.48
826.74	228.48
827.05	228.42
827.37	228.41
827.69	228.38
828.00	228.35
828.32	228.36
828.64	228.31
828.95	228.38
829.27	228.31
829.58	228.29
829.90	228.32
830.22	228.30
830.53	228.26
830.85	228.22
831.17	228.23
831.48	228.23
831.80	228.23
832.11	228.22
832.43	228.20
832.75	228.20
833.06	228.25
833.38	228.21
833.69	228.20
834.01	228.21
834.32	228.24
834.64	228.24
834.96	228.21
835.27	228.20
835.59	228.15
835.90	228.13
836.22	228.14
836.53	228.10
836.85	228.09
837.16	228.18
837.48	228.20
837.79	228.20
838.11	228.16
838.42	228.16
838.74	228.16
839.05	228.15
839.37	228.14
839.68	228.10
840.00	228.06
840.31	228.09
840.63	228.03
840.94	228.01
841.26	228.01
841.57	228.01
841.88	228.03
842.20	227.99
842.51	227.99
842.83	227.99
843.14	228.07
843.46	228.08
843.77	228.00
844.08	228.00
844.40	227.98
844.71	228.00
845.03	228.00
845.34	228.00
845.65	228.02
845.97	228.00
846.28	227.98
846.60	228.01
846.91	228.00
847.22	228.00
847.54	228.00
847.85	227.96
848.16	227.92
848.48	227.91
848.79	227.96
849.10	227.96
849.42	227.96
849.73	227.87
850.04	227.86
850.36	227.84
850.67	227.83
850.98	227.79
851.30	227.78
851.61	227.76
851.92	227.72
852.23	227.71
852.55	227.71
852.86	227.72
853.17	227.72
853.49	227.71
853.80	227.71
854.11	227.71
854.42	227.77
854.74	227.77
855.05	227.76
855.36	227.69
855.67	227.68
855.99	227.65
856.30	227.73
856.61	227.71
856.92	227.71
857.23	227.70
857.55	227.72
857.86	227.71
858.17	227.72
858.48	227.71
858.79	227.70
859.11	227.71
859.42	227.66
859.73	227.64
860.04	227.65
860.35	227.65
860.66	227.59
860.98	227.56
861.29	227.56
861.60	227.56
861.91	227.58
862.22	227.59
862.53	227.56
862.84	227.45
863.16	227.48
863.47	227.45
863.78	227.46
864.09	227.46
864.40	227.47
864.71	227.46
865.02	227.49
865.33	227.50
865.64	227.48
865.95	227.46
866.27	227.54
866.58	227.52
866.89	227.56
867.20	227.59
867.51	227.59
867.82	227.57
868.13	227.59
868.44	227.57
868.75	227.60
869.06	227.63
869.37	227.67
869.68	227.64
869.99	227.68
870.30	227.67
870.61	227.70
870.92	227.67
871.23	227.67
871.54	227.67
871.85	227.68
872.16	227.67
872.47	227.68
872.78	227.65
873.09	227.69
873.40	227.65
873.71	227.67
874.02	227.68
874.33	227.67
874.64	227.67
874.95	227.72
875.26	227.69
875.56	227.71
875.87	227.69
876.18	227.70
876.49	227.79
876.80	227.81
877.11	227.79
877.42	227.81
877.73	227.84
878.04	227.83
878.35	227.85
878.66	227.86
878.96	227.89
879.27	227.86
879.58	227.83
879.89	227.78
880.20	227.78
880.51	227.75
880.82	227.77
881.12	227.80
881.43	227.75
881.74	227.75
882.05	227.70
882.36	227.73
882.67	227.72
882.97	227.58
883.28	227.55
883.59	227.54
883.90	227.54
884.21	227.51
884.51	227.50
884.82	227.42
885.13	227.42
885.44	227.39
885.74	227.37
886.05	227.38
886.36	227.39
886.67	227.35
886.98	227.42
887.28	227.41
887.59	227.37
887.90	227.38
888.20	227.35
888.51	227.37
888.82	227.32
889.13	227.33
889.43	227.42
889.74	227.40
890.05	227.39
890.35	227.39
890.66	227.36
890.97	227.34
891.28	227.36
891.58	227.37
891.89	227.36
892.20	227.36
892.50	227.35
892.81	227.35
893.12	227.36
893.42	227.29
893.73	227.31
894.04	227.32
894.34	227.30
894.65	227.31
894.95	227.29
895.26	227.30
895.57	227.32
895.87	227.24
896.18	227.24
896.48	227.28
896.79	227.28
897.10	227.29
897.40	227.30
897.71	227.30
898.01	227.28
898.32	227.29
898.63	227.29
898.93	227.28
899.24	227.30
899.54	227.27
899.85	227.27
900.15	227.26
900.46	227.23
900.76	227.25
901.07	227.24
901.38	227.24
901.68	227.31
901.99	227.27
902.29	227.31
902.60	227.30
902.90	227.25
903.21	227.24
903.51	227.24
903.82	227.26
904.12	227.31
904.43	227.36
904.73	227.37
905.03	227.40
905.34	227.51
905.64	227.50
905.95	227.54
906.25	227.54
906.56	227.53
906.86	227.55
907.17	227.57
907.47	227.62
907.77	227.63
908.08	227.58
908.38	227.59
908.69	227.58
908.99	227.61
909.30	227.64
909.60	227.64
909.90	227.69
910.21	227.65
910.51	227.65
910.81	227.62
911.12	227.64
911.42	227.66
911.73	227.56
912.03	227.56
912.33	227.57
912.64	227.56
912.94	227.58
913.24	227.57
913.55	227.57
913.85	227.57
914.15	227.61
914.46	227.60
914.76	227.58
915.06	227.58
915.37	227.58
915.67	227.53
915.97	227.53
916.27	227.53
916.58	227.55
916.88	227.55
917.18	227.53
917.49	227.58
917.79	227.54
918.09	227.56
918.39	227.60
918.70	227.58
919.00	227.61
919.30	227.67
919.60	227.66
919.91	227.59
920.21	227.57
920.51	227.56
920.81	227.56
921.12	227.57
921.42	227.56
921.72	227.57
922.02	227.61
922.32	227.60
922.63	227.57
922.93	227.60
923.23	227.56
923.53	227.53
923.83	227.45
924.13	227.45
924.44	227.42
924.74	227.41
925.04	227.43
925.34	227.38
925.64	227.33
925.94	227.30
926.24	227.36
926.55	227.34
926.85	227.30
927.15	227.30
927.45	227.27
927.75	227.26
928.05	227.22
928.35	227.18
928.65	227.19
928.95	227.17
929.26	227.09
929.56	227.12
929.86	227.13
930.16	227.14
930.46	227.12
930.76	227.11
931.06	227.06
931.36	227.03
931.66	227.03
931.96	227.00
932.26	227.00
932.56	226.95
932.86	226.93
933.16	226.94
933.46	226.89
933.76	226.85
934.06	226.85
934.36	226.87
934.66	226.90
934.96	226.86
935.26	226.87
935.56	226.92
935.86	226.87
936.16	226.85
936.46	226.82
936.76	226.82
937.06	226.79
937.36	226.80
937.66	226.81
937.96	226.81
938.26	226.81
938.56	226.80
938.86	226.82
939.16	226.85
939.46	226.85
939.76	226.88
940.06	226.91
940.35	226.91
940.65	226.87
940.95	226.83
941.25	226.84
941.55	226.81
941.85	226.79
942.15	226.79
942.45	226.82
942.75	226.82
943.04	226.83
943.34	226.87
943.64	226.88
943.94	226.87
944.24	226.86
944.54	226.86
944.84	226.88
945.13	226.87
945.43	226.88
945.73	226.91
946.03	226.93
946.33	226.92
946.62	226.91
946.92	226.94
947.22	226.98
947.52	226.99
947.82	227.04
948.11	227.06
948.41	227.07
948.71	227.06
949.01	227.06
949.31	227.07
949.60	227.08
949.90	227.09
950.20	227.11
950.50	227.13
950.79	227.14
951.09	227.14
951.39	227.16
951.69	227.14
951.98	227.15
952.28	227.16
952.58	227.15
952.87	227.16
953.17	227.14
953.47	227.14
953.76	227.14
954.06	227.09
954.36	227.07
954.66	227.07
954.95	227.12
955.25	227.14
955.55	227.13
955.84	227.09
956.14	227.09
956.44	227.11
956.73	227.07
957.03	227.07
957.32	227.06
957.62	227.01
957.92	227.00
958.21	226.97
958.51	227.06
958.81	227.06
959.10	227.08
959.40	227.10
959.69	227.08
959.99	227.08
960.29	227.08
960.58	227.07
960.88	227.10
961.17	227.06
961.47	227.06
961.76	227.06
962.06	227.08
962.36	227.09
962.65	227.06
962.95	227.08
963.24	227.07
963.54	227.09
963.83	227.14
964.13	227.15
964.42	227.09
964.72	227.02
965.01	227.06
965.31	227.04
965.60	227.03
965.90	227.10
966.19	227.08
966.49	227.11
966.78	227.12
967.08	227.09
967.37	227.09
967.67	227.09
967.96	227.05
968.26	227.04
968.55	226.99
968.85	226.98
969.14	226.93
969.43	226.94
969.73	226.90
970.02	226.89
970.32	226.89
970.61	226.91
970.91	226.86
971.20	226.82
971.49	226.81
971.79	226.83
972.08	226.75
972.38	226.75
972.67	226.76
972.96	226.75
973.26	226.72
973.55	226.74
973.85	226.69
974.14	226.73
974.43	226.75
974.73	226.77
975.02	226.75
975.31	226.79
975.61	226.78
975.90	226.77
976.19	226.77
976.49	226.79
976.78	226.80
977.07	226.81
977.37	226.84
977.66	226.86
977.95	226.86
978.24	226.88
978.54	226.94
978.83	226.91
979.12	226.92
979.42	226.93
979.71	226.91
980.00	226.95
980.29	226.95
980.59	226.90
980.88	226.94
981.17	226.98
981.46	226.99
981.76	226.98
982.05	227.02
982.34	227.05
982.63	227.06
982.93	227.06
983.22	227.07
983.51	227.10
983.80	227.09
984.09	227.09
984.39	227.05
984.68	227.03
984.97	227.05
985.26	227.06
985.55	227.09
985.85	227.10
986.14	227.10
986.43	227.11
986.72	227.13
987.01	227.08
987.30	227.07
987.59	227.05
987.89	227.06
988.18	227.05
988.47	227.01
988.76	226.96
989.05	226.97
989.34	226.95
989.63	226.95
989.92	226.97
990.22	226.95
990.51	226.96
990.80	226.97
991.09	226.96
991.38	226.96
991.67	226.96
991.96	226.93
992.25	226.96
992.54	226.94
992.83	226.95
993.12	226.97
993.41	226.96
993.70	226.99
993.99	227.00
994.28	226.97
994.58	227.00
994.87	227.01
995.16	226.99
995.45	226.98
995.74	226.92
996.03	226.96
996.32	226.99
996.61	227.01
996.90	227.01
997.19	227.01
997.48	227.00
997.77	227.00
998.06	227.01
998.34	227.02
998.63	227.02
998.92	227.04
999.21	227.08
999.50	227.07
999.79	227.07
1000.08	227.07
1000.37	227.12
1000.66	227.07
1000.95	227.09
1001.24	227.12
1001.53	227.13
1001.82	227.15
1002.11	227.14
1002.40	227.14
1002.68	227.17
1002.97	227.22
1003.26	227.19
1003.55	227.16
1003.84	227.15
1004.13	227.16
1004.42	227.14
1004.71	227.13
1004.99	227.09
1005.28	227.07
1005.57	227.08
1005.86	227.04
1006.15	227.05
1006.44	227.01
1006.72	227.04
1007.01	227.05
1007.30	227.02
1007.59	227.01
1007.88	227.02
1008.17	226.99
1008.45	226.97
1008.74	226.93
1009.03	226.88
1009.32	226.93
1009.60	226.92
1009.89	226.90
1010.18	226.87
1010.47	226.86
1010.76	226.87
1011.04	226.87
1011.33	226.89
1011.62	226.90
1011.91	226.95
1012.19	226.97
1012.48	227.00
1012.77	227.01
1013.05	227.05
1013.34	227.06
1013.63	227.09
1013.92	227.06
1014.20	227.05
1014.49	227.04
1014.78	227.04
1015.06	226.98
1015.35	226.95
1015.64	226.99
1015.92	227.02
1016.21	227.05
1016.50	227.02
1016.78	227.03
1017.07	227.07
1017.36	227.05
1017.64	227.03
1017.93	227.00
1018.22	227.00
1018.50	227.00
1018.79	226.96
1019.08	226.91
1019.36	226.92
1019.65	226.91
1019.93	226.95
1020.22	226.99
1020.51	227.06
1020.79	227.06
1021.08	227.39
1021.36	227.34
1021.65	226.38
1021.94	226.96
1022.22	227.04
1022.51	227.07
1022.79	227.51
1023.08	227.51
1023.36	228.34
1023.65	226.66
>>>>>End Processed Spectral Data<<<<<
