SpectraSuite Data File
++++++++++++++++++++++++++++++++++++
Date: Fri Feb 01 15:22:31 EST 2013
User: group
Dark Spectrum Present: No
Reference Spectrum Present: No
Number of Sampled Component Spectra: 1
Spectrometers: USB2E7196
Integration Time (usec): 35000 (USB2E7196)
Spectra Averaged: 100 (USB2E7196)
Boxcar Smoothing: 10 (USB2E7196)
Correct for Electrical Dark: No (USB2E7196)
Strobe/Lamp Enabled: No (USB2E7196)
Correct for Detector Non-linearity: No (USB2E7196)
Correct for Stray Light: No (USB2E7196)
Number of Pixels in Processed Spectrum: 2048
>>>>>Begin Processed Spectral Data<<<<<
339.09	0.00
339.48	214.78
339.86	216.20
340.24	217.85
340.63	219.57
341.01	222.16
341.39	222.02
341.78	223.38
342.16	224.50
342.54	224.68
342.93	213.34
343.31	224.14
343.69	224.70
344.07	225.19
344.46	225.60
344.84	225.99
345.22	226.21
345.60	226.46
345.99	226.64
346.37	226.78
346.75	226.90
347.13	227.00
347.52	227.06
347.90	227.14
348.28	227.17
348.66	227.19
349.05	227.20
349.43	227.26
349.81	227.30
350.19	227.31
350.57	227.37
350.96	227.48
351.34	227.55
351.72	227.62
352.10	227.73
352.48	227.81
352.87	227.87
353.25	227.96
353.63	228.03
354.01	228.06
354.39	228.15
354.77	228.21
355.15	228.29
355.54	228.33
355.92	228.36
356.30	228.42
356.68	228.55
357.06	228.65
357.44	228.67
357.82	228.75
358.20	228.85
358.58	228.92
358.97	228.96
359.35	229.05
359.73	229.13
360.11	229.18
360.49	229.25
360.87	229.30
361.25	229.33
361.63	229.38
362.01	229.48
362.39	229.50
362.77	229.54
363.15	229.56
363.53	229.58
363.91	229.60
364.29	229.64
364.67	229.58
365.05	229.58
365.43	229.63
365.81	229.64
366.19	229.67
366.57	229.70
366.95	229.69
367.33	229.63
367.71	229.66
368.09	229.63
368.47	229.59
368.85	229.55
369.23	229.56
369.61	229.56
369.99	229.50
370.37	229.48
370.75	229.51
371.13	229.46
371.51	229.43
371.89	229.41
372.27	229.34
372.65	229.32
373.03	229.26
373.41	229.23
373.78	229.15
374.16	229.07
374.54	228.95
374.92	228.88
375.30	228.85
375.68	228.73
376.06	228.68
376.44	228.62
376.82	228.57
377.19	228.49
377.57	228.38
377.95	228.34
378.33	228.26
378.71	228.13
379.09	228.07
379.47	228.03
379.84	227.97
380.22	227.90
380.60	227.79
380.98	227.73
381.36	227.66
381.73	227.57
382.11	227.53
382.49	227.46
382.87	227.40
383.25	227.29
383.62	227.32
384.00	227.24
384.38	227.18
384.76	227.13
385.13	227.06
385.51	226.97
385.89	226.88
386.27	226.83
386.64	226.77
387.02	226.69
387.40	226.62
387.78	226.58
388.15	226.53
388.53	226.49
388.91	226.44
389.29	226.37
389.66	226.38
390.04	226.31
390.42	226.34
390.79	226.29
391.17	226.32
391.55	226.21
391.92	226.22
392.30	226.23
392.68	226.22
393.05	226.24
393.43	226.27
393.81	226.27
394.18	226.28
394.56	226.30
394.94	226.37
395.31	226.37
395.69	226.37
396.06	226.46
396.44	226.51
396.82	226.53
397.19	226.64
397.57	226.66
397.95	226.73
398.32	226.75
398.70	226.84
399.07	226.90
399.45	226.98
399.82	227.00
400.20	227.05
400.58	227.12
400.95	227.17
401.33	227.25
401.70	227.42
402.08	227.54
402.45	227.62
402.83	227.76
403.20	227.89
403.58	228.02
403.95	228.13
404.33	228.27
404.71	228.40
405.08	228.58
405.46	228.72
405.83	228.88
406.21	229.05
406.58	229.22
406.96	229.37
407.33	229.55
407.70	229.77
408.08	230.05
408.45	230.28
408.83	230.52
409.20	230.77
409.58	230.94
409.95	231.21
410.33	231.51
410.70	231.71
411.08	232.03
411.45	232.35
411.82	232.67
412.20	232.99
412.57	233.44
412.95	233.73
413.32	234.13
413.69	234.56
414.07	234.99
414.44	235.46
414.82	235.98
415.19	236.55
415.56	237.10
415.94	237.66
416.31	238.30
416.68	238.95
417.06	239.66
417.43	240.37
417.81	241.12
418.18	241.93
418.55	242.83
418.93	243.70
419.30	244.60
419.67	245.53
420.04	246.49
420.42	247.49
420.79	248.68
421.16	249.86
421.54	251.02
421.91	252.23
422.28	253.47
422.66	254.79
423.03	256.07
423.40	257.38
423.77	258.80
424.15	260.20
424.52	261.67
424.89	263.28
425.26	264.84
425.64	266.31
426.01	267.87
426.38	269.51
426.75	271.17
427.13	272.89
427.50	274.68
427.87	276.59
428.24	278.44
428.61	280.18
428.99	282.09
429.36	284.22
429.73	286.30
430.10	288.34
430.47	290.43
430.85	292.51
431.22	294.78
431.59	297.19
431.96	299.45
432.33	301.96
432.70	304.35
433.08	307.11
433.45	309.74
433.82	312.35
434.19	315.24
434.56	318.09
434.93	320.73
435.30	323.35
435.68	326.25
436.05	329.06
436.42	331.82
436.79	334.40
437.16	337.08
437.53	339.91
437.90	342.73
438.27	345.45
438.64	348.33
439.01	350.89
439.38	353.10
439.75	355.29
440.13	357.71
440.50	360.01
440.87	361.88
441.24	363.81
441.61	365.96
441.98	367.42
442.35	369.20
442.72	371.04
443.09	372.87
443.46	373.81
443.83	374.43
444.20	374.96
444.57	375.73
444.94	376.02
445.31	376.35
445.68	376.70
446.05	376.74
446.42	376.32
446.79	375.93
447.16	375.46
447.53	375.15
447.90	374.03
448.27	372.93
448.64	371.34
449.01	370.23
449.37	368.28
449.74	366.40
450.11	364.16
450.48	361.67
450.85	359.13
451.22	357.02
451.59	354.99
451.96	353.05
452.33	350.44
452.70	348.10
453.07	345.29
453.43	342.37
453.80	339.61
454.17	336.97
454.54	334.39
454.91	331.66
455.28	328.97
455.65	326.45
456.02	323.98
456.38	321.82
456.75	319.12
457.12	316.86
457.49	314.61
457.86	312.43
458.23	310.64
458.59	308.59
458.96	306.52
459.33	304.64
459.70	302.83
460.07	301.38
460.43	299.63
460.80	298.00
461.17	296.53
461.54	295.06
461.91	293.64
462.27	292.20
462.64	290.96
463.01	289.58
463.38	288.36
463.74	287.00
464.11	285.82
464.48	284.79
464.85	283.66
465.21	282.80
465.58	281.90
465.95	280.79
466.32	279.88
466.68	278.94
467.05	278.05
467.42	277.13
467.78	276.16
468.15	275.28
468.52	274.59
468.88	273.78
469.25	273.02
469.62	272.39
469.98	271.75
470.35	271.13
470.72	270.54
471.08	269.87
471.45	269.31
471.82	268.83
472.18	268.25
472.55	267.83
472.92	267.29
473.28	266.82
473.65	266.37
474.02	265.93
474.38	265.58
474.75	265.27
475.11	264.91
475.48	264.67
475.85	264.46
476.21	264.20
476.58	263.99
476.94	263.81
477.31	263.64
477.67	263.43
478.04	263.31
478.41	263.21
478.77	263.21
479.14	263.14
479.50	263.12
479.87	263.15
480.23	263.24
480.60	263.33
480.96	263.40
481.33	263.58
481.69	263.79
482.06	263.97
482.42	264.16
482.79	264.39
483.15	264.65
483.52	265.04
483.88	265.43
484.25	265.81
484.61	266.23
484.98	266.67
485.34	267.23
485.71	267.79
486.07	268.40
486.44	268.97
486.80	269.65
487.17	270.36
487.53	271.17
487.90	272.00
488.26	272.92
488.62	273.90
488.99	274.87
489.35	275.88
489.72	277.01
490.08	278.17
490.44	279.43
490.81	280.76
491.17	282.08
491.54	283.55
491.90	285.05
492.26	286.68
492.63	288.37
492.99	290.12
493.36	292.00
493.72	294.05
494.08	296.11
494.45	298.35
494.81	300.69
495.17	303.10
495.54	305.64
495.90	308.33
496.26	311.12
496.63	314.08
496.99	317.17
497.35	320.45
497.72	323.88
498.08	327.38
498.44	331.03
498.80	335.00
499.17	339.05
499.53	343.25
499.89	347.60
500.26	352.15
500.62	356.89
500.98	361.85
501.34	366.94
501.71	372.31
502.07	377.75
502.43	383.35
502.79	389.19
503.16	395.24
503.52	401.56
503.88	407.96
504.24	414.59
504.60	421.55
504.97	428.65
505.33	435.97
505.69	443.69
506.05	451.50
506.41	459.32
506.78	467.46
507.14	475.94
507.50	484.71
507.86	493.72
508.22	502.87
508.59	512.13
508.95	521.76
509.31	531.61
509.67	541.74
510.03	552.08
510.39	562.69
510.75	573.55
511.12	584.43
511.48	595.75
511.84	607.19
512.20	618.66
512.56	630.55
512.92	642.82
513.28	655.14
513.64	667.65
514.00	680.34
514.37	693.27
514.73	706.26
515.09	719.34
515.45	732.67
515.81	746.30
516.17	760.24
516.53	774.28
516.89	788.41
517.25	802.62
517.61	817.10
517.97	831.55
518.33	846.02
518.69	860.77
519.05	875.79
519.41	890.95
519.77	906.56
520.13	922.06
520.49	937.52
520.85	953.00
521.21	968.77
521.57	985.12
521.93	1000.96
522.29	1017.44
522.65	1033.68
523.01	1050.01
523.37	1066.10
523.73	1082.39
524.09	1098.58
524.45	1114.95
524.81	1131.67
525.17	1148.63
525.53	1165.61
525.89	1182.48
526.25	1199.37
526.61	1215.79
526.97	1232.62
527.33	1249.17
527.68	1265.87
528.04	1282.23
528.40	1298.91
528.76	1315.92
529.12	1332.51
529.48	1349.44
529.84	1365.61
530.20	1382.26
530.56	1399.32
530.91	1416.90
531.27	1433.64
531.63	1450.30
531.99	1467.00
532.35	1482.89
532.71	1498.84
533.07	1515.12
533.42	1531.12
533.78	1547.32
534.14	1563.67
534.50	1579.12
534.86	1595.03
535.21	1610.25
535.57	1626.35
535.93	1641.89
536.29	1656.73
536.65	1671.85
537.00	1686.72
537.36	1702.07
537.72	1716.69
538.08	1731.16
538.44	1744.89
538.79	1758.92
539.15	1772.59
539.51	1786.36
539.87	1800.83
540.22	1814.58
540.58	1828.33
540.94	1841.76
541.29	1854.69
541.65	1867.56
542.01	1880.91
542.37	1893.22
542.72	1905.75
543.08	1917.42
543.44	1929.92
543.79	1941.34
544.15	1952.42
544.51	1964.01
544.87	1974.99
545.22	1985.78
545.58	1995.90
545.94	2005.71
546.29	2015.55
546.65	2025.34
547.01	2034.50
547.36	2043.44
547.72	2051.93
548.07	2059.96
548.43	2068.17
548.79	2076.25
549.14	2083.71
549.50	2091.08
549.86	2098.98
550.21	2106.38
550.57	2113.80
550.92	2120.35
551.28	2127.40
551.64	2134.47
551.99	2141.09
552.35	2147.20
552.70	2153.42
553.06	2159.42
553.41	2165.66
553.77	2171.81
554.13	2177.98
554.48	2184.13
554.84	2189.36
555.19	2194.63
555.55	2199.73
555.90	2204.09
556.26	2208.90
556.61	2213.73
556.97	2217.91
557.32	2221.96
557.68	2226.19
558.03	2230.34
558.39	2234.11
558.74	2238.71
559.10	2242.67
559.45	2246.26
559.81	2250.60
560.16	2254.40
560.52	2257.77
560.87	2261.27
561.23	2263.80
561.58	2266.73
561.94	2269.22
562.29	2271.72
562.64	2274.49
563.00	2277.23
563.35	2280.84
563.71	2284.10
564.06	2287.19
564.42	2290.04
564.77	2292.34
565.12	2294.36
565.48	2296.16
565.83	2297.95
566.19	2299.14
566.54	2299.95
566.89	2301.00
567.25	2301.44
567.60	2302.80
567.96	2304.34
568.31	2305.11
568.66	2306.24
569.02	2306.76
569.37	2307.15
569.72	2307.92
570.08	2307.89
570.43	2307.64
570.78	2306.97
571.14	2305.27
571.49	2303.87
571.84	2303.56
572.20	2302.45
572.55	2301.37
572.90	2299.85
573.26	2298.31
573.61	2296.56
573.96	2294.73
574.31	2291.75
574.67	2288.71
575.02	2284.92
575.37	2281.48
575.72	2277.62
576.08	2274.29
576.43	2271.01
576.78	2267.40
577.13	2264.25
577.49	2261.07
577.84	2257.50
578.19	2253.58
578.54	2249.83
578.90	2245.54
579.25	2239.74
579.60	2234.60
579.95	2229.51
580.30	2224.37
580.66	2219.26
581.01	2214.29
581.36	2209.29
581.71	2204.95
582.06	2200.41
582.42	2195.87
582.77	2190.52
583.12	2185.79
583.47	2180.80
583.82	2175.54
584.17	2170.03
584.53	2164.32
584.88	2158.53
585.23	2152.69
585.58	2147.20
585.93	2141.68
586.28	2136.79
586.63	2131.76
586.98	2126.65
587.34	2121.91
587.69	2117.00
588.04	2111.71
588.39	2105.84
588.74	2099.35
589.09	2093.20
589.44	2086.39
589.79	2080.37
590.14	2074.74
590.49	2068.24
590.84	2061.73
591.19	2055.61
591.54	2049.06
591.89	2041.47
592.25	2034.63
592.60	2027.36
592.95	2019.70
593.30	2012.30
593.65	2004.62
594.00	1997.45
594.35	1990.21
594.70	1982.11
595.05	1974.66
595.40	1967.27
595.75	1959.83
596.10	1953.52
596.45	1946.58
596.80	1940.40
597.15	1933.54
597.50	1926.32
597.85	1919.83
598.19	1913.12
598.54	1906.03
598.89	1899.40
599.24	1893.61
599.59	1886.92
599.94	1880.71
600.29	1874.30
600.64	1867.71
600.99	1860.21
601.34	1853.34
601.69	1846.37
602.04	1839.30
602.39	1832.09
602.74	1825.12
603.08	1818.40
603.43	1811.61
603.78	1804.35
604.13	1797.17
604.48	1789.99
604.83	1783.15
605.18	1776.14
605.53	1768.17
605.87	1760.05
606.22	1752.86
606.57	1744.94
606.92	1737.62
607.27	1730.38
607.62	1723.45
607.96	1716.15
608.31	1709.40
608.66	1701.73
609.01	1694.04
609.36	1686.58
609.70	1678.52
610.05	1670.53
610.40	1662.66
610.75	1654.31
611.10	1646.52
611.44	1638.04
611.79	1630.12
612.14	1621.39
612.49	1612.24
612.83	1603.87
613.18	1595.78
613.53	1587.59
613.88	1579.04
614.22	1570.66
614.57	1562.10
614.92	1554.04
615.27	1546.24
615.61	1538.04
615.96	1530.12
616.31	1522.51
616.65	1515.16
617.00	1507.53
617.35	1499.86
617.70	1491.57
618.04	1483.10
618.39	1475.04
618.74	1467.46
619.08	1459.07
619.43	1451.54
619.78	1444.54
620.12	1437.30
620.47	1429.87
620.82	1421.71
621.16	1414.26
621.51	1406.69
621.85	1399.03
622.20	1390.51
622.55	1382.31
622.89	1374.41
623.24	1366.75
623.59	1359.36
623.93	1351.83
624.28	1344.66
624.62	1337.03
624.97	1329.85
625.32	1323.11
625.66	1316.03
626.01	1308.74
626.35	1301.29
626.70	1293.50
627.04	1285.68
627.39	1278.13
627.73	1270.74
628.08	1263.88
628.43	1256.58
628.77	1249.27
629.12	1241.60
629.46	1234.39
629.81	1226.95
630.15	1219.74
630.50	1212.37
630.84	1204.25
631.19	1196.32
631.53	1188.85
631.88	1181.35
632.22	1173.84
632.57	1166.50
632.91	1159.04
633.26	1151.65
633.60	1144.29
633.95	1137.29
634.29	1130.37
634.64	1123.62
634.98	1116.18
635.32	1109.05
635.67	1102.49
636.01	1095.85
636.36	1089.13
636.70	1082.77
637.05	1076.24
637.39	1069.79
637.73	1063.22
638.08	1057.43
638.42	1051.44
638.77	1044.96
639.11	1038.45
639.45	1032.05
639.80	1025.42
640.14	1018.92
640.49	1012.38
640.83	1006.06
641.17	999.80
641.52	993.50
641.86	987.14
642.20	981.35
642.55	975.01
642.89	968.51
643.23	961.91
643.58	956.11
643.92	949.83
644.26	943.79
644.61	937.83
644.95	931.92
645.29	925.19
645.64	918.46
645.98	912.14
646.32	906.26
646.66	900.20
647.01	894.36
647.35	888.71
647.69	882.94
648.04	877.56
648.38	871.72
648.72	865.74
649.06	859.59
649.41	853.68
649.75	847.64
650.09	841.63
650.43	835.93
650.78	829.80
651.12	823.90
651.46	818.20
651.80	812.38
652.14	806.90
652.49	801.59
652.83	796.42
653.17	790.70
653.51	784.92
653.85	779.53
654.20	773.88
654.54	767.85
654.88	762.05
655.22	756.08
655.56	750.46
655.90	744.95
656.25	739.68
656.59	734.30
656.93	729.29
657.27	724.21
657.61	718.77
657.95	713.65
658.29	708.52
658.64	703.29
658.98	697.99
659.32	692.49
659.66	687.30
660.00	681.97
660.34	677.05
660.68	672.11
661.02	667.08
661.36	662.39
661.70	657.95
662.05	653.61
662.39	649.27
662.73	644.79
663.07	640.43
663.41	636.00
663.75	631.46
664.09	626.87
664.43	622.46
664.77	618.37
665.11	614.08
665.45	610.03
665.79	605.97
666.13	601.87
666.47	597.83
666.81	593.67
667.15	589.51
667.49	585.57
667.83	581.85
668.17	577.93
668.51	573.84
668.85	569.76
669.19	565.95
669.53	562.09
669.87	558.21
670.21	554.53
670.55	550.88
670.89	547.47
671.23	544.07
671.57	540.53
671.91	536.96
672.25	533.52
672.58	530.01
672.92	526.59
673.26	523.48
673.60	520.38
673.94	517.19
674.28	514.32
674.62	511.40
674.96	508.27
675.30	505.30
675.64	502.41
675.97	499.71
676.31	496.86
676.65	493.94
676.99	491.21
677.33	488.36
677.67	485.61
678.01	482.62
678.34	479.58
678.68	476.74
679.02	473.94
679.36	471.19
679.70	468.46
680.04	465.70
680.37	462.77
680.71	459.98
681.05	457.47
681.39	454.80
681.73	452.19
682.06	449.66
682.40	447.14
682.74	444.66
683.08	442.08
683.42	439.48
683.75	437.05
684.09	434.54
684.43	432.10
684.77	429.60
685.10	427.24
685.44	424.93
685.78	422.69
686.12	420.42
686.45	418.21
686.79	415.86
687.13	413.69
687.46	411.53
687.80	409.35
688.14	407.09
688.48	405.01
688.81	402.78
689.15	400.65
689.49	398.53
689.82	396.43
690.16	394.34
690.50	392.38
690.83	390.37
691.17	388.35
691.51	386.40
691.84	384.55
692.18	382.61
692.52	380.69
692.85	378.74
693.19	376.94
693.52	375.11
693.86	373.30
694.20	371.52
694.53	369.74
694.87	367.92
695.21	366.18
695.54	364.38
695.88	362.63
696.21	360.92
696.55	359.23
696.88	357.52
697.22	355.90
697.56	354.26
697.89	352.59
698.23	350.97
698.56	349.36
698.90	347.77
699.23	346.18
699.57	344.63
699.90	343.12
700.24	341.49
700.58	339.95
700.91	338.50
701.25	337.06
701.58	335.70
701.92	334.37
702.25	332.96
702.59	331.63
702.92	330.30
703.26	329.02
703.59	327.77
703.93	326.60
704.26	325.37
704.60	324.11
704.93	322.89
705.26	321.69
705.60	320.55
705.93	319.42
706.27	318.40
706.60	317.38
706.94	316.29
707.27	315.20
707.61	314.13
707.94	313.11
708.27	312.03
708.61	310.96
708.94	309.90
709.28	308.97
709.61	308.01
709.94	307.10
710.28	306.06
710.61	305.11
710.95	304.05
711.28	303.13
711.61	302.17
711.95	301.22
712.28	300.29
712.61	299.29
712.95	298.36
713.28	297.48
713.61	296.57
713.95	295.70
714.28	294.85
714.61	293.97
714.95	293.12
715.28	292.25
715.61	291.39
715.95	290.57
716.28	289.68
716.61	288.84
716.95	288.02
717.28	287.30
717.61	286.50
717.94	285.72
718.28	284.90
718.61	284.18
718.94	283.51
719.27	282.87
719.61	282.25
719.94	281.62
720.27	280.88
720.60	280.22
720.94	279.51
721.27	278.91
721.60	278.36
721.93	277.77
722.27	277.21
722.60	276.63
722.93	276.06
723.26	275.52
723.59	274.97
723.93	274.43
724.26	273.85
724.59	273.27
724.92	272.79
725.25	272.32
725.59	271.79
725.92	271.26
726.25	270.72
726.58	270.18
726.91	269.66
727.24	269.18
727.57	268.70
727.91	268.28
728.24	267.86
728.57	267.34
728.90	266.86
729.23	266.38
729.56	265.94
729.89	265.47
730.22	265.00
730.55	264.53
730.89	264.08
731.22	263.64
731.55	263.22
731.88	262.79
732.21	262.34
732.54	261.91
732.87	261.49
733.20	261.13
733.53	260.73
733.86	260.32
734.19	259.91
734.52	259.52
734.85	259.19
735.18	258.76
735.51	258.42
735.84	258.05
736.17	257.71
736.50	257.31
736.83	257.08
737.16	256.74
737.49	256.42
737.82	256.06
738.15	255.76
738.48	255.41
738.81	255.06
739.14	254.73
739.47	254.40
739.80	254.10
740.13	253.78
740.46	253.47
740.79	253.16
741.12	252.89
741.45	252.59
741.78	252.22
742.11	251.94
742.44	251.59
742.77	251.35
743.10	251.05
743.43	250.78
743.75	250.39
744.08	250.22
744.41	249.92
744.74	249.64
745.07	249.31
745.40	249.06
745.73	248.84
746.06	248.57
746.39	248.34
746.71	248.07
747.04	247.80
747.37	247.53
747.70	247.29
748.03	247.02
748.36	246.77
748.68	246.55
749.01	246.32
749.34	246.13
749.67	245.88
750.00	245.65
750.33	245.49
750.65	245.31
750.98	245.00
751.31	244.82
751.64	244.65
751.97	244.50
752.29	244.30
752.62	244.09
752.95	243.90
753.28	243.70
753.60	243.54
753.93	243.36
754.26	243.22
754.59	243.00
754.91	242.79
755.24	242.60
755.57	242.43
755.90	242.23
756.22	242.04
756.55	241.84
756.88	241.67
757.20	241.43
757.53	241.23
757.86	241.08
758.19	240.89
758.51	240.73
758.84	240.54
759.17	240.39
759.49	240.24
759.82	240.11
760.15	239.96
760.47	239.79
760.80	239.63
761.13	239.47
761.45	239.35
761.78	239.23
762.11	239.08
762.43	238.92
762.76	238.79
763.08	238.66
763.41	238.55
763.74	238.43
764.06	238.29
764.39	238.16
764.71	237.97
765.04	237.84
765.37	237.68
765.69	237.55
766.02	237.42
766.34	237.26
766.67	237.09
767.00	236.99
767.32	236.93
767.65	236.87
767.97	236.74
768.30	236.59
768.62	236.49
768.95	236.36
769.27	236.24
769.60	236.15
769.92	236.02
770.25	235.91
770.57	235.77
770.90	235.65
771.22	235.53
771.55	235.46
771.87	235.36
772.20	235.27
772.52	235.25
772.85	235.26
773.17	235.18
773.50	235.07
773.82	234.98
774.15	234.80
774.47	234.67
774.80	234.57
775.12	234.47
775.45	234.37
775.77	234.34
776.09	234.27
776.42	234.18
776.74	234.13
777.07	234.04
777.39	233.96
777.72	233.87
778.04	233.83
778.36	233.74
778.69	233.66
779.01	233.62
779.33	233.46
779.66	233.28
779.98	233.17
780.31	233.15
780.63	233.09
780.95	233.08
781.28	232.99
781.60	232.92
781.92	232.87
782.25	232.78
782.57	232.70
782.89	232.64
783.22	232.53
783.54	232.44
783.86	232.38
784.19	232.31
784.51	232.30
784.83	232.24
785.16	232.19
785.48	232.15
785.80	232.10
786.12	232.09
786.45	232.03
786.77	232.04
787.09	231.96
787.42	231.88
787.74	231.81
788.06	231.82
788.38	231.80
788.71	231.76
789.03	231.77
789.35	231.72
789.67	231.67
789.99	231.66
790.32	231.62
790.64	231.60
790.96	231.65
791.28	231.56
791.61	231.50
791.93	231.47
792.25	231.42
792.57	231.44
792.89	231.33
793.21	231.32
793.54	231.25
793.86	231.25
794.18	231.19
794.50	231.17
794.82	231.12
795.14	231.06
795.47	231.05
795.79	230.97
796.11	230.94
796.43	230.91
796.75	230.87
797.07	230.86
797.39	230.81
797.71	230.71
798.04	230.71
798.36	230.72
798.68	230.68
799.00	230.66
799.32	230.55
799.64	230.56
799.96	230.56
800.28	230.53
800.60	230.49
800.92	230.47
801.24	230.43
801.56	230.40
801.89	230.39
802.21	230.35
802.53	230.34
802.85	230.31
803.17	230.32
803.49	230.28
803.81	230.22
804.13	230.18
804.45	230.14
804.77	230.13
805.09	230.05
805.41	230.02
805.73	229.97
806.05	229.97
806.37	229.91
806.69	229.82
807.01	229.78
807.33	229.72
807.65	229.70
807.97	229.72
808.28	229.65
808.60	229.60
808.92	229.57
809.24	229.61
809.56	229.61
809.88	229.54
810.20	229.50
810.52	229.50
810.84	229.47
811.16	229.43
811.48	229.37
811.80	229.40
812.12	229.35
812.43	229.35
812.75	229.31
813.07	229.28
813.39	229.27
813.71	229.24
814.03	229.25
814.35	229.20
814.67	229.11
814.98	229.10
815.30	229.08
815.62	229.05
815.94	228.94
816.26	228.91
816.58	228.89
816.89	228.89
817.21	228.84
817.53	228.84
817.85	228.82
818.17	228.81
818.48	228.72
818.80	228.74
819.12	228.66
819.44	228.60
819.76	228.59
820.07	228.56
820.39	228.53
820.71	228.51
821.03	228.50
821.34	228.45
821.66	228.40
821.98	228.37
822.30	228.33
822.61	228.37
822.93	228.35
823.25	228.33
823.57	228.29
823.88	228.26
824.20	228.24
824.52	228.23
824.83	228.21
825.15	228.21
825.47	228.16
825.79	228.19
826.10	228.17
826.42	228.17
826.74	228.18
827.05	228.18
827.37	228.18
827.69	228.16
828.00	228.19
828.32	228.20
828.64	228.21
828.95	228.24
829.27	228.19
829.58	228.17
829.90	228.18
830.22	228.20
830.53	228.23
830.85	228.19
831.17	228.17
831.48	228.15
831.80	228.15
832.11	228.14
832.43	228.14
832.75	228.18
833.06	228.21
833.38	228.17
833.69	228.16
834.01	228.18
834.32	228.16
834.64	228.17
834.96	228.18
835.27	228.16
835.59	228.14
835.90	228.12
836.22	228.10
836.53	228.08
836.85	228.04
837.16	228.11
837.48	228.11
837.79	228.13
838.11	228.13
838.42	228.16
838.74	228.18
839.05	228.17
839.37	228.13
839.68	228.07
840.00	228.08
840.31	228.06
840.63	227.99
840.94	227.97
841.26	227.95
841.57	227.93
841.88	227.93
842.20	227.94
842.51	227.91
842.83	227.90
843.14	227.96
843.46	227.97
843.77	227.92
844.08	227.93
844.40	227.90
844.71	227.88
845.03	227.86
845.34	227.84
845.65	227.83
845.97	227.81
846.28	227.81
846.60	227.79
846.91	227.80
847.22	227.80
847.54	227.83
847.85	227.82
848.16	227.82
848.48	227.80
848.79	227.81
849.10	227.84
849.42	227.83
849.73	227.74
850.04	227.71
850.36	227.66
850.67	227.65
850.98	227.65
851.30	227.67
851.61	227.66
851.92	227.65
852.23	227.65
852.55	227.67
852.86	227.65
853.17	227.65
853.49	227.64
853.80	227.66
854.11	227.65
854.42	227.66
854.74	227.60
855.05	227.58
855.36	227.51
855.67	227.49
855.99	227.48
856.30	227.56
856.61	227.55
856.92	227.55
857.23	227.54
857.55	227.52
857.86	227.48
858.17	227.49
858.48	227.46
858.79	227.46
859.11	227.44
859.42	227.44
859.73	227.40
860.04	227.41
860.35	227.36
860.66	227.33
860.98	227.31
861.29	227.38
861.60	227.38
861.91	227.41
862.22	227.41
862.53	227.39
862.84	227.30
863.16	227.35
863.47	227.35
863.78	227.34
864.09	227.35
864.40	227.35
864.71	227.35
865.02	227.35
865.33	227.32
865.64	227.31
865.95	227.31
866.27	227.40
866.58	227.39
866.89	227.40
867.20	227.40
867.51	227.38
867.82	227.37
868.13	227.41
868.44	227.38
868.75	227.42
869.06	227.46
869.37	227.50
869.68	227.45
869.99	227.48
870.30	227.47
870.61	227.51
870.92	227.50
871.23	227.49
871.54	227.52
871.85	227.57
872.16	227.60
872.47	227.63
872.78	227.59
873.09	227.63
873.40	227.65
873.71	227.71
874.02	227.73
874.33	227.73
874.64	227.70
874.95	227.75
875.26	227.71
875.56	227.71
875.87	227.69
876.18	227.72
876.49	227.79
876.80	227.83
877.11	227.82
877.42	227.82
877.73	227.84
878.04	227.85
878.35	227.82
878.66	227.83
878.96	227.84
879.27	227.83
879.58	227.81
879.89	227.81
880.20	227.79
880.51	227.77
880.82	227.75
881.12	227.78
881.43	227.73
881.74	227.74
882.05	227.74
882.36	227.74
882.67	227.74
882.97	227.67
883.28	227.65
883.59	227.63
883.90	227.67
884.21	227.67
884.51	227.67
884.82	227.67
885.13	227.68
885.44	227.67
885.74	227.69
886.05	227.69
886.36	227.70
886.67	227.67
886.98	227.74
887.28	227.73
887.59	227.71
887.90	227.75
888.20	227.72
888.51	227.71
888.82	227.68
889.13	227.66
889.43	227.71
889.74	227.72
890.05	227.71
890.35	227.67
890.66	227.65
890.97	227.61
891.28	227.58
891.58	227.53
891.89	227.50
892.20	227.46
892.50	227.46
892.81	227.44
893.12	227.43
893.42	227.34
893.73	227.31
894.04	227.27
894.34	227.26
894.65	227.24
894.95	227.23
895.26	227.24
895.57	227.28
895.87	227.18
896.18	227.15
896.48	227.13
896.79	227.12
897.10	227.11
897.40	227.09
897.71	227.11
898.01	227.12
898.32	227.14
898.63	227.09
898.93	227.06
899.24	227.05
899.54	227.02
899.85	227.01
900.15	227.03
900.46	227.02
900.76	227.01
901.07	227.02
901.38	226.98
901.68	226.98
901.99	226.91
902.29	226.90
902.60	226.88
902.90	226.85
903.21	226.85
903.51	226.87
903.82	226.90
904.12	226.89
904.43	226.88
904.73	226.86
905.03	226.90
905.34	226.97
905.64	226.97
905.95	226.97
906.25	227.01
906.56	227.00
906.86	227.01
907.17	227.00
907.47	226.99
907.77	227.02
908.08	227.00
908.38	227.01
908.69	227.01
908.99	227.03
909.30	227.06
909.60	227.07
909.90	227.09
910.21	227.07
910.51	227.10
910.81	227.11
911.12	227.14
911.42	227.10
911.73	227.01
912.03	227.04
912.33	227.08
912.64	227.07
912.94	227.09
913.24	227.12
913.55	227.12
913.85	227.14
914.15	227.19
914.46	227.23
914.76	227.27
915.06	227.29
915.37	227.30
915.67	227.32
915.97	227.32
916.27	227.30
916.58	227.33
916.88	227.32
917.18	227.33
917.49	227.40
917.79	227.43
918.09	227.48
918.39	227.51
918.70	227.53
919.00	227.54
919.30	227.59
919.60	227.57
919.91	227.61
920.21	227.60
920.51	227.60
920.81	227.58
921.12	227.60
921.42	227.59
921.72	227.60
922.02	227.57
922.32	227.60
922.63	227.60
922.93	227.64
923.23	227.65
923.53	227.63
923.83	227.54
924.13	227.58
924.44	227.55
924.74	227.54
925.04	227.54
925.34	227.55
925.64	227.50
925.94	227.49
926.24	227.52
926.55	227.49
926.85	227.48
927.15	227.50
927.45	227.47
927.75	227.45
928.05	227.46
928.35	227.48
928.65	227.47
928.95	227.43
929.26	227.38
929.56	227.39
929.86	227.41
930.16	227.38
930.46	227.33
930.76	227.33
931.06	227.28
931.36	227.27
931.66	227.24
931.96	227.22
932.26	227.20
932.56	227.16
932.86	227.16
933.16	227.16
933.46	227.13
933.76	227.08
934.06	227.10
934.36	227.09
934.66	227.04
934.96	227.02
935.26	227.00
935.56	226.99
935.86	226.92
936.16	226.90
936.46	226.90
936.76	226.91
937.06	226.90
937.36	226.92
937.66	226.89
937.96	226.92
938.26	226.90
938.56	226.91
938.86	226.87
939.16	226.89
939.46	226.87
939.76	226.84
940.06	226.85
940.35	226.81
940.65	226.76
940.95	226.77
941.25	226.71
941.55	226.72
941.85	226.73
942.15	226.77
942.45	226.77
942.75	226.77
943.04	226.78
943.34	226.81
943.64	226.79
943.94	226.81
944.24	226.80
944.54	226.78
944.84	226.75
945.13	226.79
945.43	226.75
945.73	226.77
946.03	226.78
946.33	226.83
946.62	226.85
946.92	226.86
947.22	226.88
947.52	226.93
947.82	226.97
948.11	226.95
948.41	226.92
948.71	226.93
949.01	226.93
949.31	226.94
949.60	226.94
949.90	226.98
950.20	226.98
950.50	227.01
950.79	227.06
951.09	227.10
951.39	227.09
951.69	227.12
951.98	227.12
952.28	227.15
952.58	227.13
952.87	227.14
953.17	227.19
953.47	227.19
953.76	227.22
954.06	227.18
954.36	227.22
954.66	227.25
954.95	227.29
955.25	227.35
955.55	227.36
955.84	227.35
956.14	227.33
956.44	227.35
956.73	227.31
957.03	227.30
957.32	227.29
957.62	227.27
957.92	227.30
958.21	227.32
958.51	227.43
958.81	227.46
959.10	227.47
959.40	227.44
959.69	227.45
959.99	227.47
960.29	227.51
960.58	227.47
960.88	227.52
961.17	227.47
961.47	227.46
961.76	227.43
962.06	227.46
962.36	227.45
962.65	227.44
962.95	227.45
963.24	227.41
963.54	227.43
963.83	227.43
964.13	227.42
964.42	227.39
964.72	227.30
965.01	227.29
965.31	227.26
965.60	227.26
965.90	227.31
966.19	227.29
966.49	227.27
966.78	227.25
967.08	227.20
967.37	227.21
967.67	227.16
967.96	227.19
968.26	227.16
968.55	227.17
968.85	227.14
969.14	227.14
969.43	227.15
969.73	227.13
970.02	227.13
970.32	227.10
970.61	227.10
970.91	227.03
971.20	227.00
971.49	226.99
971.79	226.99
972.08	226.90
972.38	226.91
972.67	226.91
972.96	226.91
973.26	226.92
973.55	226.92
973.85	226.91
974.14	226.87
974.43	226.89
974.73	226.87
975.02	226.89
975.31	226.90
975.61	226.89
975.90	226.91
976.19	226.86
976.49	226.88
976.78	226.87
977.07	226.88
977.37	226.92
977.66	226.92
977.95	226.93
978.24	226.92
978.54	226.91
978.83	226.89
979.12	226.87
979.42	226.88
979.71	226.85
980.00	226.87
980.29	226.89
980.59	226.87
980.88	226.90
981.17	226.88
981.46	226.88
981.76	226.88
982.05	226.89
982.34	226.92
982.63	226.91
982.93	226.92
983.22	226.97
983.51	226.96
983.80	227.02
984.09	227.03
984.39	227.05
984.68	227.04
984.97	227.07
985.26	227.08
985.55	227.11
985.85	227.11
986.14	227.15
986.43	227.19
986.72	227.15
987.01	227.12
987.30	227.09
987.59	227.08
987.89	227.10
988.18	227.09
988.47	227.12
988.76	227.14
989.05	227.14
989.34	227.15
989.63	227.19
989.92	227.16
990.22	227.12
990.51	227.14
990.80	227.16
991.09	227.18
991.38	227.22
991.67	227.19
991.96	227.23
992.25	227.24
992.54	227.25
992.83	227.29
993.12	227.28
993.41	227.33
993.70	227.39
993.99	227.43
994.28	227.43
994.58	227.44
994.87	227.43
995.16	227.41
995.45	227.39
995.74	227.33
996.03	227.39
996.32	227.43
996.61	227.44
996.90	227.43
997.19	227.40
997.48	227.37
997.77	227.37
998.06	227.35
998.34	227.33
998.63	227.27
998.92	227.26
999.21	227.30
999.50	227.30
999.79	227.27
1000.08	227.22
1000.37	227.21
1000.66	227.17
1000.95	227.19
1001.24	227.21
1001.53	227.25
1001.82	227.26
1002.11	227.17
1002.40	227.16
1002.68	227.18
1002.97	227.22
1003.26	227.22
1003.55	227.20
1003.84	227.19
1004.13	227.23
1004.42	227.20
1004.71	227.20
1004.99	227.15
1005.28	227.16
1005.57	227.13
1005.86	227.09
1006.15	227.06
1006.44	227.03
1006.72	227.04
1007.01	227.02
1007.30	226.99
1007.59	226.93
1007.88	226.90
1008.17	226.91
1008.45	226.89
1008.74	226.84
1009.03	226.80
1009.32	226.77
1009.60	226.75
1009.89	226.71
1010.18	226.63
1010.47	226.63
1010.76	226.62
1011.04	226.65
1011.33	226.63
1011.62	226.64
1011.91	226.64
1012.19	226.67
1012.48	226.69
1012.77	226.70
1013.05	226.73
1013.34	226.76
1013.63	226.73
1013.92	226.77
1014.20	226.78
1014.49	226.79
1014.78	226.77
1015.06	226.76
1015.35	226.76
1015.64	226.80
1015.92	226.84
1016.21	226.84
1016.50	226.86
1016.78	226.88
1017.07	226.91
1017.36	226.87
1017.64	226.84
1017.93	226.85
1018.22	226.84
1018.50	226.82
1018.79	226.81
1019.08	226.75
1019.36	226.71
1019.65	226.75
1019.93	226.78
1020.22	226.82
1020.51	226.82
1020.79	226.82
1021.08	226.56
1021.36	226.46
1021.65	226.72
1021.94	226.29
1022.22	226.47
1022.51	226.95
1022.79	227.75
1023.08	227.69
1023.36	227.07
1023.65	226.55
>>>>>End Processed Spectral Data<<<<<
