SpectraSuite Data File
++++++++++++++++++++++++++++++++++++
Date: Fri Feb 01 16:44:03 EST 2013
User: group
Dark Spectrum Present: No
Reference Spectrum Present: No
Number of Sampled Component Spectra: 1
Spectrometers: USB2E7196
Integration Time (usec): 35000 (USB2E7196)
Spectra Averaged: 100 (USB2E7196)
Boxcar Smoothing: 10 (USB2E7196)
Correct for Electrical Dark: No (USB2E7196)
Strobe/Lamp Enabled: No (USB2E7196)
Correct for Detector Non-linearity: No (USB2E7196)
Correct for Stray Light: No (USB2E7196)
Number of Pixels in Processed Spectrum: 2048
>>>>>Begin Processed Spectral Data<<<<<
339.09	0.00
339.48	213.75
339.86	214.87
340.24	216.47
340.63	218.07
341.01	220.50
341.39	220.57
341.78	221.44
342.16	222.93
342.54	223.25
342.93	211.93
343.31	222.65
343.69	223.17
344.07	223.65
344.46	224.08
344.84	224.46
345.22	224.73
345.60	224.99
345.99	225.19
346.37	225.33
346.75	225.43
347.13	225.51
347.52	225.58
347.90	225.67
348.28	225.69
348.66	225.74
349.05	225.77
349.43	225.80
349.81	225.82
350.19	225.89
350.57	225.91
350.96	225.99
351.34	226.07
351.72	226.16
352.10	226.22
352.48	226.30
352.87	226.35
353.25	226.40
353.63	226.47
354.01	226.52
354.39	226.58
354.77	226.67
355.15	226.79
355.54	226.87
355.92	226.90
356.30	226.95
356.68	227.10
357.06	227.15
357.44	227.20
357.82	227.27
358.20	227.36
358.58	227.44
358.97	227.53
359.35	227.61
359.73	227.73
360.11	227.81
360.49	227.83
360.87	227.89
361.25	227.95
361.63	228.01
362.01	228.09
362.39	228.15
362.77	228.20
363.15	228.21
363.53	228.22
363.91	228.25
364.29	228.31
364.67	228.17
365.05	228.19
365.43	228.20
365.81	228.22
366.19	228.25
366.57	228.31
366.95	228.29
367.33	228.23
367.71	228.18
368.09	228.17
368.47	228.18
368.85	228.17
369.23	228.15
369.61	228.10
369.99	228.08
370.37	228.05
370.75	228.07
371.13	228.02
371.51	227.97
371.89	227.92
372.27	227.87
372.65	227.89
373.03	227.89
373.41	227.83
373.78	227.79
374.16	227.69
374.54	227.56
374.92	227.50
375.30	227.47
375.68	227.40
376.06	227.33
376.44	227.27
376.82	227.17
377.19	227.10
377.57	227.03
377.95	226.92
378.33	226.84
378.71	226.70
379.09	226.66
379.47	226.64
379.84	226.57
380.22	226.49
380.60	226.39
380.98	226.27
381.36	226.22
381.73	226.10
382.11	226.05
382.49	226.02
382.87	225.96
383.25	225.87
383.62	225.92
384.00	225.85
384.38	225.80
384.76	225.78
385.13	225.77
385.51	225.73
385.89	225.67
386.27	225.64
386.64	225.60
387.02	225.54
387.40	225.47
387.78	225.45
388.15	225.41
388.53	225.35
388.91	225.34
389.29	225.31
389.66	225.29
390.04	225.24
390.42	225.22
390.79	225.22
391.17	225.22
391.55	225.12
391.92	225.14
392.30	225.11
392.68	225.08
393.05	225.05
393.43	225.04
393.81	225.06
394.18	225.06
394.56	225.10
394.94	225.11
395.31	225.10
395.69	225.16
396.06	225.21
396.44	225.27
396.82	225.28
397.19	225.35
397.57	225.40
397.95	225.47
398.32	225.48
398.70	225.51
399.07	225.58
399.45	225.65
399.82	225.70
400.20	225.75
400.58	225.83
400.95	225.87
401.33	225.98
401.70	226.16
402.08	226.25
402.45	226.34
402.83	226.47
403.20	226.59
403.58	226.67
403.95	226.81
404.33	226.94
404.71	227.06
405.08	227.25
405.46	227.37
405.83	227.50
406.21	227.66
406.58	227.83
406.96	227.99
407.33	228.14
407.70	228.33
408.08	228.63
408.45	228.87
408.83	229.14
409.20	229.32
409.58	229.48
409.95	229.73
410.33	229.99
410.70	230.21
411.08	230.48
411.45	230.80
411.82	231.09
412.20	231.45
412.57	231.89
412.95	232.16
413.32	232.59
413.69	233.03
414.07	233.46
414.44	233.90
414.82	234.37
415.19	234.92
415.56	235.47
415.94	235.96
416.31	236.57
416.68	237.16
417.06	237.85
417.43	238.51
417.81	239.25
418.18	240.01
418.55	240.85
418.93	241.76
419.30	242.64
419.67	243.56
420.04	244.47
420.42	245.42
420.79	246.59
421.16	247.72
421.54	248.88
421.91	250.07
422.28	251.33
422.66	252.65
423.03	253.96
423.40	255.26
423.77	256.67
424.15	258.10
424.52	259.59
424.89	261.23
425.26	262.78
425.64	264.21
426.01	265.79
426.38	267.44
426.75	269.04
427.13	270.72
427.50	272.50
427.87	274.35
428.24	276.19
428.61	277.92
428.99	279.79
429.36	281.85
429.73	283.89
430.10	285.88
430.47	287.90
430.85	289.98
431.22	292.19
431.59	294.55
431.96	296.72
432.33	299.13
432.70	301.45
433.08	304.25
433.45	306.87
433.82	309.41
434.19	312.26
434.56	315.11
434.93	317.71
435.30	320.29
435.68	323.13
436.05	325.98
436.42	328.71
436.79	331.26
437.16	333.96
437.53	336.78
437.90	339.54
438.27	342.25
438.64	345.03
439.01	347.61
439.38	349.84
439.75	352.00
440.13	354.47
440.50	356.74
440.87	358.54
441.24	360.46
441.61	362.67
441.98	364.16
442.35	365.90
442.72	367.81
443.09	369.65
443.46	370.66
443.83	371.25
444.20	371.77
444.57	372.59
444.94	372.85
445.31	373.24
445.68	373.59
446.05	373.71
446.42	373.34
446.79	372.92
447.16	372.47
447.53	372.20
447.90	371.07
448.27	369.96
448.64	368.41
449.01	367.29
449.37	365.33
449.74	363.45
450.11	361.26
450.48	358.80
450.85	356.27
451.22	354.17
451.59	352.13
451.96	350.21
452.33	347.66
452.70	345.32
453.07	342.46
453.43	339.65
453.80	336.89
454.17	334.26
454.54	331.77
454.91	329.07
455.28	326.41
455.65	323.98
456.02	321.56
456.38	319.46
456.75	316.84
457.12	314.64
457.49	312.43
457.86	310.26
458.23	308.42
458.59	306.38
458.96	304.31
459.33	302.49
459.70	300.65
460.07	299.11
460.43	297.41
460.80	295.83
461.17	294.37
461.54	292.86
461.91	291.47
462.27	290.03
462.64	288.75
463.01	287.42
463.38	286.14
463.74	284.82
464.11	283.63
464.48	282.61
464.85	281.48
465.21	280.62
465.58	279.69
465.95	278.60
466.32	277.76
466.68	276.83
467.05	275.96
467.42	275.11
467.78	274.24
468.15	273.39
468.52	272.75
468.88	271.91
469.25	271.15
469.62	270.53
469.98	269.85
470.35	269.29
470.72	268.67
471.08	267.99
471.45	267.43
471.82	266.92
472.18	266.35
472.55	265.90
472.92	265.40
473.28	264.94
473.65	264.49
474.02	264.04
474.38	263.69
474.75	263.36
475.11	263.04
475.48	262.76
475.85	262.54
476.21	262.30
476.58	262.14
476.94	262.03
477.31	261.86
477.67	261.74
478.04	261.64
478.41	261.64
478.77	261.70
479.14	261.67
479.50	261.67
479.87	261.73
480.23	261.87
480.60	261.95
480.96	262.05
481.33	262.28
481.69	262.49
482.06	262.72
482.42	262.90
482.79	263.12
483.15	263.46
483.52	263.82
483.88	264.19
484.25	264.58
484.61	265.01
484.98	265.50
485.34	266.06
485.71	266.64
486.07	267.23
486.44	267.79
486.80	268.48
487.17	269.24
487.53	270.06
487.90	270.88
488.26	271.81
488.62	272.83
488.99	273.80
489.35	274.82
489.72	275.95
490.08	277.18
490.44	278.45
490.81	279.79
491.17	281.16
491.54	282.61
491.90	284.15
492.26	285.78
492.63	287.51
492.99	289.29
493.36	291.22
493.72	293.29
494.08	295.40
494.45	297.65
494.81	300.00
495.17	302.41
495.54	304.94
495.90	307.65
496.26	310.43
496.63	313.41
496.99	316.56
497.35	319.82
497.72	323.19
498.08	326.71
498.44	330.40
498.80	334.32
499.17	338.41
499.53	342.58
499.89	346.95
500.26	351.40
500.62	356.05
500.98	360.97
501.34	366.03
501.71	371.37
502.07	376.85
502.43	382.44
502.79	388.27
503.16	394.36
503.52	400.66
503.88	407.03
504.24	413.68
504.60	420.46
504.97	427.56
505.33	434.89
505.69	442.59
506.05	450.36
506.41	458.23
506.78	466.38
507.14	474.80
507.50	483.49
507.86	492.53
508.22	501.72
508.59	510.90
508.95	520.36
509.31	530.17
509.67	540.20
510.03	550.49
510.39	560.97
510.75	571.69
511.12	582.49
511.48	593.77
511.84	605.19
512.20	616.70
512.56	628.59
512.92	640.68
513.28	652.94
513.64	665.27
514.00	677.93
514.37	690.80
514.73	703.80
515.09	716.75
515.45	729.96
515.81	743.48
516.17	757.40
516.53	771.54
516.89	785.59
517.25	799.68
517.61	814.02
517.97	828.39
518.33	842.75
518.69	857.49
519.05	872.36
519.41	887.43
519.77	902.92
520.13	918.21
520.49	933.47
520.85	948.71
521.21	964.24
521.57	980.33
521.93	995.94
522.29	1012.09
522.65	1028.19
523.01	1044.28
523.37	1060.17
523.73	1076.15
524.09	1092.12
524.45	1108.23
524.81	1124.73
525.17	1141.20
525.53	1157.98
525.89	1174.67
526.25	1191.39
526.61	1207.60
526.97	1224.10
527.33	1240.36
527.68	1256.81
528.04	1273.21
528.40	1289.57
528.76	1306.52
529.12	1322.91
529.48	1339.69
529.84	1355.63
530.20	1372.15
530.56	1388.92
530.91	1406.22
531.27	1422.95
531.63	1439.20
531.99	1455.67
532.35	1471.52
532.71	1487.41
533.07	1503.49
533.42	1519.27
533.78	1535.16
534.14	1551.24
534.50	1566.55
534.86	1582.30
535.21	1597.41
535.57	1613.12
535.93	1628.52
536.29	1643.03
536.65	1658.00
537.00	1672.41
537.36	1687.53
537.72	1701.99
538.08	1716.25
538.44	1729.92
538.79	1743.61
539.15	1757.02
539.51	1770.51
539.87	1784.68
540.22	1798.20
540.58	1811.79
540.94	1824.85
541.29	1837.47
541.65	1850.10
542.01	1863.07
542.37	1875.13
542.72	1887.35
543.08	1898.94
543.44	1911.20
543.79	1922.57
544.15	1933.31
544.51	1944.89
544.87	1955.66
545.22	1966.27
545.58	1976.49
545.94	1986.11
546.29	1995.84
546.65	2005.74
547.01	2015.02
547.36	2023.54
547.72	2032.00
548.07	2039.95
548.43	2048.14
548.79	2056.05
549.14	2063.53
549.50	2070.68
549.86	2078.22
550.21	2085.51
550.57	2092.68
550.92	2099.16
551.28	2106.10
551.64	2113.11
551.99	2119.43
552.35	2125.53
552.70	2131.65
553.06	2137.43
553.41	2143.77
553.77	2149.65
554.13	2155.51
554.48	2161.48
554.84	2167.08
555.19	2172.03
555.55	2177.19
555.90	2181.63
556.26	2186.57
556.61	2191.21
556.97	2195.72
557.32	2199.88
557.68	2204.03
558.03	2208.26
558.39	2212.00
558.74	2216.48
559.10	2220.34
559.45	2224.10
559.81	2228.38
560.16	2232.11
560.52	2235.39
560.87	2238.67
561.23	2241.41
561.58	2244.30
561.94	2246.84
562.29	2249.15
562.64	2252.20
563.00	2254.52
563.35	2258.16
563.71	2261.29
564.06	2264.47
564.42	2267.34
564.77	2270.10
565.12	2272.45
565.48	2274.49
565.83	2276.49
566.19	2277.92
566.54	2278.90
566.89	2280.09
567.25	2280.95
567.60	2282.16
567.96	2283.99
568.31	2284.96
568.66	2286.26
569.02	2286.93
569.37	2287.39
569.72	2288.35
570.08	2288.54
570.43	2288.68
570.78	2288.01
571.14	2286.59
571.49	2285.30
571.84	2284.90
572.20	2283.80
572.55	2282.80
572.90	2281.15
573.26	2279.85
573.61	2278.21
573.96	2276.60
574.31	2273.88
574.67	2270.88
575.02	2267.46
575.37	2264.12
575.72	2260.38
576.08	2256.92
576.43	2253.58
576.78	2250.12
577.13	2246.90
577.49	2243.61
577.84	2240.29
578.19	2236.54
578.54	2233.04
578.90	2228.99
579.25	2223.54
579.60	2218.70
579.95	2213.77
580.30	2208.85
580.66	2203.75
581.01	2198.85
581.36	2194.04
581.71	2190.01
582.06	2185.70
582.42	2181.34
582.77	2176.36
583.12	2171.94
583.47	2167.54
583.82	2162.77
584.17	2157.57
584.53	2152.10
584.88	2146.73
585.23	2141.26
585.58	2135.91
585.93	2130.43
586.28	2125.66
586.63	2120.74
586.98	2115.64
587.34	2111.02
587.69	2106.13
588.04	2100.95
588.39	2095.47
588.74	2088.99
589.09	2082.83
589.44	2076.22
589.79	2070.26
590.14	2064.57
590.49	2057.91
590.84	2051.31
591.19	2045.44
591.54	2039.06
591.89	2032.12
592.25	2025.55
592.60	2018.28
592.95	2010.93
593.30	2003.74
593.65	1996.21
594.00	1989.21
594.35	1981.99
594.70	1973.82
595.05	1967.08
595.40	1959.90
595.75	1952.56
596.10	1946.52
596.45	1939.91
596.80	1933.81
597.15	1927.43
597.50	1920.60
597.85	1914.28
598.19	1907.77
598.54	1901.00
598.89	1894.38
599.24	1888.40
599.59	1881.92
599.94	1875.65
600.29	1869.27
600.64	1862.65
600.99	1855.38
601.34	1848.69
601.69	1841.84
602.04	1835.29
602.39	1827.82
602.74	1821.04
603.08	1814.27
603.43	1807.62
603.78	1800.35
604.13	1793.09
604.48	1785.88
604.83	1778.99
605.18	1772.44
605.53	1764.64
605.87	1756.53
606.22	1749.38
606.57	1741.45
606.92	1733.90
607.27	1726.93
607.62	1720.26
607.96	1713.29
608.31	1706.83
608.66	1699.34
609.01	1691.97
609.36	1684.54
609.70	1676.62
610.05	1668.66
610.40	1661.14
610.75	1652.76
611.10	1645.07
611.44	1636.68
611.79	1628.56
612.14	1619.90
612.49	1610.57
612.83	1602.14
613.18	1594.06
613.53	1585.88
613.88	1577.41
614.22	1569.29
614.57	1560.69
614.92	1552.67
615.27	1545.13
615.61	1536.80
615.96	1528.80
616.31	1521.12
616.65	1513.62
617.00	1506.13
617.35	1498.40
617.70	1490.11
618.04	1481.68
618.39	1473.48
618.74	1466.06
619.08	1457.77
619.43	1450.27
619.78	1443.24
620.12	1436.28
620.47	1428.80
620.82	1420.70
621.16	1413.19
621.51	1405.52
621.85	1397.87
622.20	1389.43
622.55	1381.06
622.89	1373.21
623.24	1365.49
623.59	1358.08
623.93	1350.61
624.28	1343.28
624.62	1335.89
624.97	1328.66
625.32	1321.87
625.66	1314.78
626.01	1307.58
626.35	1300.26
626.70	1292.50
627.04	1284.95
627.39	1277.09
627.73	1269.58
628.08	1262.76
628.43	1255.72
628.77	1248.44
629.12	1240.96
629.46	1233.73
629.81	1226.12
630.15	1218.86
630.50	1211.54
630.84	1203.38
631.19	1195.46
631.53	1187.93
631.88	1180.28
632.22	1172.66
632.57	1165.36
632.91	1157.88
633.26	1150.57
633.60	1143.12
633.95	1135.88
634.29	1128.75
634.64	1122.15
634.98	1114.99
635.32	1107.86
635.67	1101.09
636.01	1094.34
636.36	1087.60
636.70	1080.98
637.05	1074.50
637.39	1068.07
637.73	1061.63
638.08	1055.76
638.42	1049.76
638.77	1043.44
639.11	1037.03
639.45	1030.73
639.80	1024.14
640.14	1017.84
640.49	1011.28
640.83	1005.01
641.17	998.95
641.52	992.67
641.86	986.07
642.20	980.23
642.55	973.81
642.89	967.46
643.23	960.96
643.58	955.19
643.92	949.13
644.26	943.25
644.61	937.19
644.95	931.21
645.29	924.75
645.64	918.16
645.98	911.86
646.32	905.91
646.66	899.84
647.01	894.03
647.35	888.28
647.69	882.33
648.04	876.89
648.38	871.06
648.72	865.14
649.06	859.29
649.41	853.24
649.75	847.36
650.09	841.37
650.43	835.66
650.78	829.49
651.12	823.51
651.46	817.64
651.80	812.06
652.14	806.60
652.49	801.14
652.83	795.91
653.17	790.28
653.51	784.64
653.85	779.23
654.20	773.68
654.54	767.80
654.88	762.07
655.22	756.20
655.56	750.48
655.90	745.01
656.25	739.71
656.59	734.47
656.93	729.35
657.27	724.28
657.61	718.80
657.95	713.71
658.29	708.68
658.64	703.46
658.98	698.06
659.32	692.61
659.66	687.47
660.00	682.24
660.34	677.21
660.68	672.19
661.02	667.18
661.36	662.48
661.70	657.90
662.05	653.56
662.39	649.25
662.73	644.74
663.07	640.34
663.41	635.84
663.75	631.34
664.09	626.84
664.43	622.42
664.77	618.38
665.11	614.12
665.45	609.96
665.79	605.91
666.13	601.81
666.47	597.63
666.81	593.47
667.15	589.20
667.49	585.29
667.83	581.46
668.17	577.51
668.51	573.41
668.85	569.34
669.19	565.51
669.53	561.60
669.87	557.77
670.21	554.08
670.55	550.39
670.89	546.95
671.23	543.51
671.57	539.94
671.91	536.39
672.25	532.88
672.58	529.34
672.92	525.85
673.26	522.64
673.60	519.49
673.94	516.40
674.28	513.49
674.62	510.57
674.96	507.52
675.30	504.64
675.64	501.72
675.97	498.96
676.31	496.09
676.65	493.14
676.99	490.55
677.33	487.73
677.67	484.92
678.01	481.89
678.34	478.90
678.68	476.10
679.02	473.26
679.36	470.48
679.70	467.78
680.04	465.04
680.37	462.22
680.71	459.41
681.05	456.75
681.39	454.07
681.73	451.37
682.06	448.79
682.40	446.22
682.74	443.67
683.08	441.19
683.42	438.58
683.75	436.11
684.09	433.45
684.43	430.92
684.77	428.48
685.10	426.15
685.44	423.82
685.78	421.53
686.12	419.23
686.45	416.92
686.79	414.67
687.13	412.49
687.46	410.29
687.80	408.19
688.14	405.97
688.48	403.92
688.81	401.76
689.15	399.66
689.49	397.49
689.82	395.42
690.16	393.27
690.50	391.35
690.83	389.42
691.17	387.45
691.51	385.55
691.84	383.69
692.18	381.78
692.52	379.83
692.85	377.85
693.19	376.05
693.52	374.24
693.86	372.38
694.20	370.63
694.53	368.86
694.87	366.98
695.21	365.22
695.54	363.39
695.88	361.61
696.21	359.86
696.55	358.21
696.88	356.59
697.22	354.92
697.56	353.27
697.89	351.66
698.23	350.08
698.56	348.48
698.90	346.88
699.23	345.25
699.57	343.71
699.90	342.18
700.24	340.61
700.58	339.07
700.91	337.64
701.25	336.20
701.58	334.83
701.92	333.49
702.25	332.13
702.59	330.79
702.92	329.51
703.26	328.22
703.59	326.94
703.93	325.74
704.26	324.51
704.60	323.22
704.93	321.92
705.26	320.67
705.60	319.47
705.93	318.32
706.27	317.28
706.60	316.22
706.94	315.17
707.27	314.03
707.61	312.97
707.94	311.90
708.27	310.76
708.61	309.65
708.94	308.64
709.28	307.59
709.61	306.61
709.94	305.64
710.28	304.59
710.61	303.60
710.95	302.49
711.28	301.57
711.61	300.61
711.95	299.73
712.28	298.78
712.61	297.83
712.95	296.87
713.28	295.94
713.61	295.03
713.95	294.11
714.28	293.27
714.61	292.37
714.95	291.52
715.28	290.70
715.61	289.84
715.95	288.98
716.28	288.15
716.61	287.30
716.95	286.47
717.28	285.75
717.61	284.96
717.94	284.19
718.28	283.39
718.61	282.65
718.94	281.96
719.27	281.29
719.61	280.64
719.94	279.99
720.27	279.27
720.60	278.62
720.94	278.03
721.27	277.45
721.60	276.92
721.93	276.32
722.27	275.77
722.60	275.23
722.93	274.67
723.26	274.17
723.59	273.64
723.93	273.09
724.26	272.52
724.59	271.99
724.92	271.50
725.25	270.99
725.59	270.47
725.92	269.93
726.25	269.41
726.58	268.90
726.91	268.46
727.24	268.00
727.57	267.52
727.91	266.96
728.24	266.47
728.57	265.97
728.90	265.51
729.23	265.00
729.56	264.55
729.89	264.09
730.22	263.59
730.55	263.13
730.89	262.68
731.22	262.26
731.55	261.84
731.88	261.40
732.21	260.96
732.54	260.56
732.87	260.12
733.20	259.73
733.53	259.32
733.86	258.92
734.19	258.49
734.52	258.12
734.85	257.81
735.18	257.38
735.51	257.02
735.84	256.66
736.17	256.31
736.50	255.93
736.83	255.69
737.16	255.34
737.49	254.95
737.82	254.61
738.15	254.27
738.48	253.90
738.81	253.59
739.14	253.28
739.47	252.90
739.80	252.58
740.13	252.27
740.46	251.95
740.79	251.63
741.12	251.34
741.45	251.01
741.78	250.66
742.11	250.40
742.44	250.07
742.77	249.81
743.10	249.52
743.43	249.22
743.75	248.85
744.08	248.69
744.41	248.44
744.74	248.18
745.07	247.87
745.40	247.63
745.73	247.39
746.06	247.12
746.39	246.91
746.71	246.68
747.04	246.40
747.37	246.14
747.70	245.88
748.03	245.64
748.36	245.45
748.68	245.20
749.01	244.92
749.34	244.66
749.67	244.43
750.00	244.17
750.33	244.01
750.65	243.78
750.98	243.46
751.31	243.23
751.64	243.01
751.97	242.90
752.29	242.67
752.62	242.39
752.95	242.18
753.28	241.96
753.60	241.73
753.93	241.55
754.26	241.35
754.59	241.11
754.91	240.86
755.24	240.60
755.57	240.42
755.90	240.26
756.22	240.11
756.55	239.87
756.88	239.67
757.20	239.44
757.53	239.26
757.86	239.07
758.19	238.90
758.51	238.75
758.84	238.50
759.17	238.36
759.49	238.22
759.82	238.12
760.15	237.99
760.47	237.82
760.80	237.68
761.13	237.55
761.45	237.40
761.78	237.26
762.11	237.16
762.43	237.00
762.76	236.87
763.08	236.76
763.41	236.66
763.74	236.51
764.06	236.36
764.39	236.18
764.71	236.08
765.04	235.94
765.37	235.81
765.69	235.69
766.02	235.56
766.34	235.46
766.67	235.28
767.00	235.15
767.32	235.13
767.65	235.05
767.97	234.92
768.30	234.82
768.62	234.74
768.95	234.61
769.27	234.51
769.60	234.44
769.92	234.29
770.25	234.14
770.57	234.06
770.90	233.97
771.22	233.88
771.55	233.75
771.87	233.65
772.20	233.54
772.52	233.53
772.85	233.54
773.17	233.43
773.50	233.32
773.82	233.21
774.15	233.05
774.47	232.92
774.80	232.85
775.12	232.76
775.45	232.66
775.77	232.58
776.09	232.51
776.42	232.39
776.74	232.35
777.07	232.28
777.39	232.21
777.72	232.12
778.04	232.04
778.36	231.96
778.69	231.89
779.01	231.84
779.33	231.69
779.66	231.51
779.98	231.41
780.31	231.36
780.63	231.31
780.95	231.26
781.28	231.20
781.60	231.12
781.92	231.08
782.25	231.03
782.57	230.97
782.89	230.90
783.22	230.83
783.54	230.74
783.86	230.71
784.19	230.65
784.51	230.62
784.83	230.58
785.16	230.53
785.48	230.50
785.80	230.45
786.12	230.40
786.45	230.34
786.77	230.34
787.09	230.29
787.42	230.22
787.74	230.21
788.06	230.15
788.38	230.12
788.71	230.08
789.03	230.04
789.35	230.02
789.67	229.96
789.99	229.91
790.32	229.84
790.64	229.82
790.96	229.85
791.28	229.80
791.61	229.74
791.93	229.72
792.25	229.68
792.57	229.68
792.89	229.64
793.21	229.62
793.54	229.56
793.86	229.51
794.18	229.48
794.50	229.37
794.82	229.33
795.14	229.28
795.47	229.25
795.79	229.22
796.11	229.15
796.43	229.14
796.75	229.13
797.07	229.11
797.39	229.06
797.71	228.94
798.04	228.92
798.36	228.91
798.68	228.86
799.00	228.84
799.32	228.80
799.64	228.77
799.96	228.75
800.28	228.77
800.60	228.74
800.92	228.72
801.24	228.72
801.56	228.74
801.89	228.69
802.21	228.65
802.53	228.62
802.85	228.64
803.17	228.67
803.49	228.59
803.81	228.58
804.13	228.55
804.45	228.54
804.77	228.52
805.09	228.49
805.41	228.45
805.73	228.43
806.05	228.34
806.37	228.32
806.69	228.27
807.01	228.21
807.33	228.20
807.65	228.15
807.97	228.13
808.28	228.08
808.60	228.07
808.92	228.06
809.24	228.09
809.56	228.03
809.88	227.92
810.20	227.97
810.52	227.92
810.84	227.90
811.16	227.85
811.48	227.80
811.80	227.78
812.12	227.74
812.43	227.70
812.75	227.68
813.07	227.68
813.39	227.63
813.71	227.58
814.03	227.51
814.35	227.50
814.67	227.48
814.98	227.44
815.30	227.39
815.62	227.34
815.94	227.25
816.26	227.28
816.58	227.27
816.89	227.24
817.21	227.23
817.53	227.21
817.85	227.22
818.17	227.20
818.48	227.17
818.80	227.21
819.12	227.17
819.44	227.14
819.76	227.08
820.07	227.10
820.39	227.05
820.71	227.05
821.03	227.02
821.34	227.01
821.66	227.04
821.98	227.04
822.30	227.05
822.61	227.13
822.93	227.03
823.25	227.06
823.57	227.01
823.88	227.01
824.20	227.01
824.52	227.00
824.83	227.00
825.15	227.00
825.47	226.97
825.79	226.98
826.10	226.98
826.42	226.98
826.74	226.99
827.05	227.01
827.37	227.00
827.69	226.97
828.00	226.96
828.32	226.91
828.64	226.90
828.95	226.94
829.27	226.86
829.58	226.88
829.90	226.85
830.22	226.86
830.53	226.82
830.85	226.82
831.17	226.79
831.48	226.80
831.80	226.79
832.11	226.78
832.43	226.76
832.75	226.76
833.06	226.84
833.38	226.81
833.69	226.80
834.01	226.80
834.32	226.80
834.64	226.78
834.96	226.80
835.27	226.78
835.59	226.72
835.90	226.69
836.22	226.68
836.53	226.64
836.85	226.66
837.16	226.75
837.48	226.73
837.79	226.74
838.11	226.70
838.42	226.66
838.74	226.66
839.05	226.65
839.37	226.61
839.68	226.50
840.00	226.49
840.31	226.49
840.63	226.49
840.94	226.49
841.26	226.46
841.57	226.44
841.88	226.44
842.20	226.41
842.51	226.42
842.83	226.42
843.14	226.52
843.46	226.46
843.77	226.41
844.08	226.38
844.40	226.35
844.71	226.34
845.03	226.36
845.34	226.34
845.65	226.33
845.97	226.36
846.28	226.35
846.60	226.33
846.91	226.31
847.22	226.29
847.54	226.29
847.85	226.30
848.16	226.28
848.48	226.27
848.79	226.32
849.10	226.34
849.42	226.33
849.73	226.23
850.04	226.27
850.36	226.22
850.67	226.28
850.98	226.28
851.30	226.32
851.61	226.32
851.92	226.30
852.23	226.32
852.55	226.29
852.86	226.30
853.17	226.33
853.49	226.36
853.80	226.38
854.11	226.39
854.42	226.39
854.74	226.38
855.05	226.40
855.36	226.34
855.67	226.31
855.99	226.28
856.30	226.39
856.61	226.36
856.92	226.32
857.23	226.28
857.55	226.24
857.86	226.21
858.17	226.19
858.48	226.18
858.79	226.17
859.11	226.20
859.42	226.19
859.73	226.19
860.04	226.19
860.35	226.19
860.66	226.15
860.98	226.16
861.29	226.19
861.60	226.15
861.91	226.19
862.22	226.17
862.53	226.15
862.84	226.03
863.16	226.08
863.47	226.11
863.78	226.12
864.09	226.17
864.40	226.19
864.71	226.20
865.02	226.23
865.33	226.19
865.64	226.19
865.95	226.20
866.27	226.28
866.58	226.28
866.89	226.26
867.20	226.27
867.51	226.25
867.82	226.25
868.13	226.28
868.44	226.24
868.75	226.28
869.06	226.31
869.37	226.32
869.68	226.28
869.99	226.28
870.30	226.28
870.61	226.28
870.92	226.21
871.23	226.18
871.54	226.16
871.85	226.18
872.16	226.16
872.47	226.14
872.78	226.02
873.09	226.00
873.40	225.97
873.71	225.97
874.02	225.95
874.33	225.96
874.64	225.93
874.95	225.94
875.26	225.91
875.56	225.88
875.87	225.90
876.18	225.87
876.49	225.97
876.80	225.95
877.11	225.95
877.42	225.99
877.73	226.00
878.04	226.01
878.35	226.04
878.66	226.03
878.96	226.04
879.27	226.04
879.58	226.02
879.89	226.04
880.20	226.04
880.51	226.04
880.82	226.01
881.12	226.02
881.43	226.00
881.74	225.97
882.05	225.97
882.36	225.92
882.67	225.95
882.97	225.81
883.28	225.80
883.59	225.75
883.90	225.75
884.21	225.74
884.51	225.71
884.82	225.65
885.13	225.65
885.44	225.62
885.74	225.62
886.05	225.60
886.36	225.58
886.67	225.54
886.98	225.58
887.28	225.57
887.59	225.55
887.90	225.53
888.20	225.51
888.51	225.54
888.82	225.55
889.13	225.53
889.43	225.64
889.74	225.64
890.05	225.64
890.35	225.62
890.66	225.62
890.97	225.61
891.28	225.59
891.58	225.57
891.89	225.57
892.20	225.56
892.50	225.57
892.81	225.59
893.12	225.58
893.42	225.54
893.73	225.57
894.04	225.54
894.34	225.58
894.65	225.59
894.95	225.55
895.26	225.57
895.57	225.62
895.87	225.51
896.18	225.52
896.48	225.51
896.79	225.50
897.10	225.51
897.40	225.53
897.71	225.56
898.01	225.57
898.32	225.62
898.63	225.63
898.93	225.67
899.24	225.67
899.54	225.68
899.85	225.65
900.15	225.65
900.46	225.69
900.76	225.69
901.07	225.70
901.38	225.71
901.68	225.70
901.99	225.64
902.29	225.67
902.60	225.65
902.90	225.66
903.21	225.68
903.51	225.67
903.82	225.69
904.12	225.71
904.43	225.70
904.73	225.66
905.03	225.67
905.34	225.75
905.64	225.74
905.95	225.76
906.25	225.82
906.56	225.81
906.86	225.80
907.17	225.80
907.47	225.82
907.77	225.83
908.08	225.81
908.38	225.81
908.69	225.82
908.99	225.81
909.30	225.83
909.60	225.84
909.90	225.84
910.21	225.81
910.51	225.78
910.81	225.80
911.12	225.82
911.42	225.82
911.73	225.73
912.03	225.74
912.33	225.76
912.64	225.70
912.94	225.68
913.24	225.68
913.55	225.66
913.85	225.64
914.15	225.64
914.46	225.67
914.76	225.68
915.06	225.67
915.37	225.66
915.67	225.66
915.97	225.63
916.27	225.59
916.58	225.61
916.88	225.62
917.18	225.60
917.49	225.66
917.79	225.63
918.09	225.64
918.39	225.64
918.70	225.59
919.00	225.61
919.30	225.62
919.60	225.59
919.91	225.60
920.21	225.61
920.51	225.58
920.81	225.57
921.12	225.59
921.42	225.56
921.72	225.61
922.02	225.60
922.32	225.64
922.63	225.67
922.93	225.71
923.23	225.70
923.53	225.67
923.83	225.59
924.13	225.61
924.44	225.58
924.74	225.57
925.04	225.60
925.34	225.59
925.64	225.55
925.94	225.55
926.24	225.59
926.55	225.57
926.85	225.61
927.15	225.59
927.45	225.56
927.75	225.57
928.05	225.52
928.35	225.51
928.65	225.53
928.95	225.53
929.26	225.48
929.56	225.49
929.86	225.52
930.16	225.51
930.46	225.49
930.76	225.50
931.06	225.49
931.36	225.47
931.66	225.49
931.96	225.54
932.26	225.54
932.56	225.50
932.86	225.50
933.16	225.50
933.46	225.51
933.76	225.51
934.06	225.49
934.36	225.56
934.66	225.57
934.96	225.51
935.26	225.51
935.56	225.56
935.86	225.53
936.16	225.53
936.46	225.54
936.76	225.55
937.06	225.53
937.36	225.54
937.66	225.57
937.96	225.56
938.26	225.55
938.56	225.55
938.86	225.56
939.16	225.60
939.46	225.62
939.76	225.61
940.06	225.61
940.35	225.62
940.65	225.54
940.95	225.52
941.25	225.52
941.55	225.50
941.85	225.48
942.15	225.50
942.45	225.54
942.75	225.54
943.04	225.54
943.34	225.55
943.64	225.54
943.94	225.52
944.24	225.56
944.54	225.57
944.84	225.58
945.13	225.53
945.43	225.50
945.73	225.47
946.03	225.47
946.33	225.46
946.62	225.46
946.92	225.48
947.22	225.53
947.52	225.54
947.82	225.58
948.11	225.58
948.41	225.59
948.71	225.55
949.01	225.56
949.31	225.59
949.60	225.60
949.90	225.60
950.20	225.60
950.50	225.58
950.79	225.54
951.09	225.55
951.39	225.56
951.69	225.56
951.98	225.58
952.28	225.57
952.58	225.56
952.87	225.56
953.17	225.55
953.47	225.50
953.76	225.48
954.06	225.40
954.36	225.37
954.66	225.37
954.95	225.38
955.25	225.36
955.55	225.34
955.84	225.31
956.14	225.32
956.44	225.31
956.73	225.29
957.03	225.32
957.32	225.31
957.62	225.31
957.92	225.34
958.21	225.29
958.51	225.41
958.81	225.41
959.10	225.41
959.40	225.44
959.69	225.47
959.99	225.48
960.29	225.50
960.58	225.46
960.88	225.48
961.17	225.45
961.47	225.47
961.76	225.44
962.06	225.43
962.36	225.40
962.65	225.41
962.95	225.38
963.24	225.35
963.54	225.36
963.83	225.34
964.13	225.30
964.42	225.30
964.72	225.17
965.01	225.17
965.31	225.17
965.60	225.16
965.90	225.19
966.19	225.18
966.49	225.21
966.78	225.25
967.08	225.25
967.37	225.30
967.67	225.29
967.96	225.33
968.26	225.32
968.55	225.32
968.85	225.31
969.14	225.31
969.43	225.30
969.73	225.27
970.02	225.26
970.32	225.32
970.61	225.33
970.91	225.37
971.20	225.37
971.49	225.35
971.79	225.39
972.08	225.34
972.38	225.35
972.67	225.34
972.96	225.35
973.26	225.35
973.55	225.40
973.85	225.41
974.14	225.40
974.43	225.46
974.73	225.46
975.02	225.47
975.31	225.49
975.61	225.50
975.90	225.51
976.19	225.52
976.49	225.51
976.78	225.50
977.07	225.51
977.37	225.53
977.66	225.57
977.95	225.54
978.24	225.54
978.54	225.57
978.83	225.58
979.12	225.61
979.42	225.60
979.71	225.54
980.00	225.53
980.29	225.53
980.59	225.50
980.88	225.56
981.17	225.56
981.46	225.59
981.76	225.60
982.05	225.65
982.34	225.67
982.63	225.67
982.93	225.70
983.22	225.69
983.51	225.71
983.80	225.69
984.09	225.71
984.39	225.73
984.68	225.70
984.97	225.69
985.26	225.67
985.55	225.67
985.85	225.68
986.14	225.70
986.43	225.72
986.72	225.72
987.01	225.70
987.30	225.67
987.59	225.66
987.89	225.66
988.18	225.64
988.47	225.65
988.76	225.62
989.05	225.59
989.34	225.60
989.63	225.62
989.92	225.61
990.22	225.60
990.51	225.60
990.80	225.59
991.09	225.57
991.38	225.53
991.67	225.51
991.96	225.48
992.25	225.46
992.54	225.39
992.83	225.37
993.12	225.33
993.41	225.35
993.70	225.40
993.99	225.39
994.28	225.36
994.58	225.37
994.87	225.35
995.16	225.34
995.45	225.32
995.74	225.26
996.03	225.27
996.32	225.28
996.61	225.25
996.90	225.25
997.19	225.23
997.48	225.25
997.77	225.24
998.06	225.24
998.34	225.23
998.63	225.26
998.92	225.26
999.21	225.27
999.50	225.26
999.79	225.19
1000.08	225.19
1000.37	225.19
1000.66	225.12
1000.95	225.15
1001.24	225.14
1001.53	225.13
1001.82	225.11
1002.11	225.10
1002.40	225.09
1002.68	225.12
1002.97	225.18
1003.26	225.20
1003.55	225.18
1003.84	225.18
1004.13	225.20
1004.42	225.19
1004.71	225.20
1004.99	225.21
1005.28	225.25
1005.57	225.25
1005.86	225.28
1006.15	225.25
1006.44	225.27
1006.72	225.29
1007.01	225.29
1007.30	225.32
1007.59	225.33
1007.88	225.35
1008.17	225.34
1008.45	225.33
1008.74	225.32
1009.03	225.31
1009.32	225.32
1009.60	225.34
1009.89	225.36
1010.18	225.33
1010.47	225.32
1010.76	225.33
1011.04	225.30
1011.33	225.29
1011.62	225.31
1011.91	225.30
1012.19	225.32
1012.48	225.33
1012.77	225.34
1013.05	225.41
1013.34	225.39
1013.63	225.40
1013.92	225.42
1014.20	225.42
1014.49	225.41
1014.78	225.40
1015.06	225.34
1015.35	225.35
1015.64	225.36
1015.92	225.38
1016.21	225.37
1016.50	225.39
1016.78	225.38
1017.07	225.39
1017.36	225.38
1017.64	225.38
1017.93	225.39
1018.22	225.39
1018.50	225.38
1018.79	225.39
1019.08	225.35
1019.36	225.35
1019.65	225.35
1019.93	225.34
1020.22	225.34
1020.51	225.40
1020.79	225.41
1021.08	225.50
1021.36	225.18
1021.65	225.43
1021.94	225.85
1022.22	225.03
1022.51	225.58
1022.79	225.43
1023.08	225.26
1023.36	226.44
1023.65	225.02
>>>>>End Processed Spectral Data<<<<<
