SpectraSuite Data File
++++++++++++++++++++++++++++++++++++
Date: Fri Feb 01 16:47:59 EST 2013
User: group
Dark Spectrum Present: No
Reference Spectrum Present: No
Number of Sampled Component Spectra: 1
Spectrometers: USB2E7196
Integration Time (usec): 35000 (USB2E7196)
Spectra Averaged: 100 (USB2E7196)
Boxcar Smoothing: 10 (USB2E7196)
Correct for Electrical Dark: No (USB2E7196)
Strobe/Lamp Enabled: No (USB2E7196)
Correct for Detector Non-linearity: No (USB2E7196)
Correct for Stray Light: No (USB2E7196)
Number of Pixels in Processed Spectrum: 2048
>>>>>Begin Processed Spectral Data<<<<<
339.09	0.00
339.48	213.01
339.86	214.50
340.24	216.22
340.63	217.60
341.01	220.66
341.39	220.31
341.78	221.29
342.16	222.70
342.54	223.24
342.93	211.69
343.31	222.38
343.69	222.92
344.07	223.42
344.46	223.88
344.84	224.25
345.22	224.49
345.60	224.73
345.99	224.92
346.37	225.05
346.75	225.17
347.13	225.24
347.52	225.29
347.90	225.39
348.28	225.44
348.66	225.47
349.05	225.48
349.43	225.50
349.81	225.56
350.19	225.63
350.57	225.67
350.96	225.74
351.34	225.86
351.72	225.96
352.10	226.05
352.48	226.08
352.87	226.15
353.25	226.18
353.63	226.24
354.01	226.31
354.39	226.39
354.77	226.46
355.15	226.60
355.54	226.69
355.92	226.72
356.30	226.81
356.68	226.94
357.06	227.02
357.44	227.09
357.82	227.17
358.20	227.26
358.58	227.29
358.97	227.36
359.35	227.39
359.73	227.47
360.11	227.51
360.49	227.54
360.87	227.57
361.25	227.66
361.63	227.73
362.01	227.78
362.39	227.80
362.77	227.83
363.15	227.83
363.53	227.81
363.91	227.84
364.29	227.85
364.67	227.78
365.05	227.77
365.43	227.77
365.81	227.76
366.19	227.77
366.57	227.84
366.95	227.86
367.33	227.87
367.71	227.87
368.09	227.87
368.47	227.89
368.85	227.87
369.23	227.88
369.61	227.84
369.99	227.84
370.37	227.80
370.75	227.81
371.13	227.76
371.51	227.73
371.89	227.69
372.27	227.66
372.65	227.62
373.03	227.60
373.41	227.56
373.78	227.50
374.16	227.41
374.54	227.33
374.92	227.25
375.30	227.16
375.68	227.05
376.06	226.99
376.44	226.94
376.82	226.93
377.19	226.84
377.57	226.77
377.95	226.67
378.33	226.63
378.71	226.52
379.09	226.47
379.47	226.39
379.84	226.34
380.22	226.26
380.60	226.16
380.98	226.10
381.36	226.02
381.73	225.93
382.11	225.85
382.49	225.79
382.87	225.71
383.25	225.69
383.62	225.73
384.00	225.67
384.38	225.62
384.76	225.54
385.13	225.54
385.51	225.51
385.89	225.47
386.27	225.44
386.64	225.40
387.02	225.36
387.40	225.30
387.78	225.23
388.15	225.21
388.53	225.21
388.91	225.13
389.29	225.12
389.66	225.15
390.04	225.15
390.42	225.13
390.79	225.14
391.17	225.11
391.55	225.02
391.92	224.99
392.30	224.96
392.68	224.96
393.05	224.93
393.43	224.92
393.81	224.93
394.18	224.89
394.56	224.93
394.94	224.94
395.31	224.97
395.69	225.08
396.06	225.11
396.44	225.12
396.82	225.17
397.19	225.26
397.57	225.25
397.95	225.30
398.32	225.35
398.70	225.38
399.07	225.45
399.45	225.47
399.82	225.53
400.20	225.57
400.58	225.60
400.95	225.61
401.33	225.69
401.70	225.83
402.08	225.93
402.45	226.00
402.83	226.12
403.20	226.21
403.58	226.27
403.95	226.37
404.33	226.54
404.71	226.67
405.08	226.86
405.46	227.01
405.83	227.14
406.21	227.23
406.58	227.38
406.96	227.53
407.33	227.75
407.70	227.94
408.08	228.23
408.45	228.47
408.83	228.73
409.20	228.93
409.58	229.10
409.95	229.38
410.33	229.62
410.70	229.84
411.08	230.13
411.45	230.44
411.82	230.71
412.20	231.03
412.57	231.46
412.95	231.72
413.32	232.14
413.69	232.55
414.07	233.02
414.44	233.49
414.82	233.95
415.19	234.46
415.56	234.97
415.94	235.51
416.31	236.16
416.68	236.78
417.06	237.51
417.43	238.19
417.81	238.95
418.18	239.73
418.55	240.59
418.93	241.48
419.30	242.36
419.67	243.31
420.04	244.25
420.42	245.20
420.79	246.38
421.16	247.52
421.54	248.69
421.91	249.91
422.28	251.17
422.66	252.51
423.03	253.83
423.40	255.16
423.77	256.58
424.15	258.00
424.52	259.47
424.89	261.10
425.26	262.63
425.64	264.03
426.01	265.64
426.38	267.30
426.75	268.98
427.13	270.68
427.50	272.47
427.87	274.36
428.24	276.21
428.61	277.90
428.99	279.79
429.36	281.86
429.73	283.90
430.10	285.90
430.47	287.91
430.85	289.99
431.22	292.20
431.59	294.53
431.96	296.73
432.33	299.18
432.70	301.51
433.08	304.31
433.45	306.94
433.82	309.48
434.19	312.31
434.56	315.07
434.93	317.71
435.30	320.34
435.68	323.17
436.05	325.96
436.42	328.74
436.79	331.25
437.16	333.93
437.53	336.70
437.90	339.47
438.27	342.23
438.64	345.03
439.01	347.62
439.38	349.78
439.75	351.94
440.13	354.37
440.50	356.66
440.87	358.49
441.24	360.39
441.61	362.51
441.98	363.99
442.35	365.75
442.72	367.58
443.09	369.39
443.46	370.40
443.83	370.99
444.20	371.50
444.57	372.32
444.94	372.63
445.31	372.98
445.68	373.38
446.05	373.46
446.42	373.09
446.79	372.72
447.16	372.34
447.53	372.03
447.90	370.95
448.27	369.85
448.64	368.32
449.01	367.23
449.37	365.36
449.74	363.51
450.11	361.32
450.48	358.91
450.85	356.37
451.22	354.23
451.59	352.23
451.96	350.33
452.33	347.82
452.70	345.44
453.07	342.63
453.43	339.74
453.80	337.01
454.17	334.37
454.54	331.83
454.91	329.11
455.28	326.48
455.65	324.04
456.02	321.64
456.38	319.49
456.75	316.88
457.12	314.64
457.49	312.41
457.86	310.28
458.23	308.44
458.59	306.45
458.96	304.41
459.33	302.61
459.70	300.79
460.07	299.29
460.43	297.63
460.80	296.04
461.17	294.63
461.54	293.10
461.91	291.68
462.27	290.26
462.64	289.05
463.01	287.72
463.38	286.40
463.74	285.02
464.11	283.83
464.48	282.80
464.85	281.68
465.21	280.85
465.58	279.90
465.95	278.81
466.32	277.88
466.68	276.98
467.05	276.08
467.42	275.20
467.78	274.23
468.15	273.34
468.52	272.67
468.88	271.83
469.25	271.14
469.62	270.53
469.98	269.83
470.35	269.19
470.72	268.58
471.08	267.95
471.45	267.39
471.82	266.87
472.18	266.26
472.55	265.83
472.92	265.28
473.28	264.83
473.65	264.38
474.02	263.97
474.38	263.60
474.75	263.31
475.11	262.97
475.48	262.72
475.85	262.52
476.21	262.31
476.58	262.12
476.94	261.93
477.31	261.74
477.67	261.61
478.04	261.47
478.41	261.44
478.77	261.48
479.14	261.44
479.50	261.51
479.87	261.59
480.23	261.68
480.60	261.77
480.96	261.87
481.33	262.11
481.69	262.31
482.06	262.51
482.42	262.67
482.79	262.91
483.15	263.27
483.52	263.66
483.88	263.99
484.25	264.35
484.61	264.81
484.98	265.29
485.34	265.87
485.71	266.48
486.07	267.07
486.44	267.63
486.80	268.33
487.17	269.03
487.53	269.88
487.90	270.74
488.26	271.67
488.62	272.66
488.99	273.64
489.35	274.71
489.72	275.86
490.08	277.08
490.44	278.37
490.81	279.69
491.17	281.03
491.54	282.55
491.90	284.13
492.26	285.80
492.63	287.55
492.99	289.35
493.36	291.26
493.72	293.33
494.08	295.47
494.45	297.77
494.81	300.15
495.17	302.56
495.54	305.12
495.90	307.82
496.26	310.65
496.63	313.64
496.99	316.76
497.35	320.05
497.72	323.48
498.08	326.97
498.44	330.68
498.80	334.60
499.17	338.62
499.53	342.82
499.89	347.14
500.26	351.66
500.62	356.32
500.98	361.29
501.34	366.33
501.71	371.61
502.07	377.04
502.43	382.65
502.79	388.48
503.16	394.55
503.52	400.78
503.88	407.20
504.24	413.79
504.60	420.65
504.97	427.74
505.33	435.00
505.69	442.68
506.05	450.45
506.41	458.30
506.78	466.47
507.14	474.84
507.50	483.52
507.86	492.47
508.22	501.60
508.59	510.78
508.95	520.34
509.31	530.12
509.67	540.14
510.03	550.38
510.39	560.87
510.75	571.57
511.12	582.47
511.48	593.67
511.84	605.03
512.20	616.43
512.56	628.37
512.92	640.48
513.28	652.79
513.64	665.16
514.00	677.87
514.37	690.68
514.73	703.70
515.09	716.66
515.45	729.81
515.81	743.37
516.17	757.20
516.53	771.26
516.89	785.42
517.25	799.49
517.61	813.80
517.97	828.16
518.33	842.43
518.69	857.09
519.05	871.93
519.41	886.95
519.77	902.41
520.13	917.72
520.49	933.06
520.85	948.34
521.21	963.89
521.57	979.92
521.93	995.46
522.29	1011.68
522.65	1027.83
523.01	1043.99
523.37	1059.76
523.73	1075.79
524.09	1091.69
524.45	1107.70
524.81	1124.12
525.17	1140.77
525.53	1157.42
525.89	1174.18
526.25	1190.87
526.61	1207.10
526.97	1223.74
527.33	1240.01
527.68	1256.42
528.04	1272.67
528.40	1289.03
528.76	1305.96
529.12	1322.36
529.48	1339.28
529.84	1355.03
530.20	1371.48
530.56	1388.26
530.91	1405.55
531.27	1422.18
531.63	1438.39
531.99	1454.96
532.35	1470.79
532.71	1486.56
533.07	1502.62
533.42	1518.46
533.78	1534.39
534.14	1550.41
534.50	1565.69
534.86	1581.33
535.21	1596.39
535.57	1612.08
535.93	1627.39
536.29	1642.03
536.65	1656.93
537.00	1671.41
537.36	1686.73
537.72	1701.05
538.08	1715.32
538.44	1728.96
538.79	1742.72
539.15	1756.16
539.51	1769.58
539.87	1783.85
540.22	1797.36
540.58	1810.86
540.94	1823.84
541.29	1836.31
541.65	1848.92
542.01	1861.77
542.37	1874.04
542.72	1886.11
543.08	1897.76
543.44	1910.04
543.79	1921.03
544.15	1931.89
544.51	1943.38
544.87	1954.07
545.22	1964.81
545.58	1974.86
545.94	1984.57
546.29	1994.27
546.65	2004.21
547.01	2013.47
547.36	2021.96
547.72	2030.36
548.07	2038.36
548.43	2046.57
548.79	2054.65
549.14	2062.11
549.50	2069.31
549.86	2076.71
550.21	2084.10
550.57	2091.15
550.92	2097.71
551.28	2104.72
551.64	2111.63
551.99	2117.97
552.35	2124.07
552.70	2130.09
553.06	2136.13
553.41	2142.39
553.77	2148.33
554.13	2154.23
554.48	2160.23
554.84	2165.84
555.19	2171.05
555.55	2176.26
555.90	2180.72
556.26	2185.64
556.61	2190.21
556.97	2194.72
557.32	2198.96
557.68	2203.01
558.03	2207.27
558.39	2210.84
558.74	2215.42
559.10	2219.40
559.45	2223.15
559.81	2227.39
560.16	2231.27
560.52	2234.44
560.87	2237.63
561.23	2240.23
561.58	2243.03
561.94	2245.49
562.29	2247.63
562.64	2250.40
563.00	2252.90
563.35	2256.37
563.71	2259.36
564.06	2262.72
564.42	2265.61
564.77	2268.32
565.12	2270.71
565.48	2272.67
565.83	2274.73
566.19	2276.22
566.54	2277.10
566.89	2278.20
567.25	2279.04
567.60	2280.32
567.96	2282.24
568.31	2283.27
568.66	2284.59
569.02	2285.38
569.37	2285.95
569.72	2287.10
570.08	2287.32
570.43	2287.39
570.78	2286.96
571.14	2285.58
571.49	2284.36
571.84	2283.92
572.20	2282.73
572.55	2281.72
572.90	2280.29
573.26	2278.99
573.61	2277.33
573.96	2275.74
574.31	2273.08
574.67	2270.14
575.02	2266.61
575.37	2263.17
575.72	2259.59
576.08	2256.23
576.43	2252.96
576.78	2249.51
577.13	2246.31
577.49	2243.19
577.84	2239.92
578.19	2236.21
578.54	2232.79
578.90	2228.68
579.25	2223.39
579.60	2218.71
579.95	2213.92
580.30	2209.08
580.66	2203.94
581.01	2199.07
581.36	2194.25
581.71	2190.18
582.06	2185.93
582.42	2181.64
582.77	2176.50
583.12	2172.11
583.47	2167.68
583.82	2163.02
584.17	2157.70
584.53	2152.29
584.88	2146.83
585.23	2141.10
585.58	2135.57
585.93	2130.18
586.28	2125.47
586.63	2120.48
586.98	2115.39
587.34	2110.76
587.69	2105.83
588.04	2100.83
588.39	2095.28
588.74	2088.79
589.09	2082.78
589.44	2075.96
589.79	2069.84
590.14	2064.34
590.49	2057.75
590.84	2051.29
591.19	2045.20
591.54	2038.87
591.89	2031.77
592.25	2025.21
592.60	2018.14
592.95	2010.96
593.30	2003.66
593.65	1996.11
594.00	1989.14
594.35	1981.96
594.70	1973.87
595.05	1966.86
595.40	1959.61
595.75	1952.13
596.10	1946.13
596.45	1939.44
596.80	1933.50
597.15	1927.28
597.50	1920.43
597.85	1914.08
598.19	1907.60
598.54	1900.77
598.89	1894.32
599.24	1888.40
599.59	1881.89
599.94	1875.71
600.29	1869.35
600.64	1862.85
600.99	1855.64
601.34	1848.97
601.69	1841.96
602.04	1835.27
602.39	1828.02
602.74	1821.27
603.08	1814.67
603.43	1807.98
603.78	1800.65
604.13	1793.51
604.48	1786.26
604.83	1779.32
605.18	1772.46
605.53	1764.67
605.87	1756.74
606.22	1749.48
606.57	1741.67
606.92	1734.17
607.27	1727.20
607.62	1720.46
607.96	1713.34
608.31	1706.84
608.66	1699.39
609.01	1692.15
609.36	1684.76
609.70	1676.78
610.05	1668.82
610.40	1661.25
610.75	1653.09
611.10	1645.59
611.44	1637.05
611.79	1628.95
612.14	1620.40
612.49	1611.32
612.83	1602.87
613.18	1594.66
613.53	1586.64
613.88	1578.13
614.22	1569.93
614.57	1561.19
614.92	1553.12
615.27	1545.72
615.61	1537.36
615.96	1529.25
616.31	1521.58
616.65	1514.08
617.00	1506.56
617.35	1498.81
617.70	1490.44
618.04	1481.92
618.39	1473.58
618.74	1466.12
619.08	1457.91
619.43	1450.25
619.78	1443.33
620.12	1436.23
620.47	1428.84
620.82	1420.74
621.16	1413.20
621.51	1405.49
621.85	1397.92
622.20	1389.49
622.55	1381.05
622.89	1373.18
623.24	1365.43
623.59	1357.98
623.93	1350.47
624.28	1343.24
624.62	1335.81
624.97	1328.54
625.32	1321.79
625.66	1314.83
626.01	1307.71
626.35	1300.44
626.70	1292.75
627.04	1285.10
627.39	1277.27
627.73	1269.78
628.08	1262.86
628.43	1255.76
628.77	1248.64
629.12	1241.17
629.46	1234.03
629.81	1226.51
630.15	1219.35
630.50	1212.12
630.84	1204.01
631.19	1196.18
631.53	1188.66
631.88	1181.16
632.22	1173.65
632.57	1166.36
632.91	1158.80
633.26	1151.37
633.60	1143.85
633.95	1136.70
634.29	1129.49
634.64	1122.82
634.98	1115.47
635.32	1108.20
635.67	1101.43
636.01	1094.60
636.36	1087.81
636.70	1081.22
637.05	1074.72
637.39	1068.21
637.73	1061.69
638.08	1055.80
638.42	1049.75
638.77	1043.39
639.11	1036.80
639.45	1030.47
639.80	1023.87
640.14	1017.49
640.49	1011.02
640.83	1004.81
641.17	998.70
641.52	992.56
641.86	986.14
642.20	980.44
642.55	974.14
642.89	967.83
643.23	961.30
643.58	955.54
643.92	949.36
644.26	943.38
644.61	937.29
644.95	931.34
645.29	924.82
645.64	918.13
645.98	911.70
646.32	905.72
646.66	899.72
647.01	893.89
647.35	888.19
647.69	882.31
648.04	876.64
648.38	870.84
648.72	864.85
649.06	858.77
649.41	852.74
649.75	846.87
650.09	840.90
650.43	835.21
650.78	829.06
651.12	823.08
651.46	817.35
651.80	811.71
652.14	806.24
652.49	800.86
652.83	795.62
653.17	790.07
653.51	784.54
653.85	779.13
654.20	773.53
654.54	767.54
654.88	761.81
655.22	756.00
655.56	750.26
655.90	744.80
656.25	739.61
656.59	734.31
656.93	729.14
657.27	723.98
657.61	718.54
657.95	713.43
658.29	708.43
658.64	703.10
658.98	697.71
659.32	692.32
659.66	687.05
660.00	681.85
660.34	676.88
660.68	671.90
661.02	666.85
661.36	662.12
661.70	657.62
662.05	653.26
662.39	648.96
662.73	644.45
663.07	640.02
663.41	635.56
663.75	631.05
664.09	626.56
664.43	622.16
664.77	618.05
665.11	613.75
665.45	609.58
665.79	605.59
666.13	601.44
666.47	597.33
666.81	593.19
667.15	589.07
667.49	585.13
667.83	581.27
668.17	577.38
668.51	573.27
668.85	569.23
669.19	565.37
669.53	561.50
669.87	557.75
670.21	554.08
670.55	550.41
670.89	546.99
671.23	543.51
671.57	539.99
671.91	536.50
672.25	532.93
672.58	529.41
672.92	525.88
673.26	522.75
673.60	519.58
673.94	516.55
674.28	513.58
674.62	510.63
674.96	507.49
675.30	504.58
675.64	501.65
675.97	498.83
676.31	495.89
676.65	492.98
676.99	490.20
677.33	487.32
677.67	484.55
678.01	481.50
678.34	478.59
678.68	475.66
679.02	472.81
679.36	470.16
679.70	467.41
680.04	464.73
680.37	461.87
680.71	459.08
681.05	456.43
681.39	453.73
681.73	451.05
682.06	448.56
682.40	445.97
682.74	443.45
683.08	440.93
683.42	438.36
683.75	435.80
684.09	433.24
684.43	430.73
684.77	428.23
685.10	425.90
685.44	423.48
685.78	421.18
686.12	418.90
686.45	416.53
686.79	414.28
687.13	412.03
687.46	409.81
687.80	407.60
688.14	405.29
688.48	403.21
688.81	401.02
689.15	398.84
689.49	396.67
689.82	394.58
690.16	392.47
690.50	390.54
690.83	388.63
691.17	386.65
691.51	384.74
691.84	382.88
692.18	380.91
692.52	379.01
692.85	377.07
693.19	375.20
693.52	373.42
693.86	371.58
694.20	369.78
694.53	368.03
694.87	366.24
695.21	364.47
695.54	362.63
695.88	360.88
696.21	359.20
696.55	357.59
696.88	355.94
697.22	354.29
697.56	352.65
697.89	351.00
698.23	349.43
698.56	347.86
698.90	346.34
699.23	344.71
699.57	343.17
699.90	341.63
700.24	340.10
700.58	338.59
700.91	337.17
701.25	335.76
701.58	334.44
701.92	333.08
702.25	331.76
702.59	330.50
702.92	329.22
703.26	327.94
703.59	326.63
703.93	325.48
704.26	324.24
704.60	322.98
704.93	321.74
705.26	320.47
705.60	319.29
705.93	318.09
706.27	317.10
706.60	316.05
706.94	315.02
707.27	313.89
707.61	312.80
707.94	311.72
708.27	310.63
708.61	309.49
708.94	308.50
709.28	307.51
709.61	306.48
709.94	305.51
710.28	304.45
710.61	303.48
710.95	302.36
711.28	301.49
711.61	300.53
711.95	299.61
712.28	298.72
712.61	297.75
712.95	296.80
713.28	295.90
713.61	294.98
713.95	294.09
714.28	293.27
714.61	292.41
714.95	291.57
715.28	290.73
715.61	289.88
715.95	288.98
716.28	288.12
716.61	287.30
716.95	286.50
717.28	285.77
717.61	284.98
717.94	284.27
718.28	283.41
718.61	282.66
718.94	281.94
719.27	281.23
719.61	280.57
719.94	279.92
720.27	279.18
720.60	278.53
720.94	277.88
721.27	277.26
721.60	276.68
721.93	276.04
722.27	275.46
722.60	274.89
722.93	274.30
723.26	273.77
723.59	273.20
723.93	272.61
724.26	272.02
724.59	271.46
724.92	270.84
725.25	270.38
725.59	269.84
725.92	269.32
726.25	268.79
726.58	268.29
726.91	267.78
727.24	267.28
727.57	266.81
727.91	266.29
728.24	265.83
728.57	265.32
728.90	264.87
729.23	264.37
729.56	263.94
729.89	263.48
730.22	262.99
730.55	262.51
730.89	262.08
731.22	261.67
731.55	261.23
731.88	260.86
732.21	260.41
732.54	259.98
732.87	259.57
733.20	259.16
733.53	258.76
733.86	258.37
734.19	257.99
734.52	257.61
734.85	257.35
735.18	256.91
735.51	256.56
735.84	256.25
736.17	255.94
736.50	255.52
736.83	255.30
737.16	254.97
737.49	254.64
737.82	254.30
738.15	253.95
738.48	253.60
738.81	253.28
739.14	252.95
739.47	252.69
739.80	252.41
740.13	252.12
740.46	251.82
740.79	251.54
741.12	251.26
741.45	250.95
741.78	250.59
742.11	250.36
742.44	250.02
742.77	249.72
743.10	249.41
743.43	249.12
743.75	248.76
744.08	248.63
744.41	248.39
744.74	248.13
745.07	247.85
745.40	247.66
745.73	247.44
746.06	247.18
746.39	246.91
746.71	246.62
747.04	246.37
747.37	246.14
747.70	245.90
748.03	245.66
748.36	245.48
748.68	245.25
749.01	245.00
749.34	244.77
749.67	244.53
750.00	244.31
750.33	244.17
750.65	243.97
750.98	243.63
751.31	243.38
751.64	243.19
751.97	243.08
752.29	242.85
752.62	242.58
752.95	242.37
753.28	242.16
753.60	241.96
753.93	241.79
754.26	241.58
754.59	241.33
754.91	241.14
755.24	240.89
755.57	240.67
755.90	240.48
756.22	240.34
756.55	240.13
756.88	239.99
757.20	239.75
757.53	239.52
757.86	239.32
758.19	239.15
758.51	238.96
758.84	238.72
759.17	238.53
759.49	238.41
759.82	238.28
760.15	238.11
760.47	237.98
760.80	237.76
761.13	237.61
761.45	237.45
761.78	237.30
762.11	237.16
762.43	237.02
762.76	236.88
763.08	236.71
763.41	236.57
763.74	236.38
764.06	236.25
764.39	236.08
764.71	235.95
765.04	235.83
765.37	235.70
765.69	235.54
766.02	235.41
766.34	235.23
766.67	235.07
767.00	234.96
767.32	234.83
767.65	234.78
767.97	234.68
768.30	234.59
768.62	234.46
768.95	234.35
769.27	234.24
769.60	234.15
769.92	234.06
770.25	233.94
770.57	233.82
770.90	233.70
771.22	233.60
771.55	233.49
771.87	233.39
772.20	233.26
772.52	233.27
772.85	233.29
773.17	233.22
773.50	233.12
773.82	233.04
774.15	232.91
774.47	232.78
774.80	232.67
775.12	232.59
775.45	232.50
775.77	232.41
776.09	232.32
776.42	232.22
776.74	232.17
777.07	232.09
777.39	232.01
777.72	231.93
778.04	231.93
778.36	231.85
778.69	231.79
779.01	231.74
779.33	231.58
779.66	231.42
779.98	231.35
780.31	231.28
780.63	231.23
780.95	231.20
781.28	231.14
781.60	231.05
781.92	230.97
782.25	230.95
782.57	230.90
782.89	230.84
783.22	230.80
783.54	230.70
783.86	230.66
784.19	230.62
784.51	230.60
784.83	230.50
785.16	230.46
785.48	230.42
785.80	230.39
786.12	230.36
786.45	230.30
786.77	230.27
787.09	230.23
787.42	230.16
787.74	230.13
788.06	230.07
788.38	230.01
788.71	229.97
789.03	229.86
789.35	229.84
789.67	229.79
789.99	229.72
790.32	229.70
790.64	229.68
790.96	229.71
791.28	229.66
791.61	229.61
791.93	229.57
792.25	229.54
792.57	229.54
792.89	229.50
793.21	229.49
793.54	229.42
793.86	229.38
794.18	229.34
794.50	229.27
794.82	229.25
795.14	229.24
795.47	229.24
795.79	229.23
796.11	229.16
796.43	229.13
796.75	229.08
797.07	229.02
797.39	228.94
797.71	228.81
798.04	228.77
798.36	228.73
798.68	228.69
799.00	228.65
799.32	228.57
799.64	228.53
799.96	228.44
800.28	228.42
800.60	228.41
800.92	228.39
801.24	228.36
801.56	228.37
801.89	228.33
802.21	228.27
802.53	228.22
802.85	228.22
803.17	228.23
803.49	228.18
803.81	228.18
804.13	228.17
804.45	228.16
804.77	228.12
805.09	228.13
805.41	228.09
805.73	228.06
806.05	228.04
806.37	228.00
806.69	227.97
807.01	227.95
807.33	227.91
807.65	227.88
807.97	227.92
808.28	227.85
808.60	227.81
808.92	227.79
809.24	227.82
809.56	227.77
809.88	227.75
810.20	227.76
810.52	227.75
810.84	227.71
811.16	227.68
811.48	227.65
811.80	227.64
812.12	227.65
812.43	227.64
812.75	227.63
813.07	227.63
813.39	227.66
813.71	227.64
814.03	227.58
814.35	227.54
814.67	227.47
814.98	227.43
815.30	227.42
815.62	227.40
815.94	227.32
816.26	227.32
816.58	227.24
816.89	227.24
817.21	227.21
817.53	227.21
817.85	227.21
818.17	227.19
818.48	227.13
818.80	227.11
819.12	227.05
819.44	226.99
819.76	226.92
820.07	226.86
820.39	226.84
820.71	226.87
821.03	226.89
821.34	226.86
821.66	226.87
821.98	226.84
822.30	226.79
822.61	226.85
822.93	226.81
823.25	226.80
823.57	226.74
823.88	226.76
824.20	226.72
824.52	226.72
824.83	226.68
825.15	226.66
825.47	226.63
825.79	226.61
826.10	226.61
826.42	226.61
826.74	226.62
827.05	226.56
827.37	226.56
827.69	226.50
828.00	226.49
828.32	226.46
828.64	226.46
828.95	226.51
829.27	226.45
829.58	226.44
829.90	226.48
830.22	226.49
830.53	226.44
830.85	226.45
831.17	226.41
831.48	226.45
831.80	226.45
832.11	226.43
832.43	226.42
832.75	226.41
833.06	226.45
833.38	226.39
833.69	226.39
834.01	226.37
834.32	226.35
834.64	226.36
834.96	226.36
835.27	226.33
835.59	226.29
835.90	226.28
836.22	226.29
836.53	226.23
836.85	226.22
837.16	226.30
837.48	226.26
837.79	226.29
838.11	226.27
838.42	226.26
838.74	226.28
839.05	226.29
839.37	226.29
839.68	226.24
840.00	226.25
840.31	226.27
840.63	226.23
840.94	226.28
841.26	226.23
841.57	226.22
841.88	226.21
842.20	226.21
842.51	226.17
842.83	226.12
843.14	226.21
843.46	226.18
843.77	226.10
844.08	226.10
844.40	226.05
844.71	226.00
845.03	225.97
845.34	225.96
845.65	225.93
845.97	225.91
846.28	225.93
846.60	225.94
846.91	225.93
847.22	225.93
847.54	225.93
847.85	225.95
848.16	225.95
848.48	225.97
848.79	225.99
849.10	225.99
849.42	226.03
849.73	225.93
850.04	225.95
850.36	225.91
850.67	225.92
850.98	225.93
851.30	225.95
851.61	225.96
851.92	225.95
852.23	225.96
852.55	225.98
852.86	225.92
853.17	225.92
853.49	225.93
853.80	225.92
854.11	225.91
854.42	225.95
854.74	225.92
855.05	225.93
855.36	225.89
855.67	225.89
855.99	225.91
856.30	226.00
856.61	225.97
856.92	225.99
857.23	226.00
857.55	225.99
857.86	226.00
858.17	226.02
858.48	226.00
858.79	226.02
859.11	226.02
859.42	226.04
859.73	226.03
860.04	225.99
860.35	226.01
860.66	225.98
860.98	225.97
861.29	225.97
861.60	225.94
861.91	225.97
862.22	225.94
862.53	225.89
862.84	225.79
863.16	225.84
863.47	225.85
863.78	225.84
864.09	225.84
864.40	225.84
864.71	225.83
865.02	225.81
865.33	225.76
865.64	225.76
865.95	225.76
866.27	225.83
866.58	225.88
866.89	225.87
867.20	225.84
867.51	225.78
867.82	225.79
868.13	225.85
868.44	225.84
868.75	225.85
869.06	225.88
869.37	225.89
869.68	225.85
869.99	225.84
870.30	225.85
870.61	225.85
870.92	225.84
871.23	225.82
871.54	225.84
871.85	225.91
872.16	225.89
872.47	225.87
872.78	225.81
873.09	225.79
873.40	225.78
873.71	225.81
874.02	225.85
874.33	225.82
874.64	225.77
874.95	225.78
875.26	225.80
875.56	225.76
875.87	225.77
876.18	225.77
876.49	225.85
876.80	225.85
877.11	225.86
877.42	225.87
877.73	225.86
878.04	225.88
878.35	225.85
878.66	225.87
878.96	225.85
879.27	225.84
879.58	225.81
879.89	225.80
880.20	225.83
880.51	225.84
880.82	225.87
881.12	225.88
881.43	225.85
881.74	225.83
882.05	225.84
882.36	225.81
882.67	225.82
882.97	225.70
883.28	225.71
883.59	225.69
883.90	225.70
884.21	225.72
884.51	225.69
884.82	225.72
885.13	225.71
885.44	225.74
885.74	225.74
886.05	225.75
886.36	225.77
886.67	225.72
886.98	225.73
887.28	225.72
887.59	225.70
887.90	225.67
888.20	225.67
888.51	225.70
888.82	225.68
889.13	225.69
889.43	225.80
889.74	225.76
890.05	225.74
890.35	225.74
890.66	225.74
890.97	225.75
891.28	225.70
891.58	225.67
891.89	225.63
892.20	225.62
892.50	225.63
892.81	225.62
893.12	225.64
893.42	225.60
893.73	225.61
894.04	225.60
894.34	225.62
894.65	225.62
894.95	225.62
895.26	225.64
895.57	225.68
895.87	225.58
896.18	225.61
896.48	225.61
896.79	225.62
897.10	225.59
897.40	225.58
897.71	225.59
898.01	225.61
898.32	225.65
898.63	225.67
898.93	225.65
899.24	225.65
899.54	225.63
899.85	225.63
900.15	225.60
900.46	225.63
900.76	225.62
901.07	225.61
901.38	225.59
901.68	225.59
901.99	225.55
902.29	225.52
902.60	225.49
902.90	225.51
903.21	225.52
903.51	225.50
903.82	225.54
904.12	225.52
904.43	225.51
904.73	225.48
905.03	225.45
905.34	225.57
905.64	225.55
905.95	225.54
906.25	225.54
906.56	225.56
906.86	225.56
907.17	225.59
907.47	225.59
907.77	225.57
908.08	225.54
908.38	225.55
908.69	225.58
908.99	225.63
909.30	225.63
909.60	225.61
909.90	225.64
910.21	225.60
910.51	225.60
910.81	225.59
911.12	225.60
911.42	225.65
911.73	225.53
912.03	225.54
912.33	225.57
912.64	225.59
912.94	225.52
913.24	225.50
913.55	225.49
913.85	225.48
914.15	225.52
914.46	225.54
914.76	225.52
915.06	225.54
915.37	225.50
915.67	225.50
915.97	225.49
916.27	225.47
916.58	225.49
916.88	225.51
917.18	225.54
917.49	225.63
917.79	225.60
918.09	225.59
918.39	225.61
918.70	225.60
919.00	225.57
919.30	225.65
919.60	225.65
919.91	225.66
920.21	225.70
920.51	225.67
920.81	225.63
921.12	225.66
921.42	225.62
921.72	225.63
922.02	225.62
922.32	225.63
922.63	225.63
922.93	225.65
923.23	225.63
923.53	225.60
923.83	225.51
924.13	225.54
924.44	225.52
924.74	225.54
925.04	225.57
925.34	225.58
925.64	225.56
925.94	225.56
926.24	225.57
926.55	225.56
926.85	225.57
927.15	225.58
927.45	225.60
927.75	225.61
928.05	225.61
928.35	225.58
928.65	225.58
928.95	225.59
929.26	225.57
929.56	225.59
929.86	225.61
930.16	225.62
930.46	225.59
930.76	225.64
931.06	225.59
931.36	225.59
931.66	225.56
931.96	225.57
932.26	225.54
932.56	225.51
932.86	225.50
933.16	225.47
933.46	225.47
933.76	225.43
934.06	225.42
934.36	225.45
934.66	225.46
934.96	225.47
935.26	225.45
935.56	225.47
935.86	225.44
936.16	225.46
936.46	225.46
936.76	225.42
937.06	225.39
937.36	225.39
937.66	225.36
937.96	225.42
938.26	225.38
938.56	225.38
938.86	225.38
939.16	225.38
939.46	225.45
939.76	225.46
940.06	225.47
940.35	225.48
940.65	225.43
940.95	225.46
941.25	225.44
941.55	225.46
941.85	225.42
942.15	225.43
942.45	225.42
942.75	225.39
943.04	225.44
943.34	225.46
943.64	225.46
943.94	225.47
944.24	225.46
944.54	225.47
944.84	225.49
945.13	225.51
945.43	225.51
945.73	225.47
946.03	225.42
946.33	225.39
946.62	225.38
946.92	225.37
947.22	225.38
947.52	225.39
947.82	225.38
948.11	225.38
948.41	225.38
948.71	225.39
949.01	225.41
949.31	225.39
949.60	225.41
949.90	225.44
950.20	225.46
950.50	225.46
950.79	225.47
951.09	225.47
951.39	225.43
951.69	225.42
951.98	225.49
952.28	225.56
952.58	225.58
952.87	225.59
953.17	225.59
953.47	225.56
953.76	225.56
954.06	225.55
954.36	225.50
954.66	225.52
954.95	225.53
955.25	225.53
955.55	225.53
955.84	225.51
956.14	225.51
956.44	225.49
956.73	225.46
957.03	225.45
957.32	225.43
957.62	225.45
957.92	225.47
958.21	225.42
958.51	225.53
958.81	225.53
959.10	225.54
959.40	225.57
959.69	225.58
959.99	225.59
960.29	225.61
960.58	225.64
960.88	225.64
961.17	225.63
961.47	225.65
961.76	225.63
962.06	225.63
962.36	225.60
962.65	225.60
962.95	225.60
963.24	225.55
963.54	225.58
963.83	225.58
964.13	225.58
964.42	225.53
964.72	225.43
965.01	225.42
965.31	225.42
965.60	225.41
965.90	225.48
966.19	225.45
966.49	225.46
966.78	225.45
967.08	225.43
967.37	225.41
967.67	225.36
967.96	225.37
968.26	225.40
968.55	225.41
968.85	225.40
969.14	225.42
969.43	225.45
969.73	225.43
970.02	225.42
970.32	225.41
970.61	225.40
970.91	225.37
971.20	225.35
971.49	225.36
971.79	225.35
972.08	225.28
972.38	225.28
972.67	225.24
972.96	225.25
973.26	225.29
973.55	225.32
973.85	225.34
974.14	225.32
974.43	225.32
974.73	225.30
975.02	225.29
975.31	225.27
975.61	225.29
975.90	225.29
976.19	225.29
976.49	225.29
976.78	225.30
977.07	225.27
977.37	225.29
977.66	225.27
977.95	225.24
978.24	225.28
978.54	225.31
978.83	225.33
979.12	225.32
979.42	225.29
979.71	225.29
980.00	225.25
980.29	225.25
980.59	225.20
980.88	225.22
981.17	225.19
981.46	225.19
981.76	225.18
982.05	225.20
982.34	225.22
982.63	225.21
982.93	225.20
983.22	225.23
983.51	225.22
983.80	225.26
984.09	225.26
984.39	225.22
984.68	225.14
984.97	225.12
985.26	225.13
985.55	225.16
985.85	225.12
986.14	225.18
986.43	225.20
986.72	225.21
987.01	225.18
987.30	225.22
987.59	225.24
987.89	225.23
988.18	225.22
988.47	225.20
988.76	225.21
989.05	225.23
989.34	225.24
989.63	225.28
989.92	225.27
990.22	225.28
990.51	225.29
990.80	225.33
991.09	225.35
991.38	225.36
991.67	225.31
991.96	225.31
992.25	225.30
992.54	225.28
992.83	225.27
993.12	225.29
993.41	225.30
993.70	225.32
993.99	225.37
994.28	225.39
994.58	225.43
994.87	225.41
995.16	225.38
995.45	225.36
995.74	225.32
996.03	225.34
996.32	225.37
996.61	225.40
996.90	225.41
997.19	225.41
997.48	225.39
997.77	225.38
998.06	225.37
998.34	225.39
998.63	225.39
998.92	225.41
999.21	225.41
999.50	225.38
999.79	225.36
1000.08	225.35
1000.37	225.35
1000.66	225.31
1000.95	225.34
1001.24	225.37
1001.53	225.40
1001.82	225.40
1002.11	225.35
1002.40	225.34
1002.68	225.32
1002.97	225.39
1003.26	225.38
1003.55	225.36
1003.84	225.41
1004.13	225.49
1004.42	225.46
1004.71	225.49
1004.99	225.46
1005.28	225.49
1005.57	225.51
1005.86	225.50
1006.15	225.50
1006.44	225.48
1006.72	225.50
1007.01	225.49
1007.30	225.47
1007.59	225.46
1007.88	225.43
1008.17	225.45
1008.45	225.41
1008.74	225.40
1009.03	225.32
1009.32	225.31
1009.60	225.33
1009.89	225.25
1010.18	225.21
1010.47	225.21
1010.76	225.19
1011.04	225.23
1011.33	225.21
1011.62	225.23
1011.91	225.22
1012.19	225.18
1012.48	225.14
1012.77	225.12
1013.05	225.18
1013.34	225.18
1013.63	225.14
1013.92	225.20
1014.20	225.19
1014.49	225.22
1014.78	225.24
1015.06	225.19
1015.35	225.19
1015.64	225.23
1015.92	225.29
1016.21	225.26
1016.50	225.26
1016.78	225.29
1017.07	225.29
1017.36	225.28
1017.64	225.25
1017.93	225.26
1018.22	225.27
1018.50	225.29
1018.79	225.32
1019.08	225.26
1019.36	225.26
1019.65	225.28
1019.93	225.28
1020.22	225.30
1020.51	225.32
1020.79	225.28
1021.08	225.23
1021.36	225.04
1021.65	225.54
1021.94	225.47
1022.22	225.05
1022.51	225.08
1022.79	225.93
1023.08	225.52
1023.36	225.82
1023.65	224.73
>>>>>End Processed Spectral Data<<<<<
