SpectraSuite Data File
++++++++++++++++++++++++++++++++++++
Date: Fri Feb 01 14:59:38 EST 2013
User: group
Dark Spectrum Present: No
Reference Spectrum Present: No
Number of Sampled Component Spectra: 1
Spectrometers: USB2E7196
Integration Time (usec): 35000 (USB2E7196)
Spectra Averaged: 100 (USB2E7196)
Boxcar Smoothing: 10 (USB2E7196)
Correct for Electrical Dark: No (USB2E7196)
Strobe/Lamp Enabled: No (USB2E7196)
Correct for Detector Non-linearity: No (USB2E7196)
Correct for Stray Light: No (USB2E7196)
Number of Pixels in Processed Spectrum: 2048
>>>>>Begin Processed Spectral Data<<<<<
339.09	0.00
339.48	215.07
339.86	216.52
340.24	218.10
340.63	219.80
341.01	222.19
341.39	222.53
341.78	224.20
342.16	224.46
342.54	225.51
342.93	213.75
343.31	224.54
343.69	225.10
344.07	225.60
344.46	226.04
344.84	226.37
345.22	226.63
345.60	226.86
345.99	227.02
346.37	227.16
346.75	227.23
347.13	227.27
347.52	227.30
347.90	227.37
348.28	227.41
348.66	227.41
349.05	227.39
349.43	227.45
349.81	227.49
350.19	227.53
350.57	227.58
350.96	227.65
351.34	227.72
351.72	227.79
352.10	227.86
352.48	227.90
352.87	228.02
353.25	228.08
353.63	228.15
354.01	228.19
354.39	228.28
354.77	228.36
355.15	228.44
355.54	228.50
355.92	228.55
356.30	228.60
356.68	228.75
357.06	228.85
357.44	228.91
357.82	228.98
358.20	229.07
358.58	229.14
358.97	229.21
359.35	229.32
359.73	229.41
360.11	229.46
360.49	229.53
360.87	229.53
361.25	229.57
361.63	229.64
362.01	229.71
362.39	229.72
362.77	229.75
363.15	229.77
363.53	229.80
363.91	229.78
364.29	229.78
364.67	229.68
365.05	229.69
365.43	229.70
365.81	229.66
366.19	229.67
366.57	229.68
366.95	229.63
367.33	229.57
367.71	229.53
368.09	229.52
368.47	229.49
368.85	229.46
369.23	229.47
369.61	229.41
369.99	229.39
370.37	229.38
370.75	229.39
371.13	229.36
371.51	229.29
371.89	229.28
372.27	229.24
372.65	229.22
373.03	229.14
373.41	229.06
373.78	229.01
374.16	228.87
374.54	228.79
374.92	228.74
375.30	228.69
375.68	228.64
376.06	228.55
376.44	228.46
376.82	228.40
377.19	228.31
377.57	228.24
377.95	228.13
378.33	228.02
378.71	227.90
379.09	227.84
379.47	227.80
379.84	227.72
380.22	227.65
380.60	227.53
380.98	227.47
381.36	227.40
381.73	227.28
382.11	227.26
382.49	227.14
382.87	227.03
383.25	226.96
383.62	226.97
384.00	226.89
384.38	226.85
384.76	226.79
385.13	226.79
385.51	226.72
385.89	226.63
386.27	226.60
386.64	226.56
387.02	226.50
387.40	226.46
387.78	226.41
388.15	226.37
388.53	226.35
388.91	226.33
389.29	226.32
389.66	226.33
390.04	226.29
390.42	226.34
390.79	226.35
391.17	226.33
391.55	226.24
391.92	226.27
392.30	226.29
392.68	226.30
393.05	226.30
393.43	226.33
393.81	226.37
394.18	226.36
394.56	226.39
394.94	226.45
395.31	226.46
395.69	226.55
396.06	226.61
396.44	226.66
396.82	226.67
397.19	226.73
397.57	226.79
397.95	226.89
398.32	226.92
398.70	227.00
399.07	227.10
399.45	227.19
399.82	227.26
400.20	227.32
400.58	227.41
400.95	227.44
401.33	227.55
401.70	227.72
402.08	227.87
402.45	227.95
402.83	228.10
403.20	228.22
403.58	228.31
403.95	228.46
404.33	228.60
404.71	228.76
405.08	228.96
405.46	229.11
405.83	229.29
406.21	229.44
406.58	229.61
406.96	229.78
407.33	229.95
407.70	230.15
408.08	230.40
408.45	230.59
408.83	230.85
409.20	231.06
409.58	231.26
409.95	231.50
410.33	231.80
410.70	232.00
411.08	232.31
411.45	232.62
411.82	232.92
412.20	233.31
412.57	233.72
412.95	233.96
413.32	234.36
413.69	234.71
414.07	235.13
414.44	235.63
414.82	236.08
415.19	236.62
415.56	237.17
415.94	237.73
416.31	238.40
416.68	239.01
417.06	239.72
417.43	240.39
417.81	241.17
418.18	241.95
418.55	242.80
418.93	243.68
419.30	244.57
419.67	245.50
420.04	246.44
420.42	247.45
420.79	248.67
421.16	249.82
421.54	251.02
421.91	252.26
422.28	253.49
422.66	254.88
423.03	256.19
423.40	257.54
423.77	258.94
424.15	260.33
424.52	261.83
424.89	263.45
425.26	264.98
425.64	266.40
426.01	267.97
426.38	269.61
426.75	271.27
427.13	272.97
427.50	274.75
427.87	276.60
428.24	278.42
428.61	280.14
428.99	282.10
429.36	284.19
429.73	286.27
430.10	288.29
430.47	290.31
430.85	292.43
431.22	294.63
431.59	297.03
431.96	299.33
432.33	301.85
432.70	304.24
433.08	307.07
433.45	309.72
433.82	312.34
434.19	315.26
434.56	318.07
434.93	320.77
435.30	323.41
435.68	326.32
436.05	329.20
436.42	332.04
436.79	334.58
437.16	337.27
437.53	340.13
437.90	342.95
438.27	345.68
438.64	348.47
439.01	351.08
439.38	353.26
439.75	355.42
440.13	357.89
440.50	360.19
440.87	362.03
441.24	364.00
441.61	366.16
441.98	367.63
442.35	369.47
442.72	371.30
443.09	373.07
443.46	374.11
443.83	374.69
444.20	375.17
444.57	376.00
444.94	376.33
445.31	376.60
445.68	376.97
446.05	377.06
446.42	376.72
446.79	376.33
447.16	375.93
447.53	375.59
447.90	374.45
448.27	373.32
448.64	371.73
449.01	370.60
449.37	368.59
449.74	366.66
450.11	364.43
450.48	361.99
450.85	359.52
451.22	357.33
451.59	355.30
451.96	353.40
452.33	350.80
452.70	348.42
453.07	345.65
453.43	342.75
453.80	339.98
454.17	337.29
454.54	334.72
454.91	331.96
455.28	329.30
455.65	326.78
456.02	324.35
456.38	322.23
456.75	319.55
457.12	317.36
457.49	315.17
457.86	312.98
458.23	311.09
458.59	308.97
458.96	306.90
459.33	305.05
459.70	303.11
460.07	301.58
460.43	299.88
460.80	298.22
461.17	296.79
461.54	295.30
461.91	293.86
462.27	292.39
462.64	291.11
463.01	289.74
463.38	288.46
463.74	287.06
464.11	285.85
464.48	284.83
464.85	283.67
465.21	282.81
465.58	281.85
465.95	280.74
466.32	279.86
466.68	278.92
467.05	278.01
467.42	277.12
467.78	276.18
468.15	275.32
468.52	274.65
468.88	273.78
469.25	272.95
469.62	272.29
469.98	271.62
470.35	270.99
470.72	270.35
471.08	269.65
471.45	269.08
471.82	268.54
472.18	267.90
472.55	267.48
472.92	266.93
473.28	266.43
473.65	265.96
474.02	265.54
474.38	265.14
474.75	264.83
475.11	264.47
475.48	264.20
475.85	263.92
476.21	263.65
476.58	263.40
476.94	263.26
477.31	263.10
477.67	262.92
478.04	262.80
478.41	262.73
478.77	262.75
479.14	262.69
479.50	262.68
479.87	262.75
480.23	262.78
480.60	262.80
480.96	262.90
481.33	263.11
481.69	263.26
482.06	263.48
482.42	263.64
482.79	263.94
483.15	264.22
483.52	264.60
483.88	264.95
484.25	265.36
484.61	265.80
484.98	266.27
485.34	266.81
485.71	267.40
486.07	268.03
486.44	268.62
486.80	269.35
487.17	270.07
487.53	270.88
487.90	271.72
488.26	272.73
488.62	273.72
488.99	274.67
489.35	275.74
489.72	276.84
490.08	278.06
490.44	279.26
490.81	280.63
491.17	281.97
491.54	283.45
491.90	284.99
492.26	286.63
492.63	288.34
492.99	290.12
493.36	292.05
493.72	294.08
494.08	296.15
494.45	298.40
494.81	300.78
495.17	303.19
495.54	305.73
495.90	308.37
496.26	311.20
496.63	314.17
496.99	317.24
497.35	320.49
497.72	323.84
498.08	327.37
498.44	330.98
498.80	334.89
499.17	338.92
499.53	343.08
499.89	347.42
500.26	351.88
500.62	356.57
500.98	361.50
501.34	366.54
501.71	371.86
502.07	377.25
502.43	382.83
502.79	388.65
503.16	394.71
503.52	400.94
503.88	407.32
504.24	413.92
504.60	420.79
504.97	427.85
505.33	435.16
505.69	442.79
506.05	450.53
506.41	458.29
506.78	466.43
507.14	474.81
507.50	483.51
507.86	492.57
508.22	501.70
508.59	510.83
508.95	520.37
509.31	530.19
509.67	540.28
510.03	550.52
510.39	561.07
510.75	571.85
511.12	582.81
511.48	594.07
511.84	605.53
512.20	617.02
512.56	629.03
512.92	641.24
513.28	653.54
513.64	666.04
514.00	678.85
514.37	691.69
514.73	704.81
515.09	717.90
515.45	731.13
515.81	744.68
516.17	758.72
516.53	772.93
516.89	787.02
517.25	801.08
517.61	815.63
517.97	830.10
518.33	844.58
518.69	859.32
519.05	874.38
519.41	889.58
519.77	905.22
520.13	920.65
520.49	935.99
520.85	951.47
521.21	967.18
521.57	983.45
521.93	999.34
522.29	1015.70
522.65	1031.97
523.01	1048.26
523.37	1064.37
523.73	1080.52
524.09	1096.65
524.45	1113.06
524.81	1129.93
525.17	1146.82
525.53	1163.76
525.89	1180.61
526.25	1197.53
526.61	1213.92
526.97	1230.66
527.33	1247.19
527.68	1263.93
528.04	1280.54
528.40	1297.24
528.76	1314.45
529.12	1331.10
529.48	1348.11
529.84	1364.30
530.20	1381.03
530.56	1398.19
530.91	1415.65
531.27	1432.51
531.63	1449.01
531.99	1465.71
532.35	1481.61
532.71	1497.45
533.07	1513.81
533.42	1529.90
533.78	1545.86
534.14	1562.24
534.50	1577.67
534.86	1593.63
535.21	1608.89
535.57	1624.80
535.93	1640.38
536.29	1655.29
536.65	1670.49
537.00	1685.34
537.36	1700.70
537.72	1715.39
538.08	1729.91
538.44	1743.84
538.79	1757.87
539.15	1771.74
539.51	1785.67
539.87	1800.27
540.22	1814.11
540.58	1828.11
540.94	1841.54
541.29	1854.77
541.65	1867.70
542.01	1881.08
542.37	1893.43
542.72	1905.89
543.08	1917.84
543.44	1930.38
543.79	1941.68
544.15	1952.62
544.51	1964.29
544.87	1975.30
545.22	1985.98
545.58	1996.11
545.94	2005.87
546.29	2015.84
546.65	2025.61
547.01	2034.64
547.36	2043.35
547.72	2051.87
548.07	2059.66
548.43	2067.79
548.79	2075.83
549.14	2083.16
549.50	2090.64
549.86	2098.38
550.21	2105.64
550.57	2112.96
550.92	2119.46
551.28	2126.62
551.64	2133.78
551.99	2140.22
552.35	2146.33
552.70	2152.55
553.06	2158.55
553.41	2164.92
553.77	2170.93
554.13	2177.04
554.48	2183.33
554.84	2188.68
555.19	2194.01
555.55	2199.08
555.90	2203.60
556.26	2208.37
556.61	2213.07
556.97	2217.08
557.32	2221.13
557.68	2225.27
558.03	2229.40
558.39	2232.97
558.74	2237.41
559.10	2241.14
559.45	2244.72
559.81	2249.04
560.16	2252.75
560.52	2255.94
560.87	2259.26
561.23	2261.86
561.58	2264.83
561.94	2267.20
562.29	2269.54
562.64	2272.15
563.00	2274.73
563.35	2278.07
563.71	2281.00
564.06	2284.14
564.42	2286.98
564.77	2289.35
565.12	2291.46
565.48	2293.12
565.83	2294.92
566.19	2295.89
566.54	2296.79
566.89	2297.90
567.25	2298.35
567.60	2299.70
567.96	2301.18
568.31	2301.95
568.66	2302.77
569.02	2303.31
569.37	2303.45
569.72	2304.19
570.08	2304.07
570.43	2303.76
570.78	2302.91
571.14	2301.38
571.49	2299.88
571.84	2299.34
572.20	2298.03
572.55	2296.84
572.90	2295.26
573.26	2293.79
573.61	2292.16
573.96	2290.08
574.31	2286.81
574.67	2283.64
575.02	2279.78
575.37	2276.21
575.72	2272.19
576.08	2268.74
576.43	2265.14
576.78	2261.39
577.13	2258.02
577.49	2254.74
577.84	2251.15
578.19	2247.47
578.54	2243.48
578.90	2239.14
579.25	2233.56
579.60	2228.41
579.95	2223.32
580.30	2218.14
580.66	2212.81
581.01	2207.75
581.36	2202.76
581.71	2198.56
582.06	2193.90
582.42	2189.33
582.77	2184.00
583.12	2179.28
583.47	2174.46
583.82	2169.25
584.17	2163.86
584.53	2158.30
584.88	2152.62
585.23	2146.62
585.58	2140.89
585.93	2135.42
586.28	2130.64
586.63	2125.51
586.98	2120.42
587.34	2115.60
587.69	2110.64
588.04	2105.15
588.39	2099.30
588.74	2092.85
589.09	2086.54
589.44	2079.67
589.79	2073.38
590.14	2067.64
590.49	2060.95
590.84	2054.41
591.19	2048.26
591.54	2041.75
591.89	2034.12
592.25	2027.12
592.60	2019.96
592.95	2012.21
593.30	2004.77
593.65	1996.89
594.00	1989.75
594.35	1982.45
594.70	1974.22
595.05	1966.88
595.40	1959.68
595.75	1952.21
596.10	1945.77
596.45	1938.80
596.80	1932.58
597.15	1925.92
597.50	1918.68
597.85	1912.35
598.19	1905.70
598.54	1898.61
598.89	1891.87
599.24	1886.02
599.59	1879.35
599.94	1872.99
600.29	1866.76
600.64	1860.14
600.99	1852.73
601.34	1845.73
601.69	1838.68
602.04	1831.78
602.39	1824.42
602.74	1817.49
603.08	1810.65
603.43	1804.02
603.78	1796.81
604.13	1789.53
604.48	1782.18
604.83	1775.51
605.18	1768.36
605.53	1760.27
605.87	1752.21
606.22	1744.95
606.57	1737.01
606.92	1729.69
607.27	1722.59
607.62	1715.64
607.96	1708.44
608.31	1701.84
608.66	1694.22
609.01	1686.66
609.36	1679.18
609.70	1671.14
610.05	1663.02
610.40	1655.38
610.75	1646.97
611.10	1639.38
611.44	1631.06
611.79	1623.15
612.14	1614.43
612.49	1605.33
612.83	1597.08
613.18	1589.03
613.53	1581.00
613.88	1572.53
614.22	1564.20
614.57	1555.69
614.92	1547.64
615.27	1540.02
615.61	1531.72
615.96	1523.74
616.31	1516.14
616.65	1508.74
617.00	1501.21
617.35	1493.67
617.70	1485.24
618.04	1476.69
618.39	1468.47
618.74	1460.90
619.08	1452.64
619.43	1445.06
619.78	1438.18
620.12	1430.97
620.47	1423.50
620.82	1415.31
621.16	1407.96
621.51	1400.49
621.85	1393.00
622.20	1384.60
622.55	1376.41
622.89	1368.57
623.24	1361.04
623.59	1353.83
623.93	1346.36
624.28	1339.07
624.62	1331.65
624.97	1324.58
625.32	1318.07
625.66	1311.12
626.01	1303.88
626.35	1296.37
626.70	1288.71
627.04	1281.00
627.39	1273.36
627.73	1265.91
628.08	1259.03
628.43	1251.58
628.77	1244.20
629.12	1236.57
629.46	1229.33
629.81	1221.91
630.15	1214.73
630.50	1207.35
630.84	1199.11
631.19	1191.30
631.53	1183.92
631.88	1176.34
632.22	1168.74
632.57	1161.36
632.91	1153.90
633.26	1146.58
633.60	1139.41
633.95	1132.37
634.29	1125.37
634.64	1118.65
634.98	1111.28
635.32	1104.29
635.67	1097.90
636.01	1091.31
636.36	1084.48
636.70	1078.07
637.05	1071.53
637.39	1065.18
637.73	1058.69
638.08	1052.91
638.42	1046.85
638.77	1040.48
639.11	1033.97
639.45	1027.71
639.80	1021.05
640.14	1014.56
640.49	1008.10
640.83	1001.84
641.17	995.61
641.52	989.38
641.86	983.05
642.20	977.30
642.55	971.06
642.89	964.56
643.23	958.12
643.58	952.50
643.92	946.35
644.26	940.26
644.61	934.27
644.95	928.23
645.29	921.63
645.64	914.99
645.98	908.68
646.32	902.79
646.66	896.79
647.01	891.07
647.35	885.43
647.69	879.59
648.04	874.02
648.38	868.18
648.72	862.18
649.06	856.03
649.41	850.09
649.75	843.95
650.09	838.00
650.43	832.13
650.78	825.89
651.12	819.91
651.46	814.24
651.80	808.54
652.14	803.16
652.49	797.70
652.83	792.55
653.17	786.81
653.51	781.08
653.85	775.62
654.20	769.99
654.54	764.00
654.88	758.34
655.22	752.52
655.56	746.89
655.90	741.50
656.25	736.31
656.59	731.06
656.93	726.02
657.27	720.94
657.61	715.59
657.95	710.64
658.29	705.63
658.64	700.37
658.98	695.01
659.32	689.62
659.66	684.52
660.00	679.25
660.34	674.35
660.68	669.56
661.02	664.59
661.36	659.90
661.70	655.47
662.05	651.08
662.39	646.82
662.73	642.44
663.07	638.01
663.41	633.61
663.75	629.12
664.09	624.66
664.43	620.30
664.77	616.21
665.11	611.93
665.45	607.82
665.79	603.84
666.13	599.76
666.47	595.69
666.81	591.49
667.15	587.32
667.49	583.49
667.83	579.73
668.17	575.86
668.51	571.87
668.85	567.87
669.19	564.09
669.53	560.24
669.87	556.43
670.21	552.78
670.55	549.23
670.89	545.82
671.23	542.40
671.57	538.88
671.91	535.41
672.25	531.99
672.58	528.55
672.92	525.18
673.26	522.00
673.60	518.89
673.94	515.90
674.28	513.13
674.62	510.16
674.96	507.09
675.30	504.18
675.64	501.28
675.97	498.57
676.31	495.71
676.65	492.78
676.99	490.02
677.33	487.21
677.67	484.40
678.01	481.40
678.34	478.43
678.68	475.63
679.02	472.77
679.36	469.98
679.70	467.24
680.04	464.49
680.37	461.66
680.71	458.92
681.05	456.31
681.39	453.56
681.73	450.89
682.06	448.38
682.40	445.87
682.74	443.35
683.08	440.79
683.42	438.20
683.75	435.76
684.09	433.26
684.43	430.83
684.77	428.38
685.10	426.06
685.44	423.82
685.78	421.55
686.12	419.37
686.45	417.15
686.79	414.87
687.13	412.72
687.46	410.57
687.80	408.43
688.14	406.23
688.48	404.23
688.81	402.06
689.15	399.91
689.49	397.82
689.82	395.78
690.16	393.71
690.50	391.84
690.83	389.91
691.17	387.98
691.51	386.08
691.84	384.23
692.18	382.31
692.52	380.30
692.85	378.36
693.19	376.48
693.52	374.69
693.86	372.90
694.20	371.12
694.53	369.35
694.87	367.52
695.21	365.78
695.54	363.95
695.88	362.26
696.21	360.51
696.55	358.80
696.88	357.11
697.22	355.47
697.56	353.82
697.89	352.17
698.23	350.52
698.56	348.93
698.90	347.39
699.23	345.75
699.57	344.22
699.90	342.71
700.24	341.18
700.58	339.63
700.91	338.12
701.25	336.70
701.58	335.34
701.92	334.06
702.25	332.66
702.59	331.32
702.92	329.97
703.26	328.71
703.59	327.46
703.93	326.31
704.26	325.11
704.60	323.83
704.93	322.58
705.26	321.39
705.60	320.24
705.93	319.09
706.27	318.11
706.60	317.09
706.94	316.03
707.27	314.92
707.61	313.89
707.94	312.90
708.27	311.80
708.61	310.72
708.94	309.65
709.28	308.73
709.61	307.78
709.94	306.87
710.28	305.86
710.61	304.86
710.95	303.75
711.28	302.82
711.61	301.87
711.95	300.95
712.28	299.98
712.61	298.96
712.95	298.04
713.28	297.17
713.61	296.28
713.95	295.39
714.28	294.56
714.61	293.70
714.95	292.89
715.28	292.05
715.61	291.16
715.95	290.31
716.28	289.45
716.61	288.61
716.95	287.79
717.28	287.07
717.61	286.32
717.94	285.66
718.28	284.82
718.61	284.10
718.94	283.40
719.27	282.76
719.61	282.16
719.94	281.49
720.27	280.75
720.60	280.09
720.94	279.49
721.27	278.91
721.60	278.35
721.93	277.75
722.27	277.21
722.60	276.69
722.93	276.15
723.26	275.63
723.59	275.09
723.93	274.52
724.26	273.96
724.59	273.37
724.92	272.82
725.25	272.37
725.59	271.87
725.92	271.36
726.25	270.87
726.58	270.38
726.91	269.89
727.24	269.44
727.57	268.96
727.91	268.42
728.24	267.92
728.57	267.37
728.90	266.91
729.23	266.41
729.56	265.99
729.89	265.51
730.22	264.99
730.55	264.50
730.89	264.07
731.22	263.65
731.55	263.25
731.88	262.80
732.21	262.36
732.54	261.89
732.87	261.49
733.20	261.09
733.53	260.66
733.86	260.29
734.19	259.87
734.52	259.49
734.85	259.22
735.18	258.80
735.51	258.49
735.84	258.09
736.17	257.76
736.50	257.31
736.83	257.07
737.16	256.78
737.49	256.50
737.82	256.15
738.15	255.82
738.48	255.47
738.81	255.14
739.14	254.80
739.47	254.51
739.80	254.21
740.13	253.89
740.46	253.60
740.79	253.23
741.12	252.95
741.45	252.64
741.78	252.28
742.11	252.02
742.44	251.67
742.77	251.43
743.10	251.08
743.43	250.81
743.75	250.40
744.08	250.27
744.41	249.97
744.74	249.70
745.07	249.42
745.40	249.18
745.73	248.98
746.06	248.69
746.39	248.39
746.71	248.10
747.04	247.87
747.37	247.63
747.70	247.43
748.03	247.18
748.36	246.95
748.68	246.74
749.01	246.45
749.34	246.22
749.67	245.97
750.00	245.81
750.33	245.69
750.65	245.48
750.98	245.13
751.31	244.89
751.64	244.73
751.97	244.54
752.29	244.35
752.62	244.08
752.95	243.94
753.28	243.78
753.60	243.61
753.93	243.44
754.26	243.22
754.59	242.99
754.91	242.78
755.24	242.62
755.57	242.45
755.90	242.31
756.22	242.15
756.55	241.97
756.88	241.77
757.20	241.53
757.53	241.40
757.86	241.22
758.19	241.09
758.51	240.89
758.84	240.68
759.17	240.50
759.49	240.34
759.82	240.21
760.15	240.10
760.47	239.94
760.80	239.73
761.13	239.60
761.45	239.45
761.78	239.33
762.11	239.17
762.43	239.01
762.76	238.85
763.08	238.73
763.41	238.60
763.74	238.45
764.06	238.32
764.39	238.13
764.71	238.00
765.04	237.85
765.37	237.71
765.69	237.63
766.02	237.49
766.34	237.38
766.67	237.21
767.00	237.11
767.32	236.99
767.65	236.93
767.97	236.81
768.30	236.68
768.62	236.57
768.95	236.45
769.27	236.33
769.60	236.22
769.92	236.07
770.25	235.95
770.57	235.82
770.90	235.73
771.22	235.65
771.55	235.54
771.87	235.42
772.20	235.32
772.52	235.27
772.85	235.30
773.17	235.21
773.50	235.11
773.82	234.97
774.15	234.86
774.47	234.74
774.80	234.64
775.12	234.55
775.45	234.46
775.77	234.38
776.09	234.26
776.42	234.20
776.74	234.14
777.07	234.06
777.39	234.00
777.72	233.93
778.04	233.87
778.36	233.78
778.69	233.73
779.01	233.65
779.33	233.51
779.66	233.36
779.98	233.25
780.31	233.21
780.63	233.17
780.95	233.11
781.28	233.04
781.60	232.98
781.92	232.89
782.25	232.81
782.57	232.74
782.89	232.69
783.22	232.62
783.54	232.54
783.86	232.47
784.19	232.37
784.51	232.31
784.83	232.25
785.16	232.18
785.48	232.13
785.80	232.09
786.12	232.04
786.45	231.97
786.77	231.94
787.09	231.88
787.42	231.79
787.74	231.73
788.06	231.69
788.38	231.65
788.71	231.64
789.03	231.59
789.35	231.57
789.67	231.53
789.99	231.49
790.32	231.44
790.64	231.42
790.96	231.47
791.28	231.40
791.61	231.35
791.93	231.32
792.25	231.28
792.57	231.33
792.89	231.27
793.21	231.23
793.54	231.23
793.86	231.18
794.18	231.15
794.50	231.13
794.82	231.08
795.14	231.03
795.47	231.01
795.79	230.99
796.11	230.94
796.43	230.89
796.75	230.88
797.07	230.84
797.39	230.82
797.71	230.75
798.04	230.71
798.36	230.68
798.68	230.67
799.00	230.64
799.32	230.56
799.64	230.54
799.96	230.51
800.28	230.48
800.60	230.43
800.92	230.40
801.24	230.35
801.56	230.33
801.89	230.35
802.21	230.32
802.53	230.28
802.85	230.28
803.17	230.32
803.49	230.23
803.81	230.23
804.13	230.19
804.45	230.15
804.77	230.13
805.09	230.12
805.41	230.08
805.73	230.01
806.05	229.97
806.37	229.94
806.69	229.89
807.01	229.84
807.33	229.83
807.65	229.81
807.97	229.84
808.28	229.83
808.60	229.78
808.92	229.75
809.24	229.79
809.56	229.73
809.88	229.67
810.20	229.70
810.52	229.69
810.84	229.66
811.16	229.61
811.48	229.57
811.80	229.56
812.12	229.55
812.43	229.55
812.75	229.50
813.07	229.46
813.39	229.45
813.71	229.42
814.03	229.37
814.35	229.35
814.67	229.27
814.98	229.21
815.30	229.18
815.62	229.11
815.94	229.06
816.26	229.11
816.58	229.08
816.89	229.02
817.21	228.95
817.53	228.90
817.85	228.88
818.17	228.88
818.48	228.81
818.80	228.78
819.12	228.73
819.44	228.75
819.76	228.75
820.07	228.76
820.39	228.75
820.71	228.74
821.03	228.72
821.34	228.69
821.66	228.70
821.98	228.71
822.30	228.68
822.61	228.69
822.93	228.63
823.25	228.56
823.57	228.54
823.88	228.55
824.20	228.59
824.52	228.61
824.83	228.59
825.15	228.60
825.47	228.59
825.79	228.65
826.10	228.60
826.42	228.55
826.74	228.51
827.05	228.53
827.37	228.52
827.69	228.51
828.00	228.54
828.32	228.51
828.64	228.47
828.95	228.57
829.27	228.52
829.58	228.48
829.90	228.55
830.22	228.57
830.53	228.54
830.85	228.53
831.17	228.45
831.48	228.46
831.80	228.44
832.11	228.43
832.43	228.40
832.75	228.40
833.06	228.47
833.38	228.46
833.69	228.44
834.01	228.46
834.32	228.43
834.64	228.42
834.96	228.42
835.27	228.43
835.59	228.40
835.90	228.37
836.22	228.37
836.53	228.31
836.85	228.30
837.16	228.39
837.48	228.35
837.79	228.42
838.11	228.41
838.42	228.42
838.74	228.44
839.05	228.40
839.37	228.40
839.68	228.35
840.00	228.37
840.31	228.33
840.63	228.31
840.94	228.32
841.26	228.30
841.57	228.29
841.88	228.30
842.20	228.26
842.51	228.26
842.83	228.26
843.14	228.35
843.46	228.35
843.77	228.28
844.08	228.29
844.40	228.27
844.71	228.23
845.03	228.17
845.34	228.16
845.65	228.15
845.97	228.13
846.28	228.11
846.60	228.11
846.91	228.10
847.22	228.07
847.54	228.06
847.85	228.04
848.16	228.01
848.48	227.95
848.79	227.98
849.10	227.98
849.42	227.96
849.73	227.84
850.04	227.81
850.36	227.77
850.67	227.75
850.98	227.74
851.30	227.75
851.61	227.75
851.92	227.71
852.23	227.73
852.55	227.74
852.86	227.74
853.17	227.71
853.49	227.72
853.80	227.76
854.11	227.73
854.42	227.73
854.74	227.70
855.05	227.70
855.36	227.65
855.67	227.68
855.99	227.67
856.30	227.80
856.61	227.79
856.92	227.78
857.23	227.78
857.55	227.75
857.86	227.72
858.17	227.75
858.48	227.74
858.79	227.71
859.11	227.71
859.42	227.72
859.73	227.69
860.04	227.66
860.35	227.64
860.66	227.61
860.98	227.60
861.29	227.65
861.60	227.67
861.91	227.70
862.22	227.70
862.53	227.72
862.84	227.59
863.16	227.60
863.47	227.62
863.78	227.60
864.09	227.63
864.40	227.70
864.71	227.67
865.02	227.69
865.33	227.67
865.64	227.64
865.95	227.65
866.27	227.73
866.58	227.74
866.89	227.70
867.20	227.75
867.51	227.77
867.82	227.74
868.13	227.74
868.44	227.71
868.75	227.69
869.06	227.68
869.37	227.69
869.68	227.67
869.99	227.67
870.30	227.68
870.61	227.67
870.92	227.64
871.23	227.66
871.54	227.67
871.85	227.70
872.16	227.73
872.47	227.71
872.78	227.65
873.09	227.67
873.40	227.67
873.71	227.65
874.02	227.59
874.33	227.57
874.64	227.57
874.95	227.60
875.26	227.58
875.56	227.58
875.87	227.58
876.18	227.55
876.49	227.63
876.80	227.63
877.11	227.61
877.42	227.62
877.73	227.62
878.04	227.63
878.35	227.61
878.66	227.60
878.96	227.59
879.27	227.55
879.58	227.55
879.89	227.56
880.20	227.57
880.51	227.58
880.82	227.59
881.12	227.55
881.43	227.52
881.74	227.48
882.05	227.44
882.36	227.43
882.67	227.46
882.97	227.35
883.28	227.32
883.59	227.30
883.90	227.29
884.21	227.30
884.51	227.28
884.82	227.26
885.13	227.23
885.44	227.23
885.74	227.26
886.05	227.25
886.36	227.25
886.67	227.22
886.98	227.27
887.28	227.28
887.59	227.31
887.90	227.28
888.20	227.28
888.51	227.31
888.82	227.26
889.13	227.28
889.43	227.38
889.74	227.36
890.05	227.38
890.35	227.36
890.66	227.32
890.97	227.27
891.28	227.26
891.58	227.29
891.89	227.29
892.20	227.25
892.50	227.23
892.81	227.23
893.12	227.24
893.42	227.21
893.73	227.22
894.04	227.22
894.34	227.24
894.65	227.27
894.95	227.26
895.26	227.30
895.57	227.32
895.87	227.26
896.18	227.31
896.48	227.28
896.79	227.30
897.10	227.34
897.40	227.37
897.71	227.38
898.01	227.37
898.32	227.35
898.63	227.37
898.93	227.36
899.24	227.36
899.54	227.36
899.85	227.37
900.15	227.36
900.46	227.33
900.76	227.33
901.07	227.32
901.38	227.32
901.68	227.34
901.99	227.31
902.29	227.29
902.60	227.26
902.90	227.29
903.21	227.27
903.51	227.26
903.82	227.30
904.12	227.33
904.43	227.35
904.73	227.38
905.03	227.38
905.34	227.49
905.64	227.51
905.95	227.51
906.25	227.46
906.56	227.46
906.86	227.47
907.17	227.49
907.47	227.48
907.77	227.49
908.08	227.45
908.38	227.47
908.69	227.47
908.99	227.50
909.30	227.50
909.60	227.51
909.90	227.51
910.21	227.46
910.51	227.44
910.81	227.44
911.12	227.44
911.42	227.43
911.73	227.34
912.03	227.31
912.33	227.31
912.64	227.33
912.94	227.35
913.24	227.31
913.55	227.28
913.85	227.28
914.15	227.26
914.46	227.27
914.76	227.23
915.06	227.24
915.37	227.23
915.67	227.23
915.97	227.19
916.27	227.16
916.58	227.14
916.88	227.13
917.18	227.10
917.49	227.13
917.79	227.11
918.09	227.12
918.39	227.15
918.70	227.15
919.00	227.13
919.30	227.15
919.60	227.17
919.91	227.15
920.21	227.14
920.51	227.12
920.81	227.12
921.12	227.16
921.42	227.14
921.72	227.12
922.02	227.09
922.32	227.13
922.63	227.14
922.93	227.19
923.23	227.19
923.53	227.19
923.83	227.15
924.13	227.18
924.44	227.16
924.74	227.18
925.04	227.20
925.34	227.21
925.64	227.17
925.94	227.13
926.24	227.18
926.55	227.16
926.85	227.18
927.15	227.20
927.45	227.18
927.75	227.17
928.05	227.21
928.35	227.20
928.65	227.22
928.95	227.23
929.26	227.20
929.56	227.21
929.86	227.22
930.16	227.18
930.46	227.16
930.76	227.17
931.06	227.12
931.36	227.11
931.66	227.14
931.96	227.17
932.26	227.22
932.56	227.20
932.86	227.25
933.16	227.24
933.46	227.22
933.76	227.21
934.06	227.22
934.36	227.22
934.66	227.24
934.96	227.24
935.26	227.24
935.56	227.25
935.86	227.26
936.16	227.27
936.46	227.33
936.76	227.33
937.06	227.33
937.36	227.36
937.66	227.37
937.96	227.39
938.26	227.36
938.56	227.34
938.86	227.38
939.16	227.38
939.46	227.38
939.76	227.40
940.06	227.40
940.35	227.39
940.65	227.33
940.95	227.34
941.25	227.31
941.55	227.30
941.85	227.29
942.15	227.30
942.45	227.33
942.75	227.31
943.04	227.29
943.34	227.33
943.64	227.30
943.94	227.28
944.24	227.26
944.54	227.24
944.84	227.24
945.13	227.20
945.43	227.16
945.73	227.19
946.03	227.18
946.33	227.20
946.62	227.20
946.92	227.23
947.22	227.23
947.52	227.23
947.82	227.22
948.11	227.20
948.41	227.17
948.71	227.14
949.01	227.15
949.31	227.17
949.60	227.13
949.90	227.15
950.20	227.14
950.50	227.12
950.79	227.14
951.09	227.17
951.39	227.19
951.69	227.17
951.98	227.17
952.28	227.18
952.58	227.14
952.87	227.14
953.17	227.14
953.47	227.11
953.76	227.10
954.06	227.10
954.36	227.09
954.66	227.09
954.95	227.10
955.25	227.08
955.55	227.08
955.84	227.10
956.14	227.11
956.44	227.11
956.73	227.08
957.03	227.06
957.32	227.07
957.62	227.05
957.92	227.08
958.21	227.06
958.51	227.17
958.81	227.19
959.10	227.17
959.40	227.18
959.69	227.23
959.99	227.24
960.29	227.22
960.58	227.26
960.88	227.29
961.17	227.30
961.47	227.31
961.76	227.26
962.06	227.24
962.36	227.20
962.65	227.19
962.95	227.21
963.24	227.20
963.54	227.21
963.83	227.18
964.13	227.17
964.42	227.16
964.72	227.08
965.01	227.10
965.31	227.11
965.60	227.09
965.90	227.12
966.19	227.08
966.49	227.08
966.78	227.05
967.08	227.04
967.37	227.05
967.67	227.03
967.96	227.10
968.26	227.10
968.55	227.14
968.85	227.17
969.14	227.16
969.43	227.20
969.73	227.14
970.02	227.19
970.32	227.20
970.61	227.17
970.91	227.15
971.20	227.11
971.49	227.11
971.79	227.12
972.08	227.06
972.38	227.11
972.67	227.15
972.96	227.17
973.26	227.17
973.55	227.21
973.85	227.24
974.14	227.22
974.43	227.24
974.73	227.22
975.02	227.18
975.31	227.19
975.61	227.15
975.90	227.16
976.19	227.15
976.49	227.15
976.78	227.17
977.07	227.19
977.37	227.20
977.66	227.21
977.95	227.19
978.24	227.18
978.54	227.17
978.83	227.14
979.12	227.12
979.42	227.10
979.71	227.06
980.00	227.06
980.29	227.06
980.59	227.03
980.88	227.05
981.17	227.05
981.46	227.07
981.76	227.11
982.05	227.13
982.34	227.13
982.63	227.11
982.93	227.11
983.22	227.12
983.51	227.12
983.80	227.12
984.09	227.13
984.39	227.15
984.68	227.16
984.97	227.20
985.26	227.20
985.55	227.20
985.85	227.17
986.14	227.15
986.43	227.18
986.72	227.18
987.01	227.16
987.30	227.16
987.59	227.18
987.89	227.17
988.18	227.16
988.47	227.14
988.76	227.14
989.05	227.17
989.34	227.14
989.63	227.17
989.92	227.16
990.22	227.16
990.51	227.13
990.80	227.10
991.09	227.08
991.38	227.12
991.67	227.13
991.96	227.11
992.25	227.10
992.54	227.06
992.83	227.06
993.12	227.05
993.41	227.05
993.70	227.07
993.99	227.07
994.28	227.06
994.58	227.11
994.87	227.10
995.16	227.11
995.45	227.10
995.74	227.08
996.03	227.09
996.32	227.10
996.61	227.18
996.90	227.17
997.19	227.17
997.48	227.13
997.77	227.10
998.06	227.10
998.34	227.09
998.63	227.13
998.92	227.13
999.21	227.15
999.50	227.18
999.79	227.15
1000.08	227.13
1000.37	227.15
1000.66	227.13
1000.95	227.19
1001.24	227.19
1001.53	227.23
1001.82	227.22
1002.11	227.21
1002.40	227.23
1002.68	227.20
1002.97	227.30
1003.26	227.31
1003.55	227.28
1003.84	227.28
1004.13	227.36
1004.42	227.35
1004.71	227.28
1004.99	227.28
1005.28	227.33
1005.57	227.28
1005.86	227.29
1006.15	227.29
1006.44	227.28
1006.72	227.27
1007.01	227.19
1007.30	227.16
1007.59	227.15
1007.88	227.13
1008.17	227.13
1008.45	227.09
1008.74	227.07
1009.03	227.02
1009.32	226.99
1009.60	227.03
1009.89	227.02
1010.18	226.98
1010.47	226.99
1010.76	227.02
1011.04	227.00
1011.33	227.00
1011.62	227.03
1011.91	227.01
1012.19	227.04
1012.48	227.06
1012.77	227.08
1013.05	227.14
1013.34	227.15
1013.63	227.16
1013.92	227.18
1014.20	227.18
1014.49	227.22
1014.78	227.22
1015.06	227.20
1015.35	227.21
1015.64	227.21
1015.92	227.22
1016.21	227.22
1016.50	227.19
1016.78	227.23
1017.07	227.28
1017.36	227.23
1017.64	227.20
1017.93	227.21
1018.22	227.20
1018.50	227.17
1018.79	227.14
1019.08	227.10
1019.36	227.08
1019.65	227.04
1019.93	227.09
1020.22	227.10
1020.51	227.12
1020.79	227.09
1021.08	227.20
1021.36	226.58
1021.65	227.04
1021.94	227.04
1022.22	226.68
1022.51	226.77
1022.79	227.93
1023.08	227.42
1023.36	228.00
1023.65	226.67
>>>>>End Processed Spectral Data<<<<<
