SpectraSuite Data File
++++++++++++++++++++++++++++++++++++
Date: Fri Feb 01 17:55:35 EST 2013
User: group
Dark Spectrum Present: No
Reference Spectrum Present: No
Number of Sampled Component Spectra: 1
Spectrometers: USB2E7196
Integration Time (usec): 35000 (USB2E7196)
Spectra Averaged: 100 (USB2E7196)
Boxcar Smoothing: 10 (USB2E7196)
Correct for Electrical Dark: No (USB2E7196)
Strobe/Lamp Enabled: No (USB2E7196)
Correct for Detector Non-linearity: No (USB2E7196)
Correct for Stray Light: No (USB2E7196)
Number of Pixels in Processed Spectrum: 2048
>>>>>Begin Processed Spectral Data<<<<<
339.09	0.00
339.48	213.41
339.86	214.28
340.24	215.28
340.63	216.78
341.01	219.99
341.39	220.04
341.78	221.16
342.16	222.02
342.54	222.70
342.93	211.24
343.31	221.92
343.69	222.44
344.07	222.91
344.46	223.35
344.84	223.75
345.22	224.00
345.60	224.24
345.99	224.42
346.37	224.56
346.75	224.67
347.13	224.75
347.52	224.80
347.90	224.91
348.28	224.95
348.66	225.05
349.05	225.00
349.43	225.04
349.81	225.09
350.19	225.16
350.57	225.20
350.96	225.31
351.34	225.41
351.72	225.49
352.10	225.58
352.48	225.68
352.87	225.75
353.25	225.82
353.63	225.89
354.01	225.97
354.39	226.04
354.77	226.12
355.15	226.20
355.54	226.24
355.92	226.28
356.30	226.35
356.68	226.45
357.06	226.51
357.44	226.58
357.82	226.64
358.20	226.70
358.58	226.76
358.97	226.79
359.35	226.85
359.73	226.92
360.11	226.99
360.49	227.00
360.87	227.02
361.25	227.05
361.63	227.11
362.01	227.14
362.39	227.18
362.77	227.22
363.15	227.26
363.53	227.30
363.91	227.29
364.29	227.28
364.67	227.18
365.05	227.24
365.43	227.28
365.81	227.27
366.19	227.32
366.57	227.37
366.95	227.38
367.33	227.37
367.71	227.35
368.09	227.33
368.47	227.35
368.85	227.33
369.23	227.35
369.61	227.30
369.99	227.30
370.37	227.32
370.75	227.35
371.13	227.30
371.51	227.24
371.89	227.25
372.27	227.22
372.65	227.23
373.03	227.18
373.41	227.11
373.78	227.07
374.16	226.95
374.54	226.88
374.92	226.81
375.30	226.76
375.68	226.67
376.06	226.66
376.44	226.56
376.82	226.50
377.19	226.43
377.57	226.38
377.95	226.28
378.33	226.17
378.71	226.04
379.09	225.96
379.47	225.88
379.84	225.79
380.22	225.72
380.60	225.64
380.98	225.58
381.36	225.51
381.73	225.44
382.11	225.42
382.49	225.33
382.87	225.27
383.25	225.22
383.62	225.29
384.00	225.17
384.38	225.14
384.76	225.13
385.13	225.12
385.51	225.05
385.89	225.01
386.27	224.98
386.64	224.96
387.02	224.93
387.40	224.93
387.78	224.92
388.15	224.87
388.53	224.83
388.91	224.78
389.29	224.74
389.66	224.73
390.04	224.70
390.42	224.73
390.79	224.69
391.17	224.69
391.55	224.55
391.92	224.58
392.30	224.60
392.68	224.57
393.05	224.57
393.43	224.60
393.81	224.59
394.18	224.58
394.56	224.57
394.94	224.61
395.31	224.60
395.69	224.64
396.06	224.67
396.44	224.69
396.82	224.71
397.19	224.78
397.57	224.82
397.95	224.90
398.32	224.90
398.70	224.98
399.07	225.07
399.45	225.11
399.82	225.15
400.20	225.18
400.58	225.24
400.95	225.24
401.33	225.30
401.70	225.44
402.08	225.55
402.45	225.66
402.83	225.76
403.20	225.88
403.58	225.96
403.95	226.10
404.33	226.25
404.71	226.39
405.08	226.61
405.46	226.78
405.83	226.94
406.21	227.10
406.58	227.29
406.96	227.43
407.33	227.65
407.70	227.87
408.08	228.20
408.45	228.45
408.83	228.72
409.20	229.04
409.58	229.28
409.95	229.58
410.33	229.91
410.70	230.26
411.08	230.63
411.45	231.04
411.82	231.43
412.20	231.88
412.57	232.42
412.95	232.80
413.32	233.28
413.69	233.78
414.07	234.34
414.44	234.96
414.82	235.61
415.19	236.37
415.56	237.07
415.94	237.78
416.31	238.64
416.68	239.48
417.06	240.42
417.43	241.32
417.81	242.35
418.18	243.39
418.55	244.46
418.93	245.61
419.30	246.79
419.67	248.01
420.04	249.29
420.42	250.58
420.79	252.12
421.16	253.68
421.54	255.26
421.91	256.87
422.28	258.54
422.66	260.32
423.03	262.01
423.40	263.83
423.77	265.76
424.15	267.68
424.52	269.67
424.89	271.81
425.26	273.87
425.64	275.81
426.01	277.95
426.38	280.22
426.75	282.48
427.13	284.80
427.50	287.26
427.87	289.76
428.24	292.26
428.61	294.63
428.99	297.22
429.36	300.05
429.73	302.85
430.10	305.52
430.47	308.24
430.85	311.10
431.22	314.07
431.59	317.22
431.96	320.18
432.33	323.48
432.70	326.64
433.08	330.44
433.45	333.93
433.82	337.41
434.19	341.23
434.56	344.98
434.93	348.54
435.30	352.06
435.68	355.88
436.05	359.66
436.42	363.42
436.79	366.75
437.16	370.34
437.53	374.06
437.90	377.83
438.27	381.51
438.64	385.28
439.01	388.72
439.38	391.71
439.75	394.58
440.13	397.94
440.50	401.09
440.87	403.59
441.24	406.19
441.61	409.08
441.98	411.02
442.35	413.47
442.72	415.94
443.09	418.32
443.46	419.69
443.83	420.52
444.20	421.17
444.57	422.32
444.94	422.72
445.31	423.24
445.68	423.70
446.05	423.86
446.42	423.38
446.79	422.88
447.16	422.26
447.53	421.89
447.90	420.39
448.27	418.82
448.64	416.63
449.01	415.16
449.37	412.48
449.74	409.99
450.11	406.96
450.48	403.64
450.85	400.28
451.22	397.43
451.59	394.70
451.96	392.17
452.33	388.68
452.70	385.54
453.07	381.79
453.43	377.98
453.80	374.24
454.17	370.63
454.54	367.20
454.91	363.62
455.28	360.02
455.65	356.68
456.02	353.36
456.38	350.46
456.75	346.85
457.12	343.87
457.49	340.87
457.86	337.93
458.23	335.44
458.59	332.70
458.96	329.91
459.33	327.40
459.70	324.83
460.07	322.82
460.43	320.52
460.80	318.26
461.17	316.31
461.54	314.31
461.91	312.41
462.27	310.45
462.64	308.78
463.01	306.97
463.38	305.19
463.74	303.37
464.11	301.84
464.48	300.49
464.85	299.01
465.21	297.86
465.58	296.66
465.95	295.24
466.32	294.00
466.68	292.74
467.05	291.58
467.42	290.34
467.78	289.07
468.15	287.86
468.52	286.98
468.88	285.82
469.25	284.74
469.62	283.87
469.98	282.94
470.35	282.08
470.72	281.27
471.08	280.43
471.45	279.71
471.82	278.99
472.18	278.19
472.55	277.58
472.92	276.86
473.28	276.22
473.65	275.56
474.02	274.92
474.38	274.44
474.75	273.95
475.11	273.48
475.48	273.13
475.85	272.78
476.21	272.43
476.58	272.12
476.94	271.89
477.31	271.63
477.67	271.40
478.04	271.16
478.41	271.01
478.77	270.93
479.14	270.76
479.50	270.69
479.87	270.69
480.23	270.74
480.60	270.75
480.96	270.76
481.33	270.95
481.69	271.13
482.06	271.26
482.42	271.39
482.79	271.63
483.15	271.88
483.52	272.25
483.88	272.55
484.25	272.91
484.61	273.33
484.98	273.77
485.34	274.28
485.71	274.86
486.07	275.43
486.44	276.00
486.80	276.71
487.17	277.40
487.53	278.22
487.90	279.04
488.26	279.98
488.62	281.03
488.99	282.00
489.35	283.10
489.72	284.26
490.08	285.56
490.44	286.81
490.81	288.18
491.17	289.57
491.54	291.14
491.90	292.70
492.26	294.42
492.63	296.24
492.99	298.12
493.36	300.11
493.72	302.33
494.08	304.55
494.45	306.93
494.81	309.42
495.17	311.99
495.54	314.74
495.90	317.58
496.26	320.49
496.63	323.59
496.99	326.86
497.35	330.32
497.72	333.91
498.08	337.64
498.44	341.54
498.80	345.69
499.17	349.97
499.53	354.39
499.89	359.00
500.26	363.76
500.62	368.71
500.98	373.99
501.34	379.32
501.71	384.90
502.07	390.64
502.43	396.60
502.79	402.73
503.16	409.09
503.52	415.73
503.88	422.55
504.24	429.58
504.60	436.91
504.97	444.45
505.33	452.22
505.69	460.40
506.05	468.58
506.41	476.96
506.78	485.57
507.14	494.58
507.50	503.87
507.86	513.43
508.22	523.21
508.59	532.93
508.95	543.08
509.31	553.54
509.67	564.39
510.03	575.43
510.39	586.67
510.75	598.25
511.12	609.95
511.48	621.96
511.84	634.20
512.20	646.39
512.56	659.10
512.92	672.11
513.28	685.31
513.64	698.72
514.00	712.27
514.37	726.20
514.73	740.20
515.09	754.16
515.45	768.39
515.81	782.96
516.17	798.07
516.53	813.29
516.89	828.55
517.25	843.70
517.61	859.19
517.97	874.80
518.33	890.39
518.69	906.29
519.05	922.48
519.41	938.96
519.77	955.75
520.13	972.57
520.49	989.35
520.85	1006.00
521.21	1023.08
521.57	1040.72
521.93	1057.81
522.29	1075.74
522.65	1093.54
523.01	1111.23
523.37	1128.82
523.73	1146.42
524.09	1164.10
524.45	1181.92
524.81	1200.19
525.17	1218.50
525.53	1237.01
525.89	1255.51
526.25	1274.02
526.61	1292.01
526.97	1310.46
527.33	1328.80
527.68	1347.09
528.04	1365.24
528.40	1383.58
528.76	1402.52
529.12	1421.00
529.48	1439.92
529.84	1457.48
530.20	1475.88
530.56	1494.74
530.91	1514.11
531.27	1532.85
531.63	1551.19
531.99	1569.68
532.35	1587.57
532.71	1605.59
533.07	1623.82
533.42	1641.71
533.78	1659.84
534.14	1678.28
534.50	1695.59
534.86	1713.44
535.21	1730.67
535.57	1748.67
535.93	1766.29
536.29	1783.03
536.65	1800.12
537.00	1816.80
537.36	1834.26
537.72	1850.82
538.08	1867.38
538.44	1883.26
538.79	1899.25
539.15	1914.88
539.51	1930.77
539.87	1947.30
540.22	1963.06
540.58	1979.04
540.94	1994.47
541.29	2009.36
541.65	2024.02
542.01	2039.42
542.37	2053.88
542.72	2068.45
543.08	2082.41
543.44	2096.98
543.79	2110.40
544.15	2123.52
544.51	2137.22
544.87	2150.35
545.22	2163.24
545.58	2175.60
545.94	2187.33
546.29	2199.27
546.65	2211.44
547.01	2222.90
547.36	2233.56
547.72	2244.00
548.07	2253.79
548.43	2263.88
548.79	2273.88
549.14	2283.57
549.50	2292.65
549.86	2302.22
550.21	2311.49
550.57	2320.56
550.92	2329.05
551.28	2337.90
551.64	2347.03
551.99	2355.39
552.35	2363.54
552.70	2371.58
553.06	2379.41
553.41	2387.67
553.77	2395.33
554.13	2403.11
554.48	2411.02
554.84	2418.44
555.19	2425.43
555.55	2432.37
555.90	2438.57
556.26	2445.32
556.61	2451.62
556.97	2457.87
557.32	2463.65
557.68	2469.35
558.03	2475.20
558.39	2480.40
558.74	2486.91
559.10	2492.20
559.45	2497.35
559.81	2502.94
560.16	2508.33
560.52	2513.04
560.87	2517.73
561.23	2521.83
561.58	2526.11
561.94	2529.84
562.29	2533.24
562.64	2537.39
563.00	2541.19
563.35	2546.04
563.71	2550.39
564.06	2554.75
564.42	2558.72
564.77	2562.52
565.12	2566.10
565.48	2569.24
565.83	2572.33
566.19	2574.73
566.54	2576.45
566.89	2578.86
567.25	2580.61
567.60	2582.94
567.96	2585.54
568.31	2587.26
568.66	2589.49
569.02	2590.96
569.37	2592.24
569.72	2594.08
570.08	2595.02
570.43	2595.84
570.78	2596.06
571.14	2595.12
571.49	2594.36
571.84	2594.70
572.20	2594.22
572.55	2593.60
572.90	2592.29
573.26	2591.54
573.61	2589.95
573.96	2588.91
574.31	2586.16
574.67	2583.51
575.02	2579.94
575.37	2576.77
575.72	2573.35
576.08	2570.02
576.43	2566.74
576.78	2563.32
577.13	2560.28
577.49	2557.12
577.84	2553.61
578.19	2549.71
578.54	2546.18
578.90	2542.13
579.25	2536.12
579.60	2530.81
579.95	2525.70
580.30	2520.61
580.66	2514.95
581.01	2509.76
581.36	2504.36
581.71	2499.93
582.06	2495.21
582.42	2490.67
582.77	2485.20
583.12	2480.32
583.47	2475.38
583.82	2470.04
584.17	2464.29
584.53	2458.48
584.88	2452.45
585.23	2446.18
585.58	2440.25
585.93	2434.14
586.28	2428.86
586.63	2423.62
586.98	2418.16
587.34	2412.85
587.69	2407.38
588.04	2401.69
588.39	2395.59
588.74	2388.42
589.09	2381.55
589.44	2374.03
589.79	2367.09
590.14	2360.70
590.49	2353.43
590.84	2346.25
591.19	2339.60
591.54	2332.33
591.89	2324.05
592.25	2316.51
592.60	2308.46
592.95	2300.18
593.30	2291.95
593.65	2283.39
594.00	2275.29
594.35	2267.16
594.70	2258.08
595.05	2250.23
595.40	2241.83
595.75	2233.27
596.10	2226.46
596.45	2218.87
596.80	2211.90
597.15	2204.56
597.50	2196.76
597.85	2189.24
598.19	2181.60
598.54	2173.65
598.89	2165.98
599.24	2159.27
599.59	2151.80
599.94	2144.81
600.29	2137.48
600.64	2129.80
600.99	2121.26
601.34	2113.47
601.69	2105.40
602.04	2097.57
602.39	2088.86
602.74	2081.16
603.08	2073.44
603.43	2065.35
603.78	2056.85
604.13	2048.44
604.48	2040.09
604.83	2032.08
605.18	2024.30
605.53	2015.10
605.87	2005.65
606.22	1997.26
606.57	1987.98
606.92	1979.19
607.27	1970.87
607.62	1962.80
607.96	1954.56
608.31	1947.02
608.66	1938.21
609.01	1929.44
609.36	1920.66
609.70	1911.30
610.05	1901.88
610.40	1892.89
610.75	1883.46
611.10	1874.51
611.44	1864.58
611.79	1855.09
612.14	1844.90
612.49	1834.12
612.83	1824.22
613.18	1814.74
613.53	1805.22
613.88	1795.20
614.22	1785.55
614.57	1775.43
614.92	1766.07
615.27	1757.13
615.61	1747.36
615.96	1737.98
616.31	1728.98
616.65	1720.30
617.00	1711.62
617.35	1702.71
617.70	1693.05
618.04	1683.07
618.39	1673.38
618.74	1664.62
619.08	1654.91
619.43	1645.92
619.78	1637.71
620.12	1629.43
620.47	1620.72
620.82	1611.20
621.16	1602.38
621.51	1593.52
621.85	1584.56
622.20	1574.59
622.55	1564.85
622.89	1555.51
623.24	1546.40
623.59	1537.68
623.93	1528.84
624.28	1520.30
624.62	1511.46
624.97	1502.97
625.32	1494.98
625.66	1486.80
626.01	1478.47
626.35	1469.87
626.70	1460.85
627.04	1451.77
627.39	1442.69
627.73	1433.96
628.08	1425.90
628.43	1417.67
628.77	1409.18
629.12	1400.36
629.46	1392.01
629.81	1383.22
630.15	1374.82
630.50	1366.33
630.84	1356.84
631.19	1347.57
631.53	1338.67
631.88	1329.75
632.22	1320.83
632.57	1312.26
632.91	1303.43
633.26	1294.65
633.60	1285.97
633.95	1277.62
634.29	1269.40
634.64	1261.56
634.98	1253.04
635.32	1244.70
635.67	1236.75
636.01	1228.83
636.36	1220.88
636.70	1213.14
637.05	1205.55
637.39	1198.04
637.73	1190.44
638.08	1183.51
638.42	1176.53
638.77	1169.16
639.11	1161.61
639.45	1154.17
639.80	1146.39
640.14	1139.03
640.49	1131.47
640.83	1124.15
641.17	1116.95
641.52	1109.64
641.86	1102.10
642.20	1095.19
642.55	1087.82
642.89	1080.31
643.23	1072.66
643.58	1066.04
643.92	1058.87
644.26	1051.90
644.61	1044.82
644.95	1037.93
645.29	1030.37
645.64	1022.57
645.98	1015.20
646.32	1008.28
646.66	1001.30
647.01	994.57
647.35	987.93
647.69	981.12
648.04	974.64
648.38	967.94
648.72	961.06
649.06	954.07
649.41	947.29
649.75	940.44
650.09	933.68
650.43	927.10
650.78	919.96
651.12	913.14
651.46	906.47
651.80	899.85
652.14	893.42
652.49	887.22
652.83	881.26
653.17	874.74
653.51	868.16
653.85	862.00
654.20	855.59
654.54	848.73
654.88	842.16
655.22	835.41
655.56	828.86
655.90	822.59
656.25	816.60
656.59	810.49
656.93	804.65
657.27	798.70
657.61	792.44
657.95	786.62
658.29	780.76
658.64	774.69
658.98	768.56
659.32	762.36
659.66	756.43
660.00	750.31
660.34	744.66
660.68	739.06
661.02	733.25
661.36	727.85
661.70	722.67
662.05	717.65
662.39	712.71
662.73	707.58
663.07	702.55
663.41	697.45
663.75	692.22
664.09	686.94
664.43	681.84
664.77	677.11
665.11	672.24
665.45	667.47
665.79	662.82
666.13	658.19
666.47	653.49
666.81	648.74
667.15	644.01
667.49	639.47
667.83	635.09
668.17	630.53
668.51	625.88
668.85	621.21
669.19	616.76
669.53	612.35
669.87	607.93
670.21	603.63
670.55	599.45
670.89	595.58
671.23	591.67
671.57	587.64
671.91	583.62
672.25	579.52
672.58	575.48
672.92	571.54
673.26	567.86
673.60	564.27
673.94	560.68
674.28	557.37
674.62	554.03
674.96	550.43
675.30	547.14
675.64	543.77
675.97	540.57
676.31	537.33
676.65	534.02
676.99	530.93
677.33	527.65
677.67	524.34
678.01	520.81
678.34	517.39
678.68	514.08
679.02	510.85
679.36	507.66
679.70	504.56
680.04	501.37
680.37	498.08
680.71	494.83
681.05	491.83
681.39	488.73
681.73	485.64
682.06	482.81
682.40	479.89
682.74	477.00
683.08	474.04
683.42	471.03
683.75	468.11
684.09	465.14
684.43	462.33
684.77	459.50
685.10	456.83
685.44	454.14
685.78	451.47
686.12	448.82
686.45	446.18
686.79	443.53
687.13	441.02
687.46	438.48
687.80	435.99
688.14	433.36
688.48	430.95
688.81	428.38
689.15	425.83
689.49	423.27
689.82	420.80
690.16	418.39
690.50	416.14
690.83	413.88
691.17	411.58
691.51	409.37
691.84	407.22
692.18	405.03
692.52	402.82
692.85	400.61
693.19	398.47
693.52	396.35
693.86	394.26
694.20	392.14
694.53	390.10
694.87	387.99
695.21	385.93
695.54	383.83
695.88	381.79
696.21	379.79
696.55	377.86
696.88	375.93
697.22	374.04
697.56	372.12
697.89	370.20
698.23	368.40
698.56	366.53
698.90	364.75
699.23	362.86
699.57	361.02
699.90	359.22
700.24	357.43
700.58	355.69
700.91	353.97
701.25	352.35
701.58	350.80
701.92	349.21
702.25	347.62
702.59	346.01
702.92	344.52
703.26	343.02
703.59	341.60
703.93	340.24
704.26	338.79
704.60	337.33
704.93	335.89
705.26	334.41
705.60	333.03
705.93	331.63
706.27	330.41
706.60	329.21
706.94	327.95
707.27	326.67
707.61	325.42
707.94	324.25
708.27	322.96
708.61	321.67
708.94	320.53
709.28	319.39
709.61	318.29
709.94	317.18
710.28	316.02
710.61	314.85
710.95	313.65
711.28	312.57
711.61	311.47
711.95	310.41
712.28	309.32
712.61	308.14
712.95	307.12
713.28	306.08
713.61	305.04
713.95	304.01
714.28	303.00
714.61	302.02
714.95	301.04
715.28	300.07
715.61	299.05
715.95	298.02
716.28	297.05
716.61	296.07
716.95	295.15
717.28	294.28
717.61	293.38
717.94	292.48
718.28	291.55
718.61	290.71
718.94	289.90
719.27	289.14
719.61	288.42
719.94	287.60
720.27	286.81
720.60	286.02
720.94	285.31
721.27	284.65
721.60	283.99
721.93	283.23
722.27	282.59
722.60	281.94
722.93	281.29
723.26	280.67
723.59	280.03
723.93	279.38
724.26	278.76
724.59	278.12
724.92	277.52
725.25	276.97
725.59	276.35
725.92	275.74
726.25	275.13
726.58	274.57
726.91	274.05
727.24	273.47
727.57	272.89
727.91	272.29
728.24	271.71
728.57	271.12
728.90	270.62
729.23	270.05
729.56	269.56
729.89	269.01
730.22	268.45
730.55	267.91
730.89	267.37
731.22	266.84
731.55	266.33
731.88	265.82
732.21	265.29
732.54	264.82
732.87	264.32
733.20	263.84
733.53	263.36
733.86	262.88
734.19	262.42
734.52	262.01
734.85	261.66
735.18	261.20
735.51	260.77
735.84	260.29
736.17	259.88
736.50	259.39
736.83	259.13
737.16	258.77
737.49	258.38
737.82	257.99
738.15	257.59
738.48	257.19
738.81	256.80
739.14	256.45
739.47	256.07
739.80	255.69
740.13	255.36
740.46	254.99
740.79	254.65
741.12	254.33
741.45	253.96
741.78	253.59
742.11	253.27
742.44	252.90
742.77	252.62
743.10	252.27
743.43	251.95
743.75	251.52
744.08	251.33
744.41	251.03
744.74	250.72
745.07	250.40
745.40	250.14
745.73	249.88
746.06	249.58
746.39	249.29
746.71	249.01
747.04	248.72
747.37	248.41
747.70	248.12
748.03	247.79
748.36	247.52
748.68	247.21
749.01	246.88
749.34	246.63
749.67	246.37
750.00	246.12
750.33	245.95
750.65	245.68
750.98	245.27
751.31	245.03
751.64	244.80
751.97	244.57
752.29	244.30
752.62	244.00
752.95	243.77
753.28	243.51
753.60	243.28
753.93	243.04
754.26	242.85
754.59	242.61
754.91	242.43
755.24	242.20
755.57	241.98
755.90	241.80
756.22	241.57
756.55	241.34
756.88	241.09
757.20	240.80
757.53	240.57
757.86	240.40
758.19	240.19
758.51	240.00
758.84	239.81
759.17	239.61
759.49	239.45
759.82	239.30
760.15	239.11
760.47	238.93
760.80	238.75
761.13	238.60
761.45	238.40
761.78	238.17
762.11	237.98
762.43	237.81
762.76	237.62
763.08	237.49
763.41	237.37
763.74	237.22
764.06	237.07
764.39	236.92
764.71	236.75
765.04	236.61
765.37	236.42
765.69	236.27
766.02	236.13
766.34	235.98
766.67	235.77
767.00	235.66
767.32	235.56
767.65	235.53
767.97	235.38
768.30	235.26
768.62	235.13
768.95	235.00
769.27	234.91
769.60	234.81
769.92	234.63
770.25	234.45
770.57	234.34
770.90	234.23
771.22	234.13
771.55	234.03
771.87	233.93
772.20	233.85
772.52	233.83
772.85	233.87
773.17	233.76
773.50	233.69
773.82	233.57
774.15	233.44
774.47	233.23
774.80	233.10
775.12	233.01
775.45	232.95
775.77	232.87
776.09	232.76
776.42	232.68
776.74	232.66
777.07	232.58
777.39	232.47
777.72	232.35
778.04	232.25
778.36	232.15
778.69	232.08
779.01	232.00
779.33	231.82
779.66	231.60
779.98	231.54
780.31	231.48
780.63	231.42
780.95	231.36
781.28	231.32
781.60	231.24
781.92	231.16
782.25	231.09
782.57	231.01
782.89	230.96
783.22	230.86
783.54	230.75
783.86	230.69
784.19	230.64
784.51	230.61
784.83	230.55
785.16	230.46
785.48	230.37
785.80	230.31
786.12	230.26
786.45	230.20
786.77	230.13
787.09	230.07
787.42	230.01
787.74	229.97
788.06	229.91
788.38	229.87
788.71	229.81
789.03	229.74
789.35	229.70
789.67	229.60
789.99	229.58
790.32	229.53
790.64	229.48
790.96	229.51
791.28	229.43
791.61	229.37
791.93	229.37
792.25	229.33
792.57	229.33
792.89	229.26
793.21	229.21
793.54	229.19
793.86	229.14
794.18	229.07
794.50	229.00
794.82	228.96
795.14	228.92
795.47	228.89
795.79	228.86
796.11	228.81
796.43	228.79
796.75	228.72
797.07	228.70
797.39	228.68
797.71	228.57
798.04	228.53
798.36	228.51
798.68	228.42
799.00	228.40
799.32	228.33
799.64	228.34
799.96	228.32
800.28	228.25
800.60	228.18
800.92	228.18
801.24	228.15
801.56	228.10
801.89	228.03
802.21	228.01
802.53	227.97
802.85	227.97
803.17	227.97
803.49	227.93
803.81	227.86
804.13	227.84
804.45	227.83
804.77	227.80
805.09	227.75
805.41	227.74
805.73	227.71
806.05	227.65
806.37	227.60
806.69	227.57
807.01	227.57
807.33	227.56
807.65	227.46
807.97	227.44
808.28	227.44
808.60	227.40
808.92	227.36
809.24	227.35
809.56	227.29
809.88	227.24
810.20	227.24
810.52	227.25
810.84	227.22
811.16	227.16
811.48	227.14
811.80	227.17
812.12	227.14
812.43	227.11
812.75	227.10
813.07	227.04
813.39	227.02
813.71	226.99
814.03	226.98
814.35	226.97
814.67	226.92
814.98	226.89
815.30	226.89
815.62	226.86
815.94	226.81
816.26	226.81
816.58	226.76
816.89	226.73
817.21	226.68
817.53	226.68
817.85	226.68
818.17	226.67
818.48	226.64
818.80	226.64
819.12	226.60
819.44	226.55
819.76	226.53
820.07	226.49
820.39	226.46
820.71	226.44
821.03	226.45
821.34	226.42
821.66	226.42
821.98	226.40
822.30	226.39
822.61	226.39
822.93	226.33
823.25	226.33
823.57	226.30
823.88	226.30
824.20	226.25
824.52	226.20
824.83	226.16
825.15	226.11
825.47	226.11
825.79	226.11
826.10	226.12
826.42	226.11
826.74	226.12
827.05	226.09
827.37	226.07
827.69	226.05
828.00	226.06
828.32	226.06
828.64	226.07
828.95	226.10
829.27	226.09
829.58	226.10
829.90	226.13
830.22	226.11
830.53	226.07
830.85	226.04
831.17	226.05
831.48	226.01
831.80	226.01
832.11	225.96
832.43	225.94
832.75	225.94
833.06	225.96
833.38	225.93
833.69	225.92
834.01	225.93
834.32	225.93
834.64	225.88
834.96	225.83
835.27	225.82
835.59	225.80
835.90	225.79
836.22	225.76
836.53	225.68
836.85	225.69
837.16	225.80
837.48	225.80
837.79	225.81
838.11	225.85
838.42	225.81
838.74	225.82
839.05	225.80
839.37	225.79
839.68	225.73
840.00	225.75
840.31	225.75
840.63	225.74
840.94	225.70
841.26	225.71
841.57	225.72
841.88	225.71
842.20	225.67
842.51	225.64
842.83	225.63
843.14	225.73
843.46	225.73
843.77	225.66
844.08	225.67
844.40	225.65
844.71	225.63
845.03	225.62
845.34	225.62
845.65	225.58
845.97	225.55
846.28	225.54
846.60	225.52
846.91	225.51
847.22	225.49
847.54	225.53
847.85	225.55
848.16	225.50
848.48	225.51
848.79	225.58
849.10	225.60
849.42	225.63
849.73	225.55
850.04	225.54
850.36	225.51
850.67	225.52
850.98	225.54
851.30	225.55
851.61	225.57
851.92	225.57
852.23	225.65
852.55	225.66
852.86	225.67
853.17	225.68
853.49	225.68
853.80	225.68
854.11	225.69
854.42	225.68
854.74	225.69
855.05	225.67
855.36	225.60
855.67	225.58
855.99	225.56
856.30	225.70
856.61	225.67
856.92	225.67
857.23	225.64
857.55	225.62
857.86	225.63
858.17	225.62
858.48	225.59
858.79	225.53
859.11	225.52
859.42	225.52
859.73	225.51
860.04	225.51
860.35	225.45
860.66	225.41
860.98	225.41
861.29	225.44
861.60	225.43
861.91	225.42
862.22	225.41
862.53	225.39
862.84	225.22
863.16	225.27
863.47	225.24
863.78	225.23
864.09	225.21
864.40	225.19
864.71	225.22
865.02	225.22
865.33	225.23
865.64	225.20
865.95	225.17
866.27	225.23
866.58	225.22
866.89	225.24
867.20	225.25
867.51	225.21
867.82	225.17
868.13	225.20
868.44	225.21
868.75	225.19
869.06	225.17
869.37	225.19
869.68	225.16
869.99	225.20
870.30	225.18
870.61	225.18
870.92	225.17
871.23	225.12
871.54	225.13
871.85	225.12
872.16	225.12
872.47	225.14
872.78	225.05
873.09	225.05
873.40	225.05
873.71	225.04
874.02	225.06
874.33	225.06
874.64	225.04
874.95	225.03
875.26	225.04
875.56	225.03
875.87	225.02
876.18	225.00
876.49	225.09
876.80	225.09
877.11	225.06
877.42	225.05
877.73	225.04
878.04	225.05
878.35	225.03
878.66	225.04
878.96	225.02
879.27	225.00
879.58	225.01
879.89	225.00
880.20	225.05
880.51	225.02
880.82	224.99
881.12	224.98
881.43	224.94
881.74	224.93
882.05	224.98
882.36	224.94
882.67	224.93
882.97	224.82
883.28	224.87
883.59	224.88
883.90	224.91
884.21	224.93
884.51	224.92
884.82	224.95
885.13	224.94
885.44	224.94
885.74	224.98
886.05	224.98
886.36	225.00
886.67	224.95
886.98	225.02
887.28	225.05
887.59	225.03
887.90	225.06
888.20	225.07
888.51	225.04
888.82	225.05
889.13	225.10
889.43	225.17
889.74	225.11
890.05	225.11
890.35	225.07
890.66	225.06
890.97	225.02
891.28	224.99
891.58	225.03
891.89	225.02
892.20	225.02
892.50	224.99
892.81	224.98
893.12	224.97
893.42	224.90
893.73	224.91
894.04	224.92
894.34	224.94
894.65	224.90
894.95	224.89
895.26	224.91
895.57	224.93
895.87	224.84
896.18	224.83
896.48	224.85
896.79	224.87
897.10	224.89
897.40	224.90
897.71	224.92
898.01	224.87
898.32	224.89
898.63	224.85
898.93	224.86
899.24	224.82
899.54	224.82
899.85	224.81
900.15	224.79
900.46	224.75
900.76	224.77
901.07	224.76
901.38	224.75
901.68	224.75
901.99	224.70
902.29	224.69
902.60	224.71
902.90	224.69
903.21	224.69
903.51	224.66
903.82	224.66
904.12	224.66
904.43	224.67
904.73	224.64
905.03	224.68
905.34	224.75
905.64	224.76
905.95	224.77
906.25	224.78
906.56	224.80
906.86	224.81
907.17	224.78
907.47	224.80
907.77	224.82
908.08	224.78
908.38	224.78
908.69	224.81
908.99	224.81
909.30	224.82
909.60	224.80
909.90	224.82
910.21	224.82
910.51	224.80
910.81	224.78
911.12	224.83
911.42	224.81
911.73	224.70
912.03	224.71
912.33	224.74
912.64	224.71
912.94	224.70
913.24	224.70
913.55	224.70
913.85	224.70
914.15	224.71
914.46	224.72
914.76	224.67
915.06	224.64
915.37	224.61
915.67	224.59
915.97	224.60
916.27	224.57
916.58	224.57
916.88	224.58
917.18	224.57
917.49	224.62
917.79	224.60
918.09	224.60
918.39	224.63
918.70	224.62
919.00	224.65
919.30	224.70
919.60	224.67
919.91	224.66
920.21	224.63
920.51	224.60
920.81	224.59
921.12	224.68
921.42	224.68
921.72	224.71
922.02	224.72
922.32	224.72
922.63	224.72
922.93	224.78
923.23	224.80
923.53	224.83
923.83	224.76
924.13	224.79
924.44	224.80
924.74	224.80
925.04	224.81
925.34	224.79
925.64	224.76
925.94	224.77
926.24	224.81
926.55	224.83
926.85	224.84
927.15	224.83
927.45	224.82
927.75	224.80
928.05	224.82
928.35	224.83
928.65	224.84
928.95	224.85
929.26	224.81
929.56	224.84
929.86	224.80
930.16	224.81
930.46	224.81
930.76	224.82
931.06	224.79
931.36	224.78
931.66	224.78
931.96	224.77
932.26	224.80
932.56	224.79
932.86	224.83
933.16	224.87
933.46	224.89
933.76	224.89
934.06	224.94
934.36	224.96
934.66	224.95
934.96	224.93
935.26	224.96
935.56	224.97
935.86	224.93
936.16	224.94
936.46	224.90
936.76	224.93
937.06	224.93
937.36	224.98
937.66	224.95
937.96	224.98
938.26	224.97
938.56	224.95
938.86	224.94
939.16	224.95
939.46	224.92
939.76	224.91
940.06	224.89
940.35	224.88
940.65	224.85
940.95	224.84
941.25	224.84
941.55	224.83
941.85	224.82
942.15	224.87
942.45	224.90
942.75	224.92
943.04	224.91
943.34	224.90
943.64	224.84
943.94	224.88
944.24	224.88
944.54	224.90
944.84	224.89
945.13	224.86
945.43	224.80
945.73	224.78
946.03	224.79
946.33	224.76
946.62	224.72
946.92	224.71
947.22	224.74
947.52	224.75
947.82	224.76
948.11	224.74
948.41	224.70
948.71	224.68
949.01	224.68
949.31	224.65
949.60	224.64
949.90	224.66
950.20	224.65
950.50	224.63
950.79	224.60
951.09	224.60
951.39	224.61
951.69	224.63
951.98	224.65
952.28	224.66
952.58	224.70
952.87	224.70
953.17	224.69
953.47	224.70
953.76	224.66
954.06	224.63
954.36	224.60
954.66	224.57
954.95	224.58
955.25	224.56
955.55	224.59
955.84	224.58
956.14	224.59
956.44	224.57
956.73	224.56
957.03	224.59
957.32	224.62
957.62	224.61
957.92	224.61
958.21	224.60
958.51	224.72
958.81	224.70
959.10	224.73
959.40	224.76
959.69	224.73
959.99	224.77
960.29	224.80
960.58	224.82
960.88	224.87
961.17	224.85
961.47	224.86
961.76	224.82
962.06	224.85
962.36	224.84
962.65	224.82
962.95	224.83
963.24	224.81
963.54	224.81
963.83	224.84
964.13	224.86
964.42	224.83
964.72	224.76
965.01	224.77
965.31	224.76
965.60	224.71
965.90	224.78
966.19	224.75
966.49	224.74
966.78	224.72
967.08	224.71
967.37	224.71
967.67	224.71
967.96	224.73
968.26	224.74
968.55	224.74
968.85	224.75
969.14	224.72
969.43	224.74
969.73	224.70
970.02	224.69
970.32	224.71
970.61	224.73
970.91	224.63
971.20	224.64
971.49	224.62
971.79	224.63
972.08	224.59
972.38	224.60
972.67	224.55
972.96	224.57
973.26	224.56
973.55	224.58
973.85	224.58
974.14	224.57
974.43	224.56
974.73	224.54
975.02	224.51
975.31	224.51
975.61	224.49
975.90	224.51
976.19	224.47
976.49	224.45
976.78	224.42
977.07	224.45
977.37	224.44
977.66	224.45
977.95	224.46
978.24	224.49
978.54	224.49
978.83	224.53
979.12	224.51
979.42	224.50
979.71	224.50
980.00	224.50
980.29	224.52
980.59	224.52
980.88	224.55
981.17	224.56
981.46	224.56
981.76	224.56
982.05	224.57
982.34	224.58
982.63	224.57
982.93	224.57
983.22	224.59
983.51	224.60
983.80	224.61
984.09	224.64
984.39	224.57
984.68	224.56
984.97	224.54
985.26	224.57
985.55	224.60
985.85	224.58
986.14	224.56
986.43	224.57
986.72	224.57
987.01	224.55
987.30	224.56
987.59	224.59
987.89	224.59
988.18	224.56
988.47	224.56
988.76	224.55
989.05	224.53
989.34	224.54
989.63	224.55
989.92	224.52
990.22	224.49
990.51	224.52
990.80	224.51
991.09	224.53
991.38	224.51
991.67	224.47
991.96	224.44
992.25	224.47
992.54	224.45
992.83	224.43
993.12	224.41
993.41	224.40
993.70	224.41
993.99	224.43
994.28	224.46
994.58	224.48
994.87	224.47
995.16	224.49
995.45	224.47
995.74	224.41
996.03	224.42
996.32	224.42
996.61	224.43
996.90	224.42
997.19	224.40
997.48	224.42
997.77	224.43
998.06	224.47
998.34	224.46
998.63	224.44
998.92	224.44
999.21	224.47
999.50	224.51
999.79	224.50
1000.08	224.51
1000.37	224.51
1000.66	224.49
1000.95	224.50
1001.24	224.49
1001.53	224.52
1001.82	224.54
1002.11	224.52
1002.40	224.52
1002.68	224.52
1002.97	224.59
1003.26	224.60
1003.55	224.55
1003.84	224.57
1004.13	224.56
1004.42	224.53
1004.71	224.56
1004.99	224.55
1005.28	224.54
1005.57	224.54
1005.86	224.51
1006.15	224.47
1006.44	224.48
1006.72	224.49
1007.01	224.50
1007.30	224.53
1007.59	224.49
1007.88	224.50
1008.17	224.50
1008.45	224.51
1008.74	224.47
1009.03	224.44
1009.32	224.46
1009.60	224.49
1009.89	224.48
1010.18	224.46
1010.47	224.47
1010.76	224.45
1011.04	224.46
1011.33	224.50
1011.62	224.47
1011.91	224.47
1012.19	224.46
1012.48	224.44
1012.77	224.44
1013.05	224.48
1013.34	224.50
1013.63	224.48
1013.92	224.51
1014.20	224.52
1014.49	224.50
1014.78	224.53
1015.06	224.49
1015.35	224.46
1015.64	224.47
1015.92	224.45
1016.21	224.44
1016.50	224.41
1016.78	224.42
1017.07	224.40
1017.36	224.36
1017.64	224.32
1017.93	224.34
1018.22	224.34
1018.50	224.34
1018.79	224.33
1019.08	224.24
1019.36	224.24
1019.65	224.23
1019.93	224.22
1020.22	224.25
1020.51	224.28
1020.79	224.25
1021.08	223.89
1021.36	224.00
1021.65	224.52
1021.94	223.86
1022.22	224.77
1022.51	223.95
1022.79	224.60
1023.08	224.87
1023.36	225.14
1023.65	224.10
>>>>>End Processed Spectral Data<<<<<
