SpectraSuite Data File
++++++++++++++++++++++++++++++++++++
Date: Fri Feb 01 14:57:56 EST 2013
User: group
Dark Spectrum Present: No
Reference Spectrum Present: No
Number of Sampled Component Spectra: 1
Spectrometers: USB2E7196
Integration Time (usec): 35000 (USB2E7196)
Spectra Averaged: 100 (USB2E7196)
Boxcar Smoothing: 10 (USB2E7196)
Correct for Electrical Dark: No (USB2E7196)
Strobe/Lamp Enabled: No (USB2E7196)
Correct for Detector Non-linearity: No (USB2E7196)
Correct for Stray Light: No (USB2E7196)
Number of Pixels in Processed Spectrum: 2048
>>>>>Begin Processed Spectral Data<<<<<
339.09	0.00
339.48	214.89
339.86	216.93
340.24	217.75
340.63	219.77
341.01	222.10
341.39	222.33
341.78	223.43
342.16	224.69
342.54	224.89
342.93	213.60
343.31	224.38
343.69	224.96
344.07	225.42
344.46	225.85
344.84	226.21
345.22	226.49
345.60	226.73
345.99	226.94
346.37	227.07
346.75	227.20
347.13	227.24
347.52	227.32
347.90	227.36
348.28	227.42
348.66	227.45
349.05	227.42
349.43	227.43
349.81	227.46
350.19	227.49
350.57	227.57
350.96	227.65
351.34	227.72
351.72	227.76
352.10	227.86
352.48	227.94
352.87	228.00
353.25	228.04
353.63	228.10
354.01	228.15
354.39	228.23
354.77	228.30
355.15	228.40
355.54	228.42
355.92	228.45
356.30	228.48
356.68	228.61
357.06	228.68
357.44	228.76
357.82	228.85
358.20	228.92
358.58	228.99
358.97	229.02
359.35	229.12
359.73	229.18
360.11	229.22
360.49	229.27
360.87	229.30
361.25	229.35
361.63	229.40
362.01	229.45
362.39	229.47
362.77	229.51
363.15	229.53
363.53	229.59
363.91	229.63
364.29	229.67
364.67	229.57
365.05	229.58
365.43	229.59
365.81	229.61
366.19	229.63
366.57	229.62
366.95	229.59
367.33	229.56
367.71	229.53
368.09	229.53
368.47	229.51
368.85	229.48
369.23	229.46
369.61	229.39
369.99	229.40
370.37	229.37
370.75	229.34
371.13	229.27
371.51	229.20
371.89	229.17
372.27	229.12
372.65	229.08
373.03	229.01
373.41	228.94
373.78	228.88
374.16	228.79
374.54	228.76
374.92	228.70
375.30	228.61
375.68	228.53
376.06	228.46
376.44	228.37
376.82	228.29
377.19	228.21
377.57	228.13
377.95	228.01
378.33	227.91
378.71	227.81
379.09	227.73
379.47	227.67
379.84	227.57
380.22	227.44
380.60	227.34
380.98	227.29
381.36	227.22
381.73	227.12
382.11	227.06
382.49	226.95
382.87	226.86
383.25	226.83
383.62	226.92
384.00	226.82
384.38	226.78
384.76	226.75
385.13	226.71
385.51	226.67
385.89	226.58
386.27	226.56
386.64	226.52
387.02	226.44
387.40	226.38
387.78	226.35
388.15	226.34
388.53	226.32
388.91	226.27
389.29	226.21
389.66	226.18
390.04	226.16
390.42	226.17
390.79	226.17
391.17	226.17
391.55	226.02
391.92	226.00
392.30	226.00
392.68	225.97
393.05	225.97
393.43	226.00
393.81	226.07
394.18	226.07
394.56	226.10
394.94	226.17
395.31	226.19
395.69	226.23
396.06	226.28
396.44	226.35
396.82	226.39
397.19	226.50
397.57	226.57
397.95	226.66
398.32	226.70
398.70	226.78
399.07	226.86
399.45	226.94
399.82	227.03
400.20	227.14
400.58	227.26
400.95	227.32
401.33	227.40
401.70	227.53
402.08	227.64
402.45	227.75
402.83	227.90
403.20	228.06
403.58	228.18
403.95	228.32
404.33	228.46
404.71	228.61
405.08	228.79
405.46	228.93
405.83	229.08
406.21	229.25
406.58	229.44
406.96	229.59
407.33	229.79
407.70	230.01
408.08	230.25
408.45	230.50
408.83	230.75
409.20	230.98
409.58	231.17
409.95	231.45
410.33	231.72
410.70	231.96
411.08	232.23
411.45	232.56
411.82	232.86
412.20	233.21
412.57	233.62
412.95	233.97
413.32	234.39
413.69	234.79
414.07	235.21
414.44	235.64
414.82	236.13
415.19	236.66
415.56	237.24
415.94	237.78
416.31	238.40
416.68	239.03
417.06	239.72
417.43	240.40
417.81	241.17
418.18	241.96
418.55	242.78
418.93	243.66
419.30	244.52
419.67	245.47
420.04	246.42
420.42	247.39
420.79	248.54
421.16	249.70
421.54	250.88
421.91	252.11
422.28	253.39
422.66	254.70
423.03	256.01
423.40	257.30
423.77	258.72
424.15	260.11
424.52	261.59
424.89	263.24
425.26	264.78
425.64	266.21
426.01	267.78
426.38	269.42
426.75	271.09
427.13	272.83
427.50	274.63
427.87	276.51
428.24	278.40
428.61	280.14
428.99	282.09
429.36	284.21
429.73	286.27
430.10	288.27
430.47	290.35
430.85	292.45
431.22	294.70
431.59	297.07
431.96	299.35
432.33	301.84
432.70	304.20
433.08	307.02
433.45	309.63
433.82	312.27
434.19	315.16
434.56	317.99
434.93	320.63
435.30	323.25
435.68	326.11
436.05	328.92
436.42	331.71
436.79	334.23
437.16	336.95
437.53	339.80
437.90	342.67
438.27	345.41
438.64	348.29
439.01	350.88
439.38	353.13
439.75	355.33
440.13	357.84
440.50	360.17
440.87	362.01
441.24	363.99
441.61	366.12
441.98	367.62
442.35	369.41
442.72	371.27
443.09	373.11
443.46	374.14
443.83	374.72
444.20	375.27
444.57	376.07
444.94	376.34
445.31	376.70
445.68	376.98
446.05	377.09
446.42	376.70
446.79	376.28
447.16	375.84
447.53	375.49
447.90	374.33
448.27	373.21
448.64	371.62
449.01	370.47
449.37	368.52
449.74	366.64
450.11	364.37
450.48	361.88
450.85	359.35
451.22	357.18
451.59	355.14
451.96	353.13
452.33	350.53
452.70	348.16
453.07	345.30
453.43	342.40
453.80	339.65
454.17	336.96
454.54	334.41
454.91	331.68
455.28	329.00
455.65	326.55
456.02	324.06
456.38	321.96
456.75	319.30
457.12	317.08
457.49	314.86
457.86	312.68
458.23	310.85
458.59	308.78
458.96	306.71
459.33	304.88
459.70	303.07
460.07	301.57
460.43	299.82
460.80	298.21
461.17	296.81
461.54	295.28
461.91	293.85
462.27	292.42
462.64	291.15
463.01	289.76
463.38	288.42
463.74	287.03
464.11	285.83
464.48	284.81
464.85	283.65
465.21	282.75
465.58	281.82
465.95	280.78
466.32	279.87
466.68	278.97
467.05	278.05
467.42	277.08
467.78	276.12
468.15	275.25
468.52	274.58
468.88	273.65
469.25	272.86
469.62	272.23
469.98	271.52
470.35	270.89
470.72	270.31
471.08	269.63
471.45	269.08
471.82	268.52
472.18	267.91
472.55	267.46
472.92	266.94
473.28	266.50
473.65	265.98
474.02	265.52
474.38	265.11
474.75	264.82
475.11	264.50
475.48	264.28
475.85	264.04
476.21	263.77
476.58	263.61
476.94	263.45
477.31	263.26
477.67	263.10
478.04	262.96
478.41	262.85
478.77	262.88
479.14	262.86
479.50	262.84
479.87	262.87
480.23	262.95
480.60	263.02
480.96	263.06
481.33	263.29
481.69	263.45
482.06	263.64
482.42	263.79
482.79	264.07
483.15	264.37
483.52	264.76
483.88	265.12
484.25	265.51
484.61	265.93
484.98	266.37
485.34	266.95
485.71	267.55
486.07	268.16
486.44	268.70
486.80	269.40
487.17	270.17
487.53	271.02
487.90	271.86
488.26	272.77
488.62	273.75
488.99	274.72
489.35	275.79
489.72	276.92
490.08	278.11
490.44	279.34
490.81	280.63
491.17	281.95
491.54	283.41
491.90	284.94
492.26	286.56
492.63	288.30
492.99	290.10
493.36	291.97
493.72	294.01
494.08	296.11
494.45	298.31
494.81	300.65
495.17	303.06
495.54	305.59
495.90	308.26
496.26	311.02
496.63	313.96
496.99	317.07
497.35	320.33
497.72	323.71
498.08	327.22
498.44	330.86
498.80	334.78
499.17	338.83
499.53	342.97
499.89	347.30
500.26	351.74
500.62	356.36
500.98	361.31
501.34	366.35
501.71	371.65
502.07	377.09
502.43	382.68
502.79	388.49
503.16	394.59
503.52	400.83
503.88	407.23
504.24	413.81
504.60	420.68
504.97	427.79
505.33	435.09
505.69	442.74
506.05	450.50
506.41	458.34
506.78	466.44
507.14	474.86
507.50	483.54
507.86	492.58
508.22	501.71
508.59	510.93
508.95	520.48
509.31	530.30
509.67	540.37
510.03	550.63
510.39	561.13
510.75	571.84
511.12	582.74
511.48	594.07
511.84	605.55
512.20	617.04
512.56	628.92
512.92	641.12
513.28	653.29
513.64	665.79
514.00	678.55
514.37	691.41
514.73	704.47
515.09	717.54
515.45	730.81
515.81	744.39
516.17	758.36
516.53	772.55
516.89	786.73
517.25	800.88
517.61	815.41
517.97	829.87
518.33	844.33
518.69	859.16
519.05	874.10
519.41	889.30
519.77	904.88
520.13	920.40
520.49	935.72
520.85	951.35
521.21	967.05
521.57	983.32
521.93	999.20
522.29	1015.57
522.65	1031.82
523.01	1048.08
523.37	1064.30
523.73	1080.52
524.09	1096.56
524.45	1112.93
524.81	1129.64
525.17	1146.45
525.53	1163.40
525.89	1180.27
526.25	1197.08
526.61	1213.61
526.97	1230.27
527.33	1246.93
527.68	1263.58
528.04	1280.21
528.40	1296.89
528.76	1313.98
529.12	1330.61
529.48	1347.60
529.84	1363.75
530.20	1380.46
530.56	1397.62
530.91	1415.07
531.27	1431.95
531.63	1448.50
531.99	1465.09
532.35	1481.19
532.71	1497.10
533.07	1513.45
533.42	1529.55
533.78	1545.75
534.14	1562.04
534.50	1577.56
534.86	1593.44
535.21	1608.57
535.57	1624.63
535.93	1640.15
536.29	1655.14
536.65	1670.28
537.00	1685.16
537.36	1700.64
537.72	1715.39
538.08	1729.80
538.44	1743.65
538.79	1757.55
539.15	1771.48
539.51	1785.35
539.87	1799.84
540.22	1813.75
540.58	1827.72
540.94	1841.15
541.29	1854.26
541.65	1867.16
542.01	1880.51
542.37	1892.80
542.72	1905.48
543.08	1917.24
543.44	1929.69
543.79	1941.16
544.15	1952.29
544.51	1963.70
544.87	1974.70
545.22	1985.59
545.58	1995.94
545.94	2005.77
546.29	2015.81
546.65	2025.57
547.01	2034.96
547.36	2043.59
547.72	2051.96
548.07	2059.95
548.43	2068.28
548.79	2076.23
549.14	2083.55
549.50	2090.91
549.86	2098.85
550.21	2106.14
550.57	2113.43
550.92	2120.04
551.28	2126.98
551.64	2133.96
551.99	2140.68
552.35	2146.82
552.70	2152.72
553.06	2158.51
553.41	2164.88
553.77	2170.82
554.13	2176.95
554.48	2182.95
554.84	2188.27
555.19	2193.71
555.55	2198.56
555.90	2202.84
556.26	2207.55
556.61	2212.33
556.97	2216.43
557.32	2220.37
557.68	2224.37
558.03	2228.73
558.39	2232.48
558.74	2237.04
559.10	2240.81
559.45	2244.34
559.81	2248.70
560.16	2252.53
560.52	2255.83
560.87	2259.13
561.23	2261.70
561.58	2264.66
561.94	2266.99
562.29	2269.50
562.64	2271.93
563.00	2274.57
563.35	2278.00
563.71	2281.16
564.06	2284.37
564.42	2287.25
564.77	2289.57
565.12	2291.74
565.48	2293.42
565.83	2294.96
566.19	2295.94
566.54	2296.86
566.89	2297.81
567.25	2298.12
567.60	2299.44
567.96	2300.91
568.31	2301.59
568.66	2302.47
569.02	2302.65
569.37	2302.82
569.72	2303.40
570.08	2303.37
570.43	2303.22
570.78	2302.43
571.14	2300.65
571.49	2299.05
571.84	2298.65
572.20	2297.28
572.55	2296.00
572.90	2294.30
573.26	2292.72
573.61	2290.95
573.96	2288.98
574.31	2285.83
574.67	2282.53
575.02	2278.63
575.37	2275.15
575.72	2271.13
576.08	2267.70
576.43	2264.42
576.78	2260.69
577.13	2257.45
577.49	2254.29
577.84	2250.59
578.19	2246.77
578.54	2242.92
578.90	2238.54
579.25	2232.62
579.60	2227.44
579.95	2222.30
580.30	2217.08
580.66	2211.84
581.01	2206.89
581.36	2201.81
581.71	2197.54
582.06	2193.02
582.42	2188.42
582.77	2183.07
583.12	2178.31
583.47	2173.45
583.82	2168.21
584.17	2162.84
584.53	2157.19
584.88	2151.36
585.23	2145.45
585.58	2139.72
585.93	2134.29
586.28	2129.47
586.63	2124.45
586.98	2119.43
587.34	2114.83
587.69	2109.75
588.04	2104.41
588.39	2098.46
588.74	2091.91
589.09	2085.67
589.44	2078.69
589.79	2072.61
590.14	2066.90
590.49	2060.34
590.84	2053.83
591.19	2047.64
591.54	2041.09
591.89	2033.51
592.25	2026.64
592.60	2019.32
592.95	2011.60
593.30	2004.11
593.65	1996.40
594.00	1989.25
594.35	1981.86
594.70	1973.69
595.05	1966.40
595.40	1959.05
595.75	1951.73
596.10	1945.31
596.45	1938.37
596.80	1932.25
597.15	1925.57
597.50	1918.25
597.85	1911.83
598.19	1905.06
598.54	1897.92
598.89	1891.17
599.24	1885.29
599.59	1878.46
599.94	1872.17
600.29	1865.84
600.64	1859.18
600.99	1851.57
601.34	1844.66
601.69	1837.68
602.04	1830.57
602.39	1823.17
602.74	1816.36
603.08	1809.43
603.43	1802.76
603.78	1795.58
604.13	1788.27
604.48	1780.73
604.83	1773.98
605.18	1766.68
605.53	1758.61
605.87	1750.70
606.22	1743.46
606.57	1735.60
606.92	1728.27
607.27	1721.09
607.62	1714.19
607.96	1706.87
608.31	1700.23
608.66	1692.49
609.01	1684.89
609.36	1677.44
609.70	1669.46
610.05	1661.31
610.40	1653.65
610.75	1645.22
611.10	1637.58
611.44	1629.33
611.79	1621.35
612.14	1612.66
612.49	1603.76
612.83	1595.54
613.18	1587.37
613.53	1579.18
613.88	1570.57
614.22	1562.44
614.57	1553.99
614.92	1545.95
615.27	1538.45
615.61	1530.23
615.96	1522.38
616.31	1514.89
616.65	1507.55
617.00	1500.06
617.35	1492.48
617.70	1484.09
618.04	1475.60
618.39	1467.36
618.74	1459.71
619.08	1451.64
619.43	1444.15
619.78	1437.23
620.12	1429.99
620.47	1422.38
620.82	1414.45
621.16	1407.15
621.51	1399.57
621.85	1391.91
622.20	1383.53
622.55	1375.34
622.89	1367.57
623.24	1359.95
623.59	1352.62
623.93	1345.13
624.28	1337.94
624.62	1330.51
624.97	1323.39
625.32	1316.89
625.66	1309.95
626.01	1302.84
626.35	1295.27
626.70	1287.56
627.04	1279.82
627.39	1272.28
627.73	1265.02
628.08	1258.18
628.43	1250.74
628.77	1243.31
629.12	1235.77
629.46	1228.67
629.81	1221.25
630.15	1214.06
630.50	1206.81
630.84	1198.63
631.19	1190.85
631.53	1183.44
631.88	1175.88
632.22	1168.41
632.57	1161.08
632.91	1153.51
633.26	1146.12
633.60	1138.91
633.95	1131.91
634.29	1125.04
634.64	1118.34
634.98	1111.05
635.32	1103.93
635.67	1097.57
636.01	1091.02
636.36	1084.28
636.70	1077.84
637.05	1071.30
637.39	1064.96
637.73	1058.41
638.08	1052.59
638.42	1046.58
638.77	1040.13
639.11	1033.56
639.45	1027.17
639.80	1020.54
640.14	1014.18
640.49	1007.70
640.83	1001.51
641.17	995.26
641.52	988.94
641.86	982.52
642.20	976.76
642.55	970.55
642.89	964.03
643.23	957.49
643.58	951.75
643.92	945.62
644.26	939.54
644.61	933.55
644.95	927.54
645.29	920.95
645.64	914.27
645.98	907.94
646.32	902.17
646.66	896.15
647.01	890.41
647.35	884.75
647.69	878.99
648.04	873.43
648.38	867.61
648.72	861.56
649.06	855.64
649.41	849.66
649.75	843.59
650.09	837.63
650.43	831.99
650.78	825.89
651.12	819.84
651.46	814.16
651.80	808.34
652.14	802.98
652.49	797.59
652.83	792.43
653.17	786.78
653.51	781.00
653.85	775.69
654.20	770.02
654.54	764.05
654.88	758.36
655.22	752.56
655.56	746.92
655.90	741.54
656.25	736.15
656.59	730.87
656.93	725.88
657.27	720.80
657.61	715.31
657.95	710.26
658.29	705.20
658.64	699.99
658.98	694.72
659.32	689.31
659.66	684.17
660.00	678.84
660.34	673.92
660.68	669.07
661.02	664.06
661.36	659.42
661.70	654.92
662.05	650.52
662.39	646.16
662.73	641.73
663.07	637.37
663.41	633.09
663.75	628.67
664.09	624.11
664.43	619.76
664.77	615.71
665.11	611.48
665.45	607.47
665.79	603.38
666.13	599.33
666.47	595.29
666.81	591.16
667.15	587.13
667.49	583.35
667.83	579.67
668.17	575.72
668.51	571.66
668.85	567.72
669.19	564.00
669.53	560.22
669.87	556.36
670.21	552.71
670.55	549.09
670.89	545.70
671.23	542.28
671.57	538.81
671.91	535.32
672.25	531.89
672.58	528.40
672.92	525.12
673.26	522.01
673.60	518.92
673.94	515.88
674.28	513.02
674.62	510.10
674.96	506.99
675.30	504.19
675.64	501.34
675.97	498.65
676.31	495.74
676.65	492.85
676.99	490.21
677.33	487.39
677.67	484.57
678.01	481.55
678.34	478.64
678.68	475.84
679.02	473.06
679.36	470.31
679.70	467.58
680.04	464.84
680.37	462.00
680.71	459.19
681.05	456.59
681.39	453.86
681.73	451.18
682.06	448.70
682.40	446.08
682.74	443.54
683.08	440.99
683.42	438.48
683.75	436.03
684.09	433.55
684.43	431.10
684.77	428.67
685.10	426.33
685.44	424.07
685.78	421.76
686.12	419.52
686.45	417.26
686.79	415.00
687.13	412.81
687.46	410.69
687.80	408.58
688.14	406.37
688.48	404.34
688.81	402.10
689.15	399.94
689.49	397.87
689.82	395.82
690.16	393.72
690.50	391.73
690.83	389.79
691.17	387.77
691.51	385.84
691.84	384.01
692.18	382.11
692.52	380.08
692.85	378.17
693.19	376.29
693.52	374.48
693.86	372.67
694.20	370.91
694.53	369.06
694.87	367.25
695.21	365.48
695.54	363.66
695.88	361.98
696.21	360.26
696.55	358.56
696.88	356.87
697.22	355.27
697.56	353.67
697.89	352.01
698.23	350.37
698.56	348.78
698.90	347.17
699.23	345.49
699.57	343.97
699.90	342.45
700.24	340.95
700.58	339.43
700.91	337.93
701.25	336.47
701.58	335.13
701.92	333.72
702.25	332.36
702.59	331.05
702.92	329.74
703.26	328.46
703.59	327.23
703.93	326.05
704.26	324.83
704.60	323.54
704.93	322.28
705.26	321.09
705.60	319.94
705.93	318.82
706.27	317.85
706.60	316.86
706.94	315.78
707.27	314.69
707.61	313.65
707.94	312.68
708.27	311.58
708.61	310.53
708.94	309.61
709.28	308.62
709.61	307.67
709.94	306.70
710.28	305.68
710.61	304.67
710.95	303.61
711.28	302.71
711.61	301.79
711.95	300.90
712.28	299.96
712.61	299.00
712.95	298.03
713.28	297.15
713.61	296.21
713.95	295.34
714.28	294.47
714.61	293.63
714.95	292.75
715.28	291.93
715.61	291.09
715.95	290.22
716.28	289.39
716.61	288.54
716.95	287.73
717.28	286.99
717.61	286.25
717.94	285.55
718.28	284.71
718.61	283.99
718.94	283.30
719.27	282.66
719.61	282.03
719.94	281.40
720.27	280.71
720.60	280.08
720.94	279.45
721.27	278.87
721.60	278.30
721.93	277.73
722.27	277.22
722.60	276.63
722.93	276.07
723.26	275.54
723.59	275.00
723.93	274.51
724.26	273.95
724.59	273.43
724.92	272.92
725.25	272.48
725.59	271.95
725.92	271.44
726.25	270.92
726.58	270.43
726.91	269.93
727.24	269.48
727.57	268.99
727.91	268.51
728.24	268.04
728.57	267.53
728.90	267.06
729.23	266.51
729.56	266.10
729.89	265.61
730.22	265.13
730.55	264.65
730.89	264.15
731.22	263.72
731.55	263.28
731.88	262.80
732.21	262.34
732.54	261.91
732.87	261.49
733.20	261.10
733.53	260.68
733.86	260.31
734.19	259.91
734.52	259.55
734.85	259.23
735.18	258.81
735.51	258.43
735.84	258.07
736.17	257.73
736.50	257.31
736.83	257.08
737.16	256.75
737.49	256.43
737.82	256.10
738.15	255.78
738.48	255.42
738.81	255.10
739.14	254.80
739.47	254.47
739.80	254.19
740.13	253.85
740.46	253.56
740.79	253.21
741.12	252.87
741.45	252.53
741.78	252.18
742.11	251.89
742.44	251.56
742.77	251.27
743.10	250.99
743.43	250.72
743.75	250.34
744.08	250.18
744.41	249.90
744.74	249.60
745.07	249.31
745.40	249.05
745.73	248.85
746.06	248.55
746.39	248.34
746.71	248.05
747.04	247.82
747.37	247.54
747.70	247.30
748.03	247.06
748.36	246.83
748.68	246.58
749.01	246.31
749.34	246.11
749.67	245.86
750.00	245.61
750.33	245.41
750.65	245.18
750.98	244.88
751.31	244.65
751.64	244.48
751.97	244.33
752.29	244.13
752.62	243.87
752.95	243.68
753.28	243.44
753.60	243.25
753.93	243.06
754.26	242.89
754.59	242.69
754.91	242.47
755.24	242.29
755.57	242.11
755.90	241.95
756.22	241.74
756.55	241.57
756.88	241.39
757.20	241.17
757.53	241.03
757.86	240.86
758.19	240.73
758.51	240.54
758.84	240.31
759.17	240.14
759.49	240.00
759.82	239.87
760.15	239.75
760.47	239.58
760.80	239.43
761.13	239.30
761.45	239.12
761.78	239.02
762.11	238.90
762.43	238.75
762.76	238.65
763.08	238.57
763.41	238.43
763.74	238.31
764.06	238.18
764.39	238.04
764.71	237.88
765.04	237.74
765.37	237.63
765.69	237.54
766.02	237.44
766.34	237.32
766.67	237.19
767.00	237.07
767.32	237.01
767.65	236.94
767.97	236.82
768.30	236.72
768.62	236.61
768.95	236.48
769.27	236.36
769.60	236.27
769.92	236.14
770.25	236.01
770.57	235.88
770.90	235.80
771.22	235.69
771.55	235.60
771.87	235.50
772.20	235.41
772.52	235.37
772.85	235.38
773.17	235.26
773.50	235.17
773.82	235.05
774.15	234.89
774.47	234.72
774.80	234.61
775.12	234.55
775.45	234.46
775.77	234.37
776.09	234.31
776.42	234.20
776.74	234.13
777.07	234.04
777.39	233.97
777.72	233.87
778.04	233.80
778.36	233.71
778.69	233.62
779.01	233.55
779.33	233.38
779.66	233.18
779.98	233.11
780.31	233.01
780.63	233.02
780.95	232.96
781.28	232.88
781.60	232.81
781.92	232.71
782.25	232.59
782.57	232.52
782.89	232.46
783.22	232.38
783.54	232.29
783.86	232.24
784.19	232.19
784.51	232.17
784.83	232.11
785.16	232.03
785.48	231.99
785.80	231.92
786.12	231.89
786.45	231.86
786.77	231.84
787.09	231.76
787.42	231.67
787.74	231.65
788.06	231.64
788.38	231.60
788.71	231.56
789.03	231.53
789.35	231.51
789.67	231.43
789.99	231.41
790.32	231.37
790.64	231.37
790.96	231.40
791.28	231.33
791.61	231.28
791.93	231.24
792.25	231.23
792.57	231.26
792.89	231.22
793.21	231.21
793.54	231.11
793.86	231.12
794.18	231.08
794.50	231.04
794.82	231.02
795.14	230.99
795.47	230.99
795.79	231.00
796.11	230.95
796.43	230.91
796.75	230.89
797.07	230.87
797.39	230.81
797.71	230.71
798.04	230.68
798.36	230.65
798.68	230.66
799.00	230.61
799.32	230.53
799.64	230.52
799.96	230.48
800.28	230.52
800.60	230.47
800.92	230.45
801.24	230.40
801.56	230.38
801.89	230.36
802.21	230.35
802.53	230.32
802.85	230.33
803.17	230.39
803.49	230.33
803.81	230.27
804.13	230.27
804.45	230.26
804.77	230.27
805.09	230.23
805.41	230.20
805.73	230.15
806.05	230.12
806.37	230.09
806.69	230.05
807.01	229.99
807.33	230.01
807.65	229.95
807.97	229.96
808.28	229.93
808.60	229.89
808.92	229.84
809.24	229.85
809.56	229.81
809.88	229.73
810.20	229.72
810.52	229.74
810.84	229.70
811.16	229.63
811.48	229.59
811.80	229.63
812.12	229.59
812.43	229.60
812.75	229.58
813.07	229.55
813.39	229.51
813.71	229.50
814.03	229.44
814.35	229.40
814.67	229.34
814.98	229.28
815.30	229.28
815.62	229.24
815.94	229.14
816.26	229.15
816.58	229.10
816.89	229.08
817.21	228.99
817.53	228.96
817.85	228.93
818.17	228.88
818.48	228.78
818.80	228.76
819.12	228.71
819.44	228.66
819.76	228.64
820.07	228.60
820.39	228.54
820.71	228.50
821.03	228.48
821.34	228.44
821.66	228.41
821.98	228.38
822.30	228.35
822.61	228.38
822.93	228.30
823.25	228.29
823.57	228.28
823.88	228.30
824.20	228.28
824.52	228.31
824.83	228.29
825.15	228.24
825.47	228.19
825.79	228.15
826.10	228.10
826.42	228.07
826.74	228.09
827.05	228.08
827.37	228.10
827.69	228.08
828.00	228.08
828.32	228.08
828.64	228.04
828.95	228.06
829.27	228.03
829.58	228.01
829.90	228.03
830.22	228.00
830.53	227.94
830.85	227.92
831.17	227.83
831.48	227.82
831.80	227.84
832.11	227.84
832.43	227.82
832.75	227.82
833.06	227.82
833.38	227.76
833.69	227.76
834.01	227.73
834.32	227.73
834.64	227.73
834.96	227.73
835.27	227.70
835.59	227.69
835.90	227.65
836.22	227.65
836.53	227.62
836.85	227.61
837.16	227.72
837.48	227.74
837.79	227.83
838.11	227.80
838.42	227.82
838.74	227.83
839.05	227.85
839.37	227.84
839.68	227.80
840.00	227.83
840.31	227.84
840.63	227.81
840.94	227.82
841.26	227.83
841.57	227.85
841.88	227.87
842.20	227.87
842.51	227.90
842.83	227.92
843.14	227.99
843.46	227.99
843.77	227.96
844.08	227.93
844.40	227.87
844.71	227.89
845.03	227.87
845.34	227.85
845.65	227.89
845.97	227.91
846.28	227.97
846.60	227.98
846.91	227.97
847.22	228.01
847.54	228.02
847.85	228.01
848.16	228.00
848.48	228.00
848.79	228.03
849.10	228.03
849.42	228.03
849.73	227.95
850.04	227.95
850.36	227.93
850.67	227.96
850.98	227.96
851.30	227.98
851.61	227.99
851.92	228.03
852.23	228.03
852.55	228.04
852.86	228.02
853.17	227.98
853.49	227.99
853.80	228.03
854.11	228.05
854.42	228.05
854.74	228.02
855.05	228.03
855.36	228.01
855.67	228.00
855.99	228.01
856.30	228.12
856.61	228.11
856.92	228.10
857.23	228.09
857.55	228.09
857.86	228.07
858.17	228.10
858.48	228.03
858.79	228.02
859.11	228.01
859.42	227.99
859.73	228.02
860.04	227.99
860.35	227.98
860.66	227.93
860.98	227.89
861.29	227.89
861.60	227.84
861.91	227.81
862.22	227.82
862.53	227.75
862.84	227.65
863.16	227.66
863.47	227.66
863.78	227.57
864.09	227.56
864.40	227.55
864.71	227.51
865.02	227.53
865.33	227.46
865.64	227.42
865.95	227.44
866.27	227.48
866.58	227.44
866.89	227.42
867.20	227.44
867.51	227.45
867.82	227.43
868.13	227.49
868.44	227.46
868.75	227.46
869.06	227.50
869.37	227.50
869.68	227.50
869.99	227.47
870.30	227.52
870.61	227.52
870.92	227.51
871.23	227.51
871.54	227.52
871.85	227.59
872.16	227.61
872.47	227.60
872.78	227.54
873.09	227.59
873.40	227.57
873.71	227.55
874.02	227.56
874.33	227.57
874.64	227.50
874.95	227.52
875.26	227.47
875.56	227.45
875.87	227.41
876.18	227.40
876.49	227.52
876.80	227.50
877.11	227.51
877.42	227.49
877.73	227.51
878.04	227.49
878.35	227.48
878.66	227.48
878.96	227.47
879.27	227.44
879.58	227.44
879.89	227.43
880.20	227.45
880.51	227.46
880.82	227.47
881.12	227.50
881.43	227.49
881.74	227.49
882.05	227.50
882.36	227.52
882.67	227.55
882.97	227.42
883.28	227.41
883.59	227.40
883.90	227.41
884.21	227.42
884.51	227.43
884.82	227.43
885.13	227.45
885.44	227.45
885.74	227.46
886.05	227.45
886.36	227.48
886.67	227.43
886.98	227.46
887.28	227.49
887.59	227.47
887.90	227.51
888.20	227.53
888.51	227.55
888.82	227.56
889.13	227.53
889.43	227.63
889.74	227.64
890.05	227.64
890.35	227.65
890.66	227.61
890.97	227.59
891.28	227.59
891.58	227.62
891.89	227.60
892.20	227.59
892.50	227.57
892.81	227.51
893.12	227.55
893.42	227.51
893.73	227.51
894.04	227.49
894.34	227.47
894.65	227.47
894.95	227.46
895.26	227.44
895.57	227.47
895.87	227.38
896.18	227.42
896.48	227.40
896.79	227.40
897.10	227.43
897.40	227.42
897.71	227.41
898.01	227.35
898.32	227.39
898.63	227.39
898.93	227.39
899.24	227.40
899.54	227.36
899.85	227.35
900.15	227.29
900.46	227.31
900.76	227.30
901.07	227.26
901.38	227.25
901.68	227.25
901.99	227.19
902.29	227.21
902.60	227.18
902.90	227.21
903.21	227.22
903.51	227.21
903.82	227.24
904.12	227.23
904.43	227.22
904.73	227.21
905.03	227.22
905.34	227.33
905.64	227.35
905.95	227.34
906.25	227.36
906.56	227.38
906.86	227.37
907.17	227.37
907.47	227.40
907.77	227.40
908.08	227.38
908.38	227.39
908.69	227.37
908.99	227.35
909.30	227.34
909.60	227.31
909.90	227.29
910.21	227.28
910.51	227.26
910.81	227.26
911.12	227.24
911.42	227.25
911.73	227.13
912.03	227.13
912.33	227.16
912.64	227.14
912.94	227.12
913.24	227.13
913.55	227.11
913.85	227.09
914.15	227.09
914.46	227.09
914.76	227.08
915.06	227.09
915.37	227.10
915.67	227.11
915.97	227.11
916.27	227.10
916.58	227.07
916.88	227.08
917.18	227.08
917.49	227.14
917.79	227.11
918.09	227.08
918.39	227.08
918.70	227.07
919.00	227.08
919.30	227.12
919.60	227.08
919.91	227.13
920.21	227.12
920.51	227.11
920.81	227.12
921.12	227.14
921.42	227.16
921.72	227.18
922.02	227.17
922.32	227.19
922.63	227.19
922.93	227.26
923.23	227.24
923.53	227.23
923.83	227.18
924.13	227.20
924.44	227.22
924.74	227.26
925.04	227.28
925.34	227.28
925.64	227.27
925.94	227.27
926.24	227.29
926.55	227.29
926.85	227.30
927.15	227.30
927.45	227.32
927.75	227.32
928.05	227.31
928.35	227.32
928.65	227.34
928.95	227.36
929.26	227.33
929.56	227.37
929.86	227.38
930.16	227.37
930.46	227.39
930.76	227.45
931.06	227.39
931.36	227.39
931.66	227.44
931.96	227.43
932.26	227.47
932.56	227.41
932.86	227.45
933.16	227.45
933.46	227.46
933.76	227.45
934.06	227.48
934.36	227.50
934.66	227.50
934.96	227.51
935.26	227.49
935.56	227.51
935.86	227.51
936.16	227.49
936.46	227.47
936.76	227.48
937.06	227.42
937.36	227.42
937.66	227.41
937.96	227.37
938.26	227.37
938.56	227.34
938.86	227.37
939.16	227.35
939.46	227.35
939.76	227.35
940.06	227.32
940.35	227.26
940.65	227.18
940.95	227.17
941.25	227.11
941.55	227.12
941.85	227.12
942.15	227.10
942.45	227.13
942.75	227.13
943.04	227.12
943.34	227.14
943.64	227.13
943.94	227.13
944.24	227.14
944.54	227.12
944.84	227.11
945.13	227.08
945.43	227.05
945.73	227.03
946.03	227.00
946.33	227.01
946.62	227.01
946.92	227.03
947.22	227.02
947.52	227.04
947.82	227.04
948.11	227.01
948.41	226.97
948.71	226.92
949.01	226.91
949.31	226.90
949.60	226.86
949.90	226.86
950.20	226.82
950.50	226.83
950.79	226.83
951.09	226.85
951.39	226.86
951.69	226.85
951.98	226.88
952.28	226.88
952.58	226.88
952.87	226.87
953.17	226.88
953.47	226.89
953.76	226.86
954.06	226.85
954.36	226.86
954.66	226.90
954.95	226.95
955.25	226.96
955.55	226.93
955.84	226.95
956.14	226.96
956.44	226.97
956.73	226.90
957.03	226.91
957.32	226.92
957.62	226.91
957.92	226.96
958.21	226.92
958.51	227.03
958.81	227.07
959.10	227.07
959.40	227.09
959.69	227.11
959.99	227.12
960.29	227.13
960.58	227.12
960.88	227.15
961.17	227.14
961.47	227.18
961.76	227.18
962.06	227.17
962.36	227.17
962.65	227.16
962.95	227.18
963.24	227.16
963.54	227.16
963.83	227.19
964.13	227.20
964.42	227.20
964.72	227.15
965.01	227.14
965.31	227.14
965.60	227.12
965.90	227.17
966.19	227.15
966.49	227.13
966.78	227.13
967.08	227.13
967.37	227.14
967.67	227.12
967.96	227.16
968.26	227.18
968.55	227.26
968.85	227.29
969.14	227.34
969.43	227.34
969.73	227.33
970.02	227.33
970.32	227.28
970.61	227.29
970.91	227.24
971.20	227.22
971.49	227.20
971.79	227.21
972.08	227.14
972.38	227.17
972.67	227.19
972.96	227.19
973.26	227.17
973.55	227.18
973.85	227.15
974.14	227.13
974.43	227.15
974.73	227.10
975.02	227.08
975.31	227.07
975.61	227.11
975.90	227.08
976.19	227.07
976.49	227.11
976.78	227.09
977.07	227.09
977.37	227.10
977.66	227.10
977.95	227.09
978.24	227.10
978.54	227.11
978.83	227.10
979.12	227.08
979.42	227.08
979.71	227.07
980.00	227.08
980.29	227.08
980.59	227.03
980.88	227.04
981.17	227.04
981.46	227.01
981.76	226.96
982.05	227.03
982.34	227.01
982.63	227.01
982.93	227.03
983.22	227.07
983.51	227.04
983.80	227.06
984.09	227.07
984.39	227.07
984.68	227.07
984.97	227.04
985.26	227.01
985.55	226.99
985.85	226.95
986.14	226.96
986.43	226.98
986.72	226.99
987.01	226.94
987.30	226.92
987.59	226.95
987.89	226.96
988.18	226.88
988.47	226.88
988.76	226.85
989.05	226.80
989.34	226.77
989.63	226.85
989.92	226.84
990.22	226.80
990.51	226.79
990.80	226.78
991.09	226.81
991.38	226.86
991.67	226.89
991.96	226.92
992.25	226.92
992.54	226.86
992.83	226.84
993.12	226.84
993.41	226.85
993.70	226.88
993.99	226.86
994.28	226.89
994.58	226.90
994.87	226.89
995.16	226.91
995.45	226.87
995.74	226.83
996.03	226.84
996.32	226.85
996.61	226.86
996.90	226.88
997.19	226.90
997.48	226.89
997.77	226.83
998.06	226.84
998.34	226.83
998.63	226.88
998.92	226.91
999.21	226.95
999.50	226.94
999.79	226.92
1000.08	226.95
1000.37	226.96
1000.66	226.97
1000.95	227.02
1001.24	227.04
1001.53	227.09
1001.82	227.09
1002.11	227.08
1002.40	227.12
1002.68	227.15
1002.97	227.20
1003.26	227.18
1003.55	227.21
1003.84	227.25
1004.13	227.27
1004.42	227.27
1004.71	227.28
1004.99	227.30
1005.28	227.34
1005.57	227.31
1005.86	227.30
1006.15	227.32
1006.44	227.31
1006.72	227.30
1007.01	227.26
1007.30	227.25
1007.59	227.25
1007.88	227.28
1008.17	227.28
1008.45	227.24
1008.74	227.21
1009.03	227.16
1009.32	227.17
1009.60	227.14
1009.89	227.11
1010.18	227.08
1010.47	227.09
1010.76	227.09
1011.04	227.07
1011.33	227.07
1011.62	227.10
1011.91	227.11
1012.19	227.12
1012.48	227.11
1012.77	227.12
1013.05	227.21
1013.34	227.23
1013.63	227.19
1013.92	227.19
1014.20	227.18
1014.49	227.19
1014.78	227.23
1015.06	227.19
1015.35	227.20
1015.64	227.24
1015.92	227.26
1016.21	227.24
1016.50	227.27
1016.78	227.29
1017.07	227.29
1017.36	227.26
1017.64	227.23
1017.93	227.23
1018.22	227.19
1018.50	227.17
1018.79	227.17
1019.08	227.09
1019.36	227.09
1019.65	227.12
1019.93	227.11
1020.22	227.14
1020.51	227.20
1020.79	227.15
1021.08	226.53
1021.36	226.50
1021.65	227.08
1021.94	227.21
1022.22	227.34
1022.51	227.14
1022.79	226.91
1023.08	227.59
1023.36	228.50
1023.65	226.70
>>>>>End Processed Spectral Data<<<<<
