SpectraSuite Data File
++++++++++++++++++++++++++++++++++++
Date: Fri Feb 01 16:26:53 EST 2013
User: group
Dark Spectrum Present: No
Reference Spectrum Present: No
Number of Sampled Component Spectra: 1
Spectrometers: USB2E7196
Integration Time (usec): 35000 (USB2E7196)
Spectra Averaged: 100 (USB2E7196)
Boxcar Smoothing: 10 (USB2E7196)
Correct for Electrical Dark: No (USB2E7196)
Strobe/Lamp Enabled: No (USB2E7196)
Correct for Detector Non-linearity: No (USB2E7196)
Correct for Stray Light: No (USB2E7196)
Number of Pixels in Processed Spectrum: 2048
>>>>>Begin Processed Spectral Data<<<<<
339.09	0.00
339.48	213.75
339.86	215.50
340.24	216.97
340.63	217.71
341.01	220.64
341.39	220.80
341.78	221.94
342.16	223.17
342.54	224.12
342.93	212.20
343.31	222.92
343.69	223.46
344.07	223.92
344.46	224.36
344.84	224.74
345.22	224.99
345.60	225.24
345.99	225.42
346.37	225.56
346.75	225.62
347.13	225.67
347.52	225.74
347.90	225.81
348.28	225.86
348.66	225.91
349.05	225.91
349.43	225.95
349.81	226.00
350.19	226.01
350.57	226.03
350.96	226.10
351.34	226.18
351.72	226.27
352.10	226.38
352.48	226.42
352.87	226.48
353.25	226.58
353.63	226.65
354.01	226.74
354.39	226.79
354.77	226.88
355.15	226.99
355.54	227.03
355.92	227.04
356.30	227.11
356.68	227.25
357.06	227.30
357.44	227.38
357.82	227.43
358.20	227.54
358.58	227.63
358.97	227.70
359.35	227.79
359.73	227.86
360.11	227.93
360.49	228.00
360.87	228.06
361.25	228.10
361.63	228.17
362.01	228.23
362.39	228.29
362.77	228.38
363.15	228.42
363.53	228.46
363.91	228.56
364.29	228.60
364.67	228.50
365.05	228.58
365.43	228.63
365.81	228.68
366.19	228.76
366.57	228.81
366.95	228.82
367.33	228.81
367.71	228.85
368.09	228.86
368.47	228.85
368.85	228.81
369.23	228.78
369.61	228.73
369.99	228.72
370.37	228.73
370.75	228.73
371.13	228.67
371.51	228.64
371.89	228.60
372.27	228.57
372.65	228.55
373.03	228.47
373.41	228.45
373.78	228.36
374.16	228.29
374.54	228.20
374.92	228.14
375.30	228.06
375.68	227.97
376.06	227.88
376.44	227.84
376.82	227.79
377.19	227.74
377.57	227.68
377.95	227.60
378.33	227.51
378.71	227.36
379.09	227.33
379.47	227.27
379.84	227.18
380.22	227.09
380.60	227.03
380.98	226.99
381.36	226.91
381.73	226.84
382.11	226.76
382.49	226.72
382.87	226.62
383.25	226.56
383.62	226.59
384.00	226.54
384.38	226.43
384.76	226.39
385.13	226.36
385.51	226.28
385.89	226.20
386.27	226.14
386.64	226.13
387.02	226.05
387.40	225.99
387.78	225.96
388.15	225.91
388.53	225.91
388.91	225.86
389.29	225.78
389.66	225.76
390.04	225.72
390.42	225.68
390.79	225.67
391.17	225.65
391.55	225.54
391.92	225.51
392.30	225.52
392.68	225.47
393.05	225.46
393.43	225.46
393.81	225.47
394.18	225.46
394.56	225.43
394.94	225.44
395.31	225.42
395.69	225.46
396.06	225.47
396.44	225.43
396.82	225.42
397.19	225.52
397.57	225.55
397.95	225.57
398.32	225.59
398.70	225.65
399.07	225.71
399.45	225.72
399.82	225.79
400.20	225.83
400.58	225.94
400.95	225.97
401.33	226.07
401.70	226.22
402.08	226.32
402.45	226.43
402.83	226.53
403.20	226.67
403.58	226.74
403.95	226.87
404.33	227.03
404.71	227.17
405.08	227.32
405.46	227.45
405.83	227.61
406.21	227.75
406.58	227.89
406.96	228.09
407.33	228.28
407.70	228.45
408.08	228.73
408.45	228.95
408.83	229.19
409.20	229.41
409.58	229.58
409.95	229.86
410.33	230.11
410.70	230.36
411.08	230.65
411.45	230.99
411.82	231.32
412.20	231.67
412.57	232.10
412.95	232.40
413.32	232.81
413.69	233.23
414.07	233.66
414.44	234.15
414.82	234.63
415.19	235.20
415.56	235.78
415.94	236.30
416.31	236.96
416.68	237.59
417.06	238.31
417.43	238.99
417.81	239.75
418.18	240.56
418.55	241.41
418.93	242.29
419.30	243.18
419.67	244.10
420.04	245.05
420.42	246.04
420.79	247.21
421.16	248.33
421.54	249.53
421.91	250.78
422.28	252.01
422.66	253.34
423.03	254.63
423.40	255.97
423.77	257.41
424.15	258.82
424.52	260.33
424.89	261.96
425.26	263.51
425.64	264.94
426.01	266.51
426.38	268.20
426.75	269.84
427.13	271.57
427.50	273.41
427.87	275.27
428.24	277.10
428.61	278.86
428.99	280.84
429.36	282.92
429.73	284.98
430.10	286.97
430.47	289.00
430.85	291.09
431.22	293.33
431.59	295.66
431.96	297.86
432.33	300.30
432.70	302.67
433.08	305.44
433.45	308.05
433.82	310.62
434.19	313.50
434.56	316.33
434.93	318.95
435.30	321.52
435.68	324.39
436.05	327.21
436.42	329.98
436.79	332.46
437.16	335.10
437.53	337.89
437.90	340.70
438.27	343.40
438.64	346.21
439.01	348.78
439.38	350.97
439.75	353.14
440.13	355.64
440.50	357.93
440.87	359.77
441.24	361.72
441.61	363.89
441.98	365.35
442.35	367.10
442.72	368.91
443.09	370.71
443.46	371.69
443.83	372.25
444.20	372.74
444.57	373.55
444.94	373.85
445.31	374.17
445.68	374.50
446.05	374.57
446.42	374.14
446.79	373.71
447.16	373.29
447.53	372.99
447.90	371.82
448.27	370.66
448.64	369.06
449.01	367.91
449.37	365.94
449.74	364.08
450.11	361.87
450.48	359.43
450.85	356.87
451.22	354.73
451.59	352.73
451.96	350.86
452.33	348.30
452.70	345.96
453.07	343.15
453.43	340.30
453.80	337.55
454.17	334.92
454.54	332.38
454.91	329.69
455.28	327.05
455.65	324.56
456.02	322.13
456.38	320.02
456.75	317.40
457.12	315.16
457.49	312.91
457.86	310.76
458.23	308.90
458.59	306.95
458.96	304.90
459.33	303.10
459.70	301.18
460.07	299.66
460.43	297.95
460.80	296.38
461.17	294.92
461.54	293.45
461.91	292.07
462.27	290.64
462.64	289.35
463.01	288.00
463.38	286.72
463.74	285.35
464.11	284.21
464.48	283.18
464.85	282.11
465.21	281.22
465.58	280.30
465.95	279.21
466.32	278.29
466.68	277.40
467.05	276.47
467.42	275.61
467.78	274.69
468.15	273.83
468.52	273.17
468.88	272.34
469.25	271.56
469.62	270.95
469.98	270.28
470.35	269.69
470.72	269.09
471.08	268.50
471.45	268.02
471.82	267.51
472.18	266.91
472.55	266.52
472.92	266.06
473.28	265.60
473.65	265.18
474.02	264.78
474.38	264.44
474.75	264.17
475.11	263.83
475.48	263.62
475.85	263.42
476.21	263.21
476.58	263.04
476.94	262.92
477.31	262.79
477.67	262.67
478.04	262.57
478.41	262.51
478.77	262.55
479.14	262.49
479.50	262.50
479.87	262.64
480.23	262.67
480.60	262.74
480.96	262.82
481.33	263.05
481.69	263.28
482.06	263.45
482.42	263.66
482.79	263.96
483.15	264.26
483.52	264.63
483.88	265.00
484.25	265.43
484.61	265.86
484.98	266.31
485.34	266.89
485.71	267.48
486.07	268.11
486.44	268.67
486.80	269.39
487.17	270.10
487.53	270.86
487.90	271.72
488.26	272.66
488.62	273.67
488.99	274.63
489.35	275.66
489.72	276.81
490.08	277.98
490.44	279.22
490.81	280.57
491.17	281.93
491.54	283.35
491.90	284.88
492.26	286.51
492.63	288.23
492.99	289.99
493.36	291.91
493.72	293.91
494.08	296.02
494.45	298.22
494.81	300.61
495.17	303.02
495.54	305.61
495.90	308.30
496.26	311.09
496.63	314.02
496.99	317.11
497.35	320.36
497.72	323.78
498.08	327.32
498.44	330.97
498.80	334.91
499.17	339.00
499.53	343.20
499.89	347.58
500.26	352.09
500.62	356.80
500.98	361.77
501.34	366.89
501.71	372.22
502.07	377.67
502.43	383.26
502.79	389.12
503.16	395.17
503.52	401.46
503.88	407.90
504.24	414.57
504.60	421.48
504.97	428.64
505.33	435.99
505.69	443.70
506.05	451.50
506.41	459.38
506.78	467.49
507.14	475.92
507.50	484.69
507.86	493.79
508.22	502.96
508.59	512.15
508.95	521.70
509.31	531.48
509.67	541.59
510.03	551.90
510.39	562.49
510.75	573.30
511.12	584.21
511.48	595.52
511.84	606.93
512.20	618.47
512.56	630.35
512.92	642.48
513.28	654.84
513.64	667.26
514.00	679.92
514.37	692.83
514.73	705.88
515.09	718.83
515.45	732.06
515.81	745.61
516.17	759.60
516.53	773.71
516.89	787.92
517.25	802.09
517.61	816.49
517.97	830.81
518.33	845.24
518.69	860.00
519.05	874.89
519.41	890.06
519.77	905.52
520.13	921.05
520.49	936.37
520.85	951.73
521.21	967.37
521.57	983.54
521.93	999.29
522.29	1015.53
522.65	1031.79
523.01	1047.92
523.37	1063.89
523.73	1079.92
524.09	1095.92
524.45	1112.11
524.81	1128.64
525.17	1145.39
525.53	1162.33
525.89	1179.10
526.25	1195.86
526.61	1212.16
526.97	1228.90
527.33	1245.31
527.68	1261.67
528.04	1278.07
528.40	1294.51
528.76	1311.64
529.12	1328.06
529.48	1344.84
529.84	1360.87
530.20	1377.34
530.56	1394.18
530.91	1411.60
531.27	1428.24
531.63	1444.65
531.99	1461.20
532.35	1477.03
532.71	1492.81
533.07	1508.92
533.42	1524.75
533.78	1540.64
534.14	1556.91
534.50	1572.21
534.86	1587.94
535.21	1603.10
535.57	1618.83
535.93	1634.17
536.29	1648.73
536.65	1663.78
537.00	1678.36
537.36	1693.50
537.72	1707.96
538.08	1722.30
538.44	1736.01
538.79	1749.90
539.15	1763.45
539.51	1777.08
539.87	1791.34
540.22	1804.99
540.58	1818.69
540.94	1831.90
541.29	1844.67
541.65	1857.24
542.01	1870.18
542.37	1882.47
542.72	1894.87
543.08	1906.67
543.44	1918.98
543.79	1930.04
544.15	1940.99
544.51	1952.62
544.87	1963.46
545.22	1974.24
545.58	1984.54
545.94	1994.25
546.29	2004.01
546.65	2013.88
547.01	2023.04
547.36	2031.68
547.72	2040.04
548.07	2047.79
548.43	2055.83
548.79	2064.04
549.14	2071.44
549.50	2078.89
549.86	2086.47
550.21	2093.78
550.57	2100.85
550.92	2107.48
551.28	2114.62
551.64	2121.58
551.99	2128.06
552.35	2134.35
552.70	2140.39
553.06	2146.11
553.41	2152.48
553.77	2158.41
554.13	2164.42
554.48	2170.54
554.84	2176.11
555.19	2181.47
555.55	2186.66
555.90	2191.15
556.26	2195.85
556.61	2200.59
556.97	2204.80
557.32	2208.88
557.68	2212.92
558.03	2217.32
558.39	2221.14
558.74	2225.81
559.10	2229.72
559.45	2233.36
559.81	2237.50
560.16	2241.34
560.52	2244.66
560.87	2247.86
561.23	2250.51
561.58	2253.45
561.94	2256.07
562.29	2258.35
562.64	2260.90
563.00	2263.34
563.35	2266.83
563.71	2270.00
564.06	2273.25
564.42	2276.08
564.77	2278.66
565.12	2281.06
565.48	2283.01
565.83	2284.79
566.19	2286.11
566.54	2287.14
566.89	2288.23
567.25	2289.02
567.60	2290.37
567.96	2292.24
568.31	2293.17
568.66	2294.53
569.02	2295.07
569.37	2295.37
569.72	2296.38
570.08	2296.58
570.43	2296.70
570.78	2296.30
571.14	2294.81
571.49	2293.38
571.84	2293.18
572.20	2292.11
572.55	2290.98
572.90	2289.42
573.26	2288.02
573.61	2286.31
573.96	2284.49
574.31	2281.73
574.67	2278.67
575.02	2275.10
575.37	2271.71
575.72	2267.97
576.08	2264.52
576.43	2261.24
576.78	2257.57
577.13	2254.39
577.49	2251.48
577.84	2248.07
578.19	2244.28
578.54	2240.70
578.90	2236.77
579.25	2231.16
579.60	2226.29
579.95	2221.34
580.30	2216.37
580.66	2211.37
581.01	2206.49
581.36	2201.75
581.71	2197.52
582.06	2193.19
582.42	2188.81
582.77	2183.74
583.12	2179.37
583.47	2174.86
583.82	2169.93
584.17	2164.77
584.53	2159.30
584.88	2153.67
585.23	2148.07
585.58	2142.87
585.93	2137.42
586.28	2132.58
586.63	2127.67
586.98	2122.62
587.34	2117.88
587.69	2113.10
588.04	2107.84
588.39	2102.32
588.74	2095.85
589.09	2089.71
589.44	2083.03
589.79	2077.03
590.14	2071.33
590.49	2064.70
590.84	2058.20
591.19	2052.39
591.54	2046.04
591.89	2038.70
592.25	2031.96
592.60	2024.87
592.95	2017.14
593.30	2009.98
593.65	2002.52
594.00	1995.49
594.35	1988.32
594.70	1980.52
595.05	1973.39
595.40	1966.18
595.75	1958.73
596.10	1952.58
596.45	1946.04
596.80	1939.92
597.15	1933.41
597.50	1926.43
597.85	1920.01
598.19	1913.48
598.54	1906.33
598.89	1899.68
599.24	1893.89
599.59	1887.26
599.94	1881.02
600.29	1874.77
600.64	1868.16
600.99	1860.69
601.34	1853.93
601.69	1847.18
602.04	1840.34
602.39	1833.02
602.74	1826.20
603.08	1819.45
603.43	1812.74
603.78	1805.43
604.13	1798.25
604.48	1790.90
604.83	1784.01
605.18	1777.12
605.53	1769.17
605.87	1761.30
606.22	1754.15
606.57	1746.12
606.92	1738.78
607.27	1731.56
607.62	1724.73
607.96	1717.49
608.31	1710.84
608.66	1703.30
609.01	1695.57
609.36	1687.87
609.70	1679.89
610.05	1671.89
610.40	1664.24
610.75	1655.95
611.10	1648.25
611.44	1639.74
611.79	1631.82
612.14	1623.14
612.49	1613.91
612.83	1605.51
613.18	1597.34
613.53	1589.24
613.88	1580.74
614.22	1572.42
614.57	1563.87
614.92	1555.76
615.27	1548.21
615.61	1539.99
615.96	1531.91
616.31	1524.28
616.65	1516.96
617.00	1509.22
617.35	1501.47
617.70	1493.10
618.04	1484.51
618.39	1476.31
618.74	1468.79
619.08	1460.50
619.43	1452.78
619.78	1445.98
620.12	1438.77
620.47	1431.17
620.82	1422.95
621.16	1415.59
621.51	1408.10
621.85	1400.46
622.20	1391.95
622.55	1383.50
622.89	1375.69
623.24	1368.05
623.59	1360.63
623.93	1353.08
624.28	1345.95
624.62	1338.55
624.97	1331.42
625.32	1324.67
625.66	1317.65
626.01	1310.43
626.35	1302.93
626.70	1295.33
627.04	1287.65
627.39	1279.91
627.73	1272.53
628.08	1265.67
628.43	1258.37
628.77	1250.95
629.12	1243.40
629.46	1236.22
629.81	1228.87
630.15	1221.55
630.50	1214.09
630.84	1205.91
631.19	1198.00
631.53	1190.54
631.88	1182.96
632.22	1175.32
632.57	1168.09
632.91	1160.57
633.26	1153.13
633.60	1145.73
633.95	1138.61
634.29	1131.42
634.64	1124.74
634.98	1117.32
635.32	1110.06
635.67	1103.45
636.01	1096.80
636.36	1089.98
636.70	1083.45
637.05	1076.91
637.39	1070.38
637.73	1063.90
638.08	1058.00
638.42	1052.04
638.77	1045.59
639.11	1038.93
639.45	1032.49
639.80	1025.80
640.14	1019.33
640.49	1012.79
640.83	1006.55
641.17	1000.29
641.52	993.94
641.86	987.43
642.20	981.60
642.55	975.34
642.89	968.86
643.23	962.28
643.58	956.48
643.92	950.24
644.26	944.10
644.61	938.09
644.95	932.14
645.29	925.53
645.64	918.78
645.98	912.40
646.32	906.51
646.66	900.48
647.01	894.64
647.35	888.93
647.69	883.08
648.04	877.53
648.38	871.78
648.72	865.87
649.06	859.84
649.41	854.00
649.75	848.11
650.09	842.16
650.43	836.44
650.78	830.34
651.12	824.44
651.46	818.77
651.80	813.09
652.14	807.62
652.49	802.26
652.83	797.02
653.17	791.31
653.51	785.66
653.85	780.24
654.20	774.64
654.54	768.67
654.88	762.98
655.22	757.00
655.56	751.22
655.90	745.63
656.25	740.42
656.59	735.05
656.93	729.87
657.27	724.74
657.61	719.34
657.95	714.22
658.29	709.14
658.64	703.83
658.98	698.52
659.32	693.02
659.66	687.84
660.00	682.56
660.34	677.64
660.68	672.73
661.02	667.71
661.36	662.91
661.70	658.40
662.05	653.98
662.39	649.70
662.73	645.25
663.07	640.95
663.41	636.45
663.75	631.89
664.09	627.34
664.43	622.90
664.77	618.76
665.11	614.50
665.45	610.35
665.79	606.26
666.13	602.08
666.47	598.01
666.81	593.80
667.15	589.74
667.49	585.83
667.83	582.01
668.17	578.12
668.51	574.04
668.85	570.04
669.19	566.21
669.53	562.42
669.87	558.55
670.21	554.79
670.55	551.15
670.89	547.76
671.23	544.31
671.57	540.83
671.91	537.25
672.25	533.71
672.58	530.16
672.92	526.70
673.26	523.50
673.60	520.36
673.94	517.35
674.28	514.33
674.62	511.34
674.96	508.13
675.30	505.22
675.64	502.30
675.97	499.51
676.31	496.64
676.65	493.73
676.99	491.02
677.33	488.20
677.67	485.42
678.01	482.34
678.34	479.34
678.68	476.44
679.02	473.63
679.36	470.92
679.70	468.24
680.04	465.54
680.37	462.71
680.71	459.88
681.05	457.23
681.39	454.62
681.73	451.99
682.06	449.55
682.40	446.98
682.74	444.44
683.08	441.87
683.42	439.31
683.75	436.75
684.09	434.23
684.43	431.74
684.77	429.26
685.10	426.95
685.44	424.70
685.78	422.44
686.12	420.20
686.45	417.86
686.79	415.53
687.13	413.35
687.46	411.17
687.80	409.02
688.14	406.80
688.48	404.72
688.81	402.50
689.15	400.34
689.49	398.15
689.82	396.09
690.16	394.01
690.50	391.99
690.83	390.08
691.17	388.08
691.51	386.19
691.84	384.35
692.18	382.41
692.52	380.40
692.85	378.43
693.19	376.57
693.52	374.76
693.86	372.99
694.20	371.17
694.53	369.37
694.87	367.57
695.21	365.77
695.54	363.90
695.88	362.18
696.21	360.41
696.55	358.70
696.88	357.01
697.22	355.38
697.56	353.76
697.89	352.10
698.23	350.48
698.56	348.91
698.90	347.34
699.23	345.71
699.57	344.21
699.90	342.66
700.24	341.10
700.58	339.59
700.91	338.07
701.25	336.62
701.58	335.27
701.92	333.89
702.25	332.51
702.59	331.18
702.92	329.84
703.26	328.59
703.59	327.35
703.93	326.21
704.26	324.96
704.60	323.66
704.93	322.41
705.26	321.15
705.60	319.93
705.93	318.73
706.27	317.70
706.60	316.63
706.94	315.54
707.27	314.41
707.61	313.33
707.94	312.33
708.27	311.23
708.61	310.13
708.94	309.12
709.28	308.14
709.61	307.17
709.94	306.24
710.28	305.22
710.61	304.22
710.95	303.14
711.28	302.21
711.61	301.29
711.95	300.35
712.28	299.38
712.61	298.46
712.95	297.54
713.28	296.63
713.61	295.76
713.95	294.90
714.28	294.07
714.61	293.20
714.95	292.34
715.28	291.54
715.61	290.66
715.95	289.79
716.28	288.95
716.61	288.14
716.95	287.26
717.28	286.51
717.61	285.76
717.94	284.97
718.28	284.19
718.61	283.42
718.94	282.73
719.27	282.08
719.61	281.40
719.94	280.72
720.27	279.99
720.60	279.28
720.94	278.68
721.27	278.04
721.60	277.47
721.93	276.84
722.27	276.28
722.60	275.72
722.93	275.14
723.26	274.60
723.59	273.99
723.93	273.48
724.26	272.91
724.59	272.40
724.92	271.89
725.25	271.35
725.59	270.86
725.92	270.35
726.25	269.87
726.58	269.36
726.91	268.85
727.24	268.38
727.57	267.90
727.91	267.37
728.24	266.91
728.57	266.45
728.90	265.99
729.23	265.45
729.56	265.02
729.89	264.56
730.22	264.05
730.55	263.58
730.89	263.11
731.22	262.65
731.55	262.16
731.88	261.76
732.21	261.37
732.54	260.93
732.87	260.49
733.20	260.06
733.53	259.68
733.86	259.31
734.19	258.92
734.52	258.53
734.85	258.24
735.18	257.81
735.51	257.40
735.84	257.05
736.17	256.75
736.50	256.38
736.83	256.14
737.16	255.81
737.49	255.50
737.82	255.18
738.15	254.90
738.48	254.57
738.81	254.25
739.14	253.94
739.47	253.63
739.80	253.36
740.13	253.05
740.46	252.76
740.79	252.46
741.12	252.18
741.45	251.91
741.78	251.59
742.11	251.32
742.44	251.00
742.77	250.69
743.10	250.40
743.43	250.11
743.75	249.75
744.08	249.62
744.41	249.37
744.74	249.10
745.07	248.79
745.40	248.58
745.73	248.31
746.06	248.00
746.39	247.76
746.71	247.46
747.04	247.22
747.37	246.95
747.70	246.70
748.03	246.44
748.36	246.17
748.68	245.90
749.01	245.68
749.34	245.46
749.67	245.21
750.00	244.96
750.33	244.77
750.65	244.53
750.98	244.16
751.31	243.91
751.64	243.69
751.97	243.51
752.29	243.27
752.62	243.02
752.95	242.82
753.28	242.55
753.60	242.36
753.93	242.15
754.26	241.94
754.59	241.70
754.91	241.47
755.24	241.26
755.57	241.02
755.90	240.81
756.22	240.59
756.55	240.41
756.88	240.21
757.20	239.97
757.53	239.82
757.86	239.67
758.19	239.49
758.51	239.33
758.84	239.09
759.17	238.92
759.49	238.77
759.82	238.67
760.15	238.55
760.47	238.40
760.80	238.22
761.13	238.10
761.45	237.94
761.78	237.81
762.11	237.69
762.43	237.55
762.76	237.39
763.08	237.27
763.41	237.12
763.74	236.98
764.06	236.84
764.39	236.66
764.71	236.52
765.04	236.40
765.37	236.27
765.69	236.16
766.02	236.02
766.34	235.88
766.67	235.71
767.00	235.61
767.32	235.55
767.65	235.48
767.97	235.34
768.30	235.23
768.62	235.14
768.95	235.02
769.27	234.94
769.60	234.87
769.92	234.75
770.25	234.62
770.57	234.49
770.90	234.39
771.22	234.27
771.55	234.16
771.87	234.08
772.20	234.00
772.52	234.00
772.85	234.04
773.17	233.94
773.50	233.85
773.82	233.73
774.15	233.58
774.47	233.46
774.80	233.37
775.12	233.31
775.45	233.20
775.77	233.12
776.09	233.05
776.42	232.96
776.74	232.92
777.07	232.90
777.39	232.85
777.72	232.77
778.04	232.73
778.36	232.66
778.69	232.60
779.01	232.52
779.33	232.37
779.66	232.19
779.98	232.13
780.31	232.07
780.63	232.03
780.95	231.99
781.28	231.93
781.60	231.86
781.92	231.80
782.25	231.78
782.57	231.75
782.89	231.71
783.22	231.65
783.54	231.59
783.86	231.57
784.19	231.51
784.51	231.51
784.83	231.44
785.16	231.38
785.48	231.33
785.80	231.28
786.12	231.24
786.45	231.19
786.77	231.12
787.09	231.04
787.42	230.98
787.74	230.94
788.06	230.92
788.38	230.85
788.71	230.78
789.03	230.70
789.35	230.66
789.67	230.58
789.99	230.56
790.32	230.51
790.64	230.44
790.96	230.46
791.28	230.38
791.61	230.36
791.93	230.36
792.25	230.27
792.57	230.30
792.89	230.24
793.21	230.20
793.54	230.18
793.86	230.17
794.18	230.13
794.50	230.06
794.82	229.97
795.14	229.98
795.47	229.95
795.79	229.95
796.11	229.88
796.43	229.84
796.75	229.79
797.07	229.74
797.39	229.69
797.71	229.60
798.04	229.56
798.36	229.50
798.68	229.46
799.00	229.46
799.32	229.38
799.64	229.34
799.96	229.32
800.28	229.28
800.60	229.24
800.92	229.21
801.24	229.18
801.56	229.18
801.89	229.14
802.21	229.11
802.53	229.06
802.85	229.05
803.17	229.09
803.49	229.05
803.81	229.01
804.13	228.98
804.45	228.95
804.77	228.94
805.09	228.91
805.41	228.89
805.73	228.85
806.05	228.79
806.37	228.79
806.69	228.75
807.01	228.72
807.33	228.69
807.65	228.63
807.97	228.65
808.28	228.62
808.60	228.58
808.92	228.53
809.24	228.55
809.56	228.52
809.88	228.47
810.20	228.47
810.52	228.46
810.84	228.43
811.16	228.38
811.48	228.33
811.80	228.34
812.12	228.31
812.43	228.31
812.75	228.28
813.07	228.24
813.39	228.21
813.71	228.18
814.03	228.16
814.35	228.16
814.67	228.08
814.98	228.05
815.30	228.06
815.62	228.03
815.94	227.97
816.26	227.98
816.58	227.93
816.89	227.88
817.21	227.81
817.53	227.78
817.85	227.76
818.17	227.76
818.48	227.71
818.80	227.70
819.12	227.67
819.44	227.62
819.76	227.59
820.07	227.57
820.39	227.56
820.71	227.56
821.03	227.54
821.34	227.55
821.66	227.55
821.98	227.52
822.30	227.51
822.61	227.53
822.93	227.43
823.25	227.44
823.57	227.42
823.88	227.48
824.20	227.46
824.52	227.48
824.83	227.46
825.15	227.45
825.47	227.43
825.79	227.41
826.10	227.43
826.42	227.42
826.74	227.42
827.05	227.41
827.37	227.41
827.69	227.40
828.00	227.38
828.32	227.35
828.64	227.34
828.95	227.38
829.27	227.35
829.58	227.39
829.90	227.37
830.22	227.38
830.53	227.32
830.85	227.32
831.17	227.27
831.48	227.26
831.80	227.27
832.11	227.26
832.43	227.26
832.75	227.25
833.06	227.32
833.38	227.28
833.69	227.28
834.01	227.28
834.32	227.25
834.64	227.22
834.96	227.22
835.27	227.22
835.59	227.18
835.90	227.20
836.22	227.17
836.53	227.17
836.85	227.15
837.16	227.23
837.48	227.22
837.79	227.27
838.11	227.29
838.42	227.27
838.74	227.28
839.05	227.27
839.37	227.24
839.68	227.17
840.00	227.15
840.31	227.13
840.63	227.11
840.94	227.10
841.26	227.08
841.57	227.09
841.88	227.07
842.20	227.03
842.51	226.98
842.83	226.96
843.14	227.01
843.46	227.00
843.77	226.97
844.08	226.92
844.40	226.86
844.71	226.84
845.03	226.82
845.34	226.77
845.65	226.74
845.97	226.78
846.28	226.78
846.60	226.79
846.91	226.75
847.22	226.76
847.54	226.78
847.85	226.78
848.16	226.73
848.48	226.71
848.79	226.75
849.10	226.73
849.42	226.72
849.73	226.60
850.04	226.58
850.36	226.52
850.67	226.54
850.98	226.54
851.30	226.52
851.61	226.53
851.92	226.52
852.23	226.54
852.55	226.50
852.86	226.47
853.17	226.48
853.49	226.51
853.80	226.48
854.11	226.45
854.42	226.44
854.74	226.45
855.05	226.43
855.36	226.38
855.67	226.41
855.99	226.41
856.30	226.53
856.61	226.51
856.92	226.49
857.23	226.49
857.55	226.48
857.86	226.46
858.17	226.43
858.48	226.42
858.79	226.40
859.11	226.41
859.42	226.38
859.73	226.33
860.04	226.33
860.35	226.31
860.66	226.32
860.98	226.35
861.29	226.34
861.60	226.34
861.91	226.35
862.22	226.33
862.53	226.30
862.84	226.21
863.16	226.24
863.47	226.25
863.78	226.26
864.09	226.26
864.40	226.26
864.71	226.25
865.02	226.25
865.33	226.23
865.64	226.19
865.95	226.21
866.27	226.29
866.58	226.27
866.89	226.29
867.20	226.28
867.51	226.28
867.82	226.29
868.13	226.34
868.44	226.32
868.75	226.35
869.06	226.39
869.37	226.38
869.68	226.38
869.99	226.41
870.30	226.42
870.61	226.43
870.92	226.43
871.23	226.45
871.54	226.47
871.85	226.51
872.16	226.54
872.47	226.54
872.78	226.53
873.09	226.54
873.40	226.54
873.71	226.52
874.02	226.51
874.33	226.50
874.64	226.47
874.95	226.50
875.26	226.51
875.56	226.48
875.87	226.49
876.18	226.46
876.49	226.57
876.80	226.52
877.11	226.51
877.42	226.53
877.73	226.52
878.04	226.54
878.35	226.57
878.66	226.58
878.96	226.60
879.27	226.57
879.58	226.58
879.89	226.56
880.20	226.59
880.51	226.60
880.82	226.60
881.12	226.60
881.43	226.56
881.74	226.50
882.05	226.52
882.36	226.53
882.67	226.56
882.97	226.43
883.28	226.47
883.59	226.48
883.90	226.48
884.21	226.50
884.51	226.49
884.82	226.45
885.13	226.46
885.44	226.42
885.74	226.42
886.05	226.42
886.36	226.40
886.67	226.37
886.98	226.38
887.28	226.38
887.59	226.35
887.90	226.39
888.20	226.42
888.51	226.43
888.82	226.36
889.13	226.35
889.43	226.41
889.74	226.38
890.05	226.37
890.35	226.37
890.66	226.35
890.97	226.31
891.28	226.30
891.58	226.31
891.89	226.30
892.20	226.29
892.50	226.27
892.81	226.25
893.12	226.24
893.42	226.23
893.73	226.22
894.04	226.22
894.34	226.21
894.65	226.15
894.95	226.10
895.26	226.11
895.57	226.14
895.87	226.07
896.18	226.08
896.48	226.07
896.79	226.06
897.10	226.07
897.40	226.03
897.71	226.05
898.01	226.01
898.32	226.04
898.63	226.02
898.93	226.06
899.24	226.12
899.54	226.09
899.85	226.04
900.15	226.01
900.46	226.03
900.76	226.03
901.07	226.05
901.38	226.06
901.68	226.07
901.99	226.06
902.29	226.07
902.60	226.06
902.90	226.05
903.21	226.06
903.51	226.04
903.82	226.11
904.12	226.11
904.43	226.13
904.73	226.14
905.03	226.14
905.34	226.19
905.64	226.17
905.95	226.19
906.25	226.26
906.56	226.30
906.86	226.33
907.17	226.34
907.47	226.36
907.77	226.38
908.08	226.40
908.38	226.39
908.69	226.37
908.99	226.40
909.30	226.39
909.60	226.39
909.90	226.39
910.21	226.36
910.51	226.36
910.81	226.38
911.12	226.36
911.42	226.39
911.73	226.29
912.03	226.30
912.33	226.34
912.64	226.31
912.94	226.30
913.24	226.26
913.55	226.26
913.85	226.23
914.15	226.23
914.46	226.25
914.76	226.25
915.06	226.25
915.37	226.20
915.67	226.22
915.97	226.22
916.27	226.20
916.58	226.20
916.88	226.17
917.18	226.13
917.49	226.18
917.79	226.17
918.09	226.18
918.39	226.21
918.70	226.18
919.00	226.16
919.30	226.18
919.60	226.18
919.91	226.16
920.21	226.16
920.51	226.14
920.81	226.13
921.12	226.13
921.42	226.12
921.72	226.15
922.02	226.15
922.32	226.15
922.63	226.14
922.93	226.20
923.23	226.21
923.53	226.22
923.83	226.14
924.13	226.11
924.44	226.12
924.74	226.10
925.04	226.10
925.34	226.10
925.64	226.06
925.94	226.07
926.24	226.10
926.55	226.12
926.85	226.11
927.15	226.07
927.45	226.09
927.75	226.08
928.05	226.05
928.35	226.04
928.65	226.05
928.95	226.07
929.26	225.99
929.56	225.99
929.86	225.99
930.16	225.98
930.46	225.97
930.76	226.00
931.06	225.95
931.36	225.93
931.66	225.96
931.96	225.95
932.26	225.94
932.56	225.88
932.86	225.87
933.16	225.87
933.46	225.87
933.76	225.83
934.06	225.90
934.36	225.97
934.66	225.95
934.96	225.94
935.26	225.92
935.56	225.97
935.86	225.94
936.16	225.94
936.46	225.98
936.76	225.99
937.06	225.93
937.36	225.98
937.66	226.00
937.96	226.01
938.26	226.00
938.56	226.01
938.86	226.03
939.16	226.06
939.46	226.06
939.76	226.07
940.06	226.09
940.35	226.03
940.65	225.98
940.95	226.01
941.25	225.99
941.55	225.99
941.85	225.97
942.15	226.01
942.45	226.00
942.75	225.99
943.04	226.01
943.34	226.03
943.64	226.02
943.94	226.01
944.24	226.01
944.54	226.05
944.84	226.07
945.13	226.06
945.43	226.06
945.73	226.05
946.03	226.04
946.33	226.02
946.62	226.02
946.92	226.01
947.22	226.00
947.52	226.01
947.82	226.02
948.11	226.03
948.41	226.02
948.71	226.02
949.01	226.03
949.31	226.04
949.60	226.06
949.90	226.08
950.20	226.07
950.50	226.06
950.79	226.06
951.09	226.07
951.39	226.11
951.69	226.08
951.98	226.15
952.28	226.15
952.58	226.12
952.87	226.15
953.17	226.19
953.47	226.18
953.76	226.17
954.06	226.17
954.36	226.12
954.66	226.13
954.95	226.13
955.25	226.09
955.55	226.07
955.84	226.02
956.14	226.02
956.44	226.00
956.73	225.97
957.03	225.98
957.32	225.95
957.62	225.89
957.92	225.94
958.21	225.88
958.51	225.99
958.81	226.00
959.10	226.00
959.40	225.97
959.69	226.02
959.99	226.03
960.29	226.05
960.58	226.07
960.88	226.08
961.17	226.07
961.47	226.09
961.76	226.09
962.06	226.10
962.36	226.06
962.65	226.07
962.95	226.08
963.24	226.03
963.54	226.04
963.83	226.06
964.13	226.03
964.42	225.99
964.72	225.92
965.01	225.94
965.31	225.94
965.60	225.89
965.90	225.92
966.19	225.86
966.49	225.84
966.78	225.83
967.08	225.84
967.37	225.81
967.67	225.78
967.96	225.78
968.26	225.77
968.55	225.79
968.85	225.81
969.14	225.82
969.43	225.79
969.73	225.76
970.02	225.75
970.32	225.72
970.61	225.76
970.91	225.75
971.20	225.70
971.49	225.66
971.79	225.68
972.08	225.61
972.38	225.62
972.67	225.59
972.96	225.64
973.26	225.62
973.55	225.70
973.85	225.72
974.14	225.70
974.43	225.73
974.73	225.71
975.02	225.69
975.31	225.65
975.61	225.68
975.90	225.69
976.19	225.72
976.49	225.73
976.78	225.69
977.07	225.69
977.37	225.71
977.66	225.75
977.95	225.76
978.24	225.78
978.54	225.82
978.83	225.83
979.12	225.81
979.42	225.80
979.71	225.78
980.00	225.81
980.29	225.83
980.59	225.81
980.88	225.86
981.17	225.86
981.46	225.88
981.76	225.89
982.05	225.91
982.34	225.90
982.63	225.95
982.93	225.96
983.22	226.00
983.51	226.03
983.80	226.06
984.09	226.07
984.39	226.08
984.68	226.04
984.97	226.06
985.26	226.06
985.55	226.09
985.85	226.07
986.14	226.07
986.43	226.09
986.72	226.09
987.01	226.04
987.30	226.06
987.59	226.07
987.89	226.07
988.18	226.07
988.47	226.07
988.76	226.03
989.05	226.03
989.34	225.99
989.63	226.00
989.92	225.99
990.22	225.98
990.51	225.96
990.80	226.00
991.09	226.01
991.38	226.02
991.67	226.03
991.96	226.03
992.25	226.01
992.54	225.97
992.83	225.97
993.12	225.97
993.41	226.00
993.70	226.03
993.99	226.06
994.28	226.07
994.58	226.10
994.87	226.10
995.16	226.11
995.45	226.11
995.74	226.06
996.03	226.06
996.32	226.07
996.61	226.08
996.90	226.05
997.19	226.02
997.48	226.00
997.77	225.97
998.06	225.93
998.34	225.90
998.63	225.93
998.92	225.91
999.21	225.91
999.50	225.87
999.79	225.86
1000.08	225.84
1000.37	225.78
1000.66	225.75
1000.95	225.80
1001.24	225.80
1001.53	225.83
1001.82	225.81
1002.11	225.78
1002.40	225.77
1002.68	225.81
1002.97	225.88
1003.26	225.87
1003.55	225.83
1003.84	225.84
1004.13	225.89
1004.42	225.89
1004.71	225.85
1004.99	225.88
1005.28	225.89
1005.57	225.87
1005.86	225.86
1006.15	225.83
1006.44	225.84
1006.72	225.85
1007.01	225.81
1007.30	225.79
1007.59	225.77
1007.88	225.77
1008.17	225.78
1008.45	225.79
1008.74	225.74
1009.03	225.70
1009.32	225.76
1009.60	225.79
1009.89	225.77
1010.18	225.76
1010.47	225.75
1010.76	225.80
1011.04	225.77
1011.33	225.76
1011.62	225.80
1011.91	225.76
1012.19	225.78
1012.48	225.81
1012.77	225.80
1013.05	225.82
1013.34	225.82
1013.63	225.82
1013.92	225.84
1014.20	225.84
1014.49	225.82
1014.78	225.83
1015.06	225.76
1015.35	225.72
1015.64	225.73
1015.92	225.75
1016.21	225.73
1016.50	225.74
1016.78	225.72
1017.07	225.73
1017.36	225.71
1017.64	225.66
1017.93	225.71
1018.22	225.70
1018.50	225.66
1018.79	225.68
1019.08	225.62
1019.36	225.63
1019.65	225.62
1019.93	225.65
1020.22	225.67
1020.51	225.73
1020.79	225.72
1021.08	225.78
1021.36	225.37
1021.65	225.70
1021.94	225.27
1022.22	225.74
1022.51	225.79
1022.79	226.38
1023.08	225.82
1023.36	227.16
1023.65	225.76
>>>>>End Processed Spectral Data<<<<<
