SpectraSuite Data File
++++++++++++++++++++++++++++++++++++
Date: Fri Feb 01 17:37:05 EST 2013
User: group
Dark Spectrum Present: No
Reference Spectrum Present: No
Number of Sampled Component Spectra: 1
Spectrometers: USB2E7196
Integration Time (usec): 35000 (USB2E7196)
Spectra Averaged: 100 (USB2E7196)
Boxcar Smoothing: 10 (USB2E7196)
Correct for Electrical Dark: No (USB2E7196)
Strobe/Lamp Enabled: No (USB2E7196)
Correct for Detector Non-linearity: No (USB2E7196)
Correct for Stray Light: No (USB2E7196)
Number of Pixels in Processed Spectrum: 2048
>>>>>Begin Processed Spectral Data<<<<<
339.09	0.00
339.48	213.47
339.86	214.45
340.24	216.22
340.63	217.35
341.01	220.08
341.39	219.62
341.78	221.53
342.16	222.83
342.54	223.42
342.93	211.68
343.31	222.36
343.69	222.87
344.07	223.36
344.46	223.78
344.84	224.16
345.22	224.41
345.60	224.68
345.99	224.86
346.37	224.98
346.75	225.06
347.13	225.14
347.52	225.19
347.90	225.24
348.28	225.26
348.66	225.28
349.05	225.27
349.43	225.27
349.81	225.27
350.19	225.29
350.57	225.32
350.96	225.38
351.34	225.47
351.72	225.56
352.10	225.64
352.48	225.70
352.87	225.74
353.25	225.79
353.63	225.82
354.01	225.86
354.39	225.95
354.77	226.03
355.15	226.12
355.54	226.16
355.92	226.20
356.30	226.27
356.68	226.39
357.06	226.44
357.44	226.52
357.82	226.59
358.20	226.64
358.58	226.69
358.97	226.72
359.35	226.79
359.73	226.86
360.11	226.90
360.49	226.95
360.87	226.99
361.25	227.04
361.63	227.09
362.01	227.14
362.39	227.16
362.77	227.17
363.15	227.19
363.53	227.23
363.91	227.24
364.29	227.24
364.67	227.15
365.05	227.14
365.43	227.16
365.81	227.17
366.19	227.24
366.57	227.27
366.95	227.31
367.33	227.25
367.71	227.22
368.09	227.22
368.47	227.18
368.85	227.16
369.23	227.16
369.61	227.13
369.99	227.16
370.37	227.17
370.75	227.17
371.13	227.08
371.51	227.05
371.89	227.05
372.27	227.03
372.65	227.01
373.03	227.00
373.41	226.92
373.78	226.87
374.16	226.75
374.54	226.68
374.92	226.63
375.30	226.63
375.68	226.59
376.06	226.55
376.44	226.50
376.82	226.46
377.19	226.41
377.57	226.36
377.95	226.23
378.33	226.16
378.71	226.06
379.09	226.06
379.47	225.99
379.84	225.92
380.22	225.86
380.60	225.82
380.98	225.77
381.36	225.74
381.73	225.70
382.11	225.68
382.49	225.65
382.87	225.57
383.25	225.50
383.62	225.52
384.00	225.43
384.38	225.39
384.76	225.36
385.13	225.38
385.51	225.34
385.89	225.29
386.27	225.25
386.64	225.25
387.02	225.19
387.40	225.19
387.78	225.15
388.15	225.10
388.53	225.08
388.91	225.05
389.29	224.99
389.66	224.95
390.04	224.94
390.42	224.95
390.79	224.95
391.17	224.94
391.55	224.85
391.92	224.86
392.30	224.88
392.68	224.87
393.05	224.84
393.43	224.84
393.81	224.86
394.18	224.85
394.56	224.85
394.94	224.87
395.31	224.82
395.69	224.89
396.06	224.94
396.44	224.94
396.82	224.98
397.19	225.08
397.57	225.14
397.95	225.15
398.32	225.14
398.70	225.15
399.07	225.22
399.45	225.27
399.82	225.31
400.20	225.34
400.58	225.39
400.95	225.44
401.33	225.51
401.70	225.63
402.08	225.71
402.45	225.81
402.83	225.93
403.20	226.06
403.58	226.13
403.95	226.24
404.33	226.36
404.71	226.43
405.08	226.57
405.46	226.65
405.83	226.79
406.21	226.91
406.58	227.07
406.96	227.20
407.33	227.35
407.70	227.52
408.08	227.77
408.45	227.96
408.83	228.16
409.20	228.40
409.58	228.58
409.95	228.83
410.33	229.07
410.70	229.31
411.08	229.57
411.45	229.88
411.82	230.17
412.20	230.48
412.57	230.91
412.95	231.21
413.32	231.64
413.69	232.05
414.07	232.50
414.44	232.95
414.82	233.43
415.19	234.02
415.56	234.61
415.94	235.15
416.31	235.80
416.68	236.45
417.06	237.19
417.43	237.92
417.81	238.72
418.18	239.54
418.55	240.41
418.93	241.35
419.30	242.31
419.67	243.29
420.04	244.29
420.42	245.31
420.79	246.55
421.16	247.79
421.54	249.06
421.91	250.37
422.28	251.69
422.66	253.09
423.03	254.42
423.40	255.83
423.77	257.34
424.15	258.82
424.52	260.35
424.89	262.03
425.26	263.65
425.64	265.17
426.01	266.82
426.38	268.59
426.75	270.31
427.13	272.11
427.50	273.97
427.87	275.99
428.24	277.94
428.61	279.80
428.99	281.80
429.36	284.01
429.73	286.16
430.10	288.31
430.47	290.51
430.85	292.80
431.22	295.13
431.59	297.62
431.96	300.00
432.33	302.60
432.70	305.03
433.08	307.99
433.45	310.75
433.82	313.45
434.19	316.40
434.56	319.34
434.93	322.08
435.30	324.83
435.68	327.83
436.05	330.82
436.42	333.69
436.79	336.34
437.16	339.14
437.53	342.09
437.90	345.04
438.27	347.84
438.64	350.79
439.01	353.52
439.38	355.86
439.75	358.12
440.13	360.73
440.50	363.22
440.87	365.14
441.24	367.17
441.61	369.47
441.98	371.07
442.35	372.97
442.72	374.94
443.09	376.88
443.46	377.94
443.83	378.53
444.20	379.12
444.57	380.04
444.94	380.34
445.31	380.73
445.68	381.10
446.05	381.25
446.42	380.86
446.79	380.43
447.16	380.00
447.53	379.65
447.90	378.46
448.27	377.25
448.64	375.57
449.01	374.41
449.37	372.37
449.74	370.40
450.11	368.08
450.48	365.50
450.85	362.86
451.22	360.59
451.59	358.50
451.96	356.43
452.33	353.66
452.70	351.19
453.07	348.22
453.43	345.20
453.80	342.32
454.17	339.50
454.54	336.80
454.91	333.95
455.28	331.22
455.65	328.59
456.02	326.07
456.38	323.84
456.75	321.04
457.12	318.68
457.49	316.35
457.86	314.09
458.23	312.16
458.59	309.98
458.96	307.85
459.33	305.95
459.70	304.04
460.07	302.49
460.43	300.70
460.80	298.96
461.17	297.45
461.54	295.86
461.91	294.35
462.27	292.85
462.64	291.55
463.01	290.10
463.38	288.75
463.74	287.30
464.11	286.11
464.48	285.05
464.85	283.88
465.21	282.97
465.58	282.03
465.95	280.85
466.32	279.91
466.68	278.98
467.05	278.01
467.42	277.11
467.78	276.17
468.15	275.25
468.52	274.63
468.88	273.76
469.25	272.98
469.62	272.33
469.98	271.61
470.35	270.95
470.72	270.36
471.08	269.74
471.45	269.17
471.82	268.58
472.18	267.96
472.55	267.50
472.92	267.01
473.28	266.48
473.65	266.04
474.02	265.59
474.38	265.18
474.75	264.88
475.11	264.48
475.48	264.17
475.85	263.98
476.21	263.74
476.58	263.53
476.94	263.36
477.31	263.19
477.67	263.07
478.04	262.95
478.41	262.85
478.77	262.88
479.14	262.82
479.50	262.82
479.87	262.92
480.23	263.04
480.60	263.08
480.96	263.19
481.33	263.39
481.69	263.59
482.06	263.78
482.42	263.98
482.79	264.26
483.15	264.61
483.52	264.95
483.88	265.29
484.25	265.73
484.61	266.14
484.98	266.61
485.34	267.15
485.71	267.72
486.07	268.32
486.44	268.85
486.80	269.57
487.17	270.32
487.53	271.10
487.90	271.93
488.26	272.85
488.62	273.81
488.99	274.80
489.35	275.83
489.72	276.93
490.08	278.12
490.44	279.35
490.81	280.61
491.17	281.97
491.54	283.39
491.90	284.89
492.26	286.50
492.63	288.20
492.99	289.99
493.36	291.88
493.72	293.93
494.08	296.03
494.45	298.24
494.81	300.54
495.17	302.89
495.54	305.41
495.90	308.07
496.26	310.84
496.63	313.76
496.99	316.84
497.35	320.07
497.72	323.43
498.08	326.89
498.44	330.53
498.80	334.39
499.17	338.41
499.53	342.54
499.89	346.88
500.26	351.30
500.62	355.86
500.98	360.73
501.34	365.76
501.71	370.98
502.07	376.33
502.43	381.89
502.79	387.64
503.16	393.63
503.52	399.78
503.88	406.11
504.24	412.62
504.60	419.39
504.97	426.45
505.33	433.63
505.69	441.22
506.05	448.86
506.41	456.57
506.78	464.60
507.14	472.80
507.50	481.36
507.86	490.23
508.22	499.29
508.59	508.31
508.95	517.64
509.31	527.28
509.67	537.16
510.03	547.25
510.39	557.57
510.75	568.07
511.12	578.70
511.48	589.71
511.84	600.87
512.20	612.07
512.56	623.61
512.92	635.49
513.28	647.50
513.64	659.60
514.00	672.03
514.37	684.63
514.73	697.29
515.09	709.92
515.45	722.76
515.81	735.94
516.17	749.53
516.53	763.30
516.89	777.05
517.25	790.85
517.61	804.70
517.97	818.72
518.33	832.72
518.69	847.14
519.05	861.63
519.41	876.31
519.77	891.30
520.13	906.28
520.49	921.21
520.85	936.05
521.21	951.21
521.57	966.81
521.93	982.00
522.29	997.88
522.65	1013.68
523.01	1029.44
523.37	1044.93
523.73	1060.54
524.09	1076.09
524.45	1091.84
524.81	1107.85
525.17	1124.15
525.53	1140.57
525.89	1156.89
526.25	1173.13
526.61	1188.96
526.97	1205.11
527.33	1221.11
527.68	1237.17
528.04	1253.05
528.40	1269.02
528.76	1285.58
529.12	1301.79
529.48	1318.30
529.84	1333.84
530.20	1349.96
530.56	1366.31
530.91	1383.16
531.27	1399.60
531.63	1415.59
531.99	1431.66
532.35	1447.32
532.71	1462.80
533.07	1478.51
533.42	1494.10
533.78	1509.72
534.14	1525.45
534.50	1540.39
534.86	1555.87
535.21	1570.83
535.57	1586.41
535.93	1601.64
536.29	1616.11
536.65	1630.71
537.00	1644.94
537.36	1659.98
537.72	1674.04
538.08	1688.31
538.44	1701.84
538.79	1715.23
539.15	1728.32
539.51	1741.79
539.87	1755.75
540.22	1769.16
540.58	1782.56
540.94	1795.48
541.29	1808.00
541.65	1820.59
542.01	1833.56
542.37	1845.79
542.72	1857.91
543.08	1869.66
543.44	1882.00
543.79	1893.21
544.15	1904.06
544.51	1915.65
544.87	1926.51
545.22	1937.40
545.58	1947.57
545.94	1957.40
546.29	1967.42
546.65	1977.49
547.01	1986.93
547.36	1995.76
547.72	2004.44
548.07	2012.59
548.43	2020.76
548.79	2028.88
549.14	2036.75
549.50	2044.27
549.86	2051.97
550.21	2059.47
550.57	2066.77
550.92	2073.62
551.28	2080.84
551.64	2088.23
551.99	2094.99
552.35	2101.34
552.70	2107.69
553.06	2114.08
553.41	2120.70
553.77	2126.82
554.13	2133.16
554.48	2139.37
554.84	2145.20
555.19	2150.62
555.55	2156.19
555.90	2161.25
556.26	2166.71
556.61	2171.62
556.97	2176.49
557.32	2181.01
557.68	2185.34
558.03	2189.84
558.39	2193.69
558.74	2198.69
559.10	2202.95
559.45	2206.92
559.81	2211.54
560.16	2215.69
560.52	2219.26
560.87	2222.91
561.23	2226.05
561.58	2229.20
561.94	2232.35
562.29	2234.87
562.64	2238.18
563.00	2241.03
563.35	2244.84
563.71	2248.31
564.06	2251.77
564.42	2255.11
564.77	2258.15
565.12	2261.15
565.48	2263.62
565.83	2266.01
566.19	2267.90
566.54	2269.01
566.89	2270.66
567.25	2271.81
567.60	2273.50
567.96	2275.62
568.31	2277.01
568.66	2278.72
569.02	2280.02
569.37	2280.72
569.72	2282.29
570.08	2282.91
570.43	2283.38
570.78	2283.40
571.14	2282.38
571.49	2281.61
571.84	2281.44
572.20	2280.79
572.55	2280.24
572.90	2278.97
573.26	2278.22
573.61	2276.78
573.96	2275.71
574.31	2273.20
574.67	2270.53
575.02	2267.37
575.37	2264.42
575.72	2261.22
576.08	2257.97
576.43	2254.79
576.78	2251.64
577.13	2248.60
577.49	2245.61
577.84	2242.55
578.19	2239.06
578.54	2235.80
578.90	2232.23
579.25	2227.12
579.60	2222.71
579.95	2218.04
580.30	2213.44
580.66	2208.48
581.01	2203.79
581.36	2199.11
581.71	2195.43
582.06	2191.58
582.42	2187.67
582.77	2182.81
583.12	2178.52
583.47	2174.47
583.82	2170.20
584.17	2165.28
584.53	2160.33
584.88	2155.21
585.23	2149.95
585.58	2144.73
585.93	2139.56
586.28	2134.77
586.63	2130.17
586.98	2125.08
587.34	2120.55
587.69	2115.97
588.04	2111.19
588.39	2105.88
588.74	2099.68
589.09	2093.70
589.44	2087.14
589.79	2081.01
590.14	2075.54
590.49	2069.12
590.84	2062.72
591.19	2056.82
591.54	2050.55
591.89	2043.59
592.25	2037.25
592.60	2030.21
592.95	2023.10
593.30	2016.01
593.65	2008.66
594.00	2001.74
594.35	1994.81
594.70	1986.97
595.05	1980.07
595.40	1972.71
595.75	1965.37
596.10	1959.47
596.45	1953.04
596.80	1947.11
597.15	1941.02
597.50	1934.34
597.85	1928.10
598.19	1921.78
598.54	1914.99
598.89	1908.58
599.24	1902.56
599.59	1896.17
599.94	1889.91
600.29	1883.62
600.64	1877.07
600.99	1869.81
601.34	1863.02
601.69	1856.06
602.04	1849.41
602.39	1841.92
602.74	1835.38
603.08	1828.87
603.43	1822.17
603.78	1814.85
604.13	1807.67
604.48	1800.50
604.83	1793.57
605.18	1786.85
605.53	1778.99
605.87	1770.99
606.22	1763.76
606.57	1755.91
606.92	1748.18
607.27	1741.36
607.62	1734.49
607.96	1727.42
608.31	1720.95
608.66	1713.54
609.01	1706.19
609.36	1698.64
609.70	1690.80
610.05	1682.78
610.40	1674.95
610.75	1666.70
611.10	1659.07
611.44	1650.42
611.79	1642.24
612.14	1633.58
612.49	1624.26
612.83	1615.78
613.18	1607.29
613.53	1599.00
613.88	1590.47
614.22	1582.19
614.57	1573.21
614.92	1565.05
615.27	1557.45
615.61	1549.13
615.96	1541.03
616.31	1533.16
616.65	1525.62
617.00	1517.98
617.35	1510.16
617.70	1501.94
618.04	1493.45
618.39	1485.09
618.74	1477.61
619.08	1469.24
619.43	1461.54
619.78	1454.46
620.12	1447.23
620.47	1439.80
620.82	1431.57
621.16	1423.97
621.51	1416.26
621.85	1408.63
622.20	1400.15
622.55	1391.64
622.89	1383.65
623.24	1375.74
623.59	1368.17
623.93	1360.62
624.28	1353.29
624.62	1345.78
624.97	1338.42
625.32	1331.37
625.66	1324.20
626.01	1316.94
626.35	1309.55
626.70	1301.67
627.04	1293.97
627.39	1286.13
627.73	1278.68
628.08	1271.72
628.43	1264.50
628.77	1257.17
629.12	1249.64
629.46	1242.31
629.81	1234.65
630.15	1227.19
630.50	1219.77
630.84	1211.64
631.19	1203.60
631.53	1196.02
631.88	1188.31
632.22	1180.63
632.57	1173.17
632.91	1165.59
633.26	1158.04
633.60	1150.49
633.95	1143.12
634.29	1135.80
634.64	1128.93
634.98	1121.63
635.32	1114.45
635.67	1107.62
636.01	1100.83
636.36	1094.00
636.70	1087.45
637.05	1080.98
637.39	1074.45
637.73	1068.04
638.08	1062.06
638.42	1056.01
638.77	1049.53
639.11	1043.02
639.45	1036.69
639.80	1030.14
640.14	1023.76
640.49	1017.28
640.83	1010.93
641.17	1004.81
641.52	998.58
641.86	992.10
642.20	986.13
642.55	979.64
642.89	973.17
643.23	966.60
643.58	960.75
643.92	954.54
644.26	948.52
644.61	942.53
644.95	936.45
645.29	929.96
645.64	923.17
645.98	916.76
646.32	910.56
646.66	904.38
647.01	898.54
647.35	892.71
647.69	886.76
648.04	881.21
648.38	875.46
648.72	869.54
649.06	863.54
649.41	857.55
649.75	851.70
650.09	845.80
650.43	840.02
650.78	833.90
651.12	827.86
651.46	821.99
651.80	816.37
652.14	810.85
652.49	805.42
652.83	800.26
653.17	794.74
653.51	789.29
653.85	783.88
654.20	778.24
654.54	772.28
654.88	766.56
655.22	760.64
655.56	754.86
655.90	749.29
656.25	743.98
656.59	738.61
656.93	733.47
657.27	728.34
657.61	722.91
657.95	717.71
658.29	712.73
658.64	707.46
658.98	702.01
659.32	696.54
659.66	691.38
660.00	686.17
660.34	681.11
660.68	676.14
661.02	671.08
661.36	666.45
661.70	661.91
662.05	657.54
662.39	653.28
662.73	648.82
663.07	644.43
663.41	640.01
663.75	635.59
664.09	631.02
664.43	626.55
664.77	622.42
665.11	618.19
665.45	613.93
665.79	609.88
666.13	605.79
666.47	601.67
666.81	597.50
667.15	593.30
667.49	589.31
667.83	585.38
668.17	581.48
668.51	577.30
668.85	573.25
669.19	569.34
669.53	565.46
669.87	561.57
670.21	557.89
670.55	554.15
670.89	550.70
671.23	547.27
671.57	543.74
671.91	540.21
672.25	536.67
672.58	533.16
672.92	529.67
673.26	526.41
673.60	523.25
673.94	520.10
674.28	517.12
674.62	514.23
674.96	511.17
675.30	508.27
675.64	505.39
675.97	502.52
676.31	499.61
676.65	496.65
676.99	493.93
677.33	490.97
677.67	488.17
678.01	485.18
678.34	482.20
678.68	479.29
679.02	476.40
679.36	473.65
679.70	470.89
680.04	468.20
680.37	465.39
680.71	462.57
681.05	459.89
681.39	457.16
681.73	454.39
682.06	451.82
682.40	449.22
682.74	446.65
683.08	444.10
683.42	441.55
683.75	439.01
684.09	436.42
684.43	433.98
684.77	431.47
685.10	429.01
685.44	426.58
685.78	424.27
686.12	422.00
686.45	419.63
686.79	417.32
687.13	415.08
687.46	412.87
687.80	410.70
688.14	408.44
688.48	406.36
688.81	404.20
689.15	402.02
689.49	399.81
689.82	397.71
690.16	395.63
690.50	393.63
690.83	391.69
691.17	389.72
691.51	387.75
691.84	385.94
692.18	384.07
692.52	382.17
692.85	380.17
693.19	378.28
693.52	376.40
693.86	374.56
694.20	372.70
694.53	370.89
694.87	369.03
695.21	367.25
695.54	365.34
695.88	363.57
696.21	361.84
696.55	360.14
696.88	358.45
697.22	356.70
697.56	355.04
697.89	353.38
698.23	351.74
698.56	350.13
698.90	348.53
699.23	346.85
699.57	345.27
699.90	343.76
700.24	342.19
700.58	340.67
700.91	339.18
701.25	337.75
701.58	336.39
701.92	334.99
702.25	333.61
702.59	332.27
702.92	330.94
703.26	329.60
703.59	328.35
703.93	327.11
704.26	325.90
704.60	324.60
704.93	323.34
705.26	322.10
705.60	320.91
705.93	319.71
706.27	318.62
706.60	317.55
706.94	316.45
707.27	315.36
707.61	314.28
707.94	313.22
708.27	312.07
708.61	310.92
708.94	309.92
709.28	308.92
709.61	307.97
709.94	307.00
710.28	305.98
710.61	304.98
710.95	303.88
711.28	302.93
711.61	301.99
711.95	301.04
712.28	300.07
712.61	299.07
712.95	298.11
713.28	297.22
713.61	296.34
713.95	295.47
714.28	294.55
714.61	293.69
714.95	292.83
715.28	292.03
715.61	291.14
715.95	290.24
716.28	289.37
716.61	288.48
716.95	287.62
717.28	286.82
717.61	286.03
717.94	285.27
718.28	284.43
718.61	283.62
718.94	282.91
719.27	282.19
719.61	281.53
719.94	280.85
720.27	280.08
720.60	279.40
720.94	278.70
721.27	278.10
721.60	277.47
721.93	276.88
722.27	276.25
722.60	275.71
722.93	275.11
723.26	274.56
723.59	273.98
723.93	273.42
724.26	272.84
724.59	272.23
724.92	271.71
725.25	271.20
725.59	270.69
725.92	270.17
726.25	269.63
726.58	269.08
726.91	268.61
727.24	268.12
727.57	267.56
727.91	267.05
728.24	266.54
728.57	266.02
728.90	265.54
729.23	265.05
729.56	264.57
729.89	264.12
730.22	263.60
730.55	263.14
730.89	262.66
731.22	262.23
731.55	261.78
731.88	261.33
732.21	260.91
732.54	260.45
732.87	259.98
733.20	259.57
733.53	259.18
733.86	258.77
734.19	258.34
734.52	258.00
734.85	257.64
735.18	257.26
735.51	256.93
735.84	256.56
736.17	256.19
736.50	255.77
736.83	255.51
737.16	255.17
737.49	254.81
737.82	254.49
738.15	254.15
738.48	253.81
738.81	253.51
739.14	253.13
739.47	252.81
739.80	252.49
740.13	252.17
740.46	251.83
740.79	251.49
741.12	251.21
741.45	250.89
741.78	250.56
742.11	250.28
742.44	249.91
742.77	249.60
743.10	249.28
743.43	249.03
743.75	248.67
744.08	248.51
744.41	248.22
744.74	247.94
745.07	247.69
745.40	247.49
745.73	247.22
746.06	246.98
746.39	246.74
746.71	246.49
747.04	246.20
747.37	245.96
747.70	245.73
748.03	245.48
748.36	245.25
748.68	245.05
749.01	244.75
749.34	244.54
749.67	244.31
750.00	244.15
750.33	243.97
750.65	243.75
750.98	243.39
751.31	243.20
751.64	242.99
751.97	242.82
752.29	242.58
752.62	242.32
752.95	242.12
753.28	241.90
753.60	241.71
753.93	241.56
754.26	241.36
754.59	241.16
754.91	240.95
755.24	240.78
755.57	240.51
755.90	240.35
756.22	240.17
756.55	239.96
756.88	239.74
757.20	239.48
757.53	239.27
757.86	239.12
758.19	238.95
758.51	238.76
758.84	238.55
759.17	238.34
759.49	238.19
759.82	238.07
760.15	237.90
760.47	237.71
760.80	237.52
761.13	237.40
761.45	237.23
761.78	237.07
762.11	236.91
762.43	236.77
762.76	236.60
763.08	236.44
763.41	236.34
763.74	236.18
764.06	236.09
764.39	235.96
764.71	235.81
765.04	235.65
765.37	235.53
765.69	235.33
766.02	235.22
766.34	235.09
766.67	234.89
767.00	234.78
767.32	234.74
767.65	234.69
767.97	234.56
768.30	234.43
768.62	234.30
768.95	234.17
769.27	234.08
769.60	233.96
769.92	233.83
770.25	233.65
770.57	233.52
770.90	233.41
771.22	233.28
771.55	233.14
771.87	233.04
772.20	232.90
772.52	232.94
772.85	232.96
773.17	232.83
773.50	232.75
773.82	232.62
774.15	232.41
774.47	232.24
774.80	232.12
775.12	232.02
775.45	231.94
775.77	231.83
776.09	231.76
776.42	231.67
776.74	231.64
777.07	231.58
777.39	231.50
777.72	231.33
778.04	231.25
778.36	231.20
778.69	231.15
779.01	231.13
779.33	230.95
779.66	230.74
779.98	230.68
780.31	230.60
780.63	230.58
780.95	230.57
781.28	230.52
781.60	230.40
781.92	230.33
782.25	230.24
782.57	230.17
782.89	230.10
783.22	230.03
783.54	229.97
783.86	229.94
784.19	229.89
784.51	229.89
784.83	229.84
785.16	229.80
785.48	229.73
785.80	229.68
786.12	229.61
786.45	229.57
786.77	229.55
787.09	229.52
787.42	229.45
787.74	229.38
788.06	229.36
788.38	229.39
788.71	229.36
789.03	229.35
789.35	229.38
789.67	229.33
789.99	229.35
790.32	229.29
790.64	229.24
790.96	229.29
791.28	229.28
791.61	229.25
791.93	229.23
792.25	229.19
792.57	229.21
792.89	229.21
793.21	229.17
793.54	229.16
793.86	229.14
794.18	229.11
794.50	229.10
794.82	229.07
795.14	229.02
795.47	229.02
795.79	228.97
796.11	228.90
796.43	228.89
796.75	228.84
797.07	228.82
797.39	228.81
797.71	228.71
798.04	228.71
798.36	228.71
798.68	228.68
799.00	228.67
799.32	228.60
799.64	228.57
799.96	228.56
800.28	228.50
800.60	228.47
800.92	228.46
801.24	228.46
801.56	228.43
801.89	228.41
802.21	228.40
802.53	228.39
802.85	228.38
803.17	228.43
803.49	228.35
803.81	228.33
804.13	228.29
804.45	228.25
804.77	228.20
805.09	228.16
805.41	228.11
805.73	228.05
806.05	227.99
806.37	227.97
806.69	227.92
807.01	227.90
807.33	227.86
807.65	227.80
807.97	227.78
808.28	227.73
808.60	227.70
808.92	227.62
809.24	227.64
809.56	227.59
809.88	227.48
810.20	227.49
810.52	227.45
810.84	227.39
811.16	227.37
811.48	227.32
811.80	227.32
812.12	227.29
812.43	227.29
812.75	227.26
813.07	227.22
813.39	227.20
813.71	227.15
814.03	227.09
814.35	227.08
814.67	227.01
814.98	226.96
815.30	226.91
815.62	226.86
815.94	226.76
816.26	226.77
816.58	226.72
816.89	226.68
817.21	226.62
817.53	226.60
817.85	226.56
818.17	226.55
818.48	226.49
818.80	226.47
819.12	226.45
819.44	226.43
819.76	226.40
820.07	226.37
820.39	226.36
820.71	226.39
821.03	226.36
821.34	226.33
821.66	226.33
821.98	226.34
822.30	226.36
822.61	226.42
822.93	226.36
823.25	226.36
823.57	226.34
823.88	226.38
824.20	226.38
824.52	226.40
824.83	226.38
825.15	226.35
825.47	226.31
825.79	226.27
826.10	226.24
826.42	226.23
826.74	226.25
827.05	226.25
827.37	226.19
827.69	226.18
828.00	226.15
828.32	226.12
828.64	226.12
828.95	226.13
829.27	226.06
829.58	226.04
829.90	226.05
830.22	226.05
830.53	226.02
830.85	226.02
831.17	225.99
831.48	225.98
831.80	225.96
832.11	225.99
832.43	225.99
832.75	226.01
833.06	226.06
833.38	226.02
833.69	226.00
834.01	226.00
834.32	226.01
834.64	226.05
834.96	226.07
835.27	226.05
835.59	226.00
835.90	225.99
836.22	226.02
836.53	225.98
836.85	225.98
837.16	226.10
837.48	226.09
837.79	226.08
838.11	226.07
838.42	226.11
838.74	226.14
839.05	226.08
839.37	226.05
839.68	225.96
840.00	225.95
840.31	225.99
840.63	225.97
840.94	225.94
841.26	225.94
841.57	225.94
841.88	225.95
842.20	225.94
842.51	225.93
842.83	225.92
843.14	226.01
843.46	226.00
843.77	225.88
844.08	225.87
844.40	225.84
844.71	225.83
845.03	225.78
845.34	225.73
845.65	225.75
845.97	225.77
846.28	225.79
846.60	225.80
846.91	225.77
847.22	225.77
847.54	225.75
847.85	225.73
848.16	225.71
848.48	225.67
848.79	225.71
849.10	225.69
849.42	225.69
849.73	225.60
850.04	225.58
850.36	225.55
850.67	225.57
850.98	225.60
851.30	225.62
851.61	225.62
851.92	225.64
852.23	225.62
852.55	225.61
852.86	225.59
853.17	225.60
853.49	225.62
853.80	225.64
854.11	225.66
854.42	225.66
854.74	225.64
855.05	225.64
855.36	225.60
855.67	225.60
855.99	225.57
856.30	225.65
856.61	225.63
856.92	225.64
857.23	225.62
857.55	225.60
857.86	225.56
858.17	225.60
858.48	225.58
858.79	225.58
859.11	225.58
859.42	225.57
859.73	225.53
860.04	225.51
860.35	225.49
860.66	225.46
860.98	225.47
861.29	225.48
861.60	225.45
861.91	225.48
862.22	225.51
862.53	225.50
862.84	225.38
863.16	225.43
863.47	225.39
863.78	225.39
864.09	225.38
864.40	225.42
864.71	225.38
865.02	225.38
865.33	225.37
865.64	225.36
865.95	225.35
866.27	225.42
866.58	225.41
866.89	225.45
867.20	225.46
867.51	225.44
867.82	225.44
868.13	225.48
868.44	225.46
868.75	225.48
869.06	225.51
869.37	225.53
869.68	225.51
869.99	225.55
870.30	225.56
870.61	225.61
870.92	225.57
871.23	225.56
871.54	225.57
871.85	225.60
872.16	225.63
872.47	225.66
872.78	225.62
873.09	225.63
873.40	225.59
873.71	225.58
874.02	225.58
874.33	225.59
874.64	225.57
874.95	225.60
875.26	225.56
875.56	225.56
875.87	225.55
876.18	225.53
876.49	225.63
876.80	225.63
877.11	225.59
877.42	225.62
877.73	225.65
878.04	225.63
878.35	225.64
878.66	225.61
878.96	225.60
879.27	225.58
879.58	225.54
879.89	225.56
880.20	225.58
880.51	225.56
880.82	225.54
881.12	225.52
881.43	225.46
881.74	225.44
882.05	225.42
882.36	225.43
882.67	225.43
882.97	225.31
883.28	225.27
883.59	225.26
883.90	225.23
884.21	225.23
884.51	225.23
884.82	225.19
885.13	225.21
885.44	225.22
885.74	225.22
886.05	225.21
886.36	225.22
886.67	225.22
886.98	225.25
887.28	225.27
887.59	225.30
887.90	225.33
888.20	225.32
888.51	225.33
888.82	225.29
889.13	225.27
889.43	225.35
889.74	225.34
890.05	225.32
890.35	225.30
890.66	225.28
890.97	225.26
891.28	225.25
891.58	225.23
891.89	225.24
892.20	225.20
892.50	225.20
892.81	225.19
893.12	225.17
893.42	225.13
893.73	225.10
894.04	225.12
894.34	225.11
894.65	225.09
894.95	225.05
895.26	225.07
895.57	225.13
895.87	225.05
896.18	225.07
896.48	225.06
896.79	225.07
897.10	225.07
897.40	225.08
897.71	225.09
898.01	225.06
898.32	225.03
898.63	225.02
898.93	225.01
899.24	224.97
899.54	224.95
899.85	224.93
900.15	224.93
900.46	224.90
900.76	224.90
901.07	224.90
901.38	224.91
901.68	224.94
901.99	224.85
902.29	224.84
902.60	224.82
902.90	224.84
903.21	224.86
903.51	224.87
903.82	224.86
904.12	224.85
904.43	224.87
904.73	224.87
905.03	224.89
905.34	224.99
905.64	225.00
905.95	225.02
906.25	225.03
906.56	225.00
906.86	224.97
907.17	224.97
907.47	224.98
907.77	224.97
908.08	224.92
908.38	224.96
908.69	224.98
908.99	225.04
909.30	225.05
909.60	225.04
909.90	225.03
910.21	225.02
910.51	224.99
910.81	224.98
911.12	225.01
911.42	225.02
911.73	224.94
912.03	224.94
912.33	224.97
912.64	224.97
912.94	224.99
913.24	225.02
913.55	225.01
913.85	225.01
914.15	225.07
914.46	225.10
914.76	225.08
915.06	225.09
915.37	225.06
915.67	225.05
915.97	225.02
916.27	225.00
916.58	225.02
916.88	225.06
917.18	225.08
917.49	225.15
917.79	225.12
918.09	225.13
918.39	225.15
918.70	225.14
919.00	225.15
919.30	225.21
919.60	225.20
919.91	225.22
920.21	225.23
920.51	225.21
920.81	225.22
921.12	225.21
921.42	225.21
921.72	225.23
922.02	225.25
922.32	225.30
922.63	225.32
922.93	225.38
923.23	225.35
923.53	225.33
923.83	225.27
924.13	225.33
924.44	225.33
924.74	225.32
925.04	225.34
925.34	225.31
925.64	225.26
925.94	225.29
926.24	225.32
926.55	225.30
926.85	225.30
927.15	225.28
927.45	225.31
927.75	225.28
928.05	225.27
928.35	225.23
928.65	225.22
928.95	225.24
929.26	225.14
929.56	225.18
929.86	225.17
930.16	225.17
930.46	225.11
930.76	225.11
931.06	225.10
931.36	225.08
931.66	225.10
931.96	225.12
932.26	225.07
932.56	225.02
932.86	225.02
933.16	224.98
933.46	224.96
933.76	224.94
934.06	224.98
934.36	225.04
934.66	225.04
934.96	225.02
935.26	225.02
935.56	225.06
935.86	225.02
936.16	225.03
936.46	225.02
936.76	225.01
937.06	224.99
937.36	224.97
937.66	224.95
937.96	224.91
938.26	224.91
938.56	224.92
938.86	224.95
939.16	224.96
939.46	225.00
939.76	225.01
940.06	224.97
940.35	224.91
940.65	224.80
940.95	224.78
941.25	224.77
941.55	224.73
941.85	224.73
942.15	224.77
942.45	224.77
942.75	224.75
943.04	224.78
943.34	224.80
943.64	224.80
943.94	224.81
944.24	224.80
944.54	224.79
944.84	224.80
945.13	224.81
945.43	224.80
945.73	224.81
946.03	224.82
946.33	224.82
946.62	224.84
946.92	224.83
947.22	224.88
947.52	224.89
947.82	224.92
948.11	224.93
948.41	224.91
948.71	224.92
949.01	224.96
949.31	224.94
949.60	224.93
949.90	224.95
950.20	224.95
950.50	225.00
950.79	224.98
951.09	224.99
951.39	224.97
951.69	224.95
951.98	224.97
952.28	224.97
952.58	224.98
952.87	224.97
953.17	225.03
953.47	225.01
953.76	225.01
954.06	225.01
954.36	225.00
954.66	224.99
954.95	225.00
955.25	225.00
955.55	225.05
955.84	225.04
956.14	225.03
956.44	225.06
956.73	225.03
957.03	225.07
957.32	225.10
957.62	225.11
957.92	225.13
958.21	225.13
958.51	225.24
958.81	225.25
959.10	225.29
959.40	225.32
959.69	225.36
959.99	225.36
960.29	225.37
960.58	225.35
960.88	225.41
961.17	225.42
961.47	225.43
961.76	225.38
962.06	225.45
962.36	225.42
962.65	225.41
962.95	225.40
963.24	225.38
963.54	225.34
963.83	225.34
964.13	225.31
964.42	225.27
964.72	225.20
965.01	225.22
965.31	225.19
965.60	225.13
965.90	225.14
966.19	225.17
966.49	225.12
966.78	225.13
967.08	225.08
967.37	225.05
967.67	225.02
967.96	225.04
968.26	224.98
968.55	224.99
968.85	224.98
969.14	224.97
969.43	224.95
969.73	224.93
970.02	224.92
970.32	224.89
970.61	224.89
970.91	224.84
971.20	224.84
971.49	224.81
971.79	224.82
972.08	224.76
972.38	224.71
972.67	224.72
972.96	224.71
973.26	224.71
973.55	224.74
973.85	224.73
974.14	224.71
974.43	224.72
974.73	224.70
975.02	224.70
975.31	224.71
975.61	224.70
975.90	224.65
976.19	224.63
976.49	224.66
976.78	224.64
977.07	224.66
977.37	224.66
977.66	224.69
977.95	224.68
978.24	224.68
978.54	224.72
978.83	224.71
979.12	224.71
979.42	224.70
979.71	224.67
980.00	224.65
980.29	224.64
980.59	224.64
980.88	224.64
981.17	224.67
981.46	224.65
981.76	224.68
982.05	224.74
982.34	224.76
982.63	224.77
982.93	224.75
983.22	224.78
983.51	224.77
983.80	224.78
984.09	224.79
984.39	224.79
984.68	224.74
984.97	224.72
985.26	224.72
985.55	224.75
985.85	224.75
986.14	224.79
986.43	224.82
986.72	224.82
987.01	224.81
987.30	224.78
987.59	224.77
987.89	224.76
988.18	224.71
988.47	224.67
988.76	224.70
989.05	224.73
989.34	224.71
989.63	224.72
989.92	224.70
990.22	224.69
990.51	224.67
990.80	224.70
991.09	224.71
991.38	224.70
991.67	224.68
991.96	224.65
992.25	224.63
992.54	224.59
992.83	224.57
993.12	224.55
993.41	224.56
993.70	224.57
993.99	224.54
994.28	224.58
994.58	224.65
994.87	224.59
995.16	224.55
995.45	224.55
995.74	224.50
996.03	224.52
996.32	224.54
996.61	224.60
996.90	224.57
997.19	224.55
997.48	224.56
997.77	224.55
998.06	224.57
998.34	224.56
998.63	224.61
998.92	224.60
999.21	224.64
999.50	224.65
999.79	224.65
1000.08	224.65
1000.37	224.63
1000.66	224.59
1000.95	224.65
1001.24	224.67
1001.53	224.67
1001.82	224.66
1002.11	224.61
1002.40	224.60
1002.68	224.57
1002.97	224.66
1003.26	224.67
1003.55	224.64
1003.84	224.64
1004.13	224.67
1004.42	224.67
1004.71	224.62
1004.99	224.65
1005.28	224.69
1005.57	224.65
1005.86	224.64
1006.15	224.66
1006.44	224.71
1006.72	224.72
1007.01	224.69
1007.30	224.73
1007.59	224.69
1007.88	224.71
1008.17	224.74
1008.45	224.71
1008.74	224.69
1009.03	224.66
1009.32	224.67
1009.60	224.68
1009.89	224.70
1010.18	224.68
1010.47	224.70
1010.76	224.73
1011.04	224.69
1011.33	224.69
1011.62	224.73
1011.91	224.75
1012.19	224.76
1012.48	224.73
1012.77	224.74
1013.05	224.79
1013.34	224.77
1013.63	224.80
1013.92	224.83
1014.20	224.83
1014.49	224.86
1014.78	224.88
1015.06	224.86
1015.35	224.90
1015.64	224.91
1015.92	224.91
1016.21	224.90
1016.50	224.90
1016.78	224.90
1017.07	224.92
1017.36	224.88
1017.64	224.88
1017.93	224.89
1018.22	224.88
1018.50	224.90
1018.79	224.91
1019.08	224.86
1019.36	224.86
1019.65	224.86
1019.93	224.90
1020.22	224.88
1020.51	224.93
1020.79	224.93
1021.08	224.71
1021.36	225.10
1021.65	224.78
1021.94	224.97
1022.22	224.68
1022.51	224.99
1022.79	225.64
1023.08	224.22
1023.36	225.64
1023.65	225.06
>>>>>End Processed Spectral Data<<<<<
