SpectraSuite Data File
++++++++++++++++++++++++++++++++++++
Date: Fri Feb 01 15:02:32 EST 2013
User: group
Dark Spectrum Present: No
Reference Spectrum Present: No
Number of Sampled Component Spectra: 1
Spectrometers: USB2E7196
Integration Time (usec): 35000 (USB2E7196)
Spectra Averaged: 100 (USB2E7196)
Boxcar Smoothing: 10 (USB2E7196)
Correct for Electrical Dark: No (USB2E7196)
Strobe/Lamp Enabled: No (USB2E7196)
Correct for Detector Non-linearity: No (USB2E7196)
Correct for Stray Light: No (USB2E7196)
Number of Pixels in Processed Spectrum: 2048
>>>>>Begin Processed Spectral Data<<<<<
339.09	0.00
339.48	214.80
339.86	216.90
340.24	217.58
340.63	219.20
341.01	222.15
341.39	222.57
341.78	223.40
342.16	224.11
342.54	224.70
342.93	213.44
343.31	224.23
343.69	224.77
344.07	225.19
344.46	225.63
344.84	226.02
345.22	226.26
345.60	226.46
345.99	226.65
346.37	226.79
346.75	226.89
347.13	226.95
347.52	226.99
347.90	227.07
348.28	227.10
348.66	227.12
349.05	227.08
349.43	227.15
349.81	227.17
350.19	227.24
350.57	227.30
350.96	227.33
351.34	227.41
351.72	227.50
352.10	227.67
352.48	227.76
352.87	227.82
353.25	227.93
353.63	228.04
354.01	228.11
354.39	228.21
354.77	228.30
355.15	228.39
355.54	228.45
355.92	228.49
356.30	228.57
356.68	228.71
357.06	228.83
357.44	228.85
357.82	228.95
358.20	229.04
358.58	229.11
358.97	229.19
359.35	229.29
359.73	229.37
360.11	229.39
360.49	229.44
360.87	229.51
361.25	229.54
361.63	229.58
362.01	229.63
362.39	229.66
362.77	229.71
363.15	229.75
363.53	229.79
363.91	229.84
364.29	229.87
364.67	229.81
365.05	229.84
365.43	229.87
365.81	229.90
366.19	229.94
366.57	229.96
366.95	229.96
367.33	229.92
367.71	229.89
368.09	229.88
368.47	229.86
368.85	229.80
369.23	229.78
369.61	229.76
369.99	229.74
370.37	229.69
370.75	229.66
371.13	229.60
371.51	229.55
371.89	229.49
372.27	229.43
372.65	229.36
373.03	229.25
373.41	229.14
373.78	229.03
374.16	228.94
374.54	228.83
374.92	228.74
375.30	228.66
375.68	228.57
376.06	228.49
376.44	228.41
376.82	228.32
377.19	228.23
377.57	228.11
377.95	228.01
378.33	227.94
378.71	227.83
379.09	227.77
379.47	227.69
379.84	227.60
380.22	227.53
380.60	227.45
380.98	227.39
381.36	227.32
381.73	227.23
382.11	227.15
382.49	227.05
382.87	226.98
383.25	226.91
383.62	226.97
384.00	226.89
384.38	226.83
384.76	226.78
385.13	226.77
385.51	226.71
385.89	226.66
386.27	226.62
386.64	226.59
387.02	226.54
387.40	226.47
387.78	226.42
388.15	226.38
388.53	226.36
388.91	226.31
389.29	226.27
389.66	226.28
390.04	226.25
390.42	226.28
390.79	226.28
391.17	226.28
391.55	226.19
391.92	226.17
392.30	226.16
392.68	226.16
393.05	226.10
393.43	226.11
393.81	226.14
394.18	226.14
394.56	226.14
394.94	226.15
395.31	226.19
395.69	226.26
396.06	226.31
396.44	226.34
396.82	226.38
397.19	226.50
397.57	226.54
397.95	226.64
398.32	226.67
398.70	226.73
399.07	226.80
399.45	226.84
399.82	226.93
400.20	227.02
400.58	227.09
400.95	227.20
401.33	227.29
401.70	227.47
402.08	227.59
402.45	227.69
402.83	227.82
403.20	227.93
403.58	228.04
403.95	228.17
404.33	228.32
404.71	228.45
405.08	228.65
405.46	228.80
405.83	228.94
406.21	229.12
406.58	229.30
406.96	229.52
407.33	229.71
407.70	229.93
408.08	230.22
408.45	230.48
408.83	230.74
409.20	230.97
409.58	231.12
409.95	231.39
410.33	231.71
410.70	232.01
411.08	232.33
411.45	232.65
411.82	232.97
412.20	233.32
412.57	233.81
412.95	234.09
413.32	234.50
413.69	234.87
414.07	235.30
414.44	235.76
414.82	236.20
415.19	236.76
415.56	237.30
415.94	237.80
416.31	238.42
416.68	239.01
417.06	239.69
417.43	240.42
417.81	241.19
418.18	241.90
418.55	242.73
418.93	243.59
419.30	244.47
419.67	245.43
420.04	246.37
420.42	247.30
420.79	248.52
421.16	249.64
421.54	250.87
421.91	252.09
422.28	253.36
422.66	254.71
423.03	256.04
423.40	257.34
423.77	258.78
424.15	260.20
424.52	261.68
424.89	263.33
425.26	264.87
425.64	266.27
426.01	267.90
426.38	269.52
426.75	271.19
427.13	272.95
427.50	274.73
427.87	276.62
428.24	278.49
428.61	280.19
428.99	282.12
429.36	284.20
429.73	286.29
430.10	288.28
430.47	290.33
430.85	292.41
431.22	294.69
431.59	297.04
431.96	299.26
432.33	301.72
432.70	304.08
433.08	306.88
433.45	309.56
433.82	312.16
434.19	315.10
434.56	317.89
434.93	320.53
435.30	323.15
435.68	326.05
436.05	328.89
436.42	331.72
436.79	334.23
437.16	336.91
437.53	339.67
437.90	342.46
438.27	345.21
438.64	348.06
439.01	350.64
439.38	352.88
439.75	355.09
440.13	357.65
440.50	360.01
440.87	361.89
441.24	363.81
441.61	366.01
441.98	367.45
442.35	369.28
442.72	371.15
443.09	372.97
443.46	373.96
443.83	374.55
444.20	375.04
444.57	375.91
444.94	376.17
445.31	376.52
445.68	376.90
446.05	376.98
446.42	376.63
446.79	376.22
447.16	375.82
447.53	375.50
447.90	374.29
448.27	373.16
448.64	371.57
449.01	370.45
449.37	368.46
449.74	366.59
450.11	364.30
450.48	361.81
450.85	359.26
451.22	357.06
451.59	355.00
451.96	353.04
452.33	350.42
452.70	348.11
453.07	345.32
453.43	342.46
453.80	339.70
454.17	336.99
454.54	334.46
454.91	331.67
455.28	329.00
455.65	326.52
456.02	324.02
456.38	321.87
456.75	319.21
457.12	317.00
457.49	314.76
457.86	312.62
458.23	310.79
458.59	308.73
458.96	306.70
459.33	304.89
459.70	303.06
460.07	301.59
460.43	299.87
460.80	298.21
461.17	296.77
461.54	295.25
461.91	293.82
462.27	292.31
462.64	291.09
463.01	289.72
463.38	288.43
463.74	287.08
464.11	285.89
464.48	284.84
464.85	283.70
465.21	282.85
465.58	281.90
465.95	280.79
466.32	279.92
466.68	279.02
467.05	278.11
467.42	277.20
467.78	276.26
468.15	275.38
468.52	274.75
468.88	273.89
469.25	273.12
469.62	272.50
469.98	271.82
470.35	271.20
470.72	270.59
471.08	269.88
471.45	269.32
471.82	268.76
472.18	268.15
472.55	267.68
472.92	267.14
473.28	266.70
473.65	266.25
474.02	265.77
474.38	265.39
474.75	265.04
475.11	264.67
475.48	264.39
475.85	264.10
476.21	263.84
476.58	263.58
476.94	263.42
477.31	263.22
477.67	263.07
478.04	262.94
478.41	262.90
478.77	262.98
479.14	262.90
479.50	262.90
479.87	262.96
480.23	263.01
480.60	263.04
480.96	263.14
481.33	263.32
481.69	263.47
482.06	263.65
482.42	263.83
482.79	264.08
483.15	264.41
483.52	264.81
483.88	265.15
484.25	265.57
484.61	265.98
484.98	266.46
485.34	267.05
485.71	267.64
486.07	268.21
486.44	268.75
486.80	269.40
487.17	270.11
487.53	270.93
487.90	271.79
488.26	272.75
488.62	273.70
488.99	274.68
489.35	275.71
489.72	276.80
490.08	278.02
490.44	279.25
490.81	280.54
491.17	281.87
491.54	283.31
491.90	284.83
492.26	286.44
492.63	288.12
492.99	289.87
493.36	291.71
493.72	293.72
494.08	295.83
494.45	298.11
494.81	300.48
495.17	302.87
495.54	305.41
495.90	308.02
496.26	310.79
496.63	313.72
496.99	316.83
497.35	320.09
497.72	323.45
498.08	326.93
498.44	330.59
498.80	334.48
499.17	338.52
499.53	342.65
499.89	347.03
500.26	351.52
500.62	356.12
500.98	361.09
501.34	366.12
501.71	371.42
502.07	376.81
502.43	382.35
502.79	388.19
503.16	394.25
503.52	400.56
503.88	406.98
504.24	413.57
504.60	420.44
504.97	427.59
505.33	434.95
505.69	442.68
506.05	450.42
506.41	458.31
506.78	466.47
507.14	474.92
507.50	483.63
507.86	492.67
508.22	501.89
508.59	511.09
508.95	520.67
509.31	530.49
509.67	540.59
510.03	550.99
510.39	561.50
510.75	572.32
511.12	583.23
511.48	594.49
511.84	605.92
512.20	617.48
512.56	629.40
512.92	641.60
513.28	653.90
513.64	666.40
514.00	679.14
514.37	692.08
514.73	705.13
515.09	718.16
515.45	731.47
515.81	745.08
516.17	759.02
516.53	773.13
516.89	787.35
517.25	801.55
517.61	815.97
517.97	830.47
518.33	844.87
518.69	859.70
519.05	874.76
519.41	889.98
519.77	905.54
520.13	921.02
520.49	936.42
520.85	951.87
521.21	967.65
521.57	983.93
521.93	999.64
522.29	1016.11
522.65	1032.47
523.01	1048.71
523.37	1064.80
523.73	1081.07
524.09	1097.30
524.45	1113.71
524.81	1130.39
525.17	1147.26
525.53	1164.33
525.89	1181.33
526.25	1198.22
526.61	1214.67
526.97	1231.52
527.33	1248.11
527.68	1264.76
528.04	1281.37
528.40	1298.09
528.76	1315.14
529.12	1331.73
529.48	1348.88
529.84	1364.97
530.20	1381.71
530.56	1398.88
530.91	1416.39
531.27	1433.28
531.63	1449.80
531.99	1466.42
532.35	1482.39
532.71	1498.33
533.07	1514.58
533.42	1530.50
533.78	1546.60
534.14	1562.81
534.50	1578.27
534.86	1594.17
535.21	1609.36
535.57	1625.32
535.93	1640.92
536.29	1655.87
536.65	1671.19
537.00	1686.00
537.36	1701.39
537.72	1715.99
538.08	1730.38
538.44	1744.29
538.79	1758.14
539.15	1772.06
539.51	1785.81
539.87	1800.27
540.22	1814.06
540.58	1827.87
540.94	1841.36
541.29	1854.35
541.65	1867.26
542.01	1880.49
542.37	1892.75
542.72	1905.38
543.08	1917.17
543.44	1929.64
543.79	1940.91
544.15	1951.83
544.51	1963.55
544.87	1974.69
545.22	1985.52
545.58	1995.80
545.94	2005.54
546.29	2015.59
546.65	2025.29
547.01	2034.52
547.36	2043.33
547.72	2051.85
548.07	2059.62
548.43	2067.87
548.79	2076.02
549.14	2083.65
549.50	2091.14
549.86	2099.10
550.21	2106.37
550.57	2113.63
550.92	2120.28
551.28	2127.42
551.64	2134.42
551.99	2140.89
552.35	2146.89
552.70	2153.02
553.06	2158.96
553.41	2165.28
553.77	2171.30
554.13	2177.45
554.48	2183.58
554.84	2188.90
555.19	2194.19
555.55	2199.27
555.90	2203.60
556.26	2208.23
556.61	2212.82
556.97	2216.89
557.32	2220.96
557.68	2224.92
558.03	2229.18
558.39	2232.74
558.74	2237.27
559.10	2241.10
559.45	2244.67
559.81	2249.10
560.16	2252.77
560.52	2256.04
560.87	2259.47
561.23	2262.05
561.58	2264.85
561.94	2267.30
562.29	2269.82
562.64	2272.46
563.00	2275.13
563.35	2278.70
563.71	2281.89
564.06	2285.14
564.42	2287.96
564.77	2290.30
565.12	2292.66
565.48	2294.38
565.83	2296.07
566.19	2297.23
566.54	2298.15
566.89	2299.14
567.25	2299.39
567.60	2300.70
567.96	2302.12
568.31	2302.83
568.66	2303.73
569.02	2304.16
569.37	2304.54
569.72	2305.17
570.08	2305.11
570.43	2304.99
570.78	2304.02
571.14	2302.34
571.49	2300.81
571.84	2300.36
572.20	2299.03
572.55	2297.88
572.90	2296.23
573.26	2294.78
573.61	2293.04
573.96	2291.17
574.31	2288.09
574.67	2284.91
575.02	2281.32
575.37	2277.94
575.72	2273.85
576.08	2270.43
576.43	2267.04
576.78	2263.14
577.13	2259.89
577.49	2256.71
577.84	2253.13
578.19	2249.42
578.54	2245.69
578.90	2241.20
579.25	2235.61
579.60	2230.42
579.95	2225.16
580.30	2220.03
580.66	2214.67
581.01	2209.56
581.36	2204.45
581.71	2200.16
582.06	2195.65
582.42	2190.91
582.77	2185.47
583.12	2180.78
583.47	2175.85
583.82	2170.67
584.17	2165.40
584.53	2159.74
584.88	2153.85
585.23	2147.91
585.58	2142.30
585.93	2136.68
586.28	2131.93
586.63	2126.62
586.98	2121.52
587.34	2116.79
587.69	2111.69
588.04	2106.33
588.39	2100.61
588.74	2094.06
589.09	2087.73
589.44	2080.85
589.79	2074.72
590.14	2069.05
590.49	2062.45
590.84	2056.17
591.19	2050.06
591.54	2043.46
591.89	2035.92
592.25	2029.17
592.60	2021.85
592.95	2014.15
593.30	2006.72
593.65	1998.95
594.00	1991.93
594.35	1984.68
594.70	1976.52
595.05	1969.26
595.40	1962.00
595.75	1954.34
596.10	1947.93
596.45	1941.07
596.80	1934.84
597.15	1928.03
597.50	1920.85
597.85	1914.52
598.19	1907.61
598.54	1900.51
598.89	1893.79
599.24	1887.84
599.59	1881.02
599.94	1874.89
600.29	1868.50
600.64	1862.01
600.99	1854.44
601.34	1847.50
601.69	1840.42
602.04	1833.43
602.39	1826.08
602.74	1819.10
603.08	1812.23
603.43	1805.50
603.78	1798.20
604.13	1790.96
604.48	1783.74
604.83	1776.86
605.18	1769.65
605.53	1761.68
605.87	1753.57
606.22	1746.28
606.57	1738.33
606.92	1731.01
607.27	1723.59
607.62	1716.68
607.96	1709.28
608.31	1702.61
608.66	1694.87
609.01	1687.28
609.36	1679.71
609.70	1671.61
610.05	1663.53
610.40	1656.00
610.75	1647.63
611.10	1640.07
611.44	1631.77
611.79	1623.66
612.14	1614.85
612.49	1605.80
612.83	1597.58
613.18	1589.51
613.53	1581.47
613.88	1572.95
614.22	1564.81
614.57	1556.39
614.92	1548.38
615.27	1540.68
615.61	1532.43
615.96	1524.53
616.31	1516.89
616.65	1509.64
617.00	1502.15
617.35	1494.66
617.70	1486.19
618.04	1477.68
618.39	1469.45
618.74	1461.82
619.08	1453.71
619.43	1446.25
619.78	1439.36
620.12	1432.05
620.47	1424.65
620.82	1416.44
621.16	1409.21
621.51	1401.54
621.85	1394.00
622.20	1385.54
622.55	1377.27
622.89	1369.59
623.24	1362.01
623.59	1354.87
623.93	1347.34
624.28	1340.16
624.62	1332.62
624.97	1325.60
625.32	1318.96
625.66	1311.88
626.01	1304.64
626.35	1297.06
626.70	1289.37
627.04	1281.74
627.39	1274.04
627.73	1266.53
628.08	1259.74
628.43	1252.31
628.77	1245.00
629.12	1237.38
629.46	1230.21
629.81	1222.86
630.15	1215.71
630.50	1208.43
630.84	1200.11
631.19	1192.30
631.53	1184.90
631.88	1177.33
632.22	1169.73
632.57	1162.44
632.91	1154.92
633.26	1147.63
633.60	1140.44
633.95	1133.44
634.29	1126.37
634.64	1119.78
634.98	1112.54
635.32	1105.44
635.67	1098.99
636.01	1092.47
636.36	1085.69
636.70	1079.14
637.05	1072.57
637.39	1066.07
637.73	1059.51
638.08	1053.80
638.42	1047.84
638.77	1041.35
639.11	1034.79
639.45	1028.52
639.80	1021.84
640.14	1015.51
640.49	1008.94
640.83	1002.69
641.17	996.37
641.52	990.07
641.86	983.68
642.20	977.87
642.55	971.63
642.89	965.13
643.23	958.54
643.58	952.90
643.92	946.78
644.26	940.69
644.61	934.71
644.95	928.70
645.29	921.97
645.64	915.11
645.98	908.82
646.32	903.01
646.66	896.96
647.01	891.25
647.35	885.56
647.69	879.79
648.04	874.27
648.38	868.60
648.72	862.72
649.06	856.62
649.41	850.69
649.75	844.65
650.09	838.68
650.43	832.90
650.78	826.75
651.12	820.79
651.46	815.12
651.80	809.35
652.14	804.03
652.49	798.71
652.83	793.61
653.17	787.90
653.51	782.19
653.85	776.75
654.20	771.12
654.54	765.21
654.88	759.48
655.22	753.63
655.56	747.93
655.90	742.40
656.25	737.13
656.59	731.81
656.93	726.72
657.27	721.63
657.61	716.23
657.95	711.10
658.29	706.10
658.64	700.92
658.98	695.66
659.32	690.22
659.66	685.12
660.00	679.82
660.34	674.95
660.68	670.09
661.02	665.14
661.36	660.46
661.70	655.89
662.05	651.53
662.39	647.18
662.73	642.74
663.07	638.37
663.41	633.95
663.75	629.47
664.09	624.95
664.43	620.57
664.77	616.45
665.11	612.24
665.45	608.14
665.79	604.11
666.13	599.99
666.47	595.90
666.81	591.76
667.15	587.71
667.49	583.82
667.83	580.06
668.17	576.11
668.51	572.09
668.85	568.12
669.19	564.37
669.53	560.51
669.87	556.65
670.21	552.97
670.55	549.43
670.89	546.06
671.23	542.67
671.57	539.21
671.91	535.69
672.25	532.25
672.58	528.73
672.92	525.36
673.26	522.24
673.60	519.13
673.94	516.05
674.28	513.17
674.62	510.23
674.96	507.14
675.30	504.21
675.64	501.33
675.97	498.58
676.31	495.71
676.65	492.83
676.99	490.17
677.33	487.30
677.67	484.50
678.01	481.45
678.34	478.53
678.68	475.65
679.02	472.88
679.36	470.15
679.70	467.50
680.04	464.70
680.37	461.85
680.71	459.10
681.05	456.50
681.39	453.77
681.73	451.18
682.06	448.71
682.40	446.21
682.74	443.71
683.08	441.24
683.42	438.66
683.75	436.23
684.09	433.72
684.43	431.30
684.77	428.85
685.10	426.55
685.44	424.21
685.78	422.01
686.12	419.75
686.45	417.48
686.79	415.10
687.13	412.96
687.46	410.80
687.80	408.68
688.14	406.48
688.48	404.45
688.81	402.16
689.15	399.97
689.49	397.89
689.82	395.82
690.16	393.67
690.50	391.71
690.83	389.73
691.17	387.78
691.51	385.90
691.84	384.05
692.18	382.09
692.52	380.17
692.85	378.19
693.19	376.32
693.52	374.53
693.86	372.82
694.20	371.06
694.53	369.27
694.87	367.38
695.21	365.64
695.54	363.87
695.88	362.18
696.21	360.44
696.55	358.72
696.88	357.05
697.22	355.46
697.56	353.90
697.89	352.25
698.23	350.63
698.56	349.02
698.90	347.41
699.23	345.77
699.57	344.23
699.90	342.74
700.24	341.23
700.58	339.71
700.91	338.21
701.25	336.75
701.58	335.43
701.92	334.11
702.25	332.69
702.59	331.31
702.92	329.98
703.26	328.71
703.59	327.48
703.93	326.30
704.26	325.07
704.60	323.75
704.93	322.55
705.26	321.28
705.60	320.13
705.93	319.00
706.27	318.02
706.60	316.93
706.94	315.80
707.27	314.67
707.61	313.60
707.94	312.56
708.27	311.52
708.61	310.41
708.94	309.42
709.28	308.47
709.61	307.56
709.94	306.60
710.28	305.62
710.61	304.64
710.95	303.57
711.28	302.65
711.61	301.72
711.95	300.80
712.28	299.87
712.61	298.88
712.95	297.95
713.28	297.09
713.61	296.23
713.95	295.38
714.28	294.56
714.61	293.71
714.95	292.90
715.28	292.04
715.61	291.19
715.95	290.34
716.28	289.49
716.61	288.66
716.95	287.88
717.28	287.13
717.61	286.34
717.94	285.62
718.28	284.83
718.61	284.17
718.94	283.46
719.27	282.83
719.61	282.21
719.94	281.58
720.27	280.86
720.60	280.19
720.94	279.58
721.27	278.99
721.60	278.40
721.93	277.81
722.27	277.23
722.60	276.72
722.93	276.14
723.26	275.58
723.59	275.03
723.93	274.49
724.26	273.95
724.59	273.39
724.92	272.85
725.25	272.34
725.59	271.79
725.92	271.31
726.25	270.80
726.58	270.28
726.91	269.76
727.24	269.31
727.57	268.84
727.91	268.35
728.24	267.89
728.57	267.40
728.90	266.97
729.23	266.48
729.56	266.03
729.89	265.58
730.22	265.11
730.55	264.63
730.89	264.17
731.22	263.73
731.55	263.33
731.88	262.93
732.21	262.50
732.54	262.03
732.87	261.58
733.20	261.17
733.53	260.79
733.86	260.43
734.19	259.99
734.52	259.60
734.85	259.27
735.18	258.84
735.51	258.49
735.84	258.10
736.17	257.74
736.50	257.33
736.83	257.10
737.16	256.76
737.49	256.38
737.82	256.06
738.15	255.72
738.48	255.38
738.81	255.02
739.14	254.70
739.47	254.44
739.80	254.14
740.13	253.81
740.46	253.50
740.79	253.13
741.12	252.82
741.45	252.51
741.78	252.13
742.11	251.87
742.44	251.52
742.77	251.22
743.10	250.95
743.43	250.66
743.75	250.26
744.08	250.15
744.41	249.88
744.74	249.60
745.07	249.35
745.40	249.07
745.73	248.82
746.06	248.55
746.39	248.28
746.71	248.01
747.04	247.76
747.37	247.49
747.70	247.28
748.03	247.03
748.36	246.81
748.68	246.60
749.01	246.34
749.34	246.13
749.67	245.85
750.00	245.61
750.33	245.42
750.65	245.20
750.98	244.85
751.31	244.61
751.64	244.38
751.97	244.20
752.29	244.00
752.62	243.77
752.95	243.56
753.28	243.32
753.60	243.11
753.93	242.97
754.26	242.79
754.59	242.56
754.91	242.35
755.24	242.16
755.57	241.98
755.90	241.82
756.22	241.62
756.55	241.46
756.88	241.28
757.20	241.03
757.53	240.85
757.86	240.69
758.19	240.58
758.51	240.45
758.84	240.23
759.17	240.06
759.49	239.87
759.82	239.79
760.15	239.63
760.47	239.49
760.80	239.27
761.13	239.15
761.45	239.01
761.78	238.86
762.11	238.74
762.43	238.57
762.76	238.43
763.08	238.31
763.41	238.18
763.74	238.05
764.06	237.96
764.39	237.81
764.71	237.66
765.04	237.50
765.37	237.34
765.69	237.21
766.02	237.11
766.34	237.00
766.67	236.83
767.00	236.73
767.32	236.66
767.65	236.61
767.97	236.47
768.30	236.35
768.62	236.22
768.95	236.06
769.27	235.98
769.60	235.87
769.92	235.75
770.25	235.64
770.57	235.52
770.90	235.43
771.22	235.33
771.55	235.24
771.87	235.16
772.20	235.06
772.52	235.07
772.85	235.07
773.17	234.96
773.50	234.88
773.82	234.79
774.15	234.64
774.47	234.49
774.80	234.42
775.12	234.34
775.45	234.29
775.77	234.20
776.09	234.11
776.42	234.02
776.74	233.97
777.07	233.87
777.39	233.80
777.72	233.74
778.04	233.69
778.36	233.60
778.69	233.52
779.01	233.50
779.33	233.34
779.66	233.19
779.98	233.12
780.31	233.04
780.63	233.03
780.95	233.00
781.28	232.96
781.60	232.86
781.92	232.80
782.25	232.74
782.57	232.73
782.89	232.67
783.22	232.61
783.54	232.54
783.86	232.52
784.19	232.46
784.51	232.42
784.83	232.37
785.16	232.33
785.48	232.29
785.80	232.20
786.12	232.17
786.45	232.09
786.77	232.04
787.09	231.99
787.42	231.87
787.74	231.84
788.06	231.78
788.38	231.75
788.71	231.71
789.03	231.65
789.35	231.61
789.67	231.54
789.99	231.51
790.32	231.45
790.64	231.37
790.96	231.38
791.28	231.31
791.61	231.24
791.93	231.19
792.25	231.14
792.57	231.18
792.89	231.12
793.21	231.09
793.54	231.06
793.86	230.98
794.18	230.98
794.50	230.92
794.82	230.86
795.14	230.85
795.47	230.82
795.79	230.81
796.11	230.73
796.43	230.69
796.75	230.62
797.07	230.62
797.39	230.63
797.71	230.56
798.04	230.53
798.36	230.52
798.68	230.48
799.00	230.44
799.32	230.37
799.64	230.39
799.96	230.33
800.28	230.34
800.60	230.31
800.92	230.25
801.24	230.19
801.56	230.16
801.89	230.15
802.21	230.10
802.53	230.05
802.85	230.05
803.17	230.07
803.49	230.07
803.81	230.02
804.13	229.96
804.45	229.91
804.77	229.87
805.09	229.81
805.41	229.78
805.73	229.74
806.05	229.68
806.37	229.60
806.69	229.59
807.01	229.53
807.33	229.54
807.65	229.49
807.97	229.52
808.28	229.50
808.60	229.41
808.92	229.39
809.24	229.44
809.56	229.39
809.88	229.30
810.20	229.27
810.52	229.26
810.84	229.25
811.16	229.22
811.48	229.22
811.80	229.26
812.12	229.23
812.43	229.25
812.75	229.22
813.07	229.22
813.39	229.23
813.71	229.22
814.03	229.15
814.35	229.19
814.67	229.11
814.98	229.10
815.30	229.11
815.62	229.06
815.94	228.96
816.26	229.01
816.58	229.02
816.89	229.01
817.21	228.98
817.53	228.95
817.85	228.95
818.17	228.94
818.48	228.88
818.80	228.89
819.12	228.85
819.44	228.83
819.76	228.80
820.07	228.77
820.39	228.73
820.71	228.75
821.03	228.73
821.34	228.72
821.66	228.72
821.98	228.72
822.30	228.71
822.61	228.80
822.93	228.72
823.25	228.69
823.57	228.66
823.88	228.69
824.20	228.67
824.52	228.67
824.83	228.61
825.15	228.62
825.47	228.61
825.79	228.61
826.10	228.61
826.42	228.59
826.74	228.58
827.05	228.58
827.37	228.60
827.69	228.52
828.00	228.52
828.32	228.49
828.64	228.46
828.95	228.51
829.27	228.47
829.58	228.47
829.90	228.48
830.22	228.48
830.53	228.42
830.85	228.44
831.17	228.38
831.48	228.38
831.80	228.34
832.11	228.34
832.43	228.33
832.75	228.31
833.06	228.35
833.38	228.30
833.69	228.30
834.01	228.28
834.32	228.30
834.64	228.26
834.96	228.22
835.27	228.23
835.59	228.19
835.90	228.16
836.22	228.12
836.53	228.09
836.85	228.07
837.16	228.15
837.48	228.11
837.79	228.14
838.11	228.16
838.42	228.15
838.74	228.14
839.05	228.12
839.37	228.10
839.68	228.06
840.00	228.04
840.31	228.03
840.63	228.01
840.94	227.98
841.26	228.00
841.57	228.03
841.88	228.01
842.20	227.98
842.51	227.97
842.83	227.99
843.14	228.08
843.46	228.08
843.77	228.01
844.08	228.02
844.40	228.02
844.71	228.02
845.03	228.00
845.34	227.97
845.65	227.92
845.97	227.89
846.28	227.88
846.60	227.90
846.91	227.87
847.22	227.89
847.54	227.89
847.85	227.87
848.16	227.84
848.48	227.80
848.79	227.84
849.10	227.82
849.42	227.81
849.73	227.72
850.04	227.71
850.36	227.67
850.67	227.68
850.98	227.64
851.30	227.60
851.61	227.58
851.92	227.55
852.23	227.60
852.55	227.62
852.86	227.60
853.17	227.57
853.49	227.56
853.80	227.55
854.11	227.57
854.42	227.58
854.74	227.58
855.05	227.57
855.36	227.51
855.67	227.54
855.99	227.55
856.30	227.64
856.61	227.64
856.92	227.64
857.23	227.64
857.55	227.64
857.86	227.65
858.17	227.66
858.48	227.68
858.79	227.66
859.11	227.68
859.42	227.69
859.73	227.72
860.04	227.71
860.35	227.67
860.66	227.65
860.98	227.64
861.29	227.68
861.60	227.70
861.91	227.75
862.22	227.68
862.53	227.61
862.84	227.52
863.16	227.54
863.47	227.52
863.78	227.51
864.09	227.50
864.40	227.48
864.71	227.49
865.02	227.46
865.33	227.47
865.64	227.45
865.95	227.43
866.27	227.48
866.58	227.47
866.89	227.51
867.20	227.50
867.51	227.48
867.82	227.46
868.13	227.47
868.44	227.42
868.75	227.45
869.06	227.49
869.37	227.51
869.68	227.47
869.99	227.51
870.30	227.51
870.61	227.53
870.92	227.57
871.23	227.57
871.54	227.61
871.85	227.64
872.16	227.65
872.47	227.65
872.78	227.62
873.09	227.64
873.40	227.62
873.71	227.63
874.02	227.62
874.33	227.62
874.64	227.60
874.95	227.61
875.26	227.60
875.56	227.58
875.87	227.59
876.18	227.57
876.49	227.69
876.80	227.69
877.11	227.68
877.42	227.68
877.73	227.68
878.04	227.68
878.35	227.69
878.66	227.68
878.96	227.71
879.27	227.70
879.58	227.70
879.89	227.69
880.20	227.73
880.51	227.73
880.82	227.75
881.12	227.77
881.43	227.78
881.74	227.77
882.05	227.79
882.36	227.79
882.67	227.82
882.97	227.69
883.28	227.69
883.59	227.70
883.90	227.70
884.21	227.70
884.51	227.67
884.82	227.60
885.13	227.62
885.44	227.61
885.74	227.58
886.05	227.57
886.36	227.56
886.67	227.50
886.98	227.56
887.28	227.54
887.59	227.53
887.90	227.52
888.20	227.53
888.51	227.55
888.82	227.52
889.13	227.50
889.43	227.58
889.74	227.55
890.05	227.51
890.35	227.49
890.66	227.49
890.97	227.49
891.28	227.51
891.58	227.50
891.89	227.50
892.20	227.52
892.50	227.52
892.81	227.54
893.12	227.56
893.42	227.50
893.73	227.48
894.04	227.48
894.34	227.48
894.65	227.48
894.95	227.45
895.26	227.45
895.57	227.50
895.87	227.41
896.18	227.43
896.48	227.42
896.79	227.46
897.10	227.47
897.40	227.45
897.71	227.47
898.01	227.45
898.32	227.44
898.63	227.41
898.93	227.42
899.24	227.43
899.54	227.42
899.85	227.43
900.15	227.45
900.46	227.45
900.76	227.45
901.07	227.41
901.38	227.41
901.68	227.44
901.99	227.40
902.29	227.41
902.60	227.39
902.90	227.38
903.21	227.37
903.51	227.36
903.82	227.41
904.12	227.38
904.43	227.38
904.73	227.36
905.03	227.39
905.34	227.51
905.64	227.51
905.95	227.53
906.25	227.50
906.56	227.47
906.86	227.46
907.17	227.47
907.47	227.51
907.77	227.49
908.08	227.45
908.38	227.46
908.69	227.47
908.99	227.49
909.30	227.51
909.60	227.51
909.90	227.51
910.21	227.48
910.51	227.48
910.81	227.48
911.12	227.51
911.42	227.49
911.73	227.39
912.03	227.38
912.33	227.39
912.64	227.42
912.94	227.43
913.24	227.43
913.55	227.41
913.85	227.38
914.15	227.42
914.46	227.41
914.76	227.42
915.06	227.37
915.37	227.36
915.67	227.36
915.97	227.33
916.27	227.30
916.58	227.32
916.88	227.33
917.18	227.28
917.49	227.31
917.79	227.32
918.09	227.29
918.39	227.31
918.70	227.29
919.00	227.29
919.30	227.35
919.60	227.35
919.91	227.37
920.21	227.37
920.51	227.35
920.81	227.40
921.12	227.39
921.42	227.38
921.72	227.37
922.02	227.38
922.32	227.39
922.63	227.41
922.93	227.44
923.23	227.41
923.53	227.44
923.83	227.39
924.13	227.40
924.44	227.39
924.74	227.44
925.04	227.44
925.34	227.41
925.64	227.34
925.94	227.33
926.24	227.38
926.55	227.39
926.85	227.40
927.15	227.37
927.45	227.36
927.75	227.39
928.05	227.39
928.35	227.41
928.65	227.42
928.95	227.41
929.26	227.36
929.56	227.40
929.86	227.40
930.16	227.37
930.46	227.37
930.76	227.36
931.06	227.30
931.36	227.28
931.66	227.29
931.96	227.34
932.26	227.31
932.56	227.24
932.86	227.23
933.16	227.20
933.46	227.19
933.76	227.19
934.06	227.16
934.36	227.18
934.66	227.13
934.96	227.11
935.26	227.10
935.56	227.10
935.86	227.06
936.16	227.07
936.46	227.05
936.76	227.03
937.06	227.00
937.36	226.98
937.66	226.98
937.96	226.96
938.26	226.92
938.56	226.93
938.86	226.96
939.16	226.97
939.46	226.97
939.76	226.97
940.06	226.96
940.35	226.96
940.65	226.93
940.95	226.95
941.25	226.90
941.55	226.93
941.85	226.94
942.15	226.99
942.45	227.03
942.75	227.05
943.04	227.07
943.34	227.11
943.64	227.13
943.94	227.13
944.24	227.16
944.54	227.17
944.84	227.19
945.13	227.15
945.43	227.15
945.73	227.15
946.03	227.16
946.33	227.14
946.62	227.15
946.92	227.15
947.22	227.16
947.52	227.20
947.82	227.19
948.11	227.17
948.41	227.14
948.71	227.08
949.01	227.07
949.31	227.06
949.60	227.03
949.90	227.04
950.20	227.03
950.50	227.03
950.79	226.99
951.09	226.97
951.39	226.98
951.69	226.97
951.98	226.98
952.28	226.97
952.58	226.97
952.87	226.97
953.17	226.96
953.47	226.97
953.76	226.98
954.06	226.96
954.36	226.95
954.66	226.92
954.95	226.95
955.25	226.97
955.55	226.97
955.84	226.97
956.14	226.97
956.44	227.00
956.73	226.97
957.03	227.00
957.32	227.01
957.62	227.00
957.92	227.02
958.21	227.00
958.51	227.11
958.81	227.10
959.10	227.11
959.40	227.11
959.69	227.10
959.99	227.11
960.29	227.06
960.58	227.05
960.88	227.12
961.17	227.10
961.47	227.10
961.76	227.07
962.06	227.05
962.36	227.02
962.65	226.98
962.95	226.97
963.24	226.97
963.54	226.92
963.83	226.94
964.13	226.90
964.42	226.89
964.72	226.80
965.01	226.79
965.31	226.75
965.60	226.73
965.90	226.79
966.19	226.74
966.49	226.79
966.78	226.79
967.08	226.74
967.37	226.75
967.67	226.71
967.96	226.74
968.26	226.77
968.55	226.79
968.85	226.80
969.14	226.80
969.43	226.80
969.73	226.83
970.02	226.81
970.32	226.83
970.61	226.81
970.91	226.78
971.20	226.84
971.49	226.86
971.79	226.89
972.08	226.82
972.38	226.86
972.67	226.81
972.96	226.84
973.26	226.86
973.55	226.89
973.85	226.91
974.14	226.88
974.43	226.85
974.73	226.84
975.02	226.81
975.31	226.80
975.61	226.81
975.90	226.80
976.19	226.78
976.49	226.78
976.78	226.83
977.07	226.86
977.37	226.83
977.66	226.86
977.95	226.85
978.24	226.88
978.54	226.89
978.83	226.91
979.12	226.88
979.42	226.88
979.71	226.86
980.00	226.85
980.29	226.90
980.59	226.93
980.88	226.96
981.17	226.98
981.46	226.98
981.76	226.98
982.05	227.01
982.34	227.03
982.63	227.04
982.93	227.02
983.22	227.05
983.51	227.06
983.80	227.06
984.09	227.05
984.39	227.02
984.68	226.98
984.97	227.01
985.26	227.02
985.55	227.04
985.85	227.00
986.14	227.02
986.43	227.01
986.72	226.99
987.01	226.96
987.30	226.99
987.59	226.99
987.89	226.99
988.18	226.98
988.47	226.96
988.76	226.94
989.05	226.95
989.34	226.92
989.63	226.94
989.92	226.93
990.22	226.91
990.51	226.90
990.80	226.93
991.09	226.95
991.38	226.97
991.67	226.97
991.96	226.96
992.25	226.95
992.54	226.93
992.83	226.92
993.12	226.91
993.41	226.89
993.70	226.95
993.99	226.96
994.28	226.96
994.58	226.99
994.87	226.97
995.16	226.94
995.45	226.94
995.74	226.89
996.03	226.90
996.32	226.93
996.61	226.95
996.90	226.92
997.19	226.90
997.48	226.89
997.77	226.86
998.06	226.87
998.34	226.89
998.63	226.91
998.92	226.94
999.21	226.96
999.50	226.96
999.79	226.93
1000.08	226.92
1000.37	226.91
1000.66	226.91
1000.95	226.94
1001.24	226.97
1001.53	226.97
1001.82	226.97
1002.11	226.96
1002.40	226.96
1002.68	226.99
1002.97	227.08
1003.26	227.07
1003.55	227.08
1003.84	227.09
1004.13	227.15
1004.42	227.13
1004.71	227.15
1004.99	227.15
1005.28	227.15
1005.57	227.15
1005.86	227.13
1006.15	227.14
1006.44	227.13
1006.72	227.15
1007.01	227.12
1007.30	227.10
1007.59	227.08
1007.88	227.07
1008.17	227.08
1008.45	227.08
1008.74	227.05
1009.03	226.98
1009.32	226.97
1009.60	226.94
1009.89	226.93
1010.18	226.85
1010.47	226.85
1010.76	226.83
1011.04	226.85
1011.33	226.86
1011.62	226.88
1011.91	226.87
1012.19	226.88
1012.48	226.90
1012.77	226.87
1013.05	226.94
1013.34	226.96
1013.63	226.98
1013.92	227.00
1014.20	226.98
1014.49	226.95
1014.78	226.95
1015.06	226.92
1015.35	226.95
1015.64	226.95
1015.92	226.99
1016.21	226.99
1016.50	227.00
1016.78	226.99
1017.07	226.95
1017.36	226.96
1017.64	226.93
1017.93	226.95
1018.22	226.94
1018.50	226.91
1018.79	226.91
1019.08	226.85
1019.36	226.85
1019.65	226.83
1019.93	226.85
1020.22	226.89
1020.51	226.97
1020.79	226.94
1021.08	227.00
1021.36	226.57
1021.65	226.65
1021.94	226.53
1022.22	227.16
1022.51	226.46
1022.79	227.24
1023.08	227.43
1023.36	228.39
1023.65	226.18
>>>>>End Processed Spectral Data<<<<<
