SpectraSuite Data File
++++++++++++++++++++++++++++++++++++
Date: Fri Feb 01 15:51:04 EST 2013
User: group
Dark Spectrum Present: No
Reference Spectrum Present: No
Number of Sampled Component Spectra: 1
Spectrometers: USB2E7196
Integration Time (usec): 35000 (USB2E7196)
Spectra Averaged: 100 (USB2E7196)
Boxcar Smoothing: 10 (USB2E7196)
Correct for Electrical Dark: No (USB2E7196)
Strobe/Lamp Enabled: No (USB2E7196)
Correct for Detector Non-linearity: No (USB2E7196)
Correct for Stray Light: No (USB2E7196)
Number of Pixels in Processed Spectrum: 2048
>>>>>Begin Processed Spectral Data<<<<<
339.09	0.00
339.48	214.94
339.86	216.21
340.24	218.69
340.63	219.43
341.01	222.79
341.39	222.04
341.78	223.63
342.16	224.29
342.54	225.71
342.93	213.55
343.31	224.33
343.69	224.88
344.07	225.37
344.46	225.75
344.84	226.09
345.22	226.29
345.60	226.51
345.99	226.67
346.37	226.82
346.75	226.85
347.13	226.92
347.52	226.97
347.90	227.03
348.28	227.04
348.66	227.04
349.05	227.04
349.43	227.05
349.81	227.07
350.19	227.09
350.57	227.11
350.96	227.15
351.34	227.23
351.72	227.28
352.10	227.34
352.48	227.43
352.87	227.47
353.25	227.52
353.63	227.58
354.01	227.64
354.39	227.70
354.77	227.78
355.15	227.87
355.54	227.92
355.92	227.94
356.30	228.02
356.68	228.15
357.06	228.18
357.44	228.18
357.82	228.25
358.20	228.34
358.58	228.39
358.97	228.46
359.35	228.53
359.73	228.62
360.11	228.67
360.49	228.69
360.87	228.77
361.25	228.84
361.63	228.93
362.01	228.98
362.39	228.98
362.77	229.01
363.15	229.03
363.53	229.05
363.91	229.07
364.29	229.10
364.67	229.03
365.05	229.07
365.43	229.16
365.81	229.15
366.19	229.15
366.57	229.17
366.95	229.15
367.33	229.09
367.71	229.07
368.09	229.08
368.47	229.06
368.85	229.02
369.23	228.99
369.61	228.93
369.99	228.92
370.37	228.92
370.75	228.94
371.13	228.87
371.51	228.84
371.89	228.81
372.27	228.74
372.65	228.70
373.03	228.67
373.41	228.60
373.78	228.56
374.16	228.52
374.54	228.43
374.92	228.38
375.30	228.35
375.68	228.28
376.06	228.21
376.44	228.17
376.82	228.12
377.19	228.04
377.57	227.98
377.95	227.88
378.33	227.81
378.71	227.71
379.09	227.65
379.47	227.58
379.84	227.52
380.22	227.45
380.60	227.38
380.98	227.28
381.36	227.20
381.73	227.13
382.11	227.06
382.49	227.00
382.87	226.94
383.25	226.88
383.62	226.94
384.00	226.88
384.38	226.82
384.76	226.78
385.13	226.78
385.51	226.74
385.89	226.69
386.27	226.66
386.64	226.66
387.02	226.63
387.40	226.62
387.78	226.59
388.15	226.56
388.53	226.56
388.91	226.53
389.29	226.50
389.66	226.50
390.04	226.46
390.42	226.49
390.79	226.48
391.17	226.47
391.55	226.38
391.92	226.36
392.30	226.36
392.68	226.37
393.05	226.34
393.43	226.36
393.81	226.38
394.18	226.37
394.56	226.34
394.94	226.34
395.31	226.35
395.69	226.41
396.06	226.46
396.44	226.49
396.82	226.55
397.19	226.63
397.57	226.64
397.95	226.71
398.32	226.74
398.70	226.79
399.07	226.87
399.45	226.92
399.82	227.00
400.20	227.05
400.58	227.11
400.95	227.16
401.33	227.23
401.70	227.36
402.08	227.44
402.45	227.57
402.83	227.71
403.20	227.81
403.58	227.90
403.95	228.03
404.33	228.12
404.71	228.25
405.08	228.45
405.46	228.59
405.83	228.72
406.21	228.86
406.58	229.05
406.96	229.20
407.33	229.36
407.70	229.54
408.08	229.81
408.45	230.06
408.83	230.29
409.20	230.52
409.58	230.72
409.95	230.99
410.33	231.23
410.70	231.45
411.08	231.74
411.45	232.02
411.82	232.31
412.20	232.67
412.57	233.05
412.95	233.32
413.32	233.75
413.69	234.19
414.07	234.62
414.44	235.05
414.82	235.50
415.19	236.06
415.56	236.63
415.94	237.16
416.31	237.78
416.68	238.40
417.06	239.09
417.43	239.78
417.81	240.56
418.18	241.35
418.55	242.22
418.93	243.09
419.30	244.04
419.67	245.00
420.04	245.98
420.42	246.98
420.79	248.18
421.16	249.32
421.54	250.51
421.91	251.73
422.28	252.99
422.66	254.35
423.03	255.66
423.40	256.96
423.77	258.40
424.15	259.84
424.52	261.36
424.89	262.95
425.26	264.49
425.64	265.94
426.01	267.55
426.38	269.23
426.75	270.89
427.13	272.58
427.50	274.36
427.87	276.24
428.24	278.09
428.61	279.81
428.99	281.78
429.36	283.87
429.73	285.95
430.10	288.01
430.47	290.09
430.85	292.18
431.22	294.43
431.59	296.81
431.96	299.04
432.33	301.53
432.70	303.95
433.08	306.76
433.45	309.39
433.82	311.99
434.19	314.87
434.56	317.71
434.93	320.38
435.30	323.04
435.68	325.90
436.05	328.73
436.42	331.54
436.79	334.05
437.16	336.71
437.53	339.50
437.90	342.24
438.27	344.94
438.64	347.81
439.01	350.39
439.38	352.61
439.75	354.77
440.13	357.21
440.50	359.51
440.87	361.35
441.24	363.26
441.61	365.40
441.98	366.87
442.35	368.65
442.72	370.50
443.09	372.29
443.46	373.30
443.83	373.87
444.20	374.39
444.57	375.21
444.94	375.54
445.31	375.91
445.68	376.30
446.05	376.37
446.42	375.94
446.79	375.57
447.16	375.08
447.53	374.73
447.90	373.59
448.27	372.47
448.64	370.88
449.01	369.75
449.37	367.76
449.74	365.83
450.11	363.58
450.48	361.12
450.85	358.56
451.22	356.40
451.59	354.40
451.96	352.42
452.33	349.79
452.70	347.43
453.07	344.60
453.43	341.71
453.80	338.96
454.17	336.31
454.54	333.73
454.91	331.06
455.28	328.42
455.65	325.92
456.02	323.43
456.38	321.27
456.75	318.63
457.12	316.42
457.49	314.19
457.86	312.00
458.23	310.14
458.59	308.12
458.96	306.06
459.33	304.22
459.70	302.35
460.07	300.86
460.43	299.11
460.80	297.50
461.17	296.04
461.54	294.56
461.91	293.14
462.27	291.72
462.64	290.47
463.01	289.12
463.38	287.83
463.74	286.47
464.11	285.34
464.48	284.30
464.85	283.16
465.21	282.33
465.58	281.45
465.95	280.38
466.32	279.49
466.68	278.55
467.05	277.65
467.42	276.79
467.78	275.87
468.15	274.98
468.52	274.31
468.88	273.48
469.25	272.70
469.62	272.07
469.98	271.34
470.35	270.68
470.72	270.09
471.08	269.44
471.45	268.93
471.82	268.35
472.18	267.78
472.55	267.37
472.92	266.84
473.28	266.34
473.65	265.91
474.02	265.42
474.38	265.08
474.75	264.75
475.11	264.38
475.48	264.13
475.85	263.89
476.21	263.66
476.58	263.43
476.94	263.31
477.31	263.14
477.67	263.03
478.04	262.91
478.41	262.83
478.77	262.90
479.14	262.83
479.50	262.86
479.87	262.91
480.23	262.98
480.60	263.06
480.96	263.16
481.33	263.32
481.69	263.55
482.06	263.74
482.42	263.95
482.79	264.22
483.15	264.51
483.52	264.93
483.88	265.29
484.25	265.73
484.61	266.11
484.98	266.61
485.34	267.15
485.71	267.75
486.07	268.38
486.44	268.89
486.80	269.56
487.17	270.29
487.53	271.11
487.90	271.97
488.26	272.89
488.62	273.87
488.99	274.87
489.35	275.88
489.72	277.02
490.08	278.22
490.44	279.44
490.81	280.79
491.17	282.15
491.54	283.64
491.90	285.13
492.26	286.74
492.63	288.45
492.99	290.24
493.36	292.12
493.72	294.13
494.08	296.30
494.45	298.62
494.81	301.00
495.17	303.43
495.54	305.96
495.90	308.64
496.26	311.46
496.63	314.40
496.99	317.54
497.35	320.77
497.72	324.19
498.08	327.74
498.44	331.43
498.80	335.38
499.17	339.35
499.53	343.59
499.89	347.96
500.26	352.50
500.62	357.19
500.98	362.16
501.34	367.27
501.71	372.59
502.07	378.01
502.43	383.63
502.79	389.49
503.16	395.63
503.52	401.94
503.88	408.38
504.24	415.00
504.60	421.94
504.97	429.09
505.33	436.41
505.69	444.14
506.05	451.99
506.41	459.86
506.78	468.07
507.14	476.50
507.50	485.28
507.86	494.32
508.22	503.53
508.59	512.79
508.95	522.38
509.31	532.17
509.67	542.31
510.03	552.56
510.39	563.12
510.75	573.85
511.12	584.81
511.48	596.01
511.84	607.46
512.20	618.96
512.56	630.89
512.92	643.12
513.28	655.43
513.64	667.92
514.00	680.59
514.37	693.65
514.73	706.69
515.09	719.73
515.45	733.06
515.81	746.65
516.17	760.66
516.53	774.74
516.89	788.93
517.25	803.05
517.61	817.52
517.97	831.94
518.33	846.40
518.69	861.10
519.05	876.21
519.41	891.38
519.77	906.88
520.13	922.36
520.49	937.68
520.85	953.13
521.21	968.80
521.57	985.03
521.93	1000.69
522.29	1017.11
522.65	1033.33
523.01	1049.45
523.37	1065.41
523.73	1081.52
524.09	1097.56
524.45	1113.82
524.81	1130.47
525.17	1147.36
525.53	1164.24
525.89	1181.03
526.25	1197.84
526.61	1214.17
526.97	1230.92
527.33	1247.46
527.68	1264.05
528.04	1280.63
528.40	1297.12
528.76	1314.16
529.12	1330.72
529.48	1347.59
529.84	1363.56
530.20	1380.20
530.56	1397.25
530.91	1414.74
531.27	1431.48
531.63	1447.98
531.99	1464.51
532.35	1480.41
532.71	1496.20
533.07	1512.49
533.42	1528.40
533.78	1544.54
534.14	1560.76
534.50	1576.15
534.86	1592.01
535.21	1607.20
535.57	1622.99
535.93	1638.56
536.29	1653.24
536.65	1668.32
537.00	1683.00
537.36	1698.33
537.72	1712.91
538.08	1727.25
538.44	1740.87
538.79	1754.66
539.15	1768.37
539.51	1782.19
539.87	1796.65
540.22	1810.30
540.58	1824.06
540.94	1837.44
541.29	1850.24
541.65	1863.01
542.01	1876.14
542.37	1888.34
542.72	1900.76
543.08	1912.48
543.44	1924.86
543.79	1936.15
544.15	1947.14
544.51	1958.72
544.87	1969.55
545.22	1980.16
545.58	1990.38
545.94	2000.22
546.29	2010.10
546.65	2019.92
547.01	2029.07
547.36	2037.71
547.72	2046.27
548.07	2054.05
548.43	2062.31
548.79	2070.32
549.14	2077.74
549.50	2085.05
549.86	2092.81
550.21	2100.00
550.57	2107.24
550.92	2113.67
551.28	2120.64
551.64	2127.71
551.99	2134.27
552.35	2140.47
552.70	2146.72
553.06	2152.75
553.41	2159.07
553.77	2165.10
554.13	2171.15
554.48	2177.40
554.84	2182.88
555.19	2188.17
555.55	2193.31
555.90	2197.61
556.26	2202.55
556.61	2207.57
556.97	2211.93
557.32	2216.01
557.68	2220.17
558.03	2224.59
558.39	2228.43
558.74	2233.27
559.10	2237.08
559.45	2240.84
559.81	2245.18
560.16	2249.07
560.52	2252.22
560.87	2255.61
561.23	2258.41
561.58	2261.28
561.94	2263.77
562.29	2266.12
562.64	2268.81
563.00	2271.33
563.35	2275.00
563.71	2278.14
564.06	2281.11
564.42	2283.84
564.77	2286.37
565.12	2288.71
565.48	2290.40
565.83	2292.29
566.19	2293.49
566.54	2294.37
566.89	2295.25
567.25	2295.74
567.60	2296.93
567.96	2298.63
568.31	2299.59
568.66	2300.66
569.02	2301.25
569.37	2301.40
569.72	2302.30
570.08	2302.35
570.43	2302.52
570.78	2301.77
571.14	2300.09
571.49	2298.73
571.84	2298.45
572.20	2297.26
572.55	2296.18
572.90	2294.67
573.26	2293.15
573.61	2291.37
573.96	2289.56
574.31	2286.66
574.67	2283.79
575.02	2280.21
575.37	2276.72
575.72	2272.84
576.08	2269.50
576.43	2266.21
576.78	2262.59
577.13	2259.31
577.49	2256.16
577.84	2252.56
578.19	2249.00
578.54	2245.47
578.90	2241.15
579.25	2235.64
579.60	2230.75
579.95	2225.82
580.30	2220.85
580.66	2215.64
581.01	2210.77
581.36	2205.88
581.71	2201.81
582.06	2197.24
582.42	2192.74
582.77	2187.57
583.12	2182.92
583.47	2178.10
583.82	2173.12
584.17	2167.89
584.53	2162.37
584.88	2156.79
585.23	2151.12
585.58	2145.50
585.93	2139.96
586.28	2135.24
586.63	2130.11
586.98	2124.92
587.34	2120.13
587.69	2115.13
588.04	2109.91
588.39	2104.30
588.74	2097.77
589.09	2091.52
589.44	2084.78
589.79	2078.90
590.14	2073.40
590.49	2066.87
590.84	2060.60
591.19	2054.61
591.54	2048.04
591.89	2040.68
592.25	2033.80
592.60	2026.50
592.95	2018.87
593.30	2011.53
593.65	2004.00
594.00	1996.99
594.35	1989.85
594.70	1981.80
595.05	1974.60
595.40	1967.43
595.75	1959.80
596.10	1953.69
596.45	1946.87
596.80	1940.66
597.15	1933.96
597.50	1926.69
597.85	1920.39
598.19	1913.61
598.54	1906.38
598.89	1899.97
599.24	1894.06
599.59	1887.42
599.94	1881.25
600.29	1875.07
600.64	1868.56
600.99	1861.11
601.34	1854.39
601.69	1847.42
602.04	1840.53
602.39	1833.27
602.74	1826.46
603.08	1819.69
603.43	1812.96
603.78	1805.75
604.13	1798.55
604.48	1791.27
604.83	1784.45
605.18	1777.33
605.53	1769.24
605.87	1761.24
606.22	1753.92
606.57	1746.07
606.92	1738.74
607.27	1731.54
607.62	1724.39
607.96	1717.02
608.31	1710.33
608.66	1702.65
609.01	1695.07
609.36	1687.43
609.70	1679.42
610.05	1671.29
610.40	1663.63
610.75	1655.34
611.10	1647.64
611.44	1639.23
611.79	1631.18
612.14	1622.48
612.49	1613.41
612.83	1605.13
613.18	1597.00
613.53	1588.92
613.88	1580.14
614.22	1571.89
614.57	1563.30
614.92	1555.41
615.27	1547.88
615.61	1539.56
615.96	1531.38
616.31	1523.76
616.65	1516.41
617.00	1508.75
617.35	1501.08
617.70	1492.79
618.04	1484.17
618.39	1476.01
618.74	1468.45
619.08	1460.13
619.43	1452.61
619.78	1445.67
620.12	1438.38
620.47	1430.90
620.82	1422.60
621.16	1415.40
621.51	1407.76
621.85	1400.21
622.20	1391.60
622.55	1383.22
622.89	1375.40
623.24	1367.87
623.59	1360.51
623.93	1353.10
624.28	1345.92
624.62	1338.39
624.97	1331.11
625.32	1324.40
625.66	1317.38
626.01	1310.13
626.35	1302.64
626.70	1294.77
627.04	1287.03
627.39	1279.38
627.73	1271.92
628.08	1265.19
628.43	1257.83
628.77	1250.53
629.12	1242.95
629.46	1235.85
629.81	1228.53
630.15	1221.28
630.50	1213.85
630.84	1205.67
631.19	1197.71
631.53	1190.19
631.88	1182.63
632.22	1174.99
632.57	1167.74
632.91	1160.18
633.26	1152.82
633.60	1145.53
633.95	1138.57
634.29	1131.54
634.64	1124.80
634.98	1117.52
635.32	1110.29
635.67	1103.70
636.01	1096.96
636.36	1090.11
636.70	1083.63
637.05	1077.03
637.39	1070.50
637.73	1064.02
638.08	1058.01
638.42	1052.02
638.77	1045.52
639.11	1038.85
639.45	1032.61
639.80	1025.94
640.14	1019.47
640.49	1012.98
640.83	1006.61
641.17	1000.31
641.52	993.89
641.86	987.52
642.20	981.62
642.55	975.29
642.89	968.77
643.23	962.30
643.58	956.58
643.92	950.22
644.26	944.11
644.61	938.11
644.95	932.08
645.29	925.58
645.64	918.83
645.98	912.51
646.32	906.78
646.66	900.71
647.01	894.93
647.35	889.26
647.69	883.44
648.04	877.93
648.38	872.14
648.72	866.21
649.06	860.12
649.41	854.27
649.75	848.29
650.09	842.37
650.43	836.54
650.78	830.29
651.12	824.43
651.46	818.75
651.80	813.07
652.14	807.68
652.49	802.27
652.83	797.10
653.17	791.39
653.51	785.67
653.85	780.31
654.20	774.62
654.54	768.63
654.88	762.79
655.22	756.90
655.56	751.27
655.90	745.84
656.25	740.62
656.59	735.26
656.93	730.21
657.27	725.06
657.61	719.66
657.95	714.57
658.29	709.46
658.64	704.21
658.98	698.86
659.32	693.37
659.66	688.15
660.00	682.78
660.34	677.86
660.68	672.90
661.02	667.77
661.36	663.06
661.70	658.56
662.05	654.23
662.39	649.84
662.73	645.37
663.07	640.95
663.41	636.44
663.75	631.94
664.09	627.34
664.43	622.91
664.77	618.78
665.11	614.49
665.45	610.39
665.79	606.25
666.13	602.12
666.47	598.04
666.81	593.88
667.15	589.79
667.49	585.89
667.83	582.11
668.17	578.22
668.51	574.16
668.85	570.10
669.19	566.27
669.53	562.48
669.87	558.52
670.21	554.83
670.55	551.25
670.89	547.81
671.23	544.41
671.57	540.96
671.91	537.43
672.25	533.98
672.58	530.47
672.92	527.11
673.26	523.92
673.60	520.76
673.94	517.63
674.28	514.74
674.62	511.72
674.96	508.60
675.30	505.66
675.64	502.66
675.97	499.92
676.31	497.08
676.65	494.19
676.99	491.55
677.33	488.71
677.67	485.87
678.01	482.86
678.34	479.92
678.68	477.06
679.02	474.24
679.36	471.54
679.70	468.84
680.04	466.06
680.37	463.23
680.71	460.45
681.05	457.83
681.39	455.09
681.73	452.46
682.06	449.95
682.40	447.41
682.74	444.94
683.08	442.39
683.42	439.73
683.75	437.19
684.09	434.59
684.43	432.15
684.77	429.70
685.10	427.33
685.44	424.98
685.78	422.68
686.12	420.42
686.45	418.13
686.79	415.86
687.13	413.71
687.46	411.57
687.80	409.44
688.14	407.27
688.48	405.21
688.81	403.02
689.15	400.83
689.49	398.65
689.82	396.58
690.16	394.52
690.50	392.61
690.83	390.70
691.17	388.79
691.51	386.84
691.84	385.01
692.18	383.11
692.52	381.12
692.85	379.15
693.19	377.29
693.52	375.47
693.86	373.66
694.20	371.85
694.53	370.01
694.87	368.13
695.21	366.35
695.54	364.52
695.88	362.80
696.21	361.08
696.55	359.45
696.88	357.77
697.22	356.13
697.56	354.49
697.89	352.80
698.23	351.15
698.56	349.53
698.90	347.92
699.23	346.24
699.57	344.72
699.90	343.23
700.24	341.63
700.58	340.04
700.91	338.50
701.25	337.07
701.58	335.68
701.92	334.37
702.25	333.00
702.59	331.68
702.92	330.34
703.26	329.04
703.59	327.78
703.93	326.63
704.26	325.34
704.60	324.03
704.93	322.79
705.26	321.57
705.60	320.42
705.93	319.25
706.27	318.20
706.60	317.12
706.94	316.04
707.27	314.96
707.61	313.94
707.94	312.90
708.27	311.78
708.61	310.71
708.94	309.70
709.28	308.71
709.61	307.69
709.94	306.75
710.28	305.73
710.61	304.72
710.95	303.60
711.28	302.68
711.61	301.71
711.95	300.82
712.28	299.84
712.61	298.85
712.95	297.91
713.28	297.07
713.61	296.18
713.95	295.27
714.28	294.47
714.61	293.56
714.95	292.73
715.28	291.87
715.61	290.98
715.95	290.10
716.28	289.25
716.61	288.41
716.95	287.60
717.28	286.86
717.61	286.10
717.94	285.36
718.28	284.56
718.61	283.86
718.94	283.14
719.27	282.50
719.61	281.85
719.94	281.17
720.27	280.38
720.60	279.72
720.94	279.10
721.27	278.48
721.60	277.94
721.93	277.33
722.27	276.79
722.60	276.25
722.93	275.69
723.26	275.13
723.59	274.61
723.93	274.08
724.26	273.51
724.59	272.91
724.92	272.39
725.25	271.90
725.59	271.35
725.92	270.85
726.25	270.34
726.58	269.84
726.91	269.39
727.24	268.98
727.57	268.52
727.91	268.00
728.24	267.53
728.57	267.02
728.90	266.59
729.23	266.10
729.56	265.70
729.89	265.24
730.22	264.78
730.55	264.29
730.89	263.83
731.22	263.39
731.55	262.99
731.88	262.56
732.21	262.13
732.54	261.71
732.87	261.28
733.20	260.88
733.53	260.50
733.86	260.06
734.19	259.67
734.52	259.26
734.85	258.92
735.18	258.52
735.51	258.18
735.84	257.79
736.17	257.44
736.50	257.00
736.83	256.77
737.16	256.44
737.49	256.12
737.82	255.79
738.15	255.48
738.48	255.15
738.81	254.82
739.14	254.53
739.47	254.22
739.80	253.91
740.13	253.64
740.46	253.32
740.79	253.02
741.12	252.68
741.45	252.40
741.78	252.09
742.11	251.83
742.44	251.49
742.77	251.23
743.10	250.93
743.43	250.67
743.75	250.26
744.08	250.10
744.41	249.83
744.74	249.54
745.07	249.26
745.40	249.03
745.73	248.81
746.06	248.50
746.39	248.26
746.71	248.01
747.04	247.72
747.37	247.42
747.70	247.18
748.03	246.93
748.36	246.70
748.68	246.46
749.01	246.23
749.34	245.96
749.67	245.67
750.00	245.47
750.33	245.29
750.65	245.08
750.98	244.73
751.31	244.46
751.64	244.25
751.97	244.10
752.29	243.86
752.62	243.59
752.95	243.37
753.28	243.17
753.60	242.94
753.93	242.76
754.26	242.60
754.59	242.40
754.91	242.20
755.24	242.01
755.57	241.79
755.90	241.56
756.22	241.41
756.55	241.21
756.88	241.01
757.20	240.80
757.53	240.59
757.86	240.45
758.19	240.33
758.51	240.14
758.84	239.91
759.17	239.73
759.49	239.60
759.82	239.53
760.15	239.39
760.47	239.22
760.80	239.02
761.13	238.90
761.45	238.75
761.78	238.60
762.11	238.47
762.43	238.34
762.76	238.19
763.08	238.05
763.41	237.97
763.74	237.84
764.06	237.67
764.39	237.58
764.71	237.41
765.04	237.28
765.37	237.18
765.69	237.07
766.02	236.98
766.34	236.85
766.67	236.65
767.00	236.53
767.32	236.50
767.65	236.50
767.97	236.36
768.30	236.22
768.62	236.13
768.95	236.00
769.27	235.89
769.60	235.85
769.92	235.72
770.25	235.60
770.57	235.47
770.90	235.36
771.22	235.20
771.55	235.12
771.87	235.04
772.20	234.95
772.52	234.92
772.85	234.91
773.17	234.82
773.50	234.72
773.82	234.64
774.15	234.52
774.47	234.34
774.80	234.26
775.12	234.19
775.45	234.10
775.77	234.01
776.09	233.94
776.42	233.86
776.74	233.81
777.07	233.76
777.39	233.72
777.72	233.68
778.04	233.65
778.36	233.57
778.69	233.49
779.01	233.39
779.33	233.22
779.66	233.06
779.98	233.00
780.31	232.92
780.63	232.85
780.95	232.76
781.28	232.67
781.60	232.59
781.92	232.51
782.25	232.43
782.57	232.37
782.89	232.29
783.22	232.19
783.54	232.11
783.86	232.00
784.19	231.92
784.51	231.88
784.83	231.82
785.16	231.74
785.48	231.66
785.80	231.59
786.12	231.55
786.45	231.52
786.77	231.46
787.09	231.41
787.42	231.32
787.74	231.26
788.06	231.28
788.38	231.23
788.71	231.18
789.03	231.14
789.35	231.08
789.67	231.07
789.99	231.02
790.32	230.97
790.64	230.96
790.96	231.01
791.28	230.95
791.61	230.90
791.93	230.90
792.25	230.88
792.57	230.93
792.89	230.88
793.21	230.85
793.54	230.82
793.86	230.79
794.18	230.76
794.50	230.75
794.82	230.67
795.14	230.64
795.47	230.63
795.79	230.60
796.11	230.58
796.43	230.52
796.75	230.50
797.07	230.47
797.39	230.42
797.71	230.31
798.04	230.25
798.36	230.21
798.68	230.17
799.00	230.15
799.32	230.08
799.64	230.08
799.96	230.06
800.28	230.03
800.60	230.00
800.92	230.00
801.24	229.96
801.56	229.93
801.89	229.91
802.21	229.90
802.53	229.88
802.85	229.87
803.17	229.89
803.49	229.83
803.81	229.79
804.13	229.79
804.45	229.75
804.77	229.75
805.09	229.76
805.41	229.73
805.73	229.72
806.05	229.65
806.37	229.60
806.69	229.55
807.01	229.52
807.33	229.50
807.65	229.46
807.97	229.48
808.28	229.45
808.60	229.43
808.92	229.38
809.24	229.41
809.56	229.40
809.88	229.38
810.20	229.38
810.52	229.39
810.84	229.36
811.16	229.34
811.48	229.31
811.80	229.31
812.12	229.29
812.43	229.24
812.75	229.24
813.07	229.22
813.39	229.24
813.71	229.21
814.03	229.21
814.35	229.15
814.67	229.14
814.98	229.09
815.30	229.07
815.62	229.08
815.94	229.00
816.26	228.98
816.58	228.92
816.89	228.92
817.21	228.90
817.53	228.89
817.85	228.84
818.17	228.82
818.48	228.75
818.80	228.76
819.12	228.74
819.44	228.68
819.76	228.63
820.07	228.60
820.39	228.55
820.71	228.49
821.03	228.55
821.34	228.50
821.66	228.51
821.98	228.48
822.30	228.40
822.61	228.42
822.93	228.37
823.25	228.34
823.57	228.30
823.88	228.27
824.20	228.26
824.52	228.26
824.83	228.21
825.15	228.18
825.47	228.13
825.79	228.11
826.10	228.08
826.42	228.08
826.74	228.02
827.05	228.01
827.37	228.00
827.69	227.92
828.00	227.89
828.32	227.87
828.64	227.82
828.95	227.89
829.27	227.87
829.58	227.86
829.90	227.84
830.22	227.82
830.53	227.83
830.85	227.78
831.17	227.76
831.48	227.78
831.80	227.75
832.11	227.74
832.43	227.70
832.75	227.73
833.06	227.79
833.38	227.78
833.69	227.79
834.01	227.79
834.32	227.79
834.64	227.74
834.96	227.77
835.27	227.79
835.59	227.74
835.90	227.69
836.22	227.65
836.53	227.63
836.85	227.65
837.16	227.70
837.48	227.69
837.79	227.71
838.11	227.69
838.42	227.72
838.74	227.71
839.05	227.75
839.37	227.73
839.68	227.66
840.00	227.66
840.31	227.65
840.63	227.62
840.94	227.63
841.26	227.64
841.57	227.62
841.88	227.62
842.20	227.61
842.51	227.59
842.83	227.61
843.14	227.70
843.46	227.69
843.77	227.64
844.08	227.65
844.40	227.64
844.71	227.65
845.03	227.66
845.34	227.66
845.65	227.62
845.97	227.64
846.28	227.65
846.60	227.67
846.91	227.67
847.22	227.69
847.54	227.74
847.85	227.75
848.16	227.72
848.48	227.71
848.79	227.76
849.10	227.78
849.42	227.79
849.73	227.68
850.04	227.65
850.36	227.60
850.67	227.58
850.98	227.56
851.30	227.53
851.61	227.53
851.92	227.56
852.23	227.60
852.55	227.59
852.86	227.60
853.17	227.58
853.49	227.59
853.80	227.59
854.11	227.57
854.42	227.57
854.74	227.59
855.05	227.57
855.36	227.50
855.67	227.49
855.99	227.48
856.30	227.59
856.61	227.63
856.92	227.64
857.23	227.64
857.55	227.65
857.86	227.68
858.17	227.69
858.48	227.62
858.79	227.58
859.11	227.58
859.42	227.53
859.73	227.53
860.04	227.52
860.35	227.49
860.66	227.45
860.98	227.43
861.29	227.43
861.60	227.45
861.91	227.47
862.22	227.48
862.53	227.49
862.84	227.39
863.16	227.38
863.47	227.33
863.78	227.31
864.09	227.31
864.40	227.31
864.71	227.29
865.02	227.29
865.33	227.30
865.64	227.26
865.95	227.30
866.27	227.33
866.58	227.30
866.89	227.32
867.20	227.35
867.51	227.36
867.82	227.31
868.13	227.31
868.44	227.29
868.75	227.28
869.06	227.27
869.37	227.26
869.68	227.23
869.99	227.26
870.30	227.28
870.61	227.27
870.92	227.22
871.23	227.20
871.54	227.21
871.85	227.23
872.16	227.26
872.47	227.25
872.78	227.19
873.09	227.19
873.40	227.16
873.71	227.13
874.02	227.12
874.33	227.10
874.64	227.10
874.95	227.12
875.26	227.11
875.56	227.09
875.87	227.09
876.18	227.13
876.49	227.23
876.80	227.22
877.11	227.19
877.42	227.21
877.73	227.24
878.04	227.24
878.35	227.22
878.66	227.21
878.96	227.21
879.27	227.23
879.58	227.25
879.89	227.27
880.20	227.31
880.51	227.31
880.82	227.34
881.12	227.34
881.43	227.30
881.74	227.28
882.05	227.31
882.36	227.31
882.67	227.28
882.97	227.18
883.28	227.16
883.59	227.20
883.90	227.21
884.21	227.22
884.51	227.21
884.82	227.22
885.13	227.25
885.44	227.22
885.74	227.19
886.05	227.21
886.36	227.20
886.67	227.17
886.98	227.23
887.28	227.23
887.59	227.23
887.90	227.23
888.20	227.23
888.51	227.21
888.82	227.20
889.13	227.18
889.43	227.29
889.74	227.31
890.05	227.29
890.35	227.27
890.66	227.23
890.97	227.24
891.28	227.23
891.58	227.23
891.89	227.24
892.20	227.25
892.50	227.21
892.81	227.19
893.12	227.17
893.42	227.09
893.73	227.11
894.04	227.14
894.34	227.16
894.65	227.16
894.95	227.16
895.26	227.18
895.57	227.23
895.87	227.09
896.18	227.10
896.48	227.09
896.79	227.10
897.10	227.12
897.40	227.08
897.71	227.08
898.01	227.04
898.32	227.04
898.63	227.04
898.93	227.03
899.24	227.02
899.54	226.99
899.85	226.99
900.15	226.97
900.46	226.92
900.76	226.93
901.07	226.94
901.38	226.95
901.68	226.94
901.99	226.92
902.29	226.92
902.60	226.89
902.90	226.86
903.21	226.84
903.51	226.83
903.82	226.85
904.12	226.85
904.43	226.84
904.73	226.82
905.03	226.81
905.34	226.90
905.64	226.91
905.95	226.92
906.25	226.90
906.56	226.86
906.86	226.87
907.17	226.83
907.47	226.81
907.77	226.79
908.08	226.78
908.38	226.75
908.69	226.76
908.99	226.81
909.30	226.82
909.60	226.83
909.90	226.83
910.21	226.80
910.51	226.77
910.81	226.78
911.12	226.80
911.42	226.78
911.73	226.68
912.03	226.69
912.33	226.73
912.64	226.72
912.94	226.72
913.24	226.70
913.55	226.69
913.85	226.71
914.15	226.73
914.46	226.74
914.76	226.77
915.06	226.76
915.37	226.73
915.67	226.77
915.97	226.77
916.27	226.76
916.58	226.77
916.88	226.78
917.18	226.80
917.49	226.86
917.79	226.89
918.09	226.90
918.39	226.93
918.70	226.92
919.00	226.93
919.30	227.01
919.60	227.01
919.91	227.02
920.21	227.01
920.51	226.99
920.81	226.99
921.12	227.01
921.42	227.04
921.72	227.02
922.02	227.01
922.32	227.01
922.63	227.03
922.93	227.10
923.23	227.12
923.53	227.13
923.83	227.05
924.13	227.05
924.44	227.09
924.74	227.09
925.04	227.12
925.34	227.17
925.64	227.12
925.94	227.16
926.24	227.20
926.55	227.21
926.85	227.25
927.15	227.27
927.45	227.26
927.75	227.26
928.05	227.28
928.35	227.29
928.65	227.33
928.95	227.34
929.26	227.29
929.56	227.30
929.86	227.30
930.16	227.32
930.46	227.32
930.76	227.29
931.06	227.27
931.36	227.25
931.66	227.27
931.96	227.27
932.26	227.28
932.56	227.27
932.86	227.27
933.16	227.22
933.46	227.20
933.76	227.18
934.06	227.17
934.36	227.20
934.66	227.19
934.96	227.13
935.26	227.13
935.56	227.12
935.86	227.11
936.16	227.09
936.46	227.07
936.76	227.07
937.06	227.08
937.36	227.07
937.66	227.06
937.96	227.00
938.26	226.96
938.56	226.93
938.86	226.92
939.16	226.94
939.46	226.94
939.76	226.89
940.06	226.90
940.35	226.87
940.65	226.84
940.95	226.80
941.25	226.79
941.55	226.78
941.85	226.78
942.15	226.77
942.45	226.78
942.75	226.78
943.04	226.78
943.34	226.77
943.64	226.73
943.94	226.72
944.24	226.72
944.54	226.74
944.84	226.75
945.13	226.73
945.43	226.71
945.73	226.73
946.03	226.75
946.33	226.73
946.62	226.74
946.92	226.72
947.22	226.73
947.52	226.72
947.82	226.74
948.11	226.72
948.41	226.71
948.71	226.71
949.01	226.70
949.31	226.69
949.60	226.67
949.90	226.70
950.20	226.69
950.50	226.68
950.79	226.65
951.09	226.66
951.39	226.65
951.69	226.64
951.98	226.64
952.28	226.64
952.58	226.62
952.87	226.61
953.17	226.64
953.47	226.64
953.76	226.68
954.06	226.65
954.36	226.63
954.66	226.66
954.95	226.68
955.25	226.70
955.55	226.72
955.84	226.73
956.14	226.74
956.44	226.76
956.73	226.78
957.03	226.83
957.32	226.83
957.62	226.84
957.92	226.88
958.21	226.88
958.51	227.02
958.81	227.06
959.10	227.05
959.40	227.08
959.69	227.08
959.99	227.08
960.29	227.11
960.58	227.16
960.88	227.16
961.17	227.18
961.47	227.21
961.76	227.18
962.06	227.18
962.36	227.20
962.65	227.19
962.95	227.20
963.24	227.20
963.54	227.21
963.83	227.21
964.13	227.17
964.42	227.17
964.72	227.09
965.01	227.08
965.31	227.09
965.60	227.05
965.90	227.14
966.19	227.11
966.49	227.12
966.78	227.05
967.08	227.05
967.37	227.03
967.67	226.99
967.96	227.02
968.26	227.02
968.55	227.01
968.85	227.02
969.14	227.01
969.43	226.98
969.73	226.96
970.02	226.94
970.32	226.93
970.61	226.90
970.91	226.86
971.20	226.83
971.49	226.80
971.79	226.81
972.08	226.70
972.38	226.71
972.67	226.69
972.96	226.73
973.26	226.71
973.55	226.73
973.85	226.71
974.14	226.70
974.43	226.71
974.73	226.70
975.02	226.65
975.31	226.67
975.61	226.66
975.90	226.64
976.19	226.64
976.49	226.66
976.78	226.67
977.07	226.66
977.37	226.66
977.66	226.67
977.95	226.67
978.24	226.66
978.54	226.67
978.83	226.68
979.12	226.69
979.42	226.68
979.71	226.64
980.00	226.65
980.29	226.66
980.59	226.64
980.88	226.66
981.17	226.66
981.46	226.65
981.76	226.64
982.05	226.65
982.34	226.68
982.63	226.66
982.93	226.66
983.22	226.69
983.51	226.68
983.80	226.71
984.09	226.72
984.39	226.73
984.68	226.71
984.97	226.67
985.26	226.65
985.55	226.64
985.85	226.60
986.14	226.62
986.43	226.63
986.72	226.61
987.01	226.55
987.30	226.59
987.59	226.58
987.89	226.60
988.18	226.60
988.47	226.58
988.76	226.59
989.05	226.58
989.34	226.57
989.63	226.60
989.92	226.57
990.22	226.55
990.51	226.53
990.80	226.51
991.09	226.51
991.38	226.50
991.67	226.50
991.96	226.53
992.25	226.54
992.54	226.52
992.83	226.51
993.12	226.51
993.41	226.51
993.70	226.53
993.99	226.54
994.28	226.53
994.58	226.55
994.87	226.52
995.16	226.55
995.45	226.52
995.74	226.49
996.03	226.51
996.32	226.53
996.61	226.55
996.90	226.58
997.19	226.59
997.48	226.60
997.77	226.61
998.06	226.59
998.34	226.58
998.63	226.55
998.92	226.56
999.21	226.58
999.50	226.57
999.79	226.54
1000.08	226.56
1000.37	226.58
1000.66	226.57
1000.95	226.58
1001.24	226.55
1001.53	226.60
1001.82	226.59
1002.11	226.57
1002.40	226.55
1002.68	226.59
1002.97	226.67
1003.26	226.67
1003.55	226.65
1003.84	226.65
1004.13	226.69
1004.42	226.67
1004.71	226.70
1004.99	226.72
1005.28	226.73
1005.57	226.72
1005.86	226.69
1006.15	226.67
1006.44	226.66
1006.72	226.62
1007.01	226.62
1007.30	226.64
1007.59	226.62
1007.88	226.65
1008.17	226.65
1008.45	226.65
1008.74	226.58
1009.03	226.53
1009.32	226.52
1009.60	226.52
1009.89	226.48
1010.18	226.43
1010.47	226.45
1010.76	226.43
1011.04	226.43
1011.33	226.46
1011.62	226.45
1011.91	226.49
1012.19	226.49
1012.48	226.46
1012.77	226.47
1013.05	226.50
1013.34	226.50
1013.63	226.51
1013.92	226.50
1014.20	226.50
1014.49	226.52
1014.78	226.56
1015.06	226.50
1015.35	226.50
1015.64	226.54
1015.92	226.58
1016.21	226.60
1016.50	226.57
1016.78	226.58
1017.07	226.57
1017.36	226.52
1017.64	226.51
1017.93	226.50
1018.22	226.49
1018.50	226.53
1018.79	226.53
1019.08	226.51
1019.36	226.51
1019.65	226.49
1019.93	226.51
1020.22	226.51
1020.51	226.55
1020.79	226.53
1021.08	226.31
1021.36	226.65
1021.65	226.18
1021.94	226.84
1022.22	226.51
1022.51	226.36
1022.79	227.14
1023.08	226.50
1023.36	227.99
1023.65	226.40
>>>>>End Processed Spectral Data<<<<<
