SpectraSuite Data File
++++++++++++++++++++++++++++++++++++
Date: Fri Feb 01 17:27:43 EST 2013
User: group
Dark Spectrum Present: No
Reference Spectrum Present: No
Number of Sampled Component Spectra: 1
Spectrometers: USB2E7196
Integration Time (usec): 35000 (USB2E7196)
Spectra Averaged: 100 (USB2E7196)
Boxcar Smoothing: 10 (USB2E7196)
Correct for Electrical Dark: No (USB2E7196)
Strobe/Lamp Enabled: No (USB2E7196)
Correct for Detector Non-linearity: No (USB2E7196)
Correct for Stray Light: No (USB2E7196)
Number of Pixels in Processed Spectrum: 2048
>>>>>Begin Processed Spectral Data<<<<<
339.09	0.00
339.48	213.11
339.86	214.21
340.24	215.91
340.63	217.39
341.01	220.49
341.39	220.18
341.78	221.14
342.16	222.75
342.54	223.23
342.93	211.63
343.31	222.31
343.69	222.85
344.07	223.32
344.46	223.73
344.84	224.11
345.22	224.33
345.60	224.59
345.99	224.79
346.37	224.89
346.75	224.98
347.13	225.00
347.52	225.05
347.90	225.11
348.28	225.16
348.66	225.23
349.05	225.21
349.43	225.23
349.81	225.26
350.19	225.31
350.57	225.35
350.96	225.42
351.34	225.50
351.72	225.61
352.10	225.71
352.48	225.81
352.87	225.88
353.25	225.93
353.63	225.96
354.01	226.02
354.39	226.11
354.77	226.17
355.15	226.30
355.54	226.36
355.92	226.41
356.30	226.47
356.68	226.57
357.06	226.65
357.44	226.66
357.82	226.71
358.20	226.80
358.58	226.89
358.97	226.93
359.35	227.01
359.73	227.04
360.11	227.09
360.49	227.08
360.87	227.12
361.25	227.19
361.63	227.28
362.01	227.34
362.39	227.38
362.77	227.42
363.15	227.43
363.53	227.47
363.91	227.49
364.29	227.52
364.67	227.49
365.05	227.48
365.43	227.52
365.81	227.52
366.19	227.55
366.57	227.57
366.95	227.56
367.33	227.54
367.71	227.56
368.09	227.58
368.47	227.61
368.85	227.57
369.23	227.56
369.61	227.52
369.99	227.51
370.37	227.47
370.75	227.48
371.13	227.41
371.51	227.35
371.89	227.31
372.27	227.27
372.65	227.20
373.03	227.19
373.41	227.15
373.78	227.12
374.16	227.02
374.54	226.94
374.92	226.90
375.30	226.79
375.68	226.71
376.06	226.62
376.44	226.56
376.82	226.53
377.19	226.50
377.57	226.44
377.95	226.32
378.33	226.29
378.71	226.13
379.09	226.11
379.47	226.07
379.84	226.00
380.22	225.89
380.60	225.79
380.98	225.71
381.36	225.65
381.73	225.60
382.11	225.56
382.49	225.50
382.87	225.43
383.25	225.42
383.62	225.45
384.00	225.40
384.38	225.34
384.76	225.30
385.13	225.27
385.51	225.20
385.89	225.14
386.27	225.11
386.64	225.10
387.02	225.06
387.40	225.01
387.78	224.99
388.15	224.97
388.53	224.94
388.91	224.90
389.29	224.87
389.66	224.80
390.04	224.74
390.42	224.75
390.79	224.74
391.17	224.72
391.55	224.63
391.92	224.60
392.30	224.62
392.68	224.61
393.05	224.57
393.43	224.57
393.81	224.58
394.18	224.56
394.56	224.58
394.94	224.59
395.31	224.60
395.69	224.62
396.06	224.68
396.44	224.73
396.82	224.77
397.19	224.84
397.57	224.89
397.95	224.96
398.32	224.96
398.70	224.98
399.07	225.04
399.45	225.06
399.82	225.15
400.20	225.17
400.58	225.21
400.95	225.24
401.33	225.35
401.70	225.49
402.08	225.57
402.45	225.66
402.83	225.77
403.20	225.88
403.58	226.00
403.95	226.10
404.33	226.22
404.71	226.34
405.08	226.54
405.46	226.64
405.83	226.76
406.21	226.93
406.58	227.11
406.96	227.27
407.33	227.46
407.70	227.65
408.08	227.95
408.45	228.16
408.83	228.40
409.20	228.57
409.58	228.75
409.95	229.00
410.33	229.28
410.70	229.52
411.08	229.80
411.45	230.13
411.82	230.45
412.20	230.80
412.57	231.21
412.95	231.46
413.32	231.91
413.69	232.32
414.07	232.75
414.44	233.22
414.82	233.74
415.19	234.29
415.56	234.82
415.94	235.33
416.31	235.99
416.68	236.62
417.06	237.39
417.43	238.14
417.81	238.98
418.18	239.77
418.55	240.65
418.93	241.56
419.30	242.44
419.67	243.41
420.04	244.42
420.42	245.48
420.79	246.74
421.16	247.93
421.54	249.18
421.91	250.47
422.28	251.78
422.66	253.11
423.03	254.48
423.40	255.88
423.77	257.41
424.15	258.91
424.52	260.47
424.89	262.18
425.26	263.77
425.64	265.25
426.01	266.91
426.38	268.65
426.75	270.38
427.13	272.16
427.50	273.99
427.87	275.93
428.24	277.84
428.61	279.62
428.99	281.63
429.36	283.83
429.73	285.99
430.10	288.10
430.47	290.27
430.85	292.49
431.22	294.80
431.59	297.24
431.96	299.57
432.33	302.14
432.70	304.58
433.08	307.47
433.45	310.19
433.82	312.90
434.19	315.88
434.56	318.80
434.93	321.60
435.30	324.39
435.68	327.41
436.05	330.35
436.42	333.26
436.79	335.90
437.16	338.70
437.53	341.64
437.90	344.55
438.27	347.43
438.64	350.34
439.01	353.08
439.38	355.43
439.75	357.65
440.13	360.23
440.50	362.67
440.87	364.53
441.24	366.59
441.61	368.79
441.98	370.35
442.35	372.20
442.72	374.14
443.09	376.00
443.46	377.01
443.83	377.67
444.20	378.23
444.57	379.09
444.94	379.39
445.31	379.71
445.68	380.06
446.05	380.14
446.42	379.75
446.79	379.32
447.16	378.83
447.53	378.49
447.90	377.32
448.27	376.15
448.64	374.61
449.01	373.49
449.37	371.46
449.74	369.50
450.11	367.21
450.48	364.70
450.85	362.08
451.22	359.87
451.59	357.74
451.96	355.72
452.33	353.05
452.70	350.63
453.07	347.74
453.43	344.75
453.80	341.89
454.17	339.15
454.54	336.53
454.91	333.73
455.28	331.01
455.65	328.43
456.02	325.89
456.38	323.65
456.75	320.83
457.12	318.53
457.49	316.21
457.86	313.91
458.23	311.95
458.59	309.78
458.96	307.60
459.33	305.66
459.70	303.69
460.07	302.07
460.43	300.26
460.80	298.57
461.17	297.09
461.54	295.51
461.91	294.02
462.27	292.51
462.64	291.22
463.01	289.81
463.38	288.48
463.74	287.06
464.11	285.85
464.48	284.81
464.85	283.67
465.21	282.82
465.58	281.90
465.95	280.75
466.32	279.85
466.68	278.97
467.05	278.07
467.42	277.19
467.78	276.26
468.15	275.36
468.52	274.68
468.88	273.80
469.25	273.05
469.62	272.40
469.98	271.68
470.35	271.05
470.72	270.44
471.08	269.80
471.45	269.19
471.82	268.63
472.18	268.00
472.55	267.54
472.92	266.99
473.28	266.52
473.65	266.04
474.02	265.59
474.38	265.23
474.75	264.86
475.11	264.52
475.48	264.24
475.85	264.03
476.21	263.79
476.58	263.62
476.94	263.40
477.31	263.23
477.67	263.12
478.04	262.97
478.41	262.86
478.77	262.86
479.14	262.80
479.50	262.82
479.87	262.93
480.23	263.01
480.60	263.03
480.96	263.10
481.33	263.35
481.69	263.54
482.06	263.73
482.42	263.95
482.79	264.20
483.15	264.49
483.52	264.86
483.88	265.17
484.25	265.50
484.61	265.98
484.98	266.38
485.34	266.91
485.71	267.45
486.07	268.08
486.44	268.66
486.80	269.39
487.17	270.10
487.53	270.84
487.90	271.67
488.26	272.65
488.62	273.67
488.99	274.63
489.35	275.66
489.72	276.76
490.08	277.94
490.44	279.17
490.81	280.51
491.17	281.85
491.54	283.35
491.90	284.89
492.26	286.49
492.63	288.25
492.99	290.03
493.36	291.96
493.72	293.95
494.08	296.01
494.45	298.23
494.81	300.56
495.17	303.00
495.54	305.54
495.90	308.20
496.26	310.91
496.63	313.84
496.99	316.94
497.35	320.19
497.72	323.57
498.08	326.99
498.44	330.63
498.80	334.51
499.17	338.53
499.53	342.64
499.89	346.95
500.26	351.38
500.62	355.99
500.98	360.93
501.34	365.96
501.71	371.21
502.07	376.60
502.43	382.13
502.79	387.83
503.16	393.78
503.52	399.93
503.88	406.27
504.24	412.76
504.60	419.54
504.97	426.56
505.33	433.77
505.69	441.38
506.05	449.00
506.41	456.76
506.78	464.74
507.14	473.06
507.50	481.66
507.86	490.49
508.22	499.46
508.59	508.50
508.95	517.89
509.31	527.52
509.67	537.45
510.03	547.58
510.39	557.99
510.75	568.54
511.12	579.29
511.48	590.35
511.84	601.65
512.20	612.88
512.56	624.52
512.92	636.43
513.28	648.61
513.64	660.84
514.00	673.22
514.37	685.78
514.73	698.49
515.09	711.16
515.45	724.19
515.81	737.54
516.17	751.11
516.53	764.92
516.89	778.77
517.25	792.46
517.61	806.47
517.97	820.55
518.33	834.65
518.69	848.99
519.05	863.53
519.41	878.29
519.77	893.48
520.13	908.53
520.49	923.59
520.85	938.34
521.21	953.60
521.57	969.42
521.93	984.85
522.29	1000.74
522.65	1016.62
523.01	1032.32
523.37	1047.83
523.73	1063.64
524.09	1079.23
524.45	1095.00
524.81	1111.28
525.17	1127.53
525.53	1143.85
525.89	1160.16
526.25	1176.53
526.61	1192.53
526.97	1208.76
527.33	1224.84
527.68	1241.04
528.04	1256.88
528.40	1273.02
528.76	1289.68
529.12	1305.73
529.48	1322.19
529.84	1337.77
530.20	1353.86
530.56	1370.37
530.91	1387.42
531.27	1403.71
531.63	1419.92
531.99	1436.05
532.35	1451.63
532.71	1467.16
533.07	1483.09
533.42	1498.77
533.78	1514.56
534.14	1530.38
534.50	1545.32
534.86	1560.81
535.21	1575.57
535.57	1591.32
535.93	1606.58
536.29	1621.01
536.65	1635.88
537.00	1650.24
537.36	1665.27
537.72	1679.48
538.08	1693.75
538.44	1707.26
538.79	1720.96
539.15	1734.19
539.51	1747.72
539.87	1761.83
540.22	1775.37
540.58	1788.81
540.94	1801.79
541.29	1814.35
541.65	1826.86
542.01	1839.99
542.37	1852.19
542.72	1864.55
543.08	1876.16
543.44	1888.49
543.79	1899.71
544.15	1910.64
544.51	1922.32
544.87	1933.35
545.22	1944.23
545.58	1954.47
545.94	1964.33
546.29	1974.16
546.65	1984.12
547.01	1993.52
547.36	2002.27
547.72	2010.96
548.07	2019.26
548.43	2027.62
548.79	2035.63
549.14	2043.34
549.50	2050.71
549.86	2058.40
550.21	2065.84
550.57	2073.19
550.92	2079.96
551.28	2087.14
551.64	2094.42
551.99	2100.98
552.35	2107.46
552.70	2113.88
553.06	2120.14
553.41	2126.63
553.77	2132.91
554.13	2139.13
554.48	2145.42
554.84	2151.41
555.19	2156.78
555.55	2162.05
555.90	2166.91
556.26	2172.34
556.61	2177.49
556.97	2182.40
557.32	2186.88
557.68	2191.38
558.03	2195.95
558.39	2199.86
558.74	2204.79
559.10	2209.03
559.45	2213.14
559.81	2217.57
560.16	2221.67
560.52	2225.15
560.87	2228.94
561.23	2231.90
561.58	2235.24
561.94	2238.30
562.29	2240.69
562.64	2244.05
563.00	2246.94
563.35	2250.79
563.71	2254.25
564.06	2257.68
564.42	2260.81
564.77	2263.88
565.12	2266.76
565.48	2269.13
565.83	2271.59
566.19	2273.38
566.54	2274.40
566.89	2276.00
567.25	2277.14
567.60	2278.96
567.96	2281.06
568.31	2282.33
568.66	2283.97
569.02	2285.07
569.37	2285.79
569.72	2287.35
570.08	2287.79
570.43	2288.15
570.78	2287.94
571.14	2286.88
571.49	2285.98
571.84	2285.86
572.20	2285.16
572.55	2284.36
572.90	2283.10
573.26	2282.16
573.61	2280.72
573.96	2279.71
574.31	2277.15
574.67	2274.65
575.02	2271.41
575.37	2268.49
575.72	2265.25
576.08	2262.14
576.43	2258.93
576.78	2255.76
577.13	2252.53
577.49	2249.51
577.84	2246.56
578.19	2243.21
578.54	2240.07
578.90	2236.42
579.25	2231.47
579.60	2226.72
579.95	2222.03
580.30	2217.48
580.66	2212.51
581.01	2207.84
581.36	2203.02
581.71	2199.26
582.06	2195.17
582.42	2191.06
582.77	2186.15
583.12	2181.81
583.47	2177.54
583.82	2173.17
584.17	2168.21
584.53	2163.27
584.88	2158.17
585.23	2152.77
585.58	2147.58
585.93	2142.18
586.28	2137.42
586.63	2132.52
586.98	2127.73
587.34	2123.24
587.69	2118.48
588.04	2113.65
588.39	2108.44
588.74	2102.32
589.09	2096.23
589.44	2089.61
589.79	2083.56
590.14	2078.01
590.49	2071.61
590.84	2065.35
591.19	2059.48
591.54	2053.09
591.89	2046.12
592.25	2039.64
592.60	2032.48
592.95	2025.17
593.30	2018.17
593.65	2010.82
594.00	2003.89
594.35	1996.85
594.70	1988.84
595.05	1981.92
595.40	1974.71
595.75	1967.28
596.10	1961.26
596.45	1954.80
596.80	1948.86
597.15	1942.52
597.50	1935.79
597.85	1929.30
598.19	1922.84
598.54	1915.98
598.89	1909.60
599.24	1903.67
599.59	1897.19
599.94	1891.06
600.29	1884.65
600.64	1878.04
600.99	1870.86
601.34	1864.21
601.69	1857.29
602.04	1850.69
602.39	1843.29
602.74	1836.57
603.08	1829.92
603.43	1823.17
603.78	1815.77
604.13	1808.57
604.48	1801.37
604.83	1794.45
605.18	1787.83
605.53	1779.92
605.87	1771.87
606.22	1764.50
606.57	1756.46
606.92	1748.86
607.27	1741.93
607.62	1735.28
607.96	1728.17
608.31	1721.55
608.66	1713.95
609.01	1706.63
609.36	1699.11
609.70	1691.21
610.05	1683.25
610.40	1675.56
610.75	1667.45
611.10	1659.87
611.44	1651.23
611.79	1643.18
612.14	1634.52
612.49	1625.21
612.83	1616.69
613.18	1608.44
613.53	1600.43
613.88	1591.98
614.22	1583.65
614.57	1574.82
614.92	1566.65
615.27	1558.99
615.61	1550.68
615.96	1542.54
616.31	1534.53
616.65	1527.14
617.00	1519.59
617.35	1511.75
617.70	1503.45
618.04	1494.80
618.39	1486.50
618.74	1478.99
619.08	1470.63
619.43	1462.95
619.78	1455.86
620.12	1448.72
620.47	1441.24
620.82	1432.95
621.16	1425.32
621.51	1417.66
621.85	1409.96
622.20	1401.38
622.55	1392.92
622.89	1384.90
623.24	1377.17
623.59	1369.78
623.93	1362.24
624.28	1354.74
624.62	1347.18
624.97	1339.94
625.32	1332.97
625.66	1325.87
626.01	1318.54
626.35	1311.14
626.70	1303.26
627.04	1295.52
627.39	1287.63
627.73	1280.12
628.08	1273.16
628.43	1265.98
628.77	1258.70
629.12	1251.19
629.46	1243.91
629.81	1236.24
630.15	1228.82
630.50	1221.41
630.84	1213.16
631.19	1204.92
631.53	1197.38
631.88	1189.68
632.22	1181.90
632.57	1174.41
632.91	1166.79
633.26	1159.31
633.60	1151.74
633.95	1144.53
634.29	1137.37
634.64	1130.57
634.98	1123.13
635.32	1115.85
635.67	1109.06
636.01	1102.34
636.36	1095.44
636.70	1088.80
637.05	1082.25
637.39	1075.79
637.73	1069.21
638.08	1063.18
638.42	1057.21
638.77	1050.76
639.11	1044.18
639.45	1037.78
639.80	1031.15
640.14	1024.74
640.49	1018.18
640.83	1011.82
641.17	1005.58
641.52	999.27
641.86	992.65
642.20	986.74
642.55	980.22
642.89	973.75
643.23	967.02
643.58	961.18
643.92	954.98
644.26	949.02
644.61	942.84
644.95	936.88
645.29	930.34
645.64	923.53
645.98	917.12
646.32	911.05
646.66	904.95
647.01	899.19
647.35	893.32
647.69	887.40
648.04	881.83
648.38	875.99
648.72	870.05
649.06	864.08
649.41	858.15
649.75	852.32
650.09	846.28
650.43	840.54
650.78	834.35
651.12	828.32
651.46	822.39
651.80	816.66
652.14	811.07
652.49	805.67
652.83	800.48
653.17	794.87
653.51	789.32
653.85	783.86
654.20	778.16
654.54	772.26
654.88	766.48
655.22	760.52
655.56	754.86
655.90	749.31
656.25	744.10
656.59	738.70
656.93	733.60
657.27	728.52
657.61	723.00
657.95	717.90
658.29	712.78
658.64	707.57
658.98	702.17
659.32	696.70
659.66	691.50
660.00	686.27
660.34	681.25
660.68	676.28
661.02	671.22
661.36	666.49
661.70	662.01
662.05	657.64
662.39	653.41
662.73	648.97
663.07	644.55
663.41	640.05
663.75	635.60
664.09	631.05
664.43	626.59
664.77	622.58
665.11	618.35
665.45	614.25
665.79	610.20
666.13	606.19
666.47	602.14
666.81	597.95
667.15	593.72
667.49	589.77
667.83	585.85
668.17	581.91
668.51	577.90
668.85	573.78
669.19	569.88
669.53	566.05
669.87	562.19
670.21	558.44
670.55	554.71
670.89	551.17
671.23	547.67
671.57	544.15
671.91	540.62
672.25	537.03
672.58	533.48
672.92	530.00
673.26	526.77
673.60	523.57
673.94	520.48
674.28	517.51
674.62	514.57
674.96	511.44
675.30	508.51
675.64	505.59
675.97	502.77
676.31	499.96
676.65	496.96
676.99	494.16
677.33	491.32
677.67	488.54
678.01	485.53
678.34	482.53
678.68	479.61
679.02	476.68
679.36	473.87
679.70	471.13
680.04	468.33
680.37	465.44
680.71	462.59
681.05	459.92
681.39	457.21
681.73	454.49
682.06	451.97
682.40	449.40
682.74	446.76
683.08	444.19
683.42	441.53
683.75	438.94
684.09	436.31
684.43	433.77
684.77	431.23
685.10	428.82
685.44	426.46
685.78	424.10
686.12	421.86
686.45	419.54
686.79	417.21
687.13	414.96
687.46	412.79
687.80	410.58
688.14	408.26
688.48	406.19
688.81	403.97
689.15	401.75
689.49	399.56
689.82	397.43
690.16	395.25
690.50	393.25
690.83	391.32
691.17	389.33
691.51	387.38
691.84	385.53
692.18	383.58
692.52	381.60
692.85	379.66
693.19	377.74
693.52	375.88
693.86	374.05
694.20	372.26
694.53	370.44
694.87	368.61
695.21	366.84
695.54	364.98
695.88	363.24
696.21	361.52
696.55	359.87
696.88	358.18
697.22	356.52
697.56	354.88
697.89	353.25
698.23	351.66
698.56	350.10
698.90	348.52
699.23	346.88
699.57	345.29
699.90	343.73
700.24	342.16
700.58	340.67
700.91	339.21
701.25	337.78
701.58	336.40
701.92	334.98
702.25	333.61
702.59	332.26
702.92	330.90
703.26	329.61
703.59	328.28
703.93	327.11
704.26	325.89
704.60	324.58
704.93	323.26
705.26	321.98
705.60	320.75
705.93	319.55
706.27	318.48
706.60	317.45
706.94	316.38
707.27	315.27
707.61	314.10
707.94	312.99
708.27	311.84
708.61	310.72
708.94	309.72
709.28	308.71
709.61	307.70
709.94	306.70
710.28	305.67
710.61	304.65
710.95	303.52
711.28	302.54
711.61	301.55
711.95	300.67
712.28	299.71
712.61	298.70
712.95	297.73
713.28	296.86
713.61	295.95
713.95	295.04
714.28	294.17
714.61	293.34
714.95	292.50
715.28	291.64
715.61	290.74
715.95	289.87
716.28	288.96
716.61	288.15
716.95	287.31
717.28	286.54
717.61	285.78
717.94	285.05
718.28	284.23
718.61	283.51
718.94	282.76
719.27	282.08
719.61	281.41
719.94	280.71
720.27	279.93
720.60	279.24
720.94	278.56
721.27	277.94
721.60	277.35
721.93	276.72
722.27	276.17
722.60	275.62
722.93	275.07
723.26	274.53
723.59	273.91
723.93	273.36
724.26	272.78
724.59	272.17
724.92	271.66
725.25	271.18
725.59	270.64
725.92	270.10
726.25	269.55
726.58	269.06
726.91	268.58
727.24	268.06
727.57	267.57
727.91	267.10
728.24	266.59
728.57	266.07
728.90	265.59
729.23	265.10
729.56	264.65
729.89	264.14
730.22	263.62
730.55	263.18
730.89	262.73
731.22	262.26
731.55	261.80
731.88	261.33
732.21	260.85
732.54	260.38
732.87	259.95
733.20	259.51
733.53	259.07
733.86	258.68
734.19	258.32
734.52	257.93
734.85	257.58
735.18	257.19
735.51	256.83
735.84	256.48
736.17	256.14
736.50	255.77
736.83	255.53
737.16	255.19
737.49	254.85
737.82	254.52
738.15	254.19
738.48	253.86
738.81	253.55
739.14	253.25
739.47	252.95
739.80	252.65
740.13	252.36
740.46	252.07
740.79	251.73
741.12	251.41
741.45	251.11
741.78	250.74
742.11	250.46
742.44	250.12
742.77	249.83
743.10	249.49
743.43	249.17
743.75	248.79
744.08	248.65
744.41	248.40
744.74	248.11
745.07	247.80
745.40	247.55
745.73	247.31
746.06	247.03
746.39	246.75
746.71	246.49
747.04	246.22
747.37	245.93
747.70	245.69
748.03	245.46
748.36	245.21
748.68	244.98
749.01	244.69
749.34	244.48
749.67	244.23
750.00	244.03
750.33	243.88
750.65	243.65
750.98	243.33
751.31	243.08
751.64	242.85
751.97	242.71
752.29	242.49
752.62	242.24
752.95	242.02
753.28	241.83
753.60	241.63
753.93	241.47
754.26	241.31
754.59	241.09
754.91	240.88
755.24	240.64
755.57	240.44
755.90	240.27
756.22	240.07
756.55	239.87
756.88	239.66
757.20	239.42
757.53	239.25
757.86	239.06
758.19	238.89
758.51	238.72
758.84	238.50
759.17	238.34
759.49	238.16
759.82	238.06
760.15	237.89
760.47	237.70
760.80	237.50
761.13	237.36
761.45	237.22
761.78	237.05
762.11	236.94
762.43	236.79
762.76	236.63
763.08	236.49
763.41	236.38
763.74	236.22
764.06	236.05
764.39	235.88
764.71	235.78
765.04	235.63
765.37	235.45
765.69	235.32
766.02	235.18
766.34	235.05
766.67	234.89
767.00	234.79
767.32	234.74
767.65	234.71
767.97	234.56
768.30	234.45
768.62	234.36
768.95	234.22
769.27	234.14
769.60	234.03
769.92	233.91
770.25	233.75
770.57	233.66
770.90	233.57
771.22	233.46
771.55	233.32
771.87	233.25
772.20	233.19
772.52	233.19
772.85	233.21
773.17	233.13
773.50	233.03
773.82	232.93
774.15	232.76
774.47	232.56
774.80	232.48
775.12	232.41
775.45	232.33
775.77	232.26
776.09	232.15
776.42	232.09
776.74	232.03
777.07	231.97
777.39	231.88
777.72	231.79
778.04	231.73
778.36	231.65
778.69	231.59
779.01	231.52
779.33	231.37
779.66	231.19
779.98	231.13
780.31	231.07
780.63	231.05
780.95	231.01
781.28	230.96
781.60	230.89
781.92	230.81
782.25	230.77
782.57	230.68
782.89	230.61
783.22	230.55
783.54	230.47
783.86	230.41
784.19	230.37
784.51	230.33
784.83	230.25
785.16	230.21
785.48	230.13
785.80	230.08
786.12	230.02
786.45	229.99
786.77	229.95
787.09	229.93
787.42	229.83
787.74	229.80
788.06	229.78
788.38	229.74
788.71	229.71
789.03	229.66
789.35	229.65
789.67	229.62
789.99	229.57
790.32	229.51
790.64	229.47
790.96	229.51
791.28	229.44
791.61	229.43
791.93	229.38
792.25	229.34
792.57	229.37
792.89	229.31
793.21	229.27
793.54	229.21
793.86	229.14
794.18	229.08
794.50	229.00
794.82	228.96
795.14	228.96
795.47	228.92
795.79	228.86
796.11	228.78
796.43	228.75
796.75	228.72
797.07	228.69
797.39	228.66
797.71	228.53
798.04	228.49
798.36	228.46
798.68	228.42
799.00	228.43
799.32	228.32
799.64	228.33
799.96	228.27
800.28	228.25
800.60	228.22
800.92	228.19
801.24	228.19
801.56	228.16
801.89	228.08
802.21	228.05
802.53	227.99
802.85	227.97
803.17	227.97
803.49	227.91
803.81	227.89
804.13	227.85
804.45	227.82
804.77	227.79
805.09	227.75
805.41	227.70
805.73	227.62
806.05	227.60
806.37	227.56
806.69	227.53
807.01	227.50
807.33	227.47
807.65	227.44
807.97	227.46
808.28	227.37
808.60	227.35
808.92	227.29
809.24	227.36
809.56	227.34
809.88	227.28
810.20	227.27
810.52	227.24
810.84	227.18
811.16	227.12
811.48	227.09
811.80	227.10
812.12	227.11
812.43	227.13
812.75	227.07
813.07	227.03
813.39	226.98
813.71	226.94
814.03	226.89
814.35	226.86
814.67	226.78
814.98	226.78
815.30	226.77
815.62	226.78
815.94	226.68
816.26	226.70
816.58	226.66
816.89	226.66
817.21	226.61
817.53	226.63
817.85	226.64
818.17	226.64
818.48	226.59
818.80	226.58
819.12	226.52
819.44	226.50
819.76	226.51
820.07	226.55
820.39	226.55
820.71	226.55
821.03	226.56
821.34	226.55
821.66	226.56
821.98	226.52
822.30	226.50
822.61	226.55
822.93	226.52
823.25	226.51
823.57	226.49
823.88	226.49
824.20	226.45
824.52	226.50
824.83	226.46
825.15	226.42
825.47	226.42
825.79	226.44
826.10	226.43
826.42	226.38
826.74	226.37
827.05	226.37
827.37	226.37
827.69	226.35
828.00	226.31
828.32	226.29
828.64	226.27
828.95	226.30
829.27	226.26
829.58	226.23
829.90	226.22
830.22	226.23
830.53	226.23
830.85	226.24
831.17	226.20
831.48	226.22
831.80	226.24
832.11	226.22
832.43	226.18
832.75	226.17
833.06	226.25
833.38	226.18
833.69	226.18
834.01	226.17
834.32	226.16
834.64	226.15
834.96	226.16
835.27	226.16
835.59	226.11
835.90	226.09
836.22	226.09
836.53	226.08
836.85	226.06
837.16	226.16
837.48	226.18
837.79	226.20
838.11	226.20
838.42	226.17
838.74	226.15
839.05	226.16
839.37	226.16
839.68	226.06
840.00	226.11
840.31	226.03
840.63	226.02
840.94	226.02
841.26	226.01
841.57	226.01
841.88	226.01
842.20	225.97
842.51	225.93
842.83	225.90
843.14	225.96
843.46	225.96
843.77	225.87
844.08	225.84
844.40	225.78
844.71	225.72
845.03	225.71
845.34	225.68
845.65	225.64
845.97	225.61
846.28	225.61
846.60	225.59
846.91	225.60
847.22	225.61
847.54	225.61
847.85	225.62
848.16	225.60
848.48	225.59
848.79	225.64
849.10	225.65
849.42	225.63
849.73	225.54
850.04	225.54
850.36	225.49
850.67	225.47
850.98	225.47
851.30	225.50
851.61	225.48
851.92	225.49
852.23	225.51
852.55	225.51
852.86	225.51
853.17	225.47
853.49	225.48
853.80	225.48
854.11	225.46
854.42	225.42
854.74	225.41
855.05	225.40
855.36	225.35
855.67	225.38
855.99	225.36
856.30	225.47
856.61	225.41
856.92	225.40
857.23	225.40
857.55	225.37
857.86	225.38
858.17	225.39
858.48	225.38
858.79	225.35
859.11	225.38
859.42	225.35
859.73	225.36
860.04	225.36
860.35	225.35
860.66	225.32
860.98	225.34
861.29	225.33
861.60	225.35
861.91	225.34
862.22	225.32
862.53	225.34
862.84	225.23
863.16	225.30
863.47	225.29
863.78	225.30
864.09	225.32
864.40	225.34
864.71	225.34
865.02	225.35
865.33	225.35
865.64	225.34
865.95	225.37
866.27	225.43
866.58	225.41
866.89	225.42
867.20	225.43
867.51	225.42
867.82	225.43
868.13	225.43
868.44	225.45
868.75	225.44
869.06	225.44
869.37	225.48
869.68	225.44
869.99	225.45
870.30	225.43
870.61	225.46
870.92	225.43
871.23	225.45
871.54	225.50
871.85	225.54
872.16	225.54
872.47	225.53
872.78	225.49
873.09	225.51
873.40	225.48
873.71	225.48
874.02	225.45
874.33	225.43
874.64	225.43
874.95	225.45
875.26	225.46
875.56	225.45
875.87	225.39
876.18	225.38
876.49	225.47
876.80	225.49
877.11	225.44
877.42	225.42
877.73	225.40
878.04	225.34
878.35	225.30
878.66	225.32
878.96	225.33
879.27	225.29
879.58	225.28
879.89	225.28
880.20	225.26
880.51	225.29
880.82	225.29
881.12	225.28
881.43	225.23
881.74	225.20
882.05	225.22
882.36	225.21
882.67	225.20
882.97	225.08
883.28	225.07
883.59	225.05
883.90	225.06
884.21	225.05
884.51	225.02
884.82	225.01
885.13	225.02
885.44	224.99
885.74	225.01
886.05	225.01
886.36	225.00
886.67	224.97
886.98	224.97
887.28	224.96
887.59	224.93
887.90	224.92
888.20	224.92
888.51	224.89
888.82	224.87
889.13	224.84
889.43	224.92
889.74	224.88
890.05	224.84
890.35	224.85
890.66	224.84
890.97	224.82
891.28	224.81
891.58	224.74
891.89	224.73
892.20	224.71
892.50	224.66
892.81	224.66
893.12	224.65
893.42	224.63
893.73	224.64
894.04	224.65
894.34	224.68
894.65	224.68
894.95	224.68
895.26	224.70
895.57	224.80
895.87	224.72
896.18	224.75
896.48	224.79
896.79	224.79
897.10	224.79
897.40	224.84
897.71	224.86
898.01	224.88
898.32	224.89
898.63	224.88
898.93	224.88
899.24	224.89
899.54	224.90
899.85	224.91
900.15	224.86
900.46	224.87
900.76	224.87
901.07	224.87
901.38	224.87
901.68	224.89
901.99	224.80
902.29	224.83
902.60	224.85
902.90	224.86
903.21	224.86
903.51	224.89
903.82	224.89
904.12	224.88
904.43	224.92
904.73	224.93
905.03	224.96
905.34	225.12
905.64	225.13
905.95	225.17
906.25	225.20
906.56	225.26
906.86	225.26
907.17	225.26
907.47	225.25
907.77	225.25
908.08	225.24
908.38	225.29
908.69	225.28
908.99	225.27
909.30	225.27
909.60	225.27
909.90	225.26
910.21	225.26
910.51	225.28
910.81	225.29
911.12	225.29
911.42	225.30
911.73	225.19
912.03	225.17
912.33	225.16
912.64	225.15
912.94	225.15
913.24	225.16
913.55	225.12
913.85	225.14
914.15	225.14
914.46	225.16
914.76	225.15
915.06	225.19
915.37	225.17
915.67	225.17
915.97	225.18
916.27	225.18
916.58	225.18
916.88	225.17
917.18	225.17
917.49	225.22
917.79	225.20
918.09	225.22
918.39	225.24
918.70	225.24
919.00	225.25
919.30	225.28
919.60	225.29
919.91	225.31
920.21	225.33
920.51	225.32
920.81	225.29
921.12	225.30
921.42	225.26
921.72	225.24
922.02	225.26
922.32	225.26
922.63	225.24
922.93	225.29
923.23	225.29
923.53	225.27
923.83	225.21
924.13	225.23
924.44	225.20
924.74	225.20
925.04	225.24
925.34	225.22
925.64	225.19
925.94	225.17
926.24	225.21
926.55	225.20
926.85	225.22
927.15	225.26
927.45	225.26
927.75	225.24
928.05	225.30
928.35	225.28
928.65	225.26
928.95	225.28
929.26	225.22
929.56	225.22
929.86	225.23
930.16	225.23
930.46	225.19
930.76	225.21
931.06	225.16
931.36	225.15
931.66	225.15
931.96	225.16
932.26	225.14
932.56	225.09
932.86	225.04
933.16	225.01
933.46	224.98
933.76	224.94
934.06	224.94
934.36	224.94
934.66	224.92
934.96	224.92
935.26	224.91
935.56	224.94
935.86	224.92
936.16	224.89
936.46	224.89
936.76	224.87
937.06	224.82
937.36	224.82
937.66	224.81
937.96	224.80
938.26	224.77
938.56	224.76
938.86	224.77
939.16	224.81
939.46	224.83
939.76	224.82
940.06	224.84
940.35	224.84
940.65	224.82
940.95	224.85
941.25	224.84
941.55	224.81
941.85	224.79
942.15	224.81
942.45	224.82
942.75	224.85
943.04	224.88
943.34	224.95
943.64	224.95
943.94	224.93
944.24	224.96
944.54	224.92
944.84	224.95
945.13	224.98
945.43	224.96
945.73	224.97
946.03	224.96
946.33	224.96
946.62	224.99
946.92	224.98
947.22	224.99
947.52	224.99
947.82	225.02
948.11	225.01
948.41	224.97
948.71	224.92
949.01	224.94
949.31	224.91
949.60	224.87
949.90	224.90
950.20	224.92
950.50	224.91
950.79	224.96
951.09	224.95
951.39	224.91
951.69	224.91
951.98	224.92
952.28	224.95
952.58	224.94
952.87	224.93
953.17	224.98
953.47	224.94
953.76	224.94
954.06	224.94
954.36	224.95
954.66	224.97
954.95	225.03
955.25	225.01
955.55	225.04
955.84	225.06
956.14	225.07
956.44	225.05
956.73	225.02
957.03	225.02
957.32	225.05
957.62	225.03
957.92	225.04
958.21	225.00
958.51	225.09
958.81	225.10
959.10	225.11
959.40	225.07
959.69	225.07
959.99	225.08
960.29	225.06
960.58	225.04
960.88	225.12
961.17	225.09
961.47	225.10
961.76	225.09
962.06	225.06
962.36	225.06
962.65	225.06
962.95	225.06
963.24	225.05
963.54	225.02
963.83	225.07
964.13	225.05
964.42	225.05
964.72	224.97
965.01	224.95
965.31	224.97
965.60	224.94
965.90	225.00
966.19	224.96
966.49	224.96
966.78	224.95
967.08	224.90
967.37	224.89
967.67	224.87
967.96	224.91
968.26	224.93
968.55	224.92
968.85	224.91
969.14	224.90
969.43	224.90
969.73	224.88
970.02	224.86
970.32	224.83
970.61	224.85
970.91	224.83
971.20	224.84
971.49	224.79
971.79	224.81
972.08	224.74
972.38	224.77
972.67	224.77
972.96	224.80
973.26	224.78
973.55	224.83
973.85	224.80
974.14	224.75
974.43	224.73
974.73	224.71
975.02	224.69
975.31	224.68
975.61	224.66
975.90	224.67
976.19	224.64
976.49	224.69
976.78	224.64
977.07	224.63
977.37	224.63
977.66	224.62
977.95	224.60
978.24	224.61
978.54	224.60
978.83	224.60
979.12	224.59
979.42	224.58
979.71	224.55
980.00	224.57
980.29	224.59
980.59	224.57
980.88	224.58
981.17	224.57
981.46	224.58
981.76	224.59
982.05	224.63
982.34	224.66
982.63	224.67
982.93	224.70
983.22	224.74
983.51	224.74
983.80	224.78
984.09	224.82
984.39	224.80
984.68	224.81
984.97	224.81
985.26	224.84
985.55	224.87
985.85	224.86
986.14	224.88
986.43	224.88
986.72	224.88
987.01	224.86
987.30	224.87
987.59	224.87
987.89	224.86
988.18	224.82
988.47	224.80
988.76	224.75
989.05	224.73
989.34	224.73
989.63	224.75
989.92	224.75
990.22	224.76
990.51	224.77
990.80	224.77
991.09	224.79
991.38	224.81
991.67	224.78
991.96	224.76
992.25	224.78
992.54	224.77
992.83	224.80
993.12	224.81
993.41	224.84
993.70	224.90
993.99	224.94
994.28	224.95
994.58	224.95
994.87	224.96
995.16	224.94
995.45	224.94
995.74	224.90
996.03	224.92
996.32	224.90
996.61	224.92
996.90	224.91
997.19	224.89
997.48	224.86
997.77	224.84
998.06	224.83
998.34	224.79
998.63	224.80
998.92	224.79
999.21	224.79
999.50	224.79
999.79	224.74
1000.08	224.74
1000.37	224.72
1000.66	224.72
1000.95	224.78
1001.24	224.81
1001.53	224.82
1001.82	224.84
1002.11	224.79
1002.40	224.83
1002.68	224.84
1002.97	224.92
1003.26	224.93
1003.55	224.93
1003.84	224.95
1004.13	224.99
1004.42	225.01
1004.71	224.99
1004.99	224.98
1005.28	225.04
1005.57	225.01
1005.86	225.00
1006.15	224.98
1006.44	224.96
1006.72	224.96
1007.01	224.93
1007.30	224.94
1007.59	224.93
1007.88	224.91
1008.17	224.91
1008.45	224.86
1008.74	224.83
1009.03	224.75
1009.32	224.73
1009.60	224.71
1009.89	224.71
1010.18	224.69
1010.47	224.68
1010.76	224.69
1011.04	224.68
1011.33	224.67
1011.62	224.68
1011.91	224.68
1012.19	224.68
1012.48	224.71
1012.77	224.71
1013.05	224.76
1013.34	224.76
1013.63	224.75
1013.92	224.77
1014.20	224.74
1014.49	224.75
1014.78	224.75
1015.06	224.73
1015.35	224.73
1015.64	224.77
1015.92	224.78
1016.21	224.77
1016.50	224.77
1016.78	224.79
1017.07	224.78
1017.36	224.72
1017.64	224.76
1017.93	224.77
1018.22	224.76
1018.50	224.76
1018.79	224.77
1019.08	224.69
1019.36	224.71
1019.65	224.72
1019.93	224.72
1020.22	224.76
1020.51	224.85
1020.79	224.84
1021.08	224.59
1021.36	224.80
1021.65	224.56
1021.94	224.51
1022.22	225.29
1022.51	225.03
1022.79	224.83
1023.08	225.05
1023.36	226.34
1023.65	224.87
>>>>>End Processed Spectral Data<<<<<
