SpectraSuite Data File
++++++++++++++++++++++++++++++++++++
Date: Fri Feb 01 17:25:09 EST 2013
User: group
Dark Spectrum Present: No
Reference Spectrum Present: No
Number of Sampled Component Spectra: 1
Spectrometers: USB2E7196
Integration Time (usec): 35000 (USB2E7196)
Spectra Averaged: 100 (USB2E7196)
Boxcar Smoothing: 10 (USB2E7196)
Correct for Electrical Dark: No (USB2E7196)
Strobe/Lamp Enabled: No (USB2E7196)
Correct for Detector Non-linearity: No (USB2E7196)
Correct for Stray Light: No (USB2E7196)
Number of Pixels in Processed Spectrum: 2048
>>>>>Begin Processed Spectral Data<<<<<
339.09	0.00
339.48	212.81
339.86	214.52
340.24	215.97
340.63	217.25
341.01	220.38
341.39	220.12
341.78	221.59
342.16	221.99
342.54	222.43
342.93	211.36
343.31	222.05
343.69	222.58
344.07	223.03
344.46	223.44
344.84	223.81
345.22	224.01
345.60	224.26
345.99	224.42
346.37	224.56
346.75	224.68
347.13	224.68
347.52	224.76
347.90	224.81
348.28	224.87
348.66	224.87
349.05	224.86
349.43	224.88
349.81	224.89
350.19	224.94
350.57	224.99
350.96	225.08
351.34	225.12
351.72	225.20
352.10	225.29
352.48	225.34
352.87	225.40
353.25	225.43
353.63	225.47
354.01	225.48
354.39	225.57
354.77	225.64
355.15	225.74
355.54	225.78
355.92	225.82
356.30	225.88
356.68	226.03
357.06	226.10
357.44	226.15
357.82	226.26
358.20	226.33
358.58	226.42
358.97	226.46
359.35	226.56
359.73	226.68
360.11	226.75
360.49	226.81
360.87	226.84
361.25	226.90
361.63	226.97
362.01	227.09
362.39	227.09
362.77	227.16
363.15	227.19
363.53	227.28
363.91	227.27
364.29	227.28
364.67	227.18
365.05	227.19
365.43	227.22
365.81	227.22
366.19	227.25
366.57	227.27
366.95	227.27
367.33	227.24
367.71	227.20
368.09	227.19
368.47	227.19
368.85	227.20
369.23	227.23
369.61	227.20
369.99	227.19
370.37	227.21
370.75	227.19
371.13	227.18
371.51	227.09
371.89	227.09
372.27	227.06
372.65	227.03
373.03	227.01
373.41	226.97
373.78	226.93
374.16	226.83
374.54	226.76
374.92	226.70
375.30	226.65
375.68	226.58
376.06	226.55
376.44	226.45
376.82	226.41
377.19	226.34
377.57	226.28
377.95	226.18
378.33	226.09
378.71	225.99
379.09	225.92
379.47	225.88
379.84	225.83
380.22	225.75
380.60	225.68
380.98	225.61
381.36	225.55
381.73	225.49
382.11	225.45
382.49	225.39
382.87	225.35
383.25	225.27
383.62	225.32
384.00	225.23
384.38	225.21
384.76	225.15
385.13	225.14
385.51	225.09
385.89	225.03
386.27	225.01
386.64	224.97
387.02	224.91
387.40	224.85
387.78	224.84
388.15	224.81
388.53	224.77
388.91	224.73
389.29	224.71
389.66	224.69
390.04	224.64
390.42	224.62
390.79	224.61
391.17	224.59
391.55	224.48
391.92	224.50
392.30	224.51
392.68	224.50
393.05	224.47
393.43	224.48
393.81	224.50
394.18	224.47
394.56	224.51
394.94	224.55
395.31	224.54
395.69	224.55
396.06	224.60
396.44	224.64
396.82	224.67
397.19	224.73
397.57	224.77
397.95	224.86
398.32	224.88
398.70	224.90
399.07	225.00
399.45	225.04
399.82	225.10
400.20	225.14
400.58	225.18
400.95	225.24
401.33	225.32
401.70	225.46
402.08	225.55
402.45	225.60
402.83	225.70
403.20	225.84
403.58	225.95
403.95	226.07
404.33	226.20
404.71	226.31
405.08	226.48
405.46	226.58
405.83	226.74
406.21	226.92
406.58	227.10
406.96	227.28
407.33	227.44
407.70	227.60
408.08	227.87
408.45	228.12
408.83	228.35
409.20	228.59
409.58	228.76
409.95	229.05
410.33	229.32
410.70	229.58
411.08	229.87
411.45	230.18
411.82	230.46
412.20	230.80
412.57	231.24
412.95	231.56
413.32	232.01
413.69	232.38
414.07	232.83
414.44	233.29
414.82	233.75
415.19	234.31
415.56	234.90
415.94	235.43
416.31	236.08
416.68	236.71
417.06	237.45
417.43	238.18
417.81	238.97
418.18	239.76
418.55	240.62
418.93	241.53
419.30	242.45
419.67	243.46
420.04	244.49
420.42	245.51
420.79	246.72
421.16	247.90
421.54	249.15
421.91	250.38
422.28	251.70
422.66	253.07
423.03	254.44
423.40	255.84
423.77	257.29
424.15	258.75
424.52	260.30
424.89	261.92
425.26	263.52
425.64	265.01
426.01	266.70
426.38	268.44
426.75	270.13
427.13	271.94
427.50	273.83
427.87	275.76
428.24	277.69
428.61	279.52
428.99	281.56
429.36	283.70
429.73	285.82
430.10	287.91
430.47	290.07
430.85	292.28
431.22	294.62
431.59	297.15
431.96	299.49
432.33	302.06
432.70	304.59
433.08	307.47
433.45	310.25
433.82	312.92
434.19	315.89
434.56	318.82
434.93	321.55
435.30	324.25
435.68	327.23
436.05	330.16
436.42	333.08
436.79	335.67
437.16	338.52
437.53	341.50
437.90	344.43
438.27	347.25
438.64	350.17
439.01	352.82
439.38	355.11
439.75	357.36
440.13	359.96
440.50	362.33
440.87	364.23
441.24	366.22
441.61	368.47
441.98	370.05
442.35	371.93
442.72	373.87
443.09	375.75
443.46	376.85
443.83	377.50
444.20	378.02
444.57	378.91
444.94	379.22
445.31	379.62
445.68	380.02
446.05	380.14
446.42	379.80
446.79	379.38
447.16	378.98
447.53	378.70
447.90	377.51
448.27	376.35
448.64	374.79
449.01	373.63
449.37	371.67
449.74	369.77
450.11	367.48
450.48	364.95
450.85	362.34
451.22	360.08
451.59	357.97
451.96	356.00
452.33	353.30
452.70	350.90
453.07	347.93
453.43	344.91
453.80	342.06
454.17	339.22
454.54	336.61
454.91	333.75
455.28	330.94
455.65	328.40
456.02	325.85
456.38	323.63
456.75	320.84
457.12	318.48
457.49	316.11
457.86	313.84
458.23	311.93
458.59	309.78
458.96	307.63
459.33	305.68
459.70	303.73
460.07	302.18
460.43	300.35
460.80	298.67
461.17	297.19
461.54	295.62
461.91	294.15
462.27	292.60
462.64	291.29
463.01	289.90
463.38	288.54
463.74	287.15
464.11	285.87
464.48	284.82
464.85	283.67
465.21	282.73
465.58	281.77
465.95	280.62
466.32	279.70
466.68	278.76
467.05	277.85
467.42	276.89
467.78	275.91
468.15	275.01
468.52	274.29
468.88	273.37
469.25	272.59
469.62	271.97
469.98	271.29
470.35	270.66
470.72	270.02
471.08	269.28
471.45	268.68
471.82	268.17
472.18	267.58
472.55	267.11
472.92	266.58
473.28	266.10
473.65	265.60
474.02	265.15
474.38	264.79
474.75	264.45
475.11	264.10
475.48	263.86
475.85	263.61
476.21	263.39
476.58	263.20
476.94	263.02
477.31	262.86
477.67	262.71
478.04	262.57
478.41	262.53
478.77	262.64
479.14	262.59
479.50	262.57
479.87	262.60
480.23	262.69
480.60	262.76
480.96	262.85
481.33	263.10
481.69	263.28
482.06	263.48
482.42	263.69
482.79	263.93
483.15	264.21
483.52	264.56
483.88	264.91
484.25	265.33
484.61	265.77
484.98	266.21
485.34	266.79
485.71	267.42
486.07	267.98
486.44	268.52
486.80	269.23
487.17	269.97
487.53	270.82
487.90	271.66
488.26	272.60
488.62	273.57
488.99	274.53
489.35	275.62
489.72	276.66
490.08	277.82
490.44	279.06
490.81	280.41
491.17	281.79
491.54	283.28
491.90	284.79
492.26	286.39
492.63	288.12
492.99	289.86
493.36	291.68
493.72	293.74
494.08	295.87
494.45	298.11
494.81	300.48
495.17	302.89
495.54	305.45
495.90	308.14
496.26	310.90
496.63	313.83
496.99	316.87
497.35	320.18
497.72	323.60
498.08	327.09
498.44	330.73
498.80	334.67
499.17	338.64
499.53	342.71
499.89	347.09
500.26	351.55
500.62	356.18
500.98	361.13
501.34	366.14
501.71	371.36
502.07	376.75
502.43	382.26
502.79	387.98
503.16	393.97
503.52	400.15
503.88	406.52
504.24	413.10
504.60	419.89
504.97	426.94
505.33	434.13
505.69	441.78
506.05	449.44
506.41	457.15
506.78	465.17
507.14	473.54
507.50	482.13
507.86	491.02
508.22	500.02
508.59	509.09
508.95	518.47
509.31	528.14
509.67	537.95
510.03	548.03
510.39	558.47
510.75	569.02
511.12	579.77
511.48	590.82
511.84	602.04
512.20	613.32
512.56	624.95
512.92	636.81
513.28	648.89
513.64	661.10
514.00	673.50
514.37	686.18
514.73	698.89
515.09	711.59
515.45	724.51
515.81	737.88
516.17	751.47
516.53	765.33
516.89	779.21
517.25	793.06
517.61	807.13
517.97	821.24
518.33	835.40
518.69	849.75
519.05	864.37
519.41	879.14
519.77	894.31
520.13	909.33
520.49	924.38
520.85	939.26
521.21	954.49
521.57	970.27
521.93	985.62
522.29	1001.55
522.65	1017.40
523.01	1033.18
523.37	1048.76
523.73	1064.53
524.09	1080.02
524.45	1095.76
524.81	1111.99
525.17	1128.38
525.53	1144.68
525.89	1161.09
526.25	1177.46
526.61	1193.43
526.97	1209.74
527.33	1225.81
527.68	1242.02
528.04	1258.02
528.40	1274.21
528.76	1290.84
529.12	1307.08
529.48	1323.56
529.84	1339.22
530.20	1355.46
530.56	1372.10
530.91	1389.15
531.27	1405.62
531.63	1421.79
531.99	1437.94
532.35	1453.63
532.71	1469.12
533.07	1485.04
533.42	1500.62
533.78	1516.43
534.14	1532.28
534.50	1547.36
534.86	1562.83
535.21	1577.80
535.57	1593.38
535.93	1608.65
536.29	1623.23
536.65	1637.88
537.00	1652.40
537.36	1667.48
537.72	1681.79
538.08	1696.04
538.44	1709.46
538.79	1723.02
539.15	1736.51
539.51	1750.14
539.87	1764.30
540.22	1777.87
540.58	1791.51
540.94	1804.41
541.29	1817.04
541.65	1829.59
542.01	1842.57
542.37	1854.79
542.72	1867.10
543.08	1878.94
543.44	1891.25
543.79	1902.44
544.15	1913.47
544.51	1925.05
544.87	1935.92
545.22	1946.76
545.58	1956.89
545.94	1966.74
546.29	1976.61
546.65	1986.61
547.01	1996.01
547.36	2004.85
547.72	2013.53
548.07	2021.54
548.43	2029.95
548.79	2037.97
549.14	2045.77
549.50	2053.15
549.86	2060.89
550.21	2068.33
550.57	2075.74
550.92	2082.47
551.28	2089.72
551.64	2097.03
551.99	2103.72
552.35	2110.16
552.70	2116.45
553.06	2122.62
553.41	2129.12
553.77	2135.44
554.13	2141.66
554.48	2147.97
554.84	2153.69
555.19	2159.02
555.55	2164.45
555.90	2169.40
556.26	2174.81
556.61	2179.73
556.97	2184.53
557.32	2189.04
557.68	2193.50
558.03	2197.78
558.39	2201.72
558.74	2206.55
559.10	2210.63
559.45	2214.55
559.81	2219.09
560.16	2223.21
560.52	2226.88
560.87	2230.75
561.23	2233.71
561.58	2236.90
561.94	2239.84
562.29	2242.45
562.64	2245.79
563.00	2248.61
563.35	2252.31
563.71	2255.81
564.06	2259.21
564.42	2262.48
564.77	2265.56
565.12	2268.37
565.48	2270.81
565.83	2273.21
566.19	2275.10
566.54	2276.37
566.89	2277.92
567.25	2279.04
567.60	2280.79
567.96	2283.01
568.31	2284.12
568.66	2285.60
569.02	2286.61
569.37	2287.41
569.72	2288.86
570.08	2289.49
570.43	2289.85
570.78	2289.80
571.14	2288.67
571.49	2287.85
571.84	2287.80
572.20	2287.15
572.55	2286.40
572.90	2285.19
573.26	2284.09
573.61	2282.55
573.96	2281.38
574.31	2278.85
574.67	2276.31
575.02	2272.99
575.37	2269.83
575.72	2266.60
576.08	2263.62
576.43	2260.58
576.78	2257.30
577.13	2254.22
577.49	2251.15
577.84	2248.07
578.19	2244.47
578.54	2241.19
578.90	2237.36
579.25	2232.18
579.60	2227.34
579.95	2222.68
580.30	2217.98
580.66	2213.23
581.01	2208.61
581.36	2203.96
581.71	2200.06
582.06	2195.93
582.42	2191.83
582.77	2186.91
583.12	2182.69
583.47	2178.41
583.82	2173.89
584.17	2168.94
584.53	2163.70
584.88	2158.50
585.23	2153.29
585.58	2148.18
585.93	2143.07
586.28	2138.53
586.63	2133.74
586.98	2128.96
587.34	2124.27
587.69	2119.67
588.04	2114.84
588.39	2109.55
588.74	2103.31
589.09	2097.30
589.44	2090.80
589.79	2084.87
590.14	2079.34
590.49	2072.82
590.84	2066.54
591.19	2060.71
591.54	2054.43
591.89	2047.52
592.25	2040.91
592.60	2033.82
592.95	2026.58
593.30	2019.28
593.65	2011.78
594.00	2004.85
594.35	1997.74
594.70	1989.96
595.05	1983.04
595.40	1975.67
595.75	1968.26
596.10	1962.30
596.45	1955.87
596.80	1949.86
597.15	1943.48
597.50	1936.74
597.85	1930.48
598.19	1923.95
598.54	1917.10
598.89	1910.40
599.24	1904.49
599.59	1898.06
599.94	1891.74
600.29	1885.34
600.64	1878.83
600.99	1871.66
601.34	1865.02
601.69	1858.11
602.04	1851.45
602.39	1844.15
602.74	1837.52
603.08	1831.00
603.43	1824.22
603.78	1816.95
604.13	1809.70
604.48	1802.54
604.83	1795.70
605.18	1788.94
605.53	1781.04
605.87	1772.88
606.22	1765.83
606.57	1757.93
606.92	1750.49
607.27	1743.49
607.62	1736.85
607.96	1729.57
608.31	1723.03
608.66	1715.46
609.01	1707.94
609.36	1700.32
609.70	1692.32
610.05	1684.33
610.40	1676.68
610.75	1668.40
611.10	1660.69
611.44	1652.26
611.79	1644.23
612.14	1635.49
612.49	1626.18
612.83	1617.77
613.18	1609.63
613.53	1601.42
613.88	1592.74
614.22	1584.42
614.57	1575.64
614.92	1567.48
615.27	1560.01
615.61	1551.69
615.96	1543.51
616.31	1535.80
616.65	1528.29
617.00	1520.65
617.35	1512.80
617.70	1504.38
618.04	1495.81
618.39	1487.49
618.74	1479.80
619.08	1471.37
619.43	1463.71
619.78	1456.67
620.12	1449.42
620.47	1441.84
620.82	1433.53
621.16	1426.04
621.51	1418.24
621.85	1410.63
622.20	1401.96
622.55	1393.35
622.89	1385.36
623.24	1377.67
623.59	1370.05
623.93	1362.52
624.28	1355.09
624.62	1347.53
624.97	1340.21
625.32	1333.26
625.66	1326.13
626.01	1318.87
626.35	1311.38
626.70	1303.54
627.04	1295.80
627.39	1288.00
627.73	1280.59
628.08	1273.65
628.43	1266.37
628.77	1259.08
629.12	1251.47
629.46	1244.13
629.81	1236.60
630.15	1229.17
630.50	1221.72
630.84	1213.56
631.19	1205.49
631.53	1197.94
631.88	1190.22
632.22	1182.50
632.57	1175.11
632.91	1167.45
633.26	1159.97
633.60	1152.45
633.95	1145.11
634.29	1137.86
634.64	1130.93
634.98	1123.48
635.32	1116.25
635.67	1109.50
636.01	1102.71
636.36	1095.82
636.70	1089.32
637.05	1082.75
637.39	1076.33
637.73	1069.74
638.08	1063.83
638.42	1057.79
638.77	1051.33
639.11	1044.82
639.45	1038.41
639.80	1031.75
640.14	1025.37
640.49	1018.80
640.83	1012.51
641.17	1006.43
641.52	1000.03
641.86	993.48
642.20	987.55
642.55	981.12
642.89	974.63
643.23	967.94
643.58	962.02
643.92	955.76
644.26	949.66
644.61	943.50
644.95	937.41
645.29	930.83
645.64	924.03
645.98	917.61
646.32	911.51
646.66	905.31
647.01	899.40
647.35	893.68
647.69	887.71
648.04	882.03
648.38	876.22
648.72	870.39
649.06	864.42
649.41	858.50
649.75	852.64
650.09	846.71
650.43	840.93
650.78	834.80
651.12	828.78
651.46	822.99
651.80	817.35
652.14	811.93
652.49	806.52
652.83	801.32
653.17	795.68
653.51	790.04
653.85	784.60
654.20	779.08
654.54	772.97
654.88	767.24
655.22	761.29
655.56	755.48
655.90	749.91
656.25	744.63
656.59	739.22
656.93	734.01
657.27	728.79
657.61	723.37
657.95	718.28
658.29	713.17
658.64	707.93
658.98	702.43
659.32	696.93
659.66	691.67
660.00	686.35
660.34	681.29
660.68	676.36
661.02	671.29
661.36	666.48
661.70	662.01
662.05	657.66
662.39	653.39
662.73	648.89
663.07	644.42
663.41	639.97
663.75	635.45
664.09	630.82
664.43	626.39
664.77	622.25
665.11	617.97
665.45	613.80
665.79	609.72
666.13	605.62
666.47	601.48
666.81	597.30
667.15	593.14
667.49	589.23
667.83	585.38
668.17	581.46
668.51	577.36
668.85	573.26
669.19	569.35
669.53	565.53
669.87	561.63
670.21	557.92
670.55	554.22
670.89	550.76
671.23	547.30
671.57	543.80
671.91	540.24
672.25	536.67
672.58	533.16
672.92	529.70
673.26	526.45
673.60	523.21
673.94	520.13
674.28	517.26
674.62	514.33
674.96	511.20
675.30	508.31
675.64	505.36
675.97	502.53
676.31	499.58
676.65	496.62
676.99	493.86
677.33	491.02
677.67	488.18
678.01	485.11
678.34	482.17
678.68	479.14
679.02	476.29
679.36	473.53
679.70	470.75
680.04	467.95
680.37	465.12
680.71	462.33
681.05	459.64
681.39	456.82
681.73	454.07
682.06	451.49
682.40	448.92
682.74	446.37
683.08	443.80
683.42	441.22
683.75	438.70
684.09	436.07
684.43	433.54
684.77	431.05
685.10	428.69
685.44	426.34
685.78	424.10
686.12	421.84
686.45	419.51
686.79	417.23
687.13	414.95
687.46	412.71
687.80	410.55
688.14	408.30
688.48	406.25
688.81	404.05
689.15	401.86
689.49	399.65
689.82	397.57
690.16	395.47
690.50	393.48
690.83	391.46
691.17	389.48
691.51	387.60
691.84	385.69
692.18	383.78
692.52	381.80
692.85	379.81
693.19	377.87
693.52	376.02
693.86	374.11
694.20	372.31
694.53	370.55
694.87	368.64
695.21	366.79
695.54	364.90
695.88	363.16
696.21	361.44
696.55	359.73
696.88	357.97
697.22	356.25
697.56	354.67
697.89	353.03
698.23	351.43
698.56	349.78
698.90	348.23
699.23	346.55
699.57	344.99
699.90	343.44
700.24	341.90
700.58	340.41
700.91	338.94
701.25	337.48
701.58	336.08
701.92	334.74
702.25	333.35
702.59	331.96
702.92	330.56
703.26	329.24
703.59	327.97
703.93	326.79
704.26	325.55
704.60	324.19
704.93	322.86
705.26	321.59
705.60	320.39
705.93	319.16
706.27	318.11
706.60	317.00
706.94	315.92
707.27	314.75
707.61	313.60
707.94	312.56
708.27	311.49
708.61	310.38
708.94	309.36
709.28	308.39
709.61	307.43
709.94	306.48
710.28	305.43
710.61	304.41
710.95	303.30
711.28	302.36
711.61	301.39
711.95	300.50
712.28	299.55
712.61	298.54
712.95	297.62
713.28	296.68
713.61	295.80
713.95	294.91
714.28	294.07
714.61	293.21
714.95	292.32
715.28	291.45
715.61	290.55
715.95	289.65
716.28	288.76
716.61	287.88
716.95	287.04
717.28	286.30
717.61	285.49
717.94	284.76
718.28	283.95
718.61	283.22
718.94	282.51
719.27	281.86
719.61	281.18
719.94	280.51
720.27	279.78
720.60	279.09
720.94	278.43
721.27	277.82
721.60	277.22
721.93	276.62
722.27	276.02
722.60	275.44
722.93	274.88
723.26	274.38
723.59	273.85
723.93	273.31
724.26	272.74
724.59	272.19
724.92	271.62
725.25	271.13
725.59	270.63
725.92	270.11
726.25	269.55
726.58	269.04
726.91	268.56
727.24	268.09
727.57	267.58
727.91	267.05
728.24	266.57
728.57	266.10
728.90	265.67
729.23	265.20
729.56	264.82
729.89	264.32
730.22	263.80
730.55	263.28
730.89	262.82
731.22	262.33
731.55	261.88
731.88	261.46
732.21	260.99
732.54	260.50
732.87	260.05
733.20	259.63
733.53	259.28
733.86	258.83
734.19	258.44
734.52	258.08
734.85	257.77
735.18	257.37
735.51	256.98
735.84	256.55
736.17	256.17
736.50	255.75
736.83	255.54
737.16	255.21
737.49	254.90
737.82	254.56
738.15	254.26
738.48	253.96
738.81	253.62
739.14	253.30
739.47	253.00
739.80	252.69
740.13	252.41
740.46	252.08
740.79	251.79
741.12	251.45
741.45	251.12
741.78	250.75
742.11	250.45
742.44	250.11
742.77	249.82
743.10	249.54
743.43	249.24
743.75	248.80
744.08	248.63
744.41	248.35
744.74	248.09
745.07	247.76
745.40	247.48
745.73	247.24
746.06	246.97
746.39	246.70
746.71	246.39
747.04	246.09
747.37	245.78
747.70	245.51
748.03	245.26
748.36	245.02
748.68	244.80
749.01	244.51
749.34	244.28
749.67	244.04
750.00	243.81
750.33	243.65
750.65	243.48
750.98	243.16
751.31	242.93
751.64	242.72
751.97	242.57
752.29	242.34
752.62	242.05
752.95	241.85
753.28	241.66
753.60	241.47
753.93	241.30
754.26	241.13
754.59	240.90
754.91	240.70
755.24	240.50
755.57	240.30
755.90	240.13
756.22	239.92
756.55	239.71
756.88	239.46
757.20	239.20
757.53	238.97
757.86	238.76
758.19	238.57
758.51	238.37
758.84	238.14
759.17	237.97
759.49	237.82
759.82	237.68
760.15	237.48
760.47	237.32
760.80	237.14
761.13	237.00
761.45	236.84
761.78	236.69
762.11	236.52
762.43	236.39
762.76	236.25
763.08	236.13
763.41	236.01
763.74	235.91
764.06	235.75
764.39	235.60
764.71	235.50
765.04	235.36
765.37	235.22
765.69	235.10
766.02	235.00
766.34	234.88
766.67	234.70
767.00	234.63
767.32	234.60
767.65	234.58
767.97	234.43
768.30	234.32
768.62	234.20
768.95	234.09
769.27	233.95
769.60	233.85
769.92	233.75
770.25	233.67
770.57	233.57
770.90	233.50
771.22	233.38
771.55	233.27
771.87	233.18
772.20	233.11
772.52	233.14
772.85	233.16
773.17	233.07
773.50	233.02
773.82	232.91
774.15	232.78
774.47	232.61
774.80	232.55
775.12	232.48
775.45	232.45
775.77	232.40
776.09	232.33
776.42	232.25
776.74	232.21
777.07	232.13
777.39	232.05
777.72	231.94
778.04	231.93
778.36	231.87
778.69	231.81
779.01	231.73
779.33	231.58
779.66	231.38
779.98	231.35
780.31	231.30
780.63	231.29
780.95	231.25
781.28	231.17
781.60	231.12
781.92	231.05
782.25	230.97
782.57	230.88
782.89	230.84
783.22	230.78
783.54	230.68
783.86	230.62
784.19	230.56
784.51	230.54
784.83	230.47
785.16	230.44
785.48	230.43
785.80	230.38
786.12	230.30
786.45	230.27
786.77	230.21
787.09	230.12
787.42	229.99
787.74	229.90
788.06	229.87
788.38	229.76
788.71	229.74
789.03	229.69
789.35	229.66
789.67	229.57
789.99	229.55
790.32	229.49
790.64	229.44
790.96	229.48
791.28	229.42
791.61	229.34
791.93	229.26
792.25	229.15
792.57	229.18
792.89	229.15
793.21	229.08
793.54	228.98
793.86	228.92
794.18	228.90
794.50	228.88
794.82	228.84
795.14	228.85
795.47	228.77
795.79	228.73
796.11	228.67
796.43	228.65
796.75	228.59
797.07	228.58
797.39	228.51
797.71	228.36
798.04	228.30
798.36	228.28
798.68	228.25
799.00	228.25
799.32	228.12
799.64	228.10
799.96	228.07
800.28	228.07
800.60	228.01
800.92	227.97
801.24	227.91
801.56	227.87
801.89	227.84
802.21	227.85
802.53	227.80
802.85	227.77
803.17	227.77
803.49	227.68
803.81	227.61
804.13	227.57
804.45	227.55
804.77	227.53
805.09	227.49
805.41	227.48
805.73	227.42
806.05	227.37
806.37	227.30
806.69	227.24
807.01	227.26
807.33	227.27
807.65	227.21
807.97	227.24
808.28	227.22
808.60	227.18
808.92	227.15
809.24	227.15
809.56	227.13
809.88	227.09
810.20	227.10
810.52	227.08
810.84	227.08
811.16	227.08
811.48	227.07
811.80	227.12
812.12	227.09
812.43	227.11
812.75	227.11
813.07	227.12
813.39	227.15
813.71	227.11
814.03	227.09
814.35	227.10
814.67	227.03
814.98	227.02
815.30	226.99
815.62	226.93
815.94	226.90
816.26	226.95
816.58	226.93
816.89	226.94
817.21	226.96
817.53	226.98
817.85	226.94
818.17	226.94
818.48	226.88
818.80	226.89
819.12	226.85
819.44	226.82
819.76	226.79
820.07	226.73
820.39	226.72
820.71	226.72
821.03	226.71
821.34	226.68
821.66	226.68
821.98	226.68
822.30	226.68
822.61	226.71
822.93	226.64
823.25	226.63
823.57	226.60
823.88	226.59
824.20	226.59
824.52	226.64
824.83	226.63
825.15	226.62
825.47	226.60
825.79	226.62
826.10	226.62
826.42	226.62
826.74	226.65
827.05	226.62
827.37	226.60
827.69	226.57
828.00	226.59
828.32	226.57
828.64	226.56
828.95	226.60
829.27	226.56
829.58	226.53
829.90	226.51
830.22	226.52
830.53	226.50
830.85	226.46
831.17	226.38
831.48	226.36
831.80	226.32
832.11	226.29
832.43	226.24
832.75	226.23
833.06	226.28
833.38	226.23
833.69	226.25
834.01	226.23
834.32	226.23
834.64	226.21
834.96	226.21
835.27	226.20
835.59	226.15
835.90	226.11
836.22	226.11
836.53	226.09
836.85	226.04
837.16	226.12
837.48	226.10
837.79	226.13
838.11	226.15
838.42	226.16
838.74	226.13
839.05	226.11
839.37	226.07
839.68	225.99
840.00	225.96
840.31	225.96
840.63	225.95
840.94	225.92
841.26	225.89
841.57	225.87
841.88	225.86
842.20	225.83
842.51	225.83
842.83	225.82
843.14	225.90
843.46	225.92
843.77	225.84
844.08	225.85
844.40	225.80
844.71	225.76
845.03	225.74
845.34	225.73
845.65	225.76
845.97	225.75
846.28	225.74
846.60	225.75
846.91	225.72
847.22	225.73
847.54	225.73
847.85	225.72
848.16	225.71
848.48	225.70
848.79	225.72
849.10	225.73
849.42	225.72
849.73	225.61
850.04	225.60
850.36	225.56
850.67	225.54
850.98	225.53
851.30	225.52
851.61	225.50
851.92	225.49
852.23	225.48
852.55	225.51
852.86	225.52
853.17	225.51
853.49	225.51
853.80	225.50
854.11	225.51
854.42	225.52
854.74	225.50
855.05	225.50
855.36	225.50
855.67	225.50
855.99	225.51
856.30	225.62
856.61	225.62
856.92	225.64
857.23	225.67
857.55	225.67
857.86	225.67
858.17	225.72
858.48	225.70
858.79	225.69
859.11	225.69
859.42	225.67
859.73	225.65
860.04	225.66
860.35	225.65
860.66	225.65
860.98	225.63
861.29	225.65
861.60	225.63
861.91	225.65
862.22	225.63
862.53	225.61
862.84	225.51
863.16	225.56
863.47	225.53
863.78	225.47
864.09	225.51
864.40	225.54
864.71	225.53
865.02	225.56
865.33	225.56
865.64	225.54
865.95	225.55
866.27	225.61
866.58	225.60
866.89	225.62
867.20	225.61
867.51	225.60
867.82	225.59
868.13	225.64
868.44	225.59
868.75	225.59
869.06	225.64
869.37	225.64
869.68	225.61
869.99	225.63
870.30	225.66
870.61	225.66
870.92	225.61
871.23	225.59
871.54	225.60
871.85	225.59
872.16	225.62
872.47	225.59
872.78	225.54
873.09	225.51
873.40	225.49
873.71	225.51
874.02	225.52
874.33	225.51
874.64	225.49
874.95	225.52
875.26	225.50
875.56	225.49
875.87	225.45
876.18	225.44
876.49	225.51
876.80	225.49
877.11	225.43
877.42	225.45
877.73	225.44
878.04	225.42
878.35	225.41
878.66	225.40
878.96	225.40
879.27	225.42
879.58	225.40
879.89	225.41
880.20	225.43
880.51	225.39
880.82	225.35
881.12	225.30
881.43	225.25
881.74	225.21
882.05	225.15
882.36	225.18
882.67	225.16
882.97	225.04
883.28	225.02
883.59	225.01
883.90	225.01
884.21	225.04
884.51	225.00
884.82	225.00
885.13	224.98
885.44	224.96
885.74	224.94
886.05	224.97
886.36	224.95
886.67	224.90
886.98	224.94
887.28	224.97
887.59	225.00
887.90	225.01
888.20	225.04
888.51	225.06
888.82	225.04
889.13	225.06
889.43	225.10
889.74	225.11
890.05	225.09
890.35	225.07
890.66	225.03
890.97	225.03
891.28	225.00
891.58	225.02
891.89	225.02
892.20	224.99
892.50	224.95
892.81	224.90
893.12	224.91
893.42	224.83
893.73	224.83
894.04	224.80
894.34	224.79
894.65	224.76
894.95	224.74
895.26	224.75
895.57	224.77
895.87	224.69
896.18	224.71
896.48	224.74
896.79	224.77
897.10	224.74
897.40	224.74
897.71	224.76
898.01	224.72
898.32	224.76
898.63	224.76
898.93	224.81
899.24	224.83
899.54	224.83
899.85	224.85
900.15	224.84
900.46	224.84
900.76	224.88
901.07	224.91
901.38	224.90
901.68	224.92
901.99	224.87
902.29	224.89
902.60	224.88
902.90	224.87
903.21	224.85
903.51	224.91
903.82	224.95
904.12	224.96
904.43	224.96
904.73	224.93
905.03	224.97
905.34	225.03
905.64	225.02
905.95	225.05
906.25	225.07
906.56	225.11
906.86	225.13
907.17	225.13
907.47	225.11
907.77	225.13
908.08	225.11
908.38	225.15
908.69	225.18
908.99	225.20
909.30	225.21
909.60	225.23
909.90	225.20
910.21	225.19
910.51	225.21
910.81	225.25
911.12	225.26
911.42	225.26
911.73	225.16
912.03	225.20
912.33	225.20
912.64	225.18
912.94	225.15
913.24	225.16
913.55	225.14
913.85	225.12
914.15	225.13
914.46	225.16
914.76	225.13
915.06	225.12
915.37	225.10
915.67	225.10
915.97	225.08
916.27	225.05
916.58	225.02
916.88	225.01
917.18	224.99
917.49	225.04
917.79	225.01
918.09	225.04
918.39	225.05
918.70	225.05
919.00	225.10
919.30	225.11
919.60	225.11
919.91	225.10
920.21	225.10
920.51	225.08
920.81	225.02
921.12	225.05
921.42	225.02
921.72	225.03
922.02	225.02
922.32	225.02
922.63	225.04
922.93	225.11
923.23	225.09
923.53	225.06
923.83	225.02
924.13	225.03
924.44	225.02
924.74	225.02
925.04	225.02
925.34	224.96
925.64	224.92
925.94	224.89
926.24	224.93
926.55	224.92
926.85	224.94
927.15	224.94
927.45	224.93
927.75	224.97
928.05	224.94
928.35	224.93
928.65	224.96
928.95	224.96
929.26	224.90
929.56	224.91
929.86	224.88
930.16	224.84
930.46	224.83
930.76	224.76
931.06	224.70
931.36	224.67
931.66	224.71
931.96	224.76
932.26	224.74
932.56	224.68
932.86	224.69
933.16	224.69
933.46	224.70
933.76	224.67
934.06	224.67
934.36	224.70
934.66	224.70
934.96	224.68
935.26	224.68
935.56	224.69
935.86	224.65
936.16	224.68
936.46	224.70
936.76	224.71
937.06	224.73
937.36	224.77
937.66	224.78
937.96	224.78
938.26	224.76
938.56	224.77
938.86	224.79
939.16	224.83
939.46	224.85
939.76	224.84
940.06	224.83
940.35	224.79
940.65	224.74
940.95	224.78
941.25	224.76
941.55	224.75
941.85	224.77
942.15	224.81
942.45	224.85
942.75	224.83
943.04	224.84
943.34	224.89
943.64	224.89
943.94	224.87
944.24	224.87
944.54	224.85
944.84	224.85
945.13	224.83
945.43	224.81
945.73	224.81
946.03	224.83
946.33	224.82
946.62	224.83
946.92	224.85
947.22	224.83
947.52	224.83
947.82	224.84
948.11	224.82
948.41	224.81
948.71	224.79
949.01	224.82
949.31	224.82
949.60	224.77
949.90	224.79
950.20	224.81
950.50	224.81
950.79	224.82
951.09	224.82
951.39	224.84
951.69	224.81
951.98	224.80
952.28	224.81
952.58	224.81
952.87	224.82
953.17	224.82
953.47	224.81
953.76	224.82
954.06	224.82
954.36	224.79
954.66	224.79
954.95	224.81
955.25	224.79
955.55	224.80
955.84	224.79
956.14	224.76
956.44	224.76
956.73	224.74
957.03	224.76
957.32	224.77
957.62	224.76
957.92	224.78
958.21	224.77
958.51	224.89
958.81	224.89
959.10	224.89
959.40	224.90
959.69	224.92
959.99	224.93
960.29	224.94
960.58	224.96
960.88	224.98
961.17	224.98
961.47	225.00
961.76	225.00
962.06	225.05
962.36	225.05
962.65	225.05
962.95	225.08
963.24	225.04
963.54	225.04
963.83	225.01
964.13	225.04
964.42	225.01
964.72	224.91
965.01	224.92
965.31	224.95
965.60	224.94
965.90	225.00
966.19	224.97
966.49	224.95
966.78	224.93
967.08	224.94
967.37	224.91
967.67	224.85
967.96	224.86
968.26	224.85
968.55	224.86
968.85	224.86
969.14	224.86
969.43	224.85
969.73	224.85
970.02	224.87
970.32	224.83
970.61	224.85
970.91	224.82
971.20	224.80
971.49	224.77
971.79	224.78
972.08	224.71
972.38	224.70
972.67	224.72
972.96	224.75
973.26	224.74
973.55	224.80
973.85	224.82
974.14	224.80
974.43	224.80
974.73	224.78
975.02	224.75
975.31	224.75
975.61	224.77
975.90	224.75
976.19	224.76
976.49	224.78
976.78	224.79
977.07	224.80
977.37	224.83
977.66	224.84
977.95	224.83
978.24	224.85
978.54	224.87
978.83	224.87
979.12	224.85
979.42	224.82
979.71	224.81
980.00	224.79
980.29	224.81
980.59	224.78
980.88	224.80
981.17	224.82
981.46	224.83
981.76	224.81
982.05	224.84
982.34	224.84
982.63	224.85
982.93	224.84
983.22	224.86
983.51	224.86
983.80	224.89
984.09	224.89
984.39	224.87
984.68	224.87
984.97	224.87
985.26	224.88
985.55	224.87
985.85	224.86
986.14	224.90
986.43	224.90
986.72	224.89
987.01	224.86
987.30	224.88
987.59	224.87
987.89	224.89
988.18	224.89
988.47	224.89
988.76	224.89
989.05	224.90
989.34	224.90
989.63	224.90
989.92	224.88
990.22	224.87
990.51	224.86
990.80	224.83
991.09	224.84
991.38	224.85
991.67	224.88
991.96	224.86
992.25	224.86
992.54	224.83
992.83	224.85
993.12	224.84
993.41	224.84
993.70	224.87
993.99	224.88
994.28	224.90
994.58	224.90
994.87	224.87
995.16	224.85
995.45	224.85
995.74	224.84
996.03	224.87
996.32	224.91
996.61	224.94
996.90	224.93
997.19	224.91
997.48	224.91
997.77	224.87
998.06	224.88
998.34	224.88
998.63	224.86
998.92	224.88
999.21	224.91
999.50	224.89
999.79	224.86
1000.08	224.85
1000.37	224.85
1000.66	224.82
1000.95	224.81
1001.24	224.78
1001.53	224.75
1001.82	224.73
1002.11	224.71
1002.40	224.68
1002.68	224.72
1002.97	224.80
1003.26	224.80
1003.55	224.75
1003.84	224.77
1004.13	224.78
1004.42	224.76
1004.71	224.77
1004.99	224.77
1005.28	224.79
1005.57	224.81
1005.86	224.80
1006.15	224.78
1006.44	224.76
1006.72	224.78
1007.01	224.79
1007.30	224.82
1007.59	224.85
1007.88	224.84
1008.17	224.83
1008.45	224.81
1008.74	224.71
1009.03	224.69
1009.32	224.70
1009.60	224.74
1009.89	224.74
1010.18	224.71
1010.47	224.74
1010.76	224.77
1011.04	224.77
1011.33	224.75
1011.62	224.76
1011.91	224.75
1012.19	224.75
1012.48	224.74
1012.77	224.75
1013.05	224.82
1013.34	224.80
1013.63	224.81
1013.92	224.84
1014.20	224.85
1014.49	224.88
1014.78	224.93
1015.06	224.90
1015.35	224.89
1015.64	224.90
1015.92	224.92
1016.21	224.92
1016.50	224.90
1016.78	224.93
1017.07	224.94
1017.36	224.94
1017.64	224.92
1017.93	224.95
1018.22	224.98
1018.50	225.02
1018.79	225.01
1019.08	224.95
1019.36	224.99
1019.65	224.94
1019.93	224.91
1020.22	224.91
1020.51	224.94
1020.79	224.94
1021.08	225.01
1021.36	225.28
1021.65	224.59
1021.94	224.80
1022.22	225.05
1022.51	224.33
1022.79	224.44
1023.08	224.62
1023.36	225.87
1023.65	224.97
>>>>>End Processed Spectral Data<<<<<
