SpectraSuite Data File
++++++++++++++++++++++++++++++++++++
Date: Fri Feb 01 15:11:34 EST 2013
User: group
Dark Spectrum Present: No
Reference Spectrum Present: No
Number of Sampled Component Spectra: 1
Spectrometers: USB2E7196
Integration Time (usec): 35000 (USB2E7196)
Spectra Averaged: 100 (USB2E7196)
Boxcar Smoothing: 10 (USB2E7196)
Correct for Electrical Dark: No (USB2E7196)
Strobe/Lamp Enabled: No (USB2E7196)
Correct for Detector Non-linearity: No (USB2E7196)
Correct for Stray Light: No (USB2E7196)
Number of Pixels in Processed Spectrum: 2048
>>>>>Begin Processed Spectral Data<<<<<
339.09	0.00
339.48	215.60
339.86	217.00
340.24	218.28
340.63	219.80
341.01	222.14
341.39	221.80
341.78	223.53
342.16	224.96
342.54	225.17
342.93	213.62
343.31	224.42
343.69	224.97
344.07	225.42
344.46	225.83
344.84	226.19
345.22	226.45
345.60	226.70
345.99	226.85
346.37	226.95
346.75	227.06
347.13	227.13
347.52	227.15
347.90	227.22
348.28	227.22
348.66	227.26
349.05	227.26
349.43	227.30
349.81	227.34
350.19	227.39
350.57	227.45
350.96	227.49
351.34	227.56
351.72	227.59
352.10	227.66
352.48	227.73
352.87	227.80
353.25	227.82
353.63	227.89
354.01	227.97
354.39	228.04
354.77	228.11
355.15	228.22
355.54	228.29
355.92	228.31
356.30	228.39
356.68	228.53
357.06	228.62
357.44	228.66
357.82	228.70
358.20	228.76
358.58	228.82
358.97	228.88
359.35	228.93
359.73	229.00
360.11	229.05
360.49	229.11
360.87	229.17
361.25	229.25
361.63	229.30
362.01	229.36
362.39	229.42
362.77	229.45
363.15	229.47
363.53	229.48
363.91	229.52
364.29	229.55
364.67	229.47
365.05	229.51
365.43	229.55
365.81	229.59
366.19	229.63
366.57	229.66
366.95	229.63
367.33	229.61
367.71	229.63
368.09	229.64
368.47	229.64
368.85	229.59
369.23	229.56
369.61	229.52
369.99	229.50
370.37	229.47
370.75	229.45
371.13	229.39
371.51	229.35
371.89	229.33
372.27	229.28
372.65	229.22
373.03	229.14
373.41	229.06
373.78	228.99
374.16	228.87
374.54	228.79
374.92	228.72
375.30	228.64
375.68	228.56
376.06	228.51
376.44	228.43
376.82	228.39
377.19	228.31
377.57	228.23
377.95	228.14
378.33	228.07
378.71	227.96
379.09	227.87
379.47	227.83
379.84	227.70
380.22	227.64
380.60	227.57
380.98	227.48
381.36	227.40
381.73	227.32
382.11	227.28
382.49	227.22
382.87	227.13
383.25	227.08
383.62	227.10
384.00	226.98
384.38	226.93
384.76	226.88
385.13	226.87
385.51	226.82
385.89	226.72
386.27	226.67
386.64	226.63
387.02	226.58
387.40	226.50
387.78	226.50
388.15	226.41
388.53	226.37
388.91	226.33
389.29	226.28
389.66	226.28
390.04	226.23
390.42	226.22
390.79	226.23
391.17	226.22
391.55	226.11
391.92	226.12
392.30	226.13
392.68	226.09
393.05	226.07
393.43	226.09
393.81	226.13
394.18	226.16
394.56	226.19
394.94	226.24
395.31	226.31
395.69	226.37
396.06	226.47
396.44	226.50
396.82	226.56
397.19	226.68
397.57	226.73
397.95	226.79
398.32	226.84
398.70	226.88
399.07	226.97
399.45	227.01
399.82	227.09
400.20	227.12
400.58	227.21
400.95	227.26
401.33	227.39
401.70	227.56
402.08	227.65
402.45	227.76
402.83	227.90
403.20	228.00
403.58	228.13
403.95	228.25
404.33	228.43
404.71	228.58
405.08	228.80
405.46	228.93
405.83	229.11
406.21	229.26
406.58	229.48
406.96	229.63
407.33	229.88
407.70	230.09
408.08	230.38
408.45	230.61
408.83	230.86
409.20	231.05
409.58	231.25
409.95	231.51
410.33	231.77
410.70	232.01
411.08	232.31
411.45	232.59
411.82	232.89
412.20	233.23
412.57	233.63
412.95	233.91
413.32	234.32
413.69	234.69
414.07	235.11
414.44	235.59
414.82	236.06
415.19	236.63
415.56	237.19
415.94	237.71
416.31	238.34
416.68	238.99
417.06	239.72
417.43	240.37
417.81	241.15
418.18	241.93
418.55	242.79
418.93	243.66
419.30	244.56
419.67	245.47
420.04	246.38
420.42	247.40
420.79	248.56
421.16	249.69
421.54	250.91
421.91	252.12
422.28	253.38
422.66	254.72
423.03	255.98
423.40	257.30
423.77	258.72
424.15	260.13
424.52	261.62
424.89	263.25
425.26	264.80
425.64	266.26
426.01	267.84
426.38	269.47
426.75	271.14
427.13	272.87
427.50	274.67
427.87	276.60
428.24	278.43
428.61	280.18
428.99	282.17
429.36	284.30
429.73	286.37
430.10	288.35
430.47	290.45
430.85	292.61
431.22	294.85
431.59	297.26
431.96	299.56
432.33	302.05
432.70	304.41
433.08	307.22
433.45	309.88
433.82	312.49
434.19	315.37
434.56	318.16
434.93	320.81
435.30	323.44
435.68	326.35
436.05	329.23
436.42	332.06
436.79	334.57
437.16	337.23
437.53	340.13
437.90	342.97
438.27	345.70
438.64	348.52
439.01	351.15
439.38	353.41
439.75	355.54
440.13	358.01
440.50	360.38
440.87	362.24
441.24	364.16
441.61	366.31
441.98	367.82
442.35	369.64
442.72	371.52
443.09	373.37
443.46	374.37
443.83	374.90
444.20	375.40
444.57	376.20
444.94	376.52
445.31	376.84
445.68	377.22
446.05	377.28
446.42	376.88
446.79	376.43
447.16	375.95
447.53	375.63
447.90	374.49
448.27	373.29
448.64	371.70
449.01	370.56
449.37	368.59
449.74	366.71
450.11	364.48
450.48	361.98
450.85	359.44
451.22	357.26
451.59	355.26
451.96	353.29
452.33	350.70
452.70	348.29
453.07	345.41
453.43	342.52
453.80	339.72
454.17	337.06
454.54	334.51
454.91	331.77
455.28	329.09
455.65	326.60
456.02	324.19
456.38	322.02
456.75	319.34
457.12	317.10
457.49	314.88
457.86	312.68
458.23	310.78
458.59	308.72
458.96	306.59
459.33	304.74
459.70	302.89
460.07	301.40
460.43	299.68
460.80	298.06
461.17	296.55
461.54	295.08
461.91	293.63
462.27	292.17
462.64	290.92
463.01	289.55
463.38	288.17
463.74	286.80
464.11	285.64
464.48	284.62
464.85	283.47
465.21	282.58
465.58	281.66
465.95	280.58
466.32	279.68
466.68	278.79
467.05	277.88
467.42	276.95
467.78	275.99
468.15	275.12
468.52	274.43
468.88	273.60
469.25	272.80
469.62	272.18
469.98	271.49
470.35	270.85
470.72	270.27
471.08	269.66
471.45	269.04
471.82	268.50
472.18	267.92
472.55	267.47
472.92	266.95
473.28	266.48
473.65	266.01
474.02	265.54
474.38	265.17
474.75	264.83
475.11	264.47
475.48	264.20
475.85	263.96
476.21	263.74
476.58	263.53
476.94	263.37
477.31	263.19
477.67	263.03
478.04	262.91
478.41	262.79
478.77	262.82
479.14	262.84
479.50	262.82
479.87	262.91
480.23	263.01
480.60	263.09
480.96	263.17
481.33	263.39
481.69	263.61
482.06	263.85
482.42	264.04
482.79	264.30
483.15	264.61
483.52	264.97
483.88	265.34
484.25	265.74
484.61	266.21
484.98	266.69
485.34	267.27
485.71	267.88
486.07	268.51
486.44	269.12
486.80	269.76
487.17	270.50
487.53	271.29
487.90	272.16
488.26	273.08
488.62	274.11
488.99	275.10
489.35	276.14
489.72	277.22
490.08	278.43
490.44	279.68
490.81	281.04
491.17	282.40
491.54	283.86
491.90	285.40
492.26	286.99
492.63	288.69
492.99	290.47
493.36	292.35
493.72	294.45
494.08	296.52
494.45	298.79
494.81	301.16
495.17	303.58
495.54	306.12
495.90	308.77
496.26	311.55
496.63	314.48
496.99	317.57
497.35	320.81
497.72	324.23
498.08	327.76
498.44	331.38
498.80	335.30
499.17	339.33
499.53	343.46
499.89	347.82
500.26	352.26
500.62	356.94
500.98	361.90
501.34	366.93
501.71	372.24
502.07	377.71
502.43	383.26
502.79	389.07
503.16	395.12
503.52	401.44
503.88	407.81
504.24	414.45
504.60	421.32
504.97	428.45
505.33	435.75
505.69	443.44
506.05	451.22
506.41	459.07
506.78	467.22
507.14	475.72
507.50	484.47
507.86	493.50
508.22	502.63
508.59	511.80
508.95	521.37
509.31	531.13
509.67	541.12
510.03	551.42
510.39	561.95
510.75	572.72
511.12	583.57
511.48	594.87
511.84	606.30
512.20	617.84
512.56	629.76
512.92	641.92
513.28	654.16
513.64	666.60
514.00	679.26
514.37	692.20
514.73	705.26
515.09	718.23
515.45	731.48
515.81	745.11
516.17	759.15
516.53	773.28
516.89	787.52
517.25	801.75
517.61	816.18
517.97	830.66
518.33	845.15
518.69	859.99
519.05	874.99
519.41	890.17
519.77	905.73
520.13	921.25
520.49	936.70
520.85	952.31
521.21	968.10
521.57	984.51
521.93	1000.44
522.29	1016.88
522.65	1033.19
523.01	1049.53
523.37	1065.64
523.73	1081.80
524.09	1097.95
524.45	1114.28
524.81	1131.08
525.17	1148.01
525.53	1164.94
525.89	1181.88
526.25	1198.80
526.61	1215.26
526.97	1232.06
527.33	1248.54
527.68	1265.23
528.04	1281.69
528.40	1298.27
528.76	1315.42
529.12	1332.08
529.48	1348.92
529.84	1365.08
530.20	1381.89
530.56	1399.08
530.91	1416.50
531.27	1433.33
531.63	1449.87
531.99	1466.60
532.35	1482.56
532.71	1498.54
533.07	1515.03
533.42	1531.03
533.78	1547.16
534.14	1563.51
534.50	1578.99
534.86	1595.04
535.21	1610.23
535.57	1626.46
535.93	1642.09
536.29	1656.92
536.65	1672.09
537.00	1687.01
537.36	1702.30
537.72	1716.97
538.08	1731.41
538.44	1745.30
538.79	1759.34
539.15	1773.20
539.51	1787.03
539.87	1801.47
540.22	1815.38
540.58	1829.17
540.94	1842.62
541.29	1855.64
541.65	1868.56
542.01	1881.91
542.37	1894.19
542.72	1906.70
543.08	1918.45
543.44	1930.91
543.79	1942.31
544.15	1953.29
544.51	1964.90
544.87	1976.00
545.22	1986.74
545.58	1997.07
545.94	2006.91
546.29	2016.81
546.65	2026.48
547.01	2035.61
547.36	2044.26
547.72	2052.70
548.07	2060.57
548.43	2068.81
548.79	2076.89
549.14	2084.26
549.50	2091.75
549.86	2099.61
550.21	2106.86
550.57	2114.05
550.92	2120.63
551.28	2127.68
551.64	2134.83
551.99	2141.33
552.35	2147.47
552.70	2153.54
553.06	2159.38
553.41	2165.71
553.77	2171.82
554.13	2178.11
554.48	2184.30
554.84	2189.76
555.19	2195.10
555.55	2200.13
555.90	2204.44
556.26	2209.13
556.61	2213.88
556.97	2217.98
557.32	2222.01
557.68	2226.21
558.03	2230.46
558.39	2234.16
558.74	2238.74
559.10	2242.46
559.45	2246.08
559.81	2250.36
560.16	2254.12
560.52	2257.32
560.87	2260.70
561.23	2263.31
561.58	2266.07
561.94	2268.70
562.29	2271.14
562.64	2273.87
563.00	2276.52
563.35	2280.00
563.71	2283.20
564.06	2286.36
564.42	2289.21
564.77	2291.61
565.12	2293.86
565.48	2295.62
565.83	2297.40
566.19	2298.65
566.54	2299.56
566.89	2300.74
567.25	2301.24
567.60	2302.56
567.96	2304.23
568.31	2305.11
568.66	2306.01
569.02	2306.63
569.37	2306.74
569.72	2307.44
570.08	2307.27
570.43	2307.12
570.78	2306.44
571.14	2304.69
571.49	2303.32
571.84	2302.90
572.20	2301.68
572.55	2300.46
572.90	2298.76
573.26	2297.17
573.61	2295.22
573.96	2293.28
574.31	2290.01
574.67	2286.95
575.02	2283.23
575.37	2279.68
575.72	2275.67
576.08	2272.31
576.43	2268.80
576.78	2265.05
577.13	2261.85
577.49	2258.65
577.84	2255.13
578.19	2251.35
578.54	2247.64
578.90	2243.22
579.25	2237.58
579.60	2232.50
579.95	2227.54
580.30	2222.65
580.66	2217.46
581.01	2212.58
581.36	2207.43
581.71	2203.21
582.06	2198.55
582.42	2194.02
582.77	2188.75
583.12	2184.13
583.47	2179.28
583.82	2174.16
584.17	2168.89
584.53	2163.18
584.88	2157.54
585.23	2151.62
585.58	2146.04
585.93	2140.47
586.28	2135.68
586.63	2130.33
586.98	2125.21
587.34	2120.25
587.69	2115.15
588.04	2109.64
588.39	2103.83
588.74	2097.36
589.09	2091.18
589.44	2084.28
589.79	2078.11
590.14	2072.33
590.49	2065.50
590.84	2059.06
591.19	2052.98
591.54	2046.40
591.89	2038.90
592.25	2031.92
592.60	2024.61
592.95	2016.82
593.30	2009.45
593.65	2001.68
594.00	1994.63
594.35	1987.28
594.70	1979.29
595.05	1972.00
595.40	1964.82
595.75	1957.20
596.10	1950.92
596.45	1944.04
596.80	1937.86
597.15	1931.16
597.50	1923.96
597.85	1917.69
598.19	1910.93
598.54	1903.75
598.89	1896.98
599.24	1891.11
599.59	1884.33
599.94	1878.08
600.29	1871.86
600.64	1865.26
600.99	1857.75
601.34	1850.76
601.69	1843.74
602.04	1836.74
602.39	1829.33
602.74	1822.38
603.08	1815.65
603.43	1808.95
603.78	1801.64
604.13	1794.39
604.48	1787.05
604.83	1780.19
605.18	1773.06
605.53	1765.00
605.87	1756.97
606.22	1749.71
606.57	1741.72
606.92	1734.40
607.27	1727.13
607.62	1720.08
607.96	1712.76
608.31	1706.08
608.66	1698.49
609.01	1690.99
609.36	1683.41
609.70	1675.37
610.05	1667.29
610.40	1659.60
610.75	1651.13
611.10	1643.45
611.44	1635.15
611.79	1627.20
612.14	1618.49
612.49	1609.42
612.83	1601.10
613.18	1592.92
613.53	1584.82
613.88	1576.38
614.22	1568.10
614.57	1559.63
614.92	1551.53
615.27	1543.86
615.61	1535.67
615.96	1527.75
616.31	1520.09
616.65	1512.68
617.00	1505.16
617.35	1497.47
617.70	1489.12
618.04	1480.72
618.39	1472.48
618.74	1464.78
619.08	1456.54
619.43	1448.93
619.78	1441.99
620.12	1434.79
620.47	1427.24
620.82	1419.16
621.16	1411.78
621.51	1404.30
621.85	1396.68
622.20	1388.31
622.55	1380.15
622.89	1372.25
623.24	1364.60
623.59	1357.27
623.93	1349.84
624.28	1342.60
624.62	1335.12
624.97	1327.98
625.32	1321.31
625.66	1314.26
626.01	1307.09
626.35	1299.64
626.70	1291.95
627.04	1284.11
627.39	1276.37
627.73	1269.07
628.08	1262.13
628.43	1254.69
628.77	1247.26
629.12	1239.66
629.46	1232.42
629.81	1224.97
630.15	1217.81
630.50	1210.49
630.84	1202.35
631.19	1194.42
631.53	1187.01
631.88	1179.54
632.22	1171.92
632.57	1164.53
632.91	1157.06
633.26	1149.62
633.60	1142.28
633.95	1135.31
634.29	1128.41
634.64	1121.78
634.98	1114.41
635.32	1107.31
635.67	1100.82
636.01	1094.22
636.36	1087.42
636.70	1080.98
637.05	1074.46
637.39	1067.97
637.73	1061.46
638.08	1055.58
638.42	1049.68
638.77	1043.17
639.11	1036.55
639.45	1030.23
639.80	1023.67
640.14	1017.23
640.49	1010.70
640.83	1004.41
641.17	998.10
641.52	991.79
641.86	985.38
642.20	979.57
642.55	973.34
642.89	966.83
643.23	960.42
643.58	954.71
643.92	948.48
644.26	942.27
644.61	936.32
644.95	930.21
645.29	923.59
645.64	916.80
645.98	910.48
646.32	904.78
646.66	898.76
647.01	892.94
647.35	887.26
647.69	881.46
648.04	875.98
648.38	870.25
648.72	864.16
649.06	858.14
649.41	852.28
649.75	846.22
650.09	840.31
650.43	834.42
650.78	828.20
651.12	822.28
651.46	816.62
651.80	810.87
652.14	805.54
652.49	800.18
652.83	795.01
653.17	789.33
653.51	783.49
653.85	778.08
654.20	772.40
654.54	766.51
654.88	760.82
655.22	754.91
655.56	749.22
655.90	743.87
656.25	738.54
656.59	733.26
656.93	728.15
657.27	722.94
657.61	717.52
657.95	712.45
658.29	707.34
658.64	702.15
658.98	696.85
659.32	691.39
659.66	686.18
660.00	680.96
660.34	676.08
660.68	671.20
661.02	666.19
661.36	661.61
661.70	657.07
662.05	652.75
662.39	648.38
662.73	643.96
663.07	639.60
663.41	635.21
663.75	630.69
664.09	626.22
664.43	621.88
664.77	617.78
665.11	613.59
665.45	609.55
665.79	605.45
666.13	601.34
666.47	597.29
666.81	593.15
667.15	588.99
667.49	585.10
667.83	581.39
668.17	577.48
668.51	573.40
668.85	569.42
669.19	565.54
669.53	561.74
669.87	557.80
670.21	554.10
670.55	550.46
670.89	547.05
671.23	543.57
671.57	540.13
671.91	536.61
672.25	533.17
672.58	529.73
672.92	526.38
673.26	523.24
673.60	520.10
673.94	517.07
674.28	514.17
674.62	511.18
674.96	508.06
675.30	505.17
675.64	502.26
675.97	499.57
676.31	496.76
676.65	493.89
676.99	491.24
677.33	488.40
677.67	485.58
678.01	482.54
678.34	479.61
678.68	476.77
679.02	473.91
679.36	471.16
679.70	468.40
680.04	465.61
680.37	462.71
680.71	459.95
681.05	457.32
681.39	454.60
681.73	452.03
682.06	449.49
682.40	446.88
682.74	444.35
683.08	441.74
683.42	439.18
683.75	436.68
684.09	434.17
684.43	431.68
684.77	429.26
685.10	426.98
685.44	424.68
685.78	422.36
686.12	420.16
686.45	417.89
686.79	415.61
687.13	413.45
687.46	411.31
687.80	409.14
688.14	406.91
688.48	404.87
688.81	402.57
689.15	400.43
689.49	398.35
689.82	396.23
690.16	394.14
690.50	392.13
690.83	390.14
691.17	388.18
691.51	386.32
691.84	384.45
692.18	382.46
692.52	380.48
692.85	378.57
693.19	376.71
693.52	374.91
693.86	373.11
694.20	371.37
694.53	369.59
694.87	367.76
695.21	366.00
695.54	364.17
695.88	362.51
696.21	360.75
696.55	359.06
696.88	357.41
697.22	355.79
697.56	354.15
697.89	352.55
698.23	350.92
698.56	349.27
698.90	347.68
699.23	346.04
699.57	344.48
699.90	342.92
700.24	341.38
700.58	339.82
700.91	338.34
701.25	336.89
701.58	335.55
701.92	334.16
702.25	332.78
702.59	331.44
702.92	330.12
703.26	328.84
703.59	327.55
703.93	326.40
704.26	325.15
704.60	323.88
704.93	322.60
705.26	321.36
705.60	320.23
705.93	319.09
706.27	318.10
706.60	317.08
706.94	316.03
707.27	314.88
707.61	313.87
707.94	312.83
708.27	311.71
708.61	310.62
708.94	309.64
709.28	308.65
709.61	307.71
709.94	306.76
710.28	305.74
710.61	304.78
710.95	303.69
711.28	302.81
711.61	301.93
711.95	301.02
712.28	300.10
712.61	299.13
712.95	298.18
713.28	297.29
713.61	296.42
713.95	295.51
714.28	294.69
714.61	293.82
714.95	292.95
715.28	292.14
715.61	291.30
715.95	290.48
716.28	289.64
716.61	288.81
716.95	288.02
717.28	287.30
717.61	286.57
717.94	285.84
718.28	285.03
718.61	284.27
718.94	283.60
719.27	282.92
719.61	282.28
719.94	281.69
720.27	280.96
720.60	280.31
720.94	279.69
721.27	279.13
721.60	278.54
721.93	277.98
722.27	277.44
722.60	276.87
722.93	276.30
723.26	275.83
723.59	275.28
723.93	274.69
724.26	274.13
724.59	273.54
724.92	273.03
725.25	272.55
725.59	272.03
725.92	271.54
726.25	271.02
726.58	270.53
726.91	270.01
727.24	269.57
727.57	269.10
727.91	268.59
728.24	268.13
728.57	267.64
728.90	267.19
729.23	266.70
729.56	266.28
729.89	265.77
730.22	265.24
730.55	264.80
730.89	264.37
731.22	263.94
731.55	263.52
731.88	263.08
732.21	262.62
732.54	262.16
732.87	261.72
733.20	261.32
733.53	260.96
733.86	260.58
734.19	260.19
734.52	259.80
734.85	259.52
735.18	259.06
735.51	258.67
735.84	258.29
736.17	257.91
736.50	257.47
736.83	257.26
737.16	256.92
737.49	256.52
737.82	256.15
738.15	255.78
738.48	255.47
738.81	255.15
739.14	254.83
739.47	254.54
739.80	254.23
740.13	253.91
740.46	253.54
740.79	253.20
741.12	252.87
741.45	252.52
741.78	252.17
742.11	251.94
742.44	251.62
742.77	251.31
743.10	251.01
743.43	250.71
743.75	250.26
744.08	250.13
744.41	249.87
744.74	249.63
745.07	249.34
745.40	249.07
745.73	248.83
746.06	248.54
746.39	248.27
746.71	247.99
747.04	247.75
747.37	247.51
747.70	247.28
748.03	247.01
748.36	246.82
748.68	246.57
749.01	246.27
749.34	246.03
749.67	245.82
750.00	245.59
750.33	245.43
750.65	245.26
750.98	244.92
751.31	244.69
751.64	244.45
751.97	244.30
752.29	244.09
752.62	243.84
752.95	243.63
753.28	243.40
753.60	243.20
753.93	243.02
754.26	242.87
754.59	242.63
754.91	242.42
755.24	242.23
755.57	242.05
755.90	241.88
756.22	241.70
756.55	241.51
756.88	241.36
757.20	241.16
757.53	240.99
757.86	240.83
758.19	240.69
758.51	240.56
758.84	240.38
759.17	240.20
759.49	240.04
759.82	239.91
760.15	239.77
760.47	239.61
760.80	239.43
761.13	239.25
761.45	239.12
761.78	239.01
762.11	238.86
762.43	238.71
762.76	238.56
763.08	238.43
763.41	238.28
763.74	238.15
764.06	237.98
764.39	237.84
764.71	237.68
765.04	237.52
765.37	237.36
765.69	237.25
766.02	237.13
766.34	237.00
766.67	236.86
767.00	236.78
767.32	236.72
767.65	236.63
767.97	236.53
768.30	236.41
768.62	236.29
768.95	236.14
769.27	236.01
769.60	235.89
769.92	235.76
770.25	235.65
770.57	235.50
770.90	235.43
771.22	235.30
771.55	235.23
771.87	235.16
772.20	235.09
772.52	235.02
772.85	235.04
773.17	234.98
773.50	234.89
773.82	234.78
774.15	234.67
774.47	234.54
774.80	234.43
775.12	234.36
775.45	234.27
775.77	234.23
776.09	234.19
776.42	234.14
776.74	234.11
777.07	234.01
777.39	233.96
777.72	233.86
778.04	233.81
778.36	233.74
778.69	233.66
779.01	233.60
779.33	233.48
779.66	233.31
779.98	233.20
780.31	233.15
780.63	233.11
780.95	233.03
781.28	232.99
781.60	232.92
781.92	232.85
782.25	232.78
782.57	232.68
782.89	232.59
783.22	232.53
783.54	232.44
783.86	232.43
784.19	232.36
784.51	232.35
784.83	232.27
785.16	232.18
785.48	232.16
785.80	232.11
786.12	232.08
786.45	232.02
786.77	232.02
787.09	231.98
787.42	231.91
787.74	231.88
788.06	231.83
788.38	231.81
788.71	231.76
789.03	231.76
789.35	231.75
789.67	231.70
789.99	231.67
790.32	231.62
790.64	231.59
790.96	231.60
791.28	231.52
791.61	231.49
791.93	231.45
792.25	231.37
792.57	231.38
792.89	231.31
793.21	231.25
793.54	231.19
793.86	231.13
794.18	231.09
794.50	231.06
794.82	230.99
795.14	230.96
795.47	230.94
795.79	230.92
796.11	230.88
796.43	230.87
796.75	230.83
797.07	230.83
797.39	230.78
797.71	230.71
798.04	230.70
798.36	230.67
798.68	230.69
799.00	230.68
799.32	230.61
799.64	230.60
799.96	230.57
800.28	230.54
800.60	230.50
800.92	230.48
801.24	230.44
801.56	230.44
801.89	230.38
802.21	230.34
802.53	230.24
802.85	230.22
803.17	230.25
803.49	230.21
803.81	230.17
804.13	230.15
804.45	230.09
804.77	230.07
805.09	230.06
805.41	229.95
805.73	229.93
806.05	229.87
806.37	229.85
806.69	229.82
807.01	229.82
807.33	229.81
807.65	229.74
807.97	229.73
808.28	229.67
808.60	229.65
808.92	229.62
809.24	229.67
809.56	229.64
809.88	229.55
810.20	229.51
810.52	229.50
810.84	229.44
811.16	229.43
811.48	229.40
811.80	229.39
812.12	229.39
812.43	229.35
812.75	229.31
813.07	229.29
813.39	229.29
813.71	229.25
814.03	229.19
814.35	229.21
814.67	229.17
814.98	229.17
815.30	229.17
815.62	229.12
815.94	229.02
816.26	229.04
816.58	229.03
816.89	229.04
817.21	228.98
817.53	228.99
817.85	228.98
818.17	228.97
818.48	228.94
818.80	228.93
819.12	228.91
819.44	228.88
819.76	228.84
820.07	228.86
820.39	228.85
820.71	228.86
821.03	228.84
821.34	228.81
821.66	228.81
821.98	228.78
822.30	228.81
822.61	228.89
822.93	228.79
823.25	228.76
823.57	228.74
823.88	228.76
824.20	228.74
824.52	228.73
824.83	228.72
825.15	228.67
825.47	228.67
825.79	228.66
826.10	228.67
826.42	228.69
826.74	228.64
827.05	228.63
827.37	228.62
827.69	228.58
828.00	228.58
828.32	228.56
828.64	228.53
828.95	228.52
829.27	228.46
829.58	228.48
829.90	228.51
830.22	228.49
830.53	228.49
830.85	228.46
831.17	228.41
831.48	228.39
831.80	228.40
832.11	228.39
832.43	228.36
832.75	228.33
833.06	228.38
833.38	228.34
833.69	228.33
834.01	228.33
834.32	228.31
834.64	228.29
834.96	228.30
835.27	228.32
835.59	228.31
835.90	228.28
836.22	228.27
836.53	228.25
836.85	228.22
837.16	228.27
837.48	228.26
837.79	228.31
838.11	228.33
838.42	228.32
838.74	228.31
839.05	228.34
839.37	228.35
839.68	228.26
840.00	228.26
840.31	228.25
840.63	228.27
840.94	228.25
841.26	228.24
841.57	228.24
841.88	228.23
842.20	228.21
842.51	228.21
842.83	228.16
843.14	228.26
843.46	228.28
843.77	228.25
844.08	228.26
844.40	228.24
844.71	228.24
845.03	228.25
845.34	228.24
845.65	228.24
845.97	228.24
846.28	228.22
846.60	228.26
846.91	228.25
847.22	228.21
847.54	228.28
847.85	228.28
848.16	228.25
848.48	228.25
848.79	228.30
849.10	228.31
849.42	228.33
849.73	228.24
850.04	228.22
850.36	228.18
850.67	228.19
850.98	228.19
851.30	228.18
851.61	228.16
851.92	228.19
852.23	228.18
852.55	228.18
852.86	228.19
853.17	228.18
853.49	228.19
853.80	228.18
854.11	228.17
854.42	228.15
854.74	228.14
855.05	228.13
855.36	228.07
855.67	228.07
855.99	228.11
856.30	228.17
856.61	228.17
856.92	228.16
857.23	228.12
857.55	228.06
857.86	228.06
858.17	228.08
858.48	228.04
858.79	228.00
859.11	228.02
859.42	228.05
859.73	228.00
860.04	227.98
860.35	227.95
860.66	227.91
860.98	227.91
861.29	227.93
861.60	227.94
861.91	227.95
862.22	227.93
862.53	227.87
862.84	227.78
863.16	227.78
863.47	227.75
863.78	227.74
864.09	227.77
864.40	227.75
864.71	227.73
865.02	227.70
865.33	227.70
865.64	227.65
865.95	227.58
866.27	227.68
866.58	227.63
866.89	227.63
867.20	227.62
867.51	227.59
867.82	227.57
868.13	227.57
868.44	227.53
868.75	227.54
869.06	227.56
869.37	227.53
869.68	227.48
869.99	227.52
870.30	227.53
870.61	227.53
870.92	227.52
871.23	227.48
871.54	227.56
871.85	227.56
872.16	227.53
872.47	227.54
872.78	227.48
873.09	227.50
873.40	227.54
873.71	227.51
874.02	227.53
874.33	227.52
874.64	227.50
874.95	227.52
875.26	227.47
875.56	227.47
875.87	227.47
876.18	227.46
876.49	227.54
876.80	227.53
877.11	227.50
877.42	227.47
877.73	227.49
878.04	227.44
878.35	227.45
878.66	227.50
878.96	227.54
879.27	227.50
879.58	227.53
879.89	227.50
880.20	227.54
880.51	227.53
880.82	227.52
881.12	227.52
881.43	227.51
881.74	227.49
882.05	227.49
882.36	227.49
882.67	227.53
882.97	227.46
883.28	227.41
883.59	227.42
883.90	227.44
884.21	227.44
884.51	227.39
884.82	227.36
885.13	227.35
885.44	227.32
885.74	227.34
886.05	227.32
886.36	227.32
886.67	227.28
886.98	227.33
887.28	227.33
887.59	227.35
887.90	227.35
888.20	227.41
888.51	227.43
888.82	227.41
889.13	227.40
889.43	227.46
889.74	227.51
890.05	227.52
890.35	227.54
890.66	227.52
890.97	227.53
891.28	227.54
891.58	227.54
891.89	227.54
892.20	227.56
892.50	227.57
892.81	227.57
893.12	227.58
893.42	227.55
893.73	227.50
894.04	227.51
894.34	227.50
894.65	227.47
894.95	227.47
895.26	227.46
895.57	227.50
895.87	227.38
896.18	227.39
896.48	227.38
896.79	227.34
897.10	227.35
897.40	227.33
897.71	227.33
898.01	227.33
898.32	227.31
898.63	227.25
898.93	227.20
899.24	227.22
899.54	227.20
899.85	227.18
900.15	227.19
900.46	227.17
900.76	227.19
901.07	227.19
901.38	227.18
901.68	227.21
901.99	227.17
902.29	227.19
902.60	227.19
902.90	227.17
903.21	227.19
903.51	227.18
903.82	227.22
904.12	227.25
904.43	227.23
904.73	227.24
905.03	227.26
905.34	227.36
905.64	227.36
905.95	227.37
906.25	227.37
906.56	227.39
906.86	227.40
907.17	227.40
907.47	227.40
907.77	227.34
908.08	227.34
908.38	227.32
908.69	227.33
908.99	227.36
909.30	227.38
909.60	227.36
909.90	227.39
910.21	227.38
910.51	227.35
910.81	227.34
911.12	227.33
911.42	227.34
911.73	227.23
912.03	227.22
912.33	227.22
912.64	227.21
912.94	227.16
913.24	227.13
913.55	227.11
913.85	227.08
914.15	227.16
914.46	227.16
914.76	227.18
915.06	227.14
915.37	227.11
915.67	227.12
915.97	227.11
916.27	227.07
916.58	227.05
916.88	227.06
917.18	227.07
917.49	227.16
917.79	227.13
918.09	227.15
918.39	227.15
918.70	227.18
919.00	227.18
919.30	227.23
919.60	227.23
919.91	227.20
920.21	227.22
920.51	227.17
920.81	227.15
921.12	227.13
921.42	227.17
921.72	227.17
922.02	227.15
922.32	227.20
922.63	227.21
922.93	227.27
923.23	227.27
923.53	227.26
923.83	227.16
924.13	227.19
924.44	227.21
924.74	227.23
925.04	227.22
925.34	227.21
925.64	227.21
925.94	227.18
926.24	227.24
926.55	227.22
926.85	227.22
927.15	227.24
927.45	227.26
927.75	227.26
928.05	227.21
928.35	227.20
928.65	227.19
928.95	227.21
929.26	227.16
929.56	227.18
929.86	227.19
930.16	227.21
930.46	227.22
930.76	227.22
931.06	227.19
931.36	227.18
931.66	227.23
931.96	227.23
932.26	227.30
932.56	227.27
932.86	227.29
933.16	227.31
933.46	227.29
933.76	227.29
934.06	227.31
934.36	227.37
934.66	227.35
934.96	227.34
935.26	227.31
935.56	227.35
935.86	227.30
936.16	227.28
936.46	227.30
936.76	227.27
937.06	227.27
937.36	227.28
937.66	227.25
937.96	227.25
938.26	227.21
938.56	227.18
938.86	227.22
939.16	227.22
939.46	227.23
939.76	227.26
940.06	227.24
940.35	227.22
940.65	227.19
940.95	227.20
941.25	227.19
941.55	227.18
941.85	227.16
942.15	227.21
942.45	227.24
942.75	227.23
943.04	227.22
943.34	227.23
943.64	227.21
943.94	227.19
944.24	227.18
944.54	227.19
944.84	227.17
945.13	227.12
945.43	227.12
945.73	227.11
946.03	227.07
946.33	227.07
946.62	227.05
946.92	227.07
947.22	227.05
947.52	227.06
947.82	227.06
948.11	227.02
948.41	226.98
948.71	226.96
949.01	226.98
949.31	226.99
949.60	226.98
949.90	227.01
950.20	227.03
950.50	227.02
950.79	227.01
951.09	227.04
951.39	227.07
951.69	227.07
951.98	227.07
952.28	227.09
952.58	227.07
952.87	227.10
953.17	227.09
953.47	227.09
953.76	227.10
954.06	227.11
954.36	227.11
954.66	227.14
954.95	227.16
955.25	227.12
955.55	227.12
955.84	227.12
956.14	227.12
956.44	227.13
956.73	227.13
957.03	227.16
957.32	227.16
957.62	227.14
957.92	227.11
958.21	227.10
958.51	227.20
958.81	227.20
959.10	227.23
959.40	227.25
959.69	227.27
959.99	227.28
960.29	227.30
960.58	227.30
960.88	227.30
961.17	227.29
961.47	227.35
961.76	227.32
962.06	227.33
962.36	227.35
962.65	227.35
962.95	227.36
963.24	227.32
963.54	227.33
963.83	227.34
964.13	227.35
964.42	227.32
964.72	227.24
965.01	227.26
965.31	227.23
965.60	227.22
965.90	227.27
966.19	227.25
966.49	227.25
966.78	227.28
967.08	227.29
967.37	227.31
967.67	227.29
967.96	227.35
968.26	227.33
968.55	227.33
968.85	227.29
969.14	227.29
969.43	227.29
969.73	227.28
970.02	227.28
970.32	227.29
970.61	227.31
970.91	227.31
971.20	227.30
971.49	227.29
971.79	227.28
972.08	227.23
972.38	227.24
972.67	227.19
972.96	227.20
973.26	227.19
973.55	227.21
973.85	227.15
974.14	227.14
974.43	227.17
974.73	227.13
975.02	227.15
975.31	227.14
975.61	227.14
975.90	227.12
976.19	227.10
976.49	227.12
976.78	227.12
977.07	227.10
977.37	227.12
977.66	227.13
977.95	227.13
978.24	227.12
978.54	227.17
978.83	227.20
979.12	227.20
979.42	227.16
979.71	227.13
980.00	227.15
980.29	227.15
980.59	227.13
980.88	227.16
981.17	227.16
981.46	227.19
981.76	227.18
982.05	227.19
982.34	227.19
982.63	227.18
982.93	227.18
983.22	227.20
983.51	227.20
983.80	227.20
984.09	227.21
984.39	227.19
984.68	227.16
984.97	227.14
985.26	227.14
985.55	227.15
985.85	227.14
986.14	227.16
986.43	227.14
986.72	227.09
987.01	227.06
987.30	227.05
987.59	227.04
987.89	227.07
988.18	227.08
988.47	227.09
988.76	227.08
989.05	227.04
989.34	227.02
989.63	227.05
989.92	227.03
990.22	226.99
990.51	226.99
990.80	227.01
991.09	227.00
991.38	226.99
991.67	226.98
991.96	226.96
992.25	226.98
992.54	226.98
992.83	227.01
993.12	227.01
993.41	227.02
993.70	227.04
993.99	227.04
994.28	227.05
994.58	227.05
994.87	227.07
995.16	227.07
995.45	227.08
995.74	227.04
996.03	227.06
996.32	227.10
996.61	227.16
996.90	227.12
997.19	227.09
997.48	227.09
997.77	227.06
998.06	227.08
998.34	227.05
998.63	227.03
998.92	227.03
999.21	227.04
999.50	227.05
999.79	227.05
1000.08	227.04
1000.37	227.03
1000.66	227.00
1000.95	227.02
1001.24	227.07
1001.53	227.06
1001.82	227.07
1002.11	227.07
1002.40	227.06
1002.68	227.03
1002.97	227.11
1003.26	227.13
1003.55	227.13
1003.84	227.16
1004.13	227.18
1004.42	227.18
1004.71	227.21
1004.99	227.21
1005.28	227.25
1005.57	227.23
1005.86	227.20
1006.15	227.20
1006.44	227.21
1006.72	227.21
1007.01	227.21
1007.30	227.16
1007.59	227.14
1007.88	227.12
1008.17	227.11
1008.45	227.11
1008.74	227.10
1009.03	227.05
1009.32	227.03
1009.60	227.05
1009.89	227.04
1010.18	227.00
1010.47	226.98
1010.76	226.96
1011.04	226.97
1011.33	226.96
1011.62	226.97
1011.91	226.97
1012.19	226.96
1012.48	226.95
1012.77	226.95
1013.05	226.96
1013.34	226.99
1013.63	226.97
1013.92	226.97
1014.20	226.97
1014.49	226.95
1014.78	226.96
1015.06	226.92
1015.35	226.92
1015.64	226.94
1015.92	226.94
1016.21	226.95
1016.50	226.96
1016.78	226.98
1017.07	226.96
1017.36	226.93
1017.64	226.91
1017.93	226.92
1018.22	226.92
1018.50	226.90
1018.79	226.93
1019.08	226.90
1019.36	226.91
1019.65	226.92
1019.93	226.96
1020.22	226.96
1020.51	227.02
1020.79	226.98
1021.08	226.99
1021.36	226.43
1021.65	227.23
1021.94	227.53
1022.22	227.27
1022.51	226.40
1022.79	227.66
1023.08	226.86
1023.36	228.25
1023.65	226.32
>>>>>End Processed Spectral Data<<<<<
