SpectraSuite Data File
++++++++++++++++++++++++++++++++++++
Date: Fri Feb 01 15:51:15 EST 2013
User: group
Dark Spectrum Present: No
Reference Spectrum Present: No
Number of Sampled Component Spectra: 1
Spectrometers: USB2E7196
Integration Time (usec): 35000 (USB2E7196)
Spectra Averaged: 100 (USB2E7196)
Boxcar Smoothing: 10 (USB2E7196)
Correct for Electrical Dark: No (USB2E7196)
Strobe/Lamp Enabled: No (USB2E7196)
Correct for Detector Non-linearity: No (USB2E7196)
Correct for Stray Light: No (USB2E7196)
Number of Pixels in Processed Spectrum: 2048
>>>>>Begin Processed Spectral Data<<<<<
339.09	0.00
339.48	214.95
339.86	216.10
340.24	217.58
340.63	219.19
341.01	221.93
341.39	222.03
341.78	223.20
342.16	223.92
342.54	225.14
342.93	213.07
343.31	223.82
343.69	224.36
344.07	224.81
344.46	225.22
344.84	225.58
345.22	225.78
345.60	226.00
345.99	226.16
346.37	226.30
346.75	226.36
347.13	226.40
347.52	226.45
347.90	226.55
348.28	226.54
348.66	226.61
349.05	226.62
349.43	226.67
349.81	226.73
350.19	226.76
350.57	226.82
350.96	226.88
351.34	226.98
351.72	227.05
352.10	227.15
352.48	227.25
352.87	227.29
353.25	227.39
353.63	227.46
354.01	227.54
354.39	227.63
354.77	227.71
355.15	227.82
355.54	227.89
355.92	227.91
356.30	227.97
356.68	228.09
357.06	228.16
357.44	228.19
357.82	228.27
358.20	228.38
358.58	228.44
358.97	228.49
359.35	228.57
359.73	228.65
360.11	228.70
360.49	228.76
360.87	228.85
361.25	228.90
361.63	228.95
362.01	229.00
362.39	229.04
362.77	229.09
363.15	229.13
363.53	229.14
363.91	229.18
364.29	229.24
364.67	229.15
365.05	229.20
365.43	229.23
365.81	229.23
366.19	229.27
366.57	229.32
366.95	229.33
367.33	229.31
367.71	229.29
368.09	229.30
368.47	229.26
368.85	229.23
369.23	229.22
369.61	229.17
369.99	229.17
370.37	229.15
370.75	229.16
371.13	229.08
371.51	229.03
371.89	229.01
372.27	228.96
372.65	228.92
373.03	228.87
373.41	228.81
373.78	228.74
374.16	228.65
374.54	228.55
374.92	228.49
375.30	228.45
375.68	228.39
376.06	228.30
376.44	228.25
376.82	228.16
377.19	228.08
377.57	228.04
377.95	227.93
378.33	227.88
378.71	227.80
379.09	227.78
379.47	227.75
379.84	227.65
380.22	227.58
380.60	227.49
380.98	227.40
381.36	227.32
381.73	227.23
382.11	227.18
382.49	227.13
382.87	227.04
383.25	226.96
383.62	227.00
384.00	226.94
384.38	226.89
384.76	226.84
385.13	226.82
385.51	226.75
385.89	226.70
386.27	226.61
386.64	226.54
387.02	226.50
387.40	226.41
387.78	226.37
388.15	226.33
388.53	226.30
388.91	226.26
389.29	226.21
389.66	226.19
390.04	226.14
390.42	226.16
390.79	226.13
391.17	226.12
391.55	225.99
391.92	225.99
392.30	226.00
392.68	226.02
393.05	226.01
393.43	226.03
393.81	226.02
394.18	226.03
394.56	226.02
394.94	226.03
395.31	226.10
395.69	226.14
396.06	226.17
396.44	226.22
396.82	226.23
397.19	226.33
397.57	226.38
397.95	226.44
398.32	226.43
398.70	226.50
399.07	226.56
399.45	226.61
399.82	226.66
400.20	226.72
400.58	226.80
400.95	226.81
401.33	226.90
401.70	227.05
402.08	227.12
402.45	227.19
402.83	227.32
403.20	227.41
403.58	227.51
403.95	227.64
404.33	227.79
404.71	227.96
405.08	228.13
405.46	228.25
405.83	228.41
406.21	228.58
406.58	228.75
406.96	228.92
407.33	229.11
407.70	229.30
408.08	229.56
408.45	229.76
408.83	230.02
409.20	230.22
409.58	230.43
409.95	230.69
410.33	230.97
410.70	231.23
411.08	231.49
411.45	231.80
411.82	232.11
412.20	232.46
412.57	232.84
412.95	233.16
413.32	233.60
413.69	234.02
414.07	234.44
414.44	234.90
414.82	235.40
415.19	235.97
415.56	236.50
415.94	237.04
416.31	237.70
416.68	238.31
417.06	239.02
417.43	239.69
417.81	240.45
418.18	241.26
418.55	242.06
418.93	242.95
419.30	243.87
419.67	244.81
420.04	245.75
420.42	246.76
420.79	247.92
421.16	249.08
421.54	250.26
421.91	251.50
422.28	252.75
422.66	254.07
423.03	255.37
423.40	256.70
423.77	258.10
424.15	259.50
424.52	261.02
424.89	262.68
425.26	264.26
425.64	265.74
426.01	267.33
426.38	269.02
426.75	270.71
427.13	272.43
427.50	274.20
427.87	276.07
428.24	277.94
428.61	279.71
428.99	281.66
429.36	283.78
429.73	285.84
430.10	287.88
430.47	289.95
430.85	292.05
431.22	294.31
431.59	296.70
431.96	298.97
432.33	301.44
432.70	303.82
433.08	306.62
433.45	309.23
433.82	311.84
434.19	314.77
434.56	317.60
434.93	320.26
435.30	322.90
435.68	325.78
436.05	328.60
436.42	331.42
436.79	333.95
437.16	336.59
437.53	339.39
437.90	342.14
438.27	344.86
438.64	347.68
439.01	350.31
439.38	352.56
439.75	354.72
440.13	357.24
440.50	359.54
440.87	361.33
441.24	363.28
441.61	365.42
441.98	366.81
442.35	368.59
442.72	370.45
443.09	372.30
443.46	373.27
443.83	373.89
444.20	374.32
444.57	375.14
444.94	375.49
445.31	375.85
445.68	376.25
446.05	376.34
446.42	375.98
446.79	375.53
447.16	375.07
447.53	374.76
447.90	373.60
448.27	372.43
448.64	370.89
449.01	369.75
449.37	367.77
449.74	365.91
450.11	363.67
450.48	361.20
450.85	358.64
451.22	356.54
451.59	354.48
451.96	352.58
452.33	349.92
452.70	347.53
453.07	344.71
453.43	341.81
453.80	339.03
454.17	336.37
454.54	333.83
454.91	331.08
455.28	328.41
455.65	325.89
456.02	323.48
456.38	321.29
456.75	318.61
457.12	316.43
457.49	314.21
457.86	312.04
458.23	310.16
458.59	308.10
458.96	305.98
459.33	304.12
459.70	302.27
460.07	300.83
460.43	299.14
460.80	297.50
461.17	296.09
461.54	294.60
461.91	293.14
462.27	291.66
462.64	290.42
463.01	289.07
463.38	287.77
463.74	286.40
464.11	285.22
464.48	284.27
464.85	283.11
465.21	282.21
465.58	281.29
465.95	280.23
466.32	279.33
466.68	278.44
467.05	277.54
467.42	276.63
467.78	275.70
468.15	274.77
468.52	274.15
468.88	273.26
469.25	272.48
469.62	271.87
469.98	271.21
470.35	270.60
470.72	269.97
471.08	269.34
471.45	268.82
471.82	268.33
472.18	267.71
472.55	267.26
472.92	266.76
473.28	266.29
473.65	265.83
474.02	265.42
474.38	265.04
474.75	264.73
475.11	264.39
475.48	264.12
475.85	263.95
476.21	263.68
476.58	263.51
476.94	263.39
477.31	263.20
477.67	263.10
478.04	262.98
478.41	262.98
478.77	263.00
479.14	262.88
479.50	262.88
479.87	262.96
480.23	263.04
480.60	263.15
480.96	263.27
481.33	263.46
481.69	263.67
482.06	263.90
482.42	264.11
482.79	264.37
483.15	264.67
483.52	265.03
483.88	265.39
484.25	265.78
484.61	266.20
484.98	266.66
485.34	267.21
485.71	267.81
486.07	268.37
486.44	268.92
486.80	269.66
487.17	270.37
487.53	271.16
487.90	272.05
488.26	272.95
488.62	273.90
488.99	274.86
489.35	275.84
489.72	276.97
490.08	278.22
490.44	279.40
490.81	280.74
491.17	282.07
491.54	283.56
491.90	285.11
492.26	286.73
492.63	288.49
492.99	290.25
493.36	292.14
493.72	294.18
494.08	296.34
494.45	298.60
494.81	301.01
495.17	303.47
495.54	306.03
495.90	308.74
496.26	311.61
496.63	314.61
496.99	317.78
497.35	321.01
497.72	324.36
498.08	327.95
498.44	331.62
498.80	335.58
499.17	339.64
499.53	343.81
499.89	348.21
500.26	352.75
500.62	357.43
500.98	362.42
501.34	367.51
501.71	372.90
502.07	378.33
502.43	384.01
502.79	389.79
503.16	395.81
503.52	402.09
503.88	408.47
504.24	415.02
504.60	421.84
504.97	429.04
505.33	436.41
505.69	444.14
506.05	451.90
506.41	459.79
506.78	467.91
507.14	476.42
507.50	485.18
507.86	494.17
508.22	503.40
508.59	512.59
508.95	522.19
509.31	531.88
509.67	542.00
510.03	552.24
510.39	562.79
510.75	573.59
511.12	584.58
511.48	595.89
511.84	607.34
512.20	618.95
512.56	630.86
512.92	643.04
513.28	655.31
513.64	667.79
514.00	680.51
514.37	693.49
514.73	706.50
515.09	719.49
515.45	732.78
515.81	746.40
516.17	760.43
516.53	774.62
516.89	788.88
517.25	803.00
517.61	817.47
517.97	831.99
518.33	846.46
518.69	861.14
519.05	876.13
519.41	891.38
519.77	906.89
520.13	922.33
520.49	937.67
520.85	953.12
521.21	968.84
521.57	985.00
521.93	1000.68
522.29	1017.03
522.65	1033.19
523.01	1049.36
523.37	1065.30
523.73	1081.42
524.09	1097.39
524.45	1113.67
524.81	1130.31
525.17	1147.11
525.53	1164.02
525.89	1180.91
526.25	1197.70
526.61	1214.08
526.97	1230.84
527.33	1247.21
527.68	1263.88
528.04	1280.40
528.40	1296.97
528.76	1313.99
529.12	1330.62
529.48	1347.48
529.84	1363.44
530.20	1380.09
530.56	1397.19
530.91	1414.62
531.27	1431.26
531.63	1447.76
531.99	1464.34
532.35	1480.25
532.71	1495.90
533.07	1511.99
533.42	1527.80
533.78	1543.84
534.14	1560.07
534.50	1575.40
534.86	1591.43
535.21	1606.47
535.57	1622.31
535.93	1637.81
536.29	1652.60
536.65	1667.64
537.00	1682.50
537.36	1697.94
537.72	1712.55
538.08	1726.86
538.44	1740.68
538.79	1754.67
539.15	1768.23
539.51	1781.88
539.87	1796.20
540.22	1810.15
540.58	1823.98
540.94	1837.41
541.29	1850.33
541.65	1863.06
542.01	1876.25
542.37	1888.37
542.72	1900.86
543.08	1912.64
543.44	1925.04
543.79	1936.27
544.15	1947.20
544.51	1958.72
544.87	1969.56
545.22	1980.26
545.58	1990.49
545.94	2000.14
546.29	2009.98
546.65	2019.72
547.01	2029.01
547.36	2037.67
547.72	2046.00
548.07	2053.81
548.43	2061.91
548.79	2070.07
549.14	2077.47
549.50	2084.76
549.86	2092.57
550.21	2099.84
550.57	2106.99
550.92	2113.44
551.28	2120.56
551.64	2127.77
551.99	2134.18
552.35	2140.32
552.70	2146.48
553.06	2152.44
553.41	2158.91
553.77	2164.92
554.13	2171.18
554.48	2177.38
554.84	2182.93
555.19	2188.20
555.55	2193.34
555.90	2197.84
556.26	2202.45
556.61	2207.24
556.97	2211.74
557.32	2215.79
557.68	2219.97
558.03	2224.32
558.39	2228.12
558.74	2232.63
559.10	2236.43
559.45	2240.23
559.81	2244.66
560.16	2248.55
560.52	2251.72
560.87	2255.02
561.23	2257.79
561.58	2260.69
561.94	2263.06
562.29	2265.45
562.64	2268.19
563.00	2270.81
563.35	2274.21
563.71	2277.42
564.06	2280.75
564.42	2283.36
564.77	2285.91
565.12	2288.21
565.48	2290.08
565.83	2291.96
566.19	2293.32
566.54	2294.17
566.89	2295.18
567.25	2295.72
567.60	2296.98
567.96	2298.77
568.31	2299.60
568.66	2300.57
569.02	2301.12
569.37	2301.42
569.72	2302.21
570.08	2302.32
570.43	2302.44
570.78	2301.80
571.14	2300.31
571.49	2298.87
571.84	2298.53
572.20	2297.34
572.55	2296.15
572.90	2294.66
573.26	2293.24
573.61	2291.53
573.96	2289.84
574.31	2286.94
574.67	2283.85
575.02	2280.27
575.37	2276.83
575.72	2272.98
576.08	2269.61
576.43	2266.51
576.78	2262.86
577.13	2259.77
577.49	2256.71
577.84	2253.21
578.19	2249.59
578.54	2245.93
578.90	2241.68
579.25	2236.24
579.60	2231.24
579.95	2226.13
580.30	2221.16
580.66	2216.02
581.01	2211.05
581.36	2205.96
581.71	2201.80
582.06	2197.40
582.42	2192.78
582.77	2187.54
583.12	2183.00
583.47	2178.34
583.82	2173.25
584.17	2168.11
584.53	2162.50
584.88	2156.88
585.23	2151.00
585.58	2145.54
585.93	2140.05
586.28	2135.25
586.63	2130.08
586.98	2125.06
587.34	2120.39
587.69	2115.42
588.04	2110.04
588.39	2104.44
588.74	2098.07
589.09	2091.93
589.44	2085.01
589.79	2079.17
590.14	2073.54
590.49	2067.04
590.84	2060.69
591.19	2054.59
591.54	2048.20
591.89	2040.86
592.25	2033.90
592.60	2026.70
592.95	2019.09
593.30	2011.66
593.65	2004.23
594.00	1997.22
594.35	1990.03
594.70	1982.13
595.05	1974.80
595.40	1967.60
595.75	1960.00
596.10	1953.83
596.45	1947.16
596.80	1941.02
597.15	1934.26
597.50	1927.09
597.85	1920.64
598.19	1914.00
598.54	1906.79
598.89	1900.08
599.24	1894.22
599.59	1887.65
599.94	1881.43
600.29	1875.07
600.64	1868.57
600.99	1861.03
601.34	1854.05
601.69	1846.99
602.04	1840.05
602.39	1832.77
602.74	1825.93
603.08	1819.17
603.43	1812.40
603.78	1804.96
604.13	1797.72
604.48	1790.42
604.83	1783.66
605.18	1776.62
605.53	1768.52
605.87	1760.66
606.22	1753.38
606.57	1745.35
606.92	1738.18
607.27	1731.05
607.62	1724.21
607.96	1716.86
608.31	1710.17
608.66	1702.73
609.01	1695.26
609.36	1687.73
609.70	1679.79
610.05	1671.68
610.40	1664.05
610.75	1655.71
611.10	1647.99
611.44	1639.72
611.79	1631.83
612.14	1623.17
612.49	1614.01
612.83	1605.65
613.18	1597.37
613.53	1589.31
613.88	1580.83
614.22	1572.31
614.57	1563.71
614.92	1555.51
615.27	1547.93
615.61	1539.65
615.96	1531.66
616.31	1523.92
616.65	1516.69
617.00	1509.07
617.35	1501.47
617.70	1493.11
618.04	1484.60
618.39	1476.38
618.74	1468.74
619.08	1460.40
619.43	1452.70
619.78	1445.82
620.12	1438.66
620.47	1431.21
620.82	1423.00
621.16	1415.64
621.51	1408.15
621.85	1400.61
622.20	1392.20
622.55	1383.94
622.89	1376.08
623.24	1368.33
623.59	1361.03
623.93	1353.42
624.28	1346.27
624.62	1338.58
624.97	1331.46
625.32	1324.67
625.66	1317.66
626.01	1310.42
626.35	1302.96
626.70	1295.25
627.04	1287.52
627.39	1279.81
627.73	1272.35
628.08	1265.48
628.43	1258.12
628.77	1250.59
629.12	1243.03
629.46	1235.87
629.81	1228.45
630.15	1221.17
630.50	1213.83
630.84	1205.61
631.19	1197.62
631.53	1190.00
631.88	1182.56
632.22	1174.93
632.57	1167.69
632.91	1160.18
633.26	1152.80
633.60	1145.47
633.95	1138.42
634.29	1131.40
634.64	1124.65
634.98	1117.24
635.32	1110.05
635.67	1103.49
636.01	1096.96
636.36	1090.06
636.70	1083.58
637.05	1077.00
637.39	1070.54
637.73	1063.96
638.08	1058.12
638.42	1052.13
638.77	1045.76
639.11	1039.14
639.45	1032.80
639.80	1026.15
640.14	1019.67
640.49	1013.17
640.83	1006.83
641.17	1000.55
641.52	994.20
641.86	987.73
642.20	981.86
642.55	975.57
642.89	969.11
643.23	962.68
643.58	956.89
643.92	950.60
644.26	944.41
644.61	938.50
644.95	932.51
645.29	925.84
645.64	919.14
645.98	912.78
646.32	907.01
646.66	900.92
647.01	895.09
647.35	889.40
647.69	883.55
648.04	877.98
648.38	872.21
648.72	866.17
649.06	860.20
649.41	854.40
649.75	848.39
650.09	842.41
650.43	836.52
650.78	830.38
651.12	824.41
651.46	818.88
651.80	813.06
652.14	807.63
652.49	802.27
652.83	797.12
653.17	791.38
653.51	785.56
653.85	780.16
654.20	774.55
654.54	768.62
654.88	762.90
655.22	757.07
655.56	751.38
655.90	745.93
656.25	740.58
656.59	735.21
656.93	730.15
657.27	725.00
657.61	719.52
657.95	714.36
658.29	709.32
658.64	703.98
658.98	698.66
659.32	693.23
659.66	688.02
660.00	682.61
660.34	677.67
660.68	672.82
661.02	667.77
661.36	663.01
661.70	658.48
662.05	654.12
662.39	649.81
662.73	645.34
663.07	640.95
663.41	636.49
663.75	632.00
664.09	627.44
664.43	623.02
664.77	618.92
665.11	614.74
665.45	610.65
665.79	606.59
666.13	602.45
666.47	598.35
666.81	594.25
667.15	590.13
667.49	586.28
667.83	582.46
668.17	578.57
668.51	574.49
668.85	570.48
669.19	566.62
669.53	562.71
669.87	558.90
670.21	555.24
670.55	551.62
670.89	548.24
671.23	544.80
671.57	541.32
671.91	537.82
672.25	534.30
672.58	530.73
672.92	527.36
673.26	524.20
673.60	521.01
673.94	517.81
674.28	514.94
674.62	511.89
674.96	508.80
675.30	505.86
675.64	502.95
675.97	500.18
676.31	497.29
676.65	494.37
676.99	491.61
677.33	488.77
677.67	485.96
678.01	482.83
678.34	479.79
678.68	476.96
679.02	474.11
679.36	471.37
679.70	468.63
680.04	465.85
680.37	463.00
680.71	460.24
681.05	457.69
681.39	454.98
681.73	452.36
682.06	449.81
682.40	447.25
682.74	444.73
683.08	442.16
683.42	439.56
683.75	437.08
684.09	434.54
684.43	432.06
684.77	429.67
685.10	427.38
685.44	425.14
685.78	422.83
686.12	420.59
686.45	418.27
686.79	416.00
687.13	413.79
687.46	411.65
687.80	409.50
688.14	407.25
688.48	405.18
688.81	402.97
689.15	400.80
689.49	398.66
689.82	396.58
690.16	394.48
690.50	392.52
690.83	390.58
691.17	388.61
691.51	386.70
691.84	384.79
692.18	382.87
692.52	380.86
692.85	378.90
693.19	377.02
693.52	375.25
693.86	373.45
694.20	371.65
694.53	369.86
694.87	368.05
695.21	366.33
695.54	364.52
695.88	362.80
696.21	361.09
696.55	359.46
696.88	357.78
697.22	356.12
697.56	354.54
697.89	352.92
698.23	351.32
698.56	349.72
698.90	348.12
699.23	346.48
699.57	344.99
699.90	343.43
700.24	341.87
700.58	340.28
700.91	338.77
701.25	337.33
701.58	335.95
701.92	334.58
702.25	333.15
702.59	331.78
702.92	330.47
703.26	329.16
703.59	327.80
703.93	326.63
704.26	325.43
704.60	324.13
704.93	322.81
705.26	321.55
705.60	320.38
705.93	319.22
706.27	318.16
706.60	317.07
706.94	316.00
707.27	314.93
707.61	313.87
707.94	312.87
708.27	311.77
708.61	310.63
708.94	309.65
709.28	308.67
709.61	307.69
709.94	306.72
710.28	305.71
710.61	304.77
710.95	303.68
711.28	302.74
711.61	301.79
711.95	300.86
712.28	299.92
712.61	298.92
712.95	298.00
713.28	297.15
713.61	296.27
713.95	295.39
714.28	294.54
714.61	293.70
714.95	292.81
715.28	291.99
715.61	291.14
715.95	290.29
716.28	289.42
716.61	288.60
716.95	287.77
717.28	287.01
717.61	286.17
717.94	285.42
718.28	284.61
718.61	283.85
718.94	283.16
719.27	282.50
719.61	281.86
719.94	281.19
720.27	280.45
720.60	279.80
720.94	279.15
721.27	278.55
721.60	277.96
721.93	277.38
722.27	276.81
722.60	276.26
722.93	275.68
723.26	275.15
723.59	274.59
723.93	274.01
724.26	273.48
724.59	272.98
724.92	272.48
725.25	271.96
725.59	271.45
725.92	270.96
726.25	270.45
726.58	269.94
726.91	269.46
727.24	269.00
727.57	268.53
727.91	268.04
728.24	267.56
728.57	267.08
728.90	266.59
729.23	266.08
729.56	265.66
729.89	265.16
730.22	264.68
730.55	264.22
730.89	263.79
731.22	263.33
731.55	262.88
731.88	262.45
732.21	262.05
732.54	261.61
732.87	261.16
733.20	260.75
733.53	260.37
733.86	259.97
734.19	259.55
734.52	259.14
734.85	258.82
735.18	258.41
735.51	258.05
735.84	257.71
736.17	257.36
736.50	257.00
736.83	256.80
737.16	256.47
737.49	256.17
737.82	255.84
738.15	255.51
738.48	255.18
738.81	254.87
739.14	254.56
739.47	254.27
739.80	253.98
740.13	253.69
740.46	253.35
740.79	253.03
741.12	252.74
741.45	252.42
741.78	252.09
742.11	251.81
742.44	251.54
742.77	251.26
743.10	250.99
743.43	250.67
743.75	250.27
744.08	250.15
744.41	249.87
744.74	249.59
745.07	249.33
745.40	249.08
745.73	248.86
746.06	248.57
746.39	248.31
746.71	248.04
747.04	247.75
747.37	247.52
747.70	247.28
748.03	247.01
748.36	246.78
748.68	246.53
749.01	246.29
749.34	246.02
749.67	245.78
750.00	245.54
750.33	245.35
750.65	245.15
750.98	244.78
751.31	244.59
751.64	244.39
751.97	244.20
752.29	243.98
752.62	243.71
752.95	243.50
753.28	243.29
753.60	243.12
753.93	242.94
754.26	242.72
754.59	242.49
754.91	242.30
755.24	242.13
755.57	241.95
755.90	241.75
756.22	241.56
756.55	241.37
756.88	241.18
757.20	240.96
757.53	240.77
757.86	240.61
758.19	240.42
758.51	240.24
758.84	240.07
759.17	239.89
759.49	239.74
759.82	239.64
760.15	239.51
760.47	239.31
760.80	239.15
761.13	239.04
761.45	238.91
761.78	238.77
762.11	238.63
762.43	238.46
762.76	238.30
763.08	238.16
763.41	238.05
763.74	237.93
764.06	237.82
764.39	237.64
764.71	237.46
765.04	237.33
765.37	237.18
765.69	237.03
766.02	236.91
766.34	236.77
766.67	236.62
767.00	236.50
767.32	236.43
767.65	236.36
767.97	236.27
768.30	236.12
768.62	236.00
768.95	235.86
769.27	235.75
769.60	235.68
769.92	235.57
770.25	235.44
770.57	235.31
770.90	235.16
771.22	235.06
771.55	235.00
771.87	234.89
772.20	234.81
772.52	234.76
772.85	234.78
773.17	234.70
773.50	234.58
773.82	234.47
774.15	234.34
774.47	234.19
774.80	234.09
775.12	233.99
775.45	233.91
775.77	233.83
776.09	233.74
776.42	233.64
776.74	233.57
777.07	233.46
777.39	233.40
777.72	233.33
778.04	233.27
778.36	233.20
778.69	233.15
779.01	233.07
779.33	232.95
779.66	232.77
779.98	232.64
780.31	232.57
780.63	232.55
780.95	232.52
781.28	232.45
781.60	232.37
781.92	232.35
782.25	232.30
782.57	232.24
782.89	232.19
783.22	232.15
783.54	232.10
783.86	232.07
784.19	232.01
784.51	231.99
784.83	231.94
785.16	231.88
785.48	231.79
785.80	231.76
786.12	231.70
786.45	231.66
786.77	231.66
787.09	231.62
787.42	231.53
787.74	231.48
788.06	231.47
788.38	231.42
788.71	231.33
789.03	231.29
789.35	231.27
789.67	231.22
789.99	231.17
790.32	231.11
790.64	231.05
790.96	231.11
791.28	231.05
791.61	231.02
791.93	231.01
792.25	230.99
792.57	231.01
792.89	230.96
793.21	230.92
793.54	230.85
793.86	230.80
794.18	230.77
794.50	230.70
794.82	230.65
795.14	230.58
795.47	230.58
795.79	230.53
796.11	230.45
796.43	230.43
796.75	230.39
797.07	230.34
797.39	230.28
797.71	230.17
798.04	230.11
798.36	230.05
798.68	229.99
799.00	229.97
799.32	229.88
799.64	229.86
799.96	229.86
800.28	229.86
800.60	229.85
800.92	229.81
801.24	229.78
801.56	229.74
801.89	229.74
802.21	229.73
802.53	229.68
802.85	229.71
803.17	229.73
803.49	229.69
803.81	229.68
804.13	229.68
804.45	229.66
804.77	229.64
805.09	229.66
805.41	229.61
805.73	229.54
806.05	229.49
806.37	229.45
806.69	229.37
807.01	229.34
807.33	229.32
807.65	229.29
807.97	229.30
808.28	229.29
808.60	229.26
808.92	229.21
809.24	229.25
809.56	229.16
809.88	229.09
810.20	229.08
810.52	229.07
810.84	229.05
811.16	229.00
811.48	228.96
811.80	228.97
812.12	228.94
812.43	228.94
812.75	228.92
813.07	228.95
813.39	228.96
813.71	228.92
814.03	228.86
814.35	228.85
814.67	228.81
814.98	228.76
815.30	228.76
815.62	228.74
815.94	228.68
816.26	228.73
816.58	228.72
816.89	228.71
817.21	228.64
817.53	228.61
817.85	228.62
818.17	228.60
818.48	228.53
818.80	228.53
819.12	228.54
819.44	228.53
819.76	228.48
820.07	228.45
820.39	228.44
820.71	228.49
821.03	228.47
821.34	228.45
821.66	228.47
821.98	228.47
822.30	228.46
822.61	228.51
822.93	228.42
823.25	228.41
823.57	228.40
823.88	228.45
824.20	228.44
824.52	228.43
824.83	228.44
825.15	228.43
825.47	228.45
825.79	228.46
826.10	228.48
826.42	228.46
826.74	228.46
827.05	228.43
827.37	228.41
827.69	228.40
828.00	228.39
828.32	228.38
828.64	228.34
828.95	228.39
829.27	228.33
829.58	228.35
829.90	228.35
830.22	228.32
830.53	228.29
830.85	228.29
831.17	228.25
831.48	228.24
831.80	228.23
832.11	228.21
832.43	228.15
832.75	228.10
833.06	228.12
833.38	228.09
833.69	228.11
834.01	228.11
834.32	228.08
834.64	228.03
834.96	228.00
835.27	228.01
835.59	227.94
835.90	227.93
836.22	227.94
836.53	227.91
836.85	227.89
837.16	227.96
837.48	227.91
837.79	227.94
838.11	227.92
838.42	227.87
838.74	227.86
839.05	227.84
839.37	227.82
839.68	227.79
840.00	227.77
840.31	227.75
840.63	227.67
840.94	227.67
841.26	227.66
841.57	227.65
841.88	227.62
842.20	227.61
842.51	227.58
842.83	227.56
843.14	227.63
843.46	227.64
843.77	227.56
844.08	227.55
844.40	227.50
844.71	227.49
845.03	227.52
845.34	227.49
845.65	227.47
845.97	227.47
846.28	227.43
846.60	227.42
846.91	227.41
847.22	227.42
847.54	227.39
847.85	227.38
848.16	227.35
848.48	227.33
848.79	227.35
849.10	227.39
849.42	227.34
849.73	227.24
850.04	227.22
850.36	227.20
850.67	227.19
850.98	227.19
851.30	227.19
851.61	227.14
851.92	227.13
852.23	227.18
852.55	227.16
852.86	227.17
853.17	227.18
853.49	227.22
853.80	227.25
854.11	227.25
854.42	227.27
854.74	227.28
855.05	227.27
855.36	227.23
855.67	227.18
855.99	227.18
856.30	227.30
856.61	227.28
856.92	227.25
857.23	227.23
857.55	227.26
857.86	227.23
858.17	227.29
858.48	227.31
858.79	227.27
859.11	227.29
859.42	227.30
859.73	227.27
860.04	227.26
860.35	227.22
860.66	227.23
860.98	227.21
861.29	227.22
861.60	227.20
861.91	227.21
862.22	227.21
862.53	227.24
862.84	227.13
863.16	227.17
863.47	227.15
863.78	227.20
864.09	227.22
864.40	227.25
864.71	227.24
865.02	227.25
865.33	227.23
865.64	227.24
865.95	227.24
866.27	227.33
866.58	227.32
866.89	227.33
867.20	227.33
867.51	227.34
867.82	227.35
868.13	227.42
868.44	227.43
868.75	227.48
869.06	227.48
869.37	227.50
869.68	227.49
869.99	227.52
870.30	227.50
870.61	227.46
870.92	227.46
871.23	227.44
871.54	227.44
871.85	227.45
872.16	227.46
872.47	227.44
872.78	227.34
873.09	227.33
873.40	227.32
873.71	227.30
874.02	227.33
874.33	227.29
874.64	227.26
874.95	227.27
875.26	227.21
875.56	227.18
875.87	227.16
876.18	227.15
876.49	227.27
876.80	227.27
877.11	227.26
877.42	227.23
877.73	227.25
878.04	227.24
878.35	227.22
878.66	227.19
878.96	227.19
879.27	227.20
879.58	227.16
879.89	227.17
880.20	227.22
880.51	227.19
880.82	227.19
881.12	227.17
881.43	227.11
881.74	227.09
882.05	227.10
882.36	227.09
882.67	227.09
882.97	226.97
883.28	226.94
883.59	226.92
883.90	226.93
884.21	226.90
884.51	226.88
884.82	226.88
885.13	226.90
885.44	226.89
885.74	226.90
886.05	226.92
886.36	226.89
886.67	226.84
886.98	226.85
887.28	226.87
887.59	226.85
887.90	226.82
888.20	226.82
888.51	226.82
888.82	226.79
889.13	226.78
889.43	226.81
889.74	226.78
890.05	226.78
890.35	226.78
890.66	226.77
890.97	226.73
891.28	226.73
891.58	226.72
891.89	226.74
892.20	226.71
892.50	226.73
892.81	226.74
893.12	226.75
893.42	226.73
893.73	226.72
894.04	226.73
894.34	226.78
894.65	226.77
894.95	226.80
895.26	226.80
895.57	226.84
895.87	226.79
896.18	226.86
896.48	226.89
896.79	226.91
897.10	226.93
897.40	226.97
897.71	227.01
898.01	227.04
898.32	227.06
898.63	227.06
898.93	227.07
899.24	227.08
899.54	227.06
899.85	227.05
900.15	227.05
900.46	227.07
900.76	227.07
901.07	227.10
901.38	227.07
901.68	227.12
901.99	227.11
902.29	227.13
902.60	227.10
902.90	227.12
903.21	227.10
903.51	227.12
903.82	227.16
904.12	227.11
904.43	227.08
904.73	227.07
905.03	227.09
905.34	227.19
905.64	227.18
905.95	227.21
906.25	227.24
906.56	227.26
906.86	227.29
907.17	227.29
907.47	227.32
907.77	227.30
908.08	227.26
908.38	227.24
908.69	227.23
908.99	227.23
909.30	227.23
909.60	227.24
909.90	227.21
910.21	227.18
910.51	227.19
910.81	227.19
911.12	227.18
911.42	227.19
911.73	227.08
912.03	227.09
912.33	227.08
912.64	227.06
912.94	227.04
913.24	227.00
913.55	226.97
913.85	226.94
914.15	226.99
914.46	227.01
914.76	227.01
915.06	226.97
915.37	226.95
915.67	226.92
915.97	226.93
916.27	226.89
916.58	226.87
916.88	226.85
917.18	226.84
917.49	226.89
917.79	226.82
918.09	226.84
918.39	226.86
918.70	226.86
919.00	226.86
919.30	226.88
919.60	226.87
919.91	226.88
920.21	226.84
920.51	226.81
920.81	226.78
921.12	226.78
921.42	226.80
921.72	226.81
922.02	226.81
922.32	226.79
922.63	226.80
922.93	226.86
923.23	226.85
923.53	226.83
923.83	226.78
924.13	226.82
924.44	226.81
924.74	226.81
925.04	226.82
925.34	226.82
925.64	226.78
925.94	226.80
926.24	226.85
926.55	226.86
926.85	226.87
927.15	226.84
927.45	226.83
927.75	226.83
928.05	226.85
928.35	226.86
928.65	226.85
928.95	226.85
929.26	226.82
929.56	226.82
929.86	226.84
930.16	226.82
930.46	226.81
930.76	226.78
931.06	226.73
931.36	226.70
931.66	226.71
931.96	226.75
932.26	226.74
932.56	226.69
932.86	226.69
933.16	226.71
933.46	226.73
933.76	226.74
934.06	226.76
934.36	226.79
934.66	226.81
934.96	226.83
935.26	226.85
935.56	226.83
935.86	226.86
936.16	226.88
936.46	226.87
936.76	226.86
937.06	226.87
937.36	226.90
937.66	226.92
937.96	226.92
938.26	226.89
938.56	226.90
938.86	226.92
939.16	226.95
939.46	226.98
939.76	227.00
940.06	227.00
940.35	226.99
940.65	226.95
940.95	226.93
941.25	226.91
941.55	226.88
941.85	226.91
942.15	226.93
942.45	226.99
942.75	227.02
943.04	227.02
943.34	227.03
943.64	227.01
943.94	227.02
944.24	227.02
944.54	227.00
944.84	226.98
945.13	226.98
945.43	226.98
945.73	226.95
946.03	226.91
946.33	226.92
946.62	226.92
946.92	226.91
947.22	226.89
947.52	226.91
947.82	226.97
948.11	226.95
948.41	226.90
948.71	226.86
949.01	226.84
949.31	226.85
949.60	226.84
949.90	226.87
950.20	226.85
950.50	226.85
950.79	226.88
951.09	226.86
951.39	226.88
951.69	226.84
951.98	226.86
952.28	226.89
952.58	226.86
952.87	226.83
953.17	226.83
953.47	226.85
953.76	226.83
954.06	226.76
954.36	226.73
954.66	226.73
954.95	226.74
955.25	226.73
955.55	226.72
955.84	226.73
956.14	226.71
956.44	226.71
956.73	226.69
957.03	226.69
957.32	226.69
957.62	226.66
957.92	226.69
958.21	226.68
958.51	226.77
958.81	226.76
959.10	226.78
959.40	226.83
959.69	226.80
959.99	226.82
960.29	226.82
960.58	226.81
960.88	226.84
961.17	226.81
961.47	226.79
961.76	226.79
962.06	226.80
962.36	226.79
962.65	226.77
962.95	226.74
963.24	226.72
963.54	226.76
963.83	226.77
964.13	226.73
964.42	226.70
964.72	226.64
965.01	226.63
965.31	226.62
965.60	226.59
965.90	226.64
966.19	226.59
966.49	226.59
966.78	226.60
967.08	226.62
967.37	226.60
967.67	226.60
967.96	226.63
968.26	226.64
968.55	226.64
968.85	226.67
969.14	226.69
969.43	226.72
969.73	226.70
970.02	226.66
970.32	226.66
970.61	226.67
970.91	226.63
971.20	226.63
971.49	226.60
971.79	226.59
972.08	226.51
972.38	226.55
972.67	226.57
972.96	226.59
973.26	226.57
973.55	226.61
973.85	226.63
974.14	226.61
974.43	226.63
974.73	226.65
975.02	226.64
975.31	226.67
975.61	226.68
975.90	226.69
976.19	226.71
976.49	226.73
976.78	226.75
977.07	226.76
977.37	226.77
977.66	226.81
977.95	226.80
978.24	226.84
978.54	226.87
978.83	226.88
979.12	226.88
979.42	226.90
979.71	226.91
980.00	226.90
980.29	226.92
980.59	226.86
980.88	226.89
981.17	226.90
981.46	226.90
981.76	226.87
982.05	226.89
982.34	226.89
982.63	226.88
982.93	226.89
983.22	226.89
983.51	226.92
983.80	226.90
984.09	226.93
984.39	226.93
984.68	226.91
984.97	226.89
985.26	226.90
985.55	226.87
985.85	226.82
986.14	226.84
986.43	226.80
986.72	226.81
987.01	226.76
987.30	226.70
987.59	226.67
987.89	226.67
988.18	226.66
988.47	226.64
988.76	226.64
989.05	226.61
989.34	226.58
989.63	226.59
989.92	226.59
990.22	226.56
990.51	226.55
990.80	226.51
991.09	226.51
991.38	226.52
991.67	226.51
991.96	226.51
992.25	226.49
992.54	226.49
992.83	226.47
993.12	226.46
993.41	226.51
993.70	226.55
993.99	226.57
994.28	226.56
994.58	226.59
994.87	226.55
995.16	226.54
995.45	226.54
995.74	226.52
996.03	226.51
996.32	226.51
996.61	226.53
996.90	226.52
997.19	226.52
997.48	226.50
997.77	226.46
998.06	226.46
998.34	226.45
998.63	226.47
998.92	226.47
999.21	226.48
999.50	226.48
999.79	226.43
1000.08	226.44
1000.37	226.40
1000.66	226.38
1000.95	226.43
1001.24	226.46
1001.53	226.45
1001.82	226.46
1002.11	226.45
1002.40	226.49
1002.68	226.49
1002.97	226.58
1003.26	226.59
1003.55	226.58
1003.84	226.62
1004.13	226.69
1004.42	226.69
1004.71	226.69
1004.99	226.70
1005.28	226.72
1005.57	226.72
1005.86	226.70
1006.15	226.72
1006.44	226.72
1006.72	226.74
1007.01	226.71
1007.30	226.72
1007.59	226.72
1007.88	226.69
1008.17	226.71
1008.45	226.71
1008.74	226.71
1009.03	226.69
1009.32	226.70
1009.60	226.69
1009.89	226.70
1010.18	226.65
1010.47	226.67
1010.76	226.69
1011.04	226.70
1011.33	226.72
1011.62	226.71
1011.91	226.76
1012.19	226.72
1012.48	226.74
1012.77	226.74
1013.05	226.81
1013.34	226.85
1013.63	226.87
1013.92	226.92
1014.20	226.92
1014.49	226.93
1014.78	226.93
1015.06	226.87
1015.35	226.86
1015.64	226.89
1015.92	226.89
1016.21	226.91
1016.50	226.91
1016.78	226.92
1017.07	226.91
1017.36	226.89
1017.64	226.88
1017.93	226.86
1018.22	226.87
1018.50	226.90
1018.79	226.90
1019.08	226.82
1019.36	226.82
1019.65	226.80
1019.93	226.81
1020.22	226.84
1020.51	226.87
1020.79	226.87
1021.08	226.70
1021.36	226.83
1021.65	227.04
1021.94	226.35
1022.22	227.18
1022.51	226.79
1022.79	227.40
1023.08	227.30
1023.36	227.71
1023.65	226.74
>>>>>End Processed Spectral Data<<<<<
