SpectraSuite Data File
++++++++++++++++++++++++++++++++++++
Date: Fri Feb 01 16:19:54 EST 2013
User: group
Dark Spectrum Present: No
Reference Spectrum Present: No
Number of Sampled Component Spectra: 1
Spectrometers: USB2E7196
Integration Time (usec): 35000 (USB2E7196)
Spectra Averaged: 100 (USB2E7196)
Boxcar Smoothing: 10 (USB2E7196)
Correct for Electrical Dark: No (USB2E7196)
Strobe/Lamp Enabled: No (USB2E7196)
Correct for Detector Non-linearity: No (USB2E7196)
Correct for Stray Light: No (USB2E7196)
Number of Pixels in Processed Spectrum: 2048
>>>>>Begin Processed Spectral Data<<<<<
339.09	0.00
339.48	213.65
339.86	215.54
340.24	216.93
340.63	217.96
341.01	220.79
341.39	220.89
341.78	222.18
342.16	223.72
342.54	223.94
342.93	212.15
343.31	222.90
343.69	223.48
344.07	223.94
344.46	224.38
344.84	224.76
345.22	224.98
345.60	225.24
345.99	225.43
346.37	225.57
346.75	225.67
347.13	225.73
347.52	225.80
347.90	225.87
348.28	225.96
348.66	226.02
349.05	226.04
349.43	226.07
349.81	226.11
350.19	226.20
350.57	226.26
350.96	226.40
351.34	226.46
351.72	226.53
352.10	226.63
352.48	226.66
352.87	226.74
353.25	226.84
353.63	226.90
354.01	226.96
354.39	227.02
354.77	227.10
355.15	227.23
355.54	227.28
355.92	227.33
356.30	227.38
356.68	227.51
357.06	227.58
357.44	227.64
357.82	227.73
358.20	227.82
358.58	227.88
358.97	227.94
359.35	228.00
359.73	228.08
360.11	228.15
360.49	228.24
360.87	228.29
361.25	228.31
361.63	228.40
362.01	228.45
362.39	228.49
362.77	228.53
363.15	228.53
363.53	228.56
363.91	228.62
364.29	228.63
364.67	228.56
365.05	228.58
365.43	228.59
365.81	228.60
366.19	228.61
366.57	228.64
366.95	228.60
367.33	228.57
367.71	228.54
368.09	228.54
368.47	228.48
368.85	228.45
369.23	228.50
369.61	228.43
369.99	228.44
370.37	228.38
370.75	228.41
371.13	228.41
371.51	228.38
371.89	228.33
372.27	228.30
372.65	228.28
373.03	228.23
373.41	228.19
373.78	228.13
374.16	228.06
374.54	228.00
374.92	227.96
375.30	227.90
375.68	227.83
376.06	227.79
376.44	227.75
376.82	227.68
377.19	227.60
377.57	227.52
377.95	227.43
378.33	227.37
378.71	227.27
379.09	227.20
379.47	227.14
379.84	227.06
380.22	227.01
380.60	226.90
380.98	226.85
381.36	226.77
381.73	226.66
382.11	226.62
382.49	226.55
382.87	226.47
383.25	226.46
383.62	226.53
384.00	226.44
384.38	226.36
384.76	226.36
385.13	226.32
385.51	226.26
385.89	226.19
386.27	226.12
386.64	226.06
387.02	225.98
387.40	225.92
387.78	225.89
388.15	225.85
388.53	225.82
388.91	225.76
389.29	225.71
389.66	225.71
390.04	225.63
390.42	225.65
390.79	225.64
391.17	225.59
391.55	225.45
391.92	225.45
392.30	225.47
392.68	225.43
393.05	225.42
393.43	225.39
393.81	225.42
394.18	225.43
394.56	225.44
394.94	225.46
395.31	225.47
395.69	225.51
396.06	225.53
396.44	225.56
396.82	225.57
397.19	225.66
397.57	225.70
397.95	225.80
398.32	225.79
398.70	225.85
399.07	225.96
399.45	225.98
399.82	226.00
400.20	226.04
400.58	226.13
400.95	226.14
401.33	226.30
401.70	226.43
402.08	226.53
402.45	226.59
402.83	226.69
403.20	226.80
403.58	226.92
403.95	227.04
404.33	227.17
404.71	227.35
405.08	227.55
405.46	227.66
405.83	227.78
406.21	227.95
406.58	228.13
406.96	228.26
407.33	228.50
407.70	228.70
408.08	228.98
408.45	229.21
408.83	229.48
409.20	229.65
409.58	229.82
409.95	230.08
410.33	230.36
410.70	230.65
411.08	230.93
411.45	231.20
411.82	231.49
412.20	231.83
412.57	232.22
412.95	232.52
413.32	232.98
413.69	233.42
414.07	233.87
414.44	234.34
414.82	234.81
415.19	235.33
415.56	235.89
415.94	236.45
416.31	237.07
416.68	237.68
417.06	238.42
417.43	239.14
417.81	239.92
418.18	240.74
418.55	241.56
418.93	242.47
419.30	243.40
419.67	244.36
420.04	245.35
420.42	246.35
420.79	247.50
421.16	248.63
421.54	249.80
421.91	251.02
422.28	252.25
422.66	253.58
423.03	254.87
423.40	256.20
423.77	257.60
424.15	259.01
424.52	260.49
424.89	262.08
425.26	263.64
425.64	265.08
426.01	266.66
426.38	268.30
426.75	269.96
427.13	271.66
427.50	273.50
427.87	275.33
428.24	277.21
428.61	278.96
428.99	280.87
429.36	282.93
429.73	284.99
430.10	286.98
430.47	289.07
430.85	291.20
431.22	293.46
431.59	295.86
431.96	298.11
432.33	300.62
432.70	302.98
433.08	305.77
433.45	308.38
433.82	310.99
434.19	313.92
434.56	316.72
434.93	319.38
435.30	321.94
435.68	324.83
436.05	327.61
436.42	330.37
436.79	332.89
437.16	335.58
437.53	338.39
437.90	341.16
438.27	343.86
438.64	346.70
439.01	349.28
439.38	351.46
439.75	353.59
440.13	356.09
440.50	358.41
440.87	360.25
441.24	362.18
441.61	364.30
441.98	365.70
442.35	367.44
442.72	369.27
443.09	371.08
443.46	372.07
443.83	372.63
444.20	373.17
444.57	373.95
444.94	374.25
445.31	374.54
445.68	374.91
446.05	375.01
446.42	374.56
446.79	374.10
447.16	373.58
447.53	373.25
447.90	372.10
448.27	370.95
448.64	369.36
449.01	368.23
449.37	366.23
449.74	364.37
450.11	362.17
450.48	359.70
450.85	357.17
451.22	355.03
451.59	353.02
451.96	351.06
452.33	348.48
452.70	346.11
453.07	343.34
453.43	340.46
453.80	337.69
454.17	335.04
454.54	332.52
454.91	329.88
455.28	327.21
455.65	324.72
456.02	322.25
456.38	320.08
456.75	317.43
457.12	315.21
457.49	312.98
457.86	310.81
458.23	308.98
458.59	306.95
458.96	304.87
459.33	303.04
459.70	301.21
460.07	299.73
460.43	298.05
460.80	296.41
461.17	295.00
461.54	293.49
461.91	292.08
462.27	290.66
462.64	289.45
463.01	288.13
463.38	286.83
463.74	285.48
464.11	284.41
464.48	283.39
464.85	282.31
465.21	281.49
465.58	280.59
465.95	279.48
466.32	278.57
466.68	277.71
467.05	276.81
467.42	275.91
467.78	274.97
468.15	274.11
468.52	273.48
468.88	272.65
469.25	271.87
469.62	271.28
469.98	270.59
470.35	269.94
470.72	269.37
471.08	268.70
471.45	268.19
471.82	267.58
472.18	267.00
472.55	266.61
472.92	266.09
473.28	265.63
473.65	265.19
474.02	264.77
474.38	264.37
474.75	264.04
475.11	263.73
475.48	263.46
475.85	263.24
476.21	262.98
476.58	262.78
476.94	262.69
477.31	262.50
477.67	262.36
478.04	262.23
478.41	262.15
478.77	262.25
479.14	262.17
479.50	262.18
479.87	262.26
480.23	262.31
480.60	262.33
480.96	262.42
481.33	262.66
481.69	262.86
482.06	263.10
482.42	263.33
482.79	263.55
483.15	263.88
483.52	264.29
483.88	264.64
484.25	264.98
484.61	265.38
484.98	265.87
485.34	266.44
485.71	267.04
486.07	267.65
486.44	268.21
486.80	268.93
487.17	269.68
487.53	270.50
487.90	271.35
488.26	272.32
488.62	273.34
488.99	274.30
489.35	275.36
489.72	276.50
490.08	277.67
490.44	278.96
490.81	280.33
491.17	281.67
491.54	283.17
491.90	284.76
492.26	286.40
492.63	288.16
492.99	289.96
493.36	291.86
493.72	293.87
494.08	295.98
494.45	298.22
494.81	300.58
495.17	303.00
495.54	305.56
495.90	308.26
496.26	311.05
496.63	314.02
496.99	317.10
497.35	320.37
497.72	323.77
498.08	327.26
498.44	330.90
498.80	334.81
499.17	338.88
499.53	343.10
499.89	347.50
500.26	352.02
500.62	356.69
500.98	361.68
501.34	366.79
501.71	372.14
502.07	377.62
502.43	383.23
502.79	389.08
503.16	395.19
503.52	401.47
503.88	407.90
504.24	414.61
504.60	421.48
504.97	428.61
505.33	435.99
505.69	443.76
506.05	451.61
506.41	459.45
506.78	467.60
507.14	476.00
507.50	484.68
507.86	493.68
508.22	502.88
508.59	512.05
508.95	521.72
509.31	531.51
509.67	541.59
510.03	551.89
510.39	562.44
510.75	573.24
511.12	584.17
511.48	595.46
511.84	606.84
512.20	618.37
512.56	630.26
512.92	642.48
513.28	654.78
513.64	667.16
514.00	679.92
514.37	692.83
514.73	705.94
515.09	718.96
515.45	732.28
515.81	745.85
516.17	759.86
516.53	773.88
516.89	788.02
517.25	802.31
517.61	816.78
517.97	831.18
518.33	845.51
518.69	860.26
519.05	875.20
519.41	890.35
519.77	905.97
520.13	921.48
520.49	936.72
520.85	952.08
521.21	967.78
521.57	984.01
521.93	999.74
522.29	1016.05
522.65	1032.29
523.01	1048.46
523.37	1064.57
523.73	1080.74
524.09	1096.71
524.45	1113.00
524.81	1129.52
525.17	1146.22
525.53	1163.11
525.89	1180.07
526.25	1196.89
526.61	1213.30
526.97	1230.13
527.33	1246.44
527.68	1263.00
528.04	1279.54
528.40	1296.09
528.76	1313.10
529.12	1329.56
529.48	1346.43
529.84	1362.42
530.20	1379.16
530.56	1396.16
530.91	1413.39
531.27	1430.08
531.63	1446.49
531.99	1463.06
532.35	1478.92
532.71	1494.78
533.07	1510.96
533.42	1526.72
533.78	1542.74
534.14	1558.86
534.50	1574.02
534.86	1589.89
535.21	1605.00
535.57	1620.82
535.93	1636.32
536.29	1651.07
536.65	1666.08
537.00	1680.79
537.36	1695.93
537.72	1710.19
538.08	1724.62
538.44	1738.36
538.79	1752.20
539.15	1765.83
539.51	1779.46
539.87	1793.80
540.22	1807.48
540.58	1821.18
540.94	1834.44
541.29	1847.21
541.65	1859.85
542.01	1873.07
542.37	1885.37
542.72	1897.75
543.08	1909.46
543.44	1921.67
543.79	1932.76
544.15	1943.66
544.51	1955.08
544.87	1966.02
545.22	1976.82
545.58	1986.84
545.94	1996.52
546.29	2006.25
546.65	2016.22
547.01	2025.41
547.36	2034.07
547.72	2042.51
548.07	2050.32
548.43	2058.45
548.79	2066.45
549.14	2073.97
549.50	2081.19
549.86	2088.82
550.21	2096.10
550.57	2103.22
550.92	2109.79
551.28	2116.83
551.64	2123.97
551.99	2130.54
552.35	2136.61
552.70	2142.80
553.06	2148.79
553.41	2155.18
553.77	2161.23
554.13	2167.31
554.48	2173.45
554.84	2178.73
555.19	2183.91
555.55	2188.93
555.90	2193.38
556.26	2198.20
556.61	2202.88
556.97	2207.17
557.32	2211.18
557.68	2215.26
558.03	2219.65
558.39	2223.38
558.74	2228.08
559.10	2231.73
559.45	2235.34
559.81	2239.75
560.16	2243.61
560.52	2246.98
560.87	2250.35
561.23	2253.03
561.58	2255.86
561.94	2258.36
562.29	2260.80
562.64	2263.49
563.00	2266.09
563.35	2269.64
563.71	2272.81
564.06	2276.09
564.42	2278.98
564.77	2281.43
565.12	2283.63
565.48	2285.44
565.83	2287.31
566.19	2288.69
566.54	2289.81
566.89	2291.04
567.25	2291.64
567.60	2292.81
567.96	2294.43
568.31	2295.32
568.66	2296.46
569.02	2297.08
569.37	2297.52
569.72	2298.47
570.08	2298.76
570.43	2298.97
570.78	2298.53
571.14	2297.09
571.49	2295.75
571.84	2295.41
572.20	2294.55
572.55	2293.52
572.90	2292.05
573.26	2290.70
573.61	2288.90
573.96	2287.11
574.31	2284.28
574.67	2281.38
575.02	2277.94
575.37	2274.60
575.72	2270.89
576.08	2267.62
576.43	2264.30
576.78	2260.58
577.13	2257.52
577.49	2254.39
577.84	2250.89
578.19	2247.13
578.54	2243.53
578.90	2239.37
579.25	2233.87
579.60	2228.78
579.95	2223.98
580.30	2218.99
580.66	2213.95
581.01	2209.18
581.36	2204.54
581.71	2200.30
582.06	2195.90
582.42	2191.40
582.77	2186.16
583.12	2181.67
583.47	2176.96
583.82	2171.98
584.17	2166.87
584.53	2161.29
584.88	2155.74
585.23	2150.01
585.58	2144.48
585.93	2138.98
586.28	2134.32
586.63	2129.26
586.98	2124.41
587.34	2119.61
587.69	2114.79
588.04	2109.50
588.39	2103.85
588.74	2097.28
589.09	2091.19
589.44	2084.35
589.79	2078.39
590.14	2072.80
590.49	2066.25
590.84	2059.90
591.19	2053.77
591.54	2047.26
591.89	2039.97
592.25	2033.19
592.60	2026.10
592.95	2018.72
593.30	2011.48
593.65	2003.74
594.00	1996.75
594.35	1989.45
594.70	1981.61
595.05	1974.45
595.40	1967.25
595.75	1959.77
596.10	1953.56
596.45	1946.90
596.80	1940.87
597.15	1934.29
597.50	1927.19
597.85	1920.68
598.19	1914.05
598.54	1907.21
598.89	1900.69
599.24	1894.88
599.59	1888.16
599.94	1881.89
600.29	1875.43
600.64	1868.77
600.99	1861.44
601.34	1854.77
601.69	1847.85
602.04	1840.96
602.39	1833.65
602.74	1826.86
603.08	1820.05
603.43	1813.32
603.78	1805.88
604.13	1798.80
604.48	1791.55
604.83	1784.74
605.18	1777.94
605.53	1769.92
605.87	1761.92
606.22	1754.73
606.57	1746.76
606.92	1739.53
607.27	1732.50
607.62	1725.59
607.96	1718.38
608.31	1711.77
608.66	1704.11
609.01	1696.60
609.36	1689.04
609.70	1680.91
610.05	1672.81
610.40	1665.13
610.75	1656.82
611.10	1649.32
611.44	1640.87
611.79	1632.87
612.14	1624.24
612.49	1615.03
612.83	1606.74
613.18	1598.62
613.53	1590.50
613.88	1581.95
614.22	1573.75
614.57	1565.07
614.92	1557.11
615.27	1549.65
615.61	1541.30
615.96	1533.23
616.31	1525.67
616.65	1518.29
617.00	1510.76
617.35	1503.07
617.70	1494.80
618.04	1486.25
618.39	1478.01
618.74	1470.30
619.08	1461.96
619.43	1454.40
619.78	1447.50
620.12	1440.19
620.47	1432.59
620.82	1424.35
621.16	1416.97
621.51	1409.33
621.85	1401.71
622.20	1393.16
622.55	1384.71
622.89	1376.88
623.24	1369.36
623.59	1361.84
623.93	1354.28
624.28	1347.03
624.62	1339.50
624.97	1332.33
625.32	1325.63
625.66	1318.65
626.01	1311.47
626.35	1304.02
626.70	1296.19
627.04	1288.40
627.39	1280.68
627.73	1273.28
628.08	1266.40
628.43	1259.13
628.77	1251.56
629.12	1244.04
629.46	1236.92
629.81	1229.48
630.15	1222.21
630.50	1214.67
630.84	1206.43
631.19	1198.46
631.53	1190.98
631.88	1183.40
632.22	1175.82
632.57	1168.42
632.91	1160.78
633.26	1153.34
633.60	1145.88
633.95	1138.81
634.29	1131.78
634.64	1125.09
634.98	1117.74
635.32	1110.60
635.67	1103.88
636.01	1097.31
636.36	1090.45
636.70	1083.85
637.05	1077.32
637.39	1070.93
637.73	1064.52
638.08	1058.65
638.42	1052.64
638.77	1046.26
639.11	1039.67
639.45	1033.20
639.80	1026.56
640.14	1020.14
640.49	1013.61
640.83	1007.35
641.17	1000.93
641.52	994.49
641.86	987.95
642.20	982.08
642.55	975.66
642.89	969.25
643.23	962.70
643.58	956.96
643.92	950.75
644.26	944.62
644.61	938.53
644.95	932.44
645.29	925.84
645.64	919.11
645.98	912.69
646.32	906.88
646.66	900.84
647.01	895.02
647.35	889.22
647.69	883.30
648.04	877.79
648.38	872.07
648.72	866.14
649.06	860.12
649.41	854.30
649.75	848.44
650.09	842.49
650.43	836.65
650.78	830.52
651.12	824.57
651.46	818.89
651.80	813.17
652.14	807.72
652.49	802.37
652.83	797.22
653.17	791.59
653.51	785.84
653.85	780.46
654.20	774.75
654.54	768.75
654.88	763.02
655.22	757.15
655.56	751.46
655.90	746.06
656.25	740.86
656.59	735.41
656.93	730.28
657.27	725.11
657.61	719.76
657.95	714.62
658.29	709.60
658.64	704.35
658.98	699.07
659.32	693.64
659.66	688.39
660.00	683.04
660.34	678.08
660.68	673.22
661.02	668.15
661.36	663.47
661.70	659.08
662.05	654.78
662.39	650.36
662.73	645.95
663.07	641.48
663.41	636.96
663.75	632.46
664.09	627.88
664.43	623.53
664.77	619.39
665.11	615.11
665.45	610.89
665.79	606.72
666.13	602.51
666.47	598.35
666.81	594.18
667.15	590.06
667.49	586.12
667.83	582.20
668.17	578.27
668.51	574.21
668.85	570.08
669.19	566.17
669.53	562.34
669.87	558.44
670.21	554.71
670.55	551.10
670.89	547.66
671.23	544.27
671.57	540.69
671.91	537.13
672.25	533.57
672.58	530.06
672.92	526.69
673.26	523.52
673.60	520.36
673.94	517.23
674.28	514.37
674.62	511.37
674.96	508.30
675.30	505.39
675.64	502.42
675.97	499.66
676.31	496.82
676.65	493.91
676.99	491.18
677.33	488.37
677.67	485.49
678.01	482.49
678.34	479.48
678.68	476.61
679.02	473.78
679.36	471.04
679.70	468.33
680.04	465.51
680.37	462.63
680.71	459.88
681.05	457.32
681.39	454.53
681.73	451.91
682.06	449.41
682.40	446.85
682.74	444.35
683.08	441.81
683.42	439.23
683.75	436.74
684.09	434.20
684.43	431.71
684.77	429.31
685.10	426.92
685.44	424.61
685.78	422.30
686.12	420.06
686.45	417.81
686.79	415.49
687.13	413.35
687.46	411.26
687.80	409.05
688.14	406.81
688.48	404.82
688.81	402.59
689.15	400.45
689.49	398.32
689.82	396.25
690.16	394.17
690.50	392.23
690.83	390.26
691.17	388.24
691.51	386.35
691.84	384.48
692.18	382.58
692.52	380.57
692.85	378.68
693.19	376.83
693.52	374.97
693.86	373.18
694.20	371.36
694.53	369.54
694.87	367.75
695.21	365.94
695.54	364.11
695.88	362.38
696.21	360.61
696.55	358.93
696.88	357.25
697.22	355.61
697.56	353.99
697.89	352.35
698.23	350.74
698.56	349.11
698.90	347.50
699.23	345.81
699.57	344.28
699.90	342.70
700.24	341.15
700.58	339.62
700.91	338.14
701.25	336.69
701.58	335.34
701.92	333.96
702.25	332.58
702.59	331.19
702.92	329.86
703.26	328.61
703.59	327.34
703.93	326.14
704.26	324.90
704.60	323.59
704.93	322.29
705.26	321.09
705.60	319.94
705.93	318.79
706.27	317.79
706.60	316.74
706.94	315.69
707.27	314.51
707.61	313.44
707.94	312.40
708.27	311.29
708.61	310.15
708.94	309.13
709.28	308.16
709.61	307.20
709.94	306.29
710.28	305.22
710.61	304.24
710.95	303.16
711.28	302.22
711.61	301.27
711.95	300.39
712.28	299.40
712.61	298.36
712.95	297.42
713.28	296.55
713.61	295.66
713.95	294.73
714.28	293.94
714.61	293.06
714.95	292.20
715.28	291.34
715.61	290.47
715.95	289.62
716.28	288.74
716.61	287.91
716.95	287.06
717.28	286.28
717.61	285.50
717.94	284.75
718.28	283.92
718.61	283.20
718.94	282.48
719.27	281.83
719.61	281.20
719.94	280.53
720.27	279.80
720.60	279.08
720.94	278.46
721.27	277.82
721.60	277.27
721.93	276.68
722.27	276.15
722.60	275.62
722.93	275.04
723.26	274.51
723.59	273.92
723.93	273.39
724.26	272.84
724.59	272.30
724.92	271.81
725.25	271.33
725.59	270.77
725.92	270.27
726.25	269.79
726.58	269.33
726.91	268.85
727.24	268.36
727.57	267.93
727.91	267.43
728.24	266.97
728.57	266.50
728.90	266.06
729.23	265.58
729.56	265.13
729.89	264.67
730.22	264.20
730.55	263.74
730.89	263.29
731.22	262.85
731.55	262.42
731.88	261.95
732.21	261.53
732.54	261.09
732.87	260.64
733.20	260.23
733.53	259.82
733.86	259.43
734.19	259.04
734.52	258.65
734.85	258.34
735.18	257.96
735.51	257.60
735.84	257.23
736.17	256.90
736.50	256.51
736.83	256.29
737.16	255.90
737.49	255.59
737.82	255.22
738.15	254.90
738.48	254.55
738.81	254.25
739.14	253.92
739.47	253.60
739.80	253.30
740.13	252.99
740.46	252.62
740.79	252.32
741.12	252.00
741.45	251.69
741.78	251.33
742.11	251.03
742.44	250.69
742.77	250.40
743.10	250.06
743.43	249.74
743.75	249.38
744.08	249.26
744.41	248.99
744.74	248.71
745.07	248.42
745.40	248.20
745.73	247.93
746.06	247.65
746.39	247.40
746.71	247.13
747.04	246.88
747.37	246.68
747.70	246.42
748.03	246.15
748.36	245.93
748.68	245.71
749.01	245.45
749.34	245.22
749.67	244.90
750.00	244.67
750.33	244.51
750.65	244.27
750.98	243.92
751.31	243.70
751.64	243.50
751.97	243.34
752.29	243.11
752.62	242.84
752.95	242.65
753.28	242.44
753.60	242.22
753.93	242.00
754.26	241.78
754.59	241.56
754.91	241.34
755.24	241.15
755.57	240.94
755.90	240.72
756.22	240.53
756.55	240.38
756.88	240.18
757.20	239.96
757.53	239.78
757.86	239.61
758.19	239.42
758.51	239.24
758.84	239.03
759.17	238.83
759.49	238.68
759.82	238.56
760.15	238.43
760.47	238.32
760.80	238.14
761.13	238.01
761.45	237.87
761.78	237.74
762.11	237.59
762.43	237.43
762.76	237.33
763.08	237.20
763.41	237.07
763.74	236.96
764.06	236.81
764.39	236.65
764.71	236.49
765.04	236.36
765.37	236.24
765.69	236.09
766.02	236.00
766.34	235.86
766.67	235.72
767.00	235.57
767.32	235.47
767.65	235.44
767.97	235.29
768.30	235.14
768.62	235.04
768.95	234.91
769.27	234.83
769.60	234.74
769.92	234.60
770.25	234.50
770.57	234.39
770.90	234.31
771.22	234.23
771.55	234.15
771.87	234.05
772.20	233.95
772.52	233.95
772.85	233.96
773.17	233.90
773.50	233.78
773.82	233.70
774.15	233.56
774.47	233.40
774.80	233.33
775.12	233.26
775.45	233.13
775.77	233.07
776.09	233.02
776.42	232.91
776.74	232.87
777.07	232.79
777.39	232.67
777.72	232.58
778.04	232.50
778.36	232.44
778.69	232.38
779.01	232.32
779.33	232.16
779.66	231.97
779.98	231.91
780.31	231.87
780.63	231.84
780.95	231.79
781.28	231.74
781.60	231.66
781.92	231.60
782.25	231.56
782.57	231.47
782.89	231.36
783.22	231.30
783.54	231.22
783.86	231.15
784.19	231.13
784.51	231.09
784.83	231.02
785.16	230.94
785.48	230.90
785.80	230.87
786.12	230.86
786.45	230.84
786.77	230.78
787.09	230.71
787.42	230.65
787.74	230.60
788.06	230.58
788.38	230.56
788.71	230.52
789.03	230.47
789.35	230.49
789.67	230.40
789.99	230.34
790.32	230.32
790.64	230.32
790.96	230.36
791.28	230.34
791.61	230.34
791.93	230.31
792.25	230.26
792.57	230.29
792.89	230.23
793.21	230.18
793.54	230.15
793.86	230.11
794.18	230.06
794.50	230.00
794.82	229.97
795.14	229.93
795.47	229.90
795.79	229.86
796.11	229.76
796.43	229.77
796.75	229.77
797.07	229.73
797.39	229.66
797.71	229.55
798.04	229.49
798.36	229.44
798.68	229.38
799.00	229.36
799.32	229.24
799.64	229.24
799.96	229.21
800.28	229.19
800.60	229.16
800.92	229.15
801.24	229.10
801.56	229.04
801.89	228.99
802.21	228.98
802.53	228.95
802.85	228.97
803.17	228.95
803.49	228.90
803.81	228.88
804.13	228.90
804.45	228.85
804.77	228.82
805.09	228.79
805.41	228.79
805.73	228.76
806.05	228.71
806.37	228.63
806.69	228.62
807.01	228.58
807.33	228.56
807.65	228.52
807.97	228.56
808.28	228.50
808.60	228.48
808.92	228.48
809.24	228.54
809.56	228.51
809.88	228.47
810.20	228.43
810.52	228.40
810.84	228.33
811.16	228.32
811.48	228.28
811.80	228.32
812.12	228.31
812.43	228.26
812.75	228.26
813.07	228.27
813.39	228.24
813.71	228.21
814.03	228.20
814.35	228.16
814.67	228.09
814.98	228.06
815.30	228.07
815.62	228.02
815.94	227.93
816.26	227.94
816.58	227.91
816.89	227.93
817.21	227.90
817.53	227.88
817.85	227.85
818.17	227.85
818.48	227.75
818.80	227.75
819.12	227.75
819.44	227.71
819.76	227.66
820.07	227.63
820.39	227.57
820.71	227.55
821.03	227.54
821.34	227.54
821.66	227.56
821.98	227.51
822.30	227.47
822.61	227.50
822.93	227.44
823.25	227.40
823.57	227.39
823.88	227.42
824.20	227.40
824.52	227.40
824.83	227.36
825.15	227.36
825.47	227.29
825.79	227.28
826.10	227.27
826.42	227.25
826.74	227.26
827.05	227.25
827.37	227.25
827.69	227.21
828.00	227.19
828.32	227.20
828.64	227.19
828.95	227.24
829.27	227.18
829.58	227.17
829.90	227.20
830.22	227.18
830.53	227.12
830.85	227.12
831.17	227.08
831.48	227.10
831.80	227.08
832.11	227.09
832.43	227.07
832.75	227.06
833.06	227.10
833.38	227.07
833.69	227.08
834.01	227.04
834.32	227.01
834.64	227.03
834.96	226.97
835.27	226.99
835.59	226.96
835.90	226.93
836.22	226.92
836.53	226.90
836.85	226.89
837.16	226.97
837.48	226.95
837.79	226.99
838.11	226.99
838.42	226.99
838.74	227.02
839.05	226.99
839.37	227.00
839.68	226.97
840.00	226.95
840.31	226.98
840.63	227.02
840.94	227.01
841.26	226.98
841.57	226.96
841.88	226.94
842.20	226.96
842.51	226.99
842.83	226.98
843.14	227.05
843.46	227.04
843.77	226.96
844.08	226.93
844.40	226.87
844.71	226.90
845.03	226.88
845.34	226.86
845.65	226.90
845.97	226.86
846.28	226.87
846.60	226.88
846.91	226.81
847.22	226.79
847.54	226.84
847.85	226.84
848.16	226.86
848.48	226.83
848.79	226.84
849.10	226.82
849.42	226.80
849.73	226.70
850.04	226.71
850.36	226.69
850.67	226.71
850.98	226.73
851.30	226.72
851.61	226.71
851.92	226.70
852.23	226.72
852.55	226.75
852.86	226.69
853.17	226.70
853.49	226.70
853.80	226.72
854.11	226.73
854.42	226.77
854.74	226.73
855.05	226.77
855.36	226.71
855.67	226.72
855.99	226.76
856.30	226.87
856.61	226.84
856.92	226.82
857.23	226.81
857.55	226.80
857.86	226.76
858.17	226.75
858.48	226.71
858.79	226.70
859.11	226.67
859.42	226.69
859.73	226.68
860.04	226.66
860.35	226.62
860.66	226.55
860.98	226.55
861.29	226.58
861.60	226.56
861.91	226.57
862.22	226.55
862.53	226.51
862.84	226.42
863.16	226.45
863.47	226.43
863.78	226.41
864.09	226.43
864.40	226.43
864.71	226.44
865.02	226.45
865.33	226.42
865.64	226.41
865.95	226.35
866.27	226.42
866.58	226.41
866.89	226.43
867.20	226.42
867.51	226.37
867.82	226.38
868.13	226.39
868.44	226.34
868.75	226.33
869.06	226.37
869.37	226.37
869.68	226.30
869.99	226.33
870.30	226.35
870.61	226.34
870.92	226.32
871.23	226.33
871.54	226.33
871.85	226.34
872.16	226.36
872.47	226.36
872.78	226.31
873.09	226.33
873.40	226.31
873.71	226.33
874.02	226.32
874.33	226.26
874.64	226.24
874.95	226.26
875.26	226.25
875.56	226.21
875.87	226.19
876.18	226.22
876.49	226.32
876.80	226.32
877.11	226.31
877.42	226.32
877.73	226.30
878.04	226.27
878.35	226.26
878.66	226.25
878.96	226.27
879.27	226.24
879.58	226.24
879.89	226.19
880.20	226.20
880.51	226.22
880.82	226.23
881.12	226.25
881.43	226.22
881.74	226.20
882.05	226.20
882.36	226.20
882.67	226.21
882.97	226.10
883.28	226.09
883.59	226.09
883.90	226.10
884.21	226.11
884.51	226.16
884.82	226.15
885.13	226.14
885.44	226.14
885.74	226.18
886.05	226.18
886.36	226.23
886.67	226.23
886.98	226.27
887.28	226.31
887.59	226.28
887.90	226.25
888.20	226.25
888.51	226.31
888.82	226.30
889.13	226.26
889.43	226.35
889.74	226.34
890.05	226.36
890.35	226.33
890.66	226.33
890.97	226.29
891.28	226.31
891.58	226.34
891.89	226.36
892.20	226.34
892.50	226.34
892.81	226.33
893.12	226.35
893.42	226.30
893.73	226.30
894.04	226.35
894.34	226.41
894.65	226.40
894.95	226.38
895.26	226.36
895.57	226.44
895.87	226.35
896.18	226.35
896.48	226.32
896.79	226.34
897.10	226.31
897.40	226.33
897.71	226.33
898.01	226.27
898.32	226.30
898.63	226.30
898.93	226.29
899.24	226.31
899.54	226.25
899.85	226.26
900.15	226.27
900.46	226.22
900.76	226.21
901.07	226.23
901.38	226.22
901.68	226.22
901.99	226.14
902.29	226.16
902.60	226.17
902.90	226.20
903.21	226.17
903.51	226.19
903.82	226.20
904.12	226.19
904.43	226.21
904.73	226.14
905.03	226.14
905.34	226.23
905.64	226.20
905.95	226.22
906.25	226.20
906.56	226.16
906.86	226.15
907.17	226.14
907.47	226.13
907.77	226.13
908.08	226.10
908.38	226.11
908.69	226.11
908.99	226.11
909.30	226.11
909.60	226.10
909.90	226.10
910.21	226.06
910.51	226.05
910.81	226.08
911.12	226.08
911.42	226.08
911.73	225.93
912.03	225.96
912.33	225.97
912.64	225.98
912.94	225.95
913.24	225.94
913.55	225.92
913.85	225.91
914.15	225.91
914.46	225.91
914.76	225.92
915.06	225.87
915.37	225.82
915.67	225.80
915.97	225.80
916.27	225.74
916.58	225.70
916.88	225.69
917.18	225.66
917.49	225.72
917.79	225.71
918.09	225.74
918.39	225.75
918.70	225.75
919.00	225.77
919.30	225.81
919.60	225.81
919.91	225.80
920.21	225.83
920.51	225.80
920.81	225.84
921.12	225.83
921.42	225.86
921.72	225.88
922.02	225.87
922.32	225.94
922.63	225.97
922.93	226.05
923.23	226.03
923.53	226.05
923.83	226.00
924.13	226.00
924.44	226.01
924.74	226.01
925.04	226.01
925.34	226.01
925.64	225.99
925.94	226.01
926.24	226.08
926.55	226.06
926.85	226.10
927.15	226.10
927.45	226.12
927.75	226.11
928.05	226.13
928.35	226.15
928.65	226.12
928.95	226.14
929.26	226.16
929.56	226.18
929.86	226.19
930.16	226.18
930.46	226.18
930.76	226.22
931.06	226.23
931.36	226.24
931.66	226.28
931.96	226.28
932.26	226.27
932.56	226.27
932.86	226.29
933.16	226.29
933.46	226.29
933.76	226.30
934.06	226.35
934.36	226.38
934.66	226.39
934.96	226.39
935.26	226.40
935.56	226.41
935.86	226.39
936.16	226.37
936.46	226.41
936.76	226.43
937.06	226.42
937.36	226.37
937.66	226.37
937.96	226.35
938.26	226.38
938.56	226.40
938.86	226.37
939.16	226.38
939.46	226.40
939.76	226.40
940.06	226.40
940.35	226.35
940.65	226.31
940.95	226.32
941.25	226.31
941.55	226.32
941.85	226.31
942.15	226.34
942.45	226.35
942.75	226.31
943.04	226.30
943.34	226.31
943.64	226.31
943.94	226.28
944.24	226.27
944.54	226.25
944.84	226.20
945.13	226.20
945.43	226.19
945.73	226.14
946.03	226.12
946.33	226.11
946.62	226.10
946.92	226.12
947.22	226.08
947.52	226.05
947.82	226.01
948.11	225.98
948.41	225.96
948.71	225.94
949.01	225.95
949.31	225.92
949.60	225.91
949.90	225.96
950.20	225.92
950.50	225.92
950.79	225.89
951.09	225.90
951.39	225.91
951.69	225.88
951.98	225.90
952.28	225.89
952.58	225.87
952.87	225.83
953.17	225.85
953.47	225.84
953.76	225.85
954.06	225.85
954.36	225.83
954.66	225.84
954.95	225.87
955.25	225.83
955.55	225.85
955.84	225.83
956.14	225.77
956.44	225.82
956.73	225.77
957.03	225.79
957.32	225.81
957.62	225.77
957.92	225.81
958.21	225.84
958.51	225.95
958.81	225.95
959.10	226.00
959.40	225.98
959.69	225.95
959.99	225.97
960.29	225.97
960.58	225.93
960.88	225.94
961.17	225.91
961.47	225.94
961.76	225.94
962.06	225.98
962.36	225.99
962.65	225.99
962.95	226.01
963.24	225.99
963.54	226.02
963.83	226.05
964.13	226.02
964.42	225.94
964.72	225.89
965.01	225.88
965.31	225.89
965.60	225.88
965.90	226.00
966.19	225.98
966.49	225.99
966.78	226.03
967.08	226.04
967.37	226.03
967.67	226.03
967.96	226.05
968.26	226.02
968.55	226.02
968.85	225.98
969.14	225.96
969.43	225.97
969.73	225.95
970.02	225.96
970.32	225.96
970.61	225.97
970.91	225.96
971.20	225.97
971.49	225.96
971.79	225.98
972.08	225.89
972.38	225.90
972.67	225.89
972.96	225.91
973.26	225.92
973.55	225.99
973.85	225.98
974.14	225.98
974.43	225.98
974.73	225.97
975.02	225.97
975.31	225.99
975.61	225.98
975.90	225.97
976.19	225.97
976.49	225.98
976.78	226.02
977.07	226.00
977.37	226.03
977.66	226.03
977.95	226.01
978.24	226.04
978.54	226.06
978.83	226.07
979.12	226.05
979.42	226.07
979.71	226.03
980.00	226.02
980.29	226.04
980.59	225.99
980.88	226.05
981.17	226.04
981.46	226.06
981.76	226.06
982.05	226.09
982.34	226.09
982.63	226.09
982.93	226.07
983.22	226.08
983.51	226.06
983.80	226.07
984.09	226.09
984.39	226.06
984.68	226.05
984.97	226.05
985.26	226.05
985.55	226.03
985.85	226.03
986.14	226.03
986.43	226.03
986.72	226.08
987.01	226.03
987.30	226.05
987.59	226.05
987.89	226.04
988.18	226.02
988.47	226.00
988.76	225.95
989.05	225.93
989.34	225.94
989.63	225.99
989.92	225.98
990.22	225.96
990.51	225.99
990.80	225.98
991.09	225.99
991.38	226.02
991.67	225.99
991.96	225.99
992.25	226.00
992.54	225.99
992.83	225.96
993.12	225.95
993.41	226.00
993.70	226.03
993.99	226.06
994.28	226.05
994.58	226.08
994.87	226.12
995.16	226.14
995.45	226.12
995.74	226.07
996.03	226.10
996.32	226.12
996.61	226.11
996.90	226.11
997.19	226.09
997.48	226.07
997.77	226.08
998.06	226.07
998.34	226.05
998.63	226.06
998.92	226.10
999.21	226.11
999.50	226.08
999.79	226.05
1000.08	226.05
1000.37	226.05
1000.66	226.05
1000.95	226.09
1001.24	226.09
1001.53	226.11
1001.82	226.09
1002.11	226.04
1002.40	226.03
1002.68	226.06
1002.97	226.12
1003.26	226.10
1003.55	226.10
1003.84	226.09
1004.13	226.10
1004.42	226.11
1004.71	226.10
1004.99	226.05
1005.28	226.08
1005.57	226.07
1005.86	226.07
1006.15	226.07
1006.44	226.03
1006.72	226.03
1007.01	226.00
1007.30	225.98
1007.59	225.96
1007.88	225.98
1008.17	225.99
1008.45	225.99
1008.74	225.96
1009.03	225.92
1009.32	225.92
1009.60	225.91
1009.89	225.90
1010.18	225.87
1010.47	225.85
1010.76	225.83
1011.04	225.84
1011.33	225.81
1011.62	225.81
1011.91	225.79
1012.19	225.78
1012.48	225.80
1012.77	225.76
1013.05	225.78
1013.34	225.78
1013.63	225.75
1013.92	225.75
1014.20	225.75
1014.49	225.72
1014.78	225.73
1015.06	225.69
1015.35	225.70
1015.64	225.70
1015.92	225.71
1016.21	225.71
1016.50	225.70
1016.78	225.71
1017.07	225.71
1017.36	225.70
1017.64	225.66
1017.93	225.67
1018.22	225.66
1018.50	225.66
1018.79	225.68
1019.08	225.63
1019.36	225.61
1019.65	225.62
1019.93	225.63
1020.22	225.64
1020.51	225.70
1020.79	225.72
1021.08	225.52
1021.36	225.48
1021.65	225.76
1021.94	225.59
1022.22	225.47
1022.51	225.47
1022.79	226.06
1023.08	226.03
1023.36	226.99
1023.65	226.22
>>>>>End Processed Spectral Data<<<<<
