SpectraSuite Data File
++++++++++++++++++++++++++++++++++++
Date: Fri Feb 01 15:04:43 EST 2013
User: group
Dark Spectrum Present: No
Reference Spectrum Present: No
Number of Sampled Component Spectra: 1
Spectrometers: USB2E7196
Integration Time (usec): 35000 (USB2E7196)
Spectra Averaged: 100 (USB2E7196)
Boxcar Smoothing: 10 (USB2E7196)
Correct for Electrical Dark: No (USB2E7196)
Strobe/Lamp Enabled: No (USB2E7196)
Correct for Detector Non-linearity: No (USB2E7196)
Correct for Stray Light: No (USB2E7196)
Number of Pixels in Processed Spectrum: 2048
>>>>>Begin Processed Spectral Data<<<<<
339.09	0.00
339.48	214.95
339.86	216.75
340.24	218.23
340.63	220.06
341.01	222.77
341.39	222.11
341.78	223.18
342.16	224.47
342.54	225.17
342.93	213.56
343.31	224.38
343.69	224.91
344.07	225.34
344.46	225.79
344.84	226.14
345.22	226.36
345.60	226.65
345.99	226.85
346.37	227.00
346.75	227.11
347.13	227.19
347.52	227.26
347.90	227.30
348.28	227.34
348.66	227.40
349.05	227.37
349.43	227.40
349.81	227.46
350.19	227.51
350.57	227.55
350.96	227.63
351.34	227.68
351.72	227.80
352.10	227.92
352.48	227.98
352.87	228.05
353.25	228.10
353.63	228.14
354.01	228.23
354.39	228.31
354.77	228.38
355.15	228.47
355.54	228.55
355.92	228.60
356.30	228.68
356.68	228.81
357.06	228.91
357.44	228.98
357.82	229.01
358.20	229.09
358.58	229.14
358.97	229.22
359.35	229.29
359.73	229.34
360.11	229.37
360.49	229.44
360.87	229.49
361.25	229.56
361.63	229.61
362.01	229.62
362.39	229.61
362.77	229.65
363.15	229.69
363.53	229.69
363.91	229.70
364.29	229.72
364.67	229.64
365.05	229.64
365.43	229.64
365.81	229.64
366.19	229.67
366.57	229.69
366.95	229.63
367.33	229.60
367.71	229.59
368.09	229.59
368.47	229.54
368.85	229.50
369.23	229.49
369.61	229.44
369.99	229.45
370.37	229.43
370.75	229.44
371.13	229.35
371.51	229.29
371.89	229.24
372.27	229.17
372.65	229.12
373.03	229.06
373.41	229.02
373.78	228.99
374.16	228.88
374.54	228.81
374.92	228.74
375.30	228.66
375.68	228.58
376.06	228.51
376.44	228.40
376.82	228.32
377.19	228.21
377.57	228.12
377.95	228.00
378.33	227.94
378.71	227.78
379.09	227.70
379.47	227.61
379.84	227.54
380.22	227.49
380.60	227.38
380.98	227.30
381.36	227.18
381.73	227.07
382.11	227.01
382.49	226.94
382.87	226.87
383.25	226.81
383.62	226.84
384.00	226.76
384.38	226.72
384.76	226.67
385.13	226.67
385.51	226.62
385.89	226.54
386.27	226.48
386.64	226.46
387.02	226.43
387.40	226.38
387.78	226.34
388.15	226.27
388.53	226.25
388.91	226.24
389.29	226.25
389.66	226.24
390.04	226.18
390.42	226.20
390.79	226.25
391.17	226.26
391.55	226.14
391.92	226.16
392.30	226.17
392.68	226.17
393.05	226.13
393.43	226.15
393.81	226.19
394.18	226.22
394.56	226.27
394.94	226.29
395.31	226.31
395.69	226.36
396.06	226.45
396.44	226.51
396.82	226.54
397.19	226.62
397.57	226.68
397.95	226.79
398.32	226.83
398.70	226.87
399.07	226.96
399.45	227.05
399.82	227.12
400.20	227.21
400.58	227.30
400.95	227.40
401.33	227.51
401.70	227.67
402.08	227.78
402.45	227.86
402.83	228.02
403.20	228.17
403.58	228.31
403.95	228.40
404.33	228.53
404.71	228.71
405.08	228.89
405.46	229.02
405.83	229.18
406.21	229.36
406.58	229.53
406.96	229.70
407.33	229.87
407.70	230.10
408.08	230.40
408.45	230.63
408.83	230.88
409.20	231.11
409.58	231.31
409.95	231.58
410.33	231.87
410.70	232.13
411.08	232.46
411.45	232.74
411.82	233.06
412.20	233.41
412.57	233.83
412.95	234.13
413.32	234.56
413.69	234.97
414.07	235.36
414.44	235.82
414.82	236.29
415.19	236.87
415.56	237.36
415.94	237.86
416.31	238.48
416.68	239.07
417.06	239.76
417.43	240.43
417.81	241.19
418.18	241.96
418.55	242.80
418.93	243.65
419.30	244.57
419.67	245.53
420.04	246.47
420.42	247.45
420.79	248.62
421.16	249.73
421.54	250.89
421.91	252.12
422.28	253.38
422.66	254.71
423.03	256.00
423.40	257.34
423.77	258.74
424.15	260.17
424.52	261.66
424.89	263.29
425.26	264.81
425.64	266.25
426.01	267.83
426.38	269.49
426.75	271.14
427.13	272.88
427.50	274.68
427.87	276.56
428.24	278.42
428.61	280.16
428.99	282.11
429.36	284.19
429.73	286.26
430.10	288.24
430.47	290.31
430.85	292.43
431.22	294.70
431.59	297.08
431.96	299.32
432.33	301.83
432.70	304.23
433.08	307.07
433.45	309.67
433.82	312.32
434.19	315.16
434.56	317.98
434.93	320.58
435.30	323.21
435.68	326.11
436.05	328.93
436.42	331.71
436.79	334.28
437.16	337.00
437.53	339.82
437.90	342.67
438.27	345.43
438.64	348.26
439.01	350.87
439.38	353.13
439.75	355.36
440.13	357.83
440.50	360.14
440.87	362.03
441.24	364.00
441.61	366.16
441.98	367.67
442.35	369.49
442.72	371.43
443.09	373.20
443.46	374.20
443.83	374.82
444.20	375.38
444.57	376.18
444.94	376.51
445.31	376.88
445.68	377.25
446.05	377.31
446.42	376.87
446.79	376.46
447.16	376.05
447.53	375.67
447.90	374.51
448.27	373.37
448.64	371.77
449.01	370.61
449.37	368.64
449.74	366.75
450.11	364.47
450.48	361.92
450.85	359.40
451.22	357.31
451.59	355.25
451.96	353.27
452.33	350.70
452.70	348.33
453.07	345.50
453.43	342.55
453.80	339.79
454.17	337.23
454.54	334.66
454.91	331.89
455.28	329.21
455.65	326.71
456.02	324.22
456.38	322.06
456.75	319.42
457.12	317.15
457.49	314.93
457.86	312.85
458.23	311.02
458.59	309.00
458.96	306.84
459.33	304.99
459.70	303.15
460.07	301.60
460.43	299.87
460.80	298.20
461.17	296.79
461.54	295.31
461.91	293.82
462.27	292.37
462.64	291.14
463.01	289.81
463.38	288.56
463.74	287.18
464.11	285.99
464.48	284.94
464.85	283.80
465.21	282.92
465.58	281.94
465.95	280.83
466.32	279.89
466.68	278.99
467.05	278.11
467.42	277.21
467.78	276.27
468.15	275.39
468.52	274.74
468.88	273.83
469.25	273.04
469.62	272.38
469.98	271.69
470.35	271.07
470.72	270.46
471.08	269.77
471.45	269.26
471.82	268.72
472.18	268.14
472.55	267.71
472.92	267.20
473.28	266.75
473.65	266.26
474.02	265.80
474.38	265.44
474.75	265.06
475.11	264.71
475.48	264.42
475.85	264.22
476.21	263.95
476.58	263.80
476.94	263.65
477.31	263.48
477.67	263.31
478.04	263.14
478.41	263.06
478.77	263.06
479.14	262.95
479.50	262.96
479.87	263.02
480.23	263.10
480.60	263.14
480.96	263.21
481.33	263.45
481.69	263.62
482.06	263.82
482.42	264.03
482.79	264.28
483.15	264.61
483.52	264.94
483.88	265.28
484.25	265.63
484.61	266.01
484.98	266.45
485.34	267.02
485.71	267.63
486.07	268.24
486.44	268.84
486.80	269.54
487.17	270.24
487.53	271.03
487.90	271.85
488.26	272.72
488.62	273.69
488.99	274.61
489.35	275.65
489.72	276.76
490.08	277.96
490.44	279.20
490.81	280.53
491.17	281.83
491.54	283.33
491.90	284.85
492.26	286.50
492.63	288.24
492.99	290.02
493.36	291.88
493.72	293.89
494.08	295.97
494.45	298.20
494.81	300.54
495.17	302.97
495.54	305.51
495.90	308.19
496.26	310.99
496.63	313.96
496.99	317.08
497.35	320.27
497.72	323.65
498.08	327.13
498.44	330.77
498.80	334.71
499.17	338.74
499.53	342.95
499.89	347.31
500.26	351.83
500.62	356.43
500.98	361.41
501.34	366.47
501.71	371.78
502.07	377.25
502.43	382.85
502.79	388.68
503.16	394.73
503.52	400.96
503.88	407.35
504.24	413.97
504.60	420.82
504.97	428.00
505.33	435.27
505.69	442.91
506.05	450.70
506.41	458.58
506.78	466.77
507.14	475.19
507.50	483.87
507.86	492.86
508.22	502.01
508.59	511.17
508.95	520.75
509.31	530.49
509.67	540.49
510.03	550.75
510.39	561.25
510.75	572.08
511.12	583.10
511.48	594.41
511.84	605.89
512.20	617.44
512.56	629.37
512.92	641.57
513.28	653.90
513.64	666.41
514.00	679.08
514.37	692.01
514.73	705.04
515.09	718.10
515.45	731.37
515.81	745.00
516.17	758.99
516.53	773.07
516.89	787.24
517.25	801.49
517.61	815.98
517.97	830.42
518.33	844.89
518.69	859.67
519.05	874.72
519.41	889.91
519.77	905.47
520.13	920.95
520.49	936.35
520.85	951.83
521.21	967.59
521.57	983.80
521.93	999.60
522.29	1016.03
522.65	1032.36
523.01	1048.66
523.37	1064.78
523.73	1081.09
524.09	1097.28
524.45	1113.71
524.81	1130.38
525.17	1147.29
525.53	1164.31
525.89	1181.18
526.25	1197.98
526.61	1214.38
526.97	1231.14
527.33	1247.67
527.68	1264.35
528.04	1280.94
528.40	1297.71
528.76	1314.88
529.12	1331.58
529.48	1348.45
529.84	1364.54
530.20	1381.15
530.56	1398.28
530.91	1415.69
531.27	1432.48
531.63	1449.01
531.99	1465.73
532.35	1481.81
532.71	1497.72
533.07	1513.98
533.42	1529.96
533.78	1546.06
534.14	1562.41
534.50	1577.80
534.86	1593.72
535.21	1608.97
535.57	1625.01
535.93	1640.58
536.29	1655.39
536.65	1670.58
537.00	1685.59
537.36	1701.09
537.72	1715.69
538.08	1730.10
538.44	1744.09
538.79	1758.01
539.15	1771.85
539.51	1785.55
539.87	1799.94
540.22	1813.83
540.58	1827.72
540.94	1841.29
541.29	1854.31
541.65	1867.17
542.01	1880.58
542.37	1893.01
542.72	1905.52
543.08	1917.28
543.44	1929.70
543.79	1941.07
544.15	1952.20
544.51	1963.70
544.87	1974.62
545.22	1985.44
545.58	1995.65
545.94	2005.35
546.29	2015.35
546.65	2025.18
547.01	2034.53
547.36	2043.30
547.72	2051.68
548.07	2059.47
548.43	2067.59
548.79	2075.76
549.14	2083.24
549.50	2090.53
549.86	2098.22
550.21	2105.47
550.57	2112.65
550.92	2119.16
551.28	2126.20
551.64	2133.13
551.99	2139.73
552.35	2145.88
552.70	2152.19
553.06	2158.29
553.41	2164.70
553.77	2170.58
554.13	2176.64
554.48	2182.80
554.84	2188.22
555.19	2193.53
555.55	2198.73
555.90	2203.16
556.26	2207.77
556.61	2212.40
556.97	2216.67
557.32	2220.78
557.68	2224.86
558.03	2229.17
558.39	2232.94
558.74	2237.40
559.10	2241.26
559.45	2244.71
559.81	2249.06
560.16	2252.80
560.52	2255.92
560.87	2259.40
561.23	2262.11
561.58	2265.05
561.94	2267.47
562.29	2269.87
562.64	2272.46
563.00	2275.15
563.35	2278.71
563.71	2281.81
564.06	2285.05
564.42	2287.88
564.77	2290.25
565.12	2292.53
565.48	2294.31
565.83	2296.05
566.19	2297.28
566.54	2298.15
566.89	2299.36
567.25	2299.88
567.60	2301.04
567.96	2302.59
568.31	2303.17
568.66	2304.05
569.02	2304.53
569.37	2304.67
569.72	2305.34
570.08	2305.49
570.43	2305.26
570.78	2304.27
571.14	2302.62
571.49	2301.18
571.84	2300.73
572.20	2299.45
572.55	2298.24
572.90	2296.44
573.26	2294.90
573.61	2293.20
573.96	2291.34
574.31	2288.19
574.67	2284.87
575.02	2281.17
575.37	2277.75
575.72	2273.78
576.08	2270.35
576.43	2266.90
576.78	2263.17
577.13	2259.97
577.49	2256.67
577.84	2253.14
578.19	2249.48
578.54	2245.78
578.90	2241.29
579.25	2235.53
579.60	2230.43
579.95	2225.34
580.30	2220.34
580.66	2215.05
581.01	2209.82
581.36	2204.76
581.71	2200.51
582.06	2196.01
582.42	2191.40
582.77	2185.95
583.12	2181.29
583.47	2176.42
583.82	2171.14
584.17	2165.80
584.53	2160.09
584.88	2154.39
585.23	2148.35
585.58	2142.77
585.93	2137.28
586.28	2132.53
586.63	2127.40
586.98	2122.33
587.34	2117.54
587.69	2112.61
588.04	2107.20
588.39	2101.55
588.74	2095.04
589.09	2088.69
589.44	2081.79
589.79	2075.68
590.14	2069.96
590.49	2063.28
590.84	2056.89
591.19	2050.87
591.54	2044.16
591.89	2036.57
592.25	2029.64
592.60	2022.45
592.95	2014.66
593.30	2007.14
593.65	1999.43
594.00	1992.33
594.35	1985.00
594.70	1976.90
595.05	1969.49
595.40	1962.24
595.75	1954.57
596.10	1948.03
596.45	1941.13
596.80	1934.83
597.15	1928.13
597.50	1920.83
597.85	1914.38
598.19	1907.58
598.54	1900.38
598.89	1893.81
599.24	1887.94
599.59	1881.18
599.94	1874.91
600.29	1868.57
600.64	1861.95
600.99	1854.36
601.34	1847.43
601.69	1840.40
602.04	1833.35
602.39	1826.01
602.74	1819.05
603.08	1812.33
603.43	1805.84
603.78	1798.61
604.13	1791.45
604.48	1784.02
604.83	1777.29
605.18	1770.22
605.53	1762.20
605.87	1754.20
606.22	1746.93
606.57	1739.04
606.92	1731.65
607.27	1724.37
607.62	1717.37
607.96	1710.05
608.31	1703.40
608.66	1695.70
609.01	1688.09
609.36	1680.72
609.70	1672.83
610.05	1664.77
610.40	1657.08
610.75	1648.63
611.10	1640.95
611.44	1632.59
611.79	1624.72
612.14	1616.03
612.49	1607.10
612.83	1598.88
613.18	1590.77
613.53	1582.77
613.88	1574.17
614.22	1565.94
614.57	1557.43
614.92	1549.41
615.27	1541.87
615.61	1533.49
615.96	1525.51
616.31	1518.02
616.65	1510.46
617.00	1502.81
617.35	1495.17
617.70	1486.79
618.04	1478.18
618.39	1469.96
618.74	1462.39
619.08	1454.05
619.43	1446.49
619.78	1439.49
620.12	1432.23
620.47	1424.79
620.82	1416.65
621.16	1409.37
621.51	1401.78
621.85	1394.21
622.20	1385.77
622.55	1377.57
622.89	1369.89
623.24	1362.41
623.59	1355.04
623.93	1347.58
624.28	1340.29
624.62	1332.78
624.97	1325.63
625.32	1319.06
625.66	1312.15
626.01	1304.92
626.35	1297.49
626.70	1289.85
627.04	1282.09
627.39	1274.39
627.73	1267.00
628.08	1260.11
628.43	1252.76
628.77	1245.39
629.12	1237.85
629.46	1230.82
629.81	1223.39
630.15	1216.16
630.50	1208.84
630.84	1200.70
631.19	1192.91
631.53	1185.53
631.88	1178.11
632.22	1170.56
632.57	1163.23
632.91	1155.70
633.26	1148.31
633.60	1141.05
633.95	1133.98
634.29	1127.06
634.64	1120.30
634.98	1112.97
635.32	1105.83
635.67	1099.34
636.01	1092.77
636.36	1086.10
636.70	1079.57
637.05	1072.96
637.39	1066.54
637.73	1059.93
638.08	1054.05
638.42	1048.04
638.77	1041.52
639.11	1034.87
639.45	1028.53
639.80	1021.95
640.14	1015.43
640.49	1009.01
640.83	1002.70
641.17	996.41
641.52	990.08
641.86	983.75
642.20	977.95
642.55	971.73
642.89	965.23
643.23	958.73
643.58	952.85
643.92	946.60
644.26	940.61
644.61	934.70
644.95	928.74
645.29	922.11
645.64	915.42
645.98	909.23
646.32	903.44
646.66	897.44
647.01	891.64
647.35	886.04
647.69	880.22
648.04	874.71
648.38	868.95
648.72	862.96
649.06	856.97
649.41	851.04
649.75	845.04
650.09	839.13
650.43	833.26
650.78	827.17
651.12	821.22
651.46	815.56
651.80	809.76
652.14	804.37
652.49	799.05
652.83	793.88
653.17	788.15
653.51	782.40
653.85	777.00
654.20	771.38
654.54	765.35
654.88	759.64
655.22	753.91
655.56	748.27
655.90	742.81
656.25	737.53
656.59	732.22
656.93	727.14
657.27	721.99
657.61	716.68
657.95	711.58
658.29	706.56
658.64	701.30
658.98	696.04
659.32	690.53
659.66	685.35
660.00	680.03
660.34	675.12
660.68	670.29
661.02	665.34
661.36	660.69
661.70	656.22
662.05	651.90
662.39	647.48
662.73	643.10
663.07	638.80
663.41	634.40
663.75	629.88
664.09	625.32
664.43	620.99
664.77	616.90
665.11	612.70
665.45	608.64
665.79	604.54
666.13	600.43
666.47	596.45
666.81	592.33
667.15	588.26
667.49	584.40
667.83	580.67
668.17	576.80
668.51	572.73
668.85	568.80
669.19	564.97
669.53	561.17
669.87	557.23
670.21	553.58
670.55	549.94
670.89	546.62
671.23	543.23
671.57	539.71
671.91	536.14
672.25	532.70
672.58	529.18
672.92	525.86
673.26	522.68
673.60	519.55
673.94	516.47
674.28	513.61
674.62	510.74
674.96	507.60
675.30	504.64
675.64	501.71
675.97	498.96
676.31	496.07
676.65	493.17
676.99	490.47
677.33	487.58
677.67	484.75
678.01	481.68
678.34	478.72
678.68	475.87
679.02	473.15
679.36	470.42
679.70	467.69
680.04	464.91
680.37	462.08
680.71	459.31
681.05	456.74
681.39	454.01
681.73	451.33
682.06	448.80
682.40	446.26
682.74	443.76
683.08	441.24
683.42	438.69
683.75	436.19
684.09	433.72
684.43	431.26
684.77	428.85
685.10	426.55
685.44	424.29
685.78	422.01
686.12	419.77
686.45	417.47
686.79	415.20
687.13	413.06
687.46	410.97
687.80	408.83
688.14	406.61
688.48	404.55
688.81	402.33
689.15	400.22
689.49	398.13
689.82	396.07
690.16	393.92
690.50	391.98
690.83	390.07
691.17	388.09
691.51	386.17
691.84	384.32
692.18	382.35
692.52	380.32
692.85	378.43
693.19	376.54
693.52	374.72
693.86	372.93
694.20	371.19
694.53	369.35
694.87	367.53
695.21	365.71
695.54	363.91
695.88	362.23
696.21	360.48
696.55	358.81
696.88	357.17
697.22	355.57
697.56	353.93
697.89	352.28
698.23	350.68
698.56	349.10
698.90	347.54
699.23	345.88
699.57	344.36
699.90	342.84
700.24	341.29
700.58	339.82
700.91	338.31
701.25	336.81
701.58	335.42
701.92	334.04
702.25	332.70
702.59	331.34
702.92	330.02
703.26	328.75
703.59	327.43
703.93	326.24
704.26	325.04
704.60	323.76
704.93	322.51
705.26	321.26
705.60	320.09
705.93	318.95
706.27	317.99
706.60	316.98
706.94	315.89
707.27	314.78
707.61	313.69
707.94	312.70
708.27	311.62
708.61	310.58
708.94	309.59
709.28	308.62
709.61	307.68
709.94	306.71
710.28	305.68
710.61	304.74
710.95	303.66
711.28	302.75
711.61	301.81
711.95	300.94
712.28	300.01
712.61	299.03
712.95	298.09
713.28	297.19
713.61	296.30
713.95	295.40
714.28	294.56
714.61	293.70
714.95	292.86
715.28	292.03
715.61	291.16
715.95	290.29
716.28	289.45
716.61	288.59
716.95	287.79
717.28	287.07
717.61	286.31
717.94	285.61
718.28	284.81
718.61	284.12
718.94	283.39
719.27	282.73
719.61	282.10
719.94	281.45
720.27	280.78
720.60	280.11
720.94	279.48
721.27	278.91
721.60	278.35
721.93	277.74
722.27	277.15
722.60	276.62
722.93	276.07
723.26	275.53
723.59	274.97
723.93	274.42
724.26	273.86
724.59	273.29
724.92	272.76
725.25	272.28
725.59	271.74
725.92	271.26
726.25	270.78
726.58	270.28
726.91	269.80
727.24	269.31
727.57	268.86
727.91	268.37
728.24	267.90
728.57	267.41
728.90	266.97
729.23	266.51
729.56	266.06
729.89	265.60
730.22	265.11
730.55	264.67
730.89	264.22
731.22	263.80
731.55	263.36
731.88	262.93
732.21	262.49
732.54	262.04
732.87	261.59
733.20	261.17
733.53	260.82
733.86	260.45
734.19	260.06
734.52	259.67
734.85	259.34
735.18	258.90
735.51	258.55
735.84	258.19
736.17	257.84
736.50	257.44
736.83	257.23
737.16	256.89
737.49	256.54
737.82	256.20
738.15	255.84
738.48	255.51
738.81	255.18
739.14	254.89
739.47	254.59
739.80	254.28
740.13	253.98
740.46	253.61
740.79	253.24
741.12	252.89
741.45	252.58
741.78	252.23
742.11	252.01
742.44	251.69
742.77	251.41
743.10	251.09
743.43	250.81
743.75	250.42
744.08	250.30
744.41	250.05
744.74	249.79
745.07	249.53
745.40	249.28
745.73	249.05
746.06	248.74
746.39	248.46
746.71	248.19
747.04	247.89
747.37	247.64
747.70	247.42
748.03	247.20
748.36	246.99
748.68	246.78
749.01	246.50
749.34	246.27
749.67	246.02
750.00	245.83
750.33	245.68
750.65	245.43
750.98	245.08
751.31	244.86
751.64	244.65
751.97	244.48
752.29	244.29
752.62	244.04
752.95	243.85
753.28	243.66
753.60	243.47
753.93	243.31
754.26	243.12
754.59	242.90
754.91	242.73
755.24	242.49
755.57	242.32
755.90	242.12
756.22	241.96
756.55	241.78
756.88	241.59
757.20	241.35
757.53	241.19
757.86	241.00
758.19	240.84
758.51	240.69
758.84	240.48
759.17	240.30
759.49	240.17
759.82	240.03
760.15	239.87
760.47	239.74
760.80	239.57
761.13	239.46
761.45	239.33
761.78	239.15
762.11	239.02
762.43	238.85
762.76	238.74
763.08	238.58
763.41	238.46
763.74	238.33
764.06	238.20
764.39	238.07
764.71	237.97
765.04	237.81
765.37	237.67
765.69	237.52
766.02	237.39
766.34	237.23
766.67	237.09
767.00	237.00
767.32	236.91
767.65	236.86
767.97	236.73
768.30	236.58
768.62	236.48
768.95	236.35
769.27	236.25
769.60	236.16
769.92	236.05
770.25	235.93
770.57	235.79
770.90	235.66
771.22	235.57
771.55	235.47
771.87	235.41
772.20	235.31
772.52	235.31
772.85	235.32
773.17	235.20
773.50	235.10
773.82	234.98
774.15	234.84
774.47	234.68
774.80	234.55
775.12	234.50
775.45	234.39
775.77	234.27
776.09	234.21
776.42	234.11
776.74	234.04
777.07	233.95
777.39	233.87
777.72	233.77
778.04	233.67
778.36	233.57
778.69	233.48
779.01	233.40
779.33	233.25
779.66	233.07
779.98	233.02
780.31	232.95
780.63	232.91
780.95	232.85
781.28	232.81
781.60	232.76
781.92	232.65
782.25	232.60
782.57	232.56
782.89	232.49
783.22	232.40
783.54	232.33
783.86	232.26
784.19	232.21
784.51	232.20
784.83	232.13
785.16	232.09
785.48	232.05
785.80	232.00
786.12	231.94
786.45	231.91
786.77	231.86
787.09	231.82
787.42	231.75
787.74	231.69
788.06	231.67
788.38	231.61
788.71	231.57
789.03	231.56
789.35	231.55
789.67	231.51
789.99	231.49
790.32	231.42
790.64	231.42
790.96	231.45
791.28	231.39
791.61	231.36
791.93	231.32
792.25	231.26
792.57	231.29
792.89	231.24
793.21	231.21
793.54	231.15
793.86	231.09
794.18	231.10
794.50	231.05
794.82	230.98
795.14	230.98
795.47	230.98
795.79	230.95
796.11	230.88
796.43	230.81
796.75	230.80
797.07	230.78
797.39	230.75
797.71	230.64
798.04	230.65
798.36	230.64
798.68	230.59
799.00	230.52
799.32	230.45
799.64	230.45
799.96	230.41
800.28	230.42
800.60	230.38
800.92	230.34
801.24	230.34
801.56	230.33
801.89	230.27
802.21	230.25
802.53	230.22
802.85	230.24
803.17	230.28
803.49	230.20
803.81	230.14
804.13	230.10
804.45	230.05
804.77	230.03
805.09	230.01
805.41	229.98
805.73	229.99
806.05	229.97
806.37	229.96
806.69	229.93
807.01	229.88
807.33	229.85
807.65	229.75
807.97	229.75
808.28	229.70
808.60	229.67
808.92	229.60
809.24	229.62
809.56	229.58
809.88	229.49
810.20	229.47
810.52	229.48
810.84	229.43
811.16	229.42
811.48	229.38
811.80	229.39
812.12	229.38
812.43	229.33
812.75	229.28
813.07	229.23
813.39	229.22
813.71	229.22
814.03	229.21
814.35	229.21
814.67	229.17
814.98	229.14
815.30	229.14
815.62	229.10
815.94	228.98
816.26	228.99
816.58	228.96
816.89	228.92
817.21	228.88
817.53	228.84
817.85	228.82
818.17	228.80
818.48	228.69
818.80	228.70
819.12	228.66
819.44	228.61
819.76	228.58
820.07	228.54
820.39	228.51
820.71	228.51
821.03	228.47
821.34	228.44
821.66	228.43
821.98	228.44
822.30	228.44
822.61	228.51
822.93	228.43
823.25	228.42
823.57	228.43
823.88	228.45
824.20	228.45
824.52	228.45
824.83	228.41
825.15	228.44
825.47	228.41
825.79	228.43
826.10	228.45
826.42	228.43
826.74	228.43
827.05	228.45
827.37	228.44
827.69	228.44
828.00	228.42
828.32	228.44
828.64	228.42
828.95	228.47
829.27	228.43
829.58	228.45
829.90	228.45
830.22	228.44
830.53	228.40
830.85	228.39
831.17	228.36
831.48	228.37
831.80	228.36
832.11	228.36
832.43	228.33
832.75	228.30
833.06	228.37
833.38	228.34
833.69	228.31
834.01	228.33
834.32	228.34
834.64	228.33
834.96	228.29
835.27	228.27
835.59	228.23
835.90	228.21
836.22	228.18
836.53	228.18
836.85	228.16
837.16	228.25
837.48	228.25
837.79	228.26
838.11	228.27
838.42	228.26
838.74	228.24
839.05	228.25
839.37	228.25
839.68	228.18
840.00	228.19
840.31	228.19
840.63	228.15
840.94	228.12
841.26	228.08
841.57	228.07
841.88	228.08
842.20	228.09
842.51	228.07
842.83	228.08
843.14	228.13
843.46	228.12
843.77	228.06
844.08	228.06
844.40	228.03
844.71	228.02
845.03	228.00
845.34	228.00
845.65	227.96
845.97	227.95
846.28	227.98
846.60	227.95
846.91	227.93
847.22	227.93
847.54	227.95
847.85	227.97
848.16	227.97
848.48	227.95
848.79	227.97
849.10	227.95
849.42	227.95
849.73	227.86
850.04	227.87
850.36	227.85
850.67	227.89
850.98	227.91
851.30	227.93
851.61	227.91
851.92	227.89
852.23	227.92
852.55	227.90
852.86	227.87
853.17	227.86
853.49	227.85
853.80	227.84
854.11	227.84
854.42	227.84
854.74	227.82
855.05	227.79
855.36	227.76
855.67	227.74
855.99	227.70
856.30	227.80
856.61	227.80
856.92	227.78
857.23	227.73
857.55	227.67
857.86	227.63
858.17	227.62
858.48	227.60
858.79	227.60
859.11	227.59
859.42	227.55
859.73	227.54
860.04	227.55
860.35	227.56
860.66	227.50
860.98	227.49
861.29	227.49
861.60	227.46
861.91	227.45
862.22	227.48
862.53	227.46
862.84	227.36
863.16	227.37
863.47	227.31
863.78	227.29
864.09	227.30
864.40	227.33
864.71	227.37
865.02	227.40
865.33	227.38
865.64	227.41
865.95	227.45
866.27	227.51
866.58	227.50
866.89	227.50
867.20	227.52
867.51	227.50
867.82	227.51
868.13	227.55
868.44	227.50
868.75	227.50
869.06	227.51
869.37	227.55
869.68	227.52
869.99	227.59
870.30	227.62
870.61	227.65
870.92	227.63
871.23	227.60
871.54	227.63
871.85	227.68
872.16	227.68
872.47	227.64
872.78	227.60
873.09	227.61
873.40	227.58
873.71	227.60
874.02	227.62
874.33	227.61
874.64	227.61
874.95	227.65
875.26	227.64
875.56	227.66
875.87	227.61
876.18	227.62
876.49	227.70
876.80	227.71
877.11	227.69
877.42	227.71
877.73	227.74
878.04	227.70
878.35	227.68
878.66	227.68
878.96	227.71
879.27	227.73
879.58	227.74
879.89	227.74
880.20	227.75
880.51	227.74
880.82	227.77
881.12	227.75
881.43	227.74
881.74	227.72
882.05	227.70
882.36	227.72
882.67	227.72
882.97	227.61
883.28	227.59
883.59	227.61
883.90	227.61
884.21	227.60
884.51	227.60
884.82	227.58
885.13	227.56
885.44	227.55
885.74	227.54
886.05	227.53
886.36	227.55
886.67	227.52
886.98	227.58
887.28	227.57
887.59	227.58
887.90	227.58
888.20	227.60
888.51	227.65
888.82	227.62
889.13	227.63
889.43	227.71
889.74	227.70
890.05	227.65
890.35	227.61
890.66	227.59
890.97	227.56
891.28	227.54
891.58	227.57
891.89	227.57
892.20	227.54
892.50	227.53
892.81	227.50
893.12	227.48
893.42	227.40
893.73	227.39
894.04	227.36
894.34	227.37
894.65	227.31
894.95	227.28
895.26	227.29
895.57	227.29
895.87	227.19
896.18	227.21
896.48	227.21
896.79	227.21
897.10	227.21
897.40	227.21
897.71	227.20
898.01	227.16
898.32	227.18
898.63	227.19
898.93	227.15
899.24	227.14
899.54	227.15
899.85	227.15
900.15	227.13
900.46	227.13
900.76	227.13
901.07	227.15
901.38	227.12
901.68	227.13
901.99	227.09
902.29	227.08
902.60	227.07
902.90	227.08
903.21	227.09
903.51	227.09
903.82	227.10
904.12	227.12
904.43	227.15
904.73	227.15
905.03	227.14
905.34	227.27
905.64	227.27
905.95	227.26
906.25	227.26
906.56	227.29
906.86	227.31
907.17	227.31
907.47	227.33
907.77	227.35
908.08	227.31
908.38	227.33
908.69	227.34
908.99	227.36
909.30	227.35
909.60	227.33
909.90	227.34
910.21	227.33
910.51	227.33
910.81	227.30
911.12	227.31
911.42	227.33
911.73	227.22
912.03	227.23
912.33	227.26
912.64	227.29
912.94	227.27
913.24	227.26
913.55	227.27
913.85	227.27
914.15	227.26
914.46	227.26
914.76	227.26
915.06	227.25
915.37	227.22
915.67	227.22
915.97	227.23
916.27	227.19
916.58	227.21
916.88	227.21
917.18	227.20
917.49	227.25
917.79	227.24
918.09	227.25
918.39	227.28
918.70	227.26
919.00	227.25
919.30	227.30
919.60	227.30
919.91	227.31
920.21	227.30
920.51	227.31
920.81	227.34
921.12	227.36
921.42	227.39
921.72	227.40
922.02	227.42
922.32	227.46
922.63	227.48
922.93	227.52
923.23	227.53
923.53	227.55
923.83	227.48
924.13	227.49
924.44	227.49
924.74	227.51
925.04	227.55
925.34	227.54
925.64	227.51
925.94	227.47
926.24	227.53
926.55	227.51
926.85	227.53
927.15	227.53
927.45	227.51
927.75	227.52
928.05	227.55
928.35	227.52
928.65	227.48
928.95	227.48
929.26	227.42
929.56	227.42
929.86	227.43
930.16	227.43
930.46	227.40
930.76	227.41
931.06	227.37
931.36	227.32
931.66	227.33
931.96	227.30
932.26	227.32
932.56	227.26
932.86	227.24
933.16	227.25
933.46	227.23
933.76	227.25
934.06	227.22
934.36	227.25
934.66	227.28
934.96	227.28
935.26	227.27
935.56	227.29
935.86	227.24
936.16	227.21
936.46	227.19
936.76	227.18
937.06	227.15
937.36	227.15
937.66	227.16
937.96	227.13
938.26	227.12
938.56	227.11
938.86	227.09
939.16	227.11
939.46	227.09
939.76	227.07
940.06	227.02
940.35	227.02
940.65	226.93
940.95	226.93
941.25	226.88
941.55	226.90
941.85	226.87
942.15	226.91
942.45	226.93
942.75	226.93
943.04	226.93
943.34	226.94
943.64	226.96
943.94	226.94
944.24	226.93
944.54	226.94
944.84	226.95
945.13	226.93
945.43	226.94
945.73	226.93
946.03	226.93
946.33	226.92
946.62	226.92
946.92	226.96
947.22	226.96
947.52	226.99
947.82	226.99
948.11	227.00
948.41	226.99
948.71	226.95
949.01	226.95
949.31	226.94
949.60	226.91
949.90	226.92
950.20	226.89
950.50	226.90
950.79	226.94
951.09	226.97
951.39	226.99
951.69	226.99
951.98	227.03
952.28	227.04
952.58	227.06
952.87	227.06
953.17	227.06
953.47	227.06
953.76	227.06
954.06	227.07
954.36	227.06
954.66	227.06
954.95	227.09
955.25	227.12
955.55	227.12
955.84	227.12
956.14	227.11
956.44	227.14
956.73	227.14
957.03	227.13
957.32	227.13
957.62	227.11
957.92	227.11
958.21	227.11
958.51	227.24
958.81	227.25
959.10	227.26
959.40	227.30
959.69	227.32
959.99	227.34
960.29	227.32
960.58	227.31
960.88	227.35
961.17	227.34
961.47	227.35
961.76	227.38
962.06	227.44
962.36	227.43
962.65	227.46
962.95	227.51
963.24	227.52
963.54	227.50
963.83	227.53
964.13	227.52
964.42	227.49
964.72	227.38
965.01	227.37
965.31	227.36
965.60	227.32
965.90	227.34
966.19	227.29
966.49	227.31
966.78	227.31
967.08	227.26
967.37	227.25
967.67	227.22
967.96	227.21
968.26	227.18
968.55	227.17
968.85	227.16
969.14	227.12
969.43	227.07
969.73	227.07
970.02	227.06
970.32	227.05
970.61	227.05
970.91	227.02
971.20	227.02
971.49	227.01
971.79	227.03
972.08	226.98
972.38	227.01
972.67	226.99
972.96	227.00
973.26	226.99
973.55	227.02
973.85	227.02
974.14	226.98
974.43	226.99
974.73	227.00
975.02	226.95
975.31	226.96
975.61	226.97
975.90	226.96
976.19	226.94
976.49	226.93
976.78	226.95
977.07	226.97
977.37	226.94
977.66	226.93
977.95	226.89
978.24	226.89
978.54	226.91
978.83	226.89
979.12	226.88
979.42	226.89
979.71	226.86
980.00	226.87
980.29	226.88
980.59	226.82
980.88	226.83
981.17	226.86
981.46	226.85
981.76	226.88
982.05	226.92
982.34	226.94
982.63	226.94
982.93	226.92
983.22	226.93
983.51	226.97
983.80	226.96
984.09	226.96
984.39	226.95
984.68	226.92
984.97	226.96
985.26	226.94
985.55	226.96
985.85	226.96
986.14	226.97
986.43	227.00
986.72	227.00
987.01	226.98
987.30	226.98
987.59	226.92
987.89	226.89
988.18	226.86
988.47	226.83
988.76	226.81
989.05	226.79
989.34	226.78
989.63	226.81
989.92	226.82
990.22	226.84
990.51	226.86
990.80	226.89
991.09	226.89
991.38	226.91
991.67	226.90
991.96	226.90
992.25	226.94
992.54	226.92
992.83	226.95
993.12	226.95
993.41	226.95
993.70	227.05
993.99	227.08
994.28	227.10
994.58	227.14
994.87	227.19
995.16	227.21
995.45	227.21
995.74	227.20
996.03	227.23
996.32	227.24
996.61	227.27
996.90	227.25
997.19	227.25
997.48	227.24
997.77	227.23
998.06	227.22
998.34	227.20
998.63	227.20
998.92	227.22
999.21	227.27
999.50	227.31
999.79	227.26
1000.08	227.30
1000.37	227.32
1000.66	227.31
1000.95	227.31
1001.24	227.32
1001.53	227.34
1001.82	227.33
1002.11	227.31
1002.40	227.32
1002.68	227.33
1002.97	227.37
1003.26	227.35
1003.55	227.34
1003.84	227.32
1004.13	227.39
1004.42	227.38
1004.71	227.40
1004.99	227.36
1005.28	227.36
1005.57	227.32
1005.86	227.31
1006.15	227.30
1006.44	227.26
1006.72	227.26
1007.01	227.28
1007.30	227.29
1007.59	227.24
1007.88	227.19
1008.17	227.18
1008.45	227.13
1008.74	227.08
1009.03	227.07
1009.32	227.06
1009.60	227.08
1009.89	227.10
1010.18	227.04
1010.47	227.03
1010.76	227.03
1011.04	227.03
1011.33	227.02
1011.62	227.04
1011.91	227.03
1012.19	226.99
1012.48	226.96
1012.77	226.95
1013.05	226.99
1013.34	226.96
1013.63	227.00
1013.92	227.04
1014.20	227.06
1014.49	227.07
1014.78	227.10
1015.06	227.05
1015.35	227.06
1015.64	227.06
1015.92	227.07
1016.21	227.10
1016.50	227.09
1016.78	227.09
1017.07	227.13
1017.36	227.11
1017.64	227.09
1017.93	227.11
1018.22	227.11
1018.50	227.15
1018.79	227.13
1019.08	227.06
1019.36	227.06
1019.65	227.04
1019.93	227.04
1020.22	227.05
1020.51	227.08
1020.79	227.07
1021.08	226.76
1021.36	227.32
1021.65	226.79
1021.94	226.69
1022.22	226.90
1022.51	226.87
1022.79	227.23
1023.08	227.21
1023.36	227.73
1023.65	227.00
>>>>>End Processed Spectral Data<<<<<
