SpectraSuite Data File
++++++++++++++++++++++++++++++++++++
Date: Fri Feb 01 16:49:30 EST 2013
User: group
Dark Spectrum Present: No
Reference Spectrum Present: No
Number of Sampled Component Spectra: 1
Spectrometers: USB2E7196
Integration Time (usec): 35000 (USB2E7196)
Spectra Averaged: 100 (USB2E7196)
Boxcar Smoothing: 10 (USB2E7196)
Correct for Electrical Dark: No (USB2E7196)
Strobe/Lamp Enabled: No (USB2E7196)
Correct for Detector Non-linearity: No (USB2E7196)
Correct for Stray Light: No (USB2E7196)
Number of Pixels in Processed Spectrum: 2048
>>>>>Begin Processed Spectral Data<<<<<
339.09	0.00
339.48	213.60
339.86	214.62
340.24	216.61
340.63	217.72
341.01	220.51
341.39	220.11
341.78	221.93
342.16	222.45
342.54	223.53
342.93	211.76
343.31	222.48
343.69	223.02
344.07	223.51
344.46	223.90
344.84	224.27
345.22	224.48
345.60	224.74
345.99	224.91
346.37	225.01
346.75	225.11
347.13	225.14
347.52	225.15
347.90	225.22
348.28	225.23
348.66	225.30
349.05	225.31
349.43	225.33
349.81	225.37
350.19	225.40
350.57	225.46
350.96	225.54
351.34	225.56
351.72	225.62
352.10	225.70
352.48	225.78
352.87	225.83
353.25	225.89
353.63	225.96
354.01	226.01
354.39	226.14
354.77	226.18
355.15	226.31
355.54	226.37
355.92	226.39
356.30	226.46
356.68	226.60
357.06	226.65
357.44	226.72
357.82	226.77
358.20	226.87
358.58	226.88
358.97	226.97
359.35	227.05
359.73	227.10
360.11	227.16
360.49	227.18
360.87	227.24
361.25	227.30
361.63	227.37
362.01	227.43
362.39	227.47
362.77	227.53
363.15	227.54
363.53	227.62
363.91	227.65
364.29	227.66
364.67	227.56
365.05	227.60
365.43	227.62
365.81	227.65
366.19	227.71
366.57	227.78
366.95	227.78
367.33	227.79
367.71	227.83
368.09	227.83
368.47	227.83
368.85	227.82
369.23	227.82
369.61	227.75
369.99	227.74
370.37	227.73
370.75	227.75
371.13	227.70
371.51	227.66
371.89	227.67
372.27	227.65
372.65	227.65
373.03	227.59
373.41	227.57
373.78	227.54
374.16	227.42
374.54	227.35
374.92	227.25
375.30	227.20
375.68	227.11
376.06	227.05
376.44	227.01
376.82	226.96
377.19	226.89
377.57	226.83
377.95	226.74
378.33	226.66
378.71	226.56
379.09	226.50
379.47	226.43
379.84	226.34
380.22	226.25
380.60	226.14
380.98	226.07
381.36	225.96
381.73	225.87
382.11	225.85
382.49	225.79
382.87	225.76
383.25	225.71
383.62	225.79
384.00	225.70
384.38	225.67
384.76	225.62
385.13	225.61
385.51	225.57
385.89	225.52
386.27	225.47
386.64	225.39
387.02	225.37
387.40	225.32
387.78	225.29
388.15	225.28
388.53	225.27
388.91	225.22
389.29	225.19
389.66	225.18
390.04	225.13
390.42	225.11
390.79	225.11
391.17	225.05
391.55	224.93
391.92	224.94
392.30	224.93
392.68	224.92
393.05	224.90
393.43	224.92
393.81	224.91
394.18	224.91
394.56	224.94
394.94	224.97
395.31	224.99
395.69	225.05
396.06	225.08
396.44	225.11
396.82	225.17
397.19	225.26
397.57	225.26
397.95	225.31
398.32	225.34
398.70	225.38
399.07	225.46
399.45	225.51
399.82	225.52
400.20	225.54
400.58	225.58
400.95	225.58
401.33	225.68
401.70	225.84
402.08	225.93
402.45	225.99
402.83	226.09
403.20	226.17
403.58	226.24
403.95	226.35
404.33	226.48
404.71	226.60
405.08	226.74
405.46	226.89
405.83	227.04
406.21	227.16
406.58	227.32
406.96	227.46
407.33	227.64
407.70	227.86
408.08	228.16
408.45	228.40
408.83	228.64
409.20	228.83
409.58	229.00
409.95	229.24
410.33	229.50
410.70	229.75
411.08	230.03
411.45	230.30
411.82	230.60
412.20	230.94
412.57	231.34
412.95	231.63
413.32	232.02
413.69	232.41
414.07	232.83
414.44	233.27
414.82	233.77
415.19	234.25
415.56	234.79
415.94	235.31
416.31	235.94
416.68	236.55
417.06	237.25
417.43	237.93
417.81	238.70
418.18	239.51
418.55	240.32
418.93	241.20
419.30	242.07
419.67	243.01
420.04	243.93
420.42	244.91
420.79	246.14
421.16	247.28
421.54	248.47
421.91	249.70
422.28	250.97
422.66	252.28
423.03	253.62
423.40	254.93
423.77	256.34
424.15	257.76
424.52	259.29
424.89	260.89
425.26	262.43
425.64	263.87
426.01	265.45
426.38	267.10
426.75	268.78
427.13	270.50
427.50	272.26
427.87	274.16
428.24	276.01
428.61	277.70
428.99	279.65
429.36	281.71
429.73	283.73
430.10	285.73
430.47	287.78
430.85	289.84
431.22	292.08
431.59	294.42
431.96	296.61
432.33	299.07
432.70	301.42
433.08	304.20
433.45	306.82
433.82	309.41
434.19	312.25
434.56	315.02
434.93	317.69
435.30	320.30
435.68	323.16
436.05	325.95
436.42	328.71
436.79	331.22
437.16	333.92
437.53	336.74
437.90	339.50
438.27	342.26
438.64	345.13
439.01	347.73
439.38	350.02
439.75	352.21
440.13	354.68
440.50	357.03
440.87	358.88
441.24	360.81
441.61	362.93
441.98	364.45
442.35	366.22
442.72	368.05
443.09	369.82
443.46	370.78
443.83	371.41
444.20	371.95
444.57	372.73
444.94	373.02
445.31	373.40
445.68	373.77
446.05	373.86
446.42	373.44
446.79	372.99
447.16	372.52
447.53	372.20
447.90	371.04
448.27	369.89
448.64	368.33
449.01	367.21
449.37	365.31
449.74	363.43
450.11	361.23
450.48	358.79
450.85	356.32
451.22	354.25
451.59	352.23
451.96	350.31
452.33	347.75
452.70	345.40
453.07	342.57
453.43	339.74
453.80	337.00
454.17	334.35
454.54	331.87
454.91	329.15
455.28	326.50
455.65	324.07
456.02	321.60
456.38	319.41
456.75	316.79
457.12	314.50
457.49	312.33
457.86	310.19
458.23	308.37
458.59	306.35
458.96	304.27
459.33	302.40
459.70	300.52
460.07	299.05
460.43	297.38
460.80	295.77
461.17	294.36
461.54	292.86
461.91	291.43
462.27	290.00
462.64	288.79
463.01	287.48
463.38	286.17
463.74	284.83
464.11	283.71
464.48	282.68
464.85	281.64
465.21	280.77
465.58	279.82
465.95	278.71
466.32	277.85
466.68	276.98
467.05	276.13
467.42	275.26
467.78	274.34
468.15	273.48
468.52	272.84
468.88	271.96
469.25	271.23
469.62	270.59
469.98	269.91
470.35	269.26
470.72	268.64
471.08	267.97
471.45	267.48
471.82	266.96
472.18	266.37
472.55	265.93
472.92	265.41
473.28	264.99
473.65	264.57
474.02	264.11
474.38	263.72
474.75	263.37
475.11	263.03
475.48	262.76
475.85	262.53
476.21	262.27
476.58	262.08
476.94	261.91
477.31	261.79
477.67	261.65
478.04	261.53
478.41	261.48
478.77	261.54
479.14	261.45
479.50	261.47
479.87	261.55
480.23	261.62
480.60	261.70
480.96	261.78
481.33	261.98
481.69	262.19
482.06	262.40
482.42	262.62
482.79	262.89
483.15	263.22
483.52	263.61
483.88	263.97
484.25	264.39
484.61	264.83
484.98	265.28
485.34	265.85
485.71	266.45
486.07	267.11
486.44	267.68
486.80	268.41
487.17	269.14
487.53	269.93
487.90	270.80
488.26	271.73
488.62	272.73
488.99	273.70
489.35	274.76
489.72	275.88
490.08	277.08
490.44	278.33
490.81	279.67
491.17	281.00
491.54	282.47
491.90	284.01
492.26	285.66
492.63	287.42
492.99	289.19
493.36	291.12
493.72	293.09
494.08	295.21
494.45	297.42
494.81	299.77
495.17	302.21
495.54	304.79
495.90	307.48
496.26	310.27
496.63	313.23
496.99	316.33
497.35	319.56
497.72	322.98
498.08	326.49
498.44	330.19
498.80	334.14
499.17	338.19
499.53	342.35
499.89	346.70
500.26	351.16
500.62	355.84
500.98	360.78
501.34	365.86
501.71	371.21
502.07	376.65
502.43	382.23
502.79	388.06
503.16	394.10
503.52	400.31
503.88	406.71
504.24	413.36
504.60	420.22
504.97	427.39
505.33	434.63
505.69	442.33
506.05	450.02
506.41	457.88
506.78	466.02
507.14	474.42
507.50	483.09
507.86	492.09
508.22	501.21
508.59	510.41
508.95	519.97
509.31	529.71
509.67	539.79
510.03	550.05
510.39	560.53
510.75	571.23
511.12	582.14
511.48	593.45
511.84	604.82
512.20	616.26
512.56	628.05
512.92	640.20
513.28	652.45
513.64	664.89
514.00	677.53
514.37	690.40
514.73	703.37
515.09	716.24
515.45	729.43
515.81	742.94
516.17	756.84
516.53	770.84
516.89	784.78
517.25	798.85
517.61	813.15
517.97	827.49
518.33	841.81
518.69	856.38
519.05	871.10
519.41	886.11
519.77	901.48
520.13	916.78
520.49	932.09
520.85	947.35
521.21	962.82
521.57	978.83
521.93	994.36
522.29	1010.60
522.65	1026.78
523.01	1042.77
523.37	1058.65
523.73	1074.51
524.09	1090.51
524.45	1106.65
524.81	1123.17
525.17	1139.76
525.53	1156.39
525.89	1173.05
526.25	1189.75
526.61	1205.99
526.97	1222.55
527.33	1238.86
527.68	1255.31
528.04	1271.51
528.40	1287.87
528.76	1304.75
529.12	1321.00
529.48	1337.74
529.84	1353.47
530.20	1369.85
530.56	1386.67
530.91	1403.76
531.27	1420.49
531.63	1436.65
531.99	1453.05
532.35	1468.75
532.71	1484.40
533.07	1500.58
533.42	1516.38
533.78	1532.20
534.14	1548.27
534.50	1563.48
534.86	1579.13
535.21	1594.15
535.57	1609.72
535.93	1624.97
536.29	1639.49
536.65	1654.51
537.00	1668.86
537.36	1684.04
537.72	1698.23
538.08	1712.49
538.44	1726.19
538.79	1739.84
539.15	1753.17
539.51	1766.67
539.87	1780.82
540.22	1794.34
540.58	1807.79
540.94	1820.76
541.29	1833.30
541.65	1845.68
542.01	1858.57
542.37	1870.70
542.72	1882.82
543.08	1894.51
543.44	1906.75
543.79	1917.97
544.15	1928.70
544.51	1940.27
544.87	1951.00
545.22	1961.66
545.58	1971.73
545.94	1981.34
546.29	1991.01
546.65	2001.02
547.01	2010.32
547.36	2018.80
547.72	2027.21
548.07	2035.14
548.43	2043.00
548.79	2050.93
549.14	2058.45
549.50	2065.63
549.86	2073.04
550.21	2080.37
550.57	2087.57
550.92	2094.05
551.28	2100.96
551.64	2107.98
551.99	2114.34
552.35	2120.63
552.70	2126.78
553.06	2132.73
553.41	2139.00
553.77	2144.96
554.13	2150.87
554.48	2156.89
554.84	2162.51
555.19	2167.68
555.55	2172.70
555.90	2177.37
556.26	2182.54
556.61	2187.25
556.97	2191.75
557.32	2196.09
557.68	2200.19
558.03	2204.32
558.39	2207.89
558.74	2212.56
559.10	2216.48
559.45	2220.16
559.81	2224.21
560.16	2228.15
560.52	2231.42
560.87	2234.69
561.23	2237.35
561.58	2240.26
561.94	2242.90
562.29	2245.03
562.64	2247.93
563.00	2250.50
563.35	2254.09
563.71	2257.05
564.06	2260.26
564.42	2263.09
564.77	2265.74
565.12	2268.19
565.48	2270.32
565.83	2272.49
566.19	2273.93
566.54	2274.80
566.89	2276.13
567.25	2277.06
567.60	2278.33
567.96	2280.09
568.31	2281.17
568.66	2282.36
569.02	2283.13
569.37	2283.48
569.72	2284.66
570.08	2284.96
570.43	2285.21
570.78	2284.82
571.14	2283.44
571.49	2282.29
571.84	2281.95
572.20	2280.97
572.55	2279.97
572.90	2278.39
573.26	2277.19
573.61	2275.46
573.96	2273.91
574.31	2271.06
574.67	2268.18
575.02	2264.72
575.37	2261.39
575.72	2257.77
576.08	2254.43
576.43	2251.00
576.78	2247.59
577.13	2244.33
577.49	2241.14
577.84	2237.87
578.19	2234.19
578.54	2230.74
578.90	2226.75
579.25	2221.50
579.60	2216.62
579.95	2211.85
580.30	2206.97
580.66	2201.81
581.01	2196.95
581.36	2192.18
581.71	2188.29
582.06	2184.03
582.42	2179.85
582.77	2174.72
583.12	2170.36
583.47	2166.10
583.82	2161.56
584.17	2156.37
584.53	2151.10
584.88	2145.72
585.23	2140.12
585.58	2134.71
585.93	2129.34
586.28	2124.41
586.63	2119.55
586.98	2114.54
587.34	2109.69
587.69	2104.79
588.04	2099.79
588.39	2094.30
588.74	2088.01
589.09	2081.82
589.44	2075.11
589.79	2068.85
590.14	2063.39
590.49	2056.83
590.84	2050.22
591.19	2044.01
591.54	2037.69
591.89	2030.56
592.25	2023.97
592.60	2016.76
592.95	2009.54
593.30	2002.45
593.65	1995.08
594.00	1988.07
594.35	1981.01
594.70	1973.02
595.05	1966.21
595.40	1958.95
595.75	1951.61
596.10	1945.53
596.45	1939.03
596.80	1933.05
597.15	1926.91
597.50	1920.00
597.85	1913.60
598.19	1907.25
598.54	1900.45
598.89	1893.90
599.24	1887.96
599.59	1881.54
599.94	1875.37
600.29	1868.93
600.64	1862.26
600.99	1854.84
601.34	1848.02
601.69	1840.97
602.04	1834.49
602.39	1827.17
602.74	1820.50
603.08	1813.85
603.43	1807.08
603.78	1799.77
604.13	1792.53
604.48	1785.19
604.83	1778.40
605.18	1771.68
605.53	1763.78
605.87	1755.85
606.22	1748.63
606.57	1740.80
606.92	1733.30
607.27	1726.29
607.62	1719.63
607.96	1712.56
608.31	1706.36
608.66	1698.95
609.01	1691.66
609.36	1684.08
609.70	1676.02
610.05	1668.03
610.40	1660.45
610.75	1652.29
611.10	1644.84
611.44	1636.41
611.79	1628.46
612.14	1619.87
612.49	1610.60
612.83	1602.21
613.18	1593.98
613.53	1585.95
613.88	1577.47
614.22	1569.23
614.57	1560.48
614.92	1552.45
615.27	1545.14
615.61	1536.75
615.96	1528.74
616.31	1520.92
616.65	1513.54
617.00	1506.18
617.35	1498.41
617.70	1490.12
618.04	1481.82
618.39	1473.43
618.74	1465.94
619.08	1457.52
619.43	1449.92
619.78	1443.01
620.12	1436.02
620.47	1428.64
620.82	1420.46
621.16	1412.98
621.51	1405.32
621.85	1397.69
622.20	1389.12
622.55	1380.52
622.89	1372.69
623.24	1364.98
623.59	1357.66
623.93	1350.23
624.28	1343.01
624.62	1335.65
624.97	1328.41
625.32	1321.43
625.66	1314.33
626.01	1307.23
626.35	1300.08
626.70	1292.34
627.04	1284.82
627.39	1276.89
627.73	1269.52
628.08	1262.66
628.43	1255.57
628.77	1248.42
629.12	1241.00
629.46	1233.92
629.81	1226.30
630.15	1219.01
630.50	1211.74
630.84	1203.64
631.19	1195.61
631.53	1187.98
631.88	1180.45
632.22	1172.92
632.57	1165.63
632.91	1158.27
633.26	1150.84
633.60	1143.34
633.95	1136.22
634.29	1129.15
634.64	1122.56
634.98	1115.19
635.32	1108.10
635.67	1101.40
636.01	1094.63
636.36	1087.91
636.70	1081.32
637.05	1074.97
637.39	1068.52
637.73	1062.09
638.08	1056.19
638.42	1050.34
638.77	1043.98
639.11	1037.47
639.45	1031.09
639.80	1024.47
640.14	1018.04
640.49	1011.52
640.83	1005.23
641.17	999.07
641.52	992.75
641.86	986.21
642.20	980.33
642.55	973.91
642.89	967.50
643.23	960.93
643.58	955.24
643.92	949.12
644.26	943.11
644.61	937.08
644.95	931.05
645.29	924.51
645.64	917.82
645.98	911.51
646.32	905.51
646.66	899.49
647.01	893.68
647.35	888.04
647.69	882.18
648.04	876.67
648.38	870.88
648.72	864.92
649.06	859.00
649.41	853.08
649.75	847.20
650.09	841.32
650.43	835.56
650.78	829.36
651.12	823.40
651.46	817.59
651.80	811.91
652.14	806.43
652.49	801.10
652.83	795.85
653.17	790.20
653.51	784.56
653.85	779.13
654.20	773.63
654.54	767.52
654.88	761.72
655.22	755.83
655.56	750.12
655.90	744.60
656.25	739.35
656.59	734.05
656.93	729.01
657.27	723.82
657.61	718.44
657.95	713.32
658.29	708.22
658.64	703.04
658.98	697.70
659.32	692.28
659.66	687.08
660.00	681.81
660.34	676.84
660.68	671.91
661.02	666.95
661.36	662.26
661.70	657.83
662.05	653.56
662.39	649.25
662.73	644.79
663.07	640.45
663.41	635.99
663.75	631.51
664.09	626.84
664.43	622.40
664.77	618.27
665.11	614.07
665.45	609.87
665.79	605.83
666.13	601.70
666.47	597.64
666.81	593.45
667.15	589.32
667.49	585.44
667.83	581.60
668.17	577.61
668.51	573.47
668.85	569.42
669.19	565.48
669.53	561.72
669.87	557.86
670.21	554.12
670.55	550.48
670.89	547.11
671.23	543.77
671.57	540.31
671.91	536.83
672.25	533.27
672.58	529.79
672.92	526.29
673.26	523.07
673.60	519.84
673.94	516.79
674.28	513.89
674.62	510.91
674.96	507.85
675.30	505.01
675.64	502.11
675.97	499.37
676.31	496.60
676.65	493.62
676.99	490.94
677.33	488.09
677.67	485.28
678.01	482.22
678.34	479.31
678.68	476.42
679.02	473.62
679.36	470.87
679.70	468.16
680.04	465.45
680.37	462.65
680.71	459.87
681.05	457.20
681.39	454.50
681.73	451.85
682.06	449.32
682.40	446.78
682.74	444.23
683.08	441.61
683.42	438.94
683.75	436.45
684.09	433.85
684.43	431.37
684.77	428.90
685.10	426.53
685.44	424.14
685.78	421.86
686.12	419.57
686.45	417.22
686.79	414.94
687.13	412.80
687.46	410.64
687.80	408.46
688.14	406.21
688.48	404.09
688.81	401.86
689.15	399.73
689.49	397.53
689.82	395.45
690.16	393.39
690.50	391.47
690.83	389.53
691.17	387.54
691.51	385.62
691.84	383.80
692.18	381.91
692.52	379.96
692.85	377.99
693.19	376.13
693.52	374.31
693.86	372.45
694.20	370.58
694.53	368.78
694.87	366.95
695.21	365.17
695.54	363.36
695.88	361.62
696.21	359.86
696.55	358.19
696.88	356.48
697.22	354.81
697.56	353.14
697.89	351.50
698.23	349.89
698.56	348.29
698.90	346.70
699.23	345.06
699.57	343.55
699.90	342.00
700.24	340.40
700.58	338.91
700.91	337.43
701.25	335.97
701.58	334.59
701.92	333.21
702.25	331.86
702.59	330.49
702.92	329.16
703.26	327.85
703.59	326.56
703.93	325.38
704.26	324.15
704.60	322.87
704.93	321.59
705.26	320.35
705.60	319.13
705.93	317.93
706.27	316.88
706.60	315.77
706.94	314.69
707.27	313.58
707.61	312.48
707.94	311.48
708.27	310.38
708.61	309.31
708.94	308.30
709.28	307.34
709.61	306.41
709.94	305.46
710.28	304.47
710.61	303.47
710.95	302.37
711.28	301.44
711.61	300.47
711.95	299.56
712.28	298.62
712.61	297.66
712.95	296.69
713.28	295.80
713.61	294.91
713.95	294.03
714.28	293.18
714.61	292.36
714.95	291.49
715.28	290.67
715.61	289.78
715.95	288.95
716.28	288.08
716.61	287.22
716.95	286.39
717.28	285.63
717.61	284.87
717.94	284.16
718.28	283.38
718.61	282.68
718.94	282.01
719.27	281.38
719.61	280.75
719.94	280.12
720.27	279.37
720.60	278.70
720.94	278.10
721.27	277.52
721.60	276.93
721.93	276.34
722.27	275.77
722.60	275.21
722.93	274.62
723.26	274.05
723.59	273.51
723.93	272.95
724.26	272.35
724.59	271.76
724.92	271.20
725.25	270.71
725.59	270.15
725.92	269.62
726.25	269.10
726.58	268.60
726.91	268.09
727.24	267.62
727.57	267.15
727.91	266.60
728.24	266.11
728.57	265.62
728.90	265.12
729.23	264.62
729.56	264.22
729.89	263.74
730.22	263.31
730.55	262.79
730.89	262.36
731.22	261.92
731.55	261.50
731.88	261.07
732.21	260.59
732.54	260.13
732.87	259.70
733.20	259.29
733.53	258.89
733.86	258.54
734.19	258.18
734.52	257.80
734.85	257.48
735.18	257.03
735.51	256.70
735.84	256.36
736.17	255.98
736.50	255.57
736.83	255.32
737.16	254.96
737.49	254.63
737.82	254.27
738.15	253.95
738.48	253.63
738.81	253.31
739.14	253.00
739.47	252.70
739.80	252.36
740.13	252.04
740.46	251.72
740.79	251.35
741.12	251.00
741.45	250.65
741.78	250.31
742.11	250.05
742.44	249.68
742.77	249.43
743.10	249.14
743.43	248.85
743.75	248.43
744.08	248.28
744.41	248.02
744.74	247.76
745.07	247.47
745.40	247.23
745.73	246.99
746.06	246.73
746.39	246.50
746.71	246.23
747.04	245.92
747.37	245.63
747.70	245.43
748.03	245.17
748.36	244.96
748.68	244.72
749.01	244.48
749.34	244.26
749.67	244.03
750.00	243.85
750.33	243.67
750.65	243.50
750.98	243.15
751.31	242.92
751.64	242.72
751.97	242.56
752.29	242.32
752.62	242.04
752.95	241.82
753.28	241.60
753.60	241.41
753.93	241.25
754.26	241.06
754.59	240.83
754.91	240.62
755.24	240.44
755.57	240.25
755.90	240.08
756.22	239.91
756.55	239.65
756.88	239.45
757.20	239.19
757.53	239.00
757.86	238.84
758.19	238.71
758.51	238.54
758.84	238.32
759.17	238.15
759.49	238.01
759.82	237.88
760.15	237.72
760.47	237.55
760.80	237.38
761.13	237.27
761.45	237.12
761.78	236.97
762.11	236.79
762.43	236.65
762.76	236.48
763.08	236.33
763.41	236.21
763.74	236.06
764.06	235.95
764.39	235.77
764.71	235.62
765.04	235.48
765.37	235.32
765.69	235.21
766.02	235.03
766.34	234.92
766.67	234.76
767.00	234.65
767.32	234.59
767.65	234.56
767.97	234.45
768.30	234.36
768.62	234.26
768.95	234.17
769.27	234.05
769.60	233.95
769.92	233.82
770.25	233.72
770.57	233.61
770.90	233.48
771.22	233.42
771.55	233.35
771.87	233.22
772.20	233.12
772.52	233.09
772.85	233.20
773.17	233.13
773.50	233.05
773.82	232.95
774.15	232.80
774.47	232.66
774.80	232.53
775.12	232.42
775.45	232.37
775.77	232.28
776.09	232.21
776.42	232.15
776.74	232.10
777.07	232.02
777.39	231.93
777.72	231.87
778.04	231.78
778.36	231.69
778.69	231.64
779.01	231.61
779.33	231.47
779.66	231.29
779.98	231.21
780.31	231.13
780.63	231.08
780.95	231.11
781.28	231.05
781.60	230.97
781.92	230.92
782.25	230.84
782.57	230.79
782.89	230.71
783.22	230.63
783.54	230.58
783.86	230.54
784.19	230.49
784.51	230.47
784.83	230.40
785.16	230.34
785.48	230.30
785.80	230.25
786.12	230.20
786.45	230.12
786.77	230.08
787.09	230.08
787.42	230.06
787.74	229.98
788.06	229.96
788.38	229.94
788.71	229.87
789.03	229.84
789.35	229.77
789.67	229.72
789.99	229.68
790.32	229.62
790.64	229.62
790.96	229.67
791.28	229.59
791.61	229.56
791.93	229.58
792.25	229.54
792.57	229.60
792.89	229.57
793.21	229.55
793.54	229.48
793.86	229.43
794.18	229.38
794.50	229.29
794.82	229.24
795.14	229.19
795.47	229.18
795.79	229.18
796.11	229.15
796.43	229.14
796.75	229.14
797.07	229.10
797.39	229.04
797.71	228.95
798.04	228.94
798.36	228.94
798.68	228.87
799.00	228.85
799.32	228.74
799.64	228.71
799.96	228.68
800.28	228.68
800.60	228.63
800.92	228.61
801.24	228.56
801.56	228.55
801.89	228.55
802.21	228.51
802.53	228.41
802.85	228.39
803.17	228.42
803.49	228.35
803.81	228.31
804.13	228.24
804.45	228.23
804.77	228.18
805.09	228.11
805.41	228.08
805.73	228.01
806.05	227.97
806.37	227.95
806.69	227.89
807.01	227.88
807.33	227.84
807.65	227.76
807.97	227.83
808.28	227.78
808.60	227.76
808.92	227.73
809.24	227.80
809.56	227.79
809.88	227.74
810.20	227.73
810.52	227.73
810.84	227.72
811.16	227.65
811.48	227.63
811.80	227.64
812.12	227.65
812.43	227.63
812.75	227.59
813.07	227.56
813.39	227.56
813.71	227.48
814.03	227.43
814.35	227.43
814.67	227.32
814.98	227.29
815.30	227.22
815.62	227.15
815.94	227.06
816.26	227.07
816.58	226.98
816.89	226.96
817.21	226.94
817.53	226.91
817.85	226.90
818.17	226.89
818.48	226.81
818.80	226.77
819.12	226.77
819.44	226.74
819.76	226.72
820.07	226.72
820.39	226.70
820.71	226.73
821.03	226.69
821.34	226.69
821.66	226.67
821.98	226.69
822.30	226.71
822.61	226.74
822.93	226.70
823.25	226.69
823.57	226.66
823.88	226.66
824.20	226.66
824.52	226.67
824.83	226.67
825.15	226.66
825.47	226.66
825.79	226.69
826.10	226.68
826.42	226.65
826.74	226.62
827.05	226.64
827.37	226.61
827.69	226.60
828.00	226.60
828.32	226.64
828.64	226.59
828.95	226.61
829.27	226.58
829.58	226.55
829.90	226.58
830.22	226.59
830.53	226.52
830.85	226.50
831.17	226.49
831.48	226.50
831.80	226.51
832.11	226.48
832.43	226.43
832.75	226.41
833.06	226.48
833.38	226.45
833.69	226.41
834.01	226.42
834.32	226.43
834.64	226.41
834.96	226.38
835.27	226.41
835.59	226.40
835.90	226.40
836.22	226.41
836.53	226.38
836.85	226.37
837.16	226.51
837.48	226.52
837.79	226.53
838.11	226.47
838.42	226.48
838.74	226.52
839.05	226.49
839.37	226.49
839.68	226.41
840.00	226.43
840.31	226.43
840.63	226.42
840.94	226.39
841.26	226.39
841.57	226.38
841.88	226.37
842.20	226.33
842.51	226.28
842.83	226.25
843.14	226.34
843.46	226.32
843.77	226.23
844.08	226.18
844.40	226.14
844.71	226.14
845.03	226.09
845.34	226.07
845.65	226.06
845.97	226.05
846.28	226.05
846.60	226.02
846.91	226.03
847.22	226.01
847.54	226.02
847.85	225.98
848.16	225.95
848.48	225.92
848.79	225.96
849.10	225.94
849.42	225.94
849.73	225.85
850.04	225.84
850.36	225.81
850.67	225.82
850.98	225.80
851.30	225.81
851.61	225.79
851.92	225.77
852.23	225.80
852.55	225.80
852.86	225.82
853.17	225.83
853.49	225.83
853.80	225.88
854.11	225.89
854.42	225.93
854.74	225.93
855.05	225.92
855.36	225.83
855.67	225.87
855.99	225.87
856.30	225.98
856.61	225.98
856.92	225.98
857.23	225.99
857.55	225.96
857.86	225.95
858.17	225.95
858.48	225.89
858.79	225.85
859.11	225.85
859.42	225.82
859.73	225.75
860.04	225.73
860.35	225.68
860.66	225.63
860.98	225.63
861.29	225.61
861.60	225.58
861.91	225.65
862.22	225.60
862.53	225.56
862.84	225.43
863.16	225.45
863.47	225.42
863.78	225.39
864.09	225.42
864.40	225.41
864.71	225.43
865.02	225.45
865.33	225.43
865.64	225.39
865.95	225.40
866.27	225.53
866.58	225.48
866.89	225.47
867.20	225.49
867.51	225.43
867.82	225.47
868.13	225.50
868.44	225.47
868.75	225.50
869.06	225.51
869.37	225.51
869.68	225.44
869.99	225.46
870.30	225.47
870.61	225.45
870.92	225.43
871.23	225.41
871.54	225.46
871.85	225.52
872.16	225.53
872.47	225.52
872.78	225.46
873.09	225.51
873.40	225.51
873.71	225.48
874.02	225.48
874.33	225.46
874.64	225.48
874.95	225.47
875.26	225.46
875.56	225.48
875.87	225.50
876.18	225.54
876.49	225.63
876.80	225.61
877.11	225.62
877.42	225.65
877.73	225.66
878.04	225.64
878.35	225.64
878.66	225.65
878.96	225.67
879.27	225.67
879.58	225.71
879.89	225.69
880.20	225.75
880.51	225.77
880.82	225.77
881.12	225.77
881.43	225.77
881.74	225.77
882.05	225.78
882.36	225.78
882.67	225.77
882.97	225.69
883.28	225.69
883.59	225.68
883.90	225.67
884.21	225.72
884.51	225.74
884.82	225.72
885.13	225.72
885.44	225.74
885.74	225.70
886.05	225.67
886.36	225.71
886.67	225.69
886.98	225.72
887.28	225.72
887.59	225.70
887.90	225.71
888.20	225.69
888.51	225.70
888.82	225.70
889.13	225.71
889.43	225.79
889.74	225.82
890.05	225.84
890.35	225.86
890.66	225.84
890.97	225.80
891.28	225.77
891.58	225.79
891.89	225.77
892.20	225.76
892.50	225.75
892.81	225.74
893.12	225.75
893.42	225.72
893.73	225.73
894.04	225.74
894.34	225.71
894.65	225.75
894.95	225.74
895.26	225.70
895.57	225.75
895.87	225.64
896.18	225.65
896.48	225.64
896.79	225.65
897.10	225.63
897.40	225.63
897.71	225.67
898.01	225.61
898.32	225.62
898.63	225.61
898.93	225.63
899.24	225.61
899.54	225.59
899.85	225.58
900.15	225.59
900.46	225.60
900.76	225.63
901.07	225.58
901.38	225.57
901.68	225.61
901.99	225.55
902.29	225.55
902.60	225.54
902.90	225.54
903.21	225.52
903.51	225.51
903.82	225.51
904.12	225.49
904.43	225.49
904.73	225.47
905.03	225.50
905.34	225.60
905.64	225.61
905.95	225.61
906.25	225.62
906.56	225.62
906.86	225.60
907.17	225.60
907.47	225.64
907.77	225.63
908.08	225.60
908.38	225.59
908.69	225.60
908.99	225.61
909.30	225.61
909.60	225.62
909.90	225.62
910.21	225.60
910.51	225.59
910.81	225.63
911.12	225.65
911.42	225.64
911.73	225.54
912.03	225.55
912.33	225.57
912.64	225.55
912.94	225.54
913.24	225.53
913.55	225.49
913.85	225.46
914.15	225.49
914.46	225.49
914.76	225.52
915.06	225.52
915.37	225.53
915.67	225.52
915.97	225.52
916.27	225.54
916.58	225.54
916.88	225.55
917.18	225.53
917.49	225.60
917.79	225.58
918.09	225.57
918.39	225.60
918.70	225.56
919.00	225.59
919.30	225.62
919.60	225.66
919.91	225.69
920.21	225.72
920.51	225.72
920.81	225.75
921.12	225.77
921.42	225.74
921.72	225.75
922.02	225.76
922.32	225.77
922.63	225.75
922.93	225.80
923.23	225.80
923.53	225.82
923.83	225.75
924.13	225.80
924.44	225.82
924.74	225.85
925.04	225.88
925.34	225.84
925.64	225.79
925.94	225.72
926.24	225.76
926.55	225.73
926.85	225.75
927.15	225.71
927.45	225.68
927.75	225.68
928.05	225.67
928.35	225.64
928.65	225.64
928.95	225.66
929.26	225.59
929.56	225.63
929.86	225.61
930.16	225.60
930.46	225.58
930.76	225.55
931.06	225.49
931.36	225.45
931.66	225.46
931.96	225.47
932.26	225.53
932.56	225.46
932.86	225.46
933.16	225.44
933.46	225.44
933.76	225.42
934.06	225.44
934.36	225.46
934.66	225.46
934.96	225.45
935.26	225.41
935.56	225.44
935.86	225.39
936.16	225.38
936.46	225.32
936.76	225.30
937.06	225.28
937.36	225.26
937.66	225.27
937.96	225.32
938.26	225.31
938.56	225.27
938.86	225.28
939.16	225.32
939.46	225.31
939.76	225.31
940.06	225.30
940.35	225.28
940.65	225.22
940.95	225.23
941.25	225.18
941.55	225.17
941.85	225.18
942.15	225.22
942.45	225.26
942.75	225.29
943.04	225.31
943.34	225.33
943.64	225.32
943.94	225.32
944.24	225.28
944.54	225.28
944.84	225.25
945.13	225.25
945.43	225.24
945.73	225.25
946.03	225.22
946.33	225.25
946.62	225.23
946.92	225.25
947.22	225.26
947.52	225.29
947.82	225.30
948.11	225.29
948.41	225.23
948.71	225.22
949.01	225.26
949.31	225.25
949.60	225.27
949.90	225.31
950.20	225.33
950.50	225.32
950.79	225.34
951.09	225.36
951.39	225.35
951.69	225.34
951.98	225.36
952.28	225.38
952.58	225.37
952.87	225.38
953.17	225.39
953.47	225.36
953.76	225.35
954.06	225.38
954.36	225.34
954.66	225.37
954.95	225.38
955.25	225.35
955.55	225.33
955.84	225.31
956.14	225.33
956.44	225.32
956.73	225.30
957.03	225.30
957.32	225.32
957.62	225.31
957.92	225.34
958.21	225.34
958.51	225.42
958.81	225.45
959.10	225.45
959.40	225.47
959.69	225.51
959.99	225.51
960.29	225.50
960.58	225.50
960.88	225.49
961.17	225.48
961.47	225.48
961.76	225.44
962.06	225.45
962.36	225.43
962.65	225.39
962.95	225.41
963.24	225.40
963.54	225.41
963.83	225.45
964.13	225.41
964.42	225.35
964.72	225.28
965.01	225.23
965.31	225.22
965.60	225.16
965.90	225.18
966.19	225.17
966.49	225.17
966.78	225.18
967.08	225.18
967.37	225.20
967.67	225.17
967.96	225.21
968.26	225.20
968.55	225.17
968.85	225.20
969.14	225.20
969.43	225.16
969.73	225.13
970.02	225.12
970.32	225.12
970.61	225.12
970.91	225.09
971.20	225.08
971.49	225.05
971.79	225.09
972.08	225.02
972.38	225.04
972.67	225.02
972.96	225.03
973.26	225.02
973.55	225.02
973.85	225.03
974.14	225.04
974.43	225.05
974.73	225.06
975.02	225.04
975.31	225.05
975.61	225.05
975.90	225.05
976.19	225.03
976.49	225.02
976.78	225.03
977.07	225.04
977.37	225.07
977.66	225.10
977.95	225.09
978.24	225.11
978.54	225.11
978.83	225.12
979.12	225.11
979.42	225.09
979.71	225.06
980.00	225.07
980.29	225.06
980.59	225.03
980.88	225.08
981.17	225.09
981.46	225.09
981.76	225.07
982.05	225.10
982.34	225.12
982.63	225.12
982.93	225.11
983.22	225.14
983.51	225.14
983.80	225.15
984.09	225.17
984.39	225.15
984.68	225.13
984.97	225.13
985.26	225.12
985.55	225.12
985.85	225.11
986.14	225.14
986.43	225.18
986.72	225.19
987.01	225.12
987.30	225.11
987.59	225.07
987.89	225.12
988.18	225.08
988.47	225.07
988.76	225.06
989.05	225.05
989.34	225.02
989.63	225.03
989.92	225.02
990.22	224.98
990.51	224.96
990.80	224.95
991.09	224.99
991.38	225.03
991.67	225.05
991.96	225.06
992.25	225.03
992.54	225.00
992.83	225.00
993.12	225.02
993.41	225.03
993.70	225.08
993.99	225.11
994.28	225.13
994.58	225.15
994.87	225.14
995.16	225.15
995.45	225.14
995.74	225.12
996.03	225.14
996.32	225.17
996.61	225.23
996.90	225.22
997.19	225.18
997.48	225.15
997.77	225.13
998.06	225.12
998.34	225.08
998.63	225.06
998.92	225.07
999.21	225.07
999.50	225.08
999.79	225.05
1000.08	225.00
1000.37	224.99
1000.66	224.96
1000.95	224.98
1001.24	224.99
1001.53	225.00
1001.82	224.97
1002.11	224.95
1002.40	224.93
1002.68	224.93
1002.97	225.04
1003.26	225.04
1003.55	225.04
1003.84	225.06
1004.13	225.09
1004.42	225.09
1004.71	225.11
1004.99	225.07
1005.28	225.08
1005.57	225.07
1005.86	225.03
1006.15	225.05
1006.44	225.04
1006.72	225.05
1007.01	225.06
1007.30	225.06
1007.59	225.05
1007.88	225.06
1008.17	225.09
1008.45	225.10
1008.74	225.07
1009.03	225.01
1009.32	225.00
1009.60	224.98
1009.89	224.98
1010.18	224.96
1010.47	224.97
1010.76	224.96
1011.04	225.00
1011.33	225.02
1011.62	225.01
1011.91	225.05
1012.19	225.01
1012.48	225.01
1012.77	224.98
1013.05	225.03
1013.34	225.05
1013.63	225.04
1013.92	225.09
1014.20	225.07
1014.49	225.06
1014.78	225.07
1015.06	225.04
1015.35	225.05
1015.64	225.07
1015.92	225.08
1016.21	225.06
1016.50	225.06
1016.78	225.09
1017.07	225.09
1017.36	225.07
1017.64	225.06
1017.93	225.08
1018.22	225.12
1018.50	225.14
1018.79	225.16
1019.08	225.10
1019.36	225.10
1019.65	225.10
1019.93	225.12
1020.22	225.12
1020.51	225.20
1020.79	225.19
1021.08	225.23
1021.36	224.97
1021.65	224.99
1021.94	225.06
1022.22	225.36
1022.51	224.87
1022.79	226.07
1023.08	224.99
1023.36	226.80
1023.65	224.91
>>>>>End Processed Spectral Data<<<<<
