SpectraSuite Data File
++++++++++++++++++++++++++++++++++++
Date: Fri Feb 01 15:34:10 EST 2013
User: group
Dark Spectrum Present: No
Reference Spectrum Present: No
Number of Sampled Component Spectra: 1
Spectrometers: USB2E7196
Integration Time (usec): 35000 (USB2E7196)
Spectra Averaged: 100 (USB2E7196)
Boxcar Smoothing: 10 (USB2E7196)
Correct for Electrical Dark: No (USB2E7196)
Strobe/Lamp Enabled: No (USB2E7196)
Correct for Detector Non-linearity: No (USB2E7196)
Correct for Stray Light: No (USB2E7196)
Number of Pixels in Processed Spectrum: 2048
>>>>>Begin Processed Spectral Data<<<<<
339.09	0.00
339.48	214.82
339.86	216.46
340.24	218.12
340.63	219.02
341.01	222.15
341.39	222.27
341.78	223.31
342.16	224.24
342.54	225.47
342.93	213.42
343.31	224.23
343.69	224.77
344.07	225.24
344.46	225.65
344.84	226.05
345.22	226.28
345.60	226.54
345.99	226.74
346.37	226.88
346.75	226.95
347.13	227.01
347.52	227.07
347.90	227.14
348.28	227.17
348.66	227.20
349.05	227.17
349.43	227.21
349.81	227.26
350.19	227.30
350.57	227.36
350.96	227.45
351.34	227.52
351.72	227.63
352.10	227.72
352.48	227.79
352.87	227.84
353.25	227.91
353.63	227.91
354.01	227.95
354.39	228.01
354.77	228.08
355.15	228.21
355.54	228.26
355.92	228.27
356.30	228.36
356.68	228.50
357.06	228.59
357.44	228.63
357.82	228.70
358.20	228.80
358.58	228.84
358.97	228.87
359.35	228.92
359.73	228.98
360.11	229.04
360.49	229.11
360.87	229.16
361.25	229.21
361.63	229.32
362.01	229.38
362.39	229.46
362.77	229.50
363.15	229.51
363.53	229.52
363.91	229.57
364.29	229.60
364.67	229.52
365.05	229.54
365.43	229.56
365.81	229.56
366.19	229.57
366.57	229.64
366.95	229.66
367.33	229.65
367.71	229.64
368.09	229.64
368.47	229.63
368.85	229.59
369.23	229.57
369.61	229.52
369.99	229.53
370.37	229.47
370.75	229.51
371.13	229.41
371.51	229.39
371.89	229.32
372.27	229.27
372.65	229.20
373.03	229.14
373.41	229.05
373.78	229.00
374.16	228.89
374.54	228.77
374.92	228.69
375.30	228.64
375.68	228.59
376.06	228.51
376.44	228.42
376.82	228.39
377.19	228.31
377.57	228.23
377.95	228.11
378.33	228.04
378.71	227.89
379.09	227.86
379.47	227.80
379.84	227.73
380.22	227.67
380.60	227.60
380.98	227.52
381.36	227.46
381.73	227.34
382.11	227.28
382.49	227.22
382.87	227.14
383.25	227.05
383.62	227.06
384.00	227.01
384.38	226.97
384.76	226.89
385.13	226.88
385.51	226.80
385.89	226.74
386.27	226.69
386.64	226.67
387.02	226.60
387.40	226.53
387.78	226.52
388.15	226.48
388.53	226.47
388.91	226.45
389.29	226.42
389.66	226.40
390.04	226.38
390.42	226.38
390.79	226.36
391.17	226.34
391.55	226.24
391.92	226.20
392.30	226.20
392.68	226.15
393.05	226.16
393.43	226.16
393.81	226.19
394.18	226.19
394.56	226.18
394.94	226.23
395.31	226.27
395.69	226.33
396.06	226.33
396.44	226.37
396.82	226.37
397.19	226.46
397.57	226.56
397.95	226.63
398.32	226.65
398.70	226.74
399.07	226.84
399.45	226.86
399.82	226.95
400.20	227.01
400.58	227.14
400.95	227.15
401.33	227.28
401.70	227.42
402.08	227.53
402.45	227.63
402.83	227.72
403.20	227.84
403.58	227.91
403.95	228.11
404.33	228.24
404.71	228.37
405.08	228.57
405.46	228.66
405.83	228.83
406.21	229.00
406.58	229.17
406.96	229.29
407.33	229.50
407.70	229.71
408.08	229.97
408.45	230.21
408.83	230.49
409.20	230.65
409.58	230.86
409.95	231.12
410.33	231.39
410.70	231.69
411.08	231.95
411.45	232.29
411.82	232.55
412.20	232.92
412.57	233.38
412.95	233.65
413.32	234.10
413.69	234.52
414.07	234.96
414.44	235.41
414.82	235.89
415.19	236.47
415.56	237.00
415.94	237.54
416.31	238.17
416.68	238.79
417.06	239.52
417.43	240.17
417.81	240.93
418.18	241.72
418.55	242.53
418.93	243.39
419.30	244.27
419.67	245.24
420.04	246.20
420.42	247.13
420.79	248.32
421.16	249.45
421.54	250.61
421.91	251.82
422.28	253.11
422.66	254.45
423.03	255.76
423.40	257.08
423.77	258.49
424.15	259.89
424.52	261.36
424.89	263.00
425.26	264.58
425.64	266.04
426.01	267.65
426.38	269.32
426.75	271.02
427.13	272.74
427.50	274.52
427.87	276.37
428.24	278.27
428.61	280.04
428.99	282.01
429.36	284.13
429.73	286.18
430.10	288.22
430.47	290.29
430.85	292.42
431.22	294.68
431.59	297.05
431.96	299.30
432.33	301.81
432.70	304.17
433.08	306.94
433.45	309.60
433.82	312.20
434.19	315.10
434.56	317.91
434.93	320.56
435.30	323.21
435.68	326.11
436.05	328.96
436.42	331.75
436.79	334.26
437.16	336.97
437.53	339.84
437.90	342.64
438.27	345.36
438.64	348.15
439.01	350.74
439.38	353.01
439.75	355.21
440.13	357.67
440.50	360.03
440.87	361.91
441.24	363.87
441.61	366.03
441.98	367.52
442.35	369.34
442.72	371.22
443.09	373.00
443.46	373.97
443.83	374.56
444.20	375.07
444.57	375.86
444.94	376.18
445.31	376.46
445.68	376.81
446.05	376.90
446.42	376.52
446.79	376.05
447.16	375.54
447.53	375.20
447.90	374.02
448.27	372.85
448.64	371.28
449.01	370.07
449.37	368.06
449.74	366.16
450.11	363.84
450.48	361.34
450.85	358.79
451.22	356.67
451.59	354.60
451.96	352.66
452.33	350.06
452.70	347.62
453.07	344.77
453.43	341.78
453.80	339.00
454.17	336.31
454.54	333.78
454.91	331.09
455.28	328.39
455.65	325.92
456.02	323.44
456.38	321.27
456.75	318.62
457.12	316.41
457.49	314.17
457.86	312.07
458.23	310.23
458.59	308.17
458.96	306.07
459.33	304.24
459.70	302.35
460.07	300.86
460.43	299.16
460.80	297.57
461.17	296.17
461.54	294.70
461.91	293.32
462.27	291.90
462.64	290.65
463.01	289.29
463.38	288.00
463.74	286.68
464.11	285.47
464.48	284.42
464.85	283.35
465.21	282.47
465.58	281.51
465.95	280.40
466.32	279.55
466.68	278.66
467.05	277.78
467.42	276.87
467.78	275.96
468.15	275.09
468.52	274.43
468.88	273.55
469.25	272.77
469.62	272.12
469.98	271.43
470.35	270.83
470.72	270.28
471.08	269.59
471.45	269.05
471.82	268.54
472.18	267.98
472.55	267.51
472.92	267.01
473.28	266.57
473.65	266.15
474.02	265.68
474.38	265.34
474.75	265.00
475.11	264.69
475.48	264.40
475.85	264.18
476.21	263.92
476.58	263.77
476.94	263.62
477.31	263.44
477.67	263.29
478.04	263.21
478.41	263.17
478.77	263.25
479.14	263.19
479.50	263.22
479.87	263.29
480.23	263.37
480.60	263.44
480.96	263.53
481.33	263.70
481.69	263.90
482.06	264.06
482.42	264.28
482.79	264.55
483.15	264.89
483.52	265.25
483.88	265.63
484.25	266.01
484.61	266.45
484.98	266.92
485.34	267.49
485.71	268.01
486.07	268.57
486.44	269.16
486.80	269.84
487.17	270.57
487.53	271.39
487.90	272.24
488.26	273.17
488.62	274.18
488.99	275.18
489.35	276.24
489.72	277.37
490.08	278.51
490.44	279.71
490.81	281.03
491.17	282.41
491.54	283.86
491.90	285.40
492.26	287.05
492.63	288.79
492.99	290.56
493.36	292.47
493.72	294.53
494.08	296.65
494.45	298.88
494.81	301.22
495.17	303.63
495.54	306.18
495.90	308.86
496.26	311.64
496.63	314.57
496.99	317.64
497.35	320.91
497.72	324.32
498.08	327.86
498.44	331.52
498.80	335.39
499.17	339.46
499.53	343.60
499.89	347.94
500.26	352.41
500.62	357.06
500.98	362.02
501.34	367.08
501.71	372.36
502.07	377.84
502.43	383.45
502.79	389.27
503.16	395.31
503.52	401.62
503.88	408.03
504.24	414.60
504.60	421.53
504.97	428.66
505.33	436.04
505.69	443.73
506.05	451.57
506.41	459.49
506.78	467.66
507.14	476.12
507.50	484.86
507.86	493.89
508.22	503.07
508.59	512.30
508.95	521.84
509.31	531.69
509.67	541.82
510.03	552.14
510.39	562.76
510.75	573.58
511.12	584.46
511.48	595.77
511.84	607.32
512.20	618.76
512.56	630.72
512.92	642.82
513.28	655.24
513.64	667.68
514.00	680.38
514.37	693.28
514.73	706.40
515.09	719.40
515.45	732.71
515.81	746.32
516.17	760.36
516.53	774.47
516.89	788.63
517.25	802.76
517.61	817.21
517.97	831.65
518.33	846.19
518.69	861.05
519.05	876.09
519.41	891.36
519.77	906.93
520.13	922.36
520.49	937.80
520.85	953.17
521.21	968.90
521.57	985.18
521.93	1001.04
522.29	1017.44
522.65	1033.83
523.01	1050.11
523.37	1066.23
523.73	1082.31
524.09	1098.48
524.45	1114.96
524.81	1131.66
525.17	1148.52
525.53	1165.49
525.89	1182.40
526.25	1199.14
526.61	1215.50
526.97	1232.26
527.33	1248.85
527.68	1265.62
528.04	1282.18
528.40	1298.94
528.76	1316.13
529.12	1332.85
529.48	1349.72
529.84	1365.82
530.20	1382.49
530.56	1399.59
530.91	1417.03
531.27	1433.96
531.63	1450.52
531.99	1467.09
532.35	1483.11
532.71	1499.14
533.07	1515.45
533.42	1531.27
533.78	1547.47
534.14	1563.85
534.50	1579.15
534.86	1595.08
535.21	1610.22
535.57	1626.20
535.93	1641.63
536.29	1656.34
536.65	1671.26
537.00	1686.04
537.36	1701.35
537.72	1715.88
538.08	1730.23
538.44	1744.06
538.79	1757.94
539.15	1771.62
539.51	1785.40
539.87	1799.74
540.22	1813.44
540.58	1827.13
540.94	1840.59
541.29	1853.54
541.65	1866.18
542.01	1879.46
542.37	1891.70
542.72	1904.18
543.08	1915.93
543.44	1928.37
543.79	1939.66
544.15	1950.78
544.51	1962.40
544.87	1973.52
545.22	1984.20
545.58	1994.47
545.94	2004.16
546.29	2014.07
546.65	2023.97
547.01	2033.15
547.36	2041.75
547.72	2050.10
548.07	2058.01
548.43	2066.20
548.79	2074.16
549.14	2081.76
549.50	2089.14
549.86	2096.87
550.21	2104.23
550.57	2111.42
550.92	2118.08
551.28	2125.11
551.64	2132.14
551.99	2138.75
552.35	2144.72
552.70	2151.09
553.06	2157.09
553.41	2163.67
553.77	2169.71
554.13	2175.74
554.48	2181.99
554.84	2187.57
555.19	2193.09
555.55	2198.25
555.90	2202.60
556.26	2207.50
556.61	2212.26
556.97	2216.50
557.32	2220.59
557.68	2224.74
558.03	2229.10
558.39	2232.74
558.74	2237.41
559.10	2241.30
559.45	2245.02
559.81	2249.47
560.16	2253.16
560.52	2256.36
560.87	2259.65
561.23	2262.26
561.58	2265.30
561.94	2267.83
562.29	2270.34
562.64	2272.90
563.00	2275.53
563.35	2279.14
563.71	2282.31
564.06	2285.54
564.42	2288.46
564.77	2291.02
565.12	2293.24
565.48	2295.04
565.83	2296.90
566.19	2298.25
566.54	2299.20
566.89	2300.32
567.25	2300.86
567.60	2302.34
567.96	2304.03
568.31	2304.86
568.66	2306.07
569.02	2306.61
569.37	2306.89
569.72	2307.66
570.08	2307.83
570.43	2307.86
570.78	2307.36
571.14	2305.76
571.49	2304.37
571.84	2304.01
572.20	2302.95
572.55	2301.75
572.90	2300.20
573.26	2298.80
573.61	2297.08
573.96	2295.28
574.31	2292.24
574.67	2289.15
575.02	2285.40
575.37	2282.03
575.72	2278.14
576.08	2274.68
576.43	2271.36
576.78	2267.57
577.13	2264.27
577.49	2261.06
577.84	2257.53
578.19	2253.59
578.54	2249.92
578.90	2245.55
579.25	2240.01
579.60	2234.89
579.95	2230.05
580.30	2224.95
580.66	2219.84
581.01	2214.89
581.36	2209.85
581.71	2205.62
582.06	2201.18
582.42	2196.65
582.77	2191.33
583.12	2186.75
583.47	2181.97
583.82	2176.85
584.17	2171.56
584.53	2166.14
584.88	2160.51
585.23	2154.55
585.58	2149.12
585.93	2143.61
586.28	2138.94
586.63	2133.66
586.98	2128.64
587.34	2123.74
587.69	2118.87
588.04	2113.33
588.39	2107.45
588.74	2101.09
589.09	2094.88
589.44	2087.87
589.79	2081.81
590.14	2076.14
590.49	2069.41
590.84	2063.02
591.19	2056.97
591.54	2050.55
591.89	2043.09
592.25	2036.34
592.60	2029.15
592.95	2021.44
593.30	2014.03
593.65	2006.32
594.00	1999.30
594.35	1991.90
594.70	1983.78
595.05	1976.36
595.40	1969.16
595.75	1961.67
596.10	1955.21
596.45	1948.43
596.80	1942.30
597.15	1935.56
597.50	1928.38
597.85	1921.91
598.19	1915.02
598.54	1907.77
598.89	1901.11
599.24	1895.15
599.59	1888.24
599.94	1882.01
600.29	1875.64
600.64	1869.05
600.99	1861.48
601.34	1854.68
601.69	1847.70
602.04	1840.74
602.39	1833.50
602.74	1826.64
603.08	1819.92
603.43	1813.16
603.78	1805.76
604.13	1798.46
604.48	1791.20
604.83	1784.29
605.18	1777.26
605.53	1769.33
605.87	1761.31
606.22	1753.95
606.57	1745.93
606.92	1738.65
607.27	1731.45
607.62	1724.47
607.96	1717.10
608.31	1710.45
608.66	1702.70
609.01	1695.06
609.36	1687.57
609.70	1679.50
610.05	1671.40
610.40	1663.63
610.75	1655.34
611.10	1647.72
611.44	1639.37
611.79	1631.35
612.14	1622.64
612.49	1613.62
612.83	1605.23
613.18	1597.12
613.53	1589.12
613.88	1580.59
614.22	1572.31
614.57	1563.60
614.92	1555.58
615.27	1548.08
615.61	1539.84
615.96	1531.83
616.31	1524.39
616.65	1517.06
617.00	1509.48
617.35	1501.90
617.70	1493.59
618.04	1485.05
618.39	1476.70
618.74	1469.06
619.08	1460.71
619.43	1453.20
619.78	1446.26
620.12	1439.03
620.47	1431.47
620.82	1423.29
621.16	1415.88
621.51	1408.11
621.85	1400.66
622.20	1392.09
622.55	1383.74
622.89	1375.86
623.24	1368.30
623.59	1360.86
623.93	1353.27
624.28	1346.07
624.62	1338.43
624.97	1331.23
625.32	1324.52
625.66	1317.50
626.01	1310.27
626.35	1302.84
626.70	1295.10
627.04	1287.33
627.39	1279.59
627.73	1272.20
628.08	1265.18
628.43	1257.80
628.77	1250.53
629.12	1242.87
629.46	1235.75
629.81	1228.22
630.15	1220.94
630.50	1213.48
630.84	1205.16
631.19	1197.21
631.53	1189.68
631.88	1182.16
632.22	1174.52
632.57	1167.21
632.91	1159.76
633.26	1152.31
633.60	1145.00
633.95	1137.90
634.29	1130.88
634.64	1124.22
634.98	1116.82
635.32	1109.64
635.67	1103.10
636.01	1096.45
636.36	1089.60
636.70	1083.12
637.05	1076.64
637.39	1070.20
637.73	1063.65
638.08	1057.80
638.42	1051.87
638.77	1045.44
639.11	1038.73
639.45	1032.31
639.80	1025.63
640.14	1019.21
640.49	1012.78
640.83	1006.41
641.17	1000.05
641.52	993.72
641.86	987.29
642.20	981.45
642.55	975.22
642.89	968.70
643.23	962.19
643.58	956.46
643.92	950.22
644.26	944.15
644.61	938.15
644.95	932.09
645.29	925.47
645.64	918.65
645.98	912.30
646.32	906.48
646.66	900.54
647.01	894.71
647.35	889.00
647.69	883.11
648.04	877.63
648.38	871.97
648.72	865.90
649.06	859.81
649.41	853.94
649.75	847.85
650.09	841.94
650.43	836.08
650.78	829.92
651.12	823.98
651.46	818.15
651.80	812.35
652.14	806.94
652.49	801.63
652.83	796.50
653.17	790.84
653.51	785.10
653.85	779.63
654.20	773.93
654.54	767.93
654.88	762.25
655.22	756.42
655.56	750.69
655.90	745.36
656.25	740.10
656.59	734.75
656.93	729.70
657.27	724.59
657.61	719.18
657.95	714.07
658.29	708.99
658.64	703.88
658.98	698.57
659.32	693.11
659.66	687.92
660.00	682.65
660.34	677.72
660.68	672.87
661.02	667.92
661.36	663.29
661.70	658.77
662.05	654.41
662.39	650.04
662.73	645.57
663.07	641.14
663.41	636.76
663.75	632.26
664.09	627.77
664.43	623.36
664.77	619.26
665.11	615.07
665.45	610.96
665.79	606.88
666.13	602.77
666.47	598.72
666.81	594.55
667.15	590.40
667.49	586.49
667.83	582.65
668.17	578.69
668.51	574.66
668.85	570.65
669.19	566.78
669.53	562.96
669.87	559.08
670.21	555.37
670.55	551.71
670.89	548.31
671.23	544.87
671.57	541.35
671.91	537.85
672.25	534.35
672.58	530.80
672.92	527.30
673.26	524.19
673.60	521.01
673.94	517.85
674.28	514.96
674.62	512.01
674.96	508.87
675.30	505.91
675.64	502.93
675.97	500.13
676.31	497.26
676.65	494.27
676.99	491.57
677.33	488.71
677.67	485.83
678.01	482.72
678.34	479.67
678.68	476.78
679.02	473.92
679.36	471.13
679.70	468.43
680.04	465.71
680.37	462.76
680.71	459.97
681.05	457.44
681.39	454.66
681.73	452.00
682.06	449.50
682.40	446.93
682.74	444.41
683.08	441.83
683.42	439.21
683.75	436.75
684.09	434.22
684.43	431.74
684.77	429.35
685.10	427.02
685.44	424.77
685.78	422.51
686.12	420.29
686.45	418.04
686.79	415.75
687.13	413.58
687.46	411.48
687.80	409.36
688.14	407.13
688.48	405.13
688.81	402.87
689.15	400.72
689.49	398.62
689.82	396.58
690.16	394.55
690.50	392.63
690.83	390.64
691.17	388.63
691.51	386.76
691.84	384.88
692.18	382.97
692.52	380.97
692.85	379.02
693.19	377.12
693.52	375.31
693.86	373.50
694.20	371.70
694.53	369.88
694.87	368.04
695.21	366.24
695.54	364.43
695.88	362.71
696.21	361.03
696.55	359.39
696.88	357.71
697.22	356.07
697.56	354.42
697.89	352.81
698.23	351.27
698.56	349.62
698.90	348.02
699.23	346.42
699.57	344.92
699.90	343.42
700.24	341.89
700.58	340.31
700.91	338.82
701.25	337.40
701.58	336.03
701.92	334.71
702.25	333.34
702.59	331.96
702.92	330.66
703.26	329.37
703.59	328.06
703.93	326.87
704.26	325.65
704.60	324.39
704.93	323.07
705.26	321.79
705.60	320.65
705.93	319.54
706.27	318.50
706.60	317.40
706.94	316.31
707.27	315.18
707.61	314.16
707.94	313.13
708.27	312.03
708.61	310.95
708.94	309.91
709.28	308.93
709.61	307.99
709.94	307.05
710.28	306.00
710.61	305.02
710.95	303.93
711.28	303.00
711.61	302.05
711.95	301.18
712.28	300.22
712.61	299.20
712.95	298.25
713.28	297.32
713.61	296.42
713.95	295.51
714.28	294.69
714.61	293.76
714.95	292.93
715.28	292.03
715.61	291.17
715.95	290.34
716.28	289.44
716.61	288.57
716.95	287.77
717.28	287.01
717.61	286.18
717.94	285.45
718.28	284.64
718.61	283.92
718.94	283.19
719.27	282.54
719.61	281.92
719.94	281.26
720.27	280.54
720.60	279.88
720.94	279.22
721.27	278.61
721.60	278.04
721.93	277.43
722.27	276.90
722.60	276.35
722.93	275.71
723.26	275.20
723.59	274.62
723.93	274.04
724.26	273.47
724.59	272.98
724.92	272.45
725.25	271.92
725.59	271.34
725.92	270.85
726.25	270.33
726.58	269.83
726.91	269.34
727.24	268.88
727.57	268.42
727.91	267.95
728.24	267.43
728.57	266.96
728.90	266.48
729.23	265.99
729.56	265.58
729.89	265.15
730.22	264.65
730.55	264.23
730.89	263.77
731.22	263.35
731.55	262.91
731.88	262.48
732.21	262.06
732.54	261.65
732.87	261.21
733.20	260.80
733.53	260.38
733.86	259.99
734.19	259.63
734.52	259.24
734.85	258.95
735.18	258.55
735.51	258.22
735.84	257.86
736.17	257.51
736.50	257.11
736.83	256.89
737.16	256.57
737.49	256.22
737.82	255.87
738.15	255.58
738.48	255.21
738.81	254.89
739.14	254.58
739.47	254.25
739.80	253.95
740.13	253.64
740.46	253.34
740.79	253.06
741.12	252.74
741.45	252.42
741.78	252.10
742.11	251.85
742.44	251.52
742.77	251.26
743.10	250.98
743.43	250.70
743.75	250.32
744.08	250.17
744.41	249.93
744.74	249.68
745.07	249.40
745.40	249.23
745.73	249.02
746.06	248.73
746.39	248.49
746.71	248.26
747.04	248.05
747.37	247.80
747.70	247.52
748.03	247.31
748.36	247.12
748.68	246.84
749.01	246.57
749.34	246.34
749.67	246.11
750.00	245.86
750.33	245.69
750.65	245.49
750.98	245.16
751.31	244.93
751.64	244.69
751.97	244.50
752.29	244.24
752.62	243.95
752.95	243.78
753.28	243.55
753.60	243.33
753.93	243.12
754.26	242.92
754.59	242.71
754.91	242.45
755.24	242.21
755.57	242.01
755.90	241.86
756.22	241.64
756.55	241.42
756.88	241.23
757.20	241.00
757.53	240.77
757.86	240.61
758.19	240.47
758.51	240.34
758.84	240.10
759.17	239.92
759.49	239.74
759.82	239.59
760.15	239.46
760.47	239.30
760.80	239.13
761.13	238.97
761.45	238.82
761.78	238.68
762.11	238.53
762.43	238.39
762.76	238.23
763.08	238.13
763.41	238.01
763.74	237.89
764.06	237.71
764.39	237.57
764.71	237.40
765.04	237.23
765.37	237.09
765.69	236.96
766.02	236.86
766.34	236.77
766.67	236.60
767.00	236.49
767.32	236.46
767.65	236.42
767.97	236.33
768.30	236.20
768.62	236.11
768.95	236.00
769.27	235.90
769.60	235.78
769.92	235.67
770.25	235.57
770.57	235.44
770.90	235.37
771.22	235.29
771.55	235.20
771.87	235.11
772.20	235.00
772.52	235.00
772.85	235.00
773.17	234.93
773.50	234.85
773.82	234.73
774.15	234.58
774.47	234.42
774.80	234.33
775.12	234.29
775.45	234.19
775.77	234.13
776.09	234.07
776.42	233.98
776.74	233.92
777.07	233.85
777.39	233.83
777.72	233.75
778.04	233.70
778.36	233.65
778.69	233.62
779.01	233.55
779.33	233.42
779.66	233.29
779.98	233.23
780.31	233.19
780.63	233.19
780.95	233.16
781.28	233.13
781.60	233.07
781.92	233.02
782.25	233.01
782.57	232.93
782.89	232.86
783.22	232.83
783.54	232.80
783.86	232.74
784.19	232.67
784.51	232.67
784.83	232.60
785.16	232.52
785.48	232.49
785.80	232.47
786.12	232.44
786.45	232.38
786.77	232.36
787.09	232.31
787.42	232.25
787.74	232.19
788.06	232.12
788.38	232.04
788.71	232.01
789.03	231.95
789.35	231.93
789.67	231.88
789.99	231.85
790.32	231.76
790.64	231.73
790.96	231.78
791.28	231.70
791.61	231.68
791.93	231.65
792.25	231.59
792.57	231.60
792.89	231.54
793.21	231.49
793.54	231.42
793.86	231.36
794.18	231.32
794.50	231.23
794.82	231.20
795.14	231.19
795.47	231.12
795.79	231.08
796.11	231.03
796.43	230.95
796.75	230.88
797.07	230.87
797.39	230.81
797.71	230.68
798.04	230.60
798.36	230.54
798.68	230.47
799.00	230.42
799.32	230.35
799.64	230.31
799.96	230.27
800.28	230.24
800.60	230.25
800.92	230.20
801.24	230.19
801.56	230.16
801.89	230.06
802.21	230.03
802.53	229.97
802.85	229.94
803.17	229.97
803.49	229.96
803.81	229.92
804.13	229.86
804.45	229.80
804.77	229.79
805.09	229.76
805.41	229.75
805.73	229.70
806.05	229.63
806.37	229.61
806.69	229.58
807.01	229.51
807.33	229.46
807.65	229.40
807.97	229.39
808.28	229.34
808.60	229.35
808.92	229.31
809.24	229.34
809.56	229.29
809.88	229.24
810.20	229.18
810.52	229.17
810.84	229.16
811.16	229.15
811.48	229.12
811.80	229.13
812.12	229.09
812.43	229.09
812.75	229.06
813.07	229.01
813.39	229.01
813.71	229.01
814.03	228.99
814.35	228.95
814.67	228.89
814.98	228.88
815.30	228.86
815.62	228.83
815.94	228.74
816.26	228.78
816.58	228.74
816.89	228.75
817.21	228.70
817.53	228.71
817.85	228.71
818.17	228.72
818.48	228.67
818.80	228.69
819.12	228.67
819.44	228.66
819.76	228.64
820.07	228.62
820.39	228.59
820.71	228.57
821.03	228.59
821.34	228.56
821.66	228.55
821.98	228.56
822.30	228.59
822.61	228.65
822.93	228.57
823.25	228.57
823.57	228.57
823.88	228.57
824.20	228.54
824.52	228.54
824.83	228.49
825.15	228.47
825.47	228.45
825.79	228.41
826.10	228.39
826.42	228.38
826.74	228.37
827.05	228.38
827.37	228.37
827.69	228.37
828.00	228.37
828.32	228.35
828.64	228.33
828.95	228.33
829.27	228.31
829.58	228.30
829.90	228.30
830.22	228.28
830.53	228.26
830.85	228.24
831.17	228.20
831.48	228.22
831.80	228.22
832.11	228.22
832.43	228.21
832.75	228.19
833.06	228.23
833.38	228.15
833.69	228.12
834.01	228.13
834.32	228.08
834.64	228.07
834.96	228.08
835.27	228.05
835.59	228.01
835.90	227.98
836.22	227.99
836.53	227.96
836.85	227.94
837.16	228.04
837.48	228.01
837.79	228.03
838.11	227.99
838.42	227.97
838.74	227.97
839.05	227.96
839.37	227.94
839.68	227.91
840.00	227.91
840.31	227.91
840.63	227.92
840.94	227.92
841.26	227.92
841.57	227.92
841.88	227.92
842.20	227.86
842.51	227.82
842.83	227.81
843.14	227.91
843.46	227.89
843.77	227.81
844.08	227.84
844.40	227.81
844.71	227.80
845.03	227.79
845.34	227.78
845.65	227.77
845.97	227.76
846.28	227.75
846.60	227.76
846.91	227.72
847.22	227.71
847.54	227.73
847.85	227.71
848.16	227.69
848.48	227.65
848.79	227.72
849.10	227.71
849.42	227.70
849.73	227.58
850.04	227.57
850.36	227.53
850.67	227.50
850.98	227.47
851.30	227.47
851.61	227.46
851.92	227.43
852.23	227.43
852.55	227.45
852.86	227.44
853.17	227.43
853.49	227.43
853.80	227.42
854.11	227.42
854.42	227.43
854.74	227.44
855.05	227.46
855.36	227.43
855.67	227.45
855.99	227.46
856.30	227.61
856.61	227.59
856.92	227.61
857.23	227.63
857.55	227.62
857.86	227.63
858.17	227.64
858.48	227.66
858.79	227.64
859.11	227.63
859.42	227.62
859.73	227.65
860.04	227.68
860.35	227.68
860.66	227.65
860.98	227.66
861.29	227.69
861.60	227.67
861.91	227.67
862.22	227.66
862.53	227.63
862.84	227.48
863.16	227.51
863.47	227.48
863.78	227.45
864.09	227.48
864.40	227.50
864.71	227.53
865.02	227.52
865.33	227.53
865.64	227.52
865.95	227.49
866.27	227.55
866.58	227.55
866.89	227.57
867.20	227.55
867.51	227.51
867.82	227.48
868.13	227.55
868.44	227.58
868.75	227.56
869.06	227.60
869.37	227.60
869.68	227.62
869.99	227.61
870.30	227.63
870.61	227.63
870.92	227.60
871.23	227.58
871.54	227.58
871.85	227.62
872.16	227.64
872.47	227.66
872.78	227.59
873.09	227.58
873.40	227.55
873.71	227.56
874.02	227.57
874.33	227.55
874.64	227.46
874.95	227.43
875.26	227.40
875.56	227.38
875.87	227.39
876.18	227.36
876.49	227.48
876.80	227.48
877.11	227.45
877.42	227.47
877.73	227.46
878.04	227.42
878.35	227.40
878.66	227.36
878.96	227.33
879.27	227.31
879.58	227.28
879.89	227.29
880.20	227.29
880.51	227.30
880.82	227.30
881.12	227.31
881.43	227.28
881.74	227.28
882.05	227.27
882.36	227.25
882.67	227.26
882.97	227.11
883.28	227.07
883.59	227.08
883.90	227.06
884.21	227.08
884.51	227.11
884.82	227.12
885.13	227.13
885.44	227.16
885.74	227.15
886.05	227.13
886.36	227.11
886.67	227.05
886.98	227.07
887.28	227.10
887.59	227.11
887.90	227.11
888.20	227.10
888.51	227.11
888.82	227.08
889.13	227.08
889.43	227.14
889.74	227.14
890.05	227.11
890.35	227.08
890.66	227.06
890.97	227.04
891.28	226.98
891.58	227.02
891.89	227.01
892.20	227.00
892.50	227.01
892.81	226.98
893.12	227.00
893.42	226.95
893.73	226.89
894.04	226.91
894.34	226.91
894.65	226.92
894.95	226.92
895.26	226.94
895.57	226.97
895.87	226.94
896.18	226.98
896.48	227.01
896.79	227.04
897.10	227.03
897.40	227.04
897.71	227.06
898.01	227.02
898.32	227.02
898.63	227.04
898.93	227.03
899.24	227.08
899.54	227.11
899.85	227.12
900.15	227.18
900.46	227.16
900.76	227.17
901.07	227.16
901.38	227.16
901.68	227.19
901.99	227.18
902.29	227.19
902.60	227.18
902.90	227.15
903.21	227.15
903.51	227.17
903.82	227.17
904.12	227.16
904.43	227.20
904.73	227.23
905.03	227.23
905.34	227.31
905.64	227.28
905.95	227.27
906.25	227.25
906.56	227.23
906.86	227.24
907.17	227.26
907.47	227.29
907.77	227.29
908.08	227.27
908.38	227.25
908.69	227.23
908.99	227.23
909.30	227.26
909.60	227.25
909.90	227.24
910.21	227.19
910.51	227.17
910.81	227.16
911.12	227.13
911.42	227.14
911.73	227.07
912.03	227.09
912.33	227.10
912.64	227.11
912.94	227.10
913.24	227.10
913.55	227.08
913.85	227.07
914.15	227.07
914.46	227.07
914.76	227.04
915.06	227.04
915.37	227.03
915.67	226.99
915.97	226.99
916.27	226.96
916.58	226.98
916.88	226.98
917.18	226.96
917.49	227.05
917.79	227.05
918.09	227.03
918.39	227.05
918.70	227.06
919.00	227.04
919.30	227.08
919.60	227.03
919.91	227.02
920.21	226.99
920.51	226.97
920.81	226.98
921.12	227.01
921.42	227.00
921.72	227.00
922.02	227.01
922.32	227.02
922.63	227.02
922.93	227.12
923.23	227.14
923.53	227.15
923.83	227.08
924.13	227.07
924.44	227.10
924.74	227.11
925.04	227.12
925.34	227.16
925.64	227.13
925.94	227.13
926.24	227.22
926.55	227.26
926.85	227.27
927.15	227.23
927.45	227.23
927.75	227.21
928.05	227.22
928.35	227.23
928.65	227.24
928.95	227.23
929.26	227.15
929.56	227.17
929.86	227.19
930.16	227.18
930.46	227.18
930.76	227.19
931.06	227.12
931.36	227.13
931.66	227.13
931.96	227.14
932.26	227.20
932.56	227.14
932.86	227.14
933.16	227.14
933.46	227.16
933.76	227.16
934.06	227.21
934.36	227.26
934.66	227.28
934.96	227.29
935.26	227.32
935.56	227.39
935.86	227.39
936.16	227.37
936.46	227.38
936.76	227.40
937.06	227.37
937.36	227.41
937.66	227.41
937.96	227.40
938.26	227.36
938.56	227.32
938.86	227.35
939.16	227.36
939.46	227.34
939.76	227.34
940.06	227.32
940.35	227.31
940.65	227.25
940.95	227.26
941.25	227.25
941.55	227.25
941.85	227.24
942.15	227.21
942.45	227.23
942.75	227.24
943.04	227.21
943.34	227.22
943.64	227.20
943.94	227.14
944.24	227.13
944.54	227.17
944.84	227.16
945.13	227.13
945.43	227.14
945.73	227.15
946.03	227.16
946.33	227.18
946.62	227.17
946.92	227.16
947.22	227.18
947.52	227.16
947.82	227.18
948.11	227.15
948.41	227.14
948.71	227.11
949.01	227.10
949.31	227.13
949.60	227.13
949.90	227.14
950.20	227.17
950.50	227.15
950.79	227.10
951.09	227.13
951.39	227.14
951.69	227.12
951.98	227.16
952.28	227.15
952.58	227.14
952.87	227.12
953.17	227.13
953.47	227.06
953.76	227.04
954.06	226.99
954.36	226.95
954.66	226.91
954.95	226.93
955.25	226.92
955.55	226.87
955.84	226.84
956.14	226.85
956.44	226.83
956.73	226.81
957.03	226.85
957.32	226.83
957.62	226.81
957.92	226.77
958.21	226.74
958.51	226.81
958.81	226.79
959.10	226.77
959.40	226.80
959.69	226.83
959.99	226.85
960.29	226.88
960.58	226.89
960.88	226.93
961.17	226.93
961.47	226.93
961.76	226.97
962.06	226.98
962.36	226.96
962.65	226.96
962.95	226.95
963.24	226.93
963.54	226.94
963.83	226.95
964.13	226.97
964.42	226.94
964.72	226.88
965.01	226.91
965.31	226.92
965.60	226.89
965.90	226.94
966.19	226.92
966.49	226.92
966.78	226.91
967.08	226.94
967.37	226.92
967.67	226.88
967.96	226.89
968.26	226.89
968.55	226.94
968.85	226.95
969.14	226.96
969.43	226.96
969.73	226.95
970.02	226.94
970.32	226.95
970.61	226.98
970.91	226.98
971.20	226.98
971.49	226.97
971.79	226.98
972.08	226.90
972.38	226.91
972.67	226.92
972.96	226.94
973.26	226.93
973.55	226.97
973.85	227.00
974.14	227.01
974.43	227.03
974.73	227.01
975.02	226.99
975.31	227.00
975.61	226.97
975.90	226.95
976.19	226.96
976.49	226.97
976.78	226.96
977.07	226.96
977.37	226.95
977.66	227.01
977.95	227.01
978.24	227.07
978.54	227.09
978.83	227.08
979.12	227.08
979.42	227.10
979.71	227.06
980.00	227.05
980.29	227.03
980.59	227.02
980.88	227.03
981.17	227.04
981.46	227.07
981.76	227.12
982.05	227.15
982.34	227.18
982.63	227.16
982.93	227.16
983.22	227.15
983.51	227.14
983.80	227.11
984.09	227.11
984.39	227.09
984.68	227.09
984.97	227.07
985.26	227.10
985.55	227.08
985.85	227.07
986.14	227.10
986.43	227.11
986.72	227.08
987.01	227.02
987.30	227.00
987.59	226.99
987.89	226.95
988.18	226.94
988.47	226.89
988.76	226.88
989.05	226.88
989.34	226.86
989.63	226.88
989.92	226.85
990.22	226.83
990.51	226.79
990.80	226.75
991.09	226.78
991.38	226.75
991.67	226.74
991.96	226.71
992.25	226.69
992.54	226.64
992.83	226.69
993.12	226.72
993.41	226.74
993.70	226.77
993.99	226.81
994.28	226.84
994.58	226.89
994.87	226.89
995.16	226.87
995.45	226.87
995.74	226.83
996.03	226.83
996.32	226.86
996.61	226.89
996.90	226.88
997.19	226.85
997.48	226.87
997.77	226.88
998.06	226.89
998.34	226.87
998.63	226.91
998.92	226.89
999.21	226.89
999.50	226.88
999.79	226.84
1000.08	226.81
1000.37	226.80
1000.66	226.76
1000.95	226.80
1001.24	226.82
1001.53	226.87
1001.82	226.87
1002.11	226.86
1002.40	226.82
1002.68	226.86
1002.97	226.94
1003.26	226.94
1003.55	226.89
1003.84	226.86
1004.13	226.90
1004.42	226.92
1004.71	226.92
1004.99	226.90
1005.28	226.90
1005.57	226.89
1005.86	226.87
1006.15	226.90
1006.44	226.88
1006.72	226.88
1007.01	226.83
1007.30	226.84
1007.59	226.80
1007.88	226.83
1008.17	226.85
1008.45	226.88
1008.74	226.87
1009.03	226.84
1009.32	226.86
1009.60	226.88
1009.89	226.88
1010.18	226.88
1010.47	226.88
1010.76	226.87
1011.04	226.90
1011.33	226.94
1011.62	226.95
1011.91	226.98
1012.19	226.97
1012.48	226.99
1012.77	226.97
1013.05	227.03
1013.34	227.05
1013.63	227.03
1013.92	227.02
1014.20	226.99
1014.49	226.99
1014.78	227.00
1015.06	226.94
1015.35	226.94
1015.64	226.96
1015.92	226.98
1016.21	226.96
1016.50	226.98
1016.78	226.97
1017.07	226.95
1017.36	226.94
1017.64	226.93
1017.93	226.93
1018.22	226.92
1018.50	226.90
1018.79	226.91
1019.08	226.87
1019.36	226.85
1019.65	226.85
1019.93	226.88
1020.22	226.88
1020.51	226.94
1020.79	226.90
1021.08	226.63
1021.36	226.51
1021.65	226.94
1021.94	226.70
1022.22	226.99
1022.51	226.72
1022.79	227.07
1023.08	226.58
1023.36	228.38
1023.65	226.39
>>>>>End Processed Spectral Data<<<<<
