SpectraSuite Data File
++++++++++++++++++++++++++++++++++++
Date: Fri Feb 01 15:44:42 EST 2013
User: group
Dark Spectrum Present: No
Reference Spectrum Present: No
Number of Sampled Component Spectra: 1
Spectrometers: USB2E7196
Integration Time (usec): 35000 (USB2E7196)
Spectra Averaged: 100 (USB2E7196)
Boxcar Smoothing: 10 (USB2E7196)
Correct for Electrical Dark: No (USB2E7196)
Strobe/Lamp Enabled: No (USB2E7196)
Correct for Detector Non-linearity: No (USB2E7196)
Correct for Stray Light: No (USB2E7196)
Number of Pixels in Processed Spectrum: 2048
>>>>>Begin Processed Spectral Data<<<<<
339.09	0.00
339.48	215.02
339.86	216.21
340.24	218.03
340.63	219.48
341.01	222.10
341.39	222.44
341.78	223.00
342.16	224.22
342.54	224.64
342.93	213.46
343.31	224.24
343.69	224.77
344.07	225.22
344.46	225.60
344.84	225.97
345.22	226.20
345.60	226.42
345.99	226.63
346.37	226.75
346.75	226.88
347.13	226.91
347.52	226.95
347.90	227.03
348.28	227.02
348.66	227.06
349.05	227.05
349.43	227.06
349.81	227.09
350.19	227.15
350.57	227.18
350.96	227.22
351.34	227.30
351.72	227.39
352.10	227.53
352.48	227.60
352.87	227.65
353.25	227.70
353.63	227.74
354.01	227.79
354.39	227.88
354.77	227.97
355.15	228.10
355.54	228.17
355.92	228.19
356.30	228.27
356.68	228.40
357.06	228.47
357.44	228.54
357.82	228.61
358.20	228.66
358.58	228.72
358.97	228.79
359.35	228.87
359.73	228.93
360.11	228.97
360.49	229.03
360.87	229.07
361.25	229.10
361.63	229.19
362.01	229.24
362.39	229.25
362.77	229.27
363.15	229.27
363.53	229.28
363.91	229.33
364.29	229.33
364.67	229.23
365.05	229.21
365.43	229.22
365.81	229.23
366.19	229.26
366.57	229.28
366.95	229.27
367.33	229.25
367.71	229.23
368.09	229.22
368.47	229.21
368.85	229.19
369.23	229.21
369.61	229.14
369.99	229.14
370.37	229.12
370.75	229.11
371.13	229.05
371.51	229.00
371.89	228.93
372.27	228.90
372.65	228.88
373.03	228.85
373.41	228.82
373.78	228.77
374.16	228.67
374.54	228.61
374.92	228.54
375.30	228.47
375.68	228.40
376.06	228.35
376.44	228.29
376.82	228.26
377.19	228.18
377.57	228.10
377.95	228.01
378.33	227.91
378.71	227.81
379.09	227.74
379.47	227.67
379.84	227.62
380.22	227.54
380.60	227.47
380.98	227.39
381.36	227.30
381.73	227.20
382.11	227.14
382.49	227.06
382.87	226.97
383.25	226.90
383.62	226.95
384.00	226.90
384.38	226.83
384.76	226.79
385.13	226.76
385.51	226.73
385.89	226.69
386.27	226.66
386.64	226.65
387.02	226.62
387.40	226.60
387.78	226.57
388.15	226.55
388.53	226.53
388.91	226.50
389.29	226.47
389.66	226.46
390.04	226.43
390.42	226.49
390.79	226.49
391.17	226.48
391.55	226.38
391.92	226.36
392.30	226.36
392.68	226.34
393.05	226.37
393.43	226.36
393.81	226.35
394.18	226.35
394.56	226.34
394.94	226.41
395.31	226.43
395.69	226.47
396.06	226.54
396.44	226.59
396.82	226.63
397.19	226.72
397.57	226.79
397.95	226.84
398.32	226.80
398.70	226.89
399.07	226.98
399.45	227.02
399.82	227.09
400.20	227.15
400.58	227.22
400.95	227.24
401.33	227.35
401.70	227.50
402.08	227.60
402.45	227.71
402.83	227.85
403.20	227.95
403.58	228.07
403.95	228.19
404.33	228.28
404.71	228.41
405.08	228.63
405.46	228.74
405.83	228.90
406.21	229.05
406.58	229.22
406.96	229.35
407.33	229.55
407.70	229.74
408.08	230.00
408.45	230.24
408.83	230.49
409.20	230.71
409.58	230.88
409.95	231.14
410.33	231.39
410.70	231.60
411.08	231.90
411.45	232.16
411.82	232.47
412.20	232.84
412.57	233.25
412.95	233.54
413.32	233.97
413.69	234.34
414.07	234.79
414.44	235.25
414.82	235.76
415.19	236.30
415.56	236.86
415.94	237.40
416.31	238.02
416.68	238.63
417.06	239.36
417.43	240.05
417.81	240.80
418.18	241.56
418.55	242.40
418.93	243.28
419.30	244.18
419.67	245.09
420.04	246.05
420.42	247.04
420.79	248.19
421.16	249.31
421.54	250.50
421.91	251.75
422.28	252.98
422.66	254.29
423.03	255.56
423.40	256.90
423.77	258.30
424.15	259.77
424.52	261.26
424.89	262.84
425.26	264.40
425.64	265.85
426.01	267.49
426.38	269.14
426.75	270.78
427.13	272.52
427.50	274.31
427.87	276.17
428.24	278.04
428.61	279.78
428.99	281.75
429.36	283.86
429.73	285.89
430.10	287.96
430.47	290.03
430.85	292.17
431.22	294.44
431.59	296.82
431.96	299.01
432.33	301.51
432.70	303.93
433.08	306.78
433.45	309.47
433.82	312.03
434.19	314.91
434.56	317.73
434.93	320.35
435.30	322.97
435.68	325.85
436.05	328.68
436.42	331.45
436.79	333.98
437.16	336.71
437.53	339.59
437.90	342.37
438.27	345.13
438.64	347.94
439.01	350.53
439.38	352.77
439.75	354.94
440.13	357.46
440.50	359.79
440.87	361.64
441.24	363.56
441.61	365.75
441.98	367.26
442.35	369.08
442.72	370.99
443.09	372.83
443.46	373.87
443.83	374.44
444.20	374.94
444.57	375.73
444.94	376.00
445.31	376.30
445.68	376.62
446.05	376.65
446.42	376.28
446.79	375.81
447.16	375.39
447.53	375.07
447.90	373.85
448.27	372.65
448.64	371.00
449.01	369.81
449.37	367.77
449.74	365.85
450.11	363.61
450.48	361.10
450.85	358.55
451.22	356.40
451.59	354.37
451.96	352.41
452.33	349.81
452.70	347.45
453.07	344.62
453.43	341.71
453.80	338.99
454.17	336.30
454.54	333.75
454.91	331.03
455.28	328.35
455.65	325.85
456.02	323.41
456.38	321.27
456.75	318.63
457.12	316.42
457.49	314.20
457.86	312.03
458.23	310.16
458.59	308.11
458.96	305.97
459.33	304.14
459.70	302.35
460.07	300.86
460.43	299.13
460.80	297.49
461.17	296.04
461.54	294.52
461.91	293.12
462.27	291.68
462.64	290.44
463.01	289.11
463.38	287.80
463.74	286.42
464.11	285.27
464.48	284.27
464.85	283.18
465.21	282.31
465.58	281.32
465.95	280.26
466.32	279.32
466.68	278.43
467.05	277.50
467.42	276.55
467.78	275.62
468.15	274.73
468.52	274.09
468.88	273.26
469.25	272.50
469.62	271.81
469.98	271.16
470.35	270.49
470.72	269.85
471.08	269.24
471.45	268.71
471.82	268.14
472.18	267.55
472.55	267.09
472.92	266.54
473.28	266.15
473.65	265.68
474.02	265.25
474.38	264.89
474.75	264.58
475.11	264.27
475.48	263.99
475.85	263.80
476.21	263.54
476.58	263.37
476.94	263.20
477.31	263.09
477.67	262.93
478.04	262.81
478.41	262.76
478.77	262.80
479.14	262.78
479.50	262.79
479.87	262.86
480.23	262.96
480.60	263.06
480.96	263.15
481.33	263.37
481.69	263.60
482.06	263.81
482.42	264.00
482.79	264.26
483.15	264.61
483.52	264.99
483.88	265.33
484.25	265.73
484.61	266.21
484.98	266.68
485.34	267.23
485.71	267.85
486.07	268.50
486.44	269.06
486.80	269.76
487.17	270.50
487.53	271.32
487.90	272.19
488.26	273.12
488.62	274.11
488.99	275.11
489.35	276.14
489.72	277.29
490.08	278.54
490.44	279.81
490.81	281.13
491.17	282.46
491.54	283.99
491.90	285.51
492.26	287.18
492.63	288.90
492.99	290.71
493.36	292.62
493.72	294.64
494.08	296.76
494.45	298.97
494.81	301.39
495.17	303.81
495.54	306.36
495.90	309.01
496.26	311.81
496.63	314.73
496.99	317.84
497.35	321.06
497.72	324.41
498.08	327.95
498.44	331.63
498.80	335.59
499.17	339.61
499.53	343.82
499.89	348.17
500.26	352.70
500.62	357.36
500.98	362.30
501.34	367.37
501.71	372.69
502.07	378.15
502.43	383.75
502.79	389.58
503.16	395.64
503.52	401.99
503.88	408.40
504.24	415.05
504.60	421.95
504.97	429.07
505.33	436.42
505.69	444.08
506.05	451.83
506.41	459.76
506.78	467.95
507.14	476.34
507.50	485.04
507.86	494.04
508.22	503.24
508.59	512.40
508.95	522.00
509.31	531.82
509.67	541.94
510.03	552.17
510.39	562.74
510.75	573.54
511.12	584.44
511.48	595.65
511.84	607.09
512.20	618.63
512.56	630.58
512.92	642.71
513.28	655.09
513.64	667.57
514.00	680.26
514.37	693.14
514.73	706.18
515.09	719.24
515.45	732.52
515.81	746.12
516.17	760.10
516.53	774.21
516.89	788.36
517.25	802.51
517.61	817.00
517.97	831.42
518.33	845.85
518.69	860.62
519.05	875.62
519.41	890.86
519.77	906.35
520.13	921.84
520.49	937.23
520.85	952.72
521.21	968.39
521.57	984.52
521.93	1000.32
522.29	1016.79
522.65	1033.12
523.01	1049.35
523.37	1065.37
523.73	1081.55
524.09	1097.61
524.45	1113.99
524.81	1130.63
525.17	1147.45
525.53	1164.34
525.89	1181.19
526.25	1198.04
526.61	1214.46
526.97	1231.19
527.33	1247.71
527.68	1264.32
528.04	1280.84
528.40	1297.35
528.76	1314.54
529.12	1331.32
529.48	1348.20
529.84	1364.17
530.20	1380.71
530.56	1397.71
530.91	1415.17
531.27	1431.99
531.63	1448.54
531.99	1465.16
532.35	1481.23
532.71	1497.11
533.07	1513.28
533.42	1529.25
533.78	1545.23
534.14	1561.63
534.50	1576.88
534.86	1592.77
535.21	1607.89
535.57	1623.91
535.93	1639.44
536.29	1654.17
536.65	1669.09
537.00	1684.10
537.36	1699.49
537.72	1713.96
538.08	1728.44
538.44	1742.29
538.79	1756.11
539.15	1769.84
539.51	1783.50
539.87	1797.81
540.22	1811.55
540.58	1825.48
540.94	1838.88
541.29	1851.86
541.65	1864.45
542.01	1877.79
542.37	1890.02
542.72	1902.61
543.08	1914.34
543.44	1926.69
543.79	1937.90
544.15	1948.97
544.51	1960.28
544.87	1971.24
545.22	1982.12
545.58	1992.40
545.94	2002.10
546.29	2012.06
546.65	2021.86
547.01	2031.18
547.36	2039.89
547.72	2048.37
548.07	2056.05
548.43	2064.15
548.79	2072.37
549.14	2079.88
549.50	2087.10
549.86	2094.87
550.21	2102.06
550.57	2109.18
550.92	2115.67
551.28	2122.71
551.64	2129.92
551.99	2136.42
552.35	2142.48
552.70	2148.75
553.06	2154.54
553.41	2160.90
553.77	2166.87
554.13	2172.92
554.48	2178.94
554.84	2184.21
555.19	2189.49
555.55	2194.76
555.90	2199.21
556.26	2203.83
556.61	2208.56
556.97	2212.87
557.32	2216.92
557.68	2220.99
558.03	2225.27
558.39	2229.00
558.74	2233.73
559.10	2237.47
559.45	2241.15
559.81	2245.51
560.16	2249.23
560.52	2252.54
560.87	2255.94
561.23	2258.66
561.58	2261.59
561.94	2264.08
562.29	2266.59
562.64	2269.28
563.00	2271.82
563.35	2275.46
563.71	2278.59
564.06	2281.88
564.42	2284.80
564.77	2287.24
565.12	2289.48
565.48	2291.30
565.83	2293.20
566.19	2294.36
566.54	2295.14
566.89	2296.19
567.25	2296.87
567.60	2298.18
567.96	2299.80
568.31	2300.72
568.66	2301.81
569.02	2302.41
569.37	2302.84
569.72	2303.66
570.08	2303.74
570.43	2303.83
570.78	2303.17
571.14	2301.67
571.49	2300.21
571.84	2299.92
572.20	2298.82
572.55	2297.80
572.90	2296.37
573.26	2294.95
573.61	2293.28
573.96	2291.58
574.31	2288.71
574.67	2285.61
575.02	2281.90
575.37	2278.49
575.72	2274.63
576.08	2271.10
576.43	2267.78
576.78	2263.92
577.13	2260.84
577.49	2257.76
577.84	2254.28
578.19	2250.39
578.54	2246.77
578.90	2242.60
579.25	2236.98
579.60	2232.00
579.95	2226.98
580.30	2221.97
580.66	2216.79
581.01	2211.89
581.36	2207.02
581.71	2202.71
582.06	2198.34
582.42	2193.94
582.77	2188.69
583.12	2183.91
583.47	2179.22
583.82	2174.11
584.17	2169.01
584.53	2163.43
584.88	2157.72
585.23	2151.81
585.58	2146.43
585.93	2140.94
586.28	2136.09
586.63	2130.95
586.98	2125.94
587.34	2121.32
587.69	2116.33
588.04	2110.97
588.39	2105.09
588.74	2098.52
589.09	2092.48
589.44	2085.47
589.79	2079.46
590.14	2073.94
590.49	2067.44
590.84	2061.12
591.19	2055.11
591.54	2048.53
591.89	2041.16
592.25	2034.43
592.60	2027.25
592.95	2019.57
593.30	2012.09
593.65	2004.59
594.00	1997.46
594.35	1990.16
594.70	1982.08
595.05	1974.81
595.40	1967.57
595.75	1960.26
596.10	1954.08
596.45	1947.29
596.80	1941.19
597.15	1934.40
597.50	1927.12
597.85	1920.70
598.19	1914.02
598.54	1906.85
598.89	1900.29
599.24	1894.41
599.59	1887.66
599.94	1881.56
600.29	1875.22
600.64	1868.75
600.99	1861.20
601.34	1854.39
601.69	1847.41
602.04	1840.37
602.39	1833.00
602.74	1826.07
603.08	1819.26
603.43	1812.46
603.78	1805.13
604.13	1797.86
604.48	1790.62
604.83	1783.92
605.18	1776.92
605.53	1768.91
605.87	1761.01
606.22	1753.75
606.57	1745.62
606.92	1738.17
607.27	1730.80
607.62	1723.93
607.96	1716.59
608.31	1710.01
608.66	1702.43
609.01	1694.87
609.36	1687.42
609.70	1679.53
610.05	1671.59
610.40	1663.88
610.75	1655.47
611.10	1647.85
611.44	1639.45
611.79	1631.39
612.14	1622.65
612.49	1613.53
612.83	1605.14
613.18	1596.97
613.53	1588.86
613.88	1580.36
614.22	1572.20
614.57	1563.58
614.92	1555.58
615.27	1548.00
615.61	1539.56
615.96	1531.54
616.31	1523.96
616.65	1516.59
617.00	1508.95
617.35	1501.35
617.70	1492.99
618.04	1484.66
618.39	1476.44
618.74	1468.78
619.08	1460.50
619.43	1452.86
619.78	1445.93
620.12	1438.63
620.47	1431.04
620.82	1422.86
621.16	1415.57
621.51	1407.96
621.85	1400.42
622.20	1391.77
622.55	1383.38
622.89	1375.61
623.24	1368.03
623.59	1360.70
623.93	1353.15
624.28	1345.94
624.62	1338.31
624.97	1331.19
625.32	1324.33
625.66	1317.20
626.01	1310.07
626.35	1302.59
626.70	1294.86
627.04	1287.03
627.39	1279.43
627.73	1272.00
628.08	1265.09
628.43	1257.66
628.77	1250.32
629.12	1242.71
629.46	1235.62
629.81	1228.36
630.15	1221.15
630.50	1213.70
630.84	1205.40
631.19	1197.54
631.53	1190.04
631.88	1182.46
632.22	1174.85
632.57	1167.55
632.91	1160.01
633.26	1152.57
633.60	1145.27
633.95	1138.23
634.29	1131.29
634.64	1124.53
634.98	1117.26
635.32	1110.11
635.67	1103.56
636.01	1096.87
636.36	1090.03
636.70	1083.45
637.05	1076.74
637.39	1070.12
637.73	1063.60
638.08	1057.76
638.42	1051.74
638.77	1045.28
639.11	1038.72
639.45	1032.34
639.80	1025.67
640.14	1019.27
640.49	1012.77
640.83	1006.49
641.17	1000.23
641.52	993.79
641.86	987.35
642.20	981.43
642.55	975.12
642.89	968.65
643.23	962.12
643.58	956.42
643.92	950.24
644.26	944.17
644.61	938.31
644.95	932.27
645.29	925.56
645.64	918.81
645.98	912.45
646.32	906.59
646.66	900.54
647.01	894.71
647.35	889.03
647.69	883.19
648.04	877.66
648.38	871.84
648.72	865.96
649.06	859.87
649.41	853.99
649.75	847.99
650.09	842.00
650.43	836.22
650.78	830.03
651.12	824.09
651.46	818.40
651.80	812.54
652.14	807.05
652.49	801.74
652.83	796.56
653.17	790.94
653.51	785.24
653.85	779.81
654.20	774.20
654.54	768.19
654.88	762.47
655.22	756.61
655.56	750.99
655.90	745.51
656.25	740.26
656.59	734.99
656.93	729.95
657.27	724.77
657.61	719.38
657.95	714.30
658.29	709.22
658.64	704.01
658.98	698.79
659.32	693.43
659.66	688.29
660.00	682.93
660.34	677.96
660.68	673.14
661.02	668.12
661.36	663.41
661.70	658.94
662.05	654.54
662.39	650.14
662.73	645.59
663.07	641.19
663.41	636.70
663.75	632.18
664.09	627.63
664.43	623.33
664.77	619.18
665.11	615.01
665.45	610.90
665.79	606.79
666.13	602.65
666.47	598.57
666.81	594.32
667.15	590.27
667.49	586.39
667.83	582.53
668.17	578.59
668.51	574.47
668.85	570.49
669.19	566.62
669.53	562.75
669.87	558.90
670.21	555.25
670.55	551.68
670.89	548.27
671.23	544.80
671.57	541.28
671.91	537.73
672.25	534.14
672.58	530.58
672.92	527.19
673.26	524.00
673.60	520.81
673.94	517.74
674.28	514.82
674.62	511.82
674.96	508.67
675.30	505.77
675.64	502.88
675.97	500.04
676.31	497.17
676.65	494.26
676.99	491.53
677.33	488.68
677.67	485.84
678.01	482.75
678.34	479.74
678.68	476.87
679.02	474.07
679.36	471.32
679.70	468.63
680.04	465.83
680.37	462.99
680.71	460.23
681.05	457.60
681.39	454.86
681.73	452.22
682.06	449.73
682.40	447.17
682.74	444.61
683.08	442.09
683.42	439.48
683.75	436.96
684.09	434.43
684.43	431.95
684.77	429.51
685.10	427.16
685.44	424.87
685.78	422.56
686.12	420.28
686.45	417.99
686.79	415.61
687.13	413.42
687.46	411.19
687.80	409.04
688.14	406.83
688.48	404.77
688.81	402.49
689.15	400.29
689.49	398.13
689.82	396.07
690.16	393.98
690.50	392.06
690.83	390.16
691.17	388.14
691.51	386.20
691.84	384.31
692.18	382.36
692.52	380.36
692.85	378.42
693.19	376.55
693.52	374.77
693.86	373.05
694.20	371.28
694.53	369.52
694.87	367.66
695.21	365.90
695.54	364.09
695.88	362.41
696.21	360.69
696.55	359.02
696.88	357.34
697.22	355.69
697.56	354.07
697.89	352.39
698.23	350.85
698.56	349.25
698.90	347.68
699.23	346.07
699.57	344.59
699.90	343.09
700.24	341.58
700.58	340.01
700.91	338.49
701.25	337.04
701.58	335.68
701.92	334.37
702.25	332.99
702.59	331.62
702.92	330.26
703.26	328.99
703.59	327.70
703.93	326.54
704.26	325.33
704.60	324.05
704.93	322.77
705.26	321.55
705.60	320.40
705.93	319.23
706.27	318.21
706.60	317.13
706.94	316.02
707.27	314.90
707.61	313.88
707.94	312.85
708.27	311.80
708.61	310.73
708.94	309.70
709.28	308.69
709.61	307.77
709.94	306.85
710.28	305.80
710.61	304.83
710.95	303.74
711.28	302.82
711.61	301.87
711.95	300.98
712.28	300.01
712.61	299.02
712.95	298.09
713.28	297.22
713.61	296.38
713.95	295.49
714.28	294.67
714.61	293.79
714.95	292.99
715.28	292.09
715.61	291.23
715.95	290.35
716.28	289.55
716.61	288.68
716.95	287.88
717.28	287.16
717.61	286.45
717.94	285.72
718.28	284.91
718.61	284.18
718.94	283.48
719.27	282.81
719.61	282.18
719.94	281.55
720.27	280.84
720.60	280.12
720.94	279.51
721.27	278.92
721.60	278.33
721.93	277.71
722.27	277.20
722.60	276.62
722.93	276.09
723.26	275.52
723.59	275.01
723.93	274.43
724.26	273.89
724.59	273.28
724.92	272.77
725.25	272.23
725.59	271.74
725.92	271.28
726.25	270.78
726.58	270.26
726.91	269.78
727.24	269.26
727.57	268.76
727.91	268.22
728.24	267.71
728.57	267.22
728.90	266.77
729.23	266.29
729.56	265.89
729.89	265.38
730.22	264.88
730.55	264.43
730.89	263.98
731.22	263.54
731.55	263.14
731.88	262.70
732.21	262.30
732.54	261.87
732.87	261.39
733.20	260.97
733.53	260.59
733.86	260.16
734.19	259.76
734.52	259.38
734.85	259.07
735.18	258.66
735.51	258.29
735.84	257.91
736.17	257.51
736.50	257.10
736.83	256.88
737.16	256.55
737.49	256.20
737.82	255.87
738.15	255.51
738.48	255.15
738.81	254.79
739.14	254.50
739.47	254.13
739.80	253.81
740.13	253.54
740.46	253.19
740.79	252.89
741.12	252.61
741.45	252.30
741.78	251.96
742.11	251.67
742.44	251.34
742.77	251.06
743.10	250.76
743.43	250.47
743.75	250.10
744.08	249.95
744.41	249.67
744.74	249.37
745.07	249.09
745.40	248.84
745.73	248.60
746.06	248.29
746.39	248.08
746.71	247.80
747.04	247.50
747.37	247.26
747.70	246.98
748.03	246.74
748.36	246.53
748.68	246.30
749.01	246.06
749.34	245.83
749.67	245.57
750.00	245.35
750.33	245.19
750.65	244.98
750.98	244.62
751.31	244.39
751.64	244.21
751.97	244.03
752.29	243.83
752.62	243.60
752.95	243.43
753.28	243.22
753.60	243.05
753.93	242.89
754.26	242.69
754.59	242.51
754.91	242.29
755.24	242.07
755.57	241.90
755.90	241.77
756.22	241.58
756.55	241.41
756.88	241.21
757.20	240.96
757.53	240.76
757.86	240.61
758.19	240.46
758.51	240.28
758.84	240.07
759.17	239.90
759.49	239.74
759.82	239.58
760.15	239.43
760.47	239.27
760.80	239.08
761.13	238.99
761.45	238.87
761.78	238.75
762.11	238.61
762.43	238.42
762.76	238.26
763.08	238.17
763.41	238.06
763.74	237.95
764.06	237.80
764.39	237.68
764.71	237.55
765.04	237.40
765.37	237.28
765.69	237.19
766.02	237.08
766.34	236.92
766.67	236.80
767.00	236.68
767.32	236.62
767.65	236.58
767.97	236.42
768.30	236.28
768.62	236.15
768.95	236.04
769.27	235.93
769.60	235.83
769.92	235.68
770.25	235.56
770.57	235.44
770.90	235.37
771.22	235.26
771.55	235.18
771.87	235.10
772.20	235.02
772.52	235.00
772.85	235.02
773.17	234.96
773.50	234.84
773.82	234.75
774.15	234.60
774.47	234.45
774.80	234.33
775.12	234.26
775.45	234.19
775.77	234.14
776.09	234.09
776.42	233.96
776.74	233.87
777.07	233.75
777.39	233.69
777.72	233.60
778.04	233.54
778.36	233.44
778.69	233.39
779.01	233.29
779.33	233.12
779.66	232.95
779.98	232.89
780.31	232.84
780.63	232.82
780.95	232.78
781.28	232.71
781.60	232.66
781.92	232.58
782.25	232.51
782.57	232.43
782.89	232.36
783.22	232.35
783.54	232.32
783.86	232.27
784.19	232.18
784.51	232.14
784.83	232.08
785.16	232.01
785.48	231.94
785.80	231.88
786.12	231.89
786.45	231.81
786.77	231.77
787.09	231.69
787.42	231.60
787.74	231.56
788.06	231.54
788.38	231.49
788.71	231.43
789.03	231.40
789.35	231.35
789.67	231.28
789.99	231.22
790.32	231.14
790.64	231.10
790.96	231.12
791.28	231.04
791.61	230.94
791.93	230.94
792.25	230.88
792.57	230.91
792.89	230.80
793.21	230.75
793.54	230.70
793.86	230.64
794.18	230.59
794.50	230.52
794.82	230.47
795.14	230.43
795.47	230.43
795.79	230.40
796.11	230.37
796.43	230.34
796.75	230.29
797.07	230.28
797.39	230.24
797.71	230.19
798.04	230.15
798.36	230.17
798.68	230.11
799.00	230.09
799.32	230.00
799.64	230.00
799.96	229.96
800.28	229.95
800.60	229.94
800.92	229.94
801.24	229.92
801.56	229.90
801.89	229.90
802.21	229.86
802.53	229.79
802.85	229.78
803.17	229.82
803.49	229.80
803.81	229.79
804.13	229.78
804.45	229.72
804.77	229.74
805.09	229.69
805.41	229.68
805.73	229.64
806.05	229.62
806.37	229.60
806.69	229.60
807.01	229.58
807.33	229.55
807.65	229.50
807.97	229.49
808.28	229.47
808.60	229.46
808.92	229.41
809.24	229.47
809.56	229.44
809.88	229.39
810.20	229.35
810.52	229.36
810.84	229.30
811.16	229.27
811.48	229.25
811.80	229.27
812.12	229.24
812.43	229.24
812.75	229.21
813.07	229.20
813.39	229.16
813.71	229.10
814.03	229.10
814.35	229.08
814.67	229.04
814.98	228.97
815.30	228.94
815.62	228.93
815.94	228.81
816.26	228.82
816.58	228.76
816.89	228.77
817.21	228.69
817.53	228.68
817.85	228.68
818.17	228.64
818.48	228.60
818.80	228.61
819.12	228.58
819.44	228.54
819.76	228.49
820.07	228.48
820.39	228.45
820.71	228.42
821.03	228.40
821.34	228.37
821.66	228.41
821.98	228.37
822.30	228.35
822.61	228.38
822.93	228.32
823.25	228.29
823.57	228.25
823.88	228.29
824.20	228.28
824.52	228.28
824.83	228.24
825.15	228.21
825.47	228.19
825.79	228.16
826.10	228.16
826.42	228.15
826.74	228.14
827.05	228.14
827.37	228.14
827.69	228.13
828.00	228.14
828.32	228.11
828.64	228.10
828.95	228.13
829.27	228.11
829.58	228.13
829.90	228.18
830.22	228.16
830.53	228.11
830.85	228.08
831.17	228.06
831.48	228.06
831.80	228.09
832.11	228.08
832.43	228.07
832.75	228.05
833.06	228.10
833.38	228.07
833.69	228.05
834.01	228.06
834.32	228.03
834.64	228.01
834.96	228.01
835.27	228.02
835.59	227.99
835.90	227.94
836.22	227.92
836.53	227.87
836.85	227.86
837.16	227.96
837.48	227.96
837.79	227.96
838.11	227.98
838.42	227.95
838.74	227.93
839.05	227.89
839.37	227.87
839.68	227.81
840.00	227.80
840.31	227.84
840.63	227.83
840.94	227.84
841.26	227.80
841.57	227.75
841.88	227.75
842.20	227.73
842.51	227.74
842.83	227.69
843.14	227.75
843.46	227.76
843.77	227.70
844.08	227.68
844.40	227.66
844.71	227.62
845.03	227.55
845.34	227.57
845.65	227.59
845.97	227.59
846.28	227.59
846.60	227.62
846.91	227.56
847.22	227.51
847.54	227.51
847.85	227.52
848.16	227.53
848.48	227.50
848.79	227.55
849.10	227.53
849.42	227.57
849.73	227.49
850.04	227.52
850.36	227.48
850.67	227.51
850.98	227.49
851.30	227.49
851.61	227.52
851.92	227.51
852.23	227.56
852.55	227.56
852.86	227.57
853.17	227.54
853.49	227.57
853.80	227.60
854.11	227.60
854.42	227.60
854.74	227.59
855.05	227.56
855.36	227.51
855.67	227.51
855.99	227.51
856.30	227.63
856.61	227.58
856.92	227.55
857.23	227.55
857.55	227.56
857.86	227.55
858.17	227.55
858.48	227.52
858.79	227.45
859.11	227.42
859.42	227.41
859.73	227.41
860.04	227.42
860.35	227.40
860.66	227.39
860.98	227.39
861.29	227.39
861.60	227.40
861.91	227.41
862.22	227.40
862.53	227.37
862.84	227.26
863.16	227.29
863.47	227.26
863.78	227.24
864.09	227.26
864.40	227.24
864.71	227.24
865.02	227.25
865.33	227.25
865.64	227.26
865.95	227.26
866.27	227.30
866.58	227.29
866.89	227.31
867.20	227.28
867.51	227.25
867.82	227.25
868.13	227.28
868.44	227.24
868.75	227.27
869.06	227.28
869.37	227.27
869.68	227.24
869.99	227.29
870.30	227.30
870.61	227.31
870.92	227.33
871.23	227.32
871.54	227.33
871.85	227.39
872.16	227.39
872.47	227.42
872.78	227.35
873.09	227.35
873.40	227.34
873.71	227.36
874.02	227.40
874.33	227.39
874.64	227.40
874.95	227.41
875.26	227.39
875.56	227.40
875.87	227.43
876.18	227.44
876.49	227.51
876.80	227.50
877.11	227.45
877.42	227.44
877.73	227.46
878.04	227.41
878.35	227.38
878.66	227.34
878.96	227.30
879.27	227.30
879.58	227.28
879.89	227.27
880.20	227.28
880.51	227.31
880.82	227.30
881.12	227.27
881.43	227.27
881.74	227.26
882.05	227.23
882.36	227.21
882.67	227.19
882.97	227.08
883.28	227.08
883.59	227.08
883.90	227.09
884.21	227.08
884.51	227.10
884.82	227.11
885.13	227.12
885.44	227.13
885.74	227.14
886.05	227.13
886.36	227.11
886.67	227.06
886.98	227.04
887.28	227.05
887.59	227.03
887.90	227.03
888.20	227.02
888.51	227.05
888.82	227.04
889.13	227.02
889.43	227.11
889.74	227.10
890.05	227.13
890.35	227.11
890.66	227.10
890.97	227.09
891.28	227.07
891.58	227.09
891.89	227.09
892.20	227.06
892.50	227.07
892.81	227.06
893.12	227.11
893.42	227.08
893.73	227.06
894.04	227.07
894.34	227.07
894.65	227.08
894.95	227.02
895.26	227.01
895.57	227.08
895.87	226.97
896.18	226.95
896.48	226.92
896.79	226.94
897.10	226.92
897.40	226.92
897.71	226.93
898.01	226.88
898.32	226.89
898.63	226.88
898.93	226.90
899.24	226.90
899.54	226.89
899.85	226.90
900.15	226.89
900.46	226.90
900.76	226.93
901.07	226.93
901.38	226.97
901.68	226.99
901.99	226.92
902.29	226.92
902.60	226.96
902.90	226.93
903.21	226.92
903.51	226.94
903.82	226.96
904.12	226.95
904.43	226.97
904.73	226.96
905.03	226.97
905.34	227.03
905.64	227.03
905.95	227.03
906.25	226.98
906.56	226.98
906.86	226.97
907.17	226.93
907.47	226.92
907.77	226.93
908.08	226.91
908.38	226.93
908.69	226.95
908.99	226.96
909.30	226.98
909.60	226.98
909.90	226.99
910.21	226.94
910.51	226.94
910.81	226.95
911.12	226.93
911.42	226.94
911.73	226.84
912.03	226.86
912.33	226.86
912.64	226.87
912.94	226.87
913.24	226.86
913.55	226.84
913.85	226.85
914.15	226.86
914.46	226.89
914.76	226.88
915.06	226.86
915.37	226.82
915.67	226.81
915.97	226.81
916.27	226.79
916.58	226.77
916.88	226.78
917.18	226.78
917.49	226.86
917.79	226.88
918.09	226.91
918.39	226.89
918.70	226.89
919.00	226.90
919.30	226.95
919.60	226.95
919.91	226.95
920.21	226.97
920.51	226.94
920.81	226.91
921.12	226.92
921.42	226.95
921.72	226.99
922.02	227.02
922.32	227.01
922.63	227.03
922.93	227.11
923.23	227.12
923.53	227.12
923.83	227.08
924.13	227.06
924.44	227.05
924.74	227.11
925.04	227.12
925.34	227.10
925.64	227.07
925.94	227.06
926.24	227.13
926.55	227.12
926.85	227.12
927.15	227.15
927.45	227.14
927.75	227.12
928.05	227.10
928.35	227.11
928.65	227.13
928.95	227.15
929.26	227.11
929.56	227.12
929.86	227.13
930.16	227.11
930.46	227.12
930.76	227.11
931.06	227.04
931.36	227.02
931.66	227.07
931.96	227.05
932.26	227.06
932.56	226.99
932.86	227.01
933.16	227.02
933.46	226.98
933.76	226.98
934.06	226.99
934.36	227.00
934.66	226.96
934.96	226.93
935.26	226.90
935.56	226.89
935.86	226.86
936.16	226.82
936.46	226.81
936.76	226.80
937.06	226.77
937.36	226.79
937.66	226.79
937.96	226.78
938.26	226.77
938.56	226.79
938.86	226.82
939.16	226.82
939.46	226.82
939.76	226.83
940.06	226.84
940.35	226.81
940.65	226.77
940.95	226.80
941.25	226.80
941.55	226.79
941.85	226.78
942.15	226.83
942.45	226.84
942.75	226.85
943.04	226.84
943.34	226.89
943.64	226.87
943.94	226.86
944.24	226.83
944.54	226.86
944.84	226.82
945.13	226.82
945.43	226.81
945.73	226.82
946.03	226.81
946.33	226.81
946.62	226.81
946.92	226.84
947.22	226.83
947.52	226.84
947.82	226.84
948.11	226.85
948.41	226.83
948.71	226.82
949.01	226.81
949.31	226.81
949.60	226.78
949.90	226.78
950.20	226.80
950.50	226.82
950.79	226.84
951.09	226.88
951.39	226.87
951.69	226.84
951.98	226.84
952.28	226.86
952.58	226.87
952.87	226.88
953.17	226.89
953.47	226.91
953.76	226.90
954.06	226.95
954.36	226.94
954.66	226.92
954.95	226.97
955.25	226.99
955.55	226.99
955.84	226.97
956.14	227.01
956.44	227.00
956.73	226.99
957.03	227.00
957.32	226.98
957.62	226.97
957.92	227.02
958.21	227.02
958.51	227.11
958.81	227.08
959.10	227.09
959.40	227.09
959.69	227.04
959.99	227.05
960.29	227.02
960.58	227.02
960.88	227.07
961.17	227.05
961.47	227.05
961.76	227.04
962.06	227.07
962.36	227.03
962.65	227.04
962.95	227.05
963.24	227.02
963.54	227.03
963.83	227.01
964.13	226.99
964.42	226.96
964.72	226.86
965.01	226.89
965.31	226.84
965.60	226.85
965.90	226.94
966.19	226.93
966.49	226.94
966.78	226.92
967.08	226.91
967.37	226.92
967.67	226.90
967.96	226.91
968.26	226.90
968.55	226.92
968.85	226.89
969.14	226.88
969.43	226.87
969.73	226.85
970.02	226.85
970.32	226.86
970.61	226.86
970.91	226.86
971.20	226.84
971.49	226.85
971.79	226.85
972.08	226.77
972.38	226.76
972.67	226.73
972.96	226.76
973.26	226.71
973.55	226.72
973.85	226.72
974.14	226.72
974.43	226.72
974.73	226.70
975.02	226.72
975.31	226.71
975.61	226.69
975.90	226.67
976.19	226.70
976.49	226.68
976.78	226.66
977.07	226.65
977.37	226.66
977.66	226.64
977.95	226.60
978.24	226.60
978.54	226.64
978.83	226.64
979.12	226.61
979.42	226.60
979.71	226.57
980.00	226.59
980.29	226.61
980.59	226.59
980.88	226.60
981.17	226.61
981.46	226.59
981.76	226.60
982.05	226.65
982.34	226.64
982.63	226.62
982.93	226.64
983.22	226.66
983.51	226.68
983.80	226.71
984.09	226.73
984.39	226.75
984.68	226.72
984.97	226.71
985.26	226.73
985.55	226.75
985.85	226.76
986.14	226.76
986.43	226.77
986.72	226.76
987.01	226.74
987.30	226.72
987.59	226.74
987.89	226.77
988.18	226.75
988.47	226.71
988.76	226.78
989.05	226.77
989.34	226.75
989.63	226.77
989.92	226.80
990.22	226.79
990.51	226.79
990.80	226.79
991.09	226.81
991.38	226.81
991.67	226.79
991.96	226.75
992.25	226.78
992.54	226.70
992.83	226.72
993.12	226.72
993.41	226.78
993.70	226.84
993.99	226.88
994.28	226.87
994.58	226.93
994.87	226.88
995.16	226.90
995.45	226.90
995.74	226.86
996.03	226.85
996.32	226.86
996.61	226.88
996.90	226.90
997.19	226.88
997.48	226.88
997.77	226.90
998.06	226.97
998.34	226.95
998.63	227.00
998.92	226.98
999.21	227.00
999.50	226.99
999.79	226.95
1000.08	226.90
1000.37	226.91
1000.66	226.90
1000.95	226.92
1001.24	226.89
1001.53	226.89
1001.82	226.89
1002.11	226.88
1002.40	226.86
1002.68	226.91
1002.97	226.94
1003.26	226.92
1003.55	226.92
1003.84	226.92
1004.13	226.89
1004.42	226.88
1004.71	226.88
1004.99	226.87
1005.28	226.87
1005.57	226.82
1005.86	226.75
1006.15	226.75
1006.44	226.75
1006.72	226.73
1007.01	226.71
1007.30	226.73
1007.59	226.71
1007.88	226.68
1008.17	226.66
1008.45	226.68
1008.74	226.61
1009.03	226.54
1009.32	226.54
1009.60	226.52
1009.89	226.47
1010.18	226.46
1010.47	226.45
1010.76	226.40
1011.04	226.40
1011.33	226.39
1011.62	226.42
1011.91	226.44
1012.19	226.47
1012.48	226.43
1012.77	226.42
1013.05	226.46
1013.34	226.45
1013.63	226.46
1013.92	226.45
1014.20	226.44
1014.49	226.43
1014.78	226.47
1015.06	226.44
1015.35	226.51
1015.64	226.51
1015.92	226.55
1016.21	226.56
1016.50	226.55
1016.78	226.57
1017.07	226.60
1017.36	226.62
1017.64	226.60
1017.93	226.63
1018.22	226.60
1018.50	226.64
1018.79	226.65
1019.08	226.59
1019.36	226.62
1019.65	226.60
1019.93	226.68
1020.22	226.72
1020.51	226.78
1020.79	226.74
1021.08	226.43
1021.36	226.93
1021.65	226.53
1021.94	226.39
1022.22	227.03
1022.51	226.26
1022.79	227.66
1023.08	226.93
1023.36	227.88
1023.65	226.44
>>>>>End Processed Spectral Data<<<<<
