SpectraSuite Data File
++++++++++++++++++++++++++++++++++++
Date: Fri Feb 01 15:30:04 EST 2013
User: group
Dark Spectrum Present: No
Reference Spectrum Present: No
Number of Sampled Component Spectra: 1
Spectrometers: USB2E7196
Integration Time (usec): 35000 (USB2E7196)
Spectra Averaged: 100 (USB2E7196)
Boxcar Smoothing: 10 (USB2E7196)
Correct for Electrical Dark: No (USB2E7196)
Strobe/Lamp Enabled: No (USB2E7196)
Correct for Detector Non-linearity: No (USB2E7196)
Correct for Stray Light: No (USB2E7196)
Number of Pixels in Processed Spectrum: 2048
>>>>>Begin Processed Spectral Data<<<<<
339.09	0.00
339.48	215.66
339.86	216.89
340.24	218.10
340.63	219.51
341.01	222.24
341.39	221.70
341.78	224.36
342.16	225.08
342.54	225.16
342.93	213.63
343.31	224.42
343.69	224.98
344.07	225.43
344.46	225.86
344.84	226.24
345.22	226.47
345.60	226.74
345.99	226.89
346.37	227.00
346.75	227.09
347.13	227.13
347.52	227.20
347.90	227.26
348.28	227.29
348.66	227.32
349.05	227.30
349.43	227.31
349.81	227.33
350.19	227.35
350.57	227.39
350.96	227.48
351.34	227.54
351.72	227.58
352.10	227.66
352.48	227.71
352.87	227.71
353.25	227.79
353.63	227.84
354.01	227.87
354.39	227.94
354.77	227.99
355.15	228.09
355.54	228.15
355.92	228.18
356.30	228.24
356.68	228.37
357.06	228.43
357.44	228.50
357.82	228.58
358.20	228.63
358.58	228.70
358.97	228.74
359.35	228.81
359.73	228.89
360.11	228.91
360.49	228.95
360.87	229.04
361.25	229.08
361.63	229.15
362.01	229.17
362.39	229.22
362.77	229.29
363.15	229.32
363.53	229.36
363.91	229.38
364.29	229.39
364.67	229.31
365.05	229.34
365.43	229.37
365.81	229.39
366.19	229.43
366.57	229.44
366.95	229.44
367.33	229.44
367.71	229.41
368.09	229.45
368.47	229.45
368.85	229.44
369.23	229.42
369.61	229.39
369.99	229.45
370.37	229.41
370.75	229.40
371.13	229.33
371.51	229.24
371.89	229.22
372.27	229.20
372.65	229.17
373.03	229.12
373.41	229.03
373.78	228.98
374.16	228.89
374.54	228.81
374.92	228.72
375.30	228.63
375.68	228.56
376.06	228.49
376.44	228.41
376.82	228.34
377.19	228.26
377.57	228.15
377.95	228.01
378.33	227.92
378.71	227.81
379.09	227.77
379.47	227.72
379.84	227.63
380.22	227.54
380.60	227.44
380.98	227.38
381.36	227.32
381.73	227.24
382.11	227.18
382.49	227.14
382.87	227.11
383.25	227.08
383.62	227.13
384.00	227.05
384.38	227.01
384.76	226.98
385.13	226.96
385.51	226.93
385.89	226.88
386.27	226.84
386.64	226.82
387.02	226.75
387.40	226.69
387.78	226.65
388.15	226.64
388.53	226.60
388.91	226.57
389.29	226.55
389.66	226.56
390.04	226.53
390.42	226.54
390.79	226.53
391.17	226.48
391.55	226.38
391.92	226.40
392.30	226.41
392.68	226.37
393.05	226.40
393.43	226.41
393.81	226.41
394.18	226.41
394.56	226.42
394.94	226.47
395.31	226.47
395.69	226.57
396.06	226.59
396.44	226.67
396.82	226.69
397.19	226.79
397.57	226.83
397.95	226.89
398.32	226.93
398.70	226.99
399.07	227.09
399.45	227.15
399.82	227.24
400.20	227.31
400.58	227.40
400.95	227.42
401.33	227.57
401.70	227.73
402.08	227.84
402.45	227.96
402.83	228.11
403.20	228.24
403.58	228.30
403.95	228.42
404.33	228.57
404.71	228.75
405.08	228.91
405.46	229.06
405.83	229.21
406.21	229.35
406.58	229.52
406.96	229.70
407.33	229.89
407.70	230.08
408.08	230.36
408.45	230.59
408.83	230.84
409.20	231.04
409.58	231.25
409.95	231.51
410.33	231.78
410.70	232.01
411.08	232.31
411.45	232.60
411.82	232.90
412.20	233.19
412.57	233.60
412.95	233.90
413.32	234.33
413.69	234.72
414.07	235.16
414.44	235.63
414.82	236.07
415.19	236.58
415.56	237.12
415.94	237.65
416.31	238.28
416.68	238.95
417.06	239.64
417.43	240.27
417.81	241.05
418.18	241.82
418.55	242.70
418.93	243.58
419.30	244.50
419.67	245.43
420.04	246.40
420.42	247.36
420.79	248.53
421.16	249.65
421.54	250.86
421.91	252.10
422.28	253.33
422.66	254.65
423.03	255.98
423.40	257.29
423.77	258.66
424.15	260.08
424.52	261.51
424.89	263.11
425.26	264.70
425.64	266.13
426.01	267.70
426.38	269.33
426.75	270.99
427.13	272.71
427.50	274.56
427.87	276.43
428.24	278.29
428.61	280.07
428.99	282.01
429.36	284.13
429.73	286.18
430.10	288.21
430.47	290.33
430.85	292.47
431.22	294.74
431.59	297.16
431.96	299.41
432.33	301.91
432.70	304.29
433.08	307.09
433.45	309.76
433.82	312.38
434.19	315.27
434.56	318.11
434.93	320.77
435.30	323.40
435.68	326.29
436.05	329.15
436.42	331.92
436.79	334.46
437.16	337.13
437.53	339.96
437.90	342.77
438.27	345.51
438.64	348.30
439.01	350.92
439.38	353.16
439.75	355.36
440.13	357.85
440.50	360.21
440.87	362.05
441.24	363.99
441.61	366.16
441.98	367.62
442.35	369.39
442.72	371.25
443.09	373.05
443.46	374.06
443.83	374.64
444.20	375.13
444.57	375.96
444.94	376.23
445.31	376.58
445.68	376.94
446.05	377.00
446.42	376.66
446.79	376.18
447.16	375.74
447.53	375.40
447.90	374.24
448.27	373.02
448.64	371.47
449.01	370.34
449.37	368.41
449.74	366.51
450.11	364.24
450.48	361.75
450.85	359.19
451.22	357.03
451.59	354.98
451.96	353.02
452.33	350.38
452.70	348.04
453.07	345.20
453.43	342.32
453.80	339.55
454.17	336.85
454.54	334.35
454.91	331.60
455.28	328.91
455.65	326.42
456.02	324.03
456.38	321.87
456.75	319.16
457.12	316.88
457.49	314.65
457.86	312.54
458.23	310.73
458.59	308.66
458.96	306.62
459.33	304.80
459.70	302.92
460.07	301.41
460.43	299.72
460.80	298.09
461.17	296.63
461.54	295.12
461.91	293.69
462.27	292.22
462.64	291.03
463.01	289.67
463.38	288.41
463.74	287.02
464.11	285.84
464.48	284.85
464.85	283.73
465.21	282.89
465.58	281.94
465.95	280.79
466.32	279.93
466.68	279.00
467.05	278.07
467.42	277.24
467.78	276.35
468.15	275.46
468.52	274.81
468.88	273.94
469.25	273.15
469.62	272.53
469.98	271.85
470.35	271.15
470.72	270.57
471.08	269.91
471.45	269.37
471.82	268.80
472.18	268.17
472.55	267.73
472.92	267.22
473.28	266.75
473.65	266.34
474.02	265.90
474.38	265.55
474.75	265.25
475.11	264.88
475.48	264.62
475.85	264.40
476.21	264.14
476.58	263.94
476.94	263.77
477.31	263.59
477.67	263.42
478.04	263.30
478.41	263.25
478.77	263.28
479.14	263.20
479.50	263.21
479.87	263.30
480.23	263.36
480.60	263.41
480.96	263.50
481.33	263.68
481.69	263.83
482.06	264.01
482.42	264.23
482.79	264.52
483.15	264.80
483.52	265.14
483.88	265.44
484.25	265.84
484.61	266.28
484.98	266.71
485.34	267.30
485.71	267.90
486.07	268.48
486.44	269.01
486.80	269.72
487.17	270.49
487.53	271.28
487.90	272.17
488.26	273.10
488.62	274.07
488.99	275.04
489.35	276.12
489.72	277.24
490.08	278.40
490.44	279.63
490.81	280.96
491.17	282.32
491.54	283.85
491.90	285.35
492.26	287.02
492.63	288.78
492.99	290.54
493.36	292.40
493.72	294.47
494.08	296.62
494.45	298.86
494.81	301.21
495.17	303.63
495.54	306.16
495.90	308.86
496.26	311.66
496.63	314.65
496.99	317.75
497.35	321.00
497.72	324.38
498.08	327.86
498.44	331.51
498.80	335.38
499.17	339.43
499.53	343.61
499.89	348.02
500.26	352.52
500.62	357.19
500.98	362.18
501.34	367.23
501.71	372.55
502.07	378.03
502.43	383.63
502.79	389.52
503.16	395.59
503.52	401.92
503.88	408.35
504.24	414.99
504.60	421.88
504.97	429.02
505.33	436.36
505.69	444.11
506.05	451.97
506.41	459.90
506.78	468.06
507.14	476.60
507.50	485.24
507.86	494.29
508.22	503.56
508.59	512.80
508.95	522.36
509.31	532.22
509.67	542.30
510.03	552.63
510.39	563.17
510.75	574.03
511.12	584.93
511.48	596.22
511.84	607.68
512.20	619.17
512.56	631.15
512.92	643.37
513.28	655.66
513.64	668.15
514.00	680.92
514.37	693.86
514.73	706.91
515.09	720.00
515.45	733.27
515.81	746.84
516.17	760.79
516.53	774.92
516.89	789.07
517.25	803.32
517.61	817.81
517.97	832.32
518.33	846.85
518.69	861.66
519.05	876.67
519.41	891.75
519.77	907.43
520.13	922.91
520.49	938.28
520.85	953.78
521.21	969.45
521.57	985.73
521.93	1001.61
522.29	1018.08
522.65	1034.31
523.01	1050.59
523.37	1066.66
523.73	1082.98
524.09	1099.13
524.45	1115.54
524.81	1132.16
525.17	1149.02
525.53	1165.97
525.89	1182.77
526.25	1199.63
526.61	1216.11
526.97	1233.07
527.33	1249.49
527.68	1266.16
528.04	1282.73
528.40	1299.40
528.76	1316.53
529.12	1333.16
529.48	1350.08
529.84	1366.12
530.20	1382.85
530.56	1399.97
530.91	1417.42
531.27	1434.13
531.63	1450.73
531.99	1467.43
532.35	1483.51
532.71	1499.30
533.07	1515.56
533.42	1531.49
533.78	1547.63
534.14	1563.89
534.50	1579.21
534.86	1595.26
535.21	1610.54
535.57	1626.64
535.93	1642.21
536.29	1657.01
536.65	1672.08
537.00	1686.87
537.36	1702.23
537.72	1716.85
538.08	1731.18
538.44	1745.01
538.79	1759.02
539.15	1772.66
539.51	1786.40
539.87	1800.85
540.22	1814.79
540.58	1828.67
540.94	1842.17
541.29	1855.13
541.65	1867.97
542.01	1881.37
542.37	1893.65
542.72	1906.06
543.08	1917.78
543.44	1930.22
543.79	1941.61
544.15	1952.72
544.51	1964.21
544.87	1975.25
545.22	1986.09
545.58	1996.45
545.94	2006.26
546.29	2016.16
546.65	2026.14
547.01	2035.39
547.36	2044.12
547.72	2052.57
548.07	2060.42
548.43	2068.63
548.79	2076.54
549.14	2084.01
549.50	2091.29
549.86	2099.05
550.21	2106.35
550.57	2113.62
550.92	2120.20
551.28	2127.19
551.64	2134.24
551.99	2140.92
552.35	2147.10
552.70	2153.08
553.06	2159.04
553.41	2165.44
553.77	2171.48
554.13	2177.40
554.48	2183.44
554.84	2188.86
555.19	2194.22
555.55	2199.43
555.90	2203.87
556.26	2208.83
556.61	2213.70
556.97	2217.96
557.32	2222.14
557.68	2226.31
558.03	2230.48
558.39	2234.22
558.74	2238.97
559.10	2242.82
559.45	2246.36
559.81	2250.56
560.16	2254.61
560.52	2257.91
560.87	2261.38
561.23	2263.86
561.58	2266.97
561.94	2269.55
562.29	2272.00
562.64	2274.64
563.00	2277.22
563.35	2280.72
563.71	2283.87
564.06	2286.96
564.42	2289.70
564.77	2292.08
565.12	2294.27
565.48	2296.18
565.83	2297.90
566.19	2299.03
566.54	2300.12
566.89	2301.31
567.25	2301.96
567.60	2303.14
567.96	2304.84
568.31	2305.56
568.66	2306.80
569.02	2307.37
569.37	2307.66
569.72	2308.43
570.08	2308.43
570.43	2308.48
570.78	2307.76
571.14	2306.15
571.49	2304.82
571.84	2304.58
572.20	2303.42
572.55	2302.43
572.90	2300.81
573.26	2299.44
573.61	2297.90
573.96	2295.89
574.31	2292.82
574.67	2289.66
575.02	2286.10
575.37	2282.58
575.72	2278.73
576.08	2275.40
576.43	2272.00
576.78	2268.27
577.13	2265.12
577.49	2262.07
577.84	2258.48
578.19	2254.69
578.54	2250.91
578.90	2246.42
579.25	2240.84
579.60	2235.76
579.95	2230.69
580.30	2225.64
580.66	2220.30
581.01	2215.20
581.36	2210.15
581.71	2205.97
582.06	2201.46
582.42	2196.74
582.77	2191.38
583.12	2186.69
583.47	2181.76
583.82	2176.67
584.17	2171.31
584.53	2165.57
584.88	2159.75
585.23	2153.71
585.58	2148.24
585.93	2142.83
586.28	2138.22
586.63	2133.08
586.98	2127.99
587.34	2123.18
587.69	2118.23
588.04	2112.97
588.39	2107.08
588.74	2100.58
589.09	2094.34
589.44	2087.53
589.79	2081.51
590.14	2075.85
590.49	2069.27
590.84	2062.90
591.19	2056.81
591.54	2050.34
591.89	2042.80
592.25	2036.07
592.60	2028.96
592.95	2021.33
593.30	2013.91
593.65	2006.18
594.00	1999.05
594.35	1991.73
594.70	1983.57
595.05	1976.18
595.40	1968.91
595.75	1961.44
596.10	1955.28
596.45	1948.35
596.80	1942.05
597.15	1935.38
597.50	1928.26
597.85	1921.71
598.19	1914.96
598.54	1907.73
598.89	1901.07
599.24	1895.24
599.59	1888.35
599.94	1882.10
600.29	1875.77
600.64	1869.15
600.99	1861.69
601.34	1854.73
601.69	1847.72
602.04	1840.84
602.39	1833.64
602.74	1826.79
603.08	1820.15
603.43	1813.28
603.78	1806.08
604.13	1798.91
604.48	1791.66
604.83	1784.81
605.18	1777.92
605.53	1769.99
605.87	1761.96
606.22	1754.68
606.57	1746.65
606.92	1739.49
607.27	1732.21
607.62	1725.21
607.96	1717.94
608.31	1711.32
608.66	1703.71
609.01	1696.16
609.36	1688.67
609.70	1680.52
610.05	1672.37
610.40	1664.54
610.75	1656.21
611.10	1648.47
611.44	1640.06
611.79	1632.03
612.14	1623.26
612.49	1614.09
612.83	1605.48
613.18	1597.37
613.53	1589.30
613.88	1580.80
614.22	1572.43
614.57	1563.83
614.92	1555.75
615.27	1548.18
615.61	1539.78
615.96	1531.79
616.31	1524.10
616.65	1516.66
617.00	1509.07
617.35	1501.34
617.70	1493.00
618.04	1484.47
618.39	1476.14
618.74	1468.51
619.08	1460.15
619.43	1452.52
619.78	1445.63
620.12	1438.62
620.47	1431.01
620.82	1422.76
621.16	1415.36
621.51	1407.80
621.85	1400.20
622.20	1391.62
622.55	1383.14
622.89	1375.23
623.24	1367.56
623.59	1360.22
623.93	1352.68
624.28	1345.43
624.62	1337.97
624.97	1330.73
625.32	1324.08
625.66	1317.08
626.01	1309.87
626.35	1302.43
626.70	1294.68
627.04	1286.85
627.39	1278.93
627.73	1271.56
628.08	1264.71
628.43	1257.36
628.77	1249.83
629.12	1242.18
629.46	1235.03
629.81	1227.68
630.15	1220.42
630.50	1213.00
630.84	1204.78
631.19	1196.83
631.53	1189.36
631.88	1181.80
632.22	1174.23
632.57	1166.84
632.91	1159.37
633.26	1151.95
633.60	1144.65
633.95	1137.66
634.29	1130.65
634.64	1124.09
634.98	1116.74
635.32	1109.58
635.67	1103.00
636.01	1096.45
636.36	1089.74
636.70	1083.26
637.05	1076.67
637.39	1070.26
637.73	1063.78
638.08	1057.95
638.42	1051.93
638.77	1045.44
639.11	1038.87
639.45	1032.53
639.80	1025.88
640.14	1019.45
640.49	1012.93
640.83	1006.63
641.17	1000.32
641.52	993.92
641.86	987.45
642.20	981.52
642.55	975.32
642.89	968.84
643.23	962.20
643.58	956.41
643.92	950.17
644.26	944.06
644.61	938.08
644.95	932.03
645.29	925.38
645.64	918.68
645.98	912.33
646.32	906.59
646.66	900.58
647.01	894.73
647.35	889.01
647.69	883.24
648.04	877.68
648.38	871.90
648.72	865.96
649.06	859.88
649.41	854.07
649.75	848.00
650.09	842.06
650.43	836.39
650.78	830.24
651.12	824.35
651.46	818.71
651.80	812.85
652.14	807.52
652.49	802.19
652.83	797.03
653.17	791.38
653.51	785.55
653.85	780.16
654.20	774.56
654.54	768.61
654.88	762.83
655.22	756.99
655.56	751.29
655.90	745.81
656.25	740.59
656.59	735.27
656.93	730.14
657.27	725.03
657.61	719.50
657.95	714.39
658.29	709.27
658.64	704.01
658.98	698.77
659.32	693.28
659.66	688.02
660.00	682.70
660.34	677.77
660.68	672.84
661.02	667.74
661.36	663.02
661.70	658.49
662.05	654.12
662.39	649.76
662.73	645.32
663.07	640.97
663.41	636.52
663.75	631.96
664.09	627.42
664.43	623.01
664.77	618.97
665.11	614.71
665.45	610.59
665.79	606.44
666.13	602.33
666.47	598.23
666.81	594.10
667.15	589.95
667.49	586.09
667.83	582.30
668.17	578.37
668.51	574.31
668.85	570.33
669.19	566.45
669.53	562.57
669.87	558.65
670.21	554.85
670.55	551.26
670.89	547.88
671.23	544.46
671.57	540.98
671.91	537.36
672.25	533.97
672.58	530.45
672.92	527.10
673.26	523.92
673.60	520.75
673.94	517.64
674.28	514.76
674.62	511.79
674.96	508.70
675.30	505.80
675.64	502.86
675.97	500.13
676.31	497.28
676.65	494.38
676.99	491.71
677.33	488.91
677.67	486.04
678.01	482.99
678.34	479.97
678.68	477.13
679.02	474.37
679.36	471.51
679.70	468.78
680.04	465.98
680.37	463.08
680.71	460.38
681.05	457.80
681.39	455.10
681.73	452.46
682.06	449.91
682.40	447.36
682.74	444.84
683.08	442.23
683.42	439.66
683.75	437.12
684.09	434.57
684.43	432.13
684.77	429.73
685.10	427.39
685.44	425.13
685.78	422.79
686.12	420.56
686.45	418.28
686.79	416.00
687.13	413.86
687.46	411.75
687.80	409.53
688.14	407.32
688.48	405.23
688.81	402.93
689.15	400.80
689.49	398.66
689.82	396.59
690.16	394.49
690.50	392.54
690.83	390.65
691.17	388.68
691.51	386.79
691.84	384.90
692.18	382.94
692.52	380.93
692.85	379.05
693.19	377.16
693.52	375.35
693.86	373.61
694.20	371.80
694.53	370.01
694.87	368.21
695.21	366.43
695.54	364.64
695.88	363.01
696.21	361.28
696.55	359.63
696.88	357.98
697.22	356.33
697.56	354.73
697.89	353.08
698.23	351.53
698.56	349.89
698.90	348.28
699.23	346.69
699.57	345.21
699.90	343.65
700.24	342.12
700.58	340.60
700.91	339.06
701.25	337.68
701.58	336.31
701.92	334.97
702.25	333.59
702.59	332.19
702.92	330.85
703.26	329.57
703.59	328.29
703.93	327.12
704.26	325.93
704.60	324.62
704.93	323.39
705.26	322.14
705.60	321.03
705.93	319.91
706.27	318.88
706.60	317.84
706.94	316.75
707.27	315.63
707.61	314.59
707.94	313.55
708.27	312.44
708.61	311.35
708.94	310.34
709.28	309.36
709.61	308.44
709.94	307.49
710.28	306.45
710.61	305.47
710.95	304.40
711.28	303.44
711.61	302.50
711.95	301.54
712.28	300.58
712.61	299.57
712.95	298.61
713.28	297.70
713.61	296.72
713.95	295.83
714.28	294.97
714.61	294.11
714.95	293.25
715.28	292.38
715.61	291.49
715.95	290.63
716.28	289.75
716.61	288.89
716.95	288.05
717.28	287.31
717.61	286.51
717.94	285.73
718.28	284.89
718.61	284.17
718.94	283.49
719.27	282.81
719.61	282.16
719.94	281.49
720.27	280.77
720.60	280.17
720.94	279.54
721.27	278.91
721.60	278.30
721.93	277.68
722.27	277.13
722.60	276.57
722.93	276.01
723.26	275.49
723.59	274.93
723.93	274.35
724.26	273.79
724.59	273.23
724.92	272.71
725.25	272.25
725.59	271.71
725.92	271.18
726.25	270.64
726.58	270.14
726.91	269.66
727.24	269.21
727.57	268.71
727.91	268.22
728.24	267.77
728.57	267.31
728.90	266.88
729.23	266.38
729.56	265.94
729.89	265.45
730.22	264.92
730.55	264.47
730.89	264.04
731.22	263.58
731.55	263.13
731.88	262.75
732.21	262.32
732.54	261.89
732.87	261.52
733.20	261.13
733.53	260.71
733.86	260.36
734.19	259.92
734.52	259.57
734.85	259.26
735.18	258.85
735.51	258.46
735.84	258.10
736.17	257.75
736.50	257.39
736.83	257.15
737.16	256.84
737.49	256.51
737.82	256.14
738.15	255.85
738.48	255.53
738.81	255.17
739.14	254.83
739.47	254.53
739.80	254.18
740.13	253.90
740.46	253.57
740.79	253.23
741.12	252.97
741.45	252.66
741.78	252.29
742.11	251.99
742.44	251.67
742.77	251.39
743.10	251.09
743.43	250.78
743.75	250.42
744.08	250.30
744.41	250.03
744.74	249.79
745.07	249.51
745.40	249.28
745.73	249.06
746.06	248.79
746.39	248.52
746.71	248.29
747.04	248.02
747.37	247.78
747.70	247.51
748.03	247.24
748.36	247.00
748.68	246.77
749.01	246.53
749.34	246.31
749.67	246.08
750.00	245.86
750.33	245.68
750.65	245.46
750.98	245.10
751.31	244.91
751.64	244.69
751.97	244.54
752.29	244.28
752.62	244.04
752.95	243.86
753.28	243.63
753.60	243.36
753.93	243.18
754.26	242.96
754.59	242.75
754.91	242.54
755.24	242.32
755.57	242.13
755.90	241.96
756.22	241.75
756.55	241.54
756.88	241.33
757.20	241.11
757.53	240.90
757.86	240.75
758.19	240.55
758.51	240.36
758.84	240.12
759.17	239.99
759.49	239.84
759.82	239.67
760.15	239.53
760.47	239.41
760.80	239.22
761.13	239.10
761.45	238.94
761.78	238.79
762.11	238.68
762.43	238.54
762.76	238.38
763.08	238.24
763.41	238.12
763.74	238.00
764.06	237.83
764.39	237.70
764.71	237.56
765.04	237.43
765.37	237.28
765.69	237.16
766.02	237.00
766.34	236.88
766.67	236.75
767.00	236.61
767.32	236.56
767.65	236.54
767.97	236.41
768.30	236.31
768.62	236.19
768.95	236.04
769.27	235.93
769.60	235.83
769.92	235.74
770.25	235.63
770.57	235.50
770.90	235.44
771.22	235.33
771.55	235.22
771.87	235.13
772.20	235.06
772.52	235.04
772.85	235.08
773.17	234.96
773.50	234.87
773.82	234.80
774.15	234.67
774.47	234.51
774.80	234.43
775.12	234.35
775.45	234.27
775.77	234.22
776.09	234.14
776.42	234.06
776.74	234.01
777.07	233.92
777.39	233.85
777.72	233.74
778.04	233.68
778.36	233.64
778.69	233.53
779.01	233.49
779.33	233.36
779.66	233.18
779.98	233.11
780.31	233.05
780.63	233.02
780.95	232.95
781.28	232.86
781.60	232.80
781.92	232.75
782.25	232.72
782.57	232.65
782.89	232.60
783.22	232.54
783.54	232.47
783.86	232.43
784.19	232.40
784.51	232.39
784.83	232.33
785.16	232.24
785.48	232.20
785.80	232.17
786.12	232.15
786.45	232.11
786.77	232.09
787.09	232.06
787.42	231.94
787.74	231.92
788.06	231.91
788.38	231.86
788.71	231.80
789.03	231.74
789.35	231.74
789.67	231.65
789.99	231.64
790.32	231.57
790.64	231.53
790.96	231.55
791.28	231.52
791.61	231.48
791.93	231.46
792.25	231.42
792.57	231.41
792.89	231.36
793.21	231.30
793.54	231.25
793.86	231.20
794.18	231.16
794.50	231.10
794.82	231.04
795.14	231.00
795.47	230.97
795.79	230.96
796.11	230.87
796.43	230.85
796.75	230.80
797.07	230.75
797.39	230.72
797.71	230.59
798.04	230.52
798.36	230.48
798.68	230.43
799.00	230.39
799.32	230.29
799.64	230.26
799.96	230.22
800.28	230.15
800.60	230.11
800.92	230.09
801.24	230.03
801.56	230.02
801.89	230.00
802.21	229.97
802.53	229.92
802.85	229.90
803.17	229.91
803.49	229.87
803.81	229.86
804.13	229.82
804.45	229.81
804.77	229.80
805.09	229.75
805.41	229.73
805.73	229.69
806.05	229.68
806.37	229.63
806.69	229.60
807.01	229.60
807.33	229.55
807.65	229.50
807.97	229.52
808.28	229.47
808.60	229.43
808.92	229.39
809.24	229.42
809.56	229.39
809.88	229.28
810.20	229.24
810.52	229.23
810.84	229.19
811.16	229.18
811.48	229.13
811.80	229.14
812.12	229.11
812.43	229.09
812.75	229.07
813.07	229.01
813.39	229.02
813.71	228.97
814.03	228.95
814.35	228.95
814.67	228.90
814.98	228.87
815.30	228.85
815.62	228.83
815.94	228.76
816.26	228.77
816.58	228.78
816.89	228.77
817.21	228.73
817.53	228.71
817.85	228.65
818.17	228.63
818.48	228.60
818.80	228.59
819.12	228.59
819.44	228.59
819.76	228.60
820.07	228.61
820.39	228.61
820.71	228.62
821.03	228.60
821.34	228.59
821.66	228.57
821.98	228.57
822.30	228.55
822.61	228.59
822.93	228.54
823.25	228.51
823.57	228.50
823.88	228.49
824.20	228.52
824.52	228.53
824.83	228.53
825.15	228.52
825.47	228.49
825.79	228.51
826.10	228.48
826.42	228.44
826.74	228.41
827.05	228.41
827.37	228.39
827.69	228.38
828.00	228.37
828.32	228.39
828.64	228.34
828.95	228.39
829.27	228.35
829.58	228.35
829.90	228.40
830.22	228.39
830.53	228.39
830.85	228.35
831.17	228.31
831.48	228.33
831.80	228.32
832.11	228.30
832.43	228.27
832.75	228.26
833.06	228.35
833.38	228.31
833.69	228.31
834.01	228.30
834.32	228.29
834.64	228.28
834.96	228.27
835.27	228.31
835.59	228.26
835.90	228.26
836.22	228.25
836.53	228.21
836.85	228.23
837.16	228.32
837.48	228.32
837.79	228.36
838.11	228.33
838.42	228.34
838.74	228.37
839.05	228.34
839.37	228.35
839.68	228.28
840.00	228.28
840.31	228.29
840.63	228.26
840.94	228.23
841.26	228.22
841.57	228.19
841.88	228.17
842.20	228.13
842.51	228.10
842.83	228.06
843.14	228.13
843.46	228.07
843.77	227.99
844.08	227.97
844.40	227.89
844.71	227.86
845.03	227.85
845.34	227.81
845.65	227.81
845.97	227.76
846.28	227.74
846.60	227.75
846.91	227.68
847.22	227.64
847.54	227.68
847.85	227.68
848.16	227.70
848.48	227.69
848.79	227.71
849.10	227.69
849.42	227.72
849.73	227.64
850.04	227.65
850.36	227.60
850.67	227.58
850.98	227.62
851.30	227.62
851.61	227.62
851.92	227.63
852.23	227.64
852.55	227.66
852.86	227.65
853.17	227.62
853.49	227.66
853.80	227.70
854.11	227.69
854.42	227.71
854.74	227.70
855.05	227.67
855.36	227.69
855.67	227.71
855.99	227.70
856.30	227.78
856.61	227.78
856.92	227.82
857.23	227.83
857.55	227.79
857.86	227.81
858.17	227.79
858.48	227.78
858.79	227.76
859.11	227.77
859.42	227.80
859.73	227.82
860.04	227.83
860.35	227.79
860.66	227.78
860.98	227.75
861.29	227.75
861.60	227.73
861.91	227.71
862.22	227.70
862.53	227.66
862.84	227.59
863.16	227.61
863.47	227.56
863.78	227.55
864.09	227.57
864.40	227.57
864.71	227.58
865.02	227.56
865.33	227.58
865.64	227.60
865.95	227.56
866.27	227.63
866.58	227.66
866.89	227.71
867.20	227.69
867.51	227.69
867.82	227.66
868.13	227.70
868.44	227.69
868.75	227.71
869.06	227.72
869.37	227.72
869.68	227.69
869.99	227.73
870.30	227.76
870.61	227.77
870.92	227.77
871.23	227.76
871.54	227.79
871.85	227.82
872.16	227.79
872.47	227.81
872.78	227.74
873.09	227.71
873.40	227.67
873.71	227.67
874.02	227.71
874.33	227.72
874.64	227.72
874.95	227.75
875.26	227.70
875.56	227.70
875.87	227.68
876.18	227.68
876.49	227.74
876.80	227.72
877.11	227.69
877.42	227.69
877.73	227.69
878.04	227.70
878.35	227.67
878.66	227.69
878.96	227.66
879.27	227.63
879.58	227.62
879.89	227.61
880.20	227.64
880.51	227.62
880.82	227.62
881.12	227.60
881.43	227.56
881.74	227.54
882.05	227.56
882.36	227.58
882.67	227.59
882.97	227.51
883.28	227.50
883.59	227.50
883.90	227.51
884.21	227.54
884.51	227.51
884.82	227.48
885.13	227.46
885.44	227.47
885.74	227.49
886.05	227.45
886.36	227.45
886.67	227.41
886.98	227.46
887.28	227.44
887.59	227.45
887.90	227.45
888.20	227.48
888.51	227.50
888.82	227.49
889.13	227.51
889.43	227.62
889.74	227.62
890.05	227.63
890.35	227.60
890.66	227.58
890.97	227.54
891.28	227.54
891.58	227.55
891.89	227.57
892.20	227.52
892.50	227.50
892.81	227.49
893.12	227.48
893.42	227.42
893.73	227.42
894.04	227.41
894.34	227.40
894.65	227.39
894.95	227.36
895.26	227.34
895.57	227.35
895.87	227.23
896.18	227.22
896.48	227.24
896.79	227.24
897.10	227.23
897.40	227.25
897.71	227.26
898.01	227.23
898.32	227.21
898.63	227.21
898.93	227.23
899.24	227.25
899.54	227.25
899.85	227.28
900.15	227.27
900.46	227.26
900.76	227.25
901.07	227.24
901.38	227.24
901.68	227.24
901.99	227.21
902.29	227.21
902.60	227.21
902.90	227.17
903.21	227.18
903.51	227.16
903.82	227.16
904.12	227.15
904.43	227.18
904.73	227.16
905.03	227.19
905.34	227.29
905.64	227.28
905.95	227.27
906.25	227.27
906.56	227.30
906.86	227.31
907.17	227.35
907.47	227.36
907.77	227.38
908.08	227.36
908.38	227.37
908.69	227.39
908.99	227.43
909.30	227.42
909.60	227.38
909.90	227.40
910.21	227.36
910.51	227.38
910.81	227.40
911.12	227.42
911.42	227.41
911.73	227.32
912.03	227.31
912.33	227.35
912.64	227.30
912.94	227.30
913.24	227.30
913.55	227.28
913.85	227.26
914.15	227.29
914.46	227.30
914.76	227.29
915.06	227.27
915.37	227.21
915.67	227.23
915.97	227.28
916.27	227.25
916.58	227.29
916.88	227.30
917.18	227.28
917.49	227.34
917.79	227.36
918.09	227.37
918.39	227.41
918.70	227.41
919.00	227.46
919.30	227.50
919.60	227.49
919.91	227.48
920.21	227.51
920.51	227.49
920.81	227.49
921.12	227.52
921.42	227.53
921.72	227.55
922.02	227.57
922.32	227.57
922.63	227.60
922.93	227.64
923.23	227.63
923.53	227.61
923.83	227.55
924.13	227.54
924.44	227.53
924.74	227.53
925.04	227.56
925.34	227.52
925.64	227.48
925.94	227.47
926.24	227.54
926.55	227.51
926.85	227.50
927.15	227.54
927.45	227.54
927.75	227.49
928.05	227.52
928.35	227.49
928.65	227.47
928.95	227.44
929.26	227.42
929.56	227.43
929.86	227.45
930.16	227.46
930.46	227.48
930.76	227.47
931.06	227.41
931.36	227.34
931.66	227.36
931.96	227.33
932.26	227.33
932.56	227.25
932.86	227.27
933.16	227.27
933.46	227.25
933.76	227.23
934.06	227.26
934.36	227.27
934.66	227.27
934.96	227.27
935.26	227.31
935.56	227.27
935.86	227.24
936.16	227.22
936.46	227.21
936.76	227.22
937.06	227.22
937.36	227.24
937.66	227.26
937.96	227.25
938.26	227.26
938.56	227.25
938.86	227.26
939.16	227.27
939.46	227.26
939.76	227.21
940.06	227.16
940.35	227.15
940.65	227.08
940.95	227.09
941.25	227.09
941.55	227.08
941.85	227.12
942.15	227.13
942.45	227.16
942.75	227.11
943.04	227.07
943.34	227.12
943.64	227.10
943.94	227.07
944.24	227.07
944.54	227.10
944.84	227.09
945.13	227.09
945.43	227.06
945.73	227.05
946.03	227.07
946.33	227.09
946.62	227.09
946.92	227.12
947.22	227.07
947.52	227.06
947.82	227.08
948.11	227.02
948.41	226.99
948.71	226.95
949.01	226.99
949.31	226.97
949.60	226.93
949.90	226.96
950.20	226.97
950.50	226.98
950.79	226.96
951.09	226.99
951.39	227.00
951.69	227.00
951.98	227.02
952.28	227.03
952.58	227.05
952.87	227.02
953.17	227.04
953.47	227.06
953.76	227.08
954.06	227.05
954.36	227.05
954.66	227.06
954.95	227.11
955.25	227.09
955.55	227.12
955.84	227.11
956.14	227.12
956.44	227.14
956.73	227.13
957.03	227.14
957.32	227.11
957.62	227.10
957.92	227.11
958.21	227.12
958.51	227.24
958.81	227.20
959.10	227.25
959.40	227.24
959.69	227.27
959.99	227.27
960.29	227.26
960.58	227.27
960.88	227.31
961.17	227.31
961.47	227.31
961.76	227.32
962.06	227.33
962.36	227.31
962.65	227.28
962.95	227.30
963.24	227.27
963.54	227.30
963.83	227.30
964.13	227.29
964.42	227.25
964.72	227.17
965.01	227.20
965.31	227.17
965.60	227.15
965.90	227.19
966.19	227.16
966.49	227.19
966.78	227.19
967.08	227.15
967.37	227.14
967.67	227.14
967.96	227.12
968.26	227.14
968.55	227.14
968.85	227.16
969.14	227.11
969.43	227.12
969.73	227.09
970.02	227.10
970.32	227.10
970.61	227.08
970.91	227.06
971.20	227.04
971.49	227.02
971.79	227.05
972.08	227.02
972.38	227.03
972.67	227.02
972.96	227.02
973.26	227.02
973.55	227.00
973.85	227.01
974.14	227.01
974.43	227.00
974.73	227.00
975.02	227.00
975.31	227.02
975.61	227.02
975.90	227.02
976.19	226.98
976.49	226.98
976.78	227.01
977.07	226.98
977.37	226.98
977.66	227.00
977.95	226.98
978.24	226.96
978.54	226.97
978.83	226.96
979.12	226.95
979.42	226.96
979.71	226.96
980.00	226.94
980.29	226.94
980.59	226.90
980.88	226.93
981.17	226.90
981.46	226.93
981.76	226.94
982.05	226.96
982.34	226.97
982.63	226.98
982.93	226.97
983.22	227.00
983.51	227.03
983.80	227.03
984.09	227.04
984.39	227.02
984.68	227.02
984.97	227.04
985.26	227.03
985.55	227.02
985.85	227.01
986.14	227.04
986.43	227.04
986.72	227.08
987.01	227.05
987.30	227.07
987.59	227.04
987.89	227.04
988.18	227.04
988.47	227.06
988.76	227.07
989.05	227.07
989.34	227.07
989.63	227.10
989.92	227.09
990.22	227.10
990.51	227.11
990.80	227.09
991.09	227.09
991.38	227.13
991.67	227.11
991.96	227.12
992.25	227.12
992.54	227.10
992.83	227.07
993.12	227.06
993.41	227.09
993.70	227.13
993.99	227.15
994.28	227.14
994.58	227.14
994.87	227.11
995.16	227.09
995.45	227.08
995.74	227.04
996.03	227.04
996.32	227.05
996.61	227.07
996.90	227.07
997.19	227.10
997.48	227.10
997.77	227.09
998.06	227.10
998.34	227.08
998.63	227.10
998.92	227.10
999.21	227.12
999.50	227.10
999.79	227.09
1000.08	227.05
1000.37	227.05
1000.66	227.01
1000.95	227.04
1001.24	227.05
1001.53	227.07
1001.82	227.05
1002.11	227.06
1002.40	227.03
1002.68	227.00
1002.97	227.10
1003.26	227.04
1003.55	227.04
1003.84	227.04
1004.13	227.07
1004.42	227.06
1004.71	227.04
1004.99	227.04
1005.28	227.04
1005.57	227.04
1005.86	227.01
1006.15	227.03
1006.44	227.02
1006.72	227.05
1007.01	227.07
1007.30	227.06
1007.59	227.03
1007.88	227.02
1008.17	227.01
1008.45	227.02
1008.74	227.02
1009.03	226.95
1009.32	226.94
1009.60	226.93
1009.89	226.89
1010.18	226.83
1010.47	226.84
1010.76	226.85
1011.04	226.83
1011.33	226.85
1011.62	226.82
1011.91	226.82
1012.19	226.82
1012.48	226.81
1012.77	226.81
1013.05	226.80
1013.34	226.78
1013.63	226.79
1013.92	226.80
1014.20	226.81
1014.49	226.79
1014.78	226.81
1015.06	226.79
1015.35	226.78
1015.64	226.79
1015.92	226.83
1016.21	226.86
1016.50	226.84
1016.78	226.85
1017.07	226.86
1017.36	226.85
1017.64	226.82
1017.93	226.85
1018.22	226.83
1018.50	226.81
1018.79	226.79
1019.08	226.76
1019.36	226.81
1019.65	226.80
1019.93	226.81
1020.22	226.83
1020.51	226.87
1020.79	226.87
1021.08	226.50
1021.36	226.30
1021.65	226.77
1021.94	226.75
1022.22	227.42
1022.51	226.73
1022.79	227.08
1023.08	227.25
1023.36	227.55
1023.65	227.27
>>>>>End Processed Spectral Data<<<<<
