SpectraSuite Data File
++++++++++++++++++++++++++++++++++++
Date: Fri Feb 01 16:17:05 EST 2013
User: group
Dark Spectrum Present: No
Reference Spectrum Present: No
Number of Sampled Component Spectra: 1
Spectrometers: USB2E7196
Integration Time (usec): 35000 (USB2E7196)
Spectra Averaged: 100 (USB2E7196)
Boxcar Smoothing: 10 (USB2E7196)
Correct for Electrical Dark: No (USB2E7196)
Strobe/Lamp Enabled: No (USB2E7196)
Correct for Detector Non-linearity: No (USB2E7196)
Correct for Stray Light: No (USB2E7196)
Number of Pixels in Processed Spectrum: 2048
>>>>>Begin Processed Spectral Data<<<<<
339.09	0.00
339.48	214.22
339.86	215.58
340.24	217.06
340.63	218.67
341.01	221.24
341.39	220.56
341.78	222.45
342.16	223.75
342.54	223.87
342.93	212.44
343.31	223.17
343.69	223.71
344.07	224.15
344.46	224.55
344.84	224.90
345.22	225.13
345.60	225.39
345.99	225.56
346.37	225.68
346.75	225.77
347.13	225.80
347.52	225.87
347.90	225.95
348.28	226.00
348.66	226.03
349.05	226.07
349.43	226.09
349.81	226.14
350.19	226.20
350.57	226.26
350.96	226.31
351.34	226.40
351.72	226.49
352.10	226.62
352.48	226.69
352.87	226.77
353.25	226.84
353.63	226.92
354.01	226.98
354.39	227.07
354.77	227.16
355.15	227.30
355.54	227.34
355.92	227.35
356.30	227.40
356.68	227.53
357.06	227.59
357.44	227.69
357.82	227.78
358.20	227.85
358.58	227.92
358.97	227.99
359.35	228.07
359.73	228.12
360.11	228.16
360.49	228.23
360.87	228.27
361.25	228.33
361.63	228.42
362.01	228.47
362.39	228.49
362.77	228.54
363.15	228.54
363.53	228.58
363.91	228.62
364.29	228.65
364.67	228.53
365.05	228.55
365.43	228.58
365.81	228.58
366.19	228.61
366.57	228.64
366.95	228.63
367.33	228.59
367.71	228.58
368.09	228.60
368.47	228.58
368.85	228.59
369.23	228.57
369.61	228.47
369.99	228.51
370.37	228.50
370.75	228.51
371.13	228.50
371.51	228.47
371.89	228.43
372.27	228.44
372.65	228.46
373.03	228.41
373.41	228.32
373.78	228.30
374.16	228.21
374.54	228.12
374.92	228.02
375.30	227.95
375.68	227.89
376.06	227.82
376.44	227.75
376.82	227.64
377.19	227.57
377.57	227.56
377.95	227.44
378.33	227.34
378.71	227.19
379.09	227.08
379.47	227.04
379.84	226.95
380.22	226.85
380.60	226.74
380.98	226.67
381.36	226.64
381.73	226.53
382.11	226.46
382.49	226.39
382.87	226.37
383.25	226.31
383.62	226.38
384.00	226.30
384.38	226.26
384.76	226.26
385.13	226.21
385.51	226.11
385.89	226.04
386.27	225.99
386.64	226.00
387.02	225.97
387.40	225.90
387.78	225.87
388.15	225.80
388.53	225.74
388.91	225.66
389.29	225.61
389.66	225.59
390.04	225.53
390.42	225.53
390.79	225.49
391.17	225.45
391.55	225.30
391.92	225.29
392.30	225.29
392.68	225.26
393.05	225.27
393.43	225.28
393.81	225.29
394.18	225.31
394.56	225.31
394.94	225.33
395.31	225.33
395.69	225.41
396.06	225.47
396.44	225.54
396.82	225.57
397.19	225.64
397.57	225.68
397.95	225.75
398.32	225.79
398.70	225.86
399.07	225.94
399.45	226.01
399.82	226.07
400.20	226.11
400.58	226.18
400.95	226.22
401.33	226.30
401.70	226.45
402.08	226.53
402.45	226.63
402.83	226.76
403.20	226.90
403.58	226.98
403.95	227.09
404.33	227.24
404.71	227.38
405.08	227.59
405.46	227.72
405.83	227.92
406.21	228.08
406.58	228.21
406.96	228.40
407.33	228.58
407.70	228.81
408.08	229.08
408.45	229.32
408.83	229.54
409.20	229.76
409.58	229.96
409.95	230.20
410.33	230.51
410.70	230.73
411.08	231.04
411.45	231.34
411.82	231.68
412.20	232.00
412.57	232.43
412.95	232.70
413.32	233.12
413.69	233.46
414.07	233.92
414.44	234.40
414.82	234.88
415.19	235.42
415.56	235.93
415.94	236.50
416.31	237.12
416.68	237.77
417.06	238.50
417.43	239.21
417.81	239.99
418.18	240.75
418.55	241.58
418.93	242.41
419.30	243.29
419.67	244.20
420.04	245.19
420.42	246.13
420.79	247.31
421.16	248.47
421.54	249.69
421.91	250.90
422.28	252.15
422.66	253.48
423.03	254.81
423.40	256.17
423.77	257.56
424.15	258.97
424.52	260.46
424.89	262.07
425.26	263.59
425.64	265.04
426.01	266.65
426.38	268.29
426.75	269.99
427.13	271.73
427.50	273.56
427.87	275.43
428.24	277.32
428.61	279.07
428.99	280.98
429.36	283.09
429.73	285.12
430.10	287.17
430.47	289.20
430.85	291.30
431.22	293.47
431.59	295.84
431.96	298.06
432.33	300.52
432.70	302.91
433.08	305.69
433.45	308.32
433.82	310.92
434.19	313.84
434.56	316.61
434.93	319.23
435.30	321.83
435.68	324.68
436.05	327.47
436.42	330.24
436.79	332.76
437.16	335.45
437.53	338.25
437.90	341.03
438.27	343.72
438.64	346.56
439.01	349.12
439.38	351.33
439.75	353.50
440.13	355.96
440.50	358.29
440.87	360.17
441.24	362.11
441.61	364.18
441.98	365.62
442.35	367.41
442.72	369.25
443.09	371.02
443.46	372.07
443.83	372.68
444.20	373.20
444.57	373.97
444.94	374.23
445.31	374.56
445.68	374.89
446.05	375.03
446.42	374.65
446.79	374.27
447.16	373.82
447.53	373.51
447.90	372.33
448.27	371.11
448.64	369.51
449.01	368.36
449.37	366.42
449.74	364.55
450.11	362.32
450.48	359.90
450.85	357.41
451.22	355.26
451.59	353.25
451.96	351.29
452.33	348.76
452.70	346.43
453.07	343.64
453.43	340.74
453.80	337.94
454.17	335.26
454.54	332.72
454.91	330.04
455.28	327.33
455.65	324.90
456.02	322.45
456.38	320.32
456.75	317.65
457.12	315.47
457.49	313.25
457.86	311.11
458.23	309.23
458.59	307.17
458.96	305.08
459.33	303.22
459.70	301.40
460.07	299.91
460.43	298.22
460.80	296.60
461.17	295.19
461.54	293.74
461.91	292.34
462.27	290.93
462.64	289.69
463.01	288.36
463.38	287.06
463.74	285.74
464.11	284.60
464.48	283.59
464.85	282.48
465.21	281.62
465.58	280.73
465.95	279.69
466.32	278.79
466.68	277.91
467.05	277.02
467.42	276.11
467.78	275.15
468.15	274.28
468.52	273.66
468.88	272.83
469.25	272.05
469.62	271.42
469.98	270.75
470.35	270.11
470.72	269.55
471.08	268.91
471.45	268.41
471.82	267.88
472.18	267.32
472.55	266.85
472.92	266.36
473.28	265.89
473.65	265.44
474.02	265.01
474.38	264.65
474.75	264.33
475.11	264.01
475.48	263.77
475.85	263.54
476.21	263.26
476.58	263.07
476.94	262.93
477.31	262.75
477.67	262.59
478.04	262.50
478.41	262.44
478.77	262.52
479.14	262.44
479.50	262.44
479.87	262.50
480.23	262.62
480.60	262.66
480.96	262.72
481.33	262.92
481.69	263.10
482.06	263.27
482.42	263.47
482.79	263.67
483.15	263.99
483.52	264.35
483.88	264.72
484.25	265.06
484.61	265.48
484.98	265.89
485.34	266.42
485.71	266.99
486.07	267.59
486.44	268.14
486.80	268.82
487.17	269.52
487.53	270.30
487.90	271.13
488.26	272.04
488.62	273.04
488.99	273.98
489.35	275.02
489.72	276.13
490.08	277.31
490.44	278.58
490.81	279.90
491.17	281.23
491.54	282.69
491.90	284.24
492.26	285.91
492.63	287.64
492.99	289.44
493.36	291.31
493.72	293.38
494.08	295.44
494.45	297.64
494.81	300.03
495.17	302.47
495.54	305.02
495.90	307.70
496.26	310.49
496.63	313.47
496.99	316.61
497.35	319.88
497.72	323.32
498.08	326.83
498.44	330.50
498.80	334.42
499.17	338.48
499.53	342.66
499.89	346.98
500.26	351.55
500.62	356.23
500.98	361.27
501.34	366.36
501.71	371.72
502.07	377.25
502.43	382.88
502.79	388.66
503.16	394.75
503.52	401.06
503.88	407.51
504.24	414.18
504.60	421.09
504.97	428.26
505.33	435.57
505.69	443.28
506.05	451.11
506.41	458.98
506.78	467.19
507.14	475.67
507.50	484.43
507.86	493.48
508.22	502.74
508.59	511.93
508.95	521.47
509.31	531.32
509.67	541.41
510.03	551.70
510.39	562.30
510.75	573.13
511.12	584.02
511.48	595.31
511.84	606.78
512.20	618.28
512.56	630.29
512.92	642.51
513.28	654.88
513.64	667.41
514.00	680.18
514.37	693.13
514.73	706.22
515.09	719.32
515.45	732.58
515.81	746.14
516.17	760.14
516.53	774.33
516.89	788.48
517.25	802.70
517.61	817.14
517.97	831.62
518.33	846.09
518.69	860.93
519.05	875.87
519.41	891.00
519.77	906.54
520.13	921.92
520.49	937.30
520.85	952.68
521.21	968.30
521.57	984.53
521.93	1000.24
522.29	1016.57
522.65	1032.64
523.01	1048.75
523.37	1064.67
523.73	1080.77
524.09	1096.77
524.45	1113.04
524.81	1129.63
525.17	1146.39
525.53	1163.23
525.89	1180.11
526.25	1196.90
526.61	1213.32
526.97	1230.00
527.33	1246.40
527.68	1262.98
528.04	1279.36
528.40	1295.80
528.76	1312.78
529.12	1329.32
529.48	1346.13
529.84	1362.07
530.20	1378.77
530.56	1395.76
530.91	1413.24
531.27	1429.95
531.63	1446.32
531.99	1462.83
532.35	1478.67
532.71	1494.50
533.07	1510.58
533.42	1526.24
533.78	1542.16
534.14	1558.37
534.50	1573.62
534.86	1589.42
535.21	1604.54
535.57	1620.43
535.93	1635.94
536.29	1650.68
536.65	1665.55
537.00	1680.24
537.36	1695.45
537.72	1709.86
538.08	1724.26
538.44	1737.85
538.79	1751.65
539.15	1765.18
539.51	1778.83
539.87	1793.10
540.22	1806.70
540.58	1820.50
540.94	1833.83
541.29	1846.64
541.65	1859.21
542.01	1872.43
542.37	1884.58
542.72	1896.84
543.08	1908.52
543.44	1920.84
543.79	1932.00
544.15	1942.90
544.51	1954.40
544.87	1965.23
545.22	1976.01
545.58	1986.13
545.94	1995.97
546.29	2005.73
546.65	2015.77
547.01	2024.97
547.36	2033.64
547.72	2042.02
548.07	2049.75
548.43	2057.83
548.79	2065.80
549.14	2073.28
549.50	2080.43
549.86	2088.15
550.21	2095.48
550.57	2102.71
550.92	2109.25
551.28	2116.30
551.64	2123.42
551.99	2129.96
552.35	2136.24
552.70	2142.41
553.06	2148.48
553.41	2154.76
553.77	2160.81
554.13	2166.73
554.48	2172.93
554.84	2178.46
555.19	2183.70
555.55	2188.92
555.90	2193.34
556.26	2198.35
556.61	2203.08
556.97	2207.53
557.32	2211.59
557.68	2215.77
558.03	2219.97
558.39	2223.75
558.74	2228.42
559.10	2232.33
559.45	2235.95
559.81	2240.23
560.16	2244.07
560.52	2247.31
560.87	2250.76
561.23	2253.48
561.58	2256.51
561.94	2259.01
562.29	2261.36
562.64	2264.16
563.00	2266.85
563.35	2270.48
563.71	2273.48
564.06	2276.59
564.42	2279.51
564.77	2282.13
565.12	2284.43
565.48	2286.46
565.83	2288.35
566.19	2289.67
566.54	2290.51
566.89	2291.74
567.25	2292.43
567.60	2293.66
567.96	2295.32
568.31	2296.12
568.66	2297.24
569.02	2297.78
569.37	2298.15
569.72	2298.99
570.08	2299.14
570.43	2299.06
570.78	2298.56
571.14	2297.24
571.49	2295.95
571.84	2295.71
572.20	2294.59
572.55	2293.48
572.90	2291.84
573.26	2290.57
573.61	2288.78
573.96	2287.16
574.31	2284.22
574.67	2281.18
575.02	2277.61
575.37	2274.20
575.72	2270.48
576.08	2267.15
576.43	2263.88
576.78	2260.14
577.13	2257.09
577.49	2254.11
577.84	2250.76
578.19	2247.02
578.54	2243.43
578.90	2239.33
579.25	2233.75
579.60	2228.80
579.95	2223.91
580.30	2218.95
580.66	2213.69
581.01	2208.82
581.36	2203.78
581.71	2199.70
582.06	2195.28
582.42	2190.85
582.77	2185.62
583.12	2181.15
583.47	2176.31
583.82	2171.35
584.17	2166.23
584.53	2160.63
584.88	2154.96
585.23	2149.11
585.58	2143.72
585.93	2138.13
586.28	2133.34
586.63	2128.25
586.98	2123.29
587.34	2118.48
587.69	2113.66
588.04	2108.44
588.39	2102.87
588.74	2096.59
589.09	2090.37
589.44	2083.69
589.79	2077.72
590.14	2072.20
590.49	2065.56
590.84	2059.36
591.19	2053.40
591.54	2047.01
591.89	2039.89
592.25	2033.04
592.60	2025.90
592.95	2018.26
593.30	2011.04
593.65	2003.51
594.00	1996.40
594.35	1989.13
594.70	1981.17
595.05	1974.03
595.40	1966.76
595.75	1959.24
596.10	1953.10
596.45	1946.36
596.80	1940.18
597.15	1933.49
597.50	1926.35
597.85	1919.99
598.19	1913.40
598.54	1906.24
598.89	1899.45
599.24	1893.48
599.59	1886.90
599.94	1880.78
600.29	1874.49
600.64	1867.80
600.99	1860.33
601.34	1853.65
601.69	1846.78
602.04	1840.01
602.39	1832.59
602.74	1825.85
603.08	1819.23
603.43	1812.49
603.78	1805.20
604.13	1797.97
604.48	1790.82
604.83	1784.05
605.18	1777.15
605.53	1769.13
605.87	1761.21
606.22	1754.13
606.57	1746.13
606.92	1738.81
607.27	1731.66
607.62	1724.73
607.96	1717.62
608.31	1711.15
608.66	1703.49
609.01	1695.99
609.36	1688.47
609.70	1680.46
610.05	1672.43
610.40	1664.74
610.75	1656.37
611.10	1648.78
611.44	1640.45
611.79	1632.50
612.14	1623.77
612.49	1614.49
612.83	1606.15
613.18	1598.04
613.53	1589.97
613.88	1581.49
614.22	1573.30
614.57	1564.69
614.92	1556.66
615.27	1549.12
615.61	1540.70
615.96	1532.71
616.31	1524.99
616.65	1517.56
617.00	1510.07
617.35	1502.33
617.70	1493.98
618.04	1485.60
618.39	1477.30
618.74	1469.69
619.08	1461.31
619.43	1453.76
619.78	1446.90
620.12	1439.65
620.47	1432.07
620.82	1423.81
621.16	1416.36
621.51	1408.68
621.85	1401.05
622.20	1392.53
622.55	1384.08
622.89	1376.25
623.24	1368.60
623.59	1361.24
623.93	1353.71
624.28	1346.50
624.62	1339.03
624.97	1331.77
625.32	1324.91
625.66	1318.04
626.01	1310.85
626.35	1303.47
626.70	1295.67
627.04	1288.00
627.39	1280.25
627.73	1272.81
628.08	1265.98
628.43	1258.55
628.77	1251.14
629.12	1243.53
629.46	1236.42
629.81	1229.06
630.15	1221.92
630.50	1214.55
630.84	1206.22
631.19	1198.22
631.53	1190.57
631.88	1182.95
632.22	1175.38
632.57	1167.99
632.91	1160.24
633.26	1152.78
633.60	1145.31
633.95	1138.15
634.29	1130.96
634.64	1124.18
634.98	1116.82
635.32	1109.58
635.67	1103.04
636.01	1096.43
636.36	1089.60
636.70	1083.01
637.05	1076.40
637.39	1069.84
637.73	1063.32
638.08	1057.49
638.42	1051.60
638.77	1045.18
639.11	1038.63
639.45	1032.33
639.80	1025.72
640.14	1019.48
640.49	1013.00
640.83	1006.69
641.17	1000.56
641.52	994.24
641.86	987.83
642.20	981.98
642.55	975.66
642.89	969.21
643.23	962.59
643.58	956.88
643.92	950.72
644.26	944.62
644.61	938.62
644.95	932.60
645.29	925.95
645.64	919.17
645.98	912.87
646.32	907.01
646.66	900.83
647.01	895.04
647.35	889.24
647.69	883.38
648.04	877.86
648.38	871.95
648.72	866.03
649.06	860.08
649.41	854.26
649.75	848.33
650.09	842.51
650.43	836.82
650.78	830.67
651.12	824.70
651.46	818.97
651.80	813.20
652.14	807.84
652.49	802.50
652.83	797.36
653.17	791.71
653.51	785.94
653.85	780.59
654.20	774.94
654.54	768.89
654.88	763.11
655.22	757.30
655.56	751.70
655.90	746.25
656.25	740.97
656.59	735.50
656.93	730.42
657.27	725.19
657.61	719.74
657.95	714.60
658.29	709.47
658.64	704.23
658.98	698.92
659.32	693.40
659.66	688.22
660.00	682.90
660.34	677.92
660.68	673.04
661.02	668.01
661.36	663.29
661.70	658.80
662.05	654.48
662.39	650.07
662.73	645.61
663.07	641.16
663.41	636.63
663.75	632.19
664.09	627.63
664.43	623.22
664.77	619.08
665.11	614.84
665.45	610.73
665.79	606.66
666.13	602.50
666.47	598.39
666.81	594.20
667.15	590.06
667.49	586.06
667.83	582.21
668.17	578.25
668.51	574.13
668.85	570.08
669.19	566.22
669.53	562.38
669.87	558.48
670.21	554.78
670.55	551.12
670.89	547.66
671.23	544.20
671.57	540.69
671.91	537.11
672.25	533.57
672.58	530.09
672.92	526.66
673.26	523.52
673.60	520.36
673.94	517.25
674.28	514.34
674.62	511.44
674.96	508.35
675.30	505.43
675.64	502.53
675.97	499.79
676.31	496.87
676.65	493.92
676.99	491.21
677.33	488.38
677.67	485.59
678.01	482.55
678.34	479.59
678.68	476.67
679.02	473.89
679.36	471.16
679.70	468.39
680.04	465.53
680.37	462.64
680.71	459.81
681.05	457.17
681.39	454.40
681.73	451.74
682.06	449.20
682.40	446.65
682.74	444.10
683.08	441.53
683.42	438.93
683.75	436.45
684.09	433.89
684.43	431.39
684.77	428.89
685.10	426.54
685.44	424.24
685.78	421.93
686.12	419.65
686.45	417.33
686.79	415.04
687.13	412.95
687.46	410.80
687.80	408.72
688.14	406.52
688.48	404.52
688.81	402.30
689.15	400.16
689.49	398.00
689.82	395.94
690.16	393.80
690.50	391.87
690.83	389.93
691.17	387.98
691.51	386.11
691.84	384.32
692.18	382.41
692.52	380.44
692.85	378.54
693.19	376.70
693.52	374.84
693.86	373.04
694.20	371.22
694.53	369.39
694.87	367.51
695.21	365.70
695.54	363.86
695.88	362.15
696.21	360.48
696.55	358.82
696.88	357.12
697.22	355.50
697.56	353.87
697.89	352.24
698.23	350.67
698.56	349.04
698.90	347.44
699.23	345.79
699.57	344.25
699.90	342.70
700.24	341.16
700.58	339.70
700.91	338.21
701.25	336.78
701.58	335.42
701.92	334.03
702.25	332.72
702.59	331.32
702.92	329.97
703.26	328.61
703.59	327.32
703.93	326.11
704.26	324.89
704.60	323.60
704.93	322.30
705.26	321.01
705.60	319.81
705.93	318.63
706.27	317.60
706.60	316.52
706.94	315.42
707.27	314.29
707.61	313.17
707.94	312.12
708.27	311.00
708.61	309.89
708.94	308.85
709.28	307.84
709.61	306.85
709.94	305.89
710.28	304.87
710.61	303.86
710.95	302.87
711.28	301.93
711.61	300.95
711.95	300.05
712.28	299.10
712.61	298.11
712.95	297.17
713.28	296.26
713.61	295.37
713.95	294.52
714.28	293.71
714.61	292.86
714.95	291.97
715.28	291.14
715.61	290.30
715.95	289.46
716.28	288.61
716.61	287.81
716.95	286.97
717.28	286.24
717.61	285.49
717.94	284.71
718.28	283.88
718.61	283.13
718.94	282.40
719.27	281.73
719.61	281.07
719.94	280.45
720.27	279.76
720.60	279.07
720.94	278.42
721.27	277.78
721.60	277.20
721.93	276.64
722.27	276.10
722.60	275.55
722.93	274.98
723.26	274.43
723.59	273.86
723.93	273.32
724.26	272.73
724.59	272.16
724.92	271.64
725.25	271.15
725.59	270.65
725.92	270.18
726.25	269.68
726.58	269.21
726.91	268.69
727.24	268.24
727.57	267.83
727.91	267.34
728.24	266.88
728.57	266.39
728.90	265.95
729.23	265.42
729.56	264.99
729.89	264.54
730.22	264.08
730.55	263.63
730.89	263.22
731.22	262.82
731.55	262.40
731.88	262.01
732.21	261.58
732.54	261.18
732.87	260.74
733.20	260.35
733.53	259.97
733.86	259.57
734.19	259.14
734.52	258.75
734.85	258.44
735.18	258.04
735.51	257.71
735.84	257.34
736.17	257.05
736.50	256.67
736.83	256.46
737.16	256.14
737.49	255.78
737.82	255.44
738.15	255.10
738.48	254.73
738.81	254.40
739.14	254.11
739.47	253.81
739.80	253.54
740.13	253.22
740.46	252.93
740.79	252.64
741.12	252.35
741.45	252.04
741.78	251.68
742.11	251.40
742.44	251.05
742.77	250.74
743.10	250.43
743.43	250.13
743.75	249.73
744.08	249.58
744.41	249.35
744.74	249.03
745.07	248.74
745.40	248.52
745.73	248.31
746.06	248.01
746.39	247.73
746.71	247.43
747.04	247.18
747.37	246.87
747.70	246.62
748.03	246.40
748.36	246.14
748.68	245.91
749.01	245.66
749.34	245.47
749.67	245.22
750.00	244.96
750.33	244.79
750.65	244.57
750.98	244.22
751.31	243.96
751.64	243.78
751.97	243.60
752.29	243.39
752.62	243.09
752.95	242.87
753.28	242.66
753.60	242.45
753.93	242.28
754.26	242.09
754.59	241.86
754.91	241.60
755.24	241.40
755.57	241.20
755.90	241.03
756.22	240.80
756.55	240.63
756.88	240.42
757.20	240.17
757.53	239.96
757.86	239.77
758.19	239.62
758.51	239.44
758.84	239.25
759.17	239.03
759.49	238.86
759.82	238.75
760.15	238.59
760.47	238.44
760.80	238.22
761.13	238.07
761.45	237.92
761.78	237.80
762.11	237.63
762.43	237.48
762.76	237.32
763.08	237.20
763.41	237.07
763.74	236.97
764.06	236.84
764.39	236.69
764.71	236.55
765.04	236.39
765.37	236.28
765.69	236.13
766.02	236.00
766.34	235.89
766.67	235.72
767.00	235.64
767.32	235.54
767.65	235.49
767.97	235.41
768.30	235.30
768.62	235.17
768.95	235.06
769.27	234.95
769.60	234.87
769.92	234.73
770.25	234.60
770.57	234.49
770.90	234.41
771.22	234.31
771.55	234.23
771.87	234.14
772.20	234.05
772.52	234.07
772.85	234.12
773.17	234.05
773.50	233.94
773.82	233.84
774.15	233.71
774.47	233.57
774.80	233.48
775.12	233.37
775.45	233.30
775.77	233.24
776.09	233.17
776.42	233.06
776.74	233.04
777.07	232.96
777.39	232.89
777.72	232.78
778.04	232.72
778.36	232.69
778.69	232.64
779.01	232.58
779.33	232.42
779.66	232.22
779.98	232.15
780.31	232.10
780.63	232.08
780.95	232.04
781.28	231.97
781.60	231.91
781.92	231.86
782.25	231.82
782.57	231.76
782.89	231.72
783.22	231.66
783.54	231.57
783.86	231.54
784.19	231.49
784.51	231.49
784.83	231.43
785.16	231.36
785.48	231.32
785.80	231.26
786.12	231.22
786.45	231.20
786.77	231.16
787.09	231.11
787.42	231.02
787.74	231.00
788.06	230.95
788.38	230.88
788.71	230.83
789.03	230.76
789.35	230.74
789.67	230.69
789.99	230.66
790.32	230.62
790.64	230.58
790.96	230.63
791.28	230.54
791.61	230.52
791.93	230.49
792.25	230.45
792.57	230.48
792.89	230.41
793.21	230.38
793.54	230.31
793.86	230.28
794.18	230.24
794.50	230.17
794.82	230.13
795.14	230.11
795.47	230.11
795.79	230.09
796.11	230.06
796.43	230.01
796.75	229.98
797.07	229.96
797.39	229.90
797.71	229.76
798.04	229.72
798.36	229.67
798.68	229.59
799.00	229.54
799.32	229.45
799.64	229.44
799.96	229.40
800.28	229.40
800.60	229.38
800.92	229.33
801.24	229.27
801.56	229.26
801.89	229.23
802.21	229.21
802.53	229.15
802.85	229.10
803.17	229.10
803.49	229.04
803.81	228.99
804.13	228.93
804.45	228.94
804.77	228.91
805.09	228.90
805.41	228.86
805.73	228.81
806.05	228.74
806.37	228.71
806.69	228.67
807.01	228.63
807.33	228.60
807.65	228.53
807.97	228.58
808.28	228.54
808.60	228.50
808.92	228.44
809.24	228.50
809.56	228.44
809.88	228.37
810.20	228.36
810.52	228.35
810.84	228.32
811.16	228.23
811.48	228.21
811.80	228.18
812.12	228.17
812.43	228.17
812.75	228.17
813.07	228.15
813.39	228.13
813.71	228.09
814.03	228.04
814.35	228.04
814.67	227.96
814.98	227.92
815.30	227.89
815.62	227.84
815.94	227.74
816.26	227.79
816.58	227.75
816.89	227.72
817.21	227.68
817.53	227.72
817.85	227.73
818.17	227.71
818.48	227.67
818.80	227.69
819.12	227.68
819.44	227.66
819.76	227.63
820.07	227.61
820.39	227.61
820.71	227.62
821.03	227.61
821.34	227.59
821.66	227.60
821.98	227.62
822.30	227.62
822.61	227.68
822.93	227.61
823.25	227.60
823.57	227.61
823.88	227.62
824.20	227.60
824.52	227.61
824.83	227.61
825.15	227.61
825.47	227.61
825.79	227.58
826.10	227.57
826.42	227.55
826.74	227.55
827.05	227.52
827.37	227.50
827.69	227.52
828.00	227.53
828.32	227.53
828.64	227.49
828.95	227.53
829.27	227.48
829.58	227.48
829.90	227.49
830.22	227.46
830.53	227.41
830.85	227.39
831.17	227.33
831.48	227.31
831.80	227.27
832.11	227.24
832.43	227.24
832.75	227.23
833.06	227.27
833.38	227.27
833.69	227.29
834.01	227.30
834.32	227.28
834.64	227.28
834.96	227.25
835.27	227.24
835.59	227.20
835.90	227.19
836.22	227.17
836.53	227.15
836.85	227.14
837.16	227.24
837.48	227.22
837.79	227.26
838.11	227.25
838.42	227.22
838.74	227.22
839.05	227.18
839.37	227.12
839.68	227.07
840.00	227.01
840.31	226.97
840.63	226.95
840.94	226.89
841.26	226.82
841.57	226.81
841.88	226.82
842.20	226.80
842.51	226.78
842.83	226.79
843.14	226.82
843.46	226.78
843.77	226.70
844.08	226.70
844.40	226.62
844.71	226.64
845.03	226.65
845.34	226.62
845.65	226.61
845.97	226.64
846.28	226.61
846.60	226.63
846.91	226.63
847.22	226.58
847.54	226.62
847.85	226.64
848.16	226.62
848.48	226.60
848.79	226.63
849.10	226.63
849.42	226.63
849.73	226.56
850.04	226.57
850.36	226.57
850.67	226.56
850.98	226.60
851.30	226.56
851.61	226.56
851.92	226.55
852.23	226.58
852.55	226.59
852.86	226.60
853.17	226.59
853.49	226.59
853.80	226.62
854.11	226.62
854.42	226.63
854.74	226.58
855.05	226.58
855.36	226.51
855.67	226.48
855.99	226.46
856.30	226.56
856.61	226.56
856.92	226.56
857.23	226.57
857.55	226.53
857.86	226.52
858.17	226.55
858.48	226.53
858.79	226.52
859.11	226.57
859.42	226.55
859.73	226.57
860.04	226.60
860.35	226.57
860.66	226.56
860.98	226.54
861.29	226.59
861.60	226.58
861.91	226.62
862.22	226.63
862.53	226.63
862.84	226.52
863.16	226.57
863.47	226.54
863.78	226.51
864.09	226.54
864.40	226.57
864.71	226.58
865.02	226.64
865.33	226.61
865.64	226.58
865.95	226.58
866.27	226.62
866.58	226.59
866.89	226.59
867.20	226.60
867.51	226.61
867.82	226.60
868.13	226.66
868.44	226.63
868.75	226.63
869.06	226.65
869.37	226.65
869.68	226.60
869.99	226.61
870.30	226.63
870.61	226.62
870.92	226.60
871.23	226.58
871.54	226.54
871.85	226.56
872.16	226.54
872.47	226.52
872.78	226.46
873.09	226.46
873.40	226.51
873.71	226.48
874.02	226.45
874.33	226.45
874.64	226.40
874.95	226.41
875.26	226.36
875.56	226.36
875.87	226.37
876.18	226.34
876.49	226.46
876.80	226.45
877.11	226.45
877.42	226.46
877.73	226.44
878.04	226.47
878.35	226.46
878.66	226.47
878.96	226.47
879.27	226.45
879.58	226.45
879.89	226.39
880.20	226.43
880.51	226.47
880.82	226.45
881.12	226.44
881.43	226.44
881.74	226.43
882.05	226.40
882.36	226.38
882.67	226.38
882.97	226.25
883.28	226.24
883.59	226.21
883.90	226.20
884.21	226.24
884.51	226.21
884.82	226.20
885.13	226.21
885.44	226.22
885.74	226.23
886.05	226.19
886.36	226.18
886.67	226.12
886.98	226.18
887.28	226.19
887.59	226.21
887.90	226.18
888.20	226.19
888.51	226.23
888.82	226.21
889.13	226.24
889.43	226.30
889.74	226.28
890.05	226.25
890.35	226.26
890.66	226.23
890.97	226.22
891.28	226.22
891.58	226.19
891.89	226.19
892.20	226.20
892.50	226.22
892.81	226.21
893.12	226.22
893.42	226.13
893.73	226.11
894.04	226.10
894.34	226.14
894.65	226.14
894.95	226.11
895.26	226.14
895.57	226.19
895.87	226.11
896.18	226.18
896.48	226.20
896.79	226.23
897.10	226.24
897.40	226.26
897.71	226.28
898.01	226.29
898.32	226.32
898.63	226.32
898.93	226.35
899.24	226.37
899.54	226.39
899.85	226.41
900.15	226.46
900.46	226.46
900.76	226.50
901.07	226.49
901.38	226.53
901.68	226.53
901.99	226.49
902.29	226.49
902.60	226.45
902.90	226.48
903.21	226.44
903.51	226.44
903.82	226.44
904.12	226.41
904.43	226.41
904.73	226.39
905.03	226.37
905.34	226.42
905.64	226.42
905.95	226.39
906.25	226.38
906.56	226.36
906.86	226.33
907.17	226.29
907.47	226.32
907.77	226.29
908.08	226.28
908.38	226.27
908.69	226.30
908.99	226.34
909.30	226.31
909.60	226.31
909.90	226.31
910.21	226.31
910.51	226.31
910.81	226.32
911.12	226.31
911.42	226.31
911.73	226.22
912.03	226.24
912.33	226.26
912.64	226.27
912.94	226.24
913.24	226.25
913.55	226.26
913.85	226.24
914.15	226.27
914.46	226.25
914.76	226.24
915.06	226.21
915.37	226.15
915.67	226.13
915.97	226.13
916.27	226.12
916.58	226.11
916.88	226.09
917.18	226.07
917.49	226.12
917.79	226.12
918.09	226.12
918.39	226.13
918.70	226.11
919.00	226.07
919.30	226.11
919.60	226.13
919.91	226.09
920.21	226.06
920.51	226.04
920.81	226.05
921.12	226.05
921.42	226.02
921.72	226.07
922.02	226.07
922.32	226.07
922.63	226.03
922.93	226.06
923.23	226.07
923.53	226.07
923.83	226.00
924.13	226.02
924.44	226.03
924.74	226.05
925.04	226.07
925.34	226.09
925.64	226.05
925.94	226.02
926.24	226.07
926.55	226.07
926.85	226.03
927.15	226.04
927.45	226.06
927.75	226.08
928.05	226.05
928.35	226.04
928.65	226.08
928.95	226.14
929.26	226.10
929.56	226.12
929.86	226.14
930.16	226.16
930.46	226.14
930.76	226.11
931.06	226.07
931.36	226.04
931.66	226.07
931.96	226.09
932.26	226.11
932.56	226.07
932.86	226.09
933.16	226.16
933.46	226.15
933.76	226.14
934.06	226.15
934.36	226.20
934.66	226.18
934.96	226.16
935.26	226.15
935.56	226.16
935.86	226.13
936.16	226.12
936.46	226.12
936.76	226.10
937.06	226.14
937.36	226.15
937.66	226.16
937.96	226.14
938.26	226.15
938.56	226.16
938.86	226.18
939.16	226.22
939.46	226.19
939.76	226.21
940.06	226.21
940.35	226.21
940.65	226.15
940.95	226.18
941.25	226.15
941.55	226.15
941.85	226.15
942.15	226.17
942.45	226.21
942.75	226.19
943.04	226.24
943.34	226.25
943.64	226.26
943.94	226.25
944.24	226.25
944.54	226.25
944.84	226.26
945.13	226.24
945.43	226.23
945.73	226.25
946.03	226.23
946.33	226.25
946.62	226.22
946.92	226.25
947.22	226.24
947.52	226.27
947.82	226.29
948.11	226.29
948.41	226.31
948.71	226.27
949.01	226.27
949.31	226.25
949.60	226.22
949.90	226.22
950.20	226.22
950.50	226.24
950.79	226.20
951.09	226.17
951.39	226.18
951.69	226.15
951.98	226.15
952.28	226.13
952.58	226.09
952.87	226.11
953.17	226.10
953.47	226.10
953.76	226.08
954.06	226.03
954.36	226.01
954.66	225.99
954.95	226.00
955.25	225.98
955.55	225.99
955.84	225.97
956.14	225.96
956.44	225.96
956.73	225.95
957.03	225.94
957.32	225.96
957.62	225.95
957.92	225.97
958.21	225.97
958.51	226.06
958.81	226.08
959.10	226.08
959.40	226.10
959.69	226.10
959.99	226.11
960.29	226.12
960.58	226.12
960.88	226.14
961.17	226.15
961.47	226.15
961.76	226.12
962.06	226.14
962.36	226.13
962.65	226.14
962.95	226.16
963.24	226.15
963.54	226.15
963.83	226.18
964.13	226.17
964.42	226.12
964.72	226.07
965.01	226.04
965.31	226.06
965.60	226.04
965.90	226.10
966.19	226.08
966.49	226.08
966.78	226.09
967.08	226.07
967.37	226.08
967.67	226.09
967.96	226.12
968.26	226.14
968.55	226.12
968.85	226.13
969.14	226.11
969.43	226.10
969.73	226.09
970.02	226.04
970.32	226.04
970.61	226.05
970.91	226.06
971.20	226.08
971.49	226.05
971.79	226.07
972.08	226.00
972.38	226.00
972.67	226.03
972.96	226.03
973.26	226.02
973.55	226.04
973.85	226.01
974.14	226.05
974.43	226.05
974.73	226.09
975.02	226.08
975.31	226.07
975.61	226.10
975.90	226.08
976.19	226.10
976.49	226.11
976.78	226.12
977.07	226.09
977.37	226.07
977.66	226.06
977.95	226.04
978.24	226.04
978.54	226.07
978.83	226.01
979.12	226.01
979.42	226.00
979.71	225.97
980.00	225.98
980.29	225.93
980.59	225.92
980.88	225.95
981.17	225.93
981.46	225.93
981.76	225.93
982.05	225.98
982.34	225.98
982.63	225.95
982.93	225.93
983.22	225.93
983.51	225.95
983.80	226.02
984.09	226.05
984.39	226.05
984.68	226.04
984.97	226.05
985.26	226.01
985.55	226.01
985.85	226.00
986.14	225.98
986.43	226.00
986.72	225.99
987.01	225.91
987.30	225.92
987.59	225.90
987.89	225.89
988.18	225.86
988.47	225.87
988.76	225.89
989.05	225.85
989.34	225.84
989.63	225.83
989.92	225.79
990.22	225.72
990.51	225.71
990.80	225.67
991.09	225.68
991.38	225.72
991.67	225.71
991.96	225.73
992.25	225.74
992.54	225.71
992.83	225.70
993.12	225.70
993.41	225.73
993.70	225.78
993.99	225.78
994.28	225.77
994.58	225.78
994.87	225.77
995.16	225.82
995.45	225.81
995.74	225.77
996.03	225.77
996.32	225.84
996.61	225.86
996.90	225.88
997.19	225.91
997.48	225.90
997.77	225.92
998.06	225.89
998.34	225.88
998.63	225.87
998.92	225.89
999.21	225.92
999.50	225.88
999.79	225.85
1000.08	225.85
1000.37	225.85
1000.66	225.84
1000.95	225.87
1001.24	225.85
1001.53	225.87
1001.82	225.90
1002.11	225.89
1002.40	225.87
1002.68	225.91
1002.97	225.97
1003.26	225.94
1003.55	225.95
1003.84	225.96
1004.13	225.99
1004.42	226.05
1004.71	226.02
1004.99	226.00
1005.28	226.00
1005.57	226.02
1005.86	226.00
1006.15	225.99
1006.44	225.98
1006.72	225.98
1007.01	225.94
1007.30	225.96
1007.59	225.96
1007.88	225.97
1008.17	225.98
1008.45	225.98
1008.74	225.94
1009.03	225.91
1009.32	225.91
1009.60	225.90
1009.89	225.88
1010.18	225.83
1010.47	225.81
1010.76	225.85
1011.04	225.87
1011.33	225.87
1011.62	225.87
1011.91	225.89
1012.19	225.90
1012.48	225.93
1012.77	225.94
1013.05	226.01
1013.34	226.00
1013.63	226.01
1013.92	225.99
1014.20	225.96
1014.49	225.97
1014.78	225.98
1015.06	225.94
1015.35	225.95
1015.64	225.95
1015.92	225.98
1016.21	225.98
1016.50	225.97
1016.78	226.00
1017.07	226.00
1017.36	226.02
1017.64	226.03
1017.93	226.05
1018.22	226.02
1018.50	226.03
1018.79	226.02
1019.08	225.98
1019.36	225.95
1019.65	225.92
1019.93	225.98
1020.22	226.03
1020.51	226.05
1020.79	226.05
1021.08	225.38
1021.36	226.10
1021.65	226.10
1021.94	226.01
1022.22	225.55
1022.51	225.48
1022.79	226.72
1023.08	226.25
1023.36	226.90
1023.65	225.96
>>>>>End Processed Spectral Data<<<<<
