SpectraSuite Data File
++++++++++++++++++++++++++++++++++++
Date: Fri Feb 01 15:51:44 EST 2013
User: group
Dark Spectrum Present: No
Reference Spectrum Present: No
Number of Sampled Component Spectra: 1
Spectrometers: USB2E7196
Integration Time (usec): 35000 (USB2E7196)
Spectra Averaged: 100 (USB2E7196)
Boxcar Smoothing: 10 (USB2E7196)
Correct for Electrical Dark: No (USB2E7196)
Strobe/Lamp Enabled: No (USB2E7196)
Correct for Detector Non-linearity: No (USB2E7196)
Correct for Stray Light: No (USB2E7196)
Number of Pixels in Processed Spectrum: 2048
>>>>>Begin Processed Spectral Data<<<<<
339.09	0.00
339.48	215.13
339.86	216.49
340.24	217.53
340.63	218.39
341.01	222.21
341.39	221.78
341.78	222.89
342.16	224.42
342.54	224.89
342.93	213.10
343.31	223.86
343.69	224.40
344.07	224.83
344.46	225.25
344.84	225.67
345.22	225.87
345.60	226.10
345.99	226.31
346.37	226.40
346.75	226.48
347.13	226.54
347.52	226.58
347.90	226.64
348.28	226.64
348.66	226.67
349.05	226.68
349.43	226.71
349.81	226.76
350.19	226.83
350.57	226.89
350.96	226.96
351.34	227.07
351.72	227.13
352.10	227.25
352.48	227.32
352.87	227.34
353.25	227.41
353.63	227.48
354.01	227.52
354.39	227.61
354.77	227.72
355.15	227.83
355.54	227.89
355.92	227.95
356.30	228.01
356.68	228.18
357.06	228.22
357.44	228.30
357.82	228.33
358.20	228.39
358.58	228.46
358.97	228.53
359.35	228.58
359.73	228.67
360.11	228.73
360.49	228.79
360.87	228.85
361.25	228.96
361.63	229.04
362.01	229.11
362.39	229.17
362.77	229.22
363.15	229.24
363.53	229.27
363.91	229.28
364.29	229.30
364.67	229.21
365.05	229.28
365.43	229.29
365.81	229.32
366.19	229.34
366.57	229.38
366.95	229.39
367.33	229.36
367.71	229.37
368.09	229.38
368.47	229.35
368.85	229.34
369.23	229.30
369.61	229.22
369.99	229.21
370.37	229.18
370.75	229.15
371.13	229.07
371.51	229.04
371.89	229.01
372.27	228.97
372.65	228.94
373.03	228.86
373.41	228.76
373.78	228.72
374.16	228.61
374.54	228.54
374.92	228.45
375.30	228.41
375.68	228.29
376.06	228.21
376.44	228.14
376.82	228.07
377.19	228.00
377.57	227.92
377.95	227.81
378.33	227.73
378.71	227.59
379.09	227.55
379.47	227.47
379.84	227.41
380.22	227.32
380.60	227.23
380.98	227.16
381.36	227.11
381.73	227.00
382.11	226.97
382.49	226.89
382.87	226.80
383.25	226.73
383.62	226.77
384.00	226.71
384.38	226.65
384.76	226.60
385.13	226.57
385.51	226.51
385.89	226.45
386.27	226.39
386.64	226.36
387.02	226.30
387.40	226.27
387.78	226.22
388.15	226.22
388.53	226.15
388.91	226.13
389.29	226.11
389.66	226.11
390.04	226.04
390.42	226.02
390.79	226.03
391.17	226.02
391.55	225.90
391.92	225.87
392.30	225.90
392.68	225.87
393.05	225.87
393.43	225.91
393.81	225.93
394.18	225.93
394.56	225.98
394.94	226.02
395.31	226.01
395.69	226.09
396.06	226.12
396.44	226.18
396.82	226.23
397.19	226.32
397.57	226.34
397.95	226.41
398.32	226.45
398.70	226.49
399.07	226.55
399.45	226.62
399.82	226.70
400.20	226.77
400.58	226.86
400.95	226.89
401.33	226.97
401.70	227.14
402.08	227.24
402.45	227.31
402.83	227.40
403.20	227.52
403.58	227.59
403.95	227.73
404.33	227.87
404.71	227.98
405.08	228.15
405.46	228.30
405.83	228.46
406.21	228.62
406.58	228.80
406.96	228.95
407.33	229.13
407.70	229.32
408.08	229.57
408.45	229.81
408.83	230.02
409.20	230.27
409.58	230.48
409.95	230.73
410.33	230.99
410.70	231.28
411.08	231.56
411.45	231.87
411.82	232.15
412.20	232.49
412.57	232.88
412.95	233.17
413.32	233.57
413.69	233.98
414.07	234.44
414.44	234.92
414.82	235.42
415.19	235.99
415.56	236.56
415.94	237.10
416.31	237.74
416.68	238.39
417.06	239.07
417.43	239.74
417.81	240.55
418.18	241.32
418.55	242.14
418.93	243.03
419.30	243.91
419.67	244.85
420.04	245.76
420.42	246.77
420.79	247.97
421.16	249.16
421.54	250.37
421.91	251.53
422.28	252.78
422.66	254.04
423.03	255.32
423.40	256.61
423.77	258.02
424.15	259.41
424.52	260.88
424.89	262.50
425.26	264.01
425.64	265.42
426.01	267.00
426.38	268.65
426.75	270.31
427.13	272.07
427.50	273.85
427.87	275.80
428.24	277.66
428.61	279.36
428.99	281.28
429.36	283.43
429.73	285.52
430.10	287.52
430.47	289.63
430.85	291.77
431.22	294.02
431.59	296.40
431.96	298.67
432.33	301.16
432.70	303.52
433.08	306.37
433.45	309.02
433.82	311.65
434.19	314.55
434.56	317.36
434.93	319.95
435.30	322.61
435.68	325.48
436.05	328.31
436.42	331.11
436.79	333.64
437.16	336.27
437.53	339.09
437.90	341.89
438.27	344.66
438.64	347.47
439.01	350.07
439.38	352.30
439.75	354.47
440.13	356.96
440.50	359.26
440.87	361.08
441.24	363.02
441.61	365.15
441.98	366.62
442.35	368.39
442.72	370.25
443.09	372.06
443.46	373.06
443.83	373.63
444.20	374.14
444.57	374.97
444.94	375.23
445.31	375.58
445.68	375.94
446.05	375.95
446.42	375.57
446.79	375.13
447.16	374.71
447.53	374.40
447.90	373.26
448.27	372.13
448.64	370.55
449.01	369.43
449.37	367.49
449.74	365.63
450.11	363.43
450.48	360.98
450.85	358.43
451.22	356.26
451.59	354.29
451.96	352.33
452.33	349.71
452.70	347.38
453.07	344.55
453.43	341.67
453.80	338.97
454.17	336.27
454.54	333.74
454.91	331.02
455.28	328.36
455.65	325.87
456.02	323.43
456.38	321.29
456.75	318.60
457.12	316.37
457.49	314.13
457.86	311.96
458.23	310.15
458.59	308.17
458.96	306.11
459.33	304.26
459.70	302.42
460.07	300.94
460.43	299.21
460.80	297.58
461.17	296.13
461.54	294.62
461.91	293.20
462.27	291.78
462.64	290.51
463.01	289.14
463.38	287.85
463.74	286.47
464.11	285.32
464.48	284.30
464.85	283.20
465.21	282.34
465.58	281.38
465.95	280.30
466.32	279.37
466.68	278.48
467.05	277.56
467.42	276.66
467.78	275.71
468.15	274.84
468.52	274.19
468.88	273.34
469.25	272.59
469.62	271.94
469.98	271.25
470.35	270.63
470.72	270.00
471.08	269.35
471.45	268.81
471.82	268.27
472.18	267.67
472.55	267.21
472.92	266.70
473.28	266.27
473.65	265.78
474.02	265.31
474.38	264.93
474.75	264.59
475.11	264.27
475.48	264.03
475.85	263.84
476.21	263.58
476.58	263.40
476.94	263.25
477.31	263.12
477.67	262.94
478.04	262.81
478.41	262.82
478.77	262.79
479.14	262.73
479.50	262.73
479.87	262.81
480.23	262.90
480.60	262.95
480.96	263.02
481.33	263.24
481.69	263.44
482.06	263.65
482.42	263.86
482.79	264.10
483.15	264.38
483.52	264.70
483.88	265.08
484.25	265.44
484.61	265.86
484.98	266.28
485.34	266.84
485.71	267.47
486.07	268.04
486.44	268.66
486.80	269.35
487.17	270.08
487.53	270.93
487.90	271.78
488.26	272.71
488.62	273.69
488.99	274.63
489.35	275.68
489.72	276.78
490.08	278.01
490.44	279.24
490.81	280.59
491.17	281.97
491.54	283.45
491.90	285.02
492.26	286.68
492.63	288.45
492.99	290.25
493.36	292.16
493.72	294.23
494.08	296.34
494.45	298.61
494.81	301.00
495.17	303.40
495.54	305.96
495.90	308.64
496.26	311.48
496.63	314.48
496.99	317.59
497.35	320.87
497.72	324.26
498.08	327.77
498.44	331.47
498.80	335.40
499.17	339.43
499.53	343.57
499.89	347.98
500.26	352.56
500.62	357.21
500.98	362.15
501.34	367.21
501.71	372.54
502.07	378.01
502.43	383.67
502.79	389.53
503.16	395.65
503.52	401.97
503.88	408.45
504.24	415.13
504.60	422.05
504.97	429.21
505.33	436.55
505.69	444.32
506.05	452.11
506.41	460.02
506.78	468.21
507.14	476.72
507.50	485.41
507.86	494.39
508.22	503.60
508.59	512.81
508.95	522.47
509.31	532.27
509.67	542.33
510.03	552.57
510.39	563.12
510.75	573.88
511.12	584.78
511.48	596.00
511.84	607.38
512.20	618.92
512.56	630.81
512.92	643.03
513.28	655.40
513.64	667.83
514.00	680.56
514.37	693.47
514.73	706.55
515.09	719.65
515.45	732.96
515.81	746.59
516.17	760.58
516.53	774.60
516.89	788.79
517.25	802.98
517.61	817.43
517.97	831.88
518.33	846.36
518.69	861.13
519.05	876.02
519.41	891.22
519.77	906.79
520.13	922.27
520.49	937.57
520.85	952.89
521.21	968.64
521.57	984.86
521.93	1000.60
522.29	1016.85
522.65	1032.98
523.01	1049.25
523.37	1065.31
523.73	1081.49
524.09	1097.63
524.45	1113.87
524.81	1130.45
525.17	1147.10
525.53	1163.94
525.89	1180.73
526.25	1197.60
526.61	1214.10
526.97	1230.83
527.33	1247.10
527.68	1263.66
528.04	1280.16
528.40	1296.83
528.76	1313.95
529.12	1330.54
529.48	1347.41
529.84	1363.49
530.20	1380.13
530.56	1397.04
530.91	1414.44
531.27	1431.16
531.63	1447.58
531.99	1464.17
532.35	1480.14
532.71	1496.20
533.07	1512.34
533.42	1528.21
533.78	1544.21
534.14	1560.43
534.50	1575.77
534.86	1591.85
535.21	1607.09
535.57	1623.06
535.93	1638.48
536.29	1653.04
536.65	1667.99
537.00	1682.92
537.36	1698.32
537.72	1712.84
538.08	1727.20
538.44	1740.86
538.79	1754.65
539.15	1768.27
539.51	1781.91
539.87	1796.19
540.22	1809.77
540.58	1823.61
540.94	1837.05
541.29	1849.70
541.65	1862.45
542.01	1875.64
542.37	1887.88
542.72	1900.29
543.08	1911.96
543.44	1924.33
543.79	1935.63
544.15	1946.68
544.51	1958.11
544.87	1968.95
545.22	1979.81
545.58	1990.04
545.94	1999.80
546.29	2009.71
546.65	2019.68
547.01	2028.89
547.36	2037.63
547.72	2046.21
548.07	2054.13
548.43	2062.25
548.79	2070.45
549.14	2077.88
549.50	2085.16
549.86	2092.78
550.21	2100.06
550.57	2107.15
550.92	2113.72
551.28	2120.69
551.64	2127.71
551.99	2134.29
552.35	2140.47
552.70	2146.58
553.06	2152.55
553.41	2158.91
553.77	2164.99
554.13	2171.01
554.48	2177.23
554.84	2182.73
555.19	2188.02
555.55	2193.15
555.90	2197.83
556.26	2202.81
556.61	2207.67
556.97	2211.90
557.32	2216.03
557.68	2220.04
558.03	2224.38
558.39	2228.21
558.74	2232.94
559.10	2236.87
559.45	2240.47
559.81	2244.88
560.16	2248.60
560.52	2251.74
560.87	2255.14
561.23	2257.77
561.58	2260.64
561.94	2263.27
562.29	2265.69
562.64	2268.22
563.00	2270.75
563.35	2274.06
563.71	2277.10
564.06	2280.22
564.42	2283.01
564.77	2285.52
565.12	2287.94
565.48	2289.88
565.83	2291.56
566.19	2292.85
566.54	2293.77
566.89	2294.84
567.25	2295.15
567.60	2296.65
567.96	2298.37
568.31	2299.25
568.66	2300.28
569.02	2300.85
569.37	2301.01
569.72	2301.82
570.08	2301.97
570.43	2302.02
570.78	2301.38
571.14	2299.88
571.49	2298.51
571.84	2298.35
572.20	2297.31
572.55	2296.09
572.90	2294.47
573.26	2293.12
573.61	2291.41
573.96	2289.62
574.31	2286.75
574.67	2283.93
575.02	2280.18
575.37	2276.81
575.72	2272.93
576.08	2269.55
576.43	2266.31
576.78	2262.71
577.13	2259.55
577.49	2256.50
577.84	2252.94
578.19	2249.16
578.54	2245.51
578.90	2241.19
579.25	2235.52
579.60	2230.51
579.95	2225.56
580.30	2220.56
580.66	2215.46
581.01	2210.57
581.36	2205.58
581.71	2201.31
582.06	2196.64
582.42	2192.25
582.77	2186.95
583.12	2182.43
583.47	2177.66
583.82	2172.63
584.17	2167.36
584.53	2161.87
584.88	2156.15
585.23	2150.39
585.58	2145.00
585.93	2139.49
586.28	2134.95
586.63	2129.98
586.98	2124.85
587.34	2120.24
587.69	2115.39
588.04	2110.14
588.39	2104.37
588.74	2097.96
589.09	2091.88
589.44	2085.27
589.79	2079.22
590.14	2073.78
590.49	2067.31
590.84	2061.11
591.19	2055.13
591.54	2048.73
591.89	2041.18
592.25	2034.51
592.60	2027.28
592.95	2019.66
593.30	2012.46
593.65	2004.76
594.00	1997.57
594.35	1990.19
594.70	1982.08
595.05	1974.78
595.40	1967.48
595.75	1960.03
596.10	1953.67
596.45	1946.90
596.80	1940.64
597.15	1933.98
597.50	1926.68
597.85	1920.22
598.19	1913.47
598.54	1906.25
598.89	1899.61
599.24	1893.86
599.59	1887.12
599.94	1881.08
600.29	1874.75
600.64	1868.09
600.99	1860.62
601.34	1853.90
601.69	1847.17
602.04	1840.28
602.39	1832.94
602.74	1826.07
603.08	1819.28
603.43	1812.64
603.78	1805.26
604.13	1798.02
604.48	1790.67
604.83	1783.89
605.18	1776.85
605.53	1768.91
605.87	1760.84
606.22	1753.58
606.57	1745.59
606.92	1738.24
607.27	1730.94
607.62	1724.03
607.96	1716.64
608.31	1709.95
608.66	1702.45
609.01	1694.75
609.36	1687.14
609.70	1679.16
610.05	1671.01
610.40	1663.32
610.75	1654.94
611.10	1647.29
611.44	1638.94
611.79	1631.10
612.14	1622.47
612.49	1613.27
612.83	1604.91
613.18	1596.87
613.53	1588.82
613.88	1580.27
614.22	1572.02
614.57	1563.49
614.92	1555.50
615.27	1547.94
615.61	1539.55
615.96	1531.39
616.31	1523.87
616.65	1516.54
617.00	1509.03
617.35	1501.36
617.70	1492.96
618.04	1484.60
618.39	1476.44
618.74	1468.83
619.08	1460.46
619.43	1452.89
619.78	1446.05
620.12	1438.76
620.47	1431.23
620.82	1423.05
621.16	1415.66
621.51	1408.05
621.85	1400.36
622.20	1391.84
622.55	1383.53
622.89	1375.85
623.24	1368.36
623.59	1360.91
623.93	1353.35
624.28	1346.11
624.62	1338.60
624.97	1331.53
625.32	1324.60
625.66	1317.60
626.01	1310.47
626.35	1302.98
626.70	1295.22
627.04	1287.41
627.39	1279.67
627.73	1272.30
628.08	1265.33
628.43	1258.13
628.77	1250.77
629.12	1243.18
629.46	1235.95
629.81	1228.57
630.15	1221.26
630.50	1213.84
630.84	1205.64
631.19	1197.77
631.53	1190.32
631.88	1182.85
632.22	1175.27
632.57	1168.05
632.91	1160.39
633.26	1152.91
633.60	1145.61
633.95	1138.55
634.29	1131.59
634.64	1124.98
634.98	1117.52
635.32	1110.41
635.67	1103.80
636.01	1097.15
636.36	1090.31
636.70	1083.79
637.05	1077.12
637.39	1070.69
637.73	1064.05
638.08	1058.14
638.42	1052.09
638.77	1045.51
639.11	1038.83
639.45	1032.44
639.80	1025.81
640.14	1019.47
640.49	1012.92
640.83	1006.60
641.17	1000.26
641.52	993.87
641.86	987.40
642.20	981.65
642.55	975.37
642.89	968.76
643.23	962.24
643.58	956.55
643.92	950.45
644.26	944.43
644.61	938.43
644.95	932.39
645.29	925.77
645.64	919.12
645.98	912.81
646.32	907.02
646.66	900.96
647.01	895.14
647.35	889.40
647.69	883.61
648.04	878.02
648.38	872.20
648.72	866.18
649.06	860.11
649.41	854.22
649.75	848.22
650.09	842.28
650.43	836.46
650.78	830.27
651.12	824.24
651.46	818.54
651.80	812.69
652.14	807.29
652.49	801.96
652.83	796.74
653.17	791.14
653.51	785.35
653.85	780.01
654.20	774.32
654.54	768.32
654.88	762.53
655.22	756.71
655.56	751.15
655.90	745.73
656.25	740.45
656.59	735.07
656.93	729.99
657.27	724.87
657.61	719.47
657.95	714.35
658.29	709.25
658.64	704.05
658.98	698.85
659.32	693.42
659.66	688.26
660.00	682.95
660.34	678.01
660.68	673.12
661.02	668.04
661.36	663.35
661.70	658.91
662.05	654.62
662.39	650.29
662.73	645.74
663.07	641.36
663.41	636.95
663.75	632.51
664.09	627.91
664.43	623.49
664.77	619.41
665.11	615.20
665.45	611.11
665.79	606.97
666.13	602.81
666.47	598.76
666.81	594.59
667.15	590.52
667.49	586.55
667.83	582.82
668.17	578.90
668.51	574.86
668.85	570.78
669.19	566.95
669.53	563.07
669.87	559.21
670.21	555.48
670.55	551.81
670.89	548.36
671.23	544.99
671.57	541.48
671.91	537.86
672.25	534.39
672.58	530.82
672.92	527.36
673.26	524.16
673.60	521.02
673.94	517.86
674.28	514.92
674.62	511.97
674.96	508.82
675.30	505.90
675.64	502.97
675.97	500.25
676.31	497.39
676.65	494.44
676.99	491.76
677.33	488.93
677.67	486.19
678.01	483.10
678.34	480.13
678.68	477.28
679.02	474.51
679.36	471.71
679.70	469.05
680.04	466.39
680.37	463.50
680.71	460.71
681.05	458.13
681.39	455.39
681.73	452.75
682.06	450.20
682.40	447.60
682.74	445.07
683.08	442.50
683.42	439.90
683.75	437.42
684.09	434.81
684.43	432.31
684.77	429.75
685.10	427.44
685.44	425.10
685.78	422.83
686.12	420.58
686.45	418.25
686.79	415.93
687.13	413.70
687.46	411.58
687.80	409.38
688.14	407.13
688.48	405.10
688.81	402.82
689.15	400.72
689.49	398.61
689.82	396.52
690.16	394.39
690.50	392.42
690.83	390.44
691.17	388.49
691.51	386.58
691.84	384.78
692.18	382.83
692.52	380.85
692.85	378.89
693.19	377.02
693.52	375.22
693.86	373.42
694.20	371.65
694.53	369.82
694.87	368.00
695.21	366.21
695.54	364.39
695.88	362.69
696.21	360.97
696.55	359.25
696.88	357.52
697.22	355.89
697.56	354.28
697.89	352.64
698.23	351.05
698.56	349.47
698.90	347.88
699.23	346.25
699.57	344.70
699.90	343.12
700.24	341.60
700.58	340.08
700.91	338.58
701.25	337.11
701.58	335.79
701.92	334.41
702.25	333.04
702.59	331.66
702.92	330.37
703.26	329.03
703.59	327.76
703.93	326.59
704.26	325.36
704.60	324.04
704.93	322.77
705.26	321.50
705.60	320.27
705.93	319.10
706.27	318.03
706.60	316.95
706.94	315.84
707.27	314.70
707.61	313.64
707.94	312.60
708.27	311.50
708.61	310.40
708.94	309.40
709.28	308.47
709.61	307.54
709.94	306.57
710.28	305.58
710.61	304.63
710.95	303.62
711.28	302.68
711.61	301.75
711.95	300.87
712.28	299.95
712.61	298.97
712.95	298.02
713.28	297.16
713.61	296.31
713.95	295.46
714.28	294.59
714.61	293.71
714.95	292.86
715.28	292.04
715.61	291.14
715.95	290.27
716.28	289.38
716.61	288.51
716.95	287.67
717.28	286.92
717.61	286.13
717.94	285.41
718.28	284.62
718.61	283.87
718.94	283.17
719.27	282.50
719.61	281.89
719.94	281.24
720.27	280.52
720.60	279.81
720.94	279.16
721.27	278.56
721.60	278.00
721.93	277.40
722.27	276.89
722.60	276.38
722.93	275.83
723.26	275.27
723.59	274.67
723.93	274.16
724.26	273.62
724.59	273.07
724.92	272.51
725.25	272.00
725.59	271.46
725.92	270.92
726.25	270.41
726.58	269.91
726.91	269.46
727.24	268.97
727.57	268.51
727.91	268.04
728.24	267.59
728.57	267.08
728.90	266.58
729.23	266.03
729.56	265.59
729.89	265.10
730.22	264.65
730.55	264.21
730.89	263.72
731.22	263.24
731.55	262.79
731.88	262.39
732.21	261.97
732.54	261.55
732.87	261.11
733.20	260.71
733.53	260.31
733.86	259.90
734.19	259.55
734.52	259.17
734.85	258.85
735.18	258.44
735.51	258.08
735.84	257.73
736.17	257.39
736.50	256.99
736.83	256.78
737.16	256.44
737.49	256.12
737.82	255.77
738.15	255.45
738.48	255.14
738.81	254.79
739.14	254.47
739.47	254.14
739.80	253.85
740.13	253.53
740.46	253.22
740.79	252.91
741.12	252.60
741.45	252.30
741.78	251.95
742.11	251.68
742.44	251.39
742.77	251.10
743.10	250.79
743.43	250.50
743.75	250.12
744.08	249.97
744.41	249.70
744.74	249.45
745.07	249.21
745.40	248.97
745.73	248.76
746.06	248.48
746.39	248.24
746.71	247.97
747.04	247.71
747.37	247.43
747.70	247.19
748.03	246.93
748.36	246.71
748.68	246.49
749.01	246.21
749.34	245.99
749.67	245.78
750.00	245.59
750.33	245.45
750.65	245.26
750.98	244.93
751.31	244.71
751.64	244.48
751.97	244.27
752.29	244.03
752.62	243.79
752.95	243.57
753.28	243.36
753.60	243.17
753.93	243.00
754.26	242.81
754.59	242.59
754.91	242.39
755.24	242.14
755.57	241.94
755.90	241.77
756.22	241.56
756.55	241.34
756.88	241.12
757.20	240.86
757.53	240.64
757.86	240.45
758.19	240.32
758.51	240.15
758.84	239.94
759.17	239.76
759.49	239.59
759.82	239.49
760.15	239.34
760.47	239.18
760.80	239.02
761.13	238.89
761.45	238.72
761.78	238.52
762.11	238.41
762.43	238.24
762.76	238.08
763.08	237.96
763.41	237.83
763.74	237.68
764.06	237.54
764.39	237.44
764.71	237.26
765.04	237.11
765.37	236.97
765.69	236.82
766.02	236.69
766.34	236.54
766.67	236.36
767.00	236.26
767.32	236.17
767.65	236.07
767.97	235.94
768.30	235.86
768.62	235.75
768.95	235.62
769.27	235.52
769.60	235.44
769.92	235.31
770.25	235.18
770.57	235.08
770.90	234.97
771.22	234.84
771.55	234.78
771.87	234.72
772.20	234.64
772.52	234.66
772.85	234.69
773.17	234.60
773.50	234.50
773.82	234.39
774.15	234.28
774.47	234.15
774.80	234.03
775.12	233.95
775.45	233.90
775.77	233.82
776.09	233.75
776.42	233.66
776.74	233.63
777.07	233.58
777.39	233.53
777.72	233.42
778.04	233.35
778.36	233.28
778.69	233.18
779.01	233.11
779.33	233.00
779.66	232.80
779.98	232.75
780.31	232.70
780.63	232.67
780.95	232.61
781.28	232.54
781.60	232.52
781.92	232.49
782.25	232.42
782.57	232.36
782.89	232.30
783.22	232.28
783.54	232.20
783.86	232.15
784.19	232.07
784.51	232.09
784.83	232.04
785.16	231.99
785.48	231.94
785.80	231.91
786.12	231.84
786.45	231.83
786.77	231.78
787.09	231.75
787.42	231.68
787.74	231.66
788.06	231.63
788.38	231.58
788.71	231.49
789.03	231.50
789.35	231.48
789.67	231.48
789.99	231.46
790.32	231.41
790.64	231.38
790.96	231.43
791.28	231.35
791.61	231.33
791.93	231.31
792.25	231.27
792.57	231.26
792.89	231.21
793.21	231.16
793.54	231.12
793.86	231.06
794.18	231.03
794.50	230.97
794.82	230.92
795.14	230.92
795.47	230.93
795.79	230.86
796.11	230.77
796.43	230.72
796.75	230.66
797.07	230.59
797.39	230.58
797.71	230.47
798.04	230.45
798.36	230.38
798.68	230.37
799.00	230.33
799.32	230.30
799.64	230.29
799.96	230.24
800.28	230.23
800.60	230.20
800.92	230.19
801.24	230.15
801.56	230.16
801.89	230.06
802.21	230.01
802.53	229.97
802.85	230.00
803.17	229.98
803.49	229.92
803.81	229.91
804.13	229.84
804.45	229.80
804.77	229.78
805.09	229.73
805.41	229.67
805.73	229.63
806.05	229.58
806.37	229.54
806.69	229.50
807.01	229.44
807.33	229.44
807.65	229.35
807.97	229.38
808.28	229.30
808.60	229.27
808.92	229.19
809.24	229.20
809.56	229.13
809.88	229.06
810.20	229.06
810.52	229.04
810.84	229.03
811.16	229.00
811.48	228.94
811.80	228.94
812.12	228.90
812.43	228.88
812.75	228.88
813.07	228.89
813.39	228.89
813.71	228.84
814.03	228.79
814.35	228.77
814.67	228.70
814.98	228.70
815.30	228.71
815.62	228.72
815.94	228.62
816.26	228.65
816.58	228.63
816.89	228.62
817.21	228.57
817.53	228.57
817.85	228.55
818.17	228.54
818.48	228.50
818.80	228.51
819.12	228.45
819.44	228.37
819.76	228.30
820.07	228.28
820.39	228.30
820.71	228.31
821.03	228.32
821.34	228.29
821.66	228.28
821.98	228.26
822.30	228.27
822.61	228.37
822.93	228.31
823.25	228.30
823.57	228.26
823.88	228.28
824.20	228.26
824.52	228.27
824.83	228.29
825.15	228.30
825.47	228.28
825.79	228.32
826.10	228.31
826.42	228.32
826.74	228.31
827.05	228.30
827.37	228.31
827.69	228.28
828.00	228.26
828.32	228.27
828.64	228.26
828.95	228.29
829.27	228.24
829.58	228.26
829.90	228.27
830.22	228.29
830.53	228.26
830.85	228.24
831.17	228.22
831.48	228.19
831.80	228.19
832.11	228.19
832.43	228.17
832.75	228.14
833.06	228.18
833.38	228.13
833.69	228.10
834.01	228.10
834.32	228.10
834.64	228.10
834.96	228.06
835.27	228.05
835.59	228.00
835.90	227.96
836.22	227.94
836.53	227.92
836.85	227.89
837.16	227.97
837.48	227.96
837.79	227.96
838.11	227.97
838.42	227.94
838.74	227.96
839.05	227.94
839.37	227.95
839.68	227.88
840.00	227.92
840.31	227.93
840.63	227.88
840.94	227.84
841.26	227.83
841.57	227.82
841.88	227.81
842.20	227.78
842.51	227.74
842.83	227.72
843.14	227.79
843.46	227.79
843.77	227.71
844.08	227.69
844.40	227.63
844.71	227.58
845.03	227.57
845.34	227.53
845.65	227.53
845.97	227.51
846.28	227.51
846.60	227.49
846.91	227.46
847.22	227.44
847.54	227.44
847.85	227.44
848.16	227.42
848.48	227.40
848.79	227.43
849.10	227.43
849.42	227.42
849.73	227.29
850.04	227.26
850.36	227.20
850.67	227.20
850.98	227.19
851.30	227.21
851.61	227.18
851.92	227.15
852.23	227.12
852.55	227.12
852.86	227.07
853.17	227.06
853.49	227.10
853.80	227.11
854.11	227.10
854.42	227.09
854.74	227.06
855.05	227.04
855.36	227.00
855.67	227.01
855.99	226.98
856.30	227.12
856.61	227.13
856.92	227.16
857.23	227.14
857.55	227.10
857.86	227.09
858.17	227.15
858.48	227.14
858.79	227.14
859.11	227.16
859.42	227.16
859.73	227.18
860.04	227.16
860.35	227.13
860.66	227.11
860.98	227.12
861.29	227.15
861.60	227.19
861.91	227.19
862.22	227.17
862.53	227.18
862.84	227.04
863.16	227.06
863.47	227.03
863.78	227.05
864.09	227.09
864.40	227.08
864.71	227.06
865.02	227.09
865.33	227.07
865.64	227.05
865.95	227.07
866.27	227.11
866.58	227.12
866.89	227.12
867.20	227.13
867.51	227.13
867.82	227.15
868.13	227.16
868.44	227.14
868.75	227.19
869.06	227.18
869.37	227.23
869.68	227.19
869.99	227.24
870.30	227.25
870.61	227.28
870.92	227.29
871.23	227.30
871.54	227.31
871.85	227.37
872.16	227.36
872.47	227.34
872.78	227.28
873.09	227.29
873.40	227.30
873.71	227.32
874.02	227.33
874.33	227.30
874.64	227.26
874.95	227.30
875.26	227.28
875.56	227.30
875.87	227.29
876.18	227.31
876.49	227.39
876.80	227.39
877.11	227.38
877.42	227.39
877.73	227.37
878.04	227.38
878.35	227.37
878.66	227.38
878.96	227.40
879.27	227.42
879.58	227.38
879.89	227.37
880.20	227.39
880.51	227.39
880.82	227.38
881.12	227.42
881.43	227.39
881.74	227.33
882.05	227.36
882.36	227.36
882.67	227.34
882.97	227.22
883.28	227.20
883.59	227.18
883.90	227.16
884.21	227.15
884.51	227.12
884.82	227.08
885.13	227.08
885.44	227.06
885.74	227.04
886.05	227.05
886.36	227.06
886.67	227.03
886.98	227.08
887.28	227.05
887.59	227.03
887.90	227.00
888.20	227.01
888.51	226.99
888.82	226.96
889.13	226.96
889.43	227.01
889.74	227.00
890.05	226.99
890.35	226.97
890.66	226.97
890.97	226.94
891.28	226.95
891.58	226.95
891.89	226.96
892.20	226.93
892.50	226.93
892.81	226.93
893.12	226.92
893.42	226.85
893.73	226.88
894.04	226.89
894.34	226.92
894.65	226.94
894.95	226.91
895.26	226.93
895.57	226.99
895.87	226.97
896.18	226.97
896.48	226.99
896.79	227.00
897.10	227.00
897.40	227.01
897.71	227.02
898.01	227.01
898.32	227.02
898.63	227.03
898.93	227.05
899.24	227.05
899.54	227.01
899.85	227.02
900.15	227.04
900.46	227.04
900.76	227.02
901.07	227.04
901.38	227.04
901.68	227.06
901.99	227.00
902.29	226.99
902.60	227.02
902.90	226.98
903.21	227.01
903.51	227.03
903.82	227.08
904.12	227.11
904.43	227.08
904.73	227.08
905.03	227.10
905.34	227.19
905.64	227.18
905.95	227.24
906.25	227.28
906.56	227.23
906.86	227.26
907.17	227.28
907.47	227.26
907.77	227.28
908.08	227.28
908.38	227.31
908.69	227.31
908.99	227.30
909.30	227.33
909.60	227.32
909.90	227.31
910.21	227.27
910.51	227.25
910.81	227.27
911.12	227.25
911.42	227.24
911.73	227.13
912.03	227.12
912.33	227.13
912.64	227.08
912.94	227.09
913.24	227.03
913.55	227.01
913.85	227.02
914.15	227.00
914.46	227.01
914.76	226.98
915.06	226.94
915.37	226.93
915.67	226.95
915.97	226.94
916.27	226.93
916.58	226.94
916.88	226.89
917.18	226.86
917.49	226.94
917.79	226.95
918.09	226.96
918.39	227.00
918.70	226.99
919.00	226.95
919.30	226.99
919.60	226.97
919.91	226.98
920.21	226.96
920.51	226.94
920.81	226.91
921.12	226.92
921.42	226.93
921.72	226.94
922.02	226.89
922.32	226.90
922.63	226.90
922.93	226.91
923.23	226.92
923.53	226.93
923.83	226.86
924.13	226.83
924.44	226.80
924.74	226.77
925.04	226.77
925.34	226.79
925.64	226.76
925.94	226.76
926.24	226.82
926.55	226.82
926.85	226.83
927.15	226.83
927.45	226.83
927.75	226.81
928.05	226.79
928.35	226.79
928.65	226.78
928.95	226.79
929.26	226.79
929.56	226.82
929.86	226.82
930.16	226.80
930.46	226.80
930.76	226.84
931.06	226.80
931.36	226.77
931.66	226.80
931.96	226.82
932.26	226.83
932.56	226.81
932.86	226.79
933.16	226.79
933.46	226.79
933.76	226.78
934.06	226.79
934.36	226.84
934.66	226.83
934.96	226.84
935.26	226.82
935.56	226.82
935.86	226.78
936.16	226.78
936.46	226.83
936.76	226.84
937.06	226.83
937.36	226.87
937.66	226.88
937.96	226.85
938.26	226.85
938.56	226.85
938.86	226.81
939.16	226.85
939.46	226.86
939.76	226.86
940.06	226.85
940.35	226.90
940.65	226.84
940.95	226.88
941.25	226.88
941.55	226.89
941.85	226.88
942.15	226.90
942.45	226.95
942.75	226.93
943.04	226.93
943.34	226.94
943.64	226.92
943.94	226.92
944.24	226.97
944.54	226.97
944.84	226.98
945.13	226.98
945.43	226.98
945.73	226.98
946.03	226.96
946.33	226.98
946.62	226.95
946.92	226.96
947.22	226.96
947.52	226.94
947.82	226.96
948.11	226.96
948.41	226.96
948.71	226.91
949.01	226.92
949.31	226.94
949.60	226.92
949.90	226.91
950.20	226.88
950.50	226.86
950.79	226.83
951.09	226.85
951.39	226.83
951.69	226.82
951.98	226.83
952.28	226.81
952.58	226.78
952.87	226.77
953.17	226.75
953.47	226.76
953.76	226.77
954.06	226.74
954.36	226.71
954.66	226.71
954.95	226.74
955.25	226.74
955.55	226.71
955.84	226.67
956.14	226.69
956.44	226.71
956.73	226.68
957.03	226.69
957.32	226.68
957.62	226.68
957.92	226.66
958.21	226.62
958.51	226.73
958.81	226.75
959.10	226.73
959.40	226.75
959.69	226.71
959.99	226.68
960.29	226.68
960.58	226.63
960.88	226.64
961.17	226.60
961.47	226.61
961.76	226.56
962.06	226.62
962.36	226.57
962.65	226.56
962.95	226.55
963.24	226.54
963.54	226.50
963.83	226.47
964.13	226.46
964.42	226.46
964.72	226.36
965.01	226.35
965.31	226.38
965.60	226.34
965.90	226.37
966.19	226.33
966.49	226.34
966.78	226.38
967.08	226.41
967.37	226.39
967.67	226.34
967.96	226.37
968.26	226.35
968.55	226.36
968.85	226.35
969.14	226.34
969.43	226.32
969.73	226.33
970.02	226.35
970.32	226.35
970.61	226.34
970.91	226.35
971.20	226.35
971.49	226.33
971.79	226.38
972.08	226.35
972.38	226.39
972.67	226.39
972.96	226.36
973.26	226.33
973.55	226.38
973.85	226.41
974.14	226.41
974.43	226.42
974.73	226.45
975.02	226.46
975.31	226.51
975.61	226.53
975.90	226.55
976.19	226.56
976.49	226.59
976.78	226.64
977.07	226.66
977.37	226.68
977.66	226.70
977.95	226.69
978.24	226.71
978.54	226.78
978.83	226.78
979.12	226.80
979.42	226.80
979.71	226.81
980.00	226.80
980.29	226.83
980.59	226.82
980.88	226.83
981.17	226.84
981.46	226.84
981.76	226.81
982.05	226.86
982.34	226.87
982.63	226.87
982.93	226.89
983.22	226.89
983.51	226.91
983.80	226.93
984.09	226.92
984.39	226.90
984.68	226.87
984.97	226.89
985.26	226.91
985.55	226.93
985.85	226.91
986.14	226.91
986.43	226.94
986.72	226.93
987.01	226.91
987.30	226.89
987.59	226.88
987.89	226.89
988.18	226.85
988.47	226.86
988.76	226.85
989.05	226.83
989.34	226.83
989.63	226.83
989.92	226.81
990.22	226.82
990.51	226.80
990.80	226.78
991.09	226.76
991.38	226.74
991.67	226.71
991.96	226.68
992.25	226.71
992.54	226.66
992.83	226.66
993.12	226.66
993.41	226.68
993.70	226.72
993.99	226.72
994.28	226.70
994.58	226.70
994.87	226.69
995.16	226.67
995.45	226.67
995.74	226.63
996.03	226.62
996.32	226.61
996.61	226.64
996.90	226.60
997.19	226.62
997.48	226.63
997.77	226.62
998.06	226.66
998.34	226.65
998.63	226.66
998.92	226.64
999.21	226.64
999.50	226.65
999.79	226.59
1000.08	226.60
1000.37	226.60
1000.66	226.57
1000.95	226.57
1001.24	226.57
1001.53	226.57
1001.82	226.59
1002.11	226.56
1002.40	226.58
1002.68	226.58
1002.97	226.66
1003.26	226.61
1003.55	226.59
1003.84	226.60
1004.13	226.58
1004.42	226.55
1004.71	226.54
1004.99	226.53
1005.28	226.54
1005.57	226.51
1005.86	226.52
1006.15	226.52
1006.44	226.54
1006.72	226.57
1007.01	226.55
1007.30	226.57
1007.59	226.55
1007.88	226.51
1008.17	226.54
1008.45	226.51
1008.74	226.46
1009.03	226.45
1009.32	226.49
1009.60	226.50
1009.89	226.50
1010.18	226.50
1010.47	226.51
1010.76	226.50
1011.04	226.51
1011.33	226.54
1011.62	226.53
1011.91	226.55
1012.19	226.58
1012.48	226.53
1012.77	226.52
1013.05	226.58
1013.34	226.57
1013.63	226.57
1013.92	226.62
1014.20	226.61
1014.49	226.66
1014.78	226.68
1015.06	226.64
1015.35	226.66
1015.64	226.67
1015.92	226.68
1016.21	226.71
1016.50	226.72
1016.78	226.75
1017.07	226.79
1017.36	226.76
1017.64	226.78
1017.93	226.77
1018.22	226.75
1018.50	226.82
1018.79	226.83
1019.08	226.80
1019.36	226.81
1019.65	226.85
1019.93	226.89
1020.22	226.92
1020.51	226.95
1020.79	226.95
1021.08	226.79
1021.36	227.24
1021.65	227.16
1021.94	226.66
1022.22	227.00
1022.51	227.39
1022.79	227.57
1023.08	227.11
1023.36	227.86
1023.65	226.74
>>>>>End Processed Spectral Data<<<<<
