SpectraSuite Data File
++++++++++++++++++++++++++++++++++++
Date: Fri Feb 01 17:02:04 EST 2013
User: group
Dark Spectrum Present: No
Reference Spectrum Present: No
Number of Sampled Component Spectra: 1
Spectrometers: USB2E7196
Integration Time (usec): 35000 (USB2E7196)
Spectra Averaged: 100 (USB2E7196)
Boxcar Smoothing: 10 (USB2E7196)
Correct for Electrical Dark: No (USB2E7196)
Strobe/Lamp Enabled: No (USB2E7196)
Correct for Detector Non-linearity: No (USB2E7196)
Correct for Stray Light: No (USB2E7196)
Number of Pixels in Processed Spectrum: 2048
>>>>>Begin Processed Spectral Data<<<<<
339.09	0.00
339.48	213.76
339.86	215.52
340.24	216.22
340.63	217.23
341.01	220.76
341.39	220.36
341.78	221.22
342.16	223.28
342.54	223.13
342.93	211.81
343.31	222.50
343.69	223.00
344.07	223.47
344.46	223.86
344.84	224.25
345.22	224.45
345.60	224.70
345.99	224.92
346.37	225.01
346.75	225.11
347.13	225.16
347.52	225.24
347.90	225.32
348.28	225.35
348.66	225.36
349.05	225.37
349.43	225.42
349.81	225.46
350.19	225.46
350.57	225.53
350.96	225.60
351.34	225.70
351.72	225.81
352.10	225.85
352.48	225.94
352.87	225.98
353.25	226.05
353.63	226.10
354.01	226.14
354.39	226.24
354.77	226.30
355.15	226.41
355.54	226.44
355.92	226.46
356.30	226.51
356.68	226.65
357.06	226.71
357.44	226.79
357.82	226.84
358.20	226.92
358.58	227.00
358.97	227.07
359.35	227.14
359.73	227.20
360.11	227.28
360.49	227.33
360.87	227.38
361.25	227.43
361.63	227.50
362.01	227.54
362.39	227.56
362.77	227.67
363.15	227.70
363.53	227.72
363.91	227.76
364.29	227.77
364.67	227.67
365.05	227.69
365.43	227.72
365.81	227.73
366.19	227.77
366.57	227.76
366.95	227.73
367.33	227.70
367.71	227.69
368.09	227.67
368.47	227.65
368.85	227.61
369.23	227.62
369.61	227.56
369.99	227.56
370.37	227.54
370.75	227.53
371.13	227.48
371.51	227.45
371.89	227.41
372.27	227.37
372.65	227.35
373.03	227.32
373.41	227.26
373.78	227.22
374.16	227.13
374.54	227.08
374.92	227.06
375.30	227.00
375.68	226.92
376.06	226.86
376.44	226.81
376.82	226.81
377.19	226.74
377.57	226.71
377.95	226.63
378.33	226.58
378.71	226.43
379.09	226.37
379.47	226.32
379.84	226.27
380.22	226.23
380.60	226.17
380.98	226.10
381.36	226.05
381.73	225.96
382.11	225.91
382.49	225.86
382.87	225.78
383.25	225.71
383.62	225.80
384.00	225.74
384.38	225.70
384.76	225.66
385.13	225.67
385.51	225.62
385.89	225.55
386.27	225.50
386.64	225.47
387.02	225.45
387.40	225.41
387.78	225.37
388.15	225.35
388.53	225.32
388.91	225.31
389.29	225.26
389.66	225.29
390.04	225.27
390.42	225.26
390.79	225.25
391.17	225.23
391.55	225.09
391.92	225.08
392.30	225.08
392.68	225.05
393.05	225.03
393.43	225.04
393.81	225.04
394.18	225.03
394.56	225.06
394.94	225.12
395.31	225.11
395.69	225.15
396.06	225.13
396.44	225.14
396.82	225.15
397.19	225.26
397.57	225.26
397.95	225.30
398.32	225.33
398.70	225.38
399.07	225.47
399.45	225.52
399.82	225.54
400.20	225.56
400.58	225.60
400.95	225.60
401.33	225.66
401.70	225.77
402.08	225.81
402.45	225.87
402.83	225.95
403.20	226.08
403.58	226.16
403.95	226.30
404.33	226.40
404.71	226.48
405.08	226.60
405.46	226.72
405.83	226.85
406.21	226.99
406.58	227.16
406.96	227.33
407.33	227.51
407.70	227.71
408.08	227.96
408.45	228.16
408.83	228.38
409.20	228.56
409.58	228.77
409.95	229.06
410.33	229.32
410.70	229.56
411.08	229.83
411.45	230.12
411.82	230.42
412.20	230.78
412.57	231.19
412.95	231.48
413.32	231.87
413.69	232.27
414.07	232.69
414.44	233.13
414.82	233.57
415.19	234.10
415.56	234.70
415.94	235.27
416.31	235.94
416.68	236.61
417.06	237.31
417.43	238.01
417.81	238.76
418.18	239.52
418.55	240.34
418.93	241.19
419.30	242.08
419.67	243.03
420.04	243.98
420.42	244.99
420.79	246.16
421.16	247.30
421.54	248.49
421.91	249.70
422.28	250.96
422.66	252.31
423.03	253.58
423.40	254.88
423.77	256.30
424.15	257.68
424.52	259.17
424.89	260.78
425.26	262.32
425.64	263.76
426.01	265.35
426.38	267.01
426.75	268.68
427.13	270.39
427.50	272.14
427.87	274.01
428.24	275.84
428.61	277.58
428.99	279.53
429.36	281.62
429.73	283.67
430.10	285.68
430.47	287.70
430.85	289.79
431.22	292.03
431.59	294.36
431.96	296.58
432.33	299.03
432.70	301.38
433.08	304.18
433.45	306.80
433.82	309.40
434.19	312.24
434.56	315.06
434.93	317.71
435.30	320.34
435.68	323.16
436.05	326.00
436.42	328.75
436.79	331.21
437.16	333.88
437.53	336.69
437.90	339.47
438.27	342.17
438.64	345.00
439.01	347.57
439.38	349.82
439.75	351.98
440.13	354.43
440.50	356.77
440.87	358.57
441.24	360.49
441.61	362.66
441.98	364.14
442.35	365.90
442.72	367.76
443.09	369.53
443.46	370.57
443.83	371.14
444.20	371.64
444.57	372.50
444.94	372.80
445.31	373.15
445.68	373.53
446.05	373.65
446.42	373.30
446.79	372.88
447.16	372.41
447.53	372.09
447.90	370.98
448.27	369.84
448.64	368.31
449.01	367.22
449.37	365.28
449.74	363.44
450.11	361.23
450.48	358.80
450.85	356.30
451.22	354.16
451.59	352.16
451.96	350.24
452.33	347.69
452.70	345.40
453.07	342.59
453.43	339.69
453.80	336.93
454.17	334.29
454.54	331.78
454.91	329.09
455.28	326.45
455.65	324.00
456.02	321.59
456.38	319.45
456.75	316.81
457.12	314.57
457.49	312.36
457.86	310.22
458.23	308.38
458.59	306.37
458.96	304.32
459.33	302.51
459.70	300.73
460.07	299.21
460.43	297.45
460.80	295.83
461.17	294.43
461.54	292.95
461.91	291.50
462.27	290.08
462.64	288.87
463.01	287.52
463.38	286.23
463.74	284.86
464.11	283.73
464.48	282.70
464.85	281.58
465.21	280.72
465.58	279.80
465.95	278.69
466.32	277.79
466.68	276.91
467.05	276.03
467.42	275.12
467.78	274.20
468.15	273.32
468.52	272.67
468.88	271.83
469.25	271.08
469.62	270.50
469.98	269.82
470.35	269.16
470.72	268.56
471.08	267.91
471.45	267.37
471.82	266.84
472.18	266.23
472.55	265.86
472.92	265.33
473.28	264.88
473.65	264.46
474.02	264.05
474.38	263.71
474.75	263.37
475.11	263.00
475.48	262.74
475.85	262.56
476.21	262.30
476.58	262.14
476.94	262.03
477.31	261.80
477.67	261.66
478.04	261.58
478.41	261.51
478.77	261.56
479.14	261.52
479.50	261.53
479.87	261.61
480.23	261.65
480.60	261.71
480.96	261.79
481.33	261.99
481.69	262.19
482.06	262.37
482.42	262.58
482.79	262.84
483.15	263.16
483.52	263.54
483.88	263.95
484.25	264.32
484.61	264.74
484.98	265.23
485.34	265.81
485.71	266.38
486.07	267.03
486.44	267.60
486.80	268.29
487.17	269.03
487.53	269.84
487.90	270.71
488.26	271.69
488.62	272.69
488.99	273.67
489.35	274.69
489.72	275.82
490.08	277.01
490.44	278.30
490.81	279.64
491.17	280.98
491.54	282.43
491.90	283.97
492.26	285.61
492.63	287.35
492.99	289.14
493.36	291.03
493.72	293.06
494.08	295.13
494.45	297.37
494.81	299.72
495.17	302.15
495.54	304.74
495.90	307.41
496.26	310.19
496.63	313.13
496.99	316.27
497.35	319.54
497.72	322.96
498.08	326.42
498.44	330.09
498.80	334.05
499.17	338.09
499.53	342.21
499.89	346.58
500.26	351.08
500.62	355.66
500.98	360.63
501.34	365.64
501.71	370.98
502.07	376.40
502.43	381.99
502.79	387.82
503.16	393.82
503.52	400.04
503.88	406.38
504.24	412.95
504.60	419.79
504.97	426.83
505.33	434.04
505.69	441.71
506.05	449.43
506.41	457.22
506.78	465.25
507.14	473.61
507.50	482.23
507.86	491.16
508.22	500.35
508.59	509.48
508.95	518.97
509.31	528.71
509.67	538.69
510.03	548.78
510.39	559.18
510.75	569.88
511.12	580.64
511.48	591.80
511.84	603.10
512.20	614.44
512.56	626.25
512.92	638.31
513.28	650.49
513.64	662.81
514.00	675.35
514.37	688.20
514.73	701.11
515.09	713.96
515.45	726.93
515.81	740.24
516.17	754.01
516.53	767.93
516.89	781.88
517.25	795.89
517.61	810.15
517.97	824.43
518.33	838.56
518.69	853.09
519.05	867.86
519.41	882.78
519.77	897.99
520.13	913.08
520.49	928.13
520.85	943.21
521.21	958.54
521.57	974.41
521.93	989.80
522.29	1005.87
522.65	1021.78
523.01	1037.78
523.37	1053.53
523.73	1069.33
524.09	1085.16
524.45	1101.10
524.81	1117.47
525.17	1133.81
525.53	1150.28
525.89	1166.86
526.25	1183.45
526.61	1199.56
526.97	1215.94
527.33	1232.13
527.68	1248.45
528.04	1264.64
528.40	1280.92
528.76	1297.60
529.12	1313.99
529.48	1330.52
529.84	1346.10
530.20	1362.33
530.56	1378.93
530.91	1396.00
531.27	1412.53
531.63	1428.55
531.99	1444.76
532.35	1460.30
532.71	1475.95
533.07	1491.82
533.42	1507.41
533.78	1523.05
534.14	1538.90
534.50	1553.89
534.86	1569.32
535.21	1584.27
535.57	1599.75
535.93	1614.84
536.29	1629.41
536.65	1643.88
537.00	1658.34
537.36	1673.43
537.72	1687.70
538.08	1701.84
538.44	1715.29
538.79	1729.00
539.15	1742.33
539.51	1755.79
539.87	1769.70
540.22	1783.16
540.58	1796.63
540.94	1809.66
541.29	1822.24
541.65	1834.64
542.01	1847.64
542.37	1859.87
542.72	1871.92
543.08	1883.69
543.44	1895.82
543.79	1906.73
544.15	1917.57
544.51	1928.97
544.87	1939.70
545.22	1950.22
545.58	1960.25
545.94	1969.86
546.29	1979.36
546.65	1989.17
547.01	1998.29
547.36	2006.98
547.72	2015.33
548.07	2022.95
548.43	2030.91
548.79	2038.76
549.14	2046.17
549.50	2053.17
549.86	2060.70
550.21	2067.97
550.57	2074.91
550.92	2081.47
551.28	2088.47
551.64	2095.51
551.99	2101.87
552.35	2107.99
552.70	2114.19
553.06	2120.11
553.41	2126.39
553.77	2132.27
554.13	2138.23
554.48	2144.42
554.84	2149.88
555.19	2154.97
555.55	2160.44
555.90	2164.85
556.26	2169.82
556.61	2174.56
556.97	2179.12
557.32	2183.14
557.68	2187.30
558.03	2191.65
558.39	2195.41
558.74	2200.20
559.10	2204.15
559.45	2208.01
559.81	2212.22
560.16	2216.23
560.52	2219.56
560.87	2223.09
561.23	2225.83
561.58	2228.86
561.94	2231.28
562.29	2233.50
562.64	2236.34
563.00	2238.99
563.35	2242.60
563.71	2245.80
564.06	2249.10
564.42	2252.14
564.77	2254.92
565.12	2257.37
565.48	2259.36
565.83	2261.37
566.19	2262.81
566.54	2263.83
566.89	2265.14
567.25	2265.97
567.60	2267.26
567.96	2269.14
568.31	2269.99
568.66	2271.39
569.02	2272.22
569.37	2272.79
569.72	2274.04
570.08	2274.49
570.43	2274.44
570.78	2274.33
571.14	2272.97
571.49	2271.81
571.84	2271.67
572.20	2270.76
572.55	2269.89
572.90	2268.42
573.26	2267.24
573.61	2265.58
573.96	2264.13
574.31	2261.37
574.67	2258.72
575.02	2255.25
575.37	2252.03
575.72	2248.69
576.08	2245.52
576.43	2242.23
576.78	2238.88
577.13	2235.92
577.49	2232.98
577.84	2229.93
578.19	2226.21
578.54	2223.03
578.90	2219.14
579.25	2213.77
579.60	2209.02
579.95	2204.28
580.30	2199.68
580.66	2194.77
581.01	2190.09
581.36	2185.32
581.71	2181.24
582.06	2176.99
582.42	2172.89
582.77	2167.93
583.12	2163.51
583.47	2158.97
583.82	2154.33
584.17	2149.23
584.53	2143.90
584.88	2138.59
585.23	2133.03
585.58	2127.74
585.93	2122.29
586.28	2117.70
586.63	2112.78
586.98	2107.85
587.34	2103.24
587.69	2098.50
588.04	2093.45
588.39	2088.00
588.74	2081.71
589.09	2075.81
589.44	2069.12
589.79	2063.12
590.14	2057.60
590.49	2051.10
590.84	2044.96
591.19	2039.07
591.54	2032.80
591.89	2025.70
592.25	2019.07
592.60	2011.94
592.95	2004.65
593.30	1997.54
593.65	1990.09
594.00	1983.42
594.35	1976.53
594.70	1968.73
595.05	1961.77
595.40	1954.56
595.75	1947.35
596.10	1941.39
596.45	1934.84
596.80	1928.89
597.15	1922.59
597.50	1915.73
597.85	1909.50
598.19	1902.98
598.54	1896.08
598.89	1889.50
599.24	1883.71
599.59	1877.15
599.94	1871.18
600.29	1864.83
600.64	1858.40
600.99	1851.16
601.34	1844.33
601.69	1837.26
602.04	1830.52
602.39	1823.26
602.74	1816.58
603.08	1809.89
603.43	1803.30
603.78	1796.05
604.13	1788.93
604.48	1781.83
604.83	1775.03
605.18	1768.27
605.53	1760.42
605.87	1752.48
606.22	1745.51
606.57	1737.68
606.92	1730.44
607.27	1723.40
607.62	1716.76
607.96	1709.59
608.31	1703.06
608.66	1695.51
609.01	1688.28
609.36	1680.80
609.70	1672.87
610.05	1664.89
610.40	1657.27
610.75	1649.11
611.10	1641.67
611.44	1633.46
611.79	1625.48
612.14	1616.91
612.49	1607.75
612.83	1599.44
613.18	1591.42
613.53	1583.31
613.88	1574.83
614.22	1566.63
614.57	1558.11
614.92	1550.12
615.27	1542.64
615.61	1534.35
615.96	1526.39
616.31	1518.70
616.65	1511.34
617.00	1503.78
617.35	1496.16
617.70	1488.01
618.04	1479.40
618.39	1471.16
618.74	1463.59
619.08	1455.35
619.43	1447.74
619.78	1440.81
620.12	1433.71
620.47	1426.24
620.82	1418.12
621.16	1410.70
621.51	1403.02
621.85	1395.31
622.20	1386.84
622.55	1378.43
622.89	1370.61
623.24	1363.04
623.59	1355.57
623.93	1348.12
624.28	1341.07
624.62	1333.62
624.97	1326.37
625.32	1319.61
625.66	1312.55
626.01	1305.37
626.35	1297.97
626.70	1290.25
627.04	1282.73
627.39	1274.98
627.73	1267.65
628.08	1260.74
628.43	1253.63
628.77	1246.42
629.12	1238.96
629.46	1231.77
629.81	1224.43
630.15	1217.27
630.50	1209.78
630.84	1201.64
631.19	1193.78
631.53	1186.19
631.88	1178.67
632.22	1171.05
632.57	1163.79
632.91	1156.20
633.26	1148.80
633.60	1141.44
633.95	1134.40
634.29	1127.25
634.64	1120.46
634.98	1113.13
635.32	1106.02
635.67	1099.34
636.01	1092.66
636.36	1085.95
636.70	1079.47
637.05	1072.86
637.39	1066.38
637.73	1059.98
638.08	1054.14
638.42	1048.06
638.77	1041.61
639.11	1035.03
639.45	1028.63
639.80	1021.99
640.14	1015.73
640.49	1009.25
640.83	1002.88
641.17	996.66
641.52	990.33
641.86	983.87
642.20	977.99
642.55	971.68
642.89	965.20
643.23	958.67
643.58	952.85
643.92	946.66
644.26	940.71
644.61	934.65
644.95	928.67
645.29	922.12
645.64	915.41
645.98	909.11
646.32	903.24
646.66	897.29
647.01	891.56
647.35	885.84
647.69	879.93
648.04	874.43
648.38	868.71
648.72	862.71
649.06	856.76
649.41	850.86
649.75	844.98
650.09	839.12
650.43	833.41
650.78	827.31
651.12	821.36
651.46	815.66
651.80	810.00
652.14	804.59
652.49	799.35
652.83	794.19
653.17	788.63
653.51	783.02
653.85	777.57
654.20	771.96
654.54	766.01
654.88	760.33
655.22	754.47
655.56	748.78
655.90	743.35
656.25	738.16
656.59	732.79
656.93	727.74
657.27	722.53
657.61	717.11
657.95	712.00
658.29	706.95
658.64	701.75
658.98	696.43
659.32	690.98
659.66	685.67
660.00	680.40
660.34	675.41
660.68	670.54
661.02	665.62
661.36	660.84
661.70	656.36
662.05	652.04
662.39	647.77
662.73	643.32
663.07	639.06
663.41	634.67
663.75	630.31
664.09	625.70
664.43	621.36
664.77	617.21
665.11	612.93
665.45	608.83
665.79	604.70
666.13	600.58
666.47	596.49
666.81	592.49
667.15	588.43
667.49	584.56
667.83	580.74
668.17	576.81
668.51	572.79
668.85	568.74
669.19	564.92
669.53	561.12
669.87	557.29
670.21	553.53
670.55	549.88
670.89	546.45
671.23	543.07
671.57	539.55
671.91	536.06
672.25	532.55
672.58	528.99
672.92	525.61
673.26	522.40
673.60	519.31
673.94	516.18
674.28	513.24
674.62	510.26
674.96	507.12
675.30	504.24
675.64	501.36
675.97	498.60
676.31	495.69
676.65	492.73
676.99	490.05
677.33	487.19
677.67	484.35
678.01	481.30
678.34	478.32
678.68	475.49
679.02	472.70
679.36	470.01
679.70	467.32
680.04	464.58
680.37	461.78
680.71	458.93
681.05	456.26
681.39	453.58
681.73	450.93
682.06	448.47
682.40	445.95
682.74	443.39
683.08	440.83
683.42	438.27
683.75	435.80
684.09	433.21
684.43	430.78
684.77	428.30
685.10	425.93
685.44	423.58
685.78	421.27
686.12	419.00
686.45	416.70
686.79	414.39
687.13	412.18
687.46	410.03
687.80	407.96
688.14	405.76
688.48	403.68
688.81	401.42
689.15	399.24
689.49	397.02
689.82	394.97
690.16	392.90
690.50	390.95
690.83	389.02
691.17	387.02
691.51	385.18
691.84	383.35
692.18	381.48
692.52	379.57
692.85	377.58
693.19	375.76
693.52	373.96
693.86	372.16
694.20	370.39
694.53	368.57
694.87	366.68
695.21	364.90
695.54	363.05
695.88	361.38
696.21	359.63
696.55	358.00
696.88	356.33
697.22	354.69
697.56	353.05
697.89	351.40
698.23	349.81
698.56	348.17
698.90	346.61
699.23	344.96
699.57	343.40
699.90	341.94
700.24	340.34
700.58	338.76
700.91	337.28
701.25	335.83
701.58	334.47
701.92	333.12
702.25	331.72
702.59	330.36
702.92	328.99
703.26	327.69
703.59	326.40
703.93	325.19
704.26	323.97
704.60	322.73
704.93	321.41
705.26	320.17
705.60	318.97
705.93	317.77
706.27	316.71
706.60	315.68
706.94	314.53
707.27	313.42
707.61	312.39
707.94	311.35
708.27	310.27
708.61	309.18
708.94	308.20
709.28	307.23
709.61	306.31
709.94	305.37
710.28	304.37
710.61	303.37
710.95	302.28
711.28	301.32
711.61	300.31
711.95	299.41
712.28	298.45
712.61	297.43
712.95	296.50
713.28	295.64
713.61	294.71
713.95	293.88
714.28	293.02
714.61	292.12
714.95	291.28
715.28	290.40
715.61	289.53
715.95	288.64
716.28	287.81
716.61	286.93
716.95	286.09
717.28	285.33
717.61	284.58
717.94	283.87
718.28	283.09
718.61	282.39
718.94	281.66
719.27	281.00
719.61	280.39
719.94	279.76
720.27	279.02
720.60	278.36
720.94	277.69
721.27	277.11
721.60	276.53
721.93	275.88
722.27	275.33
722.60	274.77
722.93	274.20
723.26	273.64
723.59	273.12
723.93	272.58
724.26	272.01
724.59	271.45
724.92	270.88
725.25	270.36
725.59	269.83
725.92	269.37
726.25	268.86
726.58	268.37
726.91	267.88
727.24	267.43
727.57	266.97
727.91	266.46
728.24	266.00
728.57	265.51
728.90	265.11
729.23	264.61
729.56	264.19
729.89	263.73
730.22	263.25
730.55	262.77
730.89	262.34
731.22	261.90
731.55	261.47
731.88	261.08
732.21	260.67
732.54	260.29
732.87	259.85
733.20	259.44
733.53	259.03
733.86	258.62
734.19	258.19
734.52	257.80
734.85	257.53
735.18	257.12
735.51	256.78
735.84	256.37
736.17	256.04
736.50	255.64
736.83	255.42
737.16	255.09
737.49	254.76
737.82	254.43
738.15	254.10
738.48	253.76
738.81	253.43
739.14	253.09
739.47	252.75
739.80	252.43
740.13	252.14
740.46	251.83
740.79	251.49
741.12	251.19
741.45	250.89
741.78	250.50
742.11	250.21
742.44	249.87
742.77	249.56
743.10	249.27
743.43	248.95
743.75	248.54
744.08	248.39
744.41	248.12
744.74	247.84
745.07	247.57
745.40	247.32
745.73	247.09
746.06	246.81
746.39	246.52
746.71	246.25
747.04	245.94
747.37	245.68
747.70	245.46
748.03	245.22
748.36	245.00
748.68	244.78
749.01	244.51
749.34	244.32
749.67	244.12
750.00	243.87
750.33	243.74
750.65	243.55
750.98	243.19
751.31	242.97
751.64	242.76
751.97	242.59
752.29	242.36
752.62	242.11
752.95	241.90
753.28	241.70
753.60	241.50
753.93	241.33
754.26	241.14
754.59	240.91
754.91	240.70
755.24	240.50
755.57	240.28
755.90	240.10
756.22	239.87
756.55	239.65
756.88	239.46
757.20	239.21
757.53	239.00
757.86	238.83
758.19	238.67
758.51	238.48
758.84	238.25
759.17	238.10
759.49	237.89
759.82	237.78
760.15	237.63
760.47	237.50
760.80	237.36
761.13	237.19
761.45	237.03
761.78	236.90
762.11	236.74
762.43	236.60
762.76	236.47
763.08	236.33
763.41	236.23
763.74	236.09
764.06	235.97
764.39	235.81
764.71	235.64
765.04	235.52
765.37	235.43
765.69	235.35
766.02	235.22
766.34	235.11
766.67	234.95
767.00	234.86
767.32	234.75
767.65	234.68
767.97	234.58
768.30	234.47
768.62	234.36
768.95	234.24
769.27	234.13
769.60	234.06
769.92	233.95
770.25	233.81
770.57	233.70
770.90	233.60
771.22	233.53
771.55	233.47
771.87	233.36
772.20	233.24
772.52	233.21
772.85	233.23
773.17	233.17
773.50	233.07
773.82	232.95
774.15	232.83
774.47	232.67
774.80	232.60
775.12	232.53
775.45	232.41
775.77	232.36
776.09	232.30
776.42	232.22
776.74	232.19
777.07	232.13
777.39	232.08
777.72	232.01
778.04	231.95
778.36	231.86
778.69	231.80
779.01	231.73
779.33	231.56
779.66	231.41
779.98	231.34
780.31	231.28
780.63	231.25
780.95	231.22
781.28	231.16
781.60	231.07
781.92	231.00
782.25	230.96
782.57	230.89
782.89	230.82
783.22	230.77
783.54	230.69
783.86	230.67
784.19	230.60
784.51	230.51
784.83	230.44
785.16	230.36
785.48	230.30
785.80	230.27
786.12	230.24
786.45	230.16
786.77	230.10
787.09	230.06
787.42	229.98
787.74	229.92
788.06	229.91
788.38	229.91
788.71	229.87
789.03	229.83
789.35	229.79
789.67	229.72
789.99	229.66
790.32	229.57
790.64	229.50
790.96	229.53
791.28	229.49
791.61	229.43
791.93	229.42
792.25	229.36
792.57	229.39
792.89	229.31
793.21	229.28
793.54	229.21
793.86	229.14
794.18	229.13
794.50	229.07
794.82	228.99
795.14	228.90
795.47	228.85
795.79	228.80
796.11	228.75
796.43	228.73
796.75	228.68
797.07	228.66
797.39	228.65
797.71	228.54
798.04	228.51
798.36	228.48
798.68	228.45
799.00	228.42
799.32	228.29
799.64	228.31
799.96	228.27
800.28	228.26
800.60	228.24
800.92	228.21
801.24	228.16
801.56	228.18
801.89	228.15
802.21	228.15
802.53	228.12
802.85	228.10
803.17	228.12
803.49	228.06
803.81	228.02
804.13	227.97
804.45	227.94
804.77	227.93
805.09	227.90
805.41	227.81
805.73	227.78
806.05	227.76
806.37	227.71
806.69	227.65
807.01	227.64
807.33	227.66
807.65	227.59
807.97	227.62
808.28	227.54
808.60	227.53
808.92	227.49
809.24	227.53
809.56	227.53
809.88	227.48
810.20	227.49
810.52	227.52
810.84	227.51
811.16	227.49
811.48	227.47
811.80	227.52
812.12	227.55
812.43	227.54
812.75	227.51
813.07	227.52
813.39	227.53
813.71	227.50
814.03	227.45
814.35	227.43
814.67	227.38
814.98	227.42
815.30	227.41
815.62	227.39
815.94	227.33
816.26	227.37
816.58	227.31
816.89	227.30
817.21	227.26
817.53	227.25
817.85	227.23
818.17	227.23
818.48	227.17
818.80	227.20
819.12	227.20
819.44	227.19
819.76	227.15
820.07	227.15
820.39	227.12
820.71	227.15
821.03	227.15
821.34	227.12
821.66	227.08
821.98	227.06
822.30	227.03
822.61	227.06
822.93	226.98
823.25	226.99
823.57	226.97
823.88	226.99
824.20	226.96
824.52	226.95
824.83	226.94
825.15	226.91
825.47	226.88
825.79	226.86
826.10	226.85
826.42	226.79
826.74	226.80
827.05	226.78
827.37	226.73
827.69	226.72
828.00	226.70
828.32	226.69
828.64	226.67
828.95	226.69
829.27	226.67
829.58	226.61
829.90	226.60
830.22	226.60
830.53	226.53
830.85	226.50
831.17	226.48
831.48	226.42
831.80	226.42
832.11	226.41
832.43	226.37
832.75	226.33
833.06	226.42
833.38	226.37
833.69	226.39
834.01	226.38
834.32	226.38
834.64	226.38
834.96	226.36
835.27	226.35
835.59	226.32
835.90	226.25
836.22	226.26
836.53	226.23
836.85	226.19
837.16	226.29
837.48	226.29
837.79	226.30
838.11	226.31
838.42	226.27
838.74	226.27
839.05	226.27
839.37	226.28
839.68	226.20
840.00	226.17
840.31	226.15
840.63	226.14
840.94	226.11
841.26	226.07
841.57	226.05
841.88	226.05
842.20	226.05
842.51	226.06
842.83	226.08
843.14	226.19
843.46	226.16
843.77	226.10
844.08	226.11
844.40	226.08
844.71	226.05
845.03	226.07
845.34	226.03
845.65	226.04
845.97	226.01
846.28	225.99
846.60	226.02
846.91	225.99
847.22	225.97
847.54	225.98
847.85	226.02
848.16	226.03
848.48	225.99
848.79	226.03
849.10	225.99
849.42	225.96
849.73	225.86
850.04	225.88
850.36	225.82
850.67	225.81
850.98	225.79
851.30	225.81
851.61	225.80
851.92	225.80
852.23	225.82
852.55	225.84
852.86	225.86
853.17	225.85
853.49	225.88
853.80	225.93
854.11	225.93
854.42	225.92
854.74	225.90
855.05	225.91
855.36	225.84
855.67	225.87
855.99	225.88
856.30	225.97
856.61	226.00
856.92	226.03
857.23	226.03
857.55	226.03
857.86	226.02
858.17	226.05
858.48	226.04
858.79	226.01
859.11	226.05
859.42	226.07
859.73	226.08
860.04	226.09
860.35	226.05
860.66	226.02
860.98	226.02
861.29	226.06
861.60	226.03
861.91	226.05
862.22	226.04
862.53	226.02
862.84	225.88
863.16	225.90
863.47	225.87
863.78	225.84
864.09	225.83
864.40	225.84
864.71	225.84
865.02	225.85
865.33	225.83
865.64	225.77
865.95	225.75
866.27	225.75
866.58	225.69
866.89	225.69
867.20	225.68
867.51	225.64
867.82	225.60
868.13	225.66
868.44	225.64
868.75	225.67
869.06	225.67
869.37	225.67
869.68	225.62
869.99	225.61
870.30	225.61
870.61	225.61
870.92	225.59
871.23	225.57
871.54	225.59
871.85	225.58
872.16	225.61
872.47	225.58
872.78	225.54
873.09	225.54
873.40	225.52
873.71	225.54
874.02	225.55
874.33	225.55
874.64	225.48
874.95	225.46
875.26	225.42
875.56	225.42
875.87	225.39
876.18	225.40
876.49	225.51
876.80	225.49
877.11	225.47
877.42	225.46
877.73	225.48
878.04	225.46
878.35	225.48
878.66	225.45
878.96	225.47
879.27	225.48
879.58	225.51
879.89	225.51
880.20	225.52
880.51	225.50
880.82	225.49
881.12	225.52
881.43	225.53
881.74	225.51
882.05	225.53
882.36	225.55
882.67	225.57
882.97	225.45
883.28	225.47
883.59	225.44
883.90	225.46
884.21	225.47
884.51	225.44
884.82	225.43
885.13	225.43
885.44	225.40
885.74	225.39
886.05	225.35
886.36	225.35
886.67	225.32
886.98	225.40
887.28	225.43
887.59	225.42
887.90	225.43
888.20	225.45
888.51	225.45
888.82	225.45
889.13	225.44
889.43	225.55
889.74	225.55
890.05	225.56
890.35	225.54
890.66	225.54
890.97	225.56
891.28	225.54
891.58	225.55
891.89	225.56
892.20	225.57
892.50	225.58
892.81	225.58
893.12	225.58
893.42	225.56
893.73	225.54
894.04	225.52
894.34	225.54
894.65	225.52
894.95	225.51
895.26	225.51
895.57	225.58
895.87	225.49
896.18	225.49
896.48	225.50
896.79	225.50
897.10	225.46
897.40	225.46
897.71	225.48
898.01	225.47
898.32	225.45
898.63	225.41
898.93	225.41
899.24	225.40
899.54	225.37
899.85	225.33
900.15	225.32
900.46	225.36
900.76	225.35
901.07	225.36
901.38	225.35
901.68	225.37
901.99	225.27
902.29	225.25
902.60	225.24
902.90	225.25
903.21	225.26
903.51	225.26
903.82	225.25
904.12	225.23
904.43	225.23
904.73	225.24
905.03	225.25
905.34	225.34
905.64	225.35
905.95	225.37
906.25	225.37
906.56	225.37
906.86	225.34
907.17	225.33
907.47	225.31
907.77	225.32
908.08	225.30
908.38	225.32
908.69	225.37
908.99	225.35
909.30	225.33
909.60	225.34
909.90	225.35
910.21	225.33
910.51	225.32
910.81	225.33
911.12	225.32
911.42	225.34
911.73	225.26
912.03	225.28
912.33	225.30
912.64	225.29
912.94	225.30
913.24	225.28
913.55	225.26
913.85	225.27
914.15	225.26
914.46	225.26
914.76	225.28
915.06	225.26
915.37	225.31
915.67	225.31
915.97	225.31
916.27	225.28
916.58	225.30
916.88	225.29
917.18	225.29
917.49	225.39
917.79	225.40
918.09	225.39
918.39	225.40
918.70	225.41
919.00	225.43
919.30	225.46
919.60	225.46
919.91	225.47
920.21	225.49
920.51	225.45
920.81	225.43
921.12	225.43
921.42	225.42
921.72	225.38
922.02	225.39
922.32	225.39
922.63	225.40
922.93	225.45
923.23	225.47
923.53	225.46
923.83	225.43
924.13	225.46
924.44	225.50
924.74	225.53
925.04	225.54
925.34	225.54
925.64	225.55
925.94	225.56
926.24	225.60
926.55	225.62
926.85	225.65
927.15	225.67
927.45	225.65
927.75	225.65
928.05	225.66
928.35	225.64
928.65	225.69
928.95	225.70
929.26	225.67
929.56	225.72
929.86	225.74
930.16	225.67
930.46	225.64
930.76	225.59
931.06	225.52
931.36	225.49
931.66	225.49
931.96	225.47
932.26	225.48
932.56	225.45
932.86	225.45
933.16	225.44
933.46	225.45
933.76	225.46
934.06	225.47
934.36	225.51
934.66	225.51
934.96	225.48
935.26	225.48
935.56	225.45
935.86	225.39
936.16	225.37
936.46	225.35
936.76	225.34
937.06	225.35
937.36	225.34
937.66	225.32
937.96	225.32
938.26	225.29
938.56	225.29
938.86	225.29
939.16	225.26
939.46	225.26
939.76	225.24
940.06	225.21
940.35	225.22
940.65	225.13
940.95	225.18
941.25	225.14
941.55	225.08
941.85	225.10
942.15	225.11
942.45	225.13
942.75	225.11
943.04	225.10
943.34	225.10
943.64	225.10
943.94	225.09
944.24	225.08
944.54	225.08
944.84	225.07
945.13	225.06
945.43	225.07
945.73	225.03
946.03	225.04
946.33	225.03
946.62	225.02
946.92	225.07
947.22	225.04
947.52	225.06
947.82	225.11
948.11	225.10
948.41	225.08
948.71	225.03
949.01	225.03
949.31	225.02
949.60	225.03
949.90	225.03
950.20	225.04
950.50	225.04
950.79	225.02
951.09	225.03
951.39	225.01
951.69	225.01
951.98	225.09
952.28	225.10
952.58	225.09
952.87	225.08
953.17	225.08
953.47	225.09
953.76	225.10
954.06	225.10
954.36	225.07
954.66	225.08
954.95	225.11
955.25	225.16
955.55	225.21
955.84	225.23
956.14	225.25
956.44	225.24
956.73	225.22
957.03	225.25
957.32	225.29
957.62	225.34
957.92	225.38
958.21	225.38
958.51	225.47
958.81	225.54
959.10	225.53
959.40	225.54
959.69	225.58
959.99	225.61
960.29	225.59
960.58	225.62
960.88	225.69
961.17	225.73
961.47	225.75
961.76	225.74
962.06	225.77
962.36	225.78
962.65	225.80
962.95	225.84
963.24	225.82
963.54	225.80
963.83	225.77
964.13	225.74
964.42	225.72
964.72	225.64
965.01	225.63
965.31	225.63
965.60	225.61
965.90	225.66
966.19	225.63
966.49	225.65
966.78	225.64
967.08	225.62
967.37	225.61
967.67	225.58
967.96	225.60
968.26	225.56
968.55	225.60
968.85	225.62
969.14	225.58
969.43	225.61
969.73	225.60
970.02	225.59
970.32	225.59
970.61	225.57
970.91	225.56
971.20	225.58
971.49	225.57
971.79	225.56
972.08	225.49
972.38	225.47
972.67	225.45
972.96	225.47
973.26	225.44
973.55	225.44
973.85	225.44
974.14	225.39
974.43	225.39
974.73	225.35
975.02	225.31
975.31	225.35
975.61	225.34
975.90	225.31
976.19	225.32
976.49	225.33
976.78	225.32
977.07	225.32
977.37	225.30
977.66	225.31
977.95	225.32
978.24	225.30
978.54	225.33
978.83	225.34
979.12	225.31
979.42	225.31
979.71	225.28
980.00	225.26
980.29	225.29
980.59	225.25
980.88	225.26
981.17	225.28
981.46	225.27
981.76	225.23
982.05	225.26
982.34	225.24
982.63	225.24
982.93	225.23
983.22	225.23
983.51	225.21
983.80	225.22
984.09	225.19
984.39	225.17
984.68	225.15
984.97	225.13
985.26	225.13
985.55	225.12
985.85	225.13
986.14	225.15
986.43	225.14
986.72	225.16
987.01	225.13
987.30	225.11
987.59	225.10
987.89	225.11
988.18	225.07
988.47	225.05
988.76	225.01
989.05	225.00
989.34	224.98
989.63	225.04
989.92	225.05
990.22	225.07
990.51	225.08
990.80	225.07
991.09	225.09
991.38	225.11
991.67	225.11
991.96	225.08
992.25	225.07
992.54	225.07
992.83	225.05
993.12	225.05
993.41	225.07
993.70	225.09
993.99	225.10
994.28	225.13
994.58	225.14
994.87	225.17
995.16	225.21
995.45	225.21
995.74	225.17
996.03	225.17
996.32	225.21
996.61	225.22
996.90	225.22
997.19	225.24
997.48	225.25
997.77	225.24
998.06	225.26
998.34	225.27
998.63	225.27
998.92	225.28
999.21	225.30
999.50	225.31
999.79	225.31
1000.08	225.34
1000.37	225.35
1000.66	225.36
1000.95	225.38
1001.24	225.36
1001.53	225.41
1001.82	225.39
1002.11	225.37
1002.40	225.37
1002.68	225.40
1002.97	225.44
1003.26	225.42
1003.55	225.41
1003.84	225.46
1004.13	225.49
1004.42	225.49
1004.71	225.52
1004.99	225.50
1005.28	225.54
1005.57	225.53
1005.86	225.51
1006.15	225.46
1006.44	225.43
1006.72	225.43
1007.01	225.40
1007.30	225.42
1007.59	225.37
1007.88	225.37
1008.17	225.39
1008.45	225.36
1008.74	225.31
1009.03	225.27
1009.32	225.27
1009.60	225.26
1009.89	225.22
1010.18	225.20
1010.47	225.16
1010.76	225.15
1011.04	225.12
1011.33	225.12
1011.62	225.12
1011.91	225.10
1012.19	225.11
1012.48	225.12
1012.77	225.14
1013.05	225.17
1013.34	225.16
1013.63	225.16
1013.92	225.15
1014.20	225.15
1014.49	225.13
1014.78	225.15
1015.06	225.11
1015.35	225.10
1015.64	225.11
1015.92	225.12
1016.21	225.10
1016.50	225.12
1016.78	225.12
1017.07	225.15
1017.36	225.13
1017.64	225.08
1017.93	225.08
1018.22	225.09
1018.50	225.09
1018.79	225.06
1019.08	225.04
1019.36	225.04
1019.65	225.04
1019.93	225.04
1020.22	225.04
1020.51	225.12
1020.79	225.10
1021.08	225.23
1021.36	224.86
1021.65	224.72
1021.94	225.80
1022.22	224.80
1022.51	225.11
1022.79	225.13
1023.08	225.25
1023.36	226.46
1023.65	224.82
>>>>>End Processed Spectral Data<<<<<
