SpectraSuite Data File
++++++++++++++++++++++++++++++++++++
Date: Fri Feb 01 16:09:39 EST 2013
User: group
Dark Spectrum Present: No
Reference Spectrum Present: No
Number of Sampled Component Spectra: 1
Spectrometers: USB2E7196
Integration Time (usec): 35000 (USB2E7196)
Spectra Averaged: 100 (USB2E7196)
Boxcar Smoothing: 10 (USB2E7196)
Correct for Electrical Dark: No (USB2E7196)
Strobe/Lamp Enabled: No (USB2E7196)
Correct for Detector Non-linearity: No (USB2E7196)
Correct for Stray Light: No (USB2E7196)
Number of Pixels in Processed Spectrum: 2048
>>>>>Begin Processed Spectral Data<<<<<
339.09	0.00
339.48	214.85
339.86	215.94
340.24	217.04
340.63	218.42
341.01	221.23
341.39	221.84
341.78	222.57
342.16	224.02
342.54	224.03
342.93	212.88
343.31	223.64
343.69	224.15
344.07	224.63
344.46	225.08
344.84	225.51
345.22	225.75
345.60	225.98
345.99	226.17
346.37	226.28
346.75	226.38
347.13	226.45
347.52	226.54
347.90	226.62
348.28	226.63
348.66	226.69
349.05	226.64
349.43	226.70
349.81	226.76
350.19	226.79
350.57	226.86
350.96	226.97
351.34	227.05
351.72	227.15
352.10	227.25
352.48	227.31
352.87	227.33
353.25	227.41
353.63	227.49
354.01	227.55
354.39	227.66
354.77	227.76
355.15	227.86
355.54	227.89
355.92	227.93
356.30	227.99
356.68	228.08
357.06	228.20
357.44	228.25
357.82	228.30
358.20	228.35
358.58	228.45
358.97	228.51
359.35	228.60
359.73	228.66
360.11	228.69
360.49	228.76
360.87	228.81
361.25	228.85
361.63	228.90
362.01	228.99
362.39	229.02
362.77	229.04
363.15	229.09
363.53	229.12
363.91	229.15
364.29	229.18
364.67	229.12
365.05	229.09
365.43	229.07
365.81	229.07
366.19	229.11
366.57	229.10
366.95	229.09
367.33	229.05
367.71	229.03
368.09	229.04
368.47	229.00
368.85	228.98
369.23	228.99
369.61	228.94
369.99	228.90
370.37	228.85
370.75	228.89
371.13	228.79
371.51	228.76
371.89	228.70
372.27	228.66
372.65	228.61
373.03	228.55
373.41	228.48
373.78	228.40
374.16	228.30
374.54	228.20
374.92	228.11
375.30	228.04
375.68	227.98
376.06	227.87
376.44	227.80
376.82	227.74
377.19	227.68
377.57	227.58
377.95	227.47
378.33	227.39
378.71	227.24
379.09	227.20
379.47	227.11
379.84	227.04
380.22	226.97
380.60	226.87
380.98	226.84
381.36	226.79
381.73	226.71
382.11	226.69
382.49	226.66
382.87	226.58
383.25	226.51
383.62	226.56
384.00	226.52
384.38	226.47
384.76	226.40
385.13	226.35
385.51	226.34
385.89	226.32
386.27	226.30
386.64	226.27
387.02	226.23
387.40	226.21
387.78	226.15
388.15	226.13
388.53	226.13
388.91	226.07
389.29	226.06
389.66	226.07
390.04	226.00
390.42	225.96
390.79	225.97
391.17	225.94
391.55	225.82
391.92	225.84
392.30	225.81
392.68	225.80
393.05	225.81
393.43	225.79
393.81	225.79
394.18	225.80
394.56	225.80
394.94	225.84
395.31	225.85
395.69	225.92
396.06	225.94
396.44	225.99
396.82	226.03
397.19	226.11
397.57	226.14
397.95	226.20
398.32	226.26
398.70	226.31
399.07	226.42
399.45	226.48
399.82	226.53
400.20	226.62
400.58	226.70
400.95	226.74
401.33	226.83
401.70	226.98
402.08	227.07
402.45	227.19
402.83	227.30
403.20	227.40
403.58	227.50
403.95	227.68
404.33	227.76
404.71	227.92
405.08	228.09
405.46	228.21
405.83	228.40
406.21	228.54
406.58	228.70
406.96	228.85
407.33	229.05
407.70	229.25
408.08	229.54
408.45	229.76
408.83	229.99
409.20	230.20
409.58	230.38
409.95	230.62
410.33	230.89
410.70	231.12
411.08	231.41
411.45	231.70
411.82	231.99
412.20	232.34
412.57	232.76
412.95	233.03
413.32	233.45
413.69	233.84
414.07	234.28
414.44	234.75
414.82	235.23
415.19	235.77
415.56	236.32
415.94	236.86
416.31	237.52
416.68	238.16
417.06	238.86
417.43	239.54
417.81	240.29
418.18	241.08
418.55	241.92
418.93	242.80
419.30	243.73
419.67	244.65
420.04	245.61
420.42	246.56
420.79	247.71
421.16	248.85
421.54	250.03
421.91	251.24
422.28	252.48
422.66	253.82
423.03	255.12
423.40	256.45
423.77	257.85
424.15	259.25
424.52	260.77
424.89	262.40
425.26	263.92
425.64	265.41
426.01	266.97
426.38	268.62
426.75	270.28
427.13	272.01
427.50	273.81
427.87	275.71
428.24	277.61
428.61	279.37
428.99	281.31
429.36	283.42
429.73	285.44
430.10	287.45
430.47	289.47
430.85	291.57
431.22	293.80
431.59	296.13
431.96	298.36
432.33	300.82
432.70	303.21
433.08	306.04
433.45	308.66
433.82	311.29
434.19	314.22
434.56	316.99
434.93	319.62
435.30	322.26
435.68	325.10
436.05	327.89
436.42	330.72
436.79	333.26
437.16	335.96
437.53	338.86
437.90	341.70
438.27	344.49
438.64	347.30
439.01	349.86
439.38	352.16
439.75	354.36
440.13	356.84
440.50	359.18
440.87	361.03
441.24	362.96
441.61	365.13
441.98	366.60
442.35	368.44
442.72	370.27
443.09	372.05
443.46	373.06
443.83	373.65
444.20	374.16
444.57	374.98
444.94	375.28
445.31	375.60
445.68	375.95
446.05	375.96
446.42	375.57
446.79	375.21
447.16	374.74
447.53	374.38
447.90	373.22
448.27	372.02
448.64	370.42
449.01	369.33
449.37	367.36
449.74	365.48
450.11	363.22
450.48	360.77
450.85	358.27
451.22	356.16
451.59	354.15
451.96	352.23
452.33	349.62
452.70	347.24
453.07	344.42
453.43	341.52
453.80	338.81
454.17	336.18
454.54	333.59
454.91	330.87
455.28	328.24
455.65	325.77
456.02	323.32
456.38	321.24
456.75	318.56
457.12	316.30
457.49	314.08
457.86	311.94
458.23	310.07
458.59	308.01
458.96	305.93
459.33	304.07
459.70	302.15
460.07	300.65
460.43	298.94
460.80	297.30
461.17	295.88
461.54	294.35
461.91	292.92
462.27	291.49
462.64	290.25
463.01	288.83
463.38	287.51
463.74	286.17
464.11	284.95
464.48	283.91
464.85	282.78
465.21	281.90
465.58	280.96
465.95	279.86
466.32	278.92
466.68	278.00
467.05	277.15
467.42	276.28
467.78	275.36
468.15	274.50
468.52	273.83
468.88	272.98
469.25	272.24
469.62	271.57
469.98	270.89
470.35	270.25
470.72	269.70
471.08	269.05
471.45	268.46
471.82	267.97
472.18	267.35
472.55	266.93
472.92	266.41
473.28	265.94
473.65	265.48
474.02	265.10
474.38	264.71
474.75	264.33
475.11	263.97
475.48	263.71
475.85	263.50
476.21	263.27
476.58	263.08
476.94	262.91
477.31	262.78
477.67	262.63
478.04	262.51
478.41	262.43
478.77	262.48
479.14	262.46
479.50	262.44
479.87	262.52
480.23	262.57
480.60	262.63
480.96	262.72
481.33	262.96
481.69	263.14
482.06	263.36
482.42	263.58
482.79	263.86
483.15	264.20
483.52	264.58
483.88	264.92
484.25	265.31
484.61	265.72
484.98	266.19
485.34	266.76
485.71	267.33
486.07	267.96
486.44	268.53
486.80	269.28
487.17	270.04
487.53	270.87
487.90	271.74
488.26	272.70
488.62	273.73
488.99	274.73
489.35	275.75
489.72	276.90
490.08	278.12
490.44	279.36
490.81	280.66
491.17	281.97
491.54	283.48
491.90	285.03
492.26	286.69
492.63	288.42
492.99	290.18
493.36	292.09
493.72	294.14
494.08	296.26
494.45	298.45
494.81	300.80
495.17	303.23
495.54	305.80
495.90	308.49
496.26	311.32
496.63	314.26
496.99	317.43
497.35	320.67
497.72	324.05
498.08	327.60
498.44	331.29
498.80	335.27
499.17	339.30
499.53	343.47
499.89	347.87
500.26	352.43
500.62	357.17
500.98	362.19
501.34	367.26
501.71	372.59
502.07	378.09
502.43	383.74
502.79	389.55
503.16	395.63
503.52	401.89
503.88	408.24
504.24	414.91
504.60	421.80
504.97	428.98
505.33	436.32
505.69	444.03
506.05	451.87
506.41	459.75
506.78	467.96
507.14	476.49
507.50	485.25
507.86	494.23
508.22	503.42
508.59	512.63
508.95	522.21
509.31	532.08
509.67	542.16
510.03	552.48
510.39	563.10
510.75	573.95
511.12	584.94
511.48	596.32
511.84	607.73
512.20	619.26
512.56	631.22
512.92	643.42
513.28	655.80
513.64	668.27
514.00	681.03
514.37	693.97
514.73	706.96
515.09	719.98
515.45	733.23
515.81	746.77
516.17	760.70
516.53	774.89
516.89	789.02
517.25	803.24
517.61	817.62
517.97	832.09
518.33	846.48
518.69	861.15
519.05	876.08
519.41	891.24
519.77	906.73
520.13	922.12
520.49	937.46
520.85	952.69
521.21	968.34
521.57	984.53
521.93	1000.22
522.29	1016.45
522.65	1032.66
523.01	1048.95
523.37	1065.02
523.73	1081.18
524.09	1097.16
524.45	1113.39
524.81	1129.86
525.17	1146.56
525.53	1163.29
525.89	1180.12
526.25	1196.93
526.61	1213.25
526.97	1230.03
527.33	1246.49
527.68	1262.96
528.04	1279.38
528.40	1296.10
528.76	1313.13
529.12	1329.65
529.48	1346.50
529.84	1362.58
530.20	1379.17
530.56	1396.07
530.91	1413.38
531.27	1430.09
531.63	1446.55
531.99	1463.16
532.35	1479.15
532.71	1494.99
533.07	1511.25
533.42	1527.16
533.78	1543.13
534.14	1559.46
534.50	1574.71
534.86	1590.49
535.21	1605.79
535.57	1621.66
535.93	1637.02
536.29	1651.72
536.65	1666.72
537.00	1681.36
537.36	1696.65
537.72	1710.96
538.08	1725.40
538.44	1739.13
538.79	1752.96
539.15	1766.49
539.51	1780.21
539.87	1794.53
540.22	1808.22
540.58	1821.85
540.94	1834.97
541.29	1847.82
541.65	1860.32
542.01	1873.43
542.37	1885.69
542.72	1897.92
543.08	1909.57
543.44	1921.95
543.79	1933.15
544.15	1944.05
544.51	1955.63
544.87	1966.57
545.22	1977.52
545.58	1987.61
545.94	1997.40
546.29	2007.29
546.65	2017.24
547.01	2026.40
547.36	2035.02
547.72	2043.46
548.07	2051.46
548.43	2059.64
548.79	2067.60
549.14	2075.13
549.50	2082.51
549.86	2090.20
550.21	2097.55
550.57	2104.80
550.92	2111.28
551.28	2118.30
551.64	2125.37
551.99	2131.76
552.35	2137.91
552.70	2143.97
553.06	2149.85
553.41	2156.01
553.77	2161.93
554.13	2167.87
554.48	2173.85
554.84	2179.39
555.19	2184.54
555.55	2189.70
555.90	2194.06
556.26	2199.11
556.61	2203.92
556.97	2208.15
557.32	2212.24
557.68	2216.31
558.03	2220.53
558.39	2224.27
558.74	2228.82
559.10	2232.61
559.45	2236.29
559.81	2240.43
560.16	2244.16
560.52	2247.36
560.87	2250.83
561.23	2253.54
561.58	2256.51
561.94	2259.14
562.29	2261.46
562.64	2264.37
563.00	2266.84
563.35	2270.41
563.71	2273.33
564.06	2276.48
564.42	2279.42
564.77	2281.88
565.12	2284.28
565.48	2286.31
565.83	2288.33
566.19	2289.78
566.54	2290.73
566.89	2292.10
567.25	2292.80
567.60	2294.24
567.96	2296.12
568.31	2296.93
568.66	2298.12
569.02	2298.75
569.37	2299.07
569.72	2299.91
570.08	2300.07
570.43	2300.12
570.78	2299.69
571.14	2298.28
571.49	2296.88
571.84	2296.53
572.20	2295.53
572.55	2294.39
572.90	2292.64
573.26	2291.31
573.61	2289.44
573.96	2287.84
574.31	2284.73
574.67	2281.80
575.02	2278.21
575.37	2274.80
575.72	2271.19
576.08	2267.60
576.43	2264.12
576.78	2260.59
577.13	2257.41
577.49	2254.19
577.84	2250.64
578.19	2246.81
578.54	2243.33
578.90	2239.22
579.25	2233.48
579.60	2228.60
579.95	2223.72
580.30	2218.92
580.66	2213.62
581.01	2208.72
581.36	2203.70
581.71	2199.60
582.06	2195.18
582.42	2190.72
582.77	2185.49
583.12	2180.93
583.47	2176.47
583.82	2171.68
584.17	2166.38
584.53	2160.91
584.88	2155.34
585.23	2149.70
585.58	2144.23
585.93	2138.64
586.28	2133.77
586.63	2129.01
586.98	2123.94
587.34	2119.23
587.69	2114.30
588.04	2109.12
588.39	2103.58
588.74	2097.19
589.09	2091.02
589.44	2084.15
589.79	2078.10
590.14	2072.45
590.49	2065.84
590.84	2059.51
591.19	2053.48
591.54	2047.01
591.89	2039.82
592.25	2033.21
592.60	2026.07
592.95	2018.66
593.30	2011.46
593.65	2003.87
594.00	1996.76
594.35	1989.46
594.70	1981.36
595.05	1974.29
595.40	1967.01
595.75	1959.55
596.10	1953.45
596.45	1946.79
596.80	1940.64
597.15	1934.09
597.50	1927.10
597.85	1920.70
598.19	1913.89
598.54	1906.91
598.89	1900.31
599.24	1894.38
599.59	1887.74
599.94	1881.46
600.29	1875.07
600.64	1868.27
600.99	1861.00
601.34	1854.27
601.69	1847.23
602.04	1840.51
602.39	1833.05
602.74	1826.33
603.08	1819.56
603.43	1812.87
603.78	1805.53
604.13	1798.47
604.48	1791.17
604.83	1784.37
605.18	1777.57
605.53	1769.70
605.87	1761.66
606.22	1754.39
606.57	1746.41
606.92	1739.04
607.27	1732.04
607.62	1725.28
607.96	1718.27
608.31	1711.67
608.66	1704.06
609.01	1696.69
609.36	1689.13
609.70	1681.15
610.05	1672.99
610.40	1665.39
610.75	1656.99
611.10	1649.43
611.44	1640.85
611.79	1632.79
612.14	1624.05
612.49	1614.82
612.83	1606.44
613.18	1598.34
613.53	1590.32
613.88	1581.77
614.22	1573.50
614.57	1564.64
614.92	1556.55
615.27	1548.91
615.61	1540.54
615.96	1532.42
616.31	1524.66
616.65	1517.15
617.00	1509.63
617.35	1501.90
617.70	1493.63
618.04	1485.07
618.39	1476.78
618.74	1469.24
619.08	1460.98
619.43	1453.42
619.78	1446.41
620.12	1439.23
620.47	1431.70
620.82	1423.58
621.16	1416.18
621.51	1408.43
621.85	1400.92
622.20	1392.45
622.55	1384.02
622.89	1376.16
623.24	1368.58
623.59	1361.23
623.93	1353.74
624.28	1346.48
624.62	1339.03
624.97	1331.73
625.32	1324.97
625.66	1317.95
626.01	1310.82
626.35	1303.49
626.70	1295.77
627.04	1288.08
627.39	1280.19
627.73	1272.79
628.08	1265.76
628.43	1258.50
628.77	1251.11
629.12	1243.47
629.46	1236.26
629.81	1228.84
630.15	1221.68
630.50	1214.35
630.84	1206.20
631.19	1198.23
631.53	1190.69
631.88	1183.10
632.22	1175.55
632.57	1168.19
632.91	1160.57
633.26	1153.15
633.60	1145.64
633.95	1138.49
634.29	1131.42
634.64	1124.75
634.98	1117.39
635.32	1110.26
635.67	1103.61
636.01	1097.04
636.36	1090.39
636.70	1083.74
637.05	1077.22
637.39	1070.70
637.73	1064.08
638.08	1058.17
638.42	1052.18
638.77	1045.75
639.11	1039.26
639.45	1032.90
639.80	1026.22
640.14	1019.97
640.49	1013.49
640.83	1007.33
641.17	1001.08
641.52	994.74
641.86	988.28
642.20	982.44
642.55	976.06
642.89	969.61
643.23	963.05
643.58	957.23
643.92	951.12
644.26	945.12
644.61	939.09
644.95	933.09
645.29	926.53
645.64	919.85
645.98	913.53
646.32	907.56
646.66	901.49
647.01	895.78
647.35	890.03
647.69	884.13
648.04	878.57
648.38	872.76
648.72	866.84
649.06	860.81
649.41	854.76
649.75	848.89
650.09	842.89
650.43	837.09
650.78	830.90
651.12	824.93
651.46	819.12
651.80	813.36
652.14	807.95
652.49	802.48
652.83	797.26
653.17	791.62
653.51	785.90
653.85	780.43
654.20	774.73
654.54	768.62
654.88	762.86
655.22	756.85
655.56	751.09
655.90	745.63
656.25	740.40
656.59	735.14
656.93	729.99
657.27	724.85
657.61	719.40
657.95	714.33
658.29	709.27
658.64	703.98
658.98	698.58
659.32	693.13
659.66	687.99
660.00	682.69
660.34	677.72
660.68	672.80
661.02	667.82
661.36	663.12
661.70	658.70
662.05	654.38
662.39	650.16
662.73	645.77
663.07	641.34
663.41	636.87
663.75	632.40
664.09	627.80
664.43	623.48
664.77	619.38
665.11	615.14
665.45	610.87
665.79	606.80
666.13	602.76
666.47	598.66
666.81	594.47
667.15	590.34
667.49	586.44
667.83	582.56
668.17	578.57
668.51	574.54
668.85	570.49
669.19	566.57
669.53	562.74
669.87	558.85
670.21	555.11
670.55	551.46
670.89	547.95
671.23	544.58
671.57	540.99
671.91	537.46
672.25	533.90
672.58	530.49
672.92	527.13
673.26	523.92
673.60	520.79
673.94	517.67
674.28	514.78
674.62	511.81
674.96	508.72
675.30	505.83
675.64	502.84
675.97	500.04
676.31	497.21
676.65	494.27
676.99	491.58
677.33	488.75
677.67	485.95
678.01	482.97
678.34	480.03
678.68	477.16
679.02	474.33
679.36	471.60
679.70	468.85
680.04	466.04
680.37	463.17
680.71	460.34
681.05	457.77
681.39	455.06
681.73	452.37
682.06	449.87
682.40	447.35
682.74	444.80
683.08	442.29
683.42	439.62
683.75	437.04
684.09	434.47
684.43	431.98
684.77	429.52
685.10	427.14
685.44	424.78
685.78	422.48
686.12	420.23
686.45	417.91
686.79	415.59
687.13	413.42
687.46	411.30
687.80	409.13
688.14	406.87
688.48	404.81
688.81	402.58
689.15	400.47
689.49	398.28
689.82	396.25
690.16	394.14
690.50	392.20
690.83	390.29
691.17	388.31
691.51	386.41
691.84	384.60
692.18	382.67
692.52	380.72
692.85	378.77
693.19	376.91
693.52	375.09
693.86	373.29
694.20	371.44
694.53	369.60
694.87	367.79
695.21	365.98
695.54	364.13
695.88	362.42
696.21	360.63
696.55	358.95
696.88	357.22
697.22	355.54
697.56	353.91
697.89	352.24
698.23	350.59
698.56	348.96
698.90	347.31
699.23	345.66
699.57	344.11
699.90	342.62
700.24	341.06
700.58	339.57
700.91	338.10
701.25	336.71
701.58	335.37
701.92	334.01
702.25	332.62
702.59	331.27
702.92	329.93
703.26	328.66
703.59	327.40
703.93	326.26
704.26	325.03
704.60	323.77
704.93	322.55
705.26	321.36
705.60	320.20
705.93	319.04
706.27	318.02
706.60	316.97
706.94	315.88
707.27	314.77
707.61	313.66
707.94	312.66
708.27	311.57
708.61	310.47
708.94	309.44
709.28	308.50
709.61	307.52
709.94	306.58
710.28	305.59
710.61	304.59
710.95	303.48
711.28	302.58
711.61	301.65
711.95	300.74
712.28	299.81
712.61	298.86
712.95	297.96
713.28	297.12
713.61	296.19
713.95	295.29
714.28	294.49
714.61	293.65
714.95	292.82
715.28	291.98
715.61	291.12
715.95	290.27
716.28	289.43
716.61	288.59
716.95	287.75
717.28	287.00
717.61	286.25
717.94	285.53
718.28	284.72
718.61	283.98
718.94	283.25
719.27	282.59
719.61	281.95
719.94	281.27
720.27	280.50
720.60	279.84
720.94	279.19
721.27	278.52
721.60	277.95
721.93	277.32
722.27	276.74
722.60	276.16
722.93	275.54
723.26	274.99
723.59	274.43
723.93	273.89
724.26	273.32
724.59	272.74
724.92	272.21
725.25	271.70
725.59	271.13
725.92	270.66
726.25	270.13
726.58	269.59
726.91	269.08
727.24	268.64
727.57	268.18
727.91	267.66
728.24	267.22
728.57	266.71
728.90	266.23
729.23	265.75
729.56	265.36
729.89	264.93
730.22	264.46
730.55	264.01
730.89	263.56
731.22	263.11
731.55	262.67
731.88	262.22
732.21	261.81
732.54	261.43
732.87	261.02
733.20	260.62
733.53	260.29
733.86	259.91
734.19	259.52
734.52	259.16
734.85	258.89
735.18	258.47
735.51	258.14
735.84	257.78
736.17	257.44
736.50	257.01
736.83	256.80
737.16	256.46
737.49	256.13
737.82	255.79
738.15	255.49
738.48	255.16
738.81	254.88
739.14	254.53
739.47	254.21
739.80	253.92
740.13	253.61
740.46	253.26
740.79	252.95
741.12	252.67
741.45	252.33
741.78	251.97
742.11	251.69
742.44	251.36
742.77	251.06
743.10	250.72
743.43	250.42
743.75	250.01
744.08	249.92
744.41	249.65
744.74	249.36
745.07	249.06
745.40	248.86
745.73	248.62
746.06	248.31
746.39	248.03
746.71	247.70
747.04	247.44
747.37	247.18
747.70	246.96
748.03	246.70
748.36	246.47
748.68	246.22
749.01	245.99
749.34	245.77
749.67	245.55
750.00	245.37
750.33	245.22
750.65	245.01
750.98	244.59
751.31	244.32
751.64	244.13
751.97	243.98
752.29	243.70
752.62	243.47
752.95	243.28
753.28	243.08
753.60	242.89
753.93	242.70
754.26	242.50
754.59	242.22
754.91	241.97
755.24	241.79
755.57	241.59
755.90	241.39
756.22	241.21
756.55	241.00
756.88	240.78
757.20	240.55
757.53	240.32
757.86	240.19
758.19	240.05
758.51	239.88
758.84	239.62
759.17	239.45
759.49	239.30
759.82	239.20
760.15	239.05
760.47	238.89
760.80	238.71
761.13	238.59
761.45	238.45
761.78	238.31
762.11	238.15
762.43	238.02
762.76	237.88
763.08	237.69
763.41	237.60
763.74	237.47
764.06	237.34
764.39	237.23
764.71	237.08
765.04	236.92
765.37	236.78
765.69	236.69
766.02	236.60
766.34	236.43
766.67	236.25
767.00	236.16
767.32	236.12
767.65	236.07
767.97	235.92
768.30	235.84
768.62	235.72
768.95	235.59
769.27	235.49
769.60	235.38
769.92	235.29
770.25	235.12
770.57	235.03
770.90	234.89
771.22	234.77
771.55	234.70
771.87	234.61
772.20	234.50
772.52	234.48
772.85	234.47
773.17	234.38
773.50	234.32
773.82	234.19
774.15	234.03
774.47	233.86
774.80	233.80
775.12	233.71
775.45	233.67
775.77	233.60
776.09	233.50
776.42	233.45
776.74	233.42
777.07	233.33
777.39	233.26
777.72	233.23
778.04	233.21
778.36	233.11
778.69	233.11
779.01	233.08
779.33	232.95
779.66	232.81
779.98	232.77
780.31	232.72
780.63	232.68
780.95	232.67
781.28	232.65
781.60	232.57
781.92	232.51
782.25	232.44
782.57	232.40
782.89	232.38
783.22	232.31
783.54	232.25
783.86	232.24
784.19	232.16
784.51	232.12
784.83	232.03
785.16	231.96
785.48	231.89
785.80	231.84
786.12	231.77
786.45	231.69
786.77	231.63
787.09	231.57
787.42	231.54
787.74	231.45
788.06	231.41
788.38	231.35
788.71	231.34
789.03	231.28
789.35	231.26
789.67	231.19
789.99	231.13
790.32	231.06
790.64	231.02
790.96	231.05
791.28	230.98
791.61	230.97
791.93	230.94
792.25	230.86
792.57	230.90
792.89	230.83
793.21	230.81
793.54	230.77
793.86	230.73
794.18	230.72
794.50	230.68
794.82	230.62
795.14	230.58
795.47	230.56
795.79	230.54
796.11	230.49
796.43	230.47
796.75	230.43
797.07	230.41
797.39	230.37
797.71	230.27
798.04	230.24
798.36	230.19
798.68	230.19
799.00	230.14
799.32	230.07
799.64	230.06
799.96	230.04
800.28	230.05
800.60	229.99
800.92	229.93
801.24	229.91
801.56	229.90
801.89	229.88
802.21	229.80
802.53	229.75
802.85	229.72
803.17	229.65
803.49	229.61
803.81	229.56
804.13	229.51
804.45	229.47
804.77	229.42
805.09	229.39
805.41	229.34
805.73	229.32
806.05	229.27
806.37	229.25
806.69	229.22
807.01	229.14
807.33	229.14
807.65	229.05
807.97	229.08
808.28	229.00
808.60	228.98
808.92	228.96
809.24	228.99
809.56	228.91
809.88	228.90
810.20	228.88
810.52	228.90
810.84	228.89
811.16	228.87
811.48	228.85
811.80	228.87
812.12	228.82
812.43	228.85
812.75	228.85
813.07	228.80
813.39	228.77
813.71	228.75
814.03	228.69
814.35	228.70
814.67	228.64
814.98	228.62
815.30	228.61
815.62	228.58
815.94	228.49
816.26	228.54
816.58	228.45
816.89	228.45
817.21	228.39
817.53	228.36
817.85	228.34
818.17	228.35
818.48	228.31
818.80	228.32
819.12	228.26
819.44	228.20
819.76	228.20
820.07	228.15
820.39	228.14
820.71	228.14
821.03	228.10
821.34	228.09
821.66	228.14
821.98	228.12
822.30	228.12
822.61	228.16
822.93	228.14
823.25	228.15
823.57	228.14
823.88	228.18
824.20	228.19
824.52	228.17
824.83	228.17
825.15	228.13
825.47	228.12
825.79	228.12
826.10	228.10
826.42	228.09
826.74	228.13
827.05	228.12
827.37	228.12
827.69	228.13
828.00	228.07
828.32	228.03
828.64	228.01
828.95	228.04
829.27	228.02
829.58	227.97
829.90	227.99
830.22	227.98
830.53	227.92
830.85	227.90
831.17	227.86
831.48	227.85
831.80	227.83
832.11	227.80
832.43	227.76
832.75	227.75
833.06	227.78
833.38	227.76
833.69	227.73
834.01	227.73
834.32	227.72
834.64	227.73
834.96	227.72
835.27	227.70
835.59	227.66
835.90	227.63
836.22	227.62
836.53	227.58
836.85	227.58
837.16	227.63
837.48	227.64
837.79	227.67
838.11	227.63
838.42	227.66
838.74	227.64
839.05	227.66
839.37	227.64
839.68	227.57
840.00	227.54
840.31	227.54
840.63	227.51
840.94	227.54
841.26	227.53
841.57	227.48
841.88	227.47
842.20	227.42
842.51	227.41
842.83	227.38
843.14	227.43
843.46	227.38
843.77	227.34
844.08	227.29
844.40	227.27
844.71	227.27
845.03	227.23
845.34	227.21
845.65	227.16
845.97	227.15
846.28	227.11
846.60	227.08
846.91	227.08
847.22	227.05
847.54	227.02
847.85	227.02
848.16	227.01
848.48	226.99
848.79	227.03
849.10	227.01
849.42	227.01
849.73	226.93
850.04	226.95
850.36	226.93
850.67	226.97
850.98	226.93
851.30	226.92
851.61	226.89
851.92	226.86
852.23	226.91
852.55	226.90
852.86	226.91
853.17	226.94
853.49	226.91
853.80	226.94
854.11	226.95
854.42	226.96
854.74	226.93
855.05	226.94
855.36	226.88
855.67	226.89
855.99	226.88
856.30	227.00
856.61	226.99
856.92	226.98
857.23	226.96
857.55	226.99
857.86	226.97
858.17	227.04
858.48	227.06
858.79	227.06
859.11	227.05
859.42	227.04
859.73	227.02
860.04	227.03
860.35	227.01
860.66	226.99
860.98	226.98
861.29	227.01
861.60	227.02
861.91	227.05
862.22	227.03
862.53	227.02
862.84	226.93
863.16	226.98
863.47	226.94
863.78	226.97
864.09	226.95
864.40	226.94
864.71	226.91
865.02	226.92
865.33	226.91
865.64	226.91
865.95	226.97
866.27	227.04
866.58	227.05
866.89	227.06
867.20	227.05
867.51	227.03
867.82	227.02
868.13	227.02
868.44	227.01
868.75	227.03
869.06	227.04
869.37	227.06
869.68	227.00
869.99	227.02
870.30	226.98
870.61	227.01
870.92	227.02
871.23	227.05
871.54	227.04
871.85	227.05
872.16	227.06
872.47	227.02
872.78	226.95
873.09	226.98
873.40	226.96
873.71	226.96
874.02	226.95
874.33	226.95
874.64	226.94
874.95	226.95
875.26	226.93
875.56	226.92
875.87	226.91
876.18	226.93
876.49	227.02
876.80	227.02
877.11	226.98
877.42	227.00
877.73	227.01
878.04	226.99
878.35	226.97
878.66	226.97
878.96	226.98
879.27	226.99
879.58	226.95
879.89	226.94
880.20	226.95
880.51	226.95
880.82	226.95
881.12	226.93
881.43	226.90
881.74	226.87
882.05	226.85
882.36	226.83
882.67	226.81
882.97	226.68
883.28	226.66
883.59	226.64
883.90	226.62
884.21	226.58
884.51	226.58
884.82	226.56
885.13	226.53
885.44	226.50
885.74	226.51
886.05	226.50
886.36	226.49
886.67	226.46
886.98	226.50
887.28	226.52
887.59	226.51
887.90	226.53
888.20	226.55
888.51	226.59
888.82	226.55
889.13	226.56
889.43	226.65
889.74	226.64
890.05	226.66
890.35	226.64
890.66	226.62
890.97	226.61
891.28	226.60
891.58	226.63
891.89	226.65
892.20	226.63
892.50	226.62
892.81	226.59
893.12	226.56
893.42	226.53
893.73	226.48
894.04	226.50
894.34	226.52
894.65	226.51
894.95	226.47
895.26	226.50
895.57	226.55
895.87	226.48
896.18	226.51
896.48	226.51
896.79	226.50
897.10	226.53
897.40	226.56
897.71	226.60
898.01	226.58
898.32	226.58
898.63	226.58
898.93	226.58
899.24	226.63
899.54	226.67
899.85	226.65
900.15	226.68
900.46	226.69
900.76	226.69
901.07	226.70
901.38	226.75
901.68	226.76
901.99	226.69
902.29	226.70
902.60	226.70
902.90	226.71
903.21	226.73
903.51	226.71
903.82	226.73
904.12	226.70
904.43	226.71
904.73	226.72
905.03	226.74
905.34	226.84
905.64	226.80
905.95	226.79
906.25	226.81
906.56	226.81
906.86	226.77
907.17	226.74
907.47	226.78
907.77	226.73
908.08	226.71
908.38	226.73
908.69	226.73
908.99	226.70
909.30	226.72
909.60	226.72
909.90	226.75
910.21	226.71
910.51	226.73
910.81	226.73
911.12	226.74
911.42	226.76
911.73	226.68
912.03	226.69
912.33	226.72
912.64	226.73
912.94	226.70
913.24	226.72
913.55	226.73
913.85	226.69
914.15	226.71
914.46	226.73
914.76	226.71
915.06	226.74
915.37	226.76
915.67	226.77
915.97	226.75
916.27	226.74
916.58	226.73
916.88	226.71
917.18	226.72
917.49	226.76
917.79	226.75
918.09	226.75
918.39	226.76
918.70	226.74
919.00	226.75
919.30	226.80
919.60	226.80
919.91	226.78
920.21	226.78
920.51	226.78
920.81	226.75
921.12	226.77
921.42	226.72
921.72	226.69
922.02	226.68
922.32	226.71
922.63	226.69
922.93	226.72
923.23	226.72
923.53	226.67
923.83	226.63
924.13	226.61
924.44	226.56
924.74	226.59
925.04	226.60
925.34	226.56
925.64	226.50
925.94	226.48
926.24	226.56
926.55	226.56
926.85	226.59
927.15	226.59
927.45	226.58
927.75	226.59
928.05	226.64
928.35	226.63
928.65	226.62
928.95	226.61
929.26	226.60
929.56	226.62
929.86	226.64
930.16	226.62
930.46	226.62
930.76	226.67
931.06	226.62
931.36	226.58
931.66	226.59
931.96	226.62
932.26	226.65
932.56	226.58
932.86	226.57
933.16	226.55
933.46	226.53
933.76	226.54
934.06	226.58
934.36	226.58
934.66	226.56
934.96	226.57
935.26	226.57
935.56	226.59
935.86	226.55
936.16	226.55
936.46	226.51
936.76	226.50
937.06	226.47
937.36	226.48
937.66	226.49
937.96	226.51
938.26	226.51
938.56	226.47
938.86	226.48
939.16	226.48
939.46	226.51
939.76	226.52
940.06	226.51
940.35	226.48
940.65	226.42
940.95	226.40
941.25	226.36
941.55	226.34
941.85	226.32
942.15	226.34
942.45	226.37
942.75	226.39
943.04	226.42
943.34	226.44
943.64	226.47
943.94	226.46
944.24	226.45
944.54	226.44
944.84	226.49
945.13	226.48
945.43	226.48
945.73	226.46
946.03	226.49
946.33	226.49
946.62	226.49
946.92	226.51
947.22	226.57
947.52	226.59
947.82	226.62
948.11	226.61
948.41	226.62
948.71	226.58
949.01	226.58
949.31	226.56
949.60	226.56
949.90	226.56
950.20	226.56
950.50	226.56
950.79	226.53
951.09	226.52
951.39	226.52
951.69	226.52
951.98	226.54
952.28	226.53
952.58	226.53
952.87	226.52
953.17	226.54
953.47	226.50
953.76	226.51
954.06	226.46
954.36	226.46
954.66	226.46
954.95	226.49
955.25	226.50
955.55	226.49
955.84	226.47
956.14	226.46
956.44	226.44
956.73	226.43
957.03	226.48
957.32	226.47
957.62	226.47
957.92	226.50
958.21	226.48
958.51	226.58
958.81	226.58
959.10	226.60
959.40	226.63
959.69	226.63
959.99	226.63
960.29	226.62
960.58	226.62
960.88	226.64
961.17	226.63
961.47	226.62
961.76	226.65
962.06	226.67
962.36	226.65
962.65	226.70
962.95	226.71
963.24	226.65
963.54	226.65
963.83	226.64
964.13	226.63
964.42	226.61
964.72	226.54
965.01	226.50
965.31	226.47
965.60	226.43
965.90	226.49
966.19	226.48
966.49	226.52
966.78	226.50
967.08	226.49
967.37	226.47
967.67	226.47
967.96	226.47
968.26	226.45
968.55	226.45
968.85	226.45
969.14	226.43
969.43	226.45
969.73	226.42
970.02	226.43
970.32	226.40
970.61	226.39
970.91	226.36
971.20	226.37
971.49	226.37
971.79	226.37
972.08	226.29
972.38	226.29
972.67	226.27
972.96	226.28
973.26	226.28
973.55	226.32
973.85	226.31
974.14	226.31
974.43	226.29
974.73	226.30
975.02	226.28
975.31	226.27
975.61	226.25
975.90	226.27
976.19	226.26
976.49	226.28
976.78	226.28
977.07	226.28
977.37	226.28
977.66	226.30
977.95	226.30
978.24	226.31
978.54	226.32
978.83	226.31
979.12	226.30
979.42	226.29
979.71	226.26
980.00	226.25
980.29	226.22
980.59	226.23
980.88	226.26
981.17	226.25
981.46	226.24
981.76	226.25
982.05	226.29
982.34	226.30
982.63	226.30
982.93	226.30
983.22	226.32
983.51	226.32
983.80	226.34
984.09	226.35
984.39	226.35
984.68	226.31
984.97	226.33
985.26	226.35
985.55	226.35
985.85	226.34
986.14	226.36
986.43	226.40
986.72	226.41
987.01	226.37
987.30	226.38
987.59	226.39
987.89	226.40
988.18	226.37
988.47	226.35
988.76	226.36
989.05	226.37
989.34	226.38
989.63	226.42
989.92	226.37
990.22	226.38
990.51	226.38
990.80	226.40
991.09	226.37
991.38	226.37
991.67	226.35
991.96	226.33
992.25	226.36
992.54	226.33
992.83	226.32
993.12	226.32
993.41	226.35
993.70	226.37
993.99	226.39
994.28	226.40
994.58	226.42
994.87	226.40
995.16	226.40
995.45	226.38
995.74	226.33
996.03	226.39
996.32	226.39
996.61	226.43
996.90	226.45
997.19	226.49
997.48	226.51
997.77	226.53
998.06	226.53
998.34	226.51
998.63	226.51
998.92	226.53
999.21	226.54
999.50	226.52
999.79	226.49
1000.08	226.47
1000.37	226.47
1000.66	226.47
1000.95	226.49
1001.24	226.52
1001.53	226.53
1001.82	226.56
1002.11	226.56
1002.40	226.59
1002.68	226.59
1002.97	226.63
1003.26	226.63
1003.55	226.60
1003.84	226.60
1004.13	226.67
1004.42	226.66
1004.71	226.64
1004.99	226.65
1005.28	226.68
1005.57	226.70
1005.86	226.70
1006.15	226.67
1006.44	226.66
1006.72	226.68
1007.01	226.65
1007.30	226.62
1007.59	226.60
1007.88	226.59
1008.17	226.57
1008.45	226.49
1008.74	226.45
1009.03	226.41
1009.32	226.41
1009.60	226.42
1009.89	226.43
1010.18	226.37
1010.47	226.36
1010.76	226.39
1011.04	226.38
1011.33	226.37
1011.62	226.38
1011.91	226.38
1012.19	226.40
1012.48	226.38
1012.77	226.39
1013.05	226.46
1013.34	226.46
1013.63	226.47
1013.92	226.42
1014.20	226.40
1014.49	226.42
1014.78	226.42
1015.06	226.38
1015.35	226.35
1015.64	226.32
1015.92	226.29
1016.21	226.28
1016.50	226.28
1016.78	226.27
1017.07	226.26
1017.36	226.27
1017.64	226.22
1017.93	226.22
1018.22	226.19
1018.50	226.21
1018.79	226.18
1019.08	226.10
1019.36	226.12
1019.65	226.07
1019.93	226.15
1020.22	226.16
1020.51	226.24
1020.79	226.24
1021.08	225.85
1021.36	225.99
1021.65	226.14
1021.94	226.22
1022.22	226.71
1022.51	225.51
1022.79	226.99
1023.08	226.40
1023.36	227.36
1023.65	226.21
>>>>>End Processed Spectral Data<<<<<
