SpectraSuite Data File
++++++++++++++++++++++++++++++++++++
Date: Fri Feb 01 16:56:52 EST 2013
User: group
Dark Spectrum Present: No
Reference Spectrum Present: No
Number of Sampled Component Spectra: 1
Spectrometers: USB2E7196
Integration Time (usec): 35000 (USB2E7196)
Spectra Averaged: 100 (USB2E7196)
Boxcar Smoothing: 10 (USB2E7196)
Correct for Electrical Dark: No (USB2E7196)
Strobe/Lamp Enabled: No (USB2E7196)
Correct for Detector Non-linearity: No (USB2E7196)
Correct for Stray Light: No (USB2E7196)
Number of Pixels in Processed Spectrum: 2048
>>>>>Begin Processed Spectral Data<<<<<
339.09	0.00
339.48	213.79
339.86	215.19
340.24	216.19
340.63	217.84
341.01	220.88
341.39	219.85
341.78	221.77
342.16	222.97
342.54	223.31
342.93	211.99
343.31	222.71
343.69	223.23
344.07	223.67
344.46	224.10
344.84	224.48
345.22	224.70
345.60	225.00
345.99	225.17
346.37	225.30
346.75	225.40
347.13	225.46
347.52	225.48
347.90	225.50
348.28	225.53
348.66	225.56
349.05	225.56
349.43	225.61
349.81	225.65
350.19	225.66
350.57	225.75
350.96	225.80
351.34	225.88
351.72	225.94
352.10	226.04
352.48	226.10
352.87	226.14
353.25	226.19
353.63	226.24
354.01	226.33
354.39	226.42
354.77	226.46
355.15	226.56
355.54	226.59
355.92	226.63
356.30	226.68
356.68	226.81
357.06	226.90
357.44	226.93
357.82	226.97
358.20	227.02
358.58	227.07
358.97	227.12
359.35	227.18
359.73	227.28
360.11	227.32
360.49	227.36
360.87	227.40
361.25	227.45
361.63	227.47
362.01	227.48
362.39	227.51
362.77	227.60
363.15	227.62
363.53	227.66
363.91	227.67
364.29	227.70
364.67	227.61
365.05	227.63
365.43	227.65
365.81	227.71
366.19	227.77
366.57	227.78
366.95	227.77
367.33	227.76
367.71	227.74
368.09	227.74
368.47	227.73
368.85	227.70
369.23	227.71
369.61	227.66
369.99	227.63
370.37	227.57
370.75	227.57
371.13	227.50
371.51	227.45
371.89	227.41
372.27	227.38
372.65	227.32
373.03	227.29
373.41	227.22
373.78	227.14
374.16	227.03
374.54	226.95
374.92	226.88
375.30	226.79
375.68	226.74
376.06	226.68
376.44	226.65
376.82	226.59
377.19	226.51
377.57	226.48
377.95	226.44
378.33	226.37
378.71	226.22
379.09	226.18
379.47	226.14
379.84	226.05
380.22	225.97
380.60	225.93
380.98	225.87
381.36	225.83
381.73	225.74
382.11	225.70
382.49	225.66
382.87	225.61
383.25	225.59
383.62	225.62
384.00	225.55
384.38	225.47
384.76	225.45
385.13	225.44
385.51	225.39
385.89	225.33
386.27	225.32
386.64	225.33
387.02	225.27
387.40	225.21
387.78	225.21
388.15	225.21
388.53	225.16
388.91	225.11
389.29	225.07
389.66	225.07
390.04	225.02
390.42	225.00
390.79	224.98
391.17	224.96
391.55	224.83
391.92	224.82
392.30	224.85
392.68	224.80
393.05	224.84
393.43	224.83
393.81	224.86
394.18	224.84
394.56	224.87
394.94	224.93
395.31	224.97
395.69	225.03
396.06	225.07
396.44	225.12
396.82	225.15
397.19	225.22
397.57	225.27
397.95	225.34
398.32	225.35
398.70	225.40
399.07	225.48
399.45	225.55
399.82	225.63
400.20	225.68
400.58	225.75
400.95	225.74
401.33	225.85
401.70	225.98
402.08	226.05
402.45	226.15
402.83	226.24
403.20	226.33
403.58	226.39
403.95	226.51
404.33	226.60
404.71	226.72
405.08	226.89
405.46	227.01
405.83	227.17
406.21	227.33
406.58	227.49
406.96	227.63
407.33	227.79
407.70	227.97
408.08	228.24
408.45	228.47
408.83	228.70
409.20	228.90
409.58	229.07
409.95	229.32
410.33	229.57
410.70	229.80
411.08	230.09
411.45	230.38
411.82	230.66
412.20	231.04
412.57	231.43
412.95	231.73
413.32	232.13
413.69	232.51
414.07	232.95
414.44	233.42
414.82	233.88
415.19	234.44
415.56	235.00
415.94	235.53
416.31	236.14
416.68	236.76
417.06	237.46
417.43	238.16
417.81	238.94
418.18	239.73
418.55	240.58
418.93	241.47
419.30	242.38
419.67	243.30
420.04	244.23
420.42	245.22
420.79	246.39
421.16	247.55
421.54	248.73
421.91	249.94
422.28	251.20
422.66	252.59
423.03	253.91
423.40	255.21
423.77	256.59
424.15	258.03
424.52	259.51
424.89	261.12
425.26	262.62
425.64	264.07
426.01	265.61
426.38	267.25
426.75	268.89
427.13	270.62
427.50	272.43
427.87	274.30
428.24	276.17
428.61	277.90
428.99	279.82
429.36	281.93
429.73	284.02
430.10	286.01
430.47	288.00
430.85	290.08
431.22	292.33
431.59	294.69
431.96	296.92
432.33	299.39
432.70	301.75
433.08	304.58
433.45	307.22
433.82	309.83
434.19	312.67
434.56	315.44
434.93	318.05
435.30	320.61
435.68	323.50
436.05	326.28
436.42	329.09
436.79	331.57
437.16	334.21
437.53	336.98
437.90	339.77
438.27	342.47
438.64	345.24
439.01	347.80
439.38	350.04
439.75	352.16
440.13	354.62
440.50	356.92
440.87	358.75
441.24	360.64
441.61	362.78
441.98	364.31
442.35	366.08
442.72	367.99
443.09	369.81
443.46	370.77
443.83	371.36
444.20	371.86
444.57	372.69
444.94	372.99
445.31	373.30
445.68	373.63
446.05	373.69
446.42	373.34
446.79	372.93
447.16	372.46
447.53	372.13
447.90	371.01
448.27	369.85
448.64	368.27
449.01	367.13
449.37	365.18
449.74	363.31
450.11	361.12
450.48	358.66
450.85	356.16
451.22	354.04
451.59	352.02
451.96	350.05
452.33	347.45
452.70	345.11
453.07	342.34
453.43	339.51
453.80	336.74
454.17	334.10
454.54	331.55
454.91	328.82
455.28	326.17
455.65	323.69
456.02	321.29
456.38	319.17
456.75	316.56
457.12	314.32
457.49	312.09
457.86	309.91
458.23	308.02
458.59	306.00
458.96	303.95
459.33	302.14
459.70	300.32
460.07	298.84
460.43	297.14
460.80	295.55
461.17	294.09
461.54	292.66
461.91	291.25
462.27	289.84
462.64	288.65
463.01	287.32
463.38	286.06
463.74	284.68
464.11	283.53
464.48	282.51
464.85	281.42
465.21	280.58
465.58	279.72
465.95	278.68
466.32	277.77
466.68	276.89
467.05	276.04
467.42	275.19
467.78	274.26
468.15	273.42
468.52	272.74
468.88	271.93
469.25	271.17
469.62	270.58
469.98	269.96
470.35	269.35
470.72	268.80
471.08	268.13
471.45	267.63
471.82	267.11
472.18	266.53
472.55	266.09
472.92	265.57
473.28	265.09
473.65	264.64
474.02	264.23
474.38	263.86
474.75	263.52
475.11	263.18
475.48	262.93
475.85	262.70
476.21	262.48
476.58	262.29
476.94	262.15
477.31	262.00
477.67	261.83
478.04	261.72
478.41	261.67
478.77	261.75
479.14	261.70
479.50	261.72
479.87	261.80
480.23	261.89
480.60	261.93
480.96	262.03
481.33	262.17
481.69	262.37
482.06	262.58
482.42	262.79
482.79	263.02
483.15	263.37
483.52	263.78
483.88	264.15
484.25	264.55
484.61	265.01
484.98	265.44
485.34	266.00
485.71	266.59
486.07	267.21
486.44	267.75
486.80	268.46
487.17	269.17
487.53	269.99
487.90	270.86
488.26	271.81
488.62	272.80
488.99	273.81
489.35	274.83
489.72	275.94
490.08	277.13
490.44	278.39
490.81	279.69
491.17	281.05
491.54	282.53
491.90	284.08
492.26	285.70
492.63	287.41
492.99	289.20
493.36	291.06
493.72	293.08
494.08	295.18
494.45	297.43
494.81	299.83
495.17	302.26
495.54	304.83
495.90	307.52
496.26	310.28
496.63	313.25
496.99	316.36
497.35	319.66
497.72	323.04
498.08	326.53
498.44	330.22
498.80	334.13
499.17	338.13
499.53	342.27
499.89	346.60
500.26	351.07
500.62	355.74
500.98	360.69
501.34	365.73
501.71	371.04
502.07	376.43
502.43	381.99
502.79	387.72
503.16	393.75
503.52	399.98
503.88	406.37
504.24	412.97
504.60	419.83
504.97	426.91
505.33	434.20
505.69	441.88
506.05	449.52
506.41	457.29
506.78	465.39
507.14	473.77
507.50	482.41
507.86	491.33
508.22	500.48
508.59	509.57
508.95	519.10
509.31	528.78
509.67	538.76
510.03	548.89
510.39	559.34
510.75	570.06
511.12	580.88
511.48	592.06
511.84	603.47
512.20	614.88
512.56	626.66
512.92	638.71
513.28	650.92
513.64	663.32
514.00	675.94
514.37	688.77
514.73	701.70
515.09	714.59
515.45	727.73
515.81	741.07
516.17	754.92
516.53	768.77
516.89	782.83
517.25	796.84
517.61	811.09
517.97	825.36
518.33	839.50
518.69	854.05
519.05	868.85
519.41	883.68
519.77	898.93
520.13	914.09
520.49	929.25
520.85	944.42
521.21	959.81
521.57	975.71
521.93	991.17
522.29	1007.27
522.65	1023.28
523.01	1039.22
523.37	1054.96
523.73	1070.91
524.09	1086.85
524.45	1102.86
524.81	1119.24
525.17	1135.80
525.53	1152.48
525.89	1169.16
526.25	1185.74
526.61	1201.80
526.97	1218.20
527.33	1234.38
527.68	1250.69
528.04	1266.83
528.40	1283.00
528.76	1299.83
529.12	1316.15
529.48	1332.82
529.84	1348.45
530.20	1364.76
530.56	1381.40
530.91	1398.58
531.27	1414.99
531.63	1431.14
531.99	1447.40
532.35	1462.98
532.71	1478.55
533.07	1494.53
533.42	1510.13
533.78	1525.86
534.14	1541.85
534.50	1556.97
534.86	1572.62
535.21	1587.55
535.57	1603.30
535.93	1618.50
536.29	1632.95
536.65	1647.64
537.00	1662.04
537.36	1677.17
537.72	1691.40
538.08	1705.56
538.44	1719.09
538.79	1732.71
539.15	1746.05
539.51	1759.48
539.87	1773.59
540.22	1787.12
540.58	1800.47
540.94	1813.40
541.29	1826.05
541.65	1838.47
542.01	1851.42
542.37	1863.48
542.72	1875.68
543.08	1887.15
543.44	1899.45
543.79	1910.52
544.15	1921.39
544.51	1932.76
544.87	1943.54
545.22	1954.25
545.58	1964.35
545.94	1974.00
546.29	1983.63
546.65	1993.43
547.01	2002.63
547.36	2011.24
547.72	2019.66
548.07	2027.43
548.43	2035.50
548.79	2043.37
549.14	2050.91
549.50	2058.05
549.86	2065.61
550.21	2072.84
550.57	2079.97
550.92	2086.40
551.28	2093.40
551.64	2100.39
551.99	2106.81
552.35	2112.83
552.70	2118.82
553.06	2124.83
553.41	2131.08
553.77	2137.17
554.13	2143.13
554.48	2149.14
554.84	2154.66
555.19	2159.82
555.55	2165.08
555.90	2169.67
556.26	2174.60
556.61	2179.27
556.97	2183.76
557.32	2187.85
557.68	2191.90
558.03	2196.21
558.39	2199.88
558.74	2204.44
559.10	2208.59
559.45	2212.36
559.81	2216.81
560.16	2220.79
560.52	2224.17
560.87	2227.68
561.23	2230.49
561.58	2233.36
561.94	2235.97
562.29	2238.31
562.64	2241.18
563.00	2243.76
563.35	2247.18
563.71	2250.39
564.06	2253.61
564.42	2256.61
564.77	2259.37
565.12	2262.01
565.48	2264.18
565.83	2266.46
566.19	2268.15
566.54	2268.93
566.89	2270.25
567.25	2270.92
567.60	2272.32
567.96	2274.02
568.31	2274.84
568.66	2276.13
569.02	2276.97
569.37	2277.50
569.72	2278.55
570.08	2278.84
570.43	2279.12
570.78	2278.94
571.14	2277.55
571.49	2276.46
571.84	2276.13
572.20	2275.15
572.55	2274.18
572.90	2272.51
573.26	2271.24
573.61	2269.51
573.96	2268.09
574.31	2265.27
574.67	2262.62
575.02	2259.12
575.37	2256.05
575.72	2252.67
576.08	2249.31
576.43	2246.14
576.78	2242.61
577.13	2239.61
577.49	2236.59
577.84	2233.31
578.19	2229.78
578.54	2226.46
578.90	2222.54
579.25	2217.25
579.60	2212.40
579.95	2207.60
580.30	2202.83
580.66	2197.80
581.01	2192.98
581.36	2188.07
581.71	2184.13
582.06	2179.88
582.42	2175.57
582.77	2170.42
583.12	2166.07
583.47	2161.65
583.82	2157.09
584.17	2152.12
584.53	2146.91
584.88	2141.42
585.23	2135.78
585.58	2130.39
585.93	2125.03
586.28	2120.25
586.63	2115.36
586.98	2110.47
587.34	2105.85
587.69	2101.06
588.04	2095.97
588.39	2090.52
588.74	2084.28
589.09	2078.20
589.44	2071.51
589.79	2065.73
590.14	2060.18
590.49	2053.61
590.84	2047.34
591.19	2041.33
591.54	2035.02
591.89	2027.75
592.25	2021.10
592.60	2013.97
592.95	2006.61
593.30	1999.42
593.65	1992.11
594.00	1985.22
594.35	1978.16
594.70	1970.14
595.05	1963.31
595.40	1955.95
595.75	1948.63
596.10	1942.67
596.45	1936.21
596.80	1930.18
597.15	1923.65
597.50	1916.90
597.85	1910.56
598.19	1904.05
598.54	1897.12
598.89	1890.65
599.24	1884.92
599.59	1878.45
599.94	1872.36
600.29	1866.02
600.64	1859.55
600.99	1852.09
601.34	1845.42
601.69	1838.60
602.04	1832.07
602.39	1824.78
602.74	1818.20
603.08	1811.65
603.43	1804.91
603.78	1797.69
604.13	1790.55
604.48	1783.40
604.83	1776.62
605.18	1769.86
605.53	1761.98
605.87	1754.07
606.22	1746.88
606.57	1738.97
606.92	1731.63
607.27	1724.66
607.62	1717.97
607.96	1710.76
608.31	1704.43
608.66	1696.96
609.01	1689.56
609.36	1682.00
609.70	1674.07
610.05	1666.17
610.40	1658.55
610.75	1650.32
611.10	1642.70
611.44	1634.31
611.79	1626.49
612.14	1617.85
612.49	1608.61
612.83	1600.20
613.18	1592.06
613.53	1584.01
613.88	1575.56
614.22	1567.32
614.57	1558.67
614.92	1550.65
615.27	1543.18
615.61	1534.81
615.96	1526.76
616.31	1518.95
616.65	1511.71
617.00	1504.25
617.35	1496.57
617.70	1488.31
618.04	1480.01
618.39	1471.78
618.74	1464.32
619.08	1455.95
619.43	1448.40
619.78	1441.59
620.12	1434.48
620.47	1426.90
620.82	1418.63
621.16	1411.23
621.51	1403.69
621.85	1396.14
622.20	1387.64
622.55	1379.27
622.89	1371.44
623.24	1363.84
623.59	1356.61
623.93	1349.07
624.28	1341.85
624.62	1334.34
624.97	1327.20
625.32	1320.33
625.66	1313.28
626.01	1306.19
626.35	1298.79
626.70	1290.99
627.04	1283.35
627.39	1275.59
627.73	1268.32
628.08	1261.63
628.43	1254.43
628.77	1247.14
629.12	1239.67
629.46	1232.58
629.81	1225.22
630.15	1218.06
630.50	1210.64
630.84	1202.44
631.19	1194.52
631.53	1186.91
631.88	1179.41
632.22	1171.79
632.57	1164.48
632.91	1156.96
633.26	1149.49
633.60	1142.16
633.95	1135.01
634.29	1127.95
634.64	1121.33
634.98	1114.02
635.32	1106.82
635.67	1100.18
636.01	1093.47
636.36	1086.66
636.70	1080.10
637.05	1073.57
637.39	1067.04
637.73	1060.56
638.08	1054.69
638.42	1048.64
638.77	1042.22
639.11	1035.75
639.45	1029.38
639.80	1022.76
640.14	1016.48
640.49	1010.01
640.83	1003.71
641.17	997.53
641.52	991.25
641.86	984.75
642.20	978.89
642.55	972.52
642.89	966.11
643.23	959.66
643.58	953.97
643.92	947.83
644.26	941.73
644.61	935.70
644.95	929.83
645.29	923.31
645.64	916.66
645.98	910.32
646.32	904.32
646.66	898.29
647.01	892.56
647.35	886.72
647.69	880.87
648.04	875.24
648.38	869.52
648.72	863.57
649.06	857.58
649.41	851.62
649.75	845.76
650.09	839.84
650.43	834.11
650.78	827.91
651.12	821.95
651.46	816.31
651.80	810.61
652.14	805.19
652.49	799.83
652.83	794.72
653.17	789.13
653.51	783.55
653.85	778.22
654.20	772.50
654.54	766.61
654.88	760.80
655.22	754.99
655.56	749.36
655.90	743.93
656.25	738.78
656.59	733.47
656.93	728.34
657.27	723.16
657.61	717.68
657.95	712.56
658.29	707.49
658.64	702.24
658.98	696.92
659.32	691.50
659.66	686.29
660.00	680.96
660.34	676.02
660.68	671.08
661.02	666.00
661.36	661.38
661.70	656.91
662.05	652.66
662.39	648.39
662.73	643.87
663.07	639.48
663.41	635.00
663.75	630.57
664.09	626.09
664.43	621.71
664.77	617.64
665.11	613.44
665.45	609.29
665.79	605.18
666.13	601.14
666.47	597.05
666.81	592.94
667.15	588.80
667.49	584.95
667.83	581.12
668.17	577.25
668.51	573.15
668.85	569.04
669.19	565.17
669.53	561.39
669.87	557.57
670.21	553.82
670.55	550.18
670.89	546.74
671.23	543.27
671.57	539.80
671.91	536.28
672.25	532.76
672.58	529.29
672.92	525.88
673.26	522.73
673.60	519.53
673.94	516.38
674.28	513.51
674.62	510.59
674.96	507.49
675.30	504.57
675.64	501.64
675.97	498.89
676.31	495.98
676.65	493.07
676.99	490.37
677.33	487.51
677.67	484.71
678.01	481.69
678.34	478.76
678.68	475.86
679.02	473.01
679.36	470.26
679.70	467.52
680.04	464.79
680.37	461.91
680.71	459.11
681.05	456.51
681.39	453.78
681.73	451.07
682.06	448.57
682.40	446.01
682.74	443.48
683.08	440.86
683.42	438.32
683.75	435.78
684.09	433.17
684.43	430.76
684.77	428.34
685.10	426.00
685.44	423.64
685.78	421.33
686.12	419.11
686.45	416.80
686.79	414.52
687.13	412.32
687.46	410.13
687.80	408.00
688.14	405.79
688.48	403.71
688.81	401.53
689.15	399.35
689.49	397.20
689.82	395.14
690.16	393.06
690.50	391.13
690.83	389.17
691.17	387.24
691.51	385.29
691.84	383.46
692.18	381.56
692.52	379.63
692.85	377.71
693.19	375.88
693.52	374.10
693.86	372.23
694.20	370.47
694.53	368.67
694.87	366.81
695.21	365.01
695.54	363.19
695.88	361.42
696.21	359.71
696.55	358.04
696.88	356.36
697.22	354.75
697.56	353.11
697.89	351.44
698.23	349.82
698.56	348.24
698.90	346.57
699.23	344.92
699.57	343.37
699.90	341.87
700.24	340.33
700.58	338.83
700.91	337.40
701.25	335.94
701.58	334.56
701.92	333.20
702.25	331.82
702.59	330.48
702.92	329.16
703.26	327.85
703.59	326.59
703.93	325.44
704.26	324.21
704.60	322.86
704.93	321.63
705.26	320.41
705.60	319.24
705.93	318.11
706.27	317.04
706.60	315.97
706.94	314.87
707.27	313.72
707.61	312.66
707.94	311.59
708.27	310.51
708.61	309.44
708.94	308.45
709.28	307.46
709.61	306.47
709.94	305.52
710.28	304.49
710.61	303.49
710.95	302.37
711.28	301.45
711.61	300.53
711.95	299.60
712.28	298.60
712.61	297.58
712.95	296.66
713.28	295.78
713.61	294.89
713.95	294.00
714.28	293.14
714.61	292.23
714.95	291.39
715.28	290.54
715.61	289.67
715.95	288.84
716.28	287.98
716.61	287.15
716.95	286.32
717.28	285.59
717.61	284.82
717.94	284.08
718.28	283.27
718.61	282.57
718.94	281.84
719.27	281.22
719.61	280.57
719.94	279.88
720.27	279.14
720.60	278.45
720.94	277.82
721.27	277.19
721.60	276.61
721.93	276.00
722.27	275.46
722.60	274.90
722.93	274.29
723.26	273.76
723.59	273.19
723.93	272.64
724.26	272.04
724.59	271.48
724.92	271.00
725.25	270.50
725.59	269.95
725.92	269.48
726.25	268.97
726.58	268.49
726.91	268.01
727.24	267.56
727.57	267.09
727.91	266.59
728.24	266.16
728.57	265.69
728.90	265.26
729.23	264.75
729.56	264.29
729.89	263.84
730.22	263.35
730.55	262.90
730.89	262.51
731.22	262.11
731.55	261.68
731.88	261.25
732.21	260.86
732.54	260.44
732.87	260.01
733.20	259.62
733.53	259.26
733.86	258.87
734.19	258.51
734.52	258.17
734.85	257.87
735.18	257.43
735.51	257.06
735.84	256.66
736.17	256.31
736.50	255.97
736.83	255.73
737.16	255.43
737.49	255.10
737.82	254.73
738.15	254.37
738.48	254.04
738.81	253.71
739.14	253.36
739.47	253.07
739.80	252.75
740.13	252.46
740.46	252.11
740.79	251.83
741.12	251.49
741.45	251.17
741.78	250.84
742.11	250.57
742.44	250.22
742.77	249.96
743.10	249.67
743.43	249.37
743.75	249.01
744.08	248.86
744.41	248.60
744.74	248.34
745.07	248.02
745.40	247.77
745.73	247.50
746.06	247.24
746.39	246.97
746.71	246.68
747.04	246.40
747.37	246.14
747.70	245.88
748.03	245.61
748.36	245.35
748.68	245.09
749.01	244.86
749.34	244.66
749.67	244.41
750.00	244.19
750.33	244.00
750.65	243.73
750.98	243.36
751.31	243.11
751.64	242.90
751.97	242.81
752.29	242.58
752.62	242.34
752.95	242.10
753.28	241.83
753.60	241.64
753.93	241.47
754.26	241.28
754.59	241.02
754.91	240.84
755.24	240.62
755.57	240.40
755.90	240.18
756.22	239.96
756.55	239.74
756.88	239.52
757.20	239.30
757.53	239.11
757.86	238.96
758.19	238.81
758.51	238.63
758.84	238.41
759.17	238.21
759.49	238.03
759.82	237.94
760.15	237.77
760.47	237.60
760.80	237.40
761.13	237.25
761.45	237.11
761.78	236.93
762.11	236.82
762.43	236.68
762.76	236.51
763.08	236.40
763.41	236.28
763.74	236.13
764.06	235.97
764.39	235.85
764.71	235.71
765.04	235.54
765.37	235.41
765.69	235.25
766.02	235.10
766.34	235.01
766.67	234.86
767.00	234.79
767.32	234.73
767.65	234.63
767.97	234.52
768.30	234.40
768.62	234.29
768.95	234.17
769.27	234.05
769.60	233.99
769.92	233.87
770.25	233.77
770.57	233.66
770.90	233.55
771.22	233.45
771.55	233.35
771.87	233.29
772.20	233.18
772.52	233.19
772.85	233.26
773.17	233.15
773.50	233.04
773.82	232.95
774.15	232.82
774.47	232.70
774.80	232.62
775.12	232.59
775.45	232.52
775.77	232.45
776.09	232.41
776.42	232.36
776.74	232.34
777.07	232.28
777.39	232.24
777.72	232.14
778.04	232.10
778.36	231.99
778.69	231.93
779.01	231.88
779.33	231.72
779.66	231.51
779.98	231.47
780.31	231.46
780.63	231.48
780.95	231.44
781.28	231.38
781.60	231.32
781.92	231.26
782.25	231.18
782.57	231.12
782.89	231.07
783.22	230.99
783.54	230.88
783.86	230.81
784.19	230.74
784.51	230.75
784.83	230.67
785.16	230.64
785.48	230.58
785.80	230.53
786.12	230.50
786.45	230.48
786.77	230.39
787.09	230.30
787.42	230.17
787.74	230.13
788.06	230.10
788.38	230.03
788.71	229.97
789.03	229.92
789.35	229.90
789.67	229.83
789.99	229.80
790.32	229.77
790.64	229.73
790.96	229.81
791.28	229.75
791.61	229.72
791.93	229.69
792.25	229.66
792.57	229.69
792.89	229.59
793.21	229.58
793.54	229.57
793.86	229.54
794.18	229.50
794.50	229.44
794.82	229.37
795.14	229.30
795.47	229.28
795.79	229.24
796.11	229.14
796.43	229.09
796.75	229.05
797.07	228.98
797.39	228.94
797.71	228.81
798.04	228.79
798.36	228.78
798.68	228.76
799.00	228.72
799.32	228.60
799.64	228.60
799.96	228.53
800.28	228.50
800.60	228.41
800.92	228.38
801.24	228.33
801.56	228.32
801.89	228.29
802.21	228.22
802.53	228.21
802.85	228.17
803.17	228.21
803.49	228.15
803.81	228.12
804.13	228.05
804.45	227.99
804.77	227.92
805.09	227.87
805.41	227.77
805.73	227.76
806.05	227.69
806.37	227.67
806.69	227.64
807.01	227.62
807.33	227.63
807.65	227.60
807.97	227.60
808.28	227.56
808.60	227.54
808.92	227.53
809.24	227.52
809.56	227.51
809.88	227.41
810.20	227.39
810.52	227.35
810.84	227.34
811.16	227.31
811.48	227.30
811.80	227.31
812.12	227.29
812.43	227.24
812.75	227.25
813.07	227.17
813.39	227.18
813.71	227.14
814.03	227.09
814.35	227.06
814.67	227.01
814.98	226.99
815.30	227.00
815.62	226.95
815.94	226.90
816.26	226.93
816.58	226.90
816.89	226.88
817.21	226.86
817.53	226.82
817.85	226.79
818.17	226.77
818.48	226.69
818.80	226.70
819.12	226.69
819.44	226.68
819.76	226.69
820.07	226.66
820.39	226.62
820.71	226.64
821.03	226.62
821.34	226.59
821.66	226.61
821.98	226.59
822.30	226.60
822.61	226.65
822.93	226.60
823.25	226.59
823.57	226.58
823.88	226.61
824.20	226.62
824.52	226.63
824.83	226.63
825.15	226.62
825.47	226.61
825.79	226.60
826.10	226.57
826.42	226.55
826.74	226.56
827.05	226.56
827.37	226.53
827.69	226.50
828.00	226.51
828.32	226.47
828.64	226.42
828.95	226.46
829.27	226.40
829.58	226.36
829.90	226.39
830.22	226.37
830.53	226.32
830.85	226.28
831.17	226.26
831.48	226.23
831.80	226.24
832.11	226.24
832.43	226.22
832.75	226.22
833.06	226.27
833.38	226.20
833.69	226.17
834.01	226.16
834.32	226.17
834.64	226.14
834.96	226.12
835.27	226.16
835.59	226.11
835.90	226.12
836.22	226.12
836.53	226.08
836.85	226.07
837.16	226.17
837.48	226.19
837.79	226.22
838.11	226.24
838.42	226.26
838.74	226.26
839.05	226.25
839.37	226.26
839.68	226.23
840.00	226.27
840.31	226.27
840.63	226.27
840.94	226.27
841.26	226.27
841.57	226.30
841.88	226.28
842.20	226.26
842.51	226.22
842.83	226.21
843.14	226.28
843.46	226.28
843.77	226.22
844.08	226.24
844.40	226.19
844.71	226.18
845.03	226.14
845.34	226.12
845.65	226.14
845.97	226.15
846.28	226.14
846.60	226.15
846.91	226.16
847.22	226.16
847.54	226.16
847.85	226.18
848.16	226.13
848.48	226.11
848.79	226.16
849.10	226.17
849.42	226.20
849.73	226.11
850.04	226.09
850.36	226.04
850.67	226.03
850.98	226.05
851.30	226.05
851.61	226.05
851.92	226.03
852.23	226.05
852.55	226.00
852.86	226.01
853.17	225.99
853.49	226.01
853.80	226.02
854.11	226.02
854.42	226.01
854.74	226.00
855.05	226.01
855.36	225.95
855.67	225.96
855.99	225.96
856.30	226.09
856.61	226.08
856.92	226.09
857.23	226.11
857.55	226.09
857.86	226.08
858.17	226.09
858.48	226.09
858.79	226.03
859.11	226.04
859.42	226.00
859.73	226.01
860.04	225.97
860.35	225.91
860.66	225.88
860.98	225.91
861.29	225.94
861.60	225.90
861.91	225.93
862.22	225.92
862.53	225.88
862.84	225.77
863.16	225.81
863.47	225.79
863.78	225.73
864.09	225.71
864.40	225.72
864.71	225.74
865.02	225.74
865.33	225.72
865.64	225.70
865.95	225.70
866.27	225.75
866.58	225.79
866.89	225.82
867.20	225.84
867.51	225.80
867.82	225.78
868.13	225.82
868.44	225.81
868.75	225.81
869.06	225.80
869.37	225.79
869.68	225.77
869.99	225.80
870.30	225.83
870.61	225.86
870.92	225.85
871.23	225.83
871.54	225.85
871.85	225.89
872.16	225.92
872.47	225.92
872.78	225.84
873.09	225.81
873.40	225.79
873.71	225.79
874.02	225.78
874.33	225.76
874.64	225.76
874.95	225.76
875.26	225.73
875.56	225.71
875.87	225.74
876.18	225.72
876.49	225.79
876.80	225.78
877.11	225.76
877.42	225.76
877.73	225.73
878.04	225.67
878.35	225.69
878.66	225.69
878.96	225.68
879.27	225.67
879.58	225.68
879.89	225.67
880.20	225.69
880.51	225.71
880.82	225.72
881.12	225.68
881.43	225.63
881.74	225.66
882.05	225.65
882.36	225.67
882.67	225.69
882.97	225.60
883.28	225.59
883.59	225.59
883.90	225.60
884.21	225.63
884.51	225.65
884.82	225.61
885.13	225.60
885.44	225.59
885.74	225.61
886.05	225.58
886.36	225.59
886.67	225.56
886.98	225.61
887.28	225.62
887.59	225.64
887.90	225.65
888.20	225.65
888.51	225.65
888.82	225.62
889.13	225.61
889.43	225.68
889.74	225.67
890.05	225.64
890.35	225.64
890.66	225.59
890.97	225.58
891.28	225.58
891.58	225.59
891.89	225.60
892.20	225.59
892.50	225.56
892.81	225.54
893.12	225.54
893.42	225.47
893.73	225.45
894.04	225.43
894.34	225.46
894.65	225.43
894.95	225.42
895.26	225.41
895.57	225.44
895.87	225.32
896.18	225.33
896.48	225.35
896.79	225.30
897.10	225.33
897.40	225.34
897.71	225.33
898.01	225.32
898.32	225.32
898.63	225.31
898.93	225.35
899.24	225.38
899.54	225.40
899.85	225.38
900.15	225.38
900.46	225.41
900.76	225.44
901.07	225.44
901.38	225.45
901.68	225.47
901.99	225.44
902.29	225.47
902.60	225.50
902.90	225.48
903.21	225.49
903.51	225.48
903.82	225.51
904.12	225.52
904.43	225.51
904.73	225.49
905.03	225.49
905.34	225.58
905.64	225.57
905.95	225.54
906.25	225.57
906.56	225.55
906.86	225.52
907.17	225.51
907.47	225.55
907.77	225.54
908.08	225.51
908.38	225.51
908.69	225.53
908.99	225.52
909.30	225.52
909.60	225.54
909.90	225.56
910.21	225.55
910.51	225.57
910.81	225.61
911.12	225.61
911.42	225.63
911.73	225.55
912.03	225.56
912.33	225.59
912.64	225.60
912.94	225.64
913.24	225.63
913.55	225.65
913.85	225.63
914.15	225.66
914.46	225.69
914.76	225.70
915.06	225.69
915.37	225.68
915.67	225.70
915.97	225.74
916.27	225.73
916.58	225.71
916.88	225.71
917.18	225.68
917.49	225.76
917.79	225.74
918.09	225.73
918.39	225.76
918.70	225.77
919.00	225.75
919.30	225.81
919.60	225.80
919.91	225.78
920.21	225.82
920.51	225.79
920.81	225.78
921.12	225.80
921.42	225.80
921.72	225.81
922.02	225.80
922.32	225.78
922.63	225.76
922.93	225.84
923.23	225.85
923.53	225.86
923.83	225.84
924.13	225.83
924.44	225.84
924.74	225.84
925.04	225.85
925.34	225.86
925.64	225.79
925.94	225.79
926.24	225.80
926.55	225.74
926.85	225.77
927.15	225.78
927.45	225.76
927.75	225.75
928.05	225.73
928.35	225.72
928.65	225.74
928.95	225.75
929.26	225.69
929.56	225.67
929.86	225.65
930.16	225.60
930.46	225.60
930.76	225.60
931.06	225.54
931.36	225.48
931.66	225.49
931.96	225.48
932.26	225.50
932.56	225.47
932.86	225.47
933.16	225.44
933.46	225.38
933.76	225.35
934.06	225.36
934.36	225.41
934.66	225.39
934.96	225.35
935.26	225.37
935.56	225.36
935.86	225.30
936.16	225.30
936.46	225.29
936.76	225.27
937.06	225.23
937.36	225.25
937.66	225.30
937.96	225.27
938.26	225.25
938.56	225.22
938.86	225.22
939.16	225.24
939.46	225.23
939.76	225.26
940.06	225.25
940.35	225.22
940.65	225.16
940.95	225.18
941.25	225.17
941.55	225.12
941.85	225.12
942.15	225.17
942.45	225.20
942.75	225.19
943.04	225.20
943.34	225.23
943.64	225.21
943.94	225.17
944.24	225.16
944.54	225.17
944.84	225.18
945.13	225.15
945.43	225.14
945.73	225.15
946.03	225.15
946.33	225.17
946.62	225.18
946.92	225.19
947.22	225.18
947.52	225.20
947.82	225.20
948.11	225.21
948.41	225.17
948.71	225.14
949.01	225.14
949.31	225.15
949.60	225.11
949.90	225.14
950.20	225.14
950.50	225.17
950.79	225.18
951.09	225.19
951.39	225.23
951.69	225.24
951.98	225.25
952.28	225.26
952.58	225.24
952.87	225.26
953.17	225.27
953.47	225.27
953.76	225.27
954.06	225.27
954.36	225.24
954.66	225.27
954.95	225.33
955.25	225.34
955.55	225.38
955.84	225.41
956.14	225.38
956.44	225.42
956.73	225.40
957.03	225.41
957.32	225.42
957.62	225.43
957.92	225.43
958.21	225.43
958.51	225.54
958.81	225.59
959.10	225.58
959.40	225.58
959.69	225.58
959.99	225.58
960.29	225.60
960.58	225.58
960.88	225.60
961.17	225.54
961.47	225.58
961.76	225.56
962.06	225.56
962.36	225.60
962.65	225.56
962.95	225.55
963.24	225.52
963.54	225.51
963.83	225.48
964.13	225.47
964.42	225.42
964.72	225.34
965.01	225.28
965.31	225.28
965.60	225.27
965.90	225.33
966.19	225.28
966.49	225.30
966.78	225.32
967.08	225.28
967.37	225.27
967.67	225.22
967.96	225.22
968.26	225.21
968.55	225.17
968.85	225.17
969.14	225.19
969.43	225.18
969.73	225.18
970.02	225.17
970.32	225.17
970.61	225.15
970.91	225.12
971.20	225.11
971.49	225.10
971.79	225.09
972.08	225.00
972.38	225.01
972.67	224.96
972.96	224.97
973.26	224.97
973.55	224.97
973.85	224.96
974.14	224.94
974.43	224.92
974.73	224.90
975.02	224.90
975.31	224.88
975.61	224.88
975.90	224.88
976.19	224.89
976.49	224.90
976.78	224.92
977.07	224.91
977.37	224.92
977.66	224.90
977.95	224.88
978.24	224.92
978.54	224.96
978.83	224.96
979.12	224.94
979.42	224.92
979.71	224.91
980.00	224.90
980.29	224.94
980.59	224.93
980.88	224.95
981.17	224.93
981.46	224.94
981.76	224.94
982.05	224.96
982.34	224.97
982.63	224.95
982.93	224.95
983.22	225.00
983.51	225.00
983.80	225.06
984.09	225.08
984.39	225.07
984.68	225.06
984.97	225.10
985.26	225.12
985.55	225.16
985.85	225.15
986.14	225.18
986.43	225.15
986.72	225.16
987.01	225.15
987.30	225.18
987.59	225.19
987.89	225.21
988.18	225.19
988.47	225.21
988.76	225.22
989.05	225.21
989.34	225.18
989.63	225.22
989.92	225.24
990.22	225.24
990.51	225.22
990.80	225.21
991.09	225.20
991.38	225.22
991.67	225.19
991.96	225.20
992.25	225.24
992.54	225.23
992.83	225.23
993.12	225.23
993.41	225.25
993.70	225.29
993.99	225.28
994.28	225.31
994.58	225.29
994.87	225.29
995.16	225.31
995.45	225.31
995.74	225.29
996.03	225.27
996.32	225.26
996.61	225.29
996.90	225.28
997.19	225.27
997.48	225.24
997.77	225.26
998.06	225.26
998.34	225.21
998.63	225.23
998.92	225.25
999.21	225.25
999.50	225.22
999.79	225.17
1000.08	225.15
1000.37	225.12
1000.66	225.11
1000.95	225.11
1001.24	225.12
1001.53	225.14
1001.82	225.09
1002.11	225.05
1002.40	225.03
1002.68	225.05
1002.97	225.10
1003.26	225.10
1003.55	225.09
1003.84	225.09
1004.13	225.12
1004.42	225.15
1004.71	225.12
1004.99	225.12
1005.28	225.15
1005.57	225.16
1005.86	225.17
1006.15	225.18
1006.44	225.17
1006.72	225.15
1007.01	225.16
1007.30	225.13
1007.59	225.12
1007.88	225.12
1008.17	225.12
1008.45	225.10
1008.74	225.06
1009.03	225.03
1009.32	225.03
1009.60	225.06
1009.89	225.03
1010.18	224.99
1010.47	224.97
1010.76	224.96
1011.04	224.94
1011.33	225.01
1011.62	225.03
1011.91	225.03
1012.19	225.02
1012.48	225.04
1012.77	225.07
1013.05	225.11
1013.34	225.10
1013.63	225.09
1013.92	225.12
1014.20	225.12
1014.49	225.14
1014.78	225.16
1015.06	225.13
1015.35	225.13
1015.64	225.12
1015.92	225.18
1016.21	225.18
1016.50	225.17
1016.78	225.19
1017.07	225.19
1017.36	225.08
1017.64	225.05
1017.93	225.04
1018.22	225.07
1018.50	225.07
1018.79	225.07
1019.08	225.04
1019.36	225.03
1019.65	225.04
1019.93	225.07
1020.22	225.12
1020.51	225.17
1020.79	225.17
1021.08	225.39
1021.36	225.24
1021.65	225.30
1021.94	225.21
1022.22	224.61
1022.51	225.18
1022.79	225.76
1023.08	225.80
1023.36	226.05
1023.65	225.17
>>>>>End Processed Spectral Data<<<<<
