SpectraSuite Data File
++++++++++++++++++++++++++++++++++++
Date: Fri Feb 01 15:30:40 EST 2013
User: group
Dark Spectrum Present: No
Reference Spectrum Present: No
Number of Sampled Component Spectra: 1
Spectrometers: USB2E7196
Integration Time (usec): 35000 (USB2E7196)
Spectra Averaged: 100 (USB2E7196)
Boxcar Smoothing: 10 (USB2E7196)
Correct for Electrical Dark: No (USB2E7196)
Strobe/Lamp Enabled: No (USB2E7196)
Correct for Detector Non-linearity: No (USB2E7196)
Correct for Stray Light: No (USB2E7196)
Number of Pixels in Processed Spectrum: 2048
>>>>>Begin Processed Spectral Data<<<<<
339.09	0.00
339.48	214.57
339.86	216.63
340.24	218.10
340.63	219.44
341.01	222.43
341.39	221.72
341.78	223.79
342.16	224.94
342.54	225.21
342.93	213.48
343.31	224.26
343.69	224.80
344.07	225.28
344.46	225.74
344.84	226.09
345.22	226.34
345.60	226.59
345.99	226.76
346.37	226.88
346.75	226.99
347.13	227.09
347.52	227.15
347.90	227.23
348.28	227.28
348.66	227.30
349.05	227.29
349.43	227.30
349.81	227.33
350.19	227.37
350.57	227.43
350.96	227.51
351.34	227.63
351.72	227.73
352.10	227.81
352.48	227.87
352.87	227.95
353.25	227.98
353.63	228.06
354.01	228.14
354.39	228.20
354.77	228.27
355.15	228.34
355.54	228.43
355.92	228.47
356.30	228.56
356.68	228.69
357.06	228.78
357.44	228.82
357.82	228.85
358.20	228.94
358.58	229.00
358.97	229.04
359.35	229.06
359.73	229.16
360.11	229.22
360.49	229.24
360.87	229.27
361.25	229.36
361.63	229.44
362.01	229.49
362.39	229.51
362.77	229.55
363.15	229.55
363.53	229.57
363.91	229.58
364.29	229.56
364.67	229.48
365.05	229.49
365.43	229.49
365.81	229.51
366.19	229.53
366.57	229.56
366.95	229.53
367.33	229.53
367.71	229.49
368.09	229.45
368.47	229.41
368.85	229.39
369.23	229.37
369.61	229.27
369.99	229.24
370.37	229.23
370.75	229.20
371.13	229.15
371.51	229.10
371.89	229.06
372.27	229.02
372.65	228.96
373.03	228.89
373.41	228.84
373.78	228.77
374.16	228.64
374.54	228.52
374.92	228.49
375.30	228.42
375.68	228.31
376.06	228.27
376.44	228.21
376.82	228.14
377.19	228.03
377.57	227.99
377.95	227.87
378.33	227.76
378.71	227.62
379.09	227.54
379.47	227.47
379.84	227.35
380.22	227.26
380.60	227.17
380.98	227.10
381.36	227.01
381.73	226.96
382.11	226.89
382.49	226.82
382.87	226.71
383.25	226.66
383.62	226.71
384.00	226.62
384.38	226.56
384.76	226.51
385.13	226.48
385.51	226.42
385.89	226.38
386.27	226.36
386.64	226.36
387.02	226.33
387.40	226.25
387.78	226.23
388.15	226.23
388.53	226.22
388.91	226.20
389.29	226.18
389.66	226.21
390.04	226.22
390.42	226.24
390.79	226.22
391.17	226.19
391.55	226.10
391.92	226.10
392.30	226.13
392.68	226.09
393.05	226.11
393.43	226.10
393.81	226.09
394.18	226.09
394.56	226.09
394.94	226.14
395.31	226.18
395.69	226.24
396.06	226.27
396.44	226.32
396.82	226.34
397.19	226.46
397.57	226.44
397.95	226.53
398.32	226.55
398.70	226.63
399.07	226.69
399.45	226.77
399.82	226.84
400.20	226.91
400.58	227.02
400.95	227.06
401.33	227.18
401.70	227.37
402.08	227.46
402.45	227.56
402.83	227.69
403.20	227.78
403.58	227.88
403.95	228.02
404.33	228.16
404.71	228.29
405.08	228.44
405.46	228.60
405.83	228.74
406.21	228.92
406.58	229.09
406.96	229.26
407.33	229.43
407.70	229.64
408.08	229.89
408.45	230.12
408.83	230.38
409.20	230.61
409.58	230.76
409.95	231.04
410.33	231.34
410.70	231.58
411.08	231.89
411.45	232.20
411.82	232.51
412.20	232.83
412.57	233.25
412.95	233.53
413.32	233.93
413.69	234.35
414.07	234.78
414.44	235.23
414.82	235.72
415.19	236.30
415.56	236.82
415.94	237.36
416.31	237.99
416.68	238.64
417.06	239.33
417.43	240.03
417.81	240.81
418.18	241.57
418.55	242.39
418.93	243.28
419.30	244.20
419.67	245.09
420.04	246.06
420.42	247.08
420.79	248.29
421.16	249.43
421.54	250.61
421.91	251.85
422.28	253.10
422.66	254.42
423.03	255.68
423.40	257.04
423.77	258.47
424.15	259.89
424.52	261.40
424.89	263.02
425.26	264.56
425.64	266.01
426.01	267.61
426.38	269.29
426.75	271.00
427.13	272.75
427.50	274.56
427.87	276.47
428.24	278.31
428.61	280.05
428.99	282.01
429.36	284.14
429.73	286.22
430.10	288.29
430.47	290.37
430.85	292.57
431.22	294.82
431.59	297.21
431.96	299.49
432.33	301.93
432.70	304.32
433.08	307.15
433.45	309.73
433.82	312.33
434.19	315.24
434.56	318.08
434.93	320.71
435.30	323.36
435.68	326.26
436.05	329.11
436.42	331.90
436.79	334.49
437.16	337.20
437.53	340.03
437.90	342.84
438.27	345.59
438.64	348.39
439.01	351.00
439.38	353.24
439.75	355.37
440.13	357.88
440.50	360.22
440.87	362.06
441.24	364.06
441.61	366.22
441.98	367.75
442.35	369.48
442.72	371.36
443.09	373.19
443.46	374.13
443.83	374.72
444.20	375.24
444.57	376.04
444.94	376.34
445.31	376.65
445.68	377.00
446.05	377.07
446.42	376.65
446.79	376.19
447.16	375.77
447.53	375.44
447.90	374.27
448.27	373.12
448.64	371.55
449.01	370.37
449.37	368.43
449.74	366.48
450.11	364.24
450.48	361.74
450.85	359.20
451.22	357.08
451.59	355.09
451.96	353.13
452.33	350.50
452.70	348.14
453.07	345.29
453.43	342.36
453.80	339.60
454.17	336.93
454.54	334.42
454.91	331.64
455.28	328.93
455.65	326.41
456.02	323.93
456.38	321.78
456.75	319.14
457.12	316.85
457.49	314.65
457.86	312.50
458.23	310.62
458.59	308.58
458.96	306.50
459.33	304.62
459.70	302.76
460.07	301.26
460.43	299.50
460.80	297.88
461.17	296.44
461.54	294.93
461.91	293.46
462.27	291.99
462.64	290.76
463.01	289.45
463.38	288.18
463.74	286.84
464.11	285.65
464.48	284.66
464.85	283.56
465.21	282.68
465.58	281.75
465.95	280.67
466.32	279.77
466.68	278.85
467.05	277.94
467.42	277.05
467.78	276.10
468.15	275.21
468.52	274.57
468.88	273.71
469.25	272.98
469.62	272.39
469.98	271.73
470.35	271.07
470.72	270.44
471.08	269.78
471.45	269.18
471.82	268.63
472.18	267.98
472.55	267.53
472.92	267.02
473.28	266.52
473.65	266.07
474.02	265.62
474.38	265.25
474.75	264.94
475.11	264.56
475.48	264.28
475.85	264.02
476.21	263.82
476.58	263.62
476.94	263.42
477.31	263.23
477.67	263.05
478.04	262.92
478.41	262.87
478.77	262.91
479.14	262.89
479.50	262.92
479.87	262.98
480.23	263.04
480.60	263.08
480.96	263.19
481.33	263.38
481.69	263.55
482.06	263.75
482.42	263.90
482.79	264.18
483.15	264.54
483.52	264.92
483.88	265.22
484.25	265.62
484.61	266.08
484.98	266.53
485.34	267.12
485.71	267.74
486.07	268.33
486.44	268.92
486.80	269.62
487.17	270.36
487.53	271.23
487.90	272.10
488.26	273.08
488.62	274.04
488.99	275.04
489.35	276.08
489.72	277.23
490.08	278.45
490.44	279.65
490.81	280.93
491.17	282.33
491.54	283.83
491.90	285.36
492.26	286.99
492.63	288.75
492.99	290.50
493.36	292.41
493.72	294.49
494.08	296.55
494.45	298.81
494.81	301.18
495.17	303.60
495.54	306.17
495.90	308.81
496.26	311.65
496.63	314.60
496.99	317.73
497.35	320.99
497.72	324.39
498.08	327.95
498.44	331.68
498.80	335.61
499.17	339.64
499.53	343.81
499.89	348.26
500.26	352.79
500.62	357.46
500.98	362.39
501.34	367.47
501.71	372.85
502.07	378.24
502.43	383.84
502.79	389.66
503.16	395.70
503.52	401.98
503.88	408.37
504.24	415.02
504.60	421.89
504.97	429.06
505.33	436.38
505.69	444.14
506.05	451.90
506.41	459.77
506.78	467.96
507.14	476.48
507.50	485.19
507.86	494.15
508.22	503.43
508.59	512.65
508.95	522.31
509.31	532.15
509.67	542.26
510.03	552.54
510.39	563.07
510.75	573.91
511.12	584.88
511.48	596.16
511.84	607.57
512.20	619.09
512.56	631.02
512.92	643.23
513.28	655.53
513.64	668.08
514.00	680.82
514.37	693.74
514.73	706.71
515.09	719.72
515.45	733.06
515.81	746.60
516.17	760.69
516.53	774.74
516.89	789.01
517.25	803.26
517.61	817.66
517.97	832.14
518.33	846.66
518.69	861.49
519.05	876.51
519.41	891.72
519.77	907.32
520.13	922.75
520.49	938.16
520.85	953.62
521.21	969.22
521.57	985.56
521.93	1001.43
522.29	1017.87
522.65	1034.15
523.01	1050.47
523.37	1066.54
523.73	1082.68
524.09	1098.83
524.45	1115.08
524.81	1131.75
525.17	1148.66
525.53	1165.62
525.89	1182.45
526.25	1199.28
526.61	1215.71
526.97	1232.51
527.33	1249.03
527.68	1265.70
528.04	1282.18
528.40	1298.80
528.76	1315.94
529.12	1332.53
529.48	1349.48
529.84	1365.59
530.20	1382.31
530.56	1399.27
530.91	1416.73
531.27	1433.60
531.63	1450.11
531.99	1466.75
532.35	1482.74
532.71	1498.70
533.07	1515.08
533.42	1531.12
533.78	1547.09
534.14	1563.54
534.50	1579.02
534.86	1594.93
535.21	1610.07
535.57	1626.12
535.93	1641.79
536.29	1656.75
536.65	1671.84
537.00	1686.63
537.36	1701.98
537.72	1716.52
538.08	1730.97
538.44	1744.75
538.79	1758.63
539.15	1772.41
539.51	1786.15
539.87	1800.60
540.22	1814.42
540.58	1828.13
540.94	1841.50
541.29	1854.70
541.65	1867.42
542.01	1880.66
542.37	1892.87
542.72	1905.46
543.08	1917.25
543.44	1929.56
543.79	1940.83
544.15	1951.82
544.51	1963.39
544.87	1974.54
545.22	1985.33
545.58	1995.57
545.94	2005.43
546.29	2015.31
546.65	2025.14
547.01	2034.46
547.36	2043.18
547.72	2051.54
548.07	2059.50
548.43	2067.69
548.79	2075.73
549.14	2083.21
549.50	2090.67
549.86	2098.60
550.21	2105.93
550.57	2113.14
550.92	2119.75
551.28	2126.86
551.64	2133.99
551.99	2140.56
552.35	2146.63
552.70	2152.87
553.06	2158.92
553.41	2165.29
553.77	2171.37
554.13	2177.47
554.48	2183.54
554.84	2188.99
555.19	2194.38
555.55	2199.46
555.90	2203.97
556.26	2208.75
556.61	2213.43
556.97	2217.61
557.32	2221.51
557.68	2225.71
558.03	2230.07
558.39	2233.86
558.74	2238.46
559.10	2242.36
559.45	2245.99
559.81	2250.27
560.16	2254.21
560.52	2257.57
560.87	2261.00
561.23	2263.65
561.58	2266.71
561.94	2269.23
562.29	2271.75
562.64	2274.51
563.00	2277.29
563.35	2280.70
563.71	2283.82
564.06	2287.22
564.42	2290.02
564.77	2292.64
565.12	2294.78
565.48	2296.48
565.83	2298.32
566.19	2299.50
566.54	2300.44
566.89	2301.51
567.25	2301.98
567.60	2303.26
567.96	2304.84
568.31	2305.60
568.66	2306.60
569.02	2307.06
569.37	2307.45
569.72	2308.14
570.08	2308.07
570.43	2307.88
570.78	2307.23
571.14	2305.60
571.49	2304.14
571.84	2303.74
572.20	2302.46
572.55	2301.38
572.90	2299.94
573.26	2298.47
573.61	2296.82
573.96	2294.83
574.31	2291.84
574.67	2288.83
575.02	2285.13
575.37	2281.66
575.72	2277.83
576.08	2274.49
576.43	2271.10
576.78	2267.35
577.13	2264.16
577.49	2261.09
577.84	2257.53
578.19	2253.79
578.54	2250.03
578.90	2245.61
579.25	2240.06
579.60	2235.19
579.95	2230.20
580.30	2225.04
580.66	2219.72
581.01	2214.68
581.36	2209.75
581.71	2205.57
582.06	2201.14
582.42	2196.58
582.77	2191.14
583.12	2186.39
583.47	2181.67
583.82	2176.34
584.17	2170.90
584.53	2165.14
584.88	2159.42
585.23	2153.59
585.58	2148.01
585.93	2142.75
586.28	2137.93
586.63	2132.69
586.98	2127.48
587.34	2122.74
587.69	2117.88
588.04	2112.66
588.39	2106.97
588.74	2100.38
589.09	2094.25
589.44	2087.28
589.79	2081.09
590.14	2075.54
590.49	2069.08
590.84	2062.61
591.19	2056.65
591.54	2050.37
591.89	2043.00
592.25	2036.14
592.60	2028.96
592.95	2021.34
593.30	2013.75
593.65	2006.11
594.00	1999.04
594.35	1991.86
594.70	1983.60
595.05	1976.17
595.40	1968.79
595.75	1961.20
596.10	1954.94
596.45	1947.96
596.80	1941.80
597.15	1935.17
597.50	1927.97
597.85	1921.39
598.19	1914.62
598.54	1907.64
598.89	1900.85
599.24	1894.92
599.59	1888.19
599.94	1881.90
600.29	1875.44
600.64	1868.82
600.99	1861.23
601.34	1854.45
601.69	1847.43
602.04	1840.53
602.39	1833.17
602.74	1826.27
603.08	1819.62
603.43	1812.89
603.78	1805.52
604.13	1798.35
604.48	1791.03
604.83	1784.27
605.18	1777.32
605.53	1769.28
605.87	1761.17
606.22	1753.88
606.57	1745.92
606.92	1738.63
607.27	1731.41
607.62	1724.60
607.96	1717.29
608.31	1710.76
608.66	1703.02
609.01	1695.27
609.36	1687.74
609.70	1679.73
610.05	1671.61
610.40	1663.80
610.75	1655.45
611.10	1647.92
611.44	1639.41
611.79	1631.48
612.14	1622.73
612.49	1613.52
612.83	1605.15
613.18	1596.94
613.53	1588.81
613.88	1580.26
614.22	1571.99
614.57	1563.40
614.92	1555.34
615.27	1547.77
615.61	1539.42
615.96	1531.50
616.31	1523.96
616.65	1516.59
617.00	1509.04
617.35	1501.50
617.70	1493.07
618.04	1484.61
618.39	1476.20
618.74	1468.61
619.08	1460.30
619.43	1452.77
619.78	1445.90
620.12	1438.77
620.47	1431.27
620.82	1423.12
621.16	1415.75
621.51	1408.11
621.85	1400.61
622.20	1392.05
622.55	1383.66
622.89	1375.74
623.24	1368.06
623.59	1360.76
623.93	1353.21
624.28	1345.95
624.62	1338.33
624.97	1331.17
625.32	1324.29
625.66	1317.30
626.01	1310.07
626.35	1302.46
626.70	1294.63
627.04	1286.87
627.39	1279.11
627.73	1271.67
628.08	1264.74
628.43	1257.43
628.77	1249.95
629.12	1242.24
629.46	1235.07
629.81	1227.69
630.15	1220.56
630.50	1213.17
630.84	1204.95
631.19	1197.09
631.53	1189.56
631.88	1182.01
632.22	1174.46
632.57	1167.24
632.91	1159.75
633.26	1152.37
633.60	1145.04
633.95	1137.90
634.29	1130.90
634.64	1124.21
634.98	1116.92
635.32	1109.84
635.67	1103.28
636.01	1096.63
636.36	1089.79
636.70	1083.29
637.05	1076.76
637.39	1070.29
637.73	1063.84
638.08	1057.96
638.42	1051.96
638.77	1045.53
639.11	1038.87
639.45	1032.45
639.80	1025.79
640.14	1019.32
640.49	1012.80
640.83	1006.56
641.17	1000.31
641.52	993.90
641.86	987.46
642.20	981.61
642.55	975.32
642.89	968.81
643.23	962.31
643.58	956.57
643.92	950.35
644.26	944.27
644.61	938.18
644.95	932.07
645.29	925.31
645.64	918.50
645.98	912.21
646.32	906.44
646.66	900.36
647.01	894.56
647.35	888.96
647.69	883.13
648.04	877.61
648.38	871.88
648.72	865.88
649.06	859.84
649.41	853.90
649.75	847.89
650.09	841.92
650.43	836.22
650.78	829.99
651.12	824.09
651.46	818.37
651.80	812.61
652.14	807.27
652.49	802.00
652.83	796.83
653.17	791.12
653.51	785.36
653.85	779.99
654.20	774.30
654.54	768.19
654.88	762.36
655.22	756.42
655.56	750.64
655.90	745.16
656.25	739.83
656.59	734.47
656.93	729.34
657.27	724.17
657.61	718.69
657.95	713.63
658.29	708.56
658.64	703.27
658.98	698.04
659.32	692.51
659.66	687.37
660.00	682.06
660.34	677.14
660.68	672.31
661.02	667.31
661.36	662.62
661.70	658.20
662.05	653.89
662.39	649.65
662.73	645.24
663.07	640.88
663.41	636.49
663.75	632.07
664.09	627.55
664.43	623.23
664.77	619.10
665.11	614.86
665.45	610.64
665.79	606.54
666.13	602.37
666.47	598.35
666.81	594.10
667.15	590.02
667.49	586.13
667.83	582.28
668.17	578.35
668.51	574.33
668.85	570.28
669.19	566.42
669.53	562.54
669.87	558.70
670.21	555.03
670.55	551.36
670.89	547.91
671.23	544.47
671.57	540.91
671.91	537.37
672.25	533.89
672.58	530.46
672.92	527.10
673.26	523.97
673.60	520.80
673.94	517.69
674.28	514.83
674.62	511.90
674.96	508.71
675.30	505.81
675.64	502.90
675.97	500.17
676.31	497.34
676.65	494.40
676.99	491.68
677.33	488.84
677.67	486.03
678.01	482.98
678.34	479.98
678.68	477.17
679.02	474.36
679.36	471.60
679.70	468.85
680.04	466.11
680.37	463.25
680.71	460.47
681.05	457.88
681.39	455.11
681.73	452.44
682.06	450.02
682.40	447.43
682.74	444.84
683.08	442.28
683.42	439.67
683.75	437.17
684.09	434.62
684.43	432.12
684.77	429.67
685.10	427.37
685.44	425.15
685.78	422.84
686.12	420.63
686.45	418.35
686.79	416.10
687.13	413.90
687.46	411.74
687.80	409.58
688.14	407.37
688.48	405.35
688.81	403.18
689.15	400.97
689.49	398.85
689.82	396.80
690.16	394.71
690.50	392.76
690.83	390.86
691.17	388.90
691.51	386.99
691.84	385.14
692.18	383.20
692.52	381.17
692.85	379.24
693.19	377.36
693.52	375.54
693.86	373.72
694.20	371.89
694.53	370.11
694.87	368.27
695.21	366.52
695.54	364.66
695.88	362.92
696.21	361.24
696.55	359.56
696.88	357.86
697.22	356.22
697.56	354.57
697.89	352.87
698.23	351.28
698.56	349.68
698.90	348.06
699.23	346.38
699.57	344.83
699.90	343.29
700.24	341.74
700.58	340.19
700.91	338.71
701.25	337.29
701.58	335.91
701.92	334.54
702.25	333.18
702.59	331.81
702.92	330.47
703.26	329.10
703.59	327.84
703.93	326.67
704.26	325.46
704.60	324.18
704.93	322.92
705.26	321.61
705.60	320.46
705.93	319.30
706.27	318.34
706.60	317.30
706.94	316.20
707.27	315.04
707.61	313.97
707.94	312.92
708.27	311.81
708.61	310.67
708.94	309.68
709.28	308.71
709.61	307.75
709.94	306.78
710.28	305.81
710.61	304.84
710.95	303.78
711.28	302.82
711.61	301.86
711.95	300.93
712.28	300.01
712.61	299.03
712.95	298.09
713.28	297.20
713.61	296.26
713.95	295.34
714.28	294.56
714.61	293.69
714.95	292.86
715.28	292.04
715.61	291.21
715.95	290.33
716.28	289.43
716.61	288.55
716.95	287.77
717.28	287.05
717.61	286.27
717.94	285.49
718.28	284.71
718.61	284.02
718.94	283.35
719.27	282.71
719.61	282.03
719.94	281.38
720.27	280.64
720.60	280.00
720.94	279.41
721.27	278.80
721.60	278.28
721.93	277.67
722.27	277.13
722.60	276.57
722.93	276.00
723.26	275.53
723.59	275.03
723.93	274.47
724.26	273.88
724.59	273.30
724.92	272.81
725.25	272.30
725.59	271.76
725.92	271.23
726.25	270.69
726.58	270.25
726.91	269.72
727.24	269.23
727.57	268.81
727.91	268.30
728.24	267.81
728.57	267.32
728.90	266.89
729.23	266.37
729.56	265.96
729.89	265.51
730.22	265.00
730.55	264.56
730.89	264.07
731.22	263.64
731.55	263.23
731.88	262.79
732.21	262.35
732.54	261.93
732.87	261.52
733.20	261.14
733.53	260.76
733.86	260.41
734.19	260.04
734.52	259.65
734.85	259.33
735.18	258.93
735.51	258.53
735.84	258.14
736.17	257.79
736.50	257.38
736.83	257.16
737.16	256.80
737.49	256.45
737.82	256.13
738.15	255.80
738.48	255.46
738.81	255.14
739.14	254.87
739.47	254.53
739.80	254.22
740.13	253.92
740.46	253.57
740.79	253.22
741.12	252.87
741.45	252.51
741.78	252.16
742.11	251.85
742.44	251.50
742.77	251.21
743.10	250.89
743.43	250.58
743.75	250.16
744.08	250.02
744.41	249.69
744.74	249.41
745.07	249.09
745.40	248.85
745.73	248.62
746.06	248.32
746.39	248.05
746.71	247.77
747.04	247.44
747.37	247.17
747.70	246.94
748.03	246.73
748.36	246.52
748.68	246.28
749.01	246.03
749.34	245.82
749.67	245.60
750.00	245.39
750.33	245.28
750.65	245.07
750.98	244.73
751.31	244.56
751.64	244.38
751.97	244.25
752.29	244.02
752.62	243.77
752.95	243.55
753.28	243.38
753.60	243.19
753.93	243.04
754.26	242.86
754.59	242.61
754.91	242.41
755.24	242.22
755.57	242.03
755.90	241.85
756.22	241.66
756.55	241.44
756.88	241.27
757.20	241.00
757.53	240.81
757.86	240.65
758.19	240.49
758.51	240.33
758.84	240.13
759.17	239.99
759.49	239.85
759.82	239.70
760.15	239.55
760.47	239.39
760.80	239.24
761.13	239.12
761.45	239.00
761.78	238.86
762.11	238.72
762.43	238.58
762.76	238.44
763.08	238.31
763.41	238.21
763.74	238.07
764.06	237.92
764.39	237.79
764.71	237.67
765.04	237.53
765.37	237.38
765.69	237.25
766.02	237.09
766.34	236.91
766.67	236.82
767.00	236.71
767.32	236.67
767.65	236.63
767.97	236.51
768.30	236.45
768.62	236.36
768.95	236.22
769.27	236.12
769.60	236.02
769.92	235.92
770.25	235.81
770.57	235.69
770.90	235.62
771.22	235.53
771.55	235.44
771.87	235.34
772.20	235.24
772.52	235.24
772.85	235.26
773.17	235.22
773.50	235.10
773.82	235.03
774.15	234.87
774.47	234.74
774.80	234.63
775.12	234.50
775.45	234.40
775.77	234.32
776.09	234.22
776.42	234.14
776.74	234.11
777.07	234.02
777.39	233.94
777.72	233.86
778.04	233.77
778.36	233.66
778.69	233.59
779.01	233.55
779.33	233.39
779.66	233.24
779.98	233.15
780.31	233.08
780.63	233.04
780.95	232.98
781.28	232.90
781.60	232.85
781.92	232.78
782.25	232.69
782.57	232.62
782.89	232.57
783.22	232.48
783.54	232.38
783.86	232.32
784.19	232.24
784.51	232.20
784.83	232.15
785.16	232.09
785.48	232.05
785.80	231.97
786.12	231.95
786.45	231.89
786.77	231.85
787.09	231.81
787.42	231.71
787.74	231.67
788.06	231.65
788.38	231.56
788.71	231.51
789.03	231.50
789.35	231.48
789.67	231.42
789.99	231.42
790.32	231.35
790.64	231.31
790.96	231.37
791.28	231.31
791.61	231.26
791.93	231.24
792.25	231.17
792.57	231.20
792.89	231.10
793.21	231.06
793.54	231.00
793.86	230.95
794.18	230.93
794.50	230.86
794.82	230.80
795.14	230.80
795.47	230.78
795.79	230.73
796.11	230.72
796.43	230.68
796.75	230.67
797.07	230.65
797.39	230.60
797.71	230.50
798.04	230.45
798.36	230.43
798.68	230.41
799.00	230.40
799.32	230.33
799.64	230.33
799.96	230.28
800.28	230.30
800.60	230.24
800.92	230.23
801.24	230.19
801.56	230.18
801.89	230.14
802.21	230.12
802.53	230.08
802.85	230.03
803.17	230.05
803.49	229.97
803.81	229.93
804.13	229.93
804.45	229.90
804.77	229.94
805.09	229.94
805.41	229.90
805.73	229.87
806.05	229.82
806.37	229.83
806.69	229.79
807.01	229.77
807.33	229.79
807.65	229.72
807.97	229.76
808.28	229.71
808.60	229.67
808.92	229.62
809.24	229.66
809.56	229.61
809.88	229.56
810.20	229.56
810.52	229.57
810.84	229.52
811.16	229.51
811.48	229.44
811.80	229.43
812.12	229.39
812.43	229.35
812.75	229.36
813.07	229.28
813.39	229.31
813.71	229.24
814.03	229.21
814.35	229.16
814.67	229.07
814.98	229.05
815.30	229.03
815.62	229.00
815.94	228.96
816.26	229.01
816.58	228.97
816.89	228.97
817.21	228.90
817.53	228.87
817.85	228.84
818.17	228.80
818.48	228.73
818.80	228.74
819.12	228.73
819.44	228.68
819.76	228.70
820.07	228.64
820.39	228.65
820.71	228.60
821.03	228.61
821.34	228.62
821.66	228.62
821.98	228.61
822.30	228.58
822.61	228.58
822.93	228.50
823.25	228.50
823.57	228.47
823.88	228.50
824.20	228.51
824.52	228.50
824.83	228.48
825.15	228.44
825.47	228.41
825.79	228.41
826.10	228.37
826.42	228.36
826.74	228.36
827.05	228.33
827.37	228.33
827.69	228.34
828.00	228.30
828.32	228.31
828.64	228.29
828.95	228.37
829.27	228.36
829.58	228.36
829.90	228.36
830.22	228.35
830.53	228.33
830.85	228.30
831.17	228.29
831.48	228.28
831.80	228.31
832.11	228.31
832.43	228.23
832.75	228.22
833.06	228.25
833.38	228.25
833.69	228.22
834.01	228.21
834.32	228.17
834.64	228.15
834.96	228.10
835.27	228.09
835.59	228.00
835.90	227.95
836.22	227.94
836.53	227.90
836.85	227.87
837.16	227.92
837.48	227.92
837.79	227.94
838.11	227.93
838.42	227.92
838.74	227.92
839.05	227.95
839.37	227.96
839.68	227.89
840.00	227.86
840.31	227.89
840.63	227.88
840.94	227.86
841.26	227.85
841.57	227.87
841.88	227.89
842.20	227.89
842.51	227.86
842.83	227.86
843.14	227.95
843.46	227.98
843.77	227.93
844.08	227.89
844.40	227.85
844.71	227.85
845.03	227.83
845.34	227.84
845.65	227.82
845.97	227.83
846.28	227.83
846.60	227.82
846.91	227.79
847.22	227.79
847.54	227.82
847.85	227.80
848.16	227.76
848.48	227.72
848.79	227.74
849.10	227.76
849.42	227.73
849.73	227.64
850.04	227.61
850.36	227.60
850.67	227.62
850.98	227.61
851.30	227.62
851.61	227.62
851.92	227.55
852.23	227.58
852.55	227.56
852.86	227.55
853.17	227.56
853.49	227.56
853.80	227.56
854.11	227.56
854.42	227.58
854.74	227.58
855.05	227.59
855.36	227.56
855.67	227.55
855.99	227.59
856.30	227.72
856.61	227.67
856.92	227.65
857.23	227.65
857.55	227.64
857.86	227.61
858.17	227.60
858.48	227.63
858.79	227.63
859.11	227.64
859.42	227.63
859.73	227.63
860.04	227.60
860.35	227.57
860.66	227.52
860.98	227.53
861.29	227.56
861.60	227.54
861.91	227.58
862.22	227.56
862.53	227.51
862.84	227.40
863.16	227.44
863.47	227.43
863.78	227.45
864.09	227.44
864.40	227.46
864.71	227.47
865.02	227.44
865.33	227.42
865.64	227.39
865.95	227.38
866.27	227.43
866.58	227.46
866.89	227.49
867.20	227.50
867.51	227.46
867.82	227.43
868.13	227.51
868.44	227.45
868.75	227.48
869.06	227.49
869.37	227.47
869.68	227.44
869.99	227.43
870.30	227.42
870.61	227.45
870.92	227.47
871.23	227.45
871.54	227.47
871.85	227.49
872.16	227.49
872.47	227.50
872.78	227.48
873.09	227.46
873.40	227.45
873.71	227.46
874.02	227.51
874.33	227.52
874.64	227.45
874.95	227.48
875.26	227.48
875.56	227.49
875.87	227.50
876.18	227.49
876.49	227.59
876.80	227.56
877.11	227.51
877.42	227.47
877.73	227.49
878.04	227.47
878.35	227.50
878.66	227.48
878.96	227.48
879.27	227.46
879.58	227.46
879.89	227.44
880.20	227.47
880.51	227.44
880.82	227.46
881.12	227.45
881.43	227.41
881.74	227.38
882.05	227.37
882.36	227.41
882.67	227.43
882.97	227.30
883.28	227.29
883.59	227.32
883.90	227.34
884.21	227.35
884.51	227.34
884.82	227.29
885.13	227.30
885.44	227.32
885.74	227.31
886.05	227.32
886.36	227.36
886.67	227.34
886.98	227.40
887.28	227.34
887.59	227.33
887.90	227.32
888.20	227.29
888.51	227.32
888.82	227.26
889.13	227.26
889.43	227.36
889.74	227.35
890.05	227.35
890.35	227.35
890.66	227.33
890.97	227.31
891.28	227.31
891.58	227.33
891.89	227.31
892.20	227.31
892.50	227.26
892.81	227.17
893.12	227.16
893.42	227.09
893.73	227.11
894.04	227.12
894.34	227.14
894.65	227.14
894.95	227.13
895.26	227.14
895.57	227.18
895.87	227.11
896.18	227.13
896.48	227.15
896.79	227.14
897.10	227.15
897.40	227.17
897.71	227.19
898.01	227.16
898.32	227.18
898.63	227.16
898.93	227.20
899.24	227.27
899.54	227.28
899.85	227.27
900.15	227.28
900.46	227.29
900.76	227.28
901.07	227.28
901.38	227.26
901.68	227.26
901.99	227.20
902.29	227.18
902.60	227.19
902.90	227.15
903.21	227.14
903.51	227.15
903.82	227.19
904.12	227.20
904.43	227.20
904.73	227.21
905.03	227.19
905.34	227.28
905.64	227.25
905.95	227.22
906.25	227.22
906.56	227.22
906.86	227.22
907.17	227.23
907.47	227.24
907.77	227.24
908.08	227.23
908.38	227.24
908.69	227.24
908.99	227.22
909.30	227.25
909.60	227.26
909.90	227.25
910.21	227.18
910.51	227.14
910.81	227.17
911.12	227.17
911.42	227.19
911.73	227.07
912.03	227.10
912.33	227.14
912.64	227.17
912.94	227.16
913.24	227.18
913.55	227.15
913.85	227.13
914.15	227.16
914.46	227.18
914.76	227.18
915.06	227.20
915.37	227.21
915.67	227.20
915.97	227.23
916.27	227.22
916.58	227.25
916.88	227.25
917.18	227.25
917.49	227.32
917.79	227.33
918.09	227.35
918.39	227.37
918.70	227.36
919.00	227.34
919.30	227.39
919.60	227.39
919.91	227.41
920.21	227.43
920.51	227.39
920.81	227.40
921.12	227.38
921.42	227.39
921.72	227.38
922.02	227.40
922.32	227.39
922.63	227.40
922.93	227.47
923.23	227.51
923.53	227.48
923.83	227.38
924.13	227.40
924.44	227.40
924.74	227.42
925.04	227.48
925.34	227.50
925.64	227.45
925.94	227.47
926.24	227.53
926.55	227.53
926.85	227.54
927.15	227.51
927.45	227.53
927.75	227.53
928.05	227.56
928.35	227.53
928.65	227.54
928.95	227.54
929.26	227.50
929.56	227.45
929.86	227.48
930.16	227.49
930.46	227.44
930.76	227.43
931.06	227.38
931.36	227.32
931.66	227.31
931.96	227.34
932.26	227.31
932.56	227.24
932.86	227.25
933.16	227.24
933.46	227.22
933.76	227.21
934.06	227.22
934.36	227.26
934.66	227.23
934.96	227.22
935.26	227.22
935.56	227.22
935.86	227.23
936.16	227.18
936.46	227.17
936.76	227.21
937.06	227.18
937.36	227.16
937.66	227.17
937.96	227.16
938.26	227.10
938.56	227.09
938.86	227.09
939.16	227.09
939.46	227.12
939.76	227.13
940.06	227.11
940.35	227.08
940.65	227.01
940.95	227.02
941.25	226.97
941.55	226.92
941.85	226.89
942.15	226.90
942.45	226.91
942.75	226.90
943.04	226.88
943.34	226.90
943.64	226.88
943.94	226.86
944.24	226.84
944.54	226.85
944.84	226.86
945.13	226.83
945.43	226.83
945.73	226.79
946.03	226.78
946.33	226.79
946.62	226.78
946.92	226.76
947.22	226.78
947.52	226.80
947.82	226.84
948.11	226.85
948.41	226.81
948.71	226.82
949.01	226.84
949.31	226.83
949.60	226.81
949.90	226.85
950.20	226.87
950.50	226.89
950.79	226.89
951.09	226.92
951.39	226.94
951.69	226.91
951.98	226.93
952.28	226.97
952.58	226.95
952.87	226.95
953.17	227.00
953.47	226.99
953.76	226.99
954.06	226.97
954.36	226.95
954.66	226.97
954.95	227.00
955.25	226.98
955.55	227.00
955.84	227.02
956.14	227.02
956.44	227.00
956.73	226.97
957.03	226.98
957.32	227.00
957.62	226.98
957.92	227.00
958.21	226.97
958.51	227.07
958.81	227.08
959.10	227.11
959.40	227.13
959.69	227.15
959.99	227.15
960.29	227.15
960.58	227.19
960.88	227.22
961.17	227.20
961.47	227.25
961.76	227.21
962.06	227.20
962.36	227.18
962.65	227.20
962.95	227.23
963.24	227.23
963.54	227.19
963.83	227.19
964.13	227.17
964.42	227.19
964.72	227.07
965.01	227.04
965.31	227.01
965.60	226.95
965.90	226.98
966.19	226.96
966.49	227.01
966.78	226.93
967.08	226.92
967.37	226.88
967.67	226.84
967.96	226.88
968.26	226.92
968.55	226.94
968.85	226.92
969.14	226.92
969.43	226.90
969.73	226.91
970.02	226.92
970.32	226.95
970.61	226.91
970.91	226.90
971.20	226.92
971.49	226.95
971.79	226.99
972.08	226.92
972.38	226.95
972.67	226.92
972.96	226.97
973.26	226.94
973.55	227.00
973.85	226.98
974.14	226.95
974.43	226.92
974.73	226.89
975.02	226.88
975.31	226.85
975.61	226.80
975.90	226.79
976.19	226.75
976.49	226.75
976.78	226.75
977.07	226.75
977.37	226.75
977.66	226.72
977.95	226.68
978.24	226.66
978.54	226.63
978.83	226.62
979.12	226.61
979.42	226.59
979.71	226.54
980.00	226.54
980.29	226.53
980.59	226.53
980.88	226.56
981.17	226.56
981.46	226.57
981.76	226.60
982.05	226.62
982.34	226.65
982.63	226.67
982.93	226.68
983.22	226.71
983.51	226.71
983.80	226.74
984.09	226.72
984.39	226.75
984.68	226.75
984.97	226.74
985.26	226.77
985.55	226.77
985.85	226.78
986.14	226.79
986.43	226.82
986.72	226.81
987.01	226.76
987.30	226.76
987.59	226.76
987.89	226.73
988.18	226.73
988.47	226.70
988.76	226.70
989.05	226.73
989.34	226.70
989.63	226.74
989.92	226.75
990.22	226.76
990.51	226.77
990.80	226.79
991.09	226.80
991.38	226.79
991.67	226.81
991.96	226.82
992.25	226.83
992.54	226.78
992.83	226.79
993.12	226.82
993.41	226.88
993.70	226.92
993.99	226.99
994.28	226.97
994.58	227.02
994.87	226.98
995.16	226.98
995.45	226.99
995.74	226.95
996.03	226.97
996.32	226.99
996.61	227.02
996.90	227.00
997.19	227.03
997.48	227.03
997.77	227.01
998.06	227.02
998.34	227.02
998.63	227.06
998.92	227.06
999.21	227.05
999.50	227.03
999.79	227.00
1000.08	226.99
1000.37	227.02
1000.66	227.00
1000.95	227.02
1001.24	227.00
1001.53	227.02
1001.82	227.02
1002.11	226.97
1002.40	227.00
1002.68	227.01
1002.97	227.09
1003.26	227.06
1003.55	227.04
1003.84	227.06
1004.13	227.08
1004.42	227.06
1004.71	227.06
1004.99	227.07
1005.28	227.12
1005.57	227.07
1005.86	227.05
1006.15	227.03
1006.44	227.02
1006.72	227.02
1007.01	226.99
1007.30	227.00
1007.59	226.97
1007.88	226.96
1008.17	227.00
1008.45	226.96
1008.74	226.90
1009.03	226.86
1009.32	226.85
1009.60	226.85
1009.89	226.83
1010.18	226.81
1010.47	226.83
1010.76	226.83
1011.04	226.79
1011.33	226.77
1011.62	226.79
1011.91	226.79
1012.19	226.83
1012.48	226.81
1012.77	226.82
1013.05	226.89
1013.34	226.87
1013.63	226.90
1013.92	226.91
1014.20	226.87
1014.49	226.89
1014.78	226.91
1015.06	226.85
1015.35	226.88
1015.64	226.90
1015.92	226.90
1016.21	226.89
1016.50	226.86
1016.78	226.85
1017.07	226.90
1017.36	226.87
1017.64	226.88
1017.93	226.91
1018.22	226.85
1018.50	226.85
1018.79	226.85
1019.08	226.82
1019.36	226.86
1019.65	226.83
1019.93	226.83
1020.22	226.85
1020.51	226.89
1020.79	226.90
1021.08	226.49
1021.36	226.31
1021.65	227.06
1021.94	227.12
1022.22	227.42
1022.51	226.67
1022.79	226.78
1023.08	226.85
1023.36	227.96
1023.65	227.11
>>>>>End Processed Spectral Data<<<<<
