SpectraSuite Data File
++++++++++++++++++++++++++++++++++++
Date: Fri Feb 01 15:13:02 EST 2013
User: group
Dark Spectrum Present: No
Reference Spectrum Present: No
Number of Sampled Component Spectra: 1
Spectrometers: USB2E7196
Integration Time (usec): 35000 (USB2E7196)
Spectra Averaged: 100 (USB2E7196)
Boxcar Smoothing: 10 (USB2E7196)
Correct for Electrical Dark: No (USB2E7196)
Strobe/Lamp Enabled: No (USB2E7196)
Correct for Detector Non-linearity: No (USB2E7196)
Correct for Stray Light: No (USB2E7196)
Number of Pixels in Processed Spectrum: 2048
>>>>>Begin Processed Spectral Data<<<<<
339.09	0.00
339.48	215.05
339.86	216.01
340.24	217.38
340.63	219.54
341.01	221.78
341.39	222.00
341.78	223.31
342.16	224.39
342.54	224.94
342.93	213.31
343.31	224.12
343.69	224.65
344.07	225.14
344.46	225.58
344.84	225.96
345.22	226.20
345.60	226.45
345.99	226.63
346.37	226.77
346.75	226.88
347.13	226.97
347.52	227.05
347.90	227.10
348.28	227.12
348.66	227.16
349.05	227.14
349.43	227.16
349.81	227.23
350.19	227.25
350.57	227.35
350.96	227.46
351.34	227.50
351.72	227.62
352.10	227.73
352.48	227.81
352.87	227.86
353.25	227.96
353.63	228.05
354.01	228.13
354.39	228.22
354.77	228.28
355.15	228.39
355.54	228.45
355.92	228.54
356.30	228.62
356.68	228.74
357.06	228.82
357.44	228.87
357.82	228.91
358.20	228.99
358.58	229.07
358.97	229.12
359.35	229.21
359.73	229.27
360.11	229.30
360.49	229.35
360.87	229.39
361.25	229.43
361.63	229.46
362.01	229.50
362.39	229.52
362.77	229.55
363.15	229.52
363.53	229.55
363.91	229.53
364.29	229.57
364.67	229.49
365.05	229.52
365.43	229.56
365.81	229.58
366.19	229.59
366.57	229.61
366.95	229.61
367.33	229.58
367.71	229.53
368.09	229.54
368.47	229.50
368.85	229.47
369.23	229.45
369.61	229.39
369.99	229.37
370.37	229.35
370.75	229.37
371.13	229.31
371.51	229.25
371.89	229.18
372.27	229.14
372.65	229.09
373.03	229.03
373.41	228.93
373.78	228.87
374.16	228.80
374.54	228.70
374.92	228.63
375.30	228.55
375.68	228.50
376.06	228.42
376.44	228.39
376.82	228.34
377.19	228.27
377.57	228.19
377.95	228.07
378.33	227.97
378.71	227.85
379.09	227.82
379.47	227.79
379.84	227.74
380.22	227.66
380.60	227.57
380.98	227.50
381.36	227.41
381.73	227.32
382.11	227.23
382.49	227.13
382.87	227.05
383.25	226.99
383.62	227.04
384.00	226.96
384.38	226.87
384.76	226.85
385.13	226.81
385.51	226.78
385.89	226.74
386.27	226.69
386.64	226.65
387.02	226.57
387.40	226.48
387.78	226.44
388.15	226.39
388.53	226.35
388.91	226.32
389.29	226.32
389.66	226.35
390.04	226.32
390.42	226.33
390.79	226.28
391.17	226.25
391.55	226.13
391.92	226.14
392.30	226.17
392.68	226.11
393.05	226.12
393.43	226.12
393.81	226.14
394.18	226.15
394.56	226.21
394.94	226.27
395.31	226.30
395.69	226.38
396.06	226.43
396.44	226.48
396.82	226.52
397.19	226.64
397.57	226.66
397.95	226.72
398.32	226.79
398.70	226.87
399.07	226.98
399.45	227.04
399.82	227.10
400.20	227.17
400.58	227.26
400.95	227.30
401.33	227.41
401.70	227.59
402.08	227.73
402.45	227.80
402.83	227.91
403.20	228.04
403.58	228.11
403.95	228.24
404.33	228.38
404.71	228.52
405.08	228.70
405.46	228.84
405.83	229.02
406.21	229.18
406.58	229.37
406.96	229.54
407.33	229.73
407.70	229.92
408.08	230.19
408.45	230.41
408.83	230.69
409.20	230.91
409.58	231.09
409.95	231.35
410.33	231.64
410.70	231.91
411.08	232.18
411.45	232.51
411.82	232.82
412.20	233.19
412.57	233.61
412.95	233.89
413.32	234.32
413.69	234.75
414.07	235.19
414.44	235.65
414.82	236.13
415.19	236.68
415.56	237.26
415.94	237.80
416.31	238.43
416.68	239.02
417.06	239.76
417.43	240.42
417.81	241.16
418.18	241.91
418.55	242.73
418.93	243.65
419.30	244.52
419.67	245.49
420.04	246.47
420.42	247.45
420.79	248.65
421.16	249.83
421.54	251.00
421.91	252.19
422.28	253.47
422.66	254.83
423.03	256.14
423.40	257.47
423.77	258.90
424.15	260.35
424.52	261.85
424.89	263.45
425.26	265.03
425.64	266.50
426.01	268.13
426.38	269.77
426.75	271.44
427.13	273.17
427.50	274.96
427.87	276.81
428.24	278.67
428.61	280.38
428.99	282.29
429.36	284.40
429.73	286.51
430.10	288.48
430.47	290.50
430.85	292.56
431.22	294.79
431.59	297.18
431.96	299.44
432.33	301.90
432.70	304.28
433.08	307.13
433.45	309.79
433.82	312.43
434.19	315.33
434.56	318.14
434.93	320.80
435.30	323.42
435.68	326.28
436.05	329.11
436.42	331.94
436.79	334.49
437.16	337.21
437.53	340.03
437.90	342.88
438.27	345.63
438.64	348.54
439.01	351.20
439.38	353.43
439.75	355.58
440.13	358.12
440.50	360.44
440.87	362.25
441.24	364.20
441.61	366.38
441.98	367.88
442.35	369.71
442.72	371.61
443.09	373.44
443.46	374.52
443.83	375.09
444.20	375.56
444.57	376.42
444.94	376.70
445.31	377.10
445.68	377.49
446.05	377.58
446.42	377.17
446.79	376.71
447.16	376.26
447.53	376.01
447.90	374.84
448.27	373.63
448.64	372.05
449.01	370.88
449.37	368.83
449.74	366.93
450.11	364.62
450.48	362.07
450.85	359.53
451.22	357.34
451.59	355.38
451.96	353.45
452.33	350.82
452.70	348.41
453.07	345.47
453.43	342.52
453.80	339.74
454.17	337.03
454.54	334.48
454.91	331.72
455.28	328.98
455.65	326.45
456.02	324.05
456.38	321.88
456.75	319.21
457.12	316.92
457.49	314.72
457.86	312.58
458.23	310.75
458.59	308.71
458.96	306.62
459.33	304.71
459.70	302.81
460.07	301.28
460.43	299.57
460.80	297.96
461.17	296.50
461.54	295.02
461.91	293.62
462.27	292.14
462.64	290.91
463.01	289.57
463.38	288.30
463.74	286.95
464.11	285.80
464.48	284.78
464.85	283.71
465.21	282.83
465.58	281.90
465.95	280.81
466.32	279.84
466.68	278.91
467.05	278.02
467.42	277.14
467.78	276.22
468.15	275.35
468.52	274.69
468.88	273.80
469.25	273.04
469.62	272.39
469.98	271.70
470.35	271.06
470.72	270.45
471.08	269.76
471.45	269.16
471.82	268.60
472.18	268.02
472.55	267.57
472.92	267.02
473.28	266.54
473.65	266.09
474.02	265.66
474.38	265.33
474.75	264.95
475.11	264.61
475.48	264.31
475.85	264.05
476.21	263.83
476.58	263.68
476.94	263.51
477.31	263.29
477.67	263.17
478.04	263.05
478.41	262.99
478.77	263.00
479.14	262.94
479.50	262.92
479.87	262.96
480.23	263.05
480.60	263.14
480.96	263.23
481.33	263.43
481.69	263.61
482.06	263.77
482.42	263.99
482.79	264.20
483.15	264.54
483.52	264.92
483.88	265.26
484.25	265.65
484.61	266.07
484.98	266.54
485.34	267.08
485.71	267.67
486.07	268.27
486.44	268.81
486.80	269.51
487.17	270.26
487.53	271.06
487.90	271.92
488.26	272.82
488.62	273.80
488.99	274.73
489.35	275.79
489.72	276.90
490.08	278.12
490.44	279.37
490.81	280.68
491.17	282.01
491.54	283.47
491.90	284.98
492.26	286.64
492.63	288.40
492.99	290.18
493.36	292.06
493.72	294.06
494.08	296.23
494.45	298.54
494.81	300.88
495.17	303.28
495.54	305.78
495.90	308.45
496.26	311.26
496.63	314.21
496.99	317.31
497.35	320.56
497.72	323.96
498.08	327.49
498.44	331.16
498.80	335.06
499.17	339.10
499.53	343.25
499.89	347.65
500.26	352.11
500.62	356.76
500.98	361.73
501.34	366.82
501.71	372.11
502.07	377.51
502.43	383.09
502.79	388.90
503.16	394.92
503.52	401.18
503.88	407.55
504.24	414.21
504.60	421.09
504.97	428.18
505.33	435.47
505.69	443.17
506.05	450.94
506.41	458.82
506.78	467.01
507.14	475.44
507.50	484.10
507.86	493.17
508.22	502.30
508.59	511.47
508.95	521.10
509.31	530.92
509.67	541.03
510.03	551.30
510.39	561.88
510.75	572.73
511.12	583.70
511.48	595.05
511.84	606.51
512.20	618.05
512.56	630.06
512.92	642.31
513.28	654.68
513.64	667.20
514.00	679.92
514.37	692.82
514.73	705.91
515.09	718.93
515.45	732.28
515.81	745.95
516.17	759.95
516.53	774.07
516.89	788.33
517.25	802.53
517.61	817.02
517.97	831.51
518.33	846.04
518.69	860.82
519.05	875.86
519.41	891.03
519.77	906.68
520.13	922.18
520.49	937.56
520.85	953.07
521.21	968.88
521.57	985.15
521.93	1001.01
522.29	1017.54
522.65	1033.91
523.01	1050.06
523.37	1066.23
523.73	1082.42
524.09	1098.55
524.45	1114.89
524.81	1131.57
525.17	1148.47
525.53	1165.45
525.89	1182.29
526.25	1199.25
526.61	1215.63
526.97	1232.44
527.33	1248.93
527.68	1265.65
528.04	1282.27
528.40	1298.91
528.76	1316.00
529.12	1332.76
529.48	1349.67
529.84	1365.65
530.20	1382.32
530.56	1399.52
530.91	1416.86
531.27	1433.79
531.63	1450.37
531.99	1466.94
532.35	1482.98
532.71	1498.95
533.07	1515.28
533.42	1531.23
533.78	1547.23
534.14	1563.56
534.50	1578.90
534.86	1594.78
535.21	1609.85
535.57	1625.87
535.93	1641.38
536.29	1656.17
536.65	1671.18
537.00	1686.11
537.36	1701.60
537.72	1716.30
538.08	1730.72
538.44	1744.56
538.79	1758.49
539.15	1772.29
539.51	1786.07
539.87	1800.53
540.22	1814.34
540.58	1828.37
540.94	1841.88
541.29	1855.01
541.65	1867.93
542.01	1881.33
542.37	1893.68
542.72	1906.29
543.08	1918.02
543.44	1930.58
543.79	1941.93
544.15	1953.12
544.51	1964.63
544.87	1975.68
545.22	1986.44
545.58	1996.78
545.94	2006.69
546.29	2016.59
546.65	2026.35
547.01	2035.75
547.36	2044.45
547.72	2052.86
548.07	2060.51
548.43	2068.86
548.79	2076.94
549.14	2084.44
549.50	2091.99
549.86	2099.76
550.21	2106.95
550.57	2114.29
550.92	2120.74
551.28	2127.82
551.64	2134.82
551.99	2141.46
552.35	2147.51
552.70	2153.72
553.06	2159.55
553.41	2165.93
553.77	2172.01
554.13	2178.16
554.48	2184.24
554.84	2189.65
555.19	2195.05
555.55	2200.24
555.90	2204.57
556.26	2209.35
556.61	2214.05
556.97	2218.12
557.32	2222.24
557.68	2226.56
558.03	2230.76
558.39	2234.50
558.74	2239.14
559.10	2243.01
559.45	2246.65
559.81	2251.11
560.16	2254.89
560.52	2258.20
560.87	2261.60
561.23	2264.19
561.58	2267.25
561.94	2269.74
562.29	2272.22
562.64	2274.84
563.00	2277.47
563.35	2280.93
563.71	2284.11
564.06	2287.18
564.42	2289.91
564.77	2292.46
565.12	2294.56
565.48	2296.38
565.83	2298.29
566.19	2299.46
566.54	2300.39
566.89	2301.50
567.25	2301.93
567.60	2303.26
567.96	2304.69
568.31	2305.48
568.66	2306.53
569.02	2306.91
569.37	2307.24
569.72	2307.91
570.08	2307.95
570.43	2307.84
570.78	2307.11
571.14	2305.57
571.49	2304.24
571.84	2303.98
572.20	2302.65
572.55	2301.57
572.90	2299.97
573.26	2298.38
573.61	2296.66
573.96	2294.69
574.31	2291.56
574.67	2288.39
575.02	2284.74
575.37	2281.47
575.72	2277.52
576.08	2274.21
576.43	2270.80
576.78	2267.11
577.13	2263.86
577.49	2260.80
577.84	2257.10
578.19	2253.25
578.54	2249.30
578.90	2244.95
579.25	2239.28
579.60	2234.21
579.95	2229.23
580.30	2224.06
580.66	2218.87
581.01	2213.70
581.36	2208.56
581.71	2204.43
582.06	2199.94
582.42	2195.25
582.77	2189.83
583.12	2185.18
583.47	2180.13
583.82	2175.02
584.17	2169.50
584.53	2163.86
584.88	2157.96
585.23	2152.13
585.58	2146.56
585.93	2141.09
586.28	2136.36
586.63	2131.06
586.98	2125.97
587.34	2121.20
587.69	2116.35
588.04	2110.80
588.39	2105.08
588.74	2098.63
589.09	2092.25
589.44	2085.21
589.79	2079.28
590.14	2073.61
590.49	2067.02
590.84	2060.56
591.19	2054.33
591.54	2047.83
591.89	2040.36
592.25	2033.54
592.60	2026.33
592.95	2018.76
593.30	2011.38
593.65	2003.59
594.00	1996.55
594.35	1989.23
594.70	1981.06
595.05	1973.61
595.40	1966.26
595.75	1958.82
596.10	1952.55
596.45	1945.72
596.80	1939.44
597.15	1932.45
597.50	1925.22
597.85	1918.61
598.19	1911.98
598.54	1904.92
598.89	1898.25
599.24	1892.35
599.59	1885.43
599.94	1879.18
600.29	1872.81
600.64	1866.08
600.99	1858.55
601.34	1851.59
601.69	1844.63
602.04	1837.49
602.39	1830.10
602.74	1823.38
603.08	1816.63
603.43	1809.80
603.78	1802.42
604.13	1795.28
604.48	1787.96
604.83	1781.14
605.18	1774.07
605.53	1766.01
605.87	1757.94
606.22	1750.71
606.57	1742.81
606.92	1735.60
607.27	1728.45
607.62	1721.41
607.96	1713.99
608.31	1707.33
608.66	1699.76
609.01	1692.10
609.36	1684.63
609.70	1676.55
610.05	1668.34
610.40	1660.49
610.75	1652.24
611.10	1644.61
611.44	1636.38
611.79	1628.44
612.14	1619.72
612.49	1610.70
612.83	1602.36
613.18	1594.20
613.53	1586.09
613.88	1577.47
614.22	1569.18
614.57	1560.61
614.92	1552.67
615.27	1545.18
615.61	1536.85
615.96	1528.72
616.31	1521.05
616.65	1513.68
617.00	1506.20
617.35	1498.71
617.70	1490.32
618.04	1481.79
618.39	1473.57
618.74	1465.86
619.08	1457.54
619.43	1449.91
619.78	1442.93
620.12	1435.72
620.47	1428.13
620.82	1419.86
621.16	1412.57
621.51	1405.08
621.85	1397.43
622.20	1388.91
622.55	1380.47
622.89	1372.76
623.24	1365.29
623.59	1357.96
623.93	1350.48
624.28	1343.30
624.62	1335.68
624.97	1328.57
625.32	1321.80
625.66	1314.86
626.01	1307.60
626.35	1300.16
626.70	1292.41
627.04	1284.78
627.39	1277.10
627.73	1269.84
628.08	1262.97
628.43	1255.50
628.77	1248.01
629.12	1240.43
629.46	1233.16
629.81	1225.85
630.15	1218.54
630.50	1211.16
630.84	1202.97
631.19	1195.05
631.53	1187.56
631.88	1179.96
632.22	1172.47
632.57	1165.23
632.91	1157.61
633.26	1150.35
633.60	1143.12
633.95	1136.18
634.29	1129.17
634.64	1122.43
634.98	1115.03
635.32	1107.98
635.67	1101.58
636.01	1094.97
636.36	1088.16
636.70	1081.70
637.05	1075.22
637.39	1068.72
637.73	1062.15
638.08	1056.42
638.42	1050.49
638.77	1044.05
639.11	1037.50
639.45	1031.04
639.80	1024.32
640.14	1017.90
640.49	1011.32
640.83	1004.91
641.17	998.71
641.52	992.36
641.86	985.97
642.20	980.19
642.55	973.90
642.89	967.31
643.23	960.80
643.58	954.98
643.92	948.73
644.26	942.68
644.61	936.74
644.95	930.75
645.29	924.06
645.64	917.27
645.98	910.95
646.32	905.13
646.66	899.11
647.01	893.39
647.35	887.70
647.69	881.90
648.04	876.40
648.38	870.53
648.72	864.47
649.06	858.37
649.41	852.45
649.75	846.44
650.09	840.57
650.43	834.74
650.78	828.62
651.12	822.70
651.46	816.94
651.80	811.20
652.14	805.80
652.49	800.50
652.83	795.35
653.17	789.66
653.51	783.96
653.85	778.56
654.20	772.89
654.54	766.94
654.88	761.19
655.22	755.30
655.56	749.60
655.90	744.15
656.25	738.96
656.59	733.62
656.93	728.51
657.27	723.22
657.61	717.86
657.95	712.74
658.29	707.67
658.64	702.48
658.98	697.21
659.32	691.76
659.66	686.47
660.00	681.17
660.34	676.25
660.68	671.37
661.02	666.30
661.36	661.60
661.70	657.10
662.05	652.75
662.39	648.46
662.73	644.03
663.07	639.69
663.41	635.14
663.75	630.68
664.09	626.19
664.43	621.87
664.77	617.75
665.11	613.54
665.45	609.45
665.79	605.38
666.13	601.25
666.47	597.16
666.81	593.05
667.15	588.95
667.49	585.02
667.83	581.19
668.17	577.30
668.51	573.25
668.85	569.22
669.19	565.39
669.53	561.48
669.87	557.65
670.21	553.98
670.55	550.48
670.89	547.03
671.23	543.64
671.57	540.20
671.91	536.67
672.25	533.24
672.58	529.80
672.92	526.39
673.26	523.23
673.60	520.14
673.94	517.09
674.28	514.23
674.62	511.35
674.96	508.29
675.30	505.47
675.64	502.62
675.97	499.86
676.31	496.97
676.65	494.16
676.99	491.41
677.33	488.52
677.67	485.70
678.01	482.67
678.34	479.67
678.68	476.80
679.02	474.02
679.36	471.27
679.70	468.53
680.04	465.79
680.37	462.87
680.71	460.10
681.05	457.45
681.39	454.68
681.73	452.00
682.06	449.48
682.40	446.87
682.74	444.34
683.08	441.84
683.42	439.29
683.75	436.80
684.09	434.27
684.43	431.82
684.77	429.35
685.10	427.06
685.44	424.77
685.78	422.46
686.12	420.22
686.45	417.98
686.79	415.70
687.13	413.51
687.46	411.40
687.80	409.22
688.14	407.03
688.48	405.00
688.81	402.79
689.15	400.67
689.49	398.56
689.82	396.45
690.16	394.30
690.50	392.36
690.83	390.39
691.17	388.43
691.51	386.53
691.84	384.65
692.18	382.65
692.52	380.67
692.85	378.81
693.19	376.90
693.52	375.05
693.86	373.23
694.20	371.43
694.53	369.61
694.87	367.78
695.21	365.98
695.54	364.17
695.88	362.47
696.21	360.73
696.55	359.05
696.88	357.41
697.22	355.82
697.56	354.19
697.89	352.53
698.23	350.94
698.56	349.36
698.90	347.80
699.23	346.19
699.57	344.62
699.90	343.06
700.24	341.50
700.58	339.94
700.91	338.45
701.25	337.02
701.58	335.61
701.92	334.24
702.25	332.85
702.59	331.44
702.92	330.06
703.26	328.77
703.59	327.45
703.93	326.25
704.26	325.03
704.60	323.71
704.93	322.46
705.26	321.17
705.60	320.00
705.93	318.83
706.27	317.82
706.60	316.76
706.94	315.68
707.27	314.57
707.61	313.55
707.94	312.56
708.27	311.49
708.61	310.46
708.94	309.46
709.28	308.50
709.61	307.56
709.94	306.62
710.28	305.56
710.61	304.63
710.95	303.54
711.28	302.61
711.61	301.67
711.95	300.75
712.28	299.80
712.61	298.83
712.95	297.92
713.28	297.07
713.61	296.21
713.95	295.33
714.28	294.50
714.61	293.64
714.95	292.76
715.28	291.90
715.61	291.05
715.95	290.18
716.28	289.33
716.61	288.48
716.95	287.71
717.28	286.99
717.61	286.23
717.94	285.51
718.28	284.74
718.61	284.04
718.94	283.39
719.27	282.77
719.61	282.13
719.94	281.49
720.27	280.77
720.60	280.16
720.94	279.52
721.27	278.94
721.60	278.38
721.93	277.84
722.27	277.32
722.60	276.77
722.93	276.22
723.26	275.71
723.59	275.20
723.93	274.66
724.26	274.13
724.59	273.59
724.92	273.08
725.25	272.56
725.59	272.05
725.92	271.56
726.25	271.02
726.58	270.53
726.91	270.00
727.24	269.54
727.57	269.05
727.91	268.55
728.24	268.08
728.57	267.60
728.90	267.14
729.23	266.63
729.56	266.21
729.89	265.72
730.22	265.21
730.55	264.77
730.89	264.35
731.22	263.88
731.55	263.43
731.88	262.99
732.21	262.53
732.54	262.08
732.87	261.59
733.20	261.19
733.53	260.80
733.86	260.47
734.19	260.07
734.52	259.64
734.85	259.33
735.18	258.89
735.51	258.52
735.84	258.16
736.17	257.82
736.50	257.42
736.83	257.21
737.16	256.90
737.49	256.53
737.82	256.14
738.15	255.82
738.48	255.46
738.81	255.12
739.14	254.85
739.47	254.53
739.80	254.24
740.13	253.93
740.46	253.60
740.79	253.25
741.12	252.92
741.45	252.65
741.78	252.28
742.11	251.99
742.44	251.63
742.77	251.30
743.10	250.98
743.43	250.68
743.75	250.29
744.08	250.11
744.41	249.84
744.74	249.57
745.07	249.28
745.40	249.07
745.73	248.86
746.06	248.54
746.39	248.29
746.71	248.03
747.04	247.73
747.37	247.46
747.70	247.21
748.03	246.95
748.36	246.71
748.68	246.50
749.01	246.24
749.34	246.02
749.67	245.80
750.00	245.58
750.33	245.43
750.65	245.25
750.98	244.90
751.31	244.68
751.64	244.51
751.97	244.35
752.29	244.15
752.62	243.87
752.95	243.68
753.28	243.51
753.60	243.30
753.93	243.19
754.26	243.01
754.59	242.81
754.91	242.62
755.24	242.42
755.57	242.21
755.90	242.07
756.22	241.91
756.55	241.73
756.88	241.57
757.20	241.32
757.53	241.12
757.86	241.00
758.19	240.88
758.51	240.67
758.84	240.47
759.17	240.26
759.49	240.13
759.82	240.04
760.15	239.90
760.47	239.75
760.80	239.58
761.13	239.45
761.45	239.27
761.78	239.14
762.11	239.00
762.43	238.89
762.76	238.72
763.08	238.59
763.41	238.44
763.74	238.28
764.06	238.14
764.39	237.99
764.71	237.81
765.04	237.67
765.37	237.60
765.69	237.46
766.02	237.37
766.34	237.26
766.67	237.09
767.00	236.96
767.32	236.89
767.65	236.81
767.97	236.69
768.30	236.57
768.62	236.46
768.95	236.32
769.27	236.21
769.60	236.12
769.92	235.99
770.25	235.89
770.57	235.77
770.90	235.67
771.22	235.55
771.55	235.49
771.87	235.38
772.20	235.22
772.52	235.20
772.85	235.19
773.17	235.07
773.50	234.97
773.82	234.84
774.15	234.71
774.47	234.52
774.80	234.44
775.12	234.36
775.45	234.25
775.77	234.18
776.09	234.06
776.42	233.99
776.74	233.94
777.07	233.84
777.39	233.76
777.72	233.68
778.04	233.62
778.36	233.52
778.69	233.41
779.01	233.35
779.33	233.18
779.66	233.03
779.98	232.92
780.31	232.83
780.63	232.78
780.95	232.72
781.28	232.71
781.60	232.61
781.92	232.54
782.25	232.47
782.57	232.41
782.89	232.35
783.22	232.26
783.54	232.20
783.86	232.12
784.19	232.08
784.51	232.03
784.83	231.98
785.16	231.91
785.48	231.88
785.80	231.83
786.12	231.81
786.45	231.74
786.77	231.72
787.09	231.68
787.42	231.61
787.74	231.58
788.06	231.54
788.38	231.50
788.71	231.44
789.03	231.40
789.35	231.34
789.67	231.29
789.99	231.25
790.32	231.20
790.64	231.19
790.96	231.21
791.28	231.12
791.61	231.08
791.93	231.03
792.25	231.01
792.57	231.03
792.89	230.94
793.21	230.93
793.54	230.89
793.86	230.86
794.18	230.86
794.50	230.80
794.82	230.77
795.14	230.74
795.47	230.78
795.79	230.76
796.11	230.75
796.43	230.71
796.75	230.71
797.07	230.68
797.39	230.65
797.71	230.56
798.04	230.58
798.36	230.55
798.68	230.52
799.00	230.48
799.32	230.42
799.64	230.45
799.96	230.44
800.28	230.41
800.60	230.35
800.92	230.35
801.24	230.31
801.56	230.28
801.89	230.24
802.21	230.21
802.53	230.17
802.85	230.18
803.17	230.20
803.49	230.13
803.81	230.09
804.13	230.05
804.45	230.00
804.77	229.97
805.09	229.98
805.41	229.95
805.73	229.90
806.05	229.85
806.37	229.80
806.69	229.74
807.01	229.70
807.33	229.70
807.65	229.63
807.97	229.69
808.28	229.66
808.60	229.63
808.92	229.59
809.24	229.59
809.56	229.52
809.88	229.45
810.20	229.43
810.52	229.41
810.84	229.37
811.16	229.33
811.48	229.27
811.80	229.22
812.12	229.20
812.43	229.20
812.75	229.19
813.07	229.14
813.39	229.11
813.71	229.10
814.03	229.06
814.35	229.02
814.67	228.92
814.98	228.87
815.30	228.83
815.62	228.78
815.94	228.70
816.26	228.71
816.58	228.69
816.89	228.67
817.21	228.61
817.53	228.61
817.85	228.62
818.17	228.60
818.48	228.57
818.80	228.57
819.12	228.55
819.44	228.51
819.76	228.48
820.07	228.46
820.39	228.43
820.71	228.44
821.03	228.43
821.34	228.41
821.66	228.43
821.98	228.43
822.30	228.43
822.61	228.50
822.93	228.45
823.25	228.45
823.57	228.40
823.88	228.42
824.20	228.42
824.52	228.38
824.83	228.38
825.15	228.35
825.47	228.34
825.79	228.33
826.10	228.33
826.42	228.32
826.74	228.33
827.05	228.34
827.37	228.32
827.69	228.29
828.00	228.26
828.32	228.25
828.64	228.24
828.95	228.27
829.27	228.21
829.58	228.22
829.90	228.22
830.22	228.26
830.53	228.27
830.85	228.25
831.17	228.24
831.48	228.27
831.80	228.29
832.11	228.27
832.43	228.27
832.75	228.28
833.06	228.33
833.38	228.30
833.69	228.28
834.01	228.30
834.32	228.32
834.64	228.32
834.96	228.32
835.27	228.33
835.59	228.31
835.90	228.30
836.22	228.31
836.53	228.28
836.85	228.27
837.16	228.34
837.48	228.36
837.79	228.43
838.11	228.39
838.42	228.41
838.74	228.44
839.05	228.43
839.37	228.41
839.68	228.36
840.00	228.38
840.31	228.40
840.63	228.38
840.94	228.40
841.26	228.41
841.57	228.38
841.88	228.36
842.20	228.35
842.51	228.32
842.83	228.28
843.14	228.37
843.46	228.37
843.77	228.30
844.08	228.26
844.40	228.18
844.71	228.19
845.03	228.16
845.34	228.10
845.65	228.08
845.97	228.09
846.28	228.08
846.60	228.05
846.91	228.01
847.22	228.00
847.54	227.97
847.85	227.95
848.16	227.96
848.48	227.95
848.79	227.95
849.10	227.97
849.42	227.99
849.73	227.87
850.04	227.85
850.36	227.81
850.67	227.83
850.98	227.82
851.30	227.80
851.61	227.77
851.92	227.74
852.23	227.77
852.55	227.72
852.86	227.73
853.17	227.71
853.49	227.72
853.80	227.72
854.11	227.72
854.42	227.72
854.74	227.70
855.05	227.71
855.36	227.67
855.67	227.63
855.99	227.58
856.30	227.70
856.61	227.69
856.92	227.69
857.23	227.67
857.55	227.65
857.86	227.63
858.17	227.65
858.48	227.65
858.79	227.63
859.11	227.65
859.42	227.65
859.73	227.65
860.04	227.66
860.35	227.62
860.66	227.59
860.98	227.59
861.29	227.61
861.60	227.60
861.91	227.61
862.22	227.63
862.53	227.62
862.84	227.50
863.16	227.53
863.47	227.52
863.78	227.53
864.09	227.55
864.40	227.58
864.71	227.60
865.02	227.61
865.33	227.58
865.64	227.58
865.95	227.58
866.27	227.64
866.58	227.63
866.89	227.66
867.20	227.66
867.51	227.66
867.82	227.64
868.13	227.68
868.44	227.68
868.75	227.70
869.06	227.72
869.37	227.75
869.68	227.73
869.99	227.76
870.30	227.77
870.61	227.78
870.92	227.78
871.23	227.78
871.54	227.81
871.85	227.89
872.16	227.91
872.47	227.89
872.78	227.82
873.09	227.83
873.40	227.83
873.71	227.86
874.02	227.87
874.33	227.87
874.64	227.82
874.95	227.85
875.26	227.84
875.56	227.84
875.87	227.82
876.18	227.83
876.49	227.90
876.80	227.88
877.11	227.88
877.42	227.87
877.73	227.86
878.04	227.85
878.35	227.81
878.66	227.80
878.96	227.82
879.27	227.85
879.58	227.85
879.89	227.83
880.20	227.83
880.51	227.80
880.82	227.77
881.12	227.80
881.43	227.78
881.74	227.77
882.05	227.76
882.36	227.77
882.67	227.78
882.97	227.69
883.28	227.67
883.59	227.66
883.90	227.65
884.21	227.67
884.51	227.65
884.82	227.65
885.13	227.63
885.44	227.64
885.74	227.64
886.05	227.61
886.36	227.63
886.67	227.56
886.98	227.64
887.28	227.66
887.59	227.65
887.90	227.66
888.20	227.60
888.51	227.59
888.82	227.58
889.13	227.59
889.43	227.65
889.74	227.63
890.05	227.61
890.35	227.59
890.66	227.55
890.97	227.52
891.28	227.47
891.58	227.48
891.89	227.45
892.20	227.43
892.50	227.45
892.81	227.44
893.12	227.46
893.42	227.39
893.73	227.37
894.04	227.35
894.34	227.31
894.65	227.30
894.95	227.32
895.26	227.30
895.57	227.29
895.87	227.23
896.18	227.26
896.48	227.26
896.79	227.25
897.10	227.27
897.40	227.25
897.71	227.28
898.01	227.29
898.32	227.31
898.63	227.30
898.93	227.27
899.24	227.26
899.54	227.27
899.85	227.23
900.15	227.27
900.46	227.28
900.76	227.31
901.07	227.32
901.38	227.30
901.68	227.32
901.99	227.29
902.29	227.27
902.60	227.26
902.90	227.25
903.21	227.26
903.51	227.24
903.82	227.31
904.12	227.32
904.43	227.31
904.73	227.30
905.03	227.31
905.34	227.42
905.64	227.41
905.95	227.39
906.25	227.41
906.56	227.39
906.86	227.39
907.17	227.39
907.47	227.41
907.77	227.39
908.08	227.35
908.38	227.37
908.69	227.40
908.99	227.45
909.30	227.48
909.60	227.48
909.90	227.47
910.21	227.43
910.51	227.42
910.81	227.39
911.12	227.42
911.42	227.45
911.73	227.35
912.03	227.35
912.33	227.36
912.64	227.37
912.94	227.35
913.24	227.34
913.55	227.33
913.85	227.35
914.15	227.39
914.46	227.42
914.76	227.42
915.06	227.40
915.37	227.35
915.67	227.35
915.97	227.37
916.27	227.35
916.58	227.33
916.88	227.29
917.18	227.32
917.49	227.38
917.79	227.35
918.09	227.38
918.39	227.43
918.70	227.46
919.00	227.47
919.30	227.49
919.60	227.46
919.91	227.47
920.21	227.45
920.51	227.44
920.81	227.43
921.12	227.45
921.42	227.44
921.72	227.44
922.02	227.44
922.32	227.42
922.63	227.40
922.93	227.50
923.23	227.55
923.53	227.52
923.83	227.44
924.13	227.48
924.44	227.43
924.74	227.42
925.04	227.45
925.34	227.45
925.64	227.41
925.94	227.41
926.24	227.44
926.55	227.42
926.85	227.43
927.15	227.42
927.45	227.40
927.75	227.40
928.05	227.41
928.35	227.40
928.65	227.44
928.95	227.48
929.26	227.40
929.56	227.40
929.86	227.42
930.16	227.40
930.46	227.37
930.76	227.38
931.06	227.35
931.36	227.31
931.66	227.30
931.96	227.34
932.26	227.37
932.56	227.35
932.86	227.33
933.16	227.33
933.46	227.30
933.76	227.30
934.06	227.35
934.36	227.36
934.66	227.34
934.96	227.31
935.26	227.30
935.56	227.31
935.86	227.32
936.16	227.33
936.46	227.32
936.76	227.31
937.06	227.34
937.36	227.39
937.66	227.38
937.96	227.39
938.26	227.36
938.56	227.36
938.86	227.37
939.16	227.41
939.46	227.43
939.76	227.46
940.06	227.44
940.35	227.39
940.65	227.37
940.95	227.38
941.25	227.33
941.55	227.32
941.85	227.32
942.15	227.33
942.45	227.32
942.75	227.35
943.04	227.37
943.34	227.36
943.64	227.32
943.94	227.31
944.24	227.33
944.54	227.36
944.84	227.34
945.13	227.34
945.43	227.34
945.73	227.33
946.03	227.34
946.33	227.31
946.62	227.31
946.92	227.30
947.22	227.30
947.52	227.32
947.82	227.34
948.11	227.31
948.41	227.27
948.71	227.25
949.01	227.22
949.31	227.20
949.60	227.20
949.90	227.17
950.20	227.17
950.50	227.14
950.79	227.09
951.09	227.10
951.39	227.07
951.69	227.04
951.98	227.01
952.28	226.98
952.58	226.98
952.87	226.96
953.17	226.94
953.47	226.95
953.76	226.98
954.06	226.94
954.36	226.93
954.66	226.92
954.95	226.93
955.25	226.91
955.55	226.90
955.84	226.87
956.14	226.91
956.44	226.92
956.73	226.89
957.03	226.91
957.32	226.91
957.62	226.91
957.92	226.90
958.21	226.89
958.51	226.99
958.81	227.01
959.10	227.02
959.40	227.05
959.69	227.04
959.99	227.04
960.29	227.07
960.58	227.06
960.88	227.10
961.17	227.06
961.47	227.09
961.76	227.11
962.06	227.14
962.36	227.09
962.65	227.10
962.95	227.12
963.24	227.09
963.54	227.08
963.83	227.10
964.13	227.12
964.42	227.11
964.72	227.05
965.01	227.06
965.31	227.07
965.60	227.06
965.90	227.14
966.19	227.13
966.49	227.11
966.78	227.13
967.08	227.13
967.37	227.13
967.67	227.12
967.96	227.13
968.26	227.14
968.55	227.18
968.85	227.16
969.14	227.15
969.43	227.17
969.73	227.19
970.02	227.17
970.32	227.19
970.61	227.20
970.91	227.18
971.20	227.15
971.49	227.12
971.79	227.13
972.08	227.03
972.38	227.05
972.67	227.07
972.96	227.07
973.26	227.04
973.55	227.09
973.85	227.11
974.14	227.11
974.43	227.11
974.73	227.10
975.02	227.10
975.31	227.11
975.61	227.13
975.90	227.10
976.19	227.08
976.49	227.06
976.78	227.09
977.07	227.09
977.37	227.17
977.66	227.21
977.95	227.17
978.24	227.23
978.54	227.22
978.83	227.20
979.12	227.21
979.42	227.22
979.71	227.21
980.00	227.20
980.29	227.21
980.59	227.18
980.88	227.20
981.17	227.23
981.46	227.23
981.76	227.21
982.05	227.25
982.34	227.26
982.63	227.27
982.93	227.24
983.22	227.26
983.51	227.22
983.80	227.19
984.09	227.19
984.39	227.15
984.68	227.15
984.97	227.15
985.26	227.12
985.55	227.13
985.85	227.09
986.14	227.09
986.43	227.06
986.72	227.08
987.01	227.03
987.30	227.00
987.59	226.99
987.89	226.99
988.18	226.95
988.47	226.93
988.76	226.94
989.05	226.93
989.34	226.90
989.63	226.95
989.92	226.95
990.22	226.95
990.51	226.95
990.80	226.92
991.09	226.95
991.38	226.93
991.67	226.92
991.96	226.92
992.25	226.94
992.54	226.93
992.83	226.93
993.12	226.94
993.41	226.97
993.70	227.02
993.99	227.00
994.28	227.03
994.58	227.04
994.87	227.02
995.16	227.04
995.45	227.05
995.74	227.00
996.03	227.01
996.32	227.05
996.61	227.06
996.90	227.03
997.19	227.02
997.48	227.03
997.77	226.98
998.06	227.02
998.34	227.01
998.63	227.02
998.92	226.98
999.21	227.01
999.50	227.01
999.79	226.97
1000.08	227.01
1000.37	227.01
1000.66	227.04
1000.95	227.05
1001.24	227.02
1001.53	227.02
1001.82	227.03
1002.11	227.01
1002.40	227.00
1002.68	227.02
1002.97	227.09
1003.26	227.08
1003.55	227.07
1003.84	227.11
1004.13	227.14
1004.42	227.13
1004.71	227.12
1004.99	227.17
1005.28	227.18
1005.57	227.15
1005.86	227.12
1006.15	227.12
1006.44	227.09
1006.72	227.10
1007.01	227.10
1007.30	227.16
1007.59	227.14
1007.88	227.16
1008.17	227.17
1008.45	227.16
1008.74	227.14
1009.03	227.11
1009.32	227.12
1009.60	227.14
1009.89	227.14
1010.18	227.09
1010.47	227.05
1010.76	227.05
1011.04	227.04
1011.33	227.02
1011.62	227.06
1011.91	227.09
1012.19	227.10
1012.48	227.08
1012.77	227.06
1013.05	227.10
1013.34	227.07
1013.63	227.06
1013.92	227.03
1014.20	227.05
1014.49	227.06
1014.78	227.06
1015.06	227.06
1015.35	227.03
1015.64	227.02
1015.92	227.02
1016.21	227.03
1016.50	227.05
1016.78	227.06
1017.07	227.05
1017.36	227.04
1017.64	226.98
1017.93	226.96
1018.22	226.95
1018.50	226.97
1018.79	226.97
1019.08	226.90
1019.36	226.90
1019.65	226.89
1019.93	226.91
1020.22	226.90
1020.51	226.94
1020.79	226.93
1021.08	227.01
1021.36	227.15
1021.65	226.94
1021.94	226.59
1022.22	226.85
1022.51	226.39
1022.79	227.24
1023.08	227.20
1023.36	228.01
1023.65	226.74
>>>>>End Processed Spectral Data<<<<<
