SpectraSuite Data File
++++++++++++++++++++++++++++++++++++
Date: Fri Feb 01 17:35:03 EST 2013
User: group
Dark Spectrum Present: No
Reference Spectrum Present: No
Number of Sampled Component Spectra: 1
Spectrometers: USB2E7196
Integration Time (usec): 35000 (USB2E7196)
Spectra Averaged: 100 (USB2E7196)
Boxcar Smoothing: 10 (USB2E7196)
Correct for Electrical Dark: No (USB2E7196)
Strobe/Lamp Enabled: No (USB2E7196)
Correct for Detector Non-linearity: No (USB2E7196)
Correct for Stray Light: No (USB2E7196)
Number of Pixels in Processed Spectrum: 2048
>>>>>Begin Processed Spectral Data<<<<<
339.09	0.00
339.48	213.53
339.86	214.65
340.24	215.71
340.63	217.20
341.01	220.10
341.39	219.67
341.78	221.26
342.16	222.62
342.54	222.48
342.93	211.46
343.31	222.14
343.69	222.66
344.07	223.11
344.46	223.54
344.84	223.93
345.22	224.15
345.60	224.40
345.99	224.55
346.37	224.66
346.75	224.79
347.13	224.85
347.52	224.87
347.90	224.92
348.28	224.90
348.66	224.95
349.05	224.96
349.43	224.96
349.81	224.99
350.19	225.00
350.57	225.04
350.96	225.09
351.34	225.16
351.72	225.24
352.10	225.32
352.48	225.37
352.87	225.41
353.25	225.46
353.63	225.52
354.01	225.59
354.39	225.68
354.77	225.73
355.15	225.81
355.54	225.87
355.92	225.94
356.30	226.04
356.68	226.14
357.06	226.20
357.44	226.23
357.82	226.28
358.20	226.36
358.58	226.44
358.97	226.53
359.35	226.65
359.73	226.72
360.11	226.80
360.49	226.85
360.87	226.89
361.25	226.96
361.63	227.02
362.01	227.09
362.39	227.10
362.77	227.11
363.15	227.16
363.53	227.21
363.91	227.24
364.29	227.22
364.67	227.17
365.05	227.19
365.43	227.24
365.81	227.27
366.19	227.30
366.57	227.33
366.95	227.31
367.33	227.25
367.71	227.19
368.09	227.20
368.47	227.20
368.85	227.22
369.23	227.23
369.61	227.21
369.99	227.21
370.37	227.19
370.75	227.24
371.13	227.19
371.51	227.16
371.89	227.15
372.27	227.14
372.65	227.13
373.03	227.10
373.41	227.06
373.78	227.02
374.16	226.94
374.54	226.86
374.92	226.81
375.30	226.76
375.68	226.73
376.06	226.66
376.44	226.59
376.82	226.52
377.19	226.43
377.57	226.36
377.95	226.26
378.33	226.21
378.71	226.08
379.09	226.03
379.47	225.98
379.84	225.89
380.22	225.83
380.60	225.72
380.98	225.66
381.36	225.60
381.73	225.53
382.11	225.51
382.49	225.46
382.87	225.40
383.25	225.34
383.62	225.39
384.00	225.35
384.38	225.28
384.76	225.24
385.13	225.26
385.51	225.21
385.89	225.18
386.27	225.14
386.64	225.12
387.02	225.09
387.40	225.02
387.78	224.97
388.15	224.92
388.53	224.88
388.91	224.81
389.29	224.76
389.66	224.72
390.04	224.64
390.42	224.63
390.79	224.61
391.17	224.58
391.55	224.44
391.92	224.41
392.30	224.43
392.68	224.40
393.05	224.34
393.43	224.34
393.81	224.32
394.18	224.30
394.56	224.31
394.94	224.31
395.31	224.32
395.69	224.39
396.06	224.45
396.44	224.47
396.82	224.50
397.19	224.58
397.57	224.59
397.95	224.66
398.32	224.65
398.70	224.69
399.07	224.74
399.45	224.80
399.82	224.83
400.20	224.89
400.58	224.94
400.95	224.97
401.33	225.07
401.70	225.22
402.08	225.30
402.45	225.35
402.83	225.51
403.20	225.59
403.58	225.64
403.95	225.76
404.33	225.89
404.71	226.00
405.08	226.19
405.46	226.36
405.83	226.49
406.21	226.67
406.58	226.84
406.96	227.03
407.33	227.23
407.70	227.44
408.08	227.70
408.45	227.92
408.83	228.17
409.20	228.35
409.58	228.54
409.95	228.82
410.33	229.12
410.70	229.34
411.08	229.65
411.45	230.00
411.82	230.27
412.20	230.65
412.57	231.09
412.95	231.38
413.32	231.81
413.69	232.22
414.07	232.69
414.44	233.18
414.82	233.66
415.19	234.21
415.56	234.78
415.94	235.36
416.31	236.08
416.68	236.74
417.06	237.51
417.43	238.24
417.81	239.09
418.18	239.89
418.55	240.78
418.93	241.69
419.30	242.65
419.67	243.67
420.04	244.67
420.42	245.68
420.79	246.94
421.16	248.12
421.54	249.42
421.91	250.63
422.28	251.93
422.66	253.34
423.03	254.73
423.40	256.12
423.77	257.61
424.15	259.05
424.52	260.62
424.89	262.31
425.26	263.90
425.64	265.38
426.01	267.09
426.38	268.82
426.75	270.56
427.13	272.36
427.50	274.24
427.87	276.23
428.24	278.18
428.61	280.03
428.99	282.05
429.36	284.24
429.73	286.45
430.10	288.57
430.47	290.71
430.85	292.86
431.22	295.20
431.59	297.63
431.96	299.97
432.33	302.54
432.70	304.98
433.08	307.95
433.45	310.68
433.82	313.32
434.19	316.29
434.56	319.20
434.93	321.90
435.30	324.66
435.68	327.64
436.05	330.65
436.42	333.51
436.79	336.17
437.16	338.96
437.53	341.89
437.90	344.84
438.27	347.71
438.64	350.68
439.01	353.39
439.38	355.73
439.75	357.99
440.13	360.61
440.50	363.03
440.87	364.94
441.24	366.94
441.61	369.24
441.98	370.83
442.35	372.73
442.72	374.73
443.09	376.61
443.46	377.64
443.83	378.23
444.20	378.77
444.57	379.66
444.94	379.99
445.31	380.35
445.68	380.72
446.05	380.78
446.42	380.41
446.79	380.01
447.16	379.57
447.53	379.29
447.90	378.13
448.27	376.95
448.64	375.31
449.01	374.21
449.37	372.19
449.74	370.25
450.11	367.91
450.48	365.35
450.85	362.68
451.22	360.47
451.59	358.41
451.96	356.43
452.33	353.70
452.70	351.23
453.07	348.26
453.43	345.25
453.80	342.43
454.17	339.63
454.54	336.94
454.91	334.09
455.28	331.29
455.65	328.66
456.02	326.11
456.38	323.87
456.75	321.03
457.12	318.65
457.49	316.31
457.86	314.09
458.23	312.13
458.59	309.99
458.96	307.79
459.33	305.76
459.70	303.81
460.07	302.25
460.43	300.44
460.80	298.76
461.17	297.27
461.54	295.68
461.91	294.20
462.27	292.71
462.64	291.41
463.01	289.99
463.38	288.64
463.74	287.23
464.11	286.02
464.48	284.97
464.85	283.85
465.21	282.95
465.58	282.00
465.95	280.84
466.32	279.95
466.68	279.02
467.05	278.16
467.42	277.23
467.78	276.25
468.15	275.39
468.52	274.70
468.88	273.81
469.25	273.00
469.62	272.34
469.98	271.66
470.35	271.02
470.72	270.41
471.08	269.76
471.45	269.23
471.82	268.67
472.18	268.06
472.55	267.58
472.92	267.03
473.28	266.52
473.65	266.12
474.02	265.61
474.38	265.22
474.75	264.90
475.11	264.50
475.48	264.23
475.85	263.97
476.21	263.77
476.58	263.55
476.94	263.38
477.31	263.20
477.67	263.03
478.04	262.90
478.41	262.83
478.77	262.83
479.14	262.71
479.50	262.70
479.87	262.77
480.23	262.87
480.60	262.92
480.96	263.01
481.33	263.18
481.69	263.38
482.06	263.59
482.42	263.72
482.79	263.99
483.15	264.31
483.52	264.68
483.88	265.01
484.25	265.41
484.61	265.83
484.98	266.29
485.34	266.86
485.71	267.45
486.07	268.01
486.44	268.57
486.80	269.30
487.17	270.02
487.53	270.83
487.90	271.67
488.26	272.61
488.62	273.60
488.99	274.56
489.35	275.62
489.72	276.75
490.08	278.01
490.44	279.23
490.81	280.56
491.17	281.90
491.54	283.37
491.90	284.87
492.26	286.51
492.63	288.24
492.99	289.99
493.36	291.87
493.72	293.96
494.08	296.03
494.45	298.24
494.81	300.61
495.17	303.02
495.54	305.57
495.90	308.22
496.26	311.01
496.63	313.93
496.99	317.02
497.35	320.26
497.72	323.59
498.08	327.11
498.44	330.74
498.80	334.67
499.17	338.67
499.53	342.81
499.89	347.11
500.26	351.53
500.62	356.16
500.98	361.12
501.34	366.14
501.71	371.42
502.07	376.77
502.43	382.30
502.79	388.03
503.16	393.98
503.52	400.15
503.88	406.44
504.24	412.97
504.60	419.70
504.97	426.77
505.33	433.98
505.69	441.59
506.05	449.17
506.41	456.87
506.78	464.90
507.14	473.20
507.50	481.80
507.86	490.66
508.22	499.72
508.59	508.72
508.95	518.05
509.31	527.65
509.67	537.56
510.03	547.52
510.39	557.80
510.75	568.34
511.12	578.99
511.48	590.00
511.84	601.19
512.20	612.50
512.56	624.12
512.92	635.98
513.28	647.93
513.64	660.20
514.00	672.59
514.37	685.19
514.73	697.86
515.09	710.44
515.45	723.43
515.81	736.59
516.17	750.15
516.53	763.89
516.89	777.71
517.25	791.53
517.61	805.64
517.97	819.68
518.33	833.68
518.69	848.05
519.05	862.58
519.41	877.25
519.77	892.25
520.13	907.09
520.49	922.01
520.85	936.96
521.21	952.05
521.57	967.72
521.93	982.83
522.29	998.60
522.65	1014.37
523.01	1029.95
523.37	1045.56
523.73	1061.18
524.09	1076.77
524.45	1092.47
524.81	1108.49
525.17	1124.69
525.53	1141.04
525.89	1157.43
526.25	1173.69
526.61	1189.63
526.97	1205.90
527.33	1221.96
527.68	1238.10
528.04	1254.03
528.40	1270.04
528.76	1286.65
529.12	1302.73
529.48	1319.29
529.84	1334.83
530.20	1350.91
530.56	1367.37
530.91	1384.15
531.27	1400.52
531.63	1416.45
531.99	1432.52
532.35	1448.10
532.71	1463.50
533.07	1479.26
533.42	1494.72
533.78	1510.34
534.14	1526.04
534.50	1540.93
534.86	1556.28
535.21	1571.11
535.57	1586.62
535.93	1601.88
536.29	1616.31
536.65	1631.05
537.00	1645.30
537.36	1660.38
537.72	1674.60
538.08	1688.79
538.44	1702.29
538.79	1715.77
539.15	1729.22
539.51	1742.63
539.87	1756.70
540.22	1770.30
540.58	1783.80
540.94	1796.79
541.29	1809.35
541.65	1821.90
542.01	1834.96
542.37	1847.22
542.72	1859.44
543.08	1871.24
543.44	1883.45
543.79	1894.68
544.15	1905.73
544.51	1917.34
544.87	1928.30
545.22	1939.16
545.58	1949.39
545.94	1959.20
546.29	1969.12
546.65	1978.91
547.01	1988.39
547.36	1997.21
547.72	2005.84
548.07	2014.02
548.43	2022.41
548.79	2030.41
549.14	2038.46
549.50	2045.87
549.86	2053.52
550.21	2061.03
550.57	2068.40
550.92	2075.21
551.28	2082.44
551.64	2089.66
551.99	2096.47
552.35	2102.79
552.70	2109.14
553.06	2115.39
553.41	2122.03
553.77	2128.33
554.13	2134.76
554.48	2141.02
554.84	2146.93
555.19	2152.40
555.55	2157.77
555.90	2162.58
556.26	2168.20
556.61	2172.94
556.97	2177.82
557.32	2182.51
557.68	2187.24
558.03	2191.77
558.39	2195.60
558.74	2200.58
559.10	2204.80
559.45	2208.70
559.81	2213.31
560.16	2217.58
560.52	2221.22
560.87	2224.96
561.23	2228.02
561.58	2231.20
561.94	2234.26
562.29	2236.75
562.64	2240.06
563.00	2243.07
563.35	2246.96
563.71	2250.27
564.06	2253.72
564.42	2256.95
564.77	2260.02
565.12	2262.65
565.48	2265.08
565.83	2267.63
566.19	2269.42
566.54	2270.65
566.89	2272.45
567.25	2273.68
567.60	2275.28
567.96	2277.46
568.31	2278.72
568.66	2280.36
569.02	2281.53
569.37	2282.34
569.72	2283.81
570.08	2284.32
570.43	2284.79
570.78	2284.78
571.14	2283.83
571.49	2282.91
571.84	2282.90
572.20	2282.06
572.55	2281.21
572.90	2279.85
573.26	2278.72
573.61	2277.17
573.96	2276.07
574.31	2273.40
574.67	2270.79
575.02	2267.66
575.37	2264.67
575.72	2261.54
576.08	2258.36
576.43	2255.38
576.78	2252.03
577.13	2249.13
577.49	2246.17
577.84	2243.18
578.19	2239.64
578.54	2236.49
578.90	2232.94
579.25	2227.68
579.60	2223.10
579.95	2218.62
580.30	2214.08
580.66	2209.48
581.01	2204.90
581.36	2200.17
581.71	2196.47
582.06	2192.51
582.42	2188.51
582.77	2183.72
583.12	2179.42
583.47	2175.33
583.82	2170.67
584.17	2165.93
584.53	2160.73
584.88	2155.51
585.23	2149.96
585.58	2144.78
585.93	2139.51
586.28	2134.84
586.63	2130.23
586.98	2125.45
587.34	2120.98
587.69	2116.30
588.04	2111.36
588.39	2106.20
588.74	2099.97
589.09	2094.01
589.44	2087.39
589.79	2081.33
590.14	2075.70
590.49	2069.35
590.84	2063.00
591.19	2057.37
591.54	2051.07
591.89	2044.20
592.25	2037.81
592.60	2030.83
592.95	2023.70
593.30	2016.56
593.65	2009.11
594.00	2002.25
594.35	1995.16
594.70	1987.26
595.05	1980.42
595.40	1973.19
595.75	1965.89
596.10	1960.03
596.45	1953.59
596.80	1947.65
597.15	1941.39
597.50	1934.77
597.85	1928.37
598.19	1921.94
598.54	1915.13
598.89	1908.60
599.24	1902.71
599.59	1896.31
599.94	1890.17
600.29	1883.84
600.64	1877.30
600.99	1870.22
601.34	1863.61
601.69	1856.70
602.04	1849.95
602.39	1842.71
602.74	1836.17
603.08	1829.46
603.43	1822.73
603.78	1815.38
604.13	1808.22
604.48	1801.30
604.83	1794.36
605.18	1787.67
605.53	1779.84
605.87	1771.81
606.22	1764.69
606.57	1756.73
606.92	1749.09
607.27	1742.26
607.62	1735.44
607.96	1728.34
608.31	1721.77
608.66	1714.18
609.01	1706.72
609.36	1699.30
609.70	1691.32
610.05	1683.14
610.40	1675.51
610.75	1667.16
611.10	1659.43
611.44	1650.90
611.79	1642.59
612.14	1633.89
612.49	1624.60
612.83	1616.10
613.18	1607.78
613.53	1599.55
613.88	1591.11
614.22	1582.86
614.57	1573.92
614.92	1565.87
615.27	1558.27
615.61	1549.93
615.96	1541.68
616.31	1533.92
616.65	1526.43
617.00	1518.77
617.35	1511.04
617.70	1502.67
618.04	1494.08
618.39	1485.72
618.74	1478.12
619.08	1469.69
619.43	1461.99
619.78	1454.91
620.12	1447.67
620.47	1440.21
620.82	1431.90
621.16	1424.25
621.51	1416.63
621.85	1408.90
622.20	1400.22
622.55	1391.70
622.89	1383.71
623.24	1376.03
623.59	1368.46
623.93	1360.85
624.28	1353.40
624.62	1345.82
624.97	1338.54
625.32	1331.71
625.66	1324.57
626.01	1317.38
626.35	1310.04
626.70	1302.17
627.04	1294.41
627.39	1286.63
627.73	1279.00
628.08	1272.07
628.43	1264.81
628.77	1257.42
629.12	1249.84
629.46	1242.62
629.81	1235.07
630.15	1227.74
630.50	1220.30
630.84	1212.11
631.19	1203.95
631.53	1196.40
631.88	1188.69
632.22	1180.96
632.57	1173.51
632.91	1165.90
633.26	1158.33
633.60	1150.73
633.95	1143.47
634.29	1136.31
634.64	1129.42
634.98	1122.04
635.32	1114.78
635.67	1108.02
636.01	1101.20
636.36	1094.42
636.70	1087.79
637.05	1081.16
637.39	1074.58
637.73	1068.04
638.08	1062.08
638.42	1056.22
638.77	1049.77
639.11	1043.31
639.45	1036.90
639.80	1030.25
640.14	1023.87
640.49	1017.40
640.83	1011.14
641.17	1005.06
641.52	998.75
641.86	992.26
642.20	986.43
642.55	979.94
642.89	973.42
643.23	966.79
643.58	960.91
643.92	954.76
644.26	948.84
644.61	942.83
644.95	936.82
645.29	930.29
645.64	923.50
645.98	917.09
646.32	911.05
646.66	905.01
647.01	899.16
647.35	893.45
647.69	887.50
648.04	881.89
648.38	876.03
648.72	870.14
649.06	864.10
649.41	858.04
649.75	852.24
650.09	846.33
650.43	840.60
650.78	834.46
651.12	828.45
651.46	822.66
651.80	816.96
652.14	811.51
652.49	806.17
652.83	800.98
653.17	795.39
653.51	789.80
653.85	784.36
654.20	778.77
654.54	772.74
654.88	767.03
655.22	761.12
655.56	755.37
655.90	749.79
656.25	744.61
656.59	739.31
656.93	734.21
657.27	729.01
657.61	723.58
657.95	718.42
658.29	713.30
658.64	707.92
658.98	702.52
659.32	696.88
659.66	691.60
660.00	686.31
660.34	681.26
660.68	676.23
661.02	671.15
661.36	666.42
661.70	661.91
662.05	657.53
662.39	653.18
662.73	648.71
663.07	644.21
663.41	639.71
663.75	635.17
664.09	630.56
664.43	626.15
664.77	622.05
665.11	617.87
665.45	613.64
665.79	609.56
666.13	605.44
666.47	601.39
666.81	597.32
667.15	593.07
667.49	589.10
667.83	585.15
668.17	581.13
668.51	577.04
668.85	572.98
669.19	569.07
669.53	565.17
669.87	561.33
670.21	557.66
670.55	553.98
670.89	550.53
671.23	547.07
671.57	543.52
671.91	539.91
672.25	536.30
672.58	532.85
672.92	529.42
673.26	526.20
673.60	523.00
673.94	519.80
674.28	516.89
674.62	513.98
674.96	510.94
675.30	508.07
675.64	505.14
675.97	502.23
676.31	499.33
676.65	496.39
676.99	493.62
677.33	490.71
677.67	487.84
678.01	484.80
678.34	481.89
678.68	478.98
679.02	476.16
679.36	473.34
679.70	470.56
680.04	467.82
680.37	464.94
680.71	462.15
681.05	459.52
681.39	456.79
681.73	454.08
682.06	451.54
682.40	449.02
682.74	446.42
683.08	443.88
683.42	441.27
683.75	438.77
684.09	436.12
684.43	433.68
684.77	431.23
685.10	428.87
685.44	426.47
685.78	424.21
686.12	421.97
686.45	419.67
686.79	417.38
687.13	415.16
687.46	412.98
687.80	410.81
688.14	408.53
688.48	406.47
688.81	404.28
689.15	402.10
689.49	399.89
689.82	397.81
690.16	395.77
690.50	393.79
690.83	391.85
691.17	389.90
691.51	387.94
691.84	386.06
692.18	384.18
692.52	382.19
692.85	380.20
693.19	378.33
693.52	376.53
693.86	374.69
694.20	372.90
694.53	371.11
694.87	369.24
695.21	367.47
695.54	365.61
695.88	363.80
696.21	362.06
696.55	360.38
696.88	358.70
697.22	356.96
697.56	355.32
697.89	353.62
698.23	352.01
698.56	350.37
698.90	348.82
699.23	347.14
699.57	345.53
699.90	343.99
700.24	342.37
700.58	340.84
700.91	339.35
701.25	337.90
701.58	336.49
701.92	335.11
702.25	333.72
702.59	332.32
702.92	331.04
703.26	329.69
703.59	328.38
703.93	327.13
704.26	325.90
704.60	324.59
704.93	323.33
705.26	322.10
705.60	320.89
705.93	319.68
706.27	318.63
706.60	317.58
706.94	316.46
707.27	315.31
707.61	314.18
707.94	313.10
708.27	311.96
708.61	310.85
708.94	309.83
709.28	308.84
709.61	307.85
709.94	306.82
710.28	305.80
710.61	304.75
710.95	303.63
711.28	302.69
711.61	301.70
711.95	300.77
712.28	299.79
712.61	298.81
712.95	297.83
713.28	296.88
713.61	295.95
713.95	295.05
714.28	294.21
714.61	293.32
714.95	292.46
715.28	291.62
715.61	290.71
715.95	289.80
716.28	288.89
716.61	288.03
716.95	287.23
717.28	286.46
717.61	285.70
717.94	285.00
718.28	284.15
718.61	283.46
718.94	282.73
719.27	282.03
719.61	281.37
719.94	280.70
720.27	279.98
720.60	279.29
720.94	278.62
721.27	277.99
721.60	277.36
721.93	276.75
722.27	276.14
722.60	275.57
722.93	275.01
723.26	274.46
723.59	273.91
723.93	273.32
724.26	272.72
724.59	272.13
724.92	271.55
725.25	271.07
725.59	270.49
725.92	269.99
726.25	269.46
726.58	268.95
726.91	268.46
727.24	268.00
727.57	267.50
727.91	266.99
728.24	266.54
728.57	266.05
728.90	265.58
729.23	265.09
729.56	264.71
729.89	264.25
730.22	263.77
730.55	263.28
730.89	262.82
731.22	262.40
731.55	262.00
731.88	261.56
732.21	261.13
732.54	260.71
732.87	260.27
733.20	259.89
733.53	259.51
733.86	259.11
734.19	258.70
734.52	258.35
734.85	258.02
735.18	257.56
735.51	257.23
735.84	256.83
736.17	256.50
736.50	256.05
736.83	255.84
737.16	255.51
737.49	255.18
737.82	254.86
738.15	254.53
738.48	254.17
738.81	253.87
739.14	253.53
739.47	253.23
739.80	252.89
740.13	252.57
740.46	252.23
740.79	251.90
741.12	251.58
741.45	251.26
741.78	250.91
742.11	250.67
742.44	250.33
742.77	250.06
743.10	249.73
743.43	249.44
743.75	249.01
744.08	248.83
744.41	248.55
744.74	248.27
745.07	247.97
745.40	247.73
745.73	247.50
746.06	247.22
746.39	246.93
746.71	246.65
747.04	246.37
747.37	246.09
747.70	245.83
748.03	245.57
748.36	245.35
748.68	245.11
749.01	244.82
749.34	244.60
749.67	244.34
750.00	244.11
750.33	243.91
750.65	243.69
750.98	243.37
751.31	243.12
751.64	242.88
751.97	242.73
752.29	242.49
752.62	242.22
752.95	242.00
753.28	241.76
753.60	241.58
753.93	241.38
754.26	241.18
754.59	240.97
754.91	240.73
755.24	240.53
755.57	240.33
755.90	240.12
756.22	239.90
756.55	239.67
756.88	239.47
757.20	239.21
757.53	239.00
757.86	238.78
758.19	238.62
758.51	238.44
758.84	238.20
759.17	238.02
759.49	237.82
759.82	237.70
760.15	237.54
760.47	237.37
760.80	237.23
761.13	237.11
761.45	236.88
761.78	236.77
762.11	236.58
762.43	236.44
762.76	236.31
763.08	236.17
763.41	236.04
763.74	235.88
764.06	235.75
764.39	235.63
764.71	235.51
765.04	235.37
765.37	235.23
765.69	235.10
766.02	234.96
766.34	234.80
766.67	234.63
767.00	234.53
767.32	234.46
767.65	234.37
767.97	234.23
768.30	234.17
768.62	234.04
768.95	233.95
769.27	233.86
769.60	233.75
769.92	233.65
770.25	233.54
770.57	233.44
770.90	233.36
771.22	233.26
771.55	233.19
771.87	233.09
772.20	233.00
772.52	232.99
772.85	233.03
773.17	232.98
773.50	232.90
773.82	232.80
774.15	232.69
774.47	232.55
774.80	232.47
775.12	232.38
775.45	232.33
775.77	232.26
776.09	232.16
776.42	232.08
776.74	232.03
777.07	232.00
777.39	231.94
777.72	231.87
778.04	231.82
778.36	231.74
778.69	231.69
779.01	231.66
779.33	231.52
779.66	231.36
779.98	231.28
780.31	231.18
780.63	231.17
780.95	231.11
781.28	231.04
781.60	230.96
781.92	230.93
782.25	230.84
782.57	230.77
782.89	230.72
783.22	230.67
783.54	230.60
783.86	230.54
784.19	230.46
784.51	230.45
784.83	230.36
785.16	230.31
785.48	230.24
785.80	230.16
786.12	230.11
786.45	230.05
786.77	230.02
787.09	229.98
787.42	229.89
787.74	229.83
788.06	229.79
788.38	229.77
788.71	229.67
789.03	229.63
789.35	229.60
789.67	229.56
789.99	229.51
790.32	229.46
790.64	229.40
790.96	229.46
791.28	229.41
791.61	229.35
791.93	229.30
792.25	229.26
792.57	229.30
792.89	229.24
793.21	229.21
793.54	229.15
793.86	229.11
794.18	229.10
794.50	229.06
794.82	228.99
795.14	228.92
795.47	228.90
795.79	228.88
796.11	228.81
796.43	228.77
796.75	228.73
797.07	228.70
797.39	228.66
797.71	228.55
798.04	228.51
798.36	228.49
798.68	228.44
799.00	228.44
799.32	228.37
799.64	228.36
799.96	228.33
800.28	228.32
800.60	228.31
800.92	228.29
801.24	228.26
801.56	228.28
801.89	228.23
802.21	228.23
802.53	228.18
802.85	228.19
803.17	228.22
803.49	228.16
803.81	228.12
804.13	228.05
804.45	228.00
804.77	227.95
805.09	227.96
805.41	227.94
805.73	227.87
806.05	227.80
806.37	227.77
806.69	227.75
807.01	227.73
807.33	227.67
807.65	227.57
807.97	227.58
808.28	227.50
808.60	227.52
808.92	227.51
809.24	227.56
809.56	227.49
809.88	227.41
810.20	227.40
810.52	227.43
810.84	227.42
811.16	227.43
811.48	227.43
811.80	227.38
812.12	227.35
812.43	227.36
812.75	227.34
813.07	227.32
813.39	227.27
813.71	227.21
814.03	227.20
814.35	227.20
814.67	227.16
814.98	227.17
815.30	227.18
815.62	227.12
815.94	227.04
816.26	227.05
816.58	227.07
816.89	227.06
817.21	227.00
817.53	226.98
817.85	226.94
818.17	226.89
818.48	226.85
818.80	226.84
819.12	226.79
819.44	226.77
819.76	226.76
820.07	226.74
820.39	226.73
820.71	226.73
821.03	226.69
821.34	226.64
821.66	226.65
821.98	226.58
822.30	226.58
822.61	226.63
822.93	226.61
823.25	226.55
823.57	226.53
823.88	226.52
824.20	226.51
824.52	226.50
824.83	226.51
825.15	226.53
825.47	226.51
825.79	226.52
826.10	226.50
826.42	226.46
826.74	226.47
827.05	226.44
827.37	226.43
827.69	226.43
828.00	226.47
828.32	226.43
828.64	226.42
828.95	226.41
829.27	226.35
829.58	226.32
829.90	226.36
830.22	226.35
830.53	226.32
830.85	226.29
831.17	226.30
831.48	226.26
831.80	226.22
832.11	226.21
832.43	226.19
832.75	226.18
833.06	226.23
833.38	226.18
833.69	226.20
834.01	226.18
834.32	226.16
834.64	226.10
834.96	226.08
835.27	226.08
835.59	226.05
835.90	226.04
836.22	226.02
836.53	225.97
836.85	225.98
837.16	226.06
837.48	226.07
837.79	226.05
838.11	226.06
838.42	226.04
838.74	226.03
839.05	226.03
839.37	226.03
839.68	225.94
840.00	225.95
840.31	225.93
840.63	225.88
840.94	225.85
841.26	225.85
841.57	225.85
841.88	225.82
842.20	225.81
842.51	225.76
842.83	225.75
843.14	225.80
843.46	225.76
843.77	225.71
844.08	225.68
844.40	225.62
844.71	225.58
845.03	225.56
845.34	225.53
845.65	225.50
845.97	225.49
846.28	225.48
846.60	225.44
846.91	225.42
847.22	225.43
847.54	225.46
847.85	225.43
848.16	225.40
848.48	225.39
848.79	225.43
849.10	225.45
849.42	225.44
849.73	225.35
850.04	225.29
850.36	225.24
850.67	225.26
850.98	225.28
851.30	225.29
851.61	225.23
851.92	225.25
852.23	225.27
852.55	225.25
852.86	225.27
853.17	225.30
853.49	225.34
853.80	225.36
854.11	225.41
854.42	225.46
854.74	225.44
855.05	225.43
855.36	225.38
855.67	225.37
855.99	225.36
856.30	225.48
856.61	225.50
856.92	225.47
857.23	225.48
857.55	225.47
857.86	225.46
858.17	225.51
858.48	225.49
858.79	225.47
859.11	225.49
859.42	225.49
859.73	225.48
860.04	225.46
860.35	225.44
860.66	225.35
860.98	225.36
861.29	225.37
861.60	225.37
861.91	225.38
862.22	225.39
862.53	225.40
862.84	225.34
863.16	225.39
863.47	225.42
863.78	225.41
864.09	225.41
864.40	225.45
864.71	225.47
865.02	225.47
865.33	225.48
865.64	225.45
865.95	225.46
866.27	225.53
866.58	225.52
866.89	225.48
867.20	225.52
867.51	225.47
867.82	225.52
868.13	225.54
868.44	225.53
868.75	225.56
869.06	225.55
869.37	225.54
869.68	225.50
869.99	225.51
870.30	225.50
870.61	225.52
870.92	225.49
871.23	225.48
871.54	225.49
871.85	225.50
872.16	225.54
872.47	225.52
872.78	225.42
873.09	225.46
873.40	225.49
873.71	225.48
874.02	225.50
874.33	225.47
874.64	225.46
874.95	225.50
875.26	225.42
875.56	225.42
875.87	225.38
876.18	225.36
876.49	225.47
876.80	225.48
877.11	225.44
877.42	225.44
877.73	225.44
878.04	225.42
878.35	225.43
878.66	225.40
878.96	225.40
879.27	225.38
879.58	225.34
879.89	225.31
880.20	225.31
880.51	225.30
880.82	225.27
881.12	225.26
881.43	225.20
881.74	225.26
882.05	225.25
882.36	225.25
882.67	225.25
882.97	225.11
883.28	225.07
883.59	225.06
883.90	225.05
884.21	225.04
884.51	225.04
884.82	225.02
885.13	225.03
885.44	225.03
885.74	225.05
886.05	225.05
886.36	225.03
886.67	224.99
886.98	225.02
887.28	225.03
887.59	225.05
887.90	225.04
888.20	224.96
888.51	224.97
888.82	224.96
889.13	224.96
889.43	225.04
889.74	225.03
890.05	225.04
890.35	225.04
890.66	225.01
890.97	224.98
891.28	224.95
891.58	224.95
891.89	224.94
892.20	224.90
892.50	224.89
892.81	224.89
893.12	224.87
893.42	224.82
893.73	224.81
894.04	224.79
894.34	224.79
894.65	224.83
894.95	224.81
895.26	224.81
895.57	224.87
895.87	224.82
896.18	224.83
896.48	224.82
896.79	224.79
897.10	224.83
897.40	224.85
897.71	224.87
898.01	224.86
898.32	224.87
898.63	224.89
898.93	224.92
899.24	224.98
899.54	225.02
899.85	225.04
900.15	225.06
900.46	225.04
900.76	225.05
901.07	225.04
901.38	225.04
901.68	225.05
901.99	224.99
902.29	224.95
902.60	224.95
902.90	224.92
903.21	224.96
903.51	224.98
903.82	224.99
904.12	225.03
904.43	225.04
904.73	225.04
905.03	225.04
905.34	225.13
905.64	225.07
905.95	225.07
906.25	225.07
906.56	225.05
906.86	225.07
907.17	225.07
907.47	225.10
907.77	225.09
908.08	225.08
908.38	225.10
908.69	225.14
908.99	225.15
909.30	225.18
909.60	225.17
909.90	225.14
910.21	225.11
910.51	225.06
910.81	225.03
911.12	225.05
911.42	225.02
911.73	224.89
912.03	224.93
912.33	224.94
912.64	224.92
912.94	224.90
913.24	224.90
913.55	224.92
913.85	224.90
914.15	224.92
914.46	224.94
914.76	224.94
915.06	224.93
915.37	224.91
915.67	224.92
915.97	224.89
916.27	224.85
916.58	224.89
916.88	224.90
917.18	224.93
917.49	225.00
917.79	225.03
918.09	225.06
918.39	225.07
918.70	225.06
919.00	225.07
919.30	225.12
919.60	225.09
919.91	225.06
920.21	225.05
920.51	225.02
920.81	225.00
921.12	224.99
921.42	224.99
921.72	225.01
922.02	225.01
922.32	225.02
922.63	225.01
922.93	225.04
923.23	225.04
923.53	225.01
923.83	224.92
924.13	224.93
924.44	224.92
924.74	224.93
925.04	224.94
925.34	224.96
925.64	224.93
925.94	224.93
926.24	224.98
926.55	224.97
926.85	224.99
927.15	225.01
927.45	225.00
927.75	225.00
928.05	224.99
928.35	225.02
928.65	225.09
928.95	225.13
929.26	225.10
929.56	225.09
929.86	225.07
930.16	225.10
930.46	225.11
930.76	225.12
931.06	225.08
931.36	225.07
931.66	225.09
931.96	225.10
932.26	225.11
932.56	225.08
932.86	225.10
933.16	225.10
933.46	225.10
933.76	225.11
934.06	225.16
934.36	225.19
934.66	225.16
934.96	225.12
935.26	225.12
935.56	225.13
935.86	225.14
936.16	225.17
936.46	225.13
936.76	225.10
937.06	225.08
937.36	225.06
937.66	225.08
937.96	225.06
938.26	225.04
938.56	225.04
938.86	225.05
939.16	225.06
939.46	225.05
939.76	225.03
940.06	225.01
940.35	224.97
940.65	224.91
940.95	224.91
941.25	224.88
941.55	224.89
941.85	224.89
942.15	224.91
942.45	224.91
942.75	224.90
943.04	224.91
943.34	224.94
943.64	224.94
943.94	224.90
944.24	224.87
944.54	224.89
944.84	224.88
945.13	224.87
945.43	224.82
945.73	224.84
946.03	224.84
946.33	224.83
946.62	224.79
946.92	224.80
947.22	224.83
947.52	224.83
947.82	224.79
948.11	224.75
948.41	224.73
948.71	224.70
949.01	224.74
949.31	224.72
949.60	224.74
949.90	224.73
950.20	224.75
950.50	224.77
950.79	224.78
951.09	224.79
951.39	224.78
951.69	224.79
951.98	224.84
952.28	224.84
952.58	224.84
952.87	224.89
953.17	224.94
953.47	224.93
953.76	224.95
954.06	224.96
954.36	224.96
954.66	224.97
954.95	225.03
955.25	225.03
955.55	225.03
955.84	225.01
956.14	225.02
956.44	225.04
956.73	225.02
957.03	225.02
957.32	225.02
957.62	224.98
957.92	225.01
958.21	224.99
958.51	225.10
958.81	225.11
959.10	225.09
959.40	225.10
959.69	225.09
959.99	225.11
960.29	225.16
960.58	225.13
960.88	225.15
961.17	225.15
961.47	225.14
961.76	225.15
962.06	225.16
962.36	225.14
962.65	225.14
962.95	225.14
963.24	225.09
963.54	225.09
963.83	225.12
964.13	225.09
964.42	225.02
964.72	224.97
965.01	224.98
965.31	224.99
965.60	224.95
965.90	225.00
966.19	224.95
966.49	224.90
966.78	224.91
967.08	224.90
967.37	224.89
967.67	224.86
967.96	224.87
968.26	224.86
968.55	224.88
968.85	224.88
969.14	224.87
969.43	224.88
969.73	224.89
970.02	224.89
970.32	224.93
970.61	224.93
970.91	224.85
971.20	224.84
971.49	224.79
971.79	224.79
972.08	224.74
972.38	224.75
972.67	224.76
972.96	224.77
973.26	224.74
973.55	224.75
973.85	224.75
974.14	224.73
974.43	224.76
974.73	224.75
975.02	224.71
975.31	224.72
975.61	224.72
975.90	224.68
976.19	224.68
976.49	224.67
976.78	224.66
977.07	224.68
977.37	224.67
977.66	224.72
977.95	224.71
978.24	224.68
978.54	224.71
978.83	224.70
979.12	224.70
979.42	224.71
979.71	224.66
980.00	224.67
980.29	224.67
980.59	224.65
980.88	224.69
981.17	224.72
981.46	224.74
981.76	224.75
982.05	224.81
982.34	224.81
982.63	224.80
982.93	224.81
983.22	224.86
983.51	224.85
983.80	224.85
984.09	224.88
984.39	224.91
984.68	224.90
984.97	224.89
985.26	224.89
985.55	224.91
985.85	224.90
986.14	224.90
986.43	224.91
986.72	224.88
987.01	224.84
987.30	224.81
987.59	224.80
987.89	224.80
988.18	224.76
988.47	224.73
988.76	224.75
989.05	224.75
989.34	224.71
989.63	224.75
989.92	224.71
990.22	224.70
990.51	224.70
990.80	224.72
991.09	224.71
991.38	224.71
991.67	224.70
991.96	224.69
992.25	224.75
992.54	224.72
992.83	224.74
993.12	224.73
993.41	224.75
993.70	224.79
993.99	224.79
994.28	224.81
994.58	224.84
994.87	224.81
995.16	224.81
995.45	224.80
995.74	224.79
996.03	224.83
996.32	224.85
996.61	224.86
996.90	224.83
997.19	224.86
997.48	224.88
997.77	224.86
998.06	224.89
998.34	224.85
998.63	224.86
998.92	224.89
999.21	224.93
999.50	224.90
999.79	224.86
1000.08	224.89
1000.37	224.90
1000.66	224.87
1000.95	224.91
1001.24	224.91
1001.53	224.95
1001.82	224.92
1002.11	224.89
1002.40	224.87
1002.68	224.90
1002.97	224.95
1003.26	224.93
1003.55	224.91
1003.84	224.91
1004.13	224.94
1004.42	224.92
1004.71	224.91
1004.99	224.88
1005.28	224.85
1005.57	224.89
1005.86	224.87
1006.15	224.84
1006.44	224.83
1006.72	224.86
1007.01	224.85
1007.30	224.88
1007.59	224.87
1007.88	224.85
1008.17	224.85
1008.45	224.86
1008.74	224.79
1009.03	224.76
1009.32	224.74
1009.60	224.74
1009.89	224.75
1010.18	224.72
1010.47	224.71
1010.76	224.71
1011.04	224.67
1011.33	224.70
1011.62	224.70
1011.91	224.73
1012.19	224.73
1012.48	224.72
1012.77	224.69
1013.05	224.72
1013.34	224.70
1013.63	224.68
1013.92	224.70
1014.20	224.68
1014.49	224.67
1014.78	224.66
1015.06	224.63
1015.35	224.69
1015.64	224.68
1015.92	224.67
1016.21	224.67
1016.50	224.67
1016.78	224.70
1017.07	224.75
1017.36	224.73
1017.64	224.75
1017.93	224.75
1018.22	224.78
1018.50	224.79
1018.79	224.78
1019.08	224.77
1019.36	224.78
1019.65	224.78
1019.93	224.85
1020.22	224.90
1020.51	224.94
1020.79	224.98
1021.08	225.43
1021.36	224.49
1021.65	224.38
1021.94	225.43
1022.22	224.83
1022.51	224.66
1022.79	226.14
1023.08	225.17
1023.36	225.81
1023.65	225.07
>>>>>End Processed Spectral Data<<<<<
