SpectraSuite Data File
++++++++++++++++++++++++++++++++++++
Date: Fri Feb 01 16:26:49 EST 2013
User: group
Dark Spectrum Present: No
Reference Spectrum Present: No
Number of Sampled Component Spectra: 1
Spectrometers: USB2E7196
Integration Time (usec): 35000 (USB2E7196)
Spectra Averaged: 100 (USB2E7196)
Boxcar Smoothing: 10 (USB2E7196)
Correct for Electrical Dark: No (USB2E7196)
Strobe/Lamp Enabled: No (USB2E7196)
Correct for Detector Non-linearity: No (USB2E7196)
Correct for Stray Light: No (USB2E7196)
Number of Pixels in Processed Spectrum: 2048
>>>>>Begin Processed Spectral Data<<<<<
339.09	0.00
339.48	213.68
339.86	215.43
340.24	217.02
340.63	218.37
341.01	221.27
341.39	221.26
341.78	222.21
342.16	223.86
342.54	224.02
342.93	212.62
343.31	223.37
343.69	223.94
344.07	224.44
344.46	224.88
344.84	225.25
345.22	225.50
345.60	225.75
345.99	225.98
346.37	226.11
346.75	226.21
347.13	226.29
347.52	226.34
347.90	226.42
348.28	226.42
348.66	226.48
349.05	226.48
349.43	226.54
349.81	226.57
350.19	226.60
350.57	226.64
350.96	226.71
351.34	226.81
351.72	226.88
352.10	226.94
352.48	227.03
352.87	227.09
353.25	227.15
353.63	227.21
354.01	227.26
354.39	227.31
354.77	227.36
355.15	227.43
355.54	227.48
355.92	227.48
356.30	227.56
356.68	227.68
357.06	227.76
357.44	227.77
357.82	227.82
358.20	227.89
358.58	227.92
358.97	227.96
359.35	228.04
359.73	228.10
360.11	228.16
360.49	228.16
360.87	228.20
361.25	228.25
361.63	228.29
362.01	228.31
362.39	228.33
362.77	228.37
363.15	228.39
363.53	228.41
363.91	228.44
364.29	228.46
364.67	228.36
365.05	228.37
365.43	228.40
365.81	228.41
366.19	228.45
366.57	228.52
366.95	228.50
367.33	228.44
367.71	228.41
368.09	228.40
368.47	228.35
368.85	228.32
369.23	228.30
369.61	228.27
369.99	228.27
370.37	228.26
370.75	228.29
371.13	228.23
371.51	228.17
371.89	228.14
372.27	228.08
372.65	228.03
373.03	227.96
373.41	227.91
373.78	227.82
374.16	227.73
374.54	227.65
374.92	227.61
375.30	227.53
375.68	227.47
376.06	227.40
376.44	227.37
376.82	227.30
377.19	227.22
377.57	227.15
377.95	227.04
378.33	226.97
378.71	226.85
379.09	226.80
379.47	226.72
379.84	226.65
380.22	226.59
380.60	226.51
380.98	226.46
381.36	226.37
381.73	226.31
382.11	226.26
382.49	226.19
382.87	226.11
383.25	226.10
383.62	226.18
384.00	226.11
384.38	226.06
384.76	226.04
385.13	226.04
385.51	225.99
385.89	225.94
386.27	225.91
386.64	225.89
387.02	225.83
387.40	225.79
387.78	225.76
388.15	225.73
388.53	225.70
388.91	225.66
389.29	225.63
389.66	225.64
390.04	225.58
390.42	225.59
390.79	225.60
391.17	225.56
391.55	225.41
391.92	225.39
392.30	225.41
392.68	225.42
393.05	225.42
393.43	225.41
393.81	225.45
394.18	225.44
394.56	225.46
394.94	225.52
395.31	225.56
395.69	225.61
396.06	225.66
396.44	225.69
396.82	225.72
397.19	225.85
397.57	225.84
397.95	225.92
398.32	225.91
398.70	225.95
399.07	226.03
399.45	226.07
399.82	226.16
400.20	226.21
400.58	226.25
400.95	226.29
401.33	226.42
401.70	226.53
402.08	226.63
402.45	226.71
402.83	226.80
403.20	226.92
403.58	227.03
403.95	227.16
404.33	227.31
404.71	227.44
405.08	227.57
405.46	227.76
405.83	227.92
406.21	228.07
406.58	228.25
406.96	228.41
407.33	228.61
407.70	228.83
408.08	229.10
408.45	229.31
408.83	229.55
409.20	229.74
409.58	229.89
409.95	230.15
410.33	230.45
410.70	230.70
411.08	230.97
411.45	231.27
411.82	231.59
412.20	231.92
412.57	232.32
412.95	232.63
413.32	233.04
413.69	233.44
414.07	233.87
414.44	234.32
414.82	234.78
415.19	235.34
415.56	235.87
415.94	236.43
416.31	237.08
416.68	237.69
417.06	238.42
417.43	239.13
417.81	239.92
418.18	240.67
418.55	241.52
418.93	242.40
419.30	243.29
419.67	244.23
420.04	245.18
420.42	246.17
420.79	247.37
421.16	248.48
421.54	249.67
421.91	250.88
422.28	252.13
422.66	253.49
423.03	254.78
423.40	256.11
423.77	257.50
424.15	258.93
424.52	260.44
424.89	262.03
425.26	263.61
425.64	265.03
426.01	266.64
426.38	268.27
426.75	269.92
427.13	271.65
427.50	273.43
427.87	275.33
428.24	277.18
428.61	278.88
428.99	280.85
429.36	282.93
429.73	285.02
430.10	287.04
430.47	289.11
430.85	291.21
431.22	293.46
431.59	295.84
431.96	298.07
432.33	300.51
432.70	302.87
433.08	305.67
433.45	308.31
433.82	310.88
434.19	313.76
434.56	316.58
434.93	319.17
435.30	321.78
435.68	324.61
436.05	327.43
436.42	330.19
436.79	332.66
437.16	335.36
437.53	338.14
437.90	340.98
438.27	343.69
438.64	346.47
439.01	349.00
439.38	351.18
439.75	353.33
440.13	355.81
440.50	358.13
440.87	359.92
441.24	361.83
441.61	363.94
441.98	365.38
442.35	367.19
442.72	369.05
443.09	370.82
443.46	371.80
443.83	372.36
444.20	372.87
444.57	373.68
444.94	373.96
445.31	374.30
445.68	374.60
446.05	374.63
446.42	374.25
446.79	373.84
447.16	373.40
447.53	373.08
447.90	371.93
448.27	370.79
448.64	369.24
449.01	368.10
449.37	366.15
449.74	364.30
450.11	362.04
450.48	359.59
450.85	357.07
451.22	354.98
451.59	353.02
451.96	351.14
452.33	348.57
452.70	346.19
453.07	343.36
453.43	340.47
453.80	337.73
454.17	335.08
454.54	332.57
454.91	329.86
455.28	327.15
455.65	324.69
456.02	322.22
456.38	320.07
456.75	317.42
457.12	315.18
457.49	312.96
457.86	310.80
458.23	308.95
458.59	306.92
458.96	304.82
459.33	302.98
459.70	301.14
460.07	299.67
460.43	298.00
460.80	296.45
461.17	295.01
461.54	293.53
461.91	292.16
462.27	290.73
462.64	289.49
463.01	288.15
463.38	286.88
463.74	285.54
464.11	284.38
464.48	283.35
464.85	282.24
465.21	281.41
465.58	280.53
465.95	279.48
466.32	278.63
466.68	277.72
467.05	276.83
467.42	275.94
467.78	275.01
468.15	274.14
468.52	273.45
468.88	272.62
469.25	271.89
469.62	271.25
469.98	270.57
470.35	269.98
470.72	269.41
471.08	268.72
471.45	268.21
471.82	267.69
472.18	267.10
472.55	266.70
472.92	266.17
473.28	265.70
473.65	265.24
474.02	264.80
474.38	264.46
474.75	264.11
475.11	263.79
475.48	263.51
475.85	263.30
476.21	263.06
476.58	262.87
476.94	262.72
477.31	262.57
477.67	262.48
478.04	262.36
478.41	262.35
478.77	262.41
479.14	262.35
479.50	262.37
479.87	262.44
480.23	262.53
480.60	262.62
480.96	262.70
481.33	262.93
481.69	263.07
482.06	263.29
482.42	263.52
482.79	263.76
483.15	264.07
483.52	264.43
483.88	264.81
484.25	265.20
484.61	265.63
484.98	266.13
485.34	266.68
485.71	267.29
486.07	267.92
486.44	268.48
486.80	269.19
487.17	269.93
487.53	270.76
487.90	271.62
488.26	272.55
488.62	273.56
488.99	274.53
489.35	275.60
489.72	276.75
490.08	277.94
490.44	279.17
490.81	280.49
491.17	281.86
491.54	283.36
491.90	284.89
492.26	286.50
492.63	288.19
492.99	289.92
493.36	291.77
493.72	293.81
494.08	295.91
494.45	298.15
494.81	300.54
495.17	303.00
495.54	305.56
495.90	308.22
496.26	310.99
496.63	313.94
496.99	317.07
497.35	320.30
497.72	323.71
498.08	327.25
498.44	330.97
498.80	334.94
499.17	338.99
499.53	343.17
499.89	347.50
500.26	351.97
500.62	356.69
500.98	361.68
501.34	366.74
501.71	372.12
502.07	377.51
502.43	383.14
502.79	388.91
503.16	395.03
503.52	401.32
503.88	407.75
504.24	414.41
504.60	421.26
504.97	428.42
505.33	435.73
505.69	443.47
506.05	451.23
506.41	459.13
506.78	467.22
507.14	475.68
507.50	484.43
507.86	493.48
508.22	502.63
508.59	511.84
508.95	521.51
509.31	531.28
509.67	541.39
510.03	551.70
510.39	562.27
510.75	573.07
511.12	584.00
511.48	595.29
511.84	606.67
512.20	618.23
512.56	630.13
512.92	642.28
513.28	654.60
513.64	667.14
514.00	679.79
514.37	692.81
514.73	705.82
515.09	718.89
515.45	732.18
515.81	745.78
516.17	759.74
516.53	773.74
516.89	787.98
517.25	802.17
517.61	816.51
517.97	830.99
518.33	845.32
518.69	860.08
519.05	875.02
519.41	890.18
519.77	905.56
520.13	920.96
520.49	936.31
520.85	951.74
521.21	967.33
521.57	983.59
521.93	999.24
522.29	1015.62
522.65	1031.85
523.01	1047.97
523.37	1063.99
523.73	1080.13
524.09	1096.13
524.45	1112.31
524.81	1128.90
525.17	1145.64
525.53	1162.37
525.89	1179.14
526.25	1195.87
526.61	1212.17
526.97	1228.89
527.33	1245.29
527.68	1261.83
528.04	1278.25
528.40	1294.64
528.76	1311.59
529.12	1328.02
529.48	1344.79
529.84	1360.69
530.20	1377.22
530.56	1394.09
530.91	1411.34
531.27	1428.00
531.63	1444.46
531.99	1460.90
532.35	1476.77
532.71	1492.66
533.07	1508.87
533.42	1524.68
533.78	1540.72
534.14	1556.97
534.50	1572.12
534.86	1588.03
535.21	1603.08
535.57	1618.91
535.93	1634.28
536.29	1648.92
536.65	1663.84
537.00	1678.45
537.36	1693.73
537.72	1708.13
538.08	1722.48
538.44	1736.23
538.79	1750.02
539.15	1763.61
539.51	1777.27
539.87	1791.45
540.22	1804.98
540.58	1818.61
540.94	1832.00
541.29	1844.69
541.65	1857.36
542.01	1870.58
542.37	1882.77
542.72	1895.18
543.08	1906.94
543.44	1919.40
543.79	1930.67
544.15	1941.60
544.51	1953.24
544.87	1964.01
545.22	1974.75
545.58	1984.91
545.94	1994.56
546.29	2004.32
546.65	2014.17
547.01	2023.40
547.36	2031.94
547.72	2040.25
548.07	2048.02
548.43	2056.14
548.79	2064.23
549.14	2071.51
549.50	2078.76
549.86	2086.42
550.21	2093.75
550.57	2101.00
550.92	2107.39
551.28	2114.41
551.64	2121.40
551.99	2127.70
552.35	2133.80
552.70	2139.91
553.06	2145.95
553.41	2152.41
553.77	2158.43
554.13	2164.32
554.48	2170.41
554.84	2176.13
555.19	2181.55
555.55	2186.73
555.90	2191.16
556.26	2195.99
556.61	2200.87
556.97	2205.26
557.32	2209.30
557.68	2213.35
558.03	2217.36
558.39	2221.10
558.74	2225.77
559.10	2229.81
559.45	2233.65
559.81	2238.09
560.16	2241.92
560.52	2245.16
560.87	2248.37
561.23	2251.15
561.58	2254.18
561.94	2256.76
562.29	2258.90
562.64	2261.65
563.00	2264.20
563.35	2267.61
563.71	2270.54
564.06	2273.67
564.42	2276.51
564.77	2279.09
565.12	2281.42
565.48	2283.47
565.83	2285.45
566.19	2286.66
566.54	2287.42
566.89	2288.61
567.25	2289.23
567.60	2290.56
567.96	2292.29
568.31	2293.16
568.66	2294.11
569.02	2294.72
569.37	2295.14
569.72	2296.21
570.08	2296.32
570.43	2296.51
570.78	2296.05
571.14	2294.70
571.49	2293.58
571.84	2293.22
572.20	2292.25
572.55	2291.27
572.90	2289.70
573.26	2288.31
573.61	2286.64
573.96	2285.09
574.31	2282.20
574.67	2279.29
575.02	2275.71
575.37	2272.44
575.72	2268.71
576.08	2265.48
576.43	2262.23
576.78	2258.53
577.13	2255.44
577.49	2252.43
577.84	2248.97
578.19	2245.34
578.54	2241.81
578.90	2237.46
579.25	2231.94
579.60	2226.94
579.95	2221.97
580.30	2217.10
580.66	2211.96
581.01	2207.28
581.36	2202.43
581.71	2198.32
582.06	2193.90
582.42	2189.58
582.77	2184.26
583.12	2179.73
583.47	2175.04
583.82	2170.05
584.17	2164.96
584.53	2159.47
584.88	2153.85
585.23	2148.22
585.58	2142.75
585.93	2137.42
586.28	2132.75
586.63	2127.81
586.98	2122.83
587.34	2118.10
587.69	2113.16
588.04	2107.97
588.39	2102.10
588.74	2095.52
589.09	2089.38
589.44	2082.73
589.79	2076.80
590.14	2071.24
590.49	2064.85
590.84	2058.61
591.19	2052.64
591.54	2046.19
591.89	2038.75
592.25	2032.07
592.60	2024.92
592.95	2017.39
593.30	2009.94
593.65	2002.48
594.00	1995.53
594.35	1988.35
594.70	1980.50
595.05	1973.37
595.40	1966.22
595.75	1958.79
596.10	1952.71
596.45	1945.99
596.80	1939.84
597.15	1933.22
597.50	1926.24
597.85	1919.74
598.19	1913.06
598.54	1906.02
598.89	1899.43
599.24	1893.74
599.59	1887.07
599.94	1880.88
600.29	1874.53
600.64	1868.05
600.99	1860.62
601.34	1853.68
601.69	1846.74
602.04	1839.94
602.39	1832.72
602.74	1825.95
603.08	1819.40
603.43	1812.69
603.78	1805.45
604.13	1798.21
604.48	1790.91
604.83	1784.10
605.18	1777.29
605.53	1769.39
605.87	1761.34
606.22	1754.04
606.57	1746.11
606.92	1738.82
607.27	1731.67
607.62	1724.77
607.96	1717.59
608.31	1711.00
608.66	1703.45
609.01	1695.87
609.36	1688.28
609.70	1680.26
610.05	1672.14
610.40	1664.42
610.75	1656.13
611.10	1648.37
611.44	1639.90
611.79	1631.98
612.14	1623.21
612.49	1613.97
612.83	1605.63
613.18	1597.49
613.53	1589.52
613.88	1580.95
614.22	1572.75
614.57	1564.05
614.92	1556.22
615.27	1548.62
615.61	1540.25
615.96	1532.22
616.31	1524.64
616.65	1517.23
617.00	1509.65
617.35	1502.00
617.70	1493.59
618.04	1485.11
618.39	1476.98
618.74	1469.42
619.08	1461.10
619.43	1453.49
619.78	1446.55
620.12	1439.32
620.47	1431.79
620.82	1423.58
621.16	1416.24
621.51	1408.50
621.85	1400.95
622.20	1392.20
622.55	1383.79
622.89	1375.98
623.24	1368.35
623.59	1360.85
623.93	1353.32
624.28	1346.17
624.62	1338.68
624.97	1331.55
625.32	1324.82
625.66	1317.71
626.01	1310.49
626.35	1302.95
626.70	1295.33
627.04	1287.67
627.39	1279.87
627.73	1272.57
628.08	1265.65
628.43	1258.24
628.77	1250.89
629.12	1243.31
629.46	1236.24
629.81	1228.80
630.15	1221.50
630.50	1214.08
630.84	1206.03
631.19	1198.08
631.53	1190.56
631.88	1182.91
632.22	1175.29
632.57	1167.93
632.91	1160.42
633.26	1153.08
633.60	1145.71
633.95	1138.53
634.29	1131.42
634.64	1124.81
634.98	1117.43
635.32	1110.15
635.67	1103.57
636.01	1096.90
636.36	1090.11
636.70	1083.46
637.05	1076.89
637.39	1070.47
637.73	1063.98
638.08	1058.00
638.42	1051.96
638.77	1045.40
639.11	1038.85
639.45	1032.38
639.80	1025.69
640.14	1019.34
640.49	1012.85
640.83	1006.56
641.17	1000.37
641.52	993.97
641.86	987.40
642.20	981.51
642.55	975.27
642.89	968.80
643.23	962.36
643.58	956.58
643.92	950.51
644.26	944.42
644.61	938.36
644.95	932.35
645.29	925.75
645.64	919.02
645.98	912.71
646.32	906.88
646.66	900.95
647.01	895.21
647.35	889.44
647.69	883.55
648.04	878.02
648.38	872.14
648.72	866.22
649.06	860.22
649.41	854.40
649.75	848.43
650.09	842.50
650.43	836.65
650.78	830.49
651.12	824.49
651.46	818.82
651.80	813.07
652.14	807.65
652.49	802.25
652.83	797.14
653.17	791.42
653.51	785.62
653.85	780.11
654.20	774.43
654.54	768.41
654.88	762.61
655.22	756.69
655.56	751.08
655.90	745.63
656.25	740.38
656.59	735.00
656.93	729.91
657.27	724.79
657.61	719.29
657.95	714.14
658.29	709.07
658.64	703.89
658.98	698.60
659.32	693.15
659.66	687.99
660.00	682.55
660.34	677.64
660.68	672.78
661.02	667.85
661.36	663.15
661.70	658.65
662.05	654.30
662.39	650.03
662.73	645.52
663.07	641.16
663.41	636.71
663.75	632.20
664.09	627.59
664.43	623.13
664.77	619.07
665.11	614.86
665.45	610.78
665.79	606.68
666.13	602.58
666.47	598.51
666.81	594.36
667.15	590.28
667.49	586.38
667.83	582.61
668.17	578.56
668.51	574.45
668.85	570.45
669.19	566.66
669.53	562.83
669.87	558.97
670.21	555.31
670.55	551.64
670.89	548.21
671.23	544.82
671.57	541.34
671.91	537.81
672.25	534.28
672.58	530.67
672.92	527.21
673.26	523.98
673.60	520.80
673.94	517.66
674.28	514.81
674.62	511.86
674.96	508.74
675.30	505.89
675.64	502.97
675.97	500.17
676.31	497.25
676.65	494.28
676.99	491.55
677.33	488.65
677.67	485.82
678.01	482.75
678.34	479.81
678.68	476.90
679.02	474.08
679.36	471.34
679.70	468.67
680.04	465.91
680.37	463.01
680.71	460.26
681.05	457.65
681.39	454.87
681.73	452.18
682.06	449.63
682.40	447.02
682.74	444.48
683.08	441.94
683.42	439.38
683.75	436.88
684.09	434.33
684.43	431.81
684.77	429.39
685.10	427.06
685.44	424.74
685.78	422.48
686.12	420.24
686.45	417.94
686.79	415.58
687.13	413.41
687.46	411.27
687.80	409.08
688.14	406.85
688.48	404.83
688.81	402.51
689.15	400.33
689.49	398.21
689.82	396.16
690.16	394.07
690.50	392.11
690.83	390.11
691.17	388.15
691.51	386.31
691.84	384.44
692.18	382.49
692.52	380.48
692.85	378.48
693.19	376.53
693.52	374.68
693.86	372.89
694.20	371.08
694.53	369.32
694.87	367.47
695.21	365.66
695.54	363.83
695.88	362.13
696.21	360.42
696.55	358.75
696.88	357.00
697.22	355.36
697.56	353.72
697.89	352.12
698.23	350.52
698.56	348.86
698.90	347.29
699.23	345.61
699.57	344.05
699.90	342.55
700.24	341.00
700.58	339.44
700.91	337.96
701.25	336.52
701.58	335.13
701.92	333.77
702.25	332.45
702.59	331.05
702.92	329.80
703.26	328.45
703.59	327.16
703.93	326.05
704.26	324.80
704.60	323.47
704.93	322.16
705.26	320.92
705.60	319.72
705.93	318.54
706.27	317.54
706.60	316.49
706.94	315.38
707.27	314.27
707.61	313.26
707.94	312.22
708.27	311.11
708.61	310.01
708.94	309.06
709.28	308.04
709.61	307.14
709.94	306.17
710.28	305.18
710.61	304.20
710.95	303.08
711.28	302.15
711.61	301.26
711.95	300.32
712.28	299.38
712.61	298.43
712.95	297.53
713.28	296.65
713.61	295.76
713.95	294.86
714.28	294.06
714.61	293.19
714.95	292.36
715.28	291.53
715.61	290.66
715.95	289.73
716.28	288.89
716.61	288.04
716.95	287.19
717.28	286.44
717.61	285.67
717.94	284.96
718.28	284.18
718.61	283.41
718.94	282.74
719.27	282.04
719.61	281.39
719.94	280.67
720.27	279.93
720.60	279.24
720.94	278.64
721.27	278.02
721.60	277.41
721.93	276.79
722.27	276.22
722.60	275.68
722.93	275.08
723.26	274.55
723.59	273.98
723.93	273.42
724.26	272.86
724.59	272.30
724.92	271.76
725.25	271.22
725.59	270.70
725.92	270.19
726.25	269.69
726.58	269.21
726.91	268.73
727.24	268.26
727.57	267.81
727.91	267.30
728.24	266.82
728.57	266.32
728.90	265.85
729.23	265.36
729.56	264.91
729.89	264.52
730.22	264.01
730.55	263.55
730.89	263.15
731.22	262.73
731.55	262.31
731.88	261.86
732.21	261.46
732.54	261.04
732.87	260.62
733.20	260.20
733.53	259.78
733.86	259.42
734.19	259.03
734.52	258.64
734.85	258.33
735.18	257.94
735.51	257.60
735.84	257.27
736.17	256.93
736.50	256.52
736.83	256.29
737.16	255.94
737.49	255.60
737.82	255.18
738.15	254.85
738.48	254.54
738.81	254.21
739.14	253.89
739.47	253.58
739.80	253.28
740.13	253.01
740.46	252.69
740.79	252.34
741.12	252.04
741.45	251.73
741.78	251.38
742.11	251.10
742.44	250.77
742.77	250.44
743.10	250.12
743.43	249.86
743.75	249.48
744.08	249.38
744.41	249.10
744.74	248.87
745.07	248.53
745.40	248.28
745.73	248.08
746.06	247.83
746.39	247.58
746.71	247.29
747.04	247.02
747.37	246.77
747.70	246.54
748.03	246.28
748.36	246.03
748.68	245.79
749.01	245.53
749.34	245.30
749.67	245.09
750.00	244.91
750.33	244.70
750.65	244.44
750.98	244.08
751.31	243.90
751.64	243.70
751.97	243.60
752.29	243.37
752.62	243.08
752.95	242.87
753.28	242.63
753.60	242.42
753.93	242.23
754.26	242.04
754.59	241.83
754.91	241.64
755.24	241.46
755.57	241.27
755.90	241.07
756.22	240.90
756.55	240.68
756.88	240.45
757.20	240.24
757.53	240.07
757.86	239.90
758.19	239.74
758.51	239.56
758.84	239.34
759.17	239.17
759.49	239.03
759.82	238.85
760.15	238.72
760.47	238.57
760.80	238.39
761.13	238.24
761.45	238.09
761.78	237.95
762.11	237.80
762.43	237.65
762.76	237.51
763.08	237.37
763.41	237.28
763.74	237.16
764.06	237.03
764.39	236.87
764.71	236.72
765.04	236.54
765.37	236.40
765.69	236.26
766.02	236.14
766.34	236.00
766.67	235.85
767.00	235.75
767.32	235.74
767.65	235.67
767.97	235.56
768.30	235.43
768.62	235.31
768.95	235.21
769.27	235.09
769.60	234.99
769.92	234.86
770.25	234.71
770.57	234.59
770.90	234.49
771.22	234.39
771.55	234.29
771.87	234.22
772.20	234.12
772.52	234.09
772.85	234.06
773.17	233.97
773.50	233.90
773.82	233.79
774.15	233.57
774.47	233.44
774.80	233.32
775.12	233.27
775.45	233.18
775.77	233.10
776.09	233.02
776.42	232.94
776.74	232.90
777.07	232.81
777.39	232.75
777.72	232.67
778.04	232.59
778.36	232.52
778.69	232.48
779.01	232.44
779.33	232.30
779.66	232.15
779.98	232.09
780.31	232.03
780.63	231.98
780.95	232.02
781.28	231.95
781.60	231.89
781.92	231.82
782.25	231.74
782.57	231.68
782.89	231.61
783.22	231.56
783.54	231.47
783.86	231.43
784.19	231.39
784.51	231.39
784.83	231.32
785.16	231.29
785.48	231.20
785.80	231.10
786.12	231.05
786.45	231.03
786.77	230.99
787.09	230.92
787.42	230.83
787.74	230.77
788.06	230.74
788.38	230.71
788.71	230.65
789.03	230.63
789.35	230.62
789.67	230.55
789.99	230.54
790.32	230.49
790.64	230.49
790.96	230.47
791.28	230.39
791.61	230.39
791.93	230.34
792.25	230.31
792.57	230.38
792.89	230.31
793.21	230.29
793.54	230.22
793.86	230.19
794.18	230.17
794.50	230.12
794.82	230.07
795.14	230.03
795.47	230.03
795.79	230.00
796.11	229.91
796.43	229.92
796.75	229.90
797.07	229.88
797.39	229.86
797.71	229.80
798.04	229.78
798.36	229.73
798.68	229.74
799.00	229.73
799.32	229.67
799.64	229.68
799.96	229.63
800.28	229.63
800.60	229.61
800.92	229.60
801.24	229.58
801.56	229.58
801.89	229.57
802.21	229.54
802.53	229.49
802.85	229.53
803.17	229.52
803.49	229.46
803.81	229.43
804.13	229.38
804.45	229.33
804.77	229.33
805.09	229.27
805.41	229.22
805.73	229.16
806.05	229.08
806.37	229.04
806.69	229.03
807.01	228.98
807.33	228.98
807.65	228.94
807.97	228.91
808.28	228.83
808.60	228.81
808.92	228.80
809.24	228.84
809.56	228.78
809.88	228.72
810.20	228.70
810.52	228.66
810.84	228.60
811.16	228.56
811.48	228.50
811.80	228.51
812.12	228.45
812.43	228.46
812.75	228.46
813.07	228.42
813.39	228.38
813.71	228.35
814.03	228.31
814.35	228.26
814.67	228.20
814.98	228.20
815.30	228.18
815.62	228.14
815.94	228.03
816.26	228.03
816.58	228.02
816.89	228.02
817.21	227.99
817.53	227.94
817.85	227.94
818.17	227.91
818.48	227.87
818.80	227.89
819.12	227.83
819.44	227.80
819.76	227.76
820.07	227.75
820.39	227.71
820.71	227.66
821.03	227.66
821.34	227.62
821.66	227.60
821.98	227.56
822.30	227.53
822.61	227.59
822.93	227.54
823.25	227.54
823.57	227.50
823.88	227.53
824.20	227.56
824.52	227.60
824.83	227.61
825.15	227.56
825.47	227.53
825.79	227.54
826.10	227.52
826.42	227.52
826.74	227.49
827.05	227.50
827.37	227.53
827.69	227.51
828.00	227.51
828.32	227.52
828.64	227.49
828.95	227.51
829.27	227.47
829.58	227.44
829.90	227.43
830.22	227.42
830.53	227.38
830.85	227.38
831.17	227.28
831.48	227.29
831.80	227.28
832.11	227.24
832.43	227.19
832.75	227.14
833.06	227.20
833.38	227.19
833.69	227.17
834.01	227.16
834.32	227.13
834.64	227.12
834.96	227.09
835.27	227.08
835.59	227.03
835.90	226.99
836.22	227.01
836.53	226.99
836.85	226.95
837.16	227.04
837.48	227.00
837.79	227.07
838.11	227.04
838.42	227.07
838.74	227.08
839.05	227.11
839.37	227.14
839.68	227.06
840.00	227.03
840.31	227.02
840.63	227.01
840.94	227.02
841.26	227.02
841.57	226.99
841.88	226.99
842.20	226.98
842.51	226.97
842.83	226.93
843.14	226.97
843.46	226.98
843.77	226.91
844.08	226.90
844.40	226.82
844.71	226.78
845.03	226.76
845.34	226.75
845.65	226.74
845.97	226.70
846.28	226.72
846.60	226.74
846.91	226.77
847.22	226.76
847.54	226.77
847.85	226.77
848.16	226.81
848.48	226.77
848.79	226.81
849.10	226.82
849.42	226.81
849.73	226.71
850.04	226.68
850.36	226.64
850.67	226.65
850.98	226.68
851.30	226.64
851.61	226.61
851.92	226.57
852.23	226.58
852.55	226.58
852.86	226.56
853.17	226.54
853.49	226.50
853.80	226.49
854.11	226.48
854.42	226.46
854.74	226.44
855.05	226.42
855.36	226.38
855.67	226.37
855.99	226.37
856.30	226.48
856.61	226.45
856.92	226.45
857.23	226.42
857.55	226.37
857.86	226.38
858.17	226.42
858.48	226.43
858.79	226.39
859.11	226.38
859.42	226.36
859.73	226.33
860.04	226.36
860.35	226.34
860.66	226.31
860.98	226.29
861.29	226.26
861.60	226.24
861.91	226.25
862.22	226.24
862.53	226.23
862.84	226.11
863.16	226.16
863.47	226.13
863.78	226.12
864.09	226.16
864.40	226.19
864.71	226.15
865.02	226.13
865.33	226.13
865.64	226.12
865.95	226.13
866.27	226.23
866.58	226.18
866.89	226.18
867.20	226.18
867.51	226.16
867.82	226.19
868.13	226.25
868.44	226.21
868.75	226.26
869.06	226.25
869.37	226.28
869.68	226.31
869.99	226.36
870.30	226.40
870.61	226.41
870.92	226.39
871.23	226.41
871.54	226.47
871.85	226.51
872.16	226.54
872.47	226.54
872.78	226.48
873.09	226.51
873.40	226.52
873.71	226.51
874.02	226.54
874.33	226.53
874.64	226.55
874.95	226.58
875.26	226.55
875.56	226.58
875.87	226.58
876.18	226.52
876.49	226.60
876.80	226.58
877.11	226.57
877.42	226.61
877.73	226.63
878.04	226.60
878.35	226.60
878.66	226.59
878.96	226.60
879.27	226.59
879.58	226.59
879.89	226.61
880.20	226.64
880.51	226.63
880.82	226.63
881.12	226.61
881.43	226.58
881.74	226.57
882.05	226.56
882.36	226.56
882.67	226.57
882.97	226.46
883.28	226.42
883.59	226.42
883.90	226.42
884.21	226.41
884.51	226.41
884.82	226.38
885.13	226.37
885.44	226.37
885.74	226.35
886.05	226.36
886.36	226.33
886.67	226.28
886.98	226.32
887.28	226.32
887.59	226.32
887.90	226.35
888.20	226.30
888.51	226.32
888.82	226.27
889.13	226.27
889.43	226.35
889.74	226.36
890.05	226.32
890.35	226.27
890.66	226.27
890.97	226.25
891.28	226.23
891.58	226.24
891.89	226.21
892.20	226.19
892.50	226.17
892.81	226.16
893.12	226.18
893.42	226.15
893.73	226.17
894.04	226.16
894.34	226.16
894.65	226.17
894.95	226.12
895.26	226.13
895.57	226.16
895.87	226.06
896.18	226.08
896.48	226.06
896.79	226.06
897.10	226.03
897.40	226.03
897.71	226.05
898.01	226.03
898.32	226.06
898.63	226.06
898.93	226.08
899.24	226.10
899.54	226.10
899.85	226.09
900.15	226.08
900.46	226.08
900.76	226.06
901.07	226.05
901.38	226.06
901.68	226.08
901.99	226.06
902.29	226.05
902.60	226.06
902.90	226.08
903.21	226.07
903.51	226.07
903.82	226.11
904.12	226.11
904.43	226.07
904.73	226.06
905.03	226.08
905.34	226.15
905.64	226.16
905.95	226.17
906.25	226.17
906.56	226.17
906.86	226.15
907.17	226.17
907.47	226.21
907.77	226.22
908.08	226.24
908.38	226.27
908.69	226.28
908.99	226.28
909.30	226.30
909.60	226.36
909.90	226.39
910.21	226.34
910.51	226.33
910.81	226.38
911.12	226.40
911.42	226.41
911.73	226.31
912.03	226.30
912.33	226.34
912.64	226.35
912.94	226.34
913.24	226.34
913.55	226.34
913.85	226.33
914.15	226.36
914.46	226.38
914.76	226.37
915.06	226.39
915.37	226.40
915.67	226.40
915.97	226.39
916.27	226.38
916.58	226.40
916.88	226.42
917.18	226.41
917.49	226.44
917.79	226.41
918.09	226.43
918.39	226.42
918.70	226.40
919.00	226.42
919.30	226.47
919.60	226.47
919.91	226.43
920.21	226.43
920.51	226.38
920.81	226.35
921.12	226.36
921.42	226.37
921.72	226.38
922.02	226.37
922.32	226.37
922.63	226.36
922.93	226.42
923.23	226.38
923.53	226.37
923.83	226.34
924.13	226.34
924.44	226.34
924.74	226.37
925.04	226.38
925.34	226.37
925.64	226.31
925.94	226.31
926.24	226.36
926.55	226.35
926.85	226.39
927.15	226.37
927.45	226.35
927.75	226.30
928.05	226.30
928.35	226.33
928.65	226.33
928.95	226.32
929.26	226.27
929.56	226.31
929.86	226.32
930.16	226.27
930.46	226.24
930.76	226.26
931.06	226.18
931.36	226.14
931.66	226.11
931.96	226.12
932.26	226.10
932.56	226.07
932.86	226.05
933.16	226.03
933.46	226.02
933.76	225.96
934.06	225.99
934.36	226.01
934.66	225.96
934.96	225.96
935.26	225.96
935.56	225.93
935.86	225.90
936.16	225.85
936.46	225.84
936.76	225.87
937.06	225.83
937.36	225.86
937.66	225.86
937.96	225.87
938.26	225.83
938.56	225.83
938.86	225.79
939.16	225.79
939.46	225.79
939.76	225.78
940.06	225.78
940.35	225.75
940.65	225.65
940.95	225.66
941.25	225.61
941.55	225.59
941.85	225.60
942.15	225.62
942.45	225.65
942.75	225.65
943.04	225.65
943.34	225.64
943.64	225.65
943.94	225.64
944.24	225.63
944.54	225.64
944.84	225.64
945.13	225.66
945.43	225.69
945.73	225.67
946.03	225.67
946.33	225.69
946.62	225.70
946.92	225.72
947.22	225.73
947.52	225.74
947.82	225.78
948.11	225.78
948.41	225.75
948.71	225.76
949.01	225.77
949.31	225.77
949.60	225.78
949.90	225.81
950.20	225.79
950.50	225.77
950.79	225.79
951.09	225.82
951.39	225.82
951.69	225.81
951.98	225.88
952.28	225.89
952.58	225.89
952.87	225.89
953.17	225.92
953.47	225.90
953.76	225.92
954.06	225.95
954.36	225.90
954.66	225.90
954.95	225.92
955.25	225.95
955.55	225.94
955.84	225.94
956.14	225.94
956.44	225.99
956.73	226.01
957.03	226.03
957.32	226.02
957.62	226.03
957.92	226.04
958.21	226.00
958.51	226.14
958.81	226.16
959.10	226.18
959.40	226.20
959.69	226.26
959.99	226.28
960.29	226.27
960.58	226.30
960.88	226.38
961.17	226.38
961.47	226.40
961.76	226.42
962.06	226.44
962.36	226.43
962.65	226.42
962.95	226.43
963.24	226.39
963.54	226.40
963.83	226.38
964.13	226.39
964.42	226.37
964.72	226.31
965.01	226.30
965.31	226.31
965.60	226.27
965.90	226.32
966.19	226.29
966.49	226.30
966.78	226.29
967.08	226.23
967.37	226.24
967.67	226.21
967.96	226.22
968.26	226.25
968.55	226.25
968.85	226.23
969.14	226.22
969.43	226.23
969.73	226.23
970.02	226.23
970.32	226.20
970.61	226.17
970.91	226.10
971.20	226.07
971.49	226.04
971.79	226.06
972.08	225.96
972.38	225.97
972.67	225.95
972.96	225.96
973.26	225.99
973.55	226.02
973.85	226.03
974.14	226.00
974.43	225.97
974.73	225.95
975.02	225.94
975.31	225.93
975.61	225.93
975.90	225.93
976.19	225.90
976.49	225.90
976.78	225.92
977.07	225.94
977.37	225.94
977.66	225.93
977.95	225.94
978.24	225.96
978.54	225.96
978.83	225.96
979.12	225.95
979.42	225.92
979.71	225.88
980.00	225.89
980.29	225.89
980.59	225.88
980.88	225.89
981.17	225.88
981.46	225.90
981.76	225.90
982.05	225.90
982.34	225.97
982.63	225.97
982.93	226.01
983.22	226.03
983.51	226.06
983.80	226.09
984.09	226.08
984.39	226.06
984.68	226.05
984.97	226.05
985.26	226.08
985.55	226.10
985.85	226.09
986.14	226.09
986.43	226.11
986.72	226.12
987.01	226.10
987.30	226.13
987.59	226.12
987.89	226.11
988.18	226.08
988.47	226.05
988.76	226.07
989.05	226.03
989.34	226.03
989.63	226.05
989.92	226.04
990.22	226.02
990.51	226.06
990.80	226.06
991.09	226.06
991.38	226.07
991.67	226.05
991.96	226.00
992.25	226.00
992.54	225.96
992.83	225.96
993.12	225.97
993.41	225.97
993.70	226.02
993.99	226.05
994.28	226.08
994.58	226.11
994.87	226.10
995.16	226.09
995.45	226.10
995.74	226.04
996.03	226.07
996.32	226.10
996.61	226.08
996.90	226.07
997.19	226.07
997.48	226.02
997.77	226.01
998.06	226.07
998.34	226.05
998.63	226.08
998.92	226.09
999.21	226.08
999.50	226.10
999.79	226.04
1000.08	226.03
1000.37	226.00
1000.66	225.97
1000.95	225.98
1001.24	226.00
1001.53	225.99
1001.82	226.00
1002.11	225.98
1002.40	225.96
1002.68	225.99
1002.97	226.07
1003.26	226.06
1003.55	226.06
1003.84	226.07
1004.13	226.08
1004.42	226.08
1004.71	226.07
1004.99	226.04
1005.28	226.05
1005.57	226.02
1005.86	226.02
1006.15	226.02
1006.44	226.03
1006.72	226.02
1007.01	226.01
1007.30	225.97
1007.59	225.94
1007.88	225.96
1008.17	225.97
1008.45	225.96
1008.74	225.89
1009.03	225.83
1009.32	225.82
1009.60	225.82
1009.89	225.80
1010.18	225.75
1010.47	225.73
1010.76	225.71
1011.04	225.72
1011.33	225.73
1011.62	225.74
1011.91	225.76
1012.19	225.75
1012.48	225.76
1012.77	225.80
1013.05	225.84
1013.34	225.85
1013.63	225.85
1013.92	225.83
1014.20	225.82
1014.49	225.83
1014.78	225.85
1015.06	225.82
1015.35	225.87
1015.64	225.87
1015.92	225.89
1016.21	225.93
1016.50	225.95
1016.78	225.99
1017.07	225.98
1017.36	225.96
1017.64	225.94
1017.93	225.94
1018.22	225.91
1018.50	225.91
1018.79	225.91
1019.08	225.84
1019.36	225.85
1019.65	225.84
1019.93	225.87
1020.22	225.91
1020.51	225.98
1020.79	225.97
1021.08	225.13
1021.36	225.95
1021.65	226.50
1021.94	225.44
1022.22	225.80
1022.51	225.48
1022.79	226.14
1023.08	226.51
1023.36	227.59
1023.65	225.67
>>>>>End Processed Spectral Data<<<<<
