SpectraSuite Data File
++++++++++++++++++++++++++++++++++++
Date: Fri Feb 01 15:45:44 EST 2013
User: group
Dark Spectrum Present: No
Reference Spectrum Present: No
Number of Sampled Component Spectra: 1
Spectrometers: USB2E7196
Integration Time (usec): 35000 (USB2E7196)
Spectra Averaged: 100 (USB2E7196)
Boxcar Smoothing: 10 (USB2E7196)
Correct for Electrical Dark: No (USB2E7196)
Strobe/Lamp Enabled: No (USB2E7196)
Correct for Detector Non-linearity: No (USB2E7196)
Correct for Stray Light: No (USB2E7196)
Number of Pixels in Processed Spectrum: 2048
>>>>>Begin Processed Spectral Data<<<<<
339.09	0.00
339.48	215.25
339.86	216.45
340.24	217.78
340.63	218.61
341.01	221.45
341.39	221.49
341.78	223.11
342.16	224.39
342.54	224.85
342.93	213.11
343.31	223.86
343.69	224.37
344.07	224.81
344.46	225.21
344.84	225.61
345.22	225.87
345.60	226.13
345.99	226.29
346.37	226.40
346.75	226.50
347.13	226.56
347.52	226.62
347.90	226.71
348.28	226.72
348.66	226.76
349.05	226.74
349.43	226.78
349.81	226.81
350.19	226.83
350.57	226.89
350.96	226.98
351.34	227.08
351.72	227.15
352.10	227.25
352.48	227.33
352.87	227.36
353.25	227.42
353.63	227.46
354.01	227.55
354.39	227.64
354.77	227.75
355.15	227.87
355.54	227.94
355.92	227.97
356.30	228.04
356.68	228.19
357.06	228.27
357.44	228.32
357.82	228.36
358.20	228.43
358.58	228.50
358.97	228.58
359.35	228.64
359.73	228.73
360.11	228.79
360.49	228.84
360.87	228.91
361.25	228.95
361.63	229.02
362.01	229.04
362.39	229.05
362.77	229.08
363.15	229.09
363.53	229.12
363.91	229.12
364.29	229.16
364.67	229.08
365.05	229.12
365.43	229.17
365.81	229.21
366.19	229.25
366.57	229.33
366.95	229.30
367.33	229.26
367.71	229.24
368.09	229.26
368.47	229.24
368.85	229.24
369.23	229.25
369.61	229.20
369.99	229.21
370.37	229.21
370.75	229.18
371.13	229.12
371.51	229.05
371.89	229.01
372.27	228.99
372.65	228.94
373.03	228.88
373.41	228.83
373.78	228.75
374.16	228.67
374.54	228.55
374.92	228.48
375.30	228.44
375.68	228.36
376.06	228.27
376.44	228.20
376.82	228.15
377.19	228.08
377.57	228.02
377.95	227.95
378.33	227.87
378.71	227.75
379.09	227.71
379.47	227.65
379.84	227.59
380.22	227.48
380.60	227.41
380.98	227.31
381.36	227.24
381.73	227.19
382.11	227.12
382.49	227.06
382.87	226.98
383.25	226.93
383.62	226.97
384.00	226.91
384.38	226.84
384.76	226.79
385.13	226.74
385.51	226.71
385.89	226.63
386.27	226.57
386.64	226.56
387.02	226.53
387.40	226.49
387.78	226.47
388.15	226.44
388.53	226.37
388.91	226.38
389.29	226.33
389.66	226.30
390.04	226.27
390.42	226.28
390.79	226.27
391.17	226.28
391.55	226.18
391.92	226.15
392.30	226.15
392.68	226.11
393.05	226.11
393.43	226.10
393.81	226.11
394.18	226.13
394.56	226.13
394.94	226.16
395.31	226.17
395.69	226.21
396.06	226.23
396.44	226.30
396.82	226.32
397.19	226.40
397.57	226.43
397.95	226.49
398.32	226.49
398.70	226.55
399.07	226.60
399.45	226.67
399.82	226.75
400.20	226.81
400.58	226.92
400.95	226.98
401.33	227.06
401.70	227.23
402.08	227.29
402.45	227.39
402.83	227.50
403.20	227.60
403.58	227.70
403.95	227.86
404.33	227.99
404.71	228.11
405.08	228.29
405.46	228.42
405.83	228.57
406.21	228.71
406.58	228.87
406.96	229.04
407.33	229.21
407.70	229.41
408.08	229.70
408.45	229.90
408.83	230.14
409.20	230.39
409.58	230.58
409.95	230.86
410.33	231.14
410.70	231.39
411.08	231.68
411.45	231.99
411.82	232.30
412.20	232.67
412.57	233.11
412.95	233.39
413.32	233.80
413.69	234.22
414.07	234.69
414.44	235.17
414.82	235.66
415.19	236.22
415.56	236.79
415.94	237.33
416.31	237.98
416.68	238.62
417.06	239.32
417.43	240.00
417.81	240.77
418.18	241.56
418.55	242.39
418.93	243.30
419.30	244.20
419.67	245.15
420.04	246.08
420.42	247.07
420.79	248.27
421.16	249.47
421.54	250.65
421.91	251.89
422.28	253.14
422.66	254.48
423.03	255.75
423.40	257.08
423.77	258.48
424.15	259.93
424.52	261.42
424.89	263.01
425.26	264.52
425.64	265.98
426.01	267.58
426.38	269.22
426.75	270.90
427.13	272.60
427.50	274.37
427.87	276.23
428.24	278.09
428.61	279.84
428.99	281.75
429.36	283.86
429.73	285.90
430.10	287.94
430.47	289.99
430.85	292.11
431.22	294.32
431.59	296.72
431.96	298.91
432.33	301.37
432.70	303.75
433.08	306.60
433.45	309.22
433.82	311.82
434.19	314.72
434.56	317.51
434.93	320.19
435.30	322.85
435.68	325.75
436.05	328.55
436.42	331.32
436.79	333.87
437.16	336.55
437.53	339.36
437.90	342.17
438.27	344.87
438.64	347.71
439.01	350.31
439.38	352.56
439.75	354.80
440.13	357.28
440.50	359.61
440.87	361.43
441.24	363.37
441.61	365.52
441.98	367.00
442.35	368.83
442.72	370.66
443.09	372.47
443.46	373.45
443.83	374.06
444.20	374.53
444.57	375.33
444.94	375.62
445.31	375.97
445.68	376.30
446.05	376.39
446.42	375.98
446.79	375.58
447.16	375.07
447.53	374.73
447.90	373.57
448.27	372.42
448.64	370.83
449.01	369.72
449.37	367.75
449.74	365.85
450.11	363.57
450.48	361.13
450.85	358.57
451.22	356.44
451.59	354.41
451.96	352.51
452.33	349.91
452.70	347.55
453.07	344.72
453.43	341.84
453.80	339.09
454.17	336.48
454.54	333.93
454.91	331.24
455.28	328.56
455.65	326.08
456.02	323.62
456.38	321.49
456.75	318.83
457.12	316.59
457.49	314.39
457.86	312.23
458.23	310.40
458.59	308.39
458.96	306.30
459.33	304.45
459.70	302.58
460.07	301.07
460.43	299.36
460.80	297.78
461.17	296.34
461.54	294.86
461.91	293.45
462.27	291.97
462.64	290.74
463.01	289.41
463.38	288.12
463.74	286.76
464.11	285.60
464.48	284.54
464.85	283.45
465.21	282.55
465.58	281.62
465.95	280.52
466.32	279.60
466.68	278.69
467.05	277.78
467.42	276.90
467.78	275.97
468.15	275.11
468.52	274.43
468.88	273.56
469.25	272.78
469.62	272.13
469.98	271.47
470.35	270.82
470.72	270.23
471.08	269.57
471.45	269.06
471.82	268.51
472.18	267.93
472.55	267.47
472.92	266.95
473.28	266.48
473.65	266.00
474.02	265.56
474.38	265.22
474.75	264.94
475.11	264.60
475.48	264.33
475.85	264.12
476.21	263.88
476.58	263.70
476.94	263.53
477.31	263.38
477.67	263.25
478.04	263.13
478.41	263.06
478.77	263.10
479.14	263.04
479.50	263.06
479.87	263.14
480.23	263.22
480.60	263.32
480.96	263.41
481.33	263.61
481.69	263.83
482.06	264.00
482.42	264.19
482.79	264.41
483.15	264.72
483.52	265.09
483.88	265.42
484.25	265.81
484.61	266.23
484.98	266.65
485.34	267.18
485.71	267.78
486.07	268.37
486.44	268.90
486.80	269.58
487.17	270.29
487.53	271.06
487.90	271.89
488.26	272.80
488.62	273.80
488.99	274.77
489.35	275.78
489.72	276.90
490.08	278.12
490.44	279.38
490.81	280.73
491.17	282.05
491.54	283.51
491.90	285.04
492.26	286.74
492.63	288.52
492.99	290.34
493.36	292.25
493.72	294.32
494.08	296.47
494.45	298.73
494.81	301.14
495.17	303.61
495.54	306.22
495.90	308.90
496.26	311.73
496.63	314.73
496.99	317.87
497.35	321.14
497.72	324.53
498.08	328.05
498.44	331.72
498.80	335.71
499.17	339.78
499.53	343.94
499.89	348.29
500.26	352.78
500.62	357.46
500.98	362.44
501.34	367.49
501.71	372.81
502.07	378.30
502.43	383.91
502.79	389.76
503.16	395.83
503.52	402.14
503.88	408.50
504.24	415.13
504.60	421.98
504.97	429.11
505.33	436.45
505.69	444.19
506.05	452.02
506.41	459.84
506.78	468.04
507.14	476.51
507.50	485.29
507.86	494.32
508.22	503.50
508.59	512.72
508.95	522.27
509.31	532.06
509.67	542.21
510.03	552.53
510.39	563.03
510.75	573.83
511.12	584.77
511.48	596.12
511.84	607.59
512.20	619.15
512.56	631.14
512.92	643.34
513.28	655.68
513.64	668.16
514.00	680.86
514.37	693.83
514.73	706.93
515.09	719.91
515.45	733.14
515.81	746.78
516.17	760.70
516.53	774.80
516.89	788.93
517.25	803.05
517.61	817.49
517.97	831.99
518.33	846.35
518.69	861.14
519.05	876.13
519.41	891.26
519.77	906.89
520.13	922.26
520.49	937.59
520.85	953.06
521.21	968.72
521.57	984.97
521.93	1000.69
522.29	1017.03
522.65	1033.23
523.01	1049.44
523.37	1065.44
523.73	1081.68
524.09	1097.88
524.45	1114.28
524.81	1130.92
525.17	1147.74
525.53	1164.61
525.89	1181.60
526.25	1198.46
526.61	1214.76
526.97	1231.68
527.33	1248.11
527.68	1264.68
528.04	1281.23
528.40	1297.73
528.76	1314.78
529.12	1331.45
529.48	1348.26
529.84	1364.29
530.20	1380.97
530.56	1398.07
530.91	1415.43
531.27	1432.20
531.63	1448.68
531.99	1465.24
532.35	1481.12
532.71	1496.96
533.07	1513.19
533.42	1529.04
533.78	1545.04
534.14	1561.35
534.50	1576.55
534.86	1592.35
535.21	1607.53
535.57	1623.43
535.93	1639.00
536.29	1653.77
536.65	1668.66
537.00	1683.59
537.36	1698.88
537.72	1713.52
538.08	1727.87
538.44	1741.79
538.79	1755.64
539.15	1769.34
539.51	1783.01
539.87	1797.35
540.22	1811.16
540.58	1825.04
540.94	1838.38
541.29	1851.25
541.65	1863.90
542.01	1877.19
542.37	1889.63
542.72	1902.19
543.08	1913.90
543.44	1926.20
543.79	1937.52
544.15	1948.71
544.51	1960.14
544.87	1971.10
545.22	1981.84
545.58	1992.04
545.94	2001.68
546.29	2011.52
546.65	2021.35
547.01	2030.61
547.36	2039.43
547.72	2047.81
548.07	2055.61
548.43	2063.86
548.79	2071.97
549.14	2079.47
549.50	2086.69
549.86	2094.43
550.21	2101.58
550.57	2108.94
550.92	2115.49
551.28	2122.59
551.64	2129.65
551.99	2136.19
552.35	2142.33
552.70	2148.47
553.06	2154.50
553.41	2160.91
553.77	2166.98
554.13	2172.96
554.48	2179.15
554.84	2184.49
555.19	2189.78
555.55	2194.79
555.90	2198.99
556.26	2203.71
556.61	2208.54
556.97	2212.89
557.32	2216.89
557.68	2221.13
558.03	2225.31
558.39	2229.03
558.74	2233.59
559.10	2237.41
559.45	2240.98
559.81	2245.35
560.16	2249.22
560.52	2252.42
560.87	2255.80
561.23	2258.42
561.58	2261.35
561.94	2263.89
562.29	2266.38
562.64	2269.05
563.00	2271.78
563.35	2275.38
563.71	2278.59
564.06	2281.81
564.42	2284.65
564.77	2287.09
565.12	2289.39
565.48	2291.30
565.83	2293.20
566.19	2294.56
566.54	2295.51
566.89	2296.82
567.25	2297.40
567.60	2298.66
567.96	2300.35
568.31	2301.16
568.66	2302.29
569.02	2302.94
569.37	2303.39
569.72	2304.18
570.08	2304.33
570.43	2304.34
570.78	2303.70
571.14	2302.06
571.49	2300.73
571.84	2300.40
572.20	2299.24
572.55	2298.01
572.90	2296.40
573.26	2295.04
573.61	2293.24
573.96	2291.27
574.31	2288.25
574.67	2285.20
575.02	2281.56
575.37	2278.20
575.72	2274.41
576.08	2271.01
576.43	2267.61
576.78	2263.80
577.13	2260.52
577.49	2257.41
577.84	2253.98
578.19	2250.38
578.54	2246.72
578.90	2242.45
579.25	2236.88
579.60	2231.86
579.95	2226.89
580.30	2221.90
580.66	2216.63
581.01	2211.74
581.36	2206.86
581.71	2202.64
582.06	2198.15
582.42	2193.52
582.77	2188.26
583.12	2183.72
583.47	2178.94
583.82	2173.98
584.17	2168.83
584.53	2163.41
584.88	2157.70
585.23	2151.91
585.58	2146.39
585.93	2141.11
586.28	2136.27
586.63	2131.13
586.98	2126.15
587.34	2121.47
587.69	2116.60
588.04	2111.37
588.39	2105.67
588.74	2099.20
589.09	2092.93
589.44	2086.10
589.79	2080.27
590.14	2074.67
590.49	2067.98
590.84	2061.74
591.19	2055.70
591.54	2049.10
591.89	2041.80
592.25	2034.99
592.60	2027.64
592.95	2020.03
593.30	2012.55
593.65	2004.98
594.00	1997.97
594.35	1990.71
594.70	1982.71
595.05	1975.37
595.40	1968.10
595.75	1960.56
596.10	1954.33
596.45	1947.63
596.80	1941.49
597.15	1934.87
597.50	1927.65
597.85	1921.34
598.19	1914.54
598.54	1907.36
598.89	1900.72
599.24	1894.76
599.59	1887.92
599.94	1881.78
600.29	1875.49
600.64	1868.86
600.99	1861.36
601.34	1854.47
601.69	1847.41
602.04	1840.46
602.39	1833.12
602.74	1826.25
603.08	1819.57
603.43	1812.85
603.78	1805.53
604.13	1798.29
604.48	1790.91
604.83	1784.00
605.18	1776.82
605.53	1768.85
605.87	1760.84
606.22	1753.48
606.57	1745.46
606.92	1738.32
607.27	1731.13
607.62	1724.27
607.96	1716.98
608.31	1710.37
608.66	1702.83
609.01	1695.33
609.36	1687.69
609.70	1679.65
610.05	1671.54
610.40	1663.59
610.75	1655.22
611.10	1647.58
611.44	1639.17
611.79	1631.16
612.14	1622.57
612.49	1613.44
612.83	1605.16
613.18	1596.98
613.53	1589.02
613.88	1580.35
614.22	1572.06
614.57	1563.48
614.92	1555.30
615.27	1547.69
615.61	1539.25
615.96	1531.19
616.31	1523.53
616.65	1516.27
617.00	1508.76
617.35	1501.11
617.70	1492.92
618.04	1484.40
618.39	1476.16
618.74	1468.50
619.08	1460.16
619.43	1452.57
619.78	1445.65
620.12	1438.38
620.47	1430.95
620.82	1422.76
621.16	1415.65
621.51	1408.12
621.85	1400.39
622.20	1391.82
622.55	1383.51
622.89	1375.81
623.24	1368.24
623.59	1360.87
623.93	1353.27
624.28	1346.00
624.62	1338.45
624.97	1331.30
625.32	1324.62
625.66	1317.55
626.01	1310.43
626.35	1302.93
626.70	1295.21
627.04	1287.56
627.39	1279.75
627.73	1272.33
628.08	1265.41
628.43	1257.93
628.77	1250.46
629.12	1243.01
629.46	1235.87
629.81	1228.58
630.15	1221.30
630.50	1213.70
630.84	1205.47
631.19	1197.62
631.53	1190.11
631.88	1182.65
632.22	1174.93
632.57	1167.63
632.91	1160.06
633.26	1152.60
633.60	1145.37
633.95	1138.28
634.29	1131.29
634.64	1124.67
634.98	1117.26
635.32	1110.03
635.67	1103.60
636.01	1096.94
636.36	1090.10
636.70	1083.61
637.05	1076.99
637.39	1070.56
637.73	1064.15
638.08	1058.31
638.42	1052.30
638.77	1045.84
639.11	1039.18
639.45	1032.85
639.80	1026.24
640.14	1019.94
640.49	1013.40
640.83	1007.08
641.17	1000.74
641.52	994.38
641.86	987.86
642.20	982.06
642.55	975.84
642.89	969.14
643.23	962.62
643.58	956.81
643.92	950.60
644.26	944.41
644.61	938.40
644.95	932.39
645.29	925.72
645.64	918.92
645.98	912.58
646.32	906.74
646.66	900.76
647.01	894.94
647.35	889.24
647.69	883.47
648.04	877.86
648.38	872.09
648.72	866.08
649.06	860.05
649.41	854.19
649.75	848.19
650.09	842.31
650.43	836.51
650.78	830.36
651.12	824.41
651.46	818.80
651.80	813.00
652.14	807.56
652.49	802.22
652.83	797.07
653.17	791.36
653.51	785.59
653.85	780.14
654.20	774.46
654.54	768.41
654.88	762.64
655.22	756.80
655.56	751.13
655.90	745.74
656.25	740.52
656.59	735.15
656.93	730.01
657.27	724.84
657.61	719.41
657.95	714.29
658.29	709.25
658.64	703.95
658.98	698.67
659.32	693.22
659.66	688.06
660.00	682.76
660.34	677.89
660.68	673.04
661.02	668.02
661.36	663.31
661.70	658.84
662.05	654.45
662.39	650.08
662.73	645.60
663.07	641.20
663.41	636.73
663.75	632.17
664.09	627.60
664.43	623.23
664.77	619.14
665.11	614.90
665.45	610.78
665.79	606.69
666.13	602.62
666.47	598.57
666.81	594.44
667.15	590.32
667.49	586.42
667.83	582.64
668.17	578.77
668.51	574.69
668.85	570.66
669.19	566.84
669.53	562.99
669.87	559.15
670.21	555.42
670.55	551.77
670.89	548.38
671.23	544.95
671.57	541.40
671.91	537.82
672.25	534.33
672.58	530.81
672.92	527.42
673.26	524.23
673.60	521.11
673.94	518.02
674.28	515.10
674.62	512.14
674.96	508.99
675.30	506.08
675.64	503.10
675.97	500.31
676.31	497.42
676.65	494.46
676.99	491.78
677.33	488.87
677.67	486.04
678.01	483.01
678.34	480.13
678.68	477.25
679.02	474.50
679.36	471.74
679.70	469.03
680.04	466.24
680.37	463.30
680.71	460.47
681.05	457.81
681.39	455.15
681.73	452.46
682.06	449.98
682.40	447.35
682.74	444.85
683.08	442.30
683.42	439.72
683.75	437.28
684.09	434.69
684.43	432.25
684.77	429.81
685.10	427.49
685.44	425.16
685.78	422.94
686.12	420.69
686.45	418.40
686.79	416.12
687.13	413.92
687.46	411.81
687.80	409.66
688.14	407.50
688.48	405.38
688.81	403.19
689.15	401.03
689.49	398.92
689.82	396.88
690.16	394.80
690.50	392.87
690.83	390.92
691.17	388.94
691.51	387.03
691.84	385.19
692.18	383.23
692.52	381.22
692.85	379.27
693.19	377.37
693.52	375.52
693.86	373.66
694.20	371.93
694.53	370.12
694.87	368.33
695.21	366.50
695.54	364.73
695.88	362.95
696.21	361.20
696.55	359.54
696.88	357.82
697.22	356.23
697.56	354.59
697.89	352.92
698.23	351.38
698.56	349.77
698.90	348.15
699.23	346.48
699.57	344.96
699.90	343.41
700.24	341.86
700.58	340.35
700.91	338.88
701.25	337.44
701.58	336.10
701.92	334.73
702.25	333.34
702.59	331.94
702.92	330.63
703.26	329.32
703.59	328.03
703.93	326.86
704.26	325.61
704.60	324.31
704.93	323.03
705.26	321.75
705.60	320.60
705.93	319.45
706.27	318.44
706.60	317.39
706.94	316.31
707.27	315.19
707.61	314.12
707.94	313.10
708.27	311.97
708.61	310.87
708.94	309.89
709.28	308.91
709.61	308.01
709.94	307.08
710.28	306.05
710.61	305.10
710.95	304.04
711.28	303.14
711.61	302.20
711.95	301.30
712.28	300.34
712.61	299.34
712.95	298.43
713.28	297.54
713.61	296.61
713.95	295.74
714.28	294.88
714.61	294.05
714.95	293.18
715.28	292.37
715.61	291.51
715.95	290.61
716.28	289.76
716.61	288.92
716.95	288.07
717.28	287.35
717.61	286.55
717.94	285.80
718.28	284.95
718.61	284.24
718.94	283.49
719.27	282.84
719.61	282.18
719.94	281.50
720.27	280.76
720.60	280.14
720.94	279.51
721.27	278.92
721.60	278.33
721.93	277.75
722.27	277.18
722.60	276.60
722.93	276.04
723.26	275.45
723.59	274.84
723.93	274.29
724.26	273.73
724.59	273.18
724.92	272.66
725.25	272.13
725.59	271.59
725.92	271.09
726.25	270.57
726.58	270.09
726.91	269.60
727.24	269.13
727.57	268.64
727.91	268.10
728.24	267.62
728.57	267.16
728.90	266.66
729.23	266.17
729.56	265.71
729.89	265.28
730.22	264.79
730.55	264.37
730.89	263.92
731.22	263.48
731.55	263.06
731.88	262.60
732.21	262.17
732.54	261.76
732.87	261.36
733.20	260.96
733.53	260.58
733.86	260.22
734.19	259.81
734.52	259.45
734.85	259.12
735.18	258.72
735.51	258.31
735.84	257.98
736.17	257.66
736.50	257.30
736.83	257.02
737.16	256.72
737.49	256.36
737.82	256.04
738.15	255.69
738.48	255.39
738.81	255.07
739.14	254.80
739.47	254.49
739.80	254.16
740.13	253.82
740.46	253.47
740.79	253.11
741.12	252.82
741.45	252.46
741.78	252.14
742.11	251.84
742.44	251.52
742.77	251.20
743.10	250.87
743.43	250.54
743.75	250.17
744.08	249.99
744.41	249.74
744.74	249.50
745.07	249.23
745.40	248.92
745.73	248.70
746.06	248.41
746.39	248.14
746.71	247.91
747.04	247.62
747.37	247.37
747.70	247.10
748.03	246.83
748.36	246.64
748.68	246.36
749.01	246.17
749.34	245.93
749.67	245.73
750.00	245.51
750.33	245.37
750.65	245.17
750.98	244.84
751.31	244.61
751.64	244.35
751.97	244.19
752.29	243.96
752.62	243.70
752.95	243.47
753.28	243.24
753.60	243.00
753.93	242.85
754.26	242.65
754.59	242.46
754.91	242.28
755.24	242.08
755.57	241.92
755.90	241.71
756.22	241.54
756.55	241.32
756.88	241.11
757.20	240.87
757.53	240.66
757.86	240.47
758.19	240.30
758.51	240.14
758.84	239.92
759.17	239.76
759.49	239.58
759.82	239.47
760.15	239.33
760.47	239.20
760.80	239.03
761.13	238.93
761.45	238.78
761.78	238.65
762.11	238.50
762.43	238.34
762.76	238.20
763.08	238.07
763.41	237.96
763.74	237.84
764.06	237.68
764.39	237.56
764.71	237.45
765.04	237.32
765.37	237.20
765.69	237.08
766.02	236.93
766.34	236.82
766.67	236.68
767.00	236.61
767.32	236.59
767.65	236.55
767.97	236.39
768.30	236.27
768.62	236.13
768.95	236.03
769.27	235.92
769.60	235.84
769.92	235.73
770.25	235.60
770.57	235.48
770.90	235.39
771.22	235.27
771.55	235.17
771.87	235.09
772.20	235.00
772.52	235.01
772.85	235.03
773.17	234.94
773.50	234.84
773.82	234.66
774.15	234.48
774.47	234.30
774.80	234.20
775.12	234.14
775.45	234.07
775.77	234.00
776.09	233.94
776.42	233.85
776.74	233.78
777.07	233.69
777.39	233.64
777.72	233.56
778.04	233.54
778.36	233.43
778.69	233.37
779.01	233.32
779.33	233.16
779.66	233.02
779.98	232.97
780.31	232.90
780.63	232.93
780.95	232.85
781.28	232.81
781.60	232.78
781.92	232.71
782.25	232.65
782.57	232.60
782.89	232.51
783.22	232.44
783.54	232.36
783.86	232.33
784.19	232.27
784.51	232.24
784.83	232.14
785.16	232.12
785.48	232.04
785.80	231.97
786.12	231.94
786.45	231.87
786.77	231.82
787.09	231.76
787.42	231.65
787.74	231.64
788.06	231.60
788.38	231.53
788.71	231.45
789.03	231.41
789.35	231.34
789.67	231.30
789.99	231.27
790.32	231.23
790.64	231.20
790.96	231.21
791.28	231.16
791.61	231.14
791.93	231.08
792.25	231.03
792.57	231.06
792.89	231.00
793.21	231.00
793.54	230.94
793.86	230.89
794.18	230.83
794.50	230.80
794.82	230.76
795.14	230.77
795.47	230.77
795.79	230.70
796.11	230.65
796.43	230.61
796.75	230.59
797.07	230.55
797.39	230.53
797.71	230.42
798.04	230.38
798.36	230.31
798.68	230.28
799.00	230.24
799.32	230.16
799.64	230.13
799.96	230.09
800.28	230.08
800.60	230.05
800.92	230.07
801.24	230.04
801.56	230.01
801.89	229.93
802.21	229.93
802.53	229.89
802.85	229.89
803.17	229.93
803.49	229.86
803.81	229.82
804.13	229.78
804.45	229.76
804.77	229.72
805.09	229.72
805.41	229.72
805.73	229.67
806.05	229.58
806.37	229.58
806.69	229.53
807.01	229.49
807.33	229.48
807.65	229.40
807.97	229.40
808.28	229.35
808.60	229.33
808.92	229.28
809.24	229.34
809.56	229.28
809.88	229.22
810.20	229.22
810.52	229.22
810.84	229.18
811.16	229.14
811.48	229.12
811.80	229.15
812.12	229.10
812.43	229.08
812.75	229.07
813.07	229.02
813.39	228.99
813.71	228.94
814.03	228.89
814.35	228.90
814.67	228.85
814.98	228.83
815.30	228.83
815.62	228.79
815.94	228.70
816.26	228.76
816.58	228.71
816.89	228.69
817.21	228.64
817.53	228.61
817.85	228.61
818.17	228.56
818.48	228.50
818.80	228.50
819.12	228.51
819.44	228.47
819.76	228.45
820.07	228.44
820.39	228.45
820.71	228.47
821.03	228.44
821.34	228.40
821.66	228.37
821.98	228.33
822.30	228.32
822.61	228.33
822.93	228.24
823.25	228.22
823.57	228.18
823.88	228.20
824.20	228.19
824.52	228.18
824.83	228.18
825.15	228.16
825.47	228.14
825.79	228.12
826.10	228.09
826.42	228.06
826.74	228.06
827.05	228.03
827.37	228.00
827.69	227.97
828.00	227.97
828.32	227.99
828.64	227.98
828.95	228.02
829.27	228.03
829.58	228.04
829.90	228.03
830.22	228.02
830.53	227.94
830.85	227.91
831.17	227.88
831.48	227.89
831.80	227.87
832.11	227.88
832.43	227.87
832.75	227.91
833.06	227.98
833.38	227.94
833.69	227.96
834.01	227.98
834.32	227.99
834.64	228.00
834.96	228.01
835.27	228.02
835.59	227.97
835.90	227.97
836.22	227.95
836.53	227.97
836.85	228.01
837.16	228.13
837.48	228.13
837.79	228.16
838.11	228.16
838.42	228.13
838.74	228.14
839.05	228.13
839.37	228.12
839.68	228.06
840.00	228.07
840.31	228.06
840.63	228.07
840.94	228.04
841.26	228.01
841.57	227.99
841.88	227.99
842.20	228.00
842.51	227.94
842.83	227.92
843.14	227.98
843.46	227.93
843.77	227.88
844.08	227.89
844.40	227.86
844.71	227.83
845.03	227.85
845.34	227.81
845.65	227.80
845.97	227.80
846.28	227.78
846.60	227.79
846.91	227.76
847.22	227.70
847.54	227.72
847.85	227.72
848.16	227.72
848.48	227.68
848.79	227.69
849.10	227.71
849.42	227.70
849.73	227.64
850.04	227.61
850.36	227.57
850.67	227.54
850.98	227.55
851.30	227.55
851.61	227.55
851.92	227.55
852.23	227.58
852.55	227.56
852.86	227.59
853.17	227.59
853.49	227.62
853.80	227.64
854.11	227.65
854.42	227.67
854.74	227.66
855.05	227.66
855.36	227.63
855.67	227.62
855.99	227.63
856.30	227.71
856.61	227.76
856.92	227.77
857.23	227.77
857.55	227.76
857.86	227.73
858.17	227.72
858.48	227.71
858.79	227.70
859.11	227.71
859.42	227.69
859.73	227.63
860.04	227.63
860.35	227.59
860.66	227.57
860.98	227.53
861.29	227.53
861.60	227.53
861.91	227.51
862.22	227.50
862.53	227.47
862.84	227.34
863.16	227.33
863.47	227.29
863.78	227.28
864.09	227.27
864.40	227.30
864.71	227.32
865.02	227.34
865.33	227.32
865.64	227.31
865.95	227.30
866.27	227.39
866.58	227.35
866.89	227.38
867.20	227.34
867.51	227.33
867.82	227.31
868.13	227.30
868.44	227.31
868.75	227.30
869.06	227.31
869.37	227.35
869.68	227.33
869.99	227.33
870.30	227.37
870.61	227.36
870.92	227.36
871.23	227.32
871.54	227.34
871.85	227.35
872.16	227.38
872.47	227.40
872.78	227.32
873.09	227.35
873.40	227.31
873.71	227.34
874.02	227.37
874.33	227.34
874.64	227.33
874.95	227.34
875.26	227.37
875.56	227.35
875.87	227.34
876.18	227.31
876.49	227.42
876.80	227.39
877.11	227.36
877.42	227.36
877.73	227.36
878.04	227.35
878.35	227.35
878.66	227.29
878.96	227.31
879.27	227.34
879.58	227.33
879.89	227.37
880.20	227.40
880.51	227.39
880.82	227.41
881.12	227.45
881.43	227.46
881.74	227.41
882.05	227.45
882.36	227.44
882.67	227.45
882.97	227.34
883.28	227.35
883.59	227.38
883.90	227.39
884.21	227.43
884.51	227.41
884.82	227.38
885.13	227.42
885.44	227.39
885.74	227.36
886.05	227.38
886.36	227.37
886.67	227.36
886.98	227.39
887.28	227.42
887.59	227.38
887.90	227.34
888.20	227.35
888.51	227.31
888.82	227.29
889.13	227.31
889.43	227.39
889.74	227.36
890.05	227.33
890.35	227.31
890.66	227.27
890.97	227.23
891.28	227.21
891.58	227.19
891.89	227.19
892.20	227.19
892.50	227.15
892.81	227.17
893.12	227.13
893.42	227.08
893.73	227.06
894.04	227.07
894.34	227.11
894.65	227.12
894.95	227.10
895.26	227.12
895.57	227.15
895.87	227.08
896.18	227.09
896.48	227.10
896.79	227.09
897.10	227.11
897.40	227.10
897.71	227.12
898.01	227.11
898.32	227.09
898.63	227.09
898.93	227.09
899.24	227.05
899.54	227.07
899.85	227.05
900.15	227.01
900.46	227.00
900.76	226.98
901.07	226.96
901.38	226.98
901.68	226.98
901.99	226.92
902.29	226.91
902.60	226.89
902.90	226.87
903.21	226.86
903.51	226.84
903.82	226.88
904.12	226.91
904.43	226.93
904.73	226.92
905.03	226.93
905.34	227.00
905.64	227.01
905.95	227.01
906.25	227.03
906.56	227.04
906.86	227.05
907.17	227.06
907.47	227.05
907.77	227.05
908.08	227.03
908.38	227.05
908.69	227.08
908.99	227.11
909.30	227.14
909.60	227.15
909.90	227.17
910.21	227.16
910.51	227.12
910.81	227.10
911.12	227.11
911.42	227.12
911.73	227.06
912.03	227.04
912.33	227.03
912.64	227.03
912.94	227.02
913.24	227.01
913.55	226.98
913.85	227.00
914.15	227.01
914.46	227.04
914.76	227.06
915.06	227.04
915.37	227.01
915.67	227.00
915.97	226.99
916.27	226.99
916.58	227.00
916.88	226.99
917.18	227.00
917.49	227.07
917.79	227.07
918.09	227.06
918.39	227.10
918.70	227.10
919.00	227.09
919.30	227.14
919.60	227.16
919.91	227.17
920.21	227.17
920.51	227.16
920.81	227.12
921.12	227.08
921.42	227.07
921.72	227.11
922.02	227.14
922.32	227.17
922.63	227.18
922.93	227.21
923.23	227.22
923.53	227.19
923.83	227.12
924.13	227.12
924.44	227.12
924.74	227.13
925.04	227.14
925.34	227.15
925.64	227.10
925.94	227.06
926.24	227.08
926.55	227.08
926.85	227.10
927.15	227.12
927.45	227.10
927.75	227.12
928.05	227.11
928.35	227.08
928.65	227.10
928.95	227.10
929.26	227.09
929.56	227.11
929.86	227.13
930.16	227.10
930.46	227.10
930.76	227.09
931.06	227.03
931.36	227.00
931.66	226.99
931.96	227.01
932.26	227.06
932.56	227.05
932.86	227.02
933.16	227.01
933.46	227.00
933.76	227.02
934.06	227.01
934.36	227.03
934.66	227.02
934.96	226.96
935.26	226.93
935.56	226.91
935.86	226.90
936.16	226.87
936.46	226.90
936.76	226.86
937.06	226.89
937.36	226.92
937.66	226.93
937.96	226.95
938.26	226.94
938.56	226.88
938.86	226.86
939.16	226.89
939.46	226.88
939.76	226.90
940.06	226.89
940.35	226.86
940.65	226.78
940.95	226.77
941.25	226.74
941.55	226.73
941.85	226.75
942.15	226.74
942.45	226.77
942.75	226.76
943.04	226.78
943.34	226.77
943.64	226.74
943.94	226.72
944.24	226.70
944.54	226.70
944.84	226.76
945.13	226.75
945.43	226.75
945.73	226.75
946.03	226.72
946.33	226.70
946.62	226.71
946.92	226.74
947.22	226.77
947.52	226.81
947.82	226.83
948.11	226.78
948.41	226.78
948.71	226.75
949.01	226.72
949.31	226.72
949.60	226.70
949.90	226.72
950.20	226.72
950.50	226.71
950.79	226.70
951.09	226.68
951.39	226.70
951.69	226.67
951.98	226.69
952.28	226.68
952.58	226.70
952.87	226.70
953.17	226.71
953.47	226.71
953.76	226.70
954.06	226.66
954.36	226.67
954.66	226.66
954.95	226.68
955.25	226.71
955.55	226.69
955.84	226.71
956.14	226.73
956.44	226.76
956.73	226.76
957.03	226.76
957.32	226.77
957.62	226.76
957.92	226.77
958.21	226.76
958.51	226.89
958.81	226.91
959.10	226.91
959.40	226.95
959.69	226.95
959.99	226.96
960.29	226.98
960.58	226.97
960.88	226.99
961.17	226.98
961.47	226.99
961.76	227.00
962.06	227.01
962.36	227.00
962.65	226.99
962.95	227.01
963.24	226.97
963.54	227.00
963.83	227.01
964.13	227.03
964.42	227.02
964.72	226.93
965.01	226.93
965.31	226.91
965.60	226.89
965.90	226.94
966.19	226.92
966.49	226.94
966.78	226.94
967.08	226.94
967.37	226.95
967.67	226.93
967.96	226.92
968.26	226.92
968.55	226.93
968.85	226.95
969.14	226.95
969.43	226.96
969.73	226.91
970.02	226.89
970.32	226.87
970.61	226.83
970.91	226.83
971.20	226.81
971.49	226.85
971.79	226.83
972.08	226.75
972.38	226.76
972.67	226.73
972.96	226.76
973.26	226.78
973.55	226.83
973.85	226.84
974.14	226.84
974.43	226.83
974.73	226.79
975.02	226.76
975.31	226.75
975.61	226.74
975.90	226.72
976.19	226.71
976.49	226.71
976.78	226.75
977.07	226.73
977.37	226.72
977.66	226.71
977.95	226.73
978.24	226.73
978.54	226.75
978.83	226.73
979.12	226.70
979.42	226.69
979.71	226.64
980.00	226.62
980.29	226.62
980.59	226.61
980.88	226.63
981.17	226.62
981.46	226.57
981.76	226.59
982.05	226.65
982.34	226.66
982.63	226.65
982.93	226.63
983.22	226.66
983.51	226.68
983.80	226.68
984.09	226.67
984.39	226.64
984.68	226.61
984.97	226.65
985.26	226.63
985.55	226.61
985.85	226.57
986.14	226.58
986.43	226.60
986.72	226.60
987.01	226.57
987.30	226.57
987.59	226.59
987.89	226.56
988.18	226.50
988.47	226.49
988.76	226.47
989.05	226.48
989.34	226.46
989.63	226.47
989.92	226.45
990.22	226.41
990.51	226.42
990.80	226.43
991.09	226.45
991.38	226.49
991.67	226.49
991.96	226.50
992.25	226.52
992.54	226.49
992.83	226.52
993.12	226.51
993.41	226.53
993.70	226.59
993.99	226.63
994.28	226.67
994.58	226.70
994.87	226.74
995.16	226.71
995.45	226.73
995.74	226.68
996.03	226.70
996.32	226.74
996.61	226.80
996.90	226.83
997.19	226.79
997.48	226.81
997.77	226.81
998.06	226.81
998.34	226.78
998.63	226.81
998.92	226.77
999.21	226.79
999.50	226.80
999.79	226.78
1000.08	226.79
1000.37	226.80
1000.66	226.77
1000.95	226.79
1001.24	226.83
1001.53	226.82
1001.82	226.85
1002.11	226.82
1002.40	226.83
1002.68	226.83
1002.97	226.89
1003.26	226.93
1003.55	226.91
1003.84	226.92
1004.13	227.00
1004.42	227.03
1004.71	227.04
1004.99	227.04
1005.28	227.06
1005.57	227.07
1005.86	227.06
1006.15	227.03
1006.44	226.99
1006.72	227.02
1007.01	226.99
1007.30	227.01
1007.59	227.02
1007.88	227.01
1008.17	227.04
1008.45	227.05
1008.74	226.99
1009.03	226.95
1009.32	226.90
1009.60	226.89
1009.89	226.89
1010.18	226.82
1010.47	226.78
1010.76	226.77
1011.04	226.76
1011.33	226.76
1011.62	226.72
1011.91	226.73
1012.19	226.75
1012.48	226.79
1012.77	226.80
1013.05	226.85
1013.34	226.81
1013.63	226.82
1013.92	226.82
1014.20	226.80
1014.49	226.82
1014.78	226.85
1015.06	226.81
1015.35	226.86
1015.64	226.86
1015.92	226.88
1016.21	226.89
1016.50	226.90
1016.78	226.91
1017.07	226.94
1017.36	226.89
1017.64	226.91
1017.93	226.91
1018.22	226.92
1018.50	226.87
1018.79	226.85
1019.08	226.80
1019.36	226.82
1019.65	226.79
1019.93	226.83
1020.22	226.86
1020.51	226.89
1020.79	226.83
1021.08	227.02
1021.36	226.05
1021.65	226.86
1021.94	226.58
1022.22	227.01
1022.51	226.53
1022.79	227.60
1023.08	227.23
1023.36	227.92
1023.65	226.09
>>>>>End Processed Spectral Data<<<<<
