SpectraSuite Data File
++++++++++++++++++++++++++++++++++++
Date: Fri Feb 01 15:56:16 EST 2013
User: group
Dark Spectrum Present: No
Reference Spectrum Present: No
Number of Sampled Component Spectra: 1
Spectrometers: USB2E7196
Integration Time (usec): 35000 (USB2E7196)
Spectra Averaged: 100 (USB2E7196)
Boxcar Smoothing: 10 (USB2E7196)
Correct for Electrical Dark: No (USB2E7196)
Strobe/Lamp Enabled: No (USB2E7196)
Correct for Detector Non-linearity: No (USB2E7196)
Correct for Stray Light: No (USB2E7196)
Number of Pixels in Processed Spectrum: 2048
>>>>>Begin Processed Spectral Data<<<<<
339.09	0.00
339.48	215.15
339.86	215.77
340.24	217.51
340.63	219.39
341.01	221.87
341.39	222.27
341.78	222.56
342.16	224.18
342.54	224.80
342.93	213.21
343.31	223.98
343.69	224.51
344.07	225.02
344.46	225.46
344.84	225.83
345.22	226.05
345.60	226.29
345.99	226.49
346.37	226.64
346.75	226.73
347.13	226.75
347.52	226.77
347.90	226.84
348.28	226.88
348.66	226.89
349.05	226.90
349.43	226.92
349.81	226.95
350.19	227.00
350.57	227.08
350.96	227.14
351.34	227.21
351.72	227.30
352.10	227.36
352.48	227.42
352.87	227.45
353.25	227.51
353.63	227.57
354.01	227.66
354.39	227.72
354.77	227.81
355.15	227.93
355.54	228.02
355.92	228.06
356.30	228.12
356.68	228.28
357.06	228.35
357.44	228.42
357.82	228.48
358.20	228.54
358.58	228.56
358.97	228.64
359.35	228.74
359.73	228.81
360.11	228.85
360.49	228.89
360.87	228.94
361.25	229.01
361.63	229.06
362.01	229.06
362.39	229.08
362.77	229.12
363.15	229.17
363.53	229.17
363.91	229.18
364.29	229.20
364.67	229.11
365.05	229.14
365.43	229.14
365.81	229.19
366.19	229.24
366.57	229.33
366.95	229.34
367.33	229.30
367.71	229.30
368.09	229.31
368.47	229.33
368.85	229.34
369.23	229.34
369.61	229.29
369.99	229.32
370.37	229.31
370.75	229.33
371.13	229.27
371.51	229.19
371.89	229.15
372.27	229.11
372.65	229.07
373.03	229.00
373.41	228.96
373.78	228.86
374.16	228.77
374.54	228.64
374.92	228.59
375.30	228.55
375.68	228.46
376.06	228.39
376.44	228.33
376.82	228.24
377.19	228.20
377.57	228.12
377.95	228.01
378.33	227.93
378.71	227.80
379.09	227.75
379.47	227.75
379.84	227.67
380.22	227.63
380.60	227.55
380.98	227.48
381.36	227.41
381.73	227.36
382.11	227.27
382.49	227.23
382.87	227.16
383.25	227.09
383.62	227.11
384.00	227.02
384.38	226.95
384.76	226.91
385.13	226.89
385.51	226.82
385.89	226.76
386.27	226.74
386.64	226.68
387.02	226.63
387.40	226.56
387.78	226.50
388.15	226.43
388.53	226.33
388.91	226.30
389.29	226.27
389.66	226.24
390.04	226.23
390.42	226.21
390.79	226.17
391.17	226.13
391.55	226.04
391.92	226.06
392.30	226.07
392.68	226.04
393.05	225.99
393.43	226.01
393.81	226.01
394.18	226.00
394.56	225.99
394.94	226.03
395.31	226.01
395.69	226.09
396.06	226.16
396.44	226.23
396.82	226.27
397.19	226.32
397.57	226.36
397.95	226.42
398.32	226.46
398.70	226.53
399.07	226.63
399.45	226.68
399.82	226.74
400.20	226.80
400.58	226.86
400.95	226.90
401.33	227.00
401.70	227.15
402.08	227.23
402.45	227.36
402.83	227.48
403.20	227.60
403.58	227.69
403.95	227.80
404.33	227.96
404.71	228.06
405.08	228.23
405.46	228.38
405.83	228.56
406.21	228.69
406.58	228.85
406.96	229.00
407.33	229.19
407.70	229.40
408.08	229.69
408.45	229.93
408.83	230.18
409.20	230.40
409.58	230.57
409.95	230.86
410.33	231.15
410.70	231.37
411.08	231.65
411.45	231.96
411.82	232.29
412.20	232.63
412.57	233.05
412.95	233.35
413.32	233.74
413.69	234.13
414.07	234.57
414.44	235.03
414.82	235.50
415.19	236.05
415.56	236.59
415.94	237.13
416.31	237.79
416.68	238.42
417.06	239.17
417.43	239.88
417.81	240.64
418.18	241.42
418.55	242.29
418.93	243.19
419.30	244.08
419.67	245.00
420.04	245.96
420.42	246.97
420.79	248.19
421.16	249.32
421.54	250.55
421.91	251.77
422.28	253.04
422.66	254.40
423.03	255.71
423.40	257.05
423.77	258.43
424.15	259.81
424.52	261.31
424.89	262.86
425.26	264.39
425.64	265.86
426.01	267.45
426.38	269.09
426.75	270.75
427.13	272.48
427.50	274.28
427.87	276.16
428.24	278.04
428.61	279.74
428.99	281.74
429.36	283.83
429.73	285.90
430.10	287.94
430.47	289.98
430.85	292.12
431.22	294.35
431.59	296.77
431.96	299.02
432.33	301.46
432.70	303.91
433.08	306.73
433.45	309.34
433.82	311.95
434.19	314.78
434.56	317.62
434.93	320.30
435.30	322.94
435.68	325.79
436.05	328.62
436.42	331.42
436.79	333.91
437.16	336.65
437.53	339.44
437.90	342.27
438.27	345.00
438.64	347.82
439.01	350.46
439.38	352.60
439.75	354.79
440.13	357.30
440.50	359.56
440.87	361.43
441.24	363.36
441.61	365.51
441.98	367.07
442.35	368.83
442.72	370.64
443.09	372.44
443.46	373.44
443.83	374.06
444.20	374.53
444.57	375.36
444.94	375.57
445.31	375.95
445.68	376.28
446.05	376.32
446.42	375.91
446.79	375.41
447.16	375.04
447.53	374.70
447.90	373.57
448.27	372.41
448.64	370.79
449.01	369.66
449.37	367.68
449.74	365.78
450.11	363.52
450.48	361.06
450.85	358.52
451.22	356.37
451.59	354.29
451.96	352.36
452.33	349.76
452.70	347.39
453.07	344.57
453.43	341.66
453.80	338.93
454.17	336.25
454.54	333.74
454.91	331.00
455.28	328.31
455.65	325.84
456.02	323.36
456.38	321.22
456.75	318.57
457.12	316.29
457.49	314.06
457.86	311.89
458.23	310.02
458.59	307.99
458.96	305.91
459.33	304.03
459.70	302.17
460.07	300.65
460.43	298.94
460.80	297.26
461.17	295.82
461.54	294.31
461.91	292.91
462.27	291.45
462.64	290.18
463.01	288.84
463.38	287.52
463.74	286.19
464.11	285.04
464.48	283.99
464.85	282.90
465.21	282.01
465.58	281.12
465.95	280.05
466.32	279.14
466.68	278.22
467.05	277.36
467.42	276.44
467.78	275.52
468.15	274.66
468.52	274.00
468.88	273.13
469.25	272.36
469.62	271.72
469.98	271.03
470.35	270.43
470.72	269.87
471.08	269.18
471.45	268.67
471.82	268.12
472.18	267.51
472.55	267.09
472.92	266.59
473.28	266.10
473.65	265.68
474.02	265.22
474.38	264.89
474.75	264.60
475.11	264.29
475.48	264.06
475.85	263.83
476.21	263.65
476.58	263.47
476.94	263.31
477.31	263.17
477.67	263.04
478.04	262.93
478.41	262.87
478.77	262.93
479.14	262.82
479.50	262.85
479.87	262.91
480.23	263.02
480.60	263.08
480.96	263.17
481.33	263.39
481.69	263.59
482.06	263.79
482.42	264.00
482.79	264.23
483.15	264.55
483.52	264.94
483.88	265.29
484.25	265.69
484.61	266.13
484.98	266.60
485.34	267.19
485.71	267.77
486.07	268.35
486.44	268.94
486.80	269.68
487.17	270.44
487.53	271.27
487.90	272.10
488.26	273.06
488.62	274.10
488.99	275.09
489.35	276.16
489.72	277.29
490.08	278.50
490.44	279.75
490.81	281.08
491.17	282.44
491.54	283.90
491.90	285.42
492.26	287.07
492.63	288.76
492.99	290.52
493.36	292.41
493.72	294.47
494.08	296.57
494.45	298.84
494.81	301.19
495.17	303.62
495.54	306.17
495.90	308.82
496.26	311.62
496.63	314.54
496.99	317.65
497.35	320.88
497.72	324.29
498.08	327.84
498.44	331.46
498.80	335.35
499.17	339.37
499.53	343.55
499.89	347.96
500.26	352.49
500.62	357.20
500.98	362.15
501.34	367.21
501.71	372.50
502.07	377.91
502.43	383.53
502.79	389.38
503.16	395.47
503.52	401.78
503.88	408.15
504.24	414.76
504.60	421.65
504.97	428.79
505.33	436.12
505.69	443.84
506.05	451.67
506.41	459.55
506.78	467.77
507.14	476.22
507.50	484.91
507.86	493.93
508.22	503.08
508.59	512.29
508.95	521.89
509.31	531.76
509.67	541.86
510.03	552.16
510.39	562.72
510.75	573.50
511.12	584.39
511.48	595.74
511.84	607.24
512.20	618.76
512.56	630.72
512.92	642.90
513.28	655.19
513.64	667.62
514.00	680.31
514.37	693.16
514.73	706.29
515.09	719.32
515.45	732.62
515.81	746.20
516.17	760.27
516.53	774.30
516.89	788.42
517.25	802.60
517.61	817.04
517.97	831.47
518.33	845.89
518.69	860.64
519.05	875.61
519.41	890.72
519.77	906.24
520.13	921.63
520.49	937.06
520.85	952.50
521.21	968.29
521.57	984.59
521.93	1000.43
522.29	1016.67
522.65	1032.92
523.01	1049.14
523.37	1065.15
523.73	1081.27
524.09	1097.45
524.45	1113.85
524.81	1130.48
525.17	1147.26
525.53	1164.08
525.89	1180.98
526.25	1197.89
526.61	1214.27
526.97	1231.03
527.33	1247.56
527.68	1264.19
528.04	1280.57
528.40	1297.17
528.76	1314.13
529.12	1330.60
529.48	1347.41
529.84	1363.54
530.20	1380.10
530.56	1397.06
530.91	1414.55
531.27	1431.23
531.63	1447.61
531.99	1464.18
532.35	1480.11
532.71	1495.83
533.07	1512.16
533.42	1527.98
533.78	1543.98
534.14	1560.12
534.50	1575.45
534.86	1591.14
535.21	1606.25
535.57	1622.17
535.93	1637.55
536.29	1652.39
536.65	1667.43
537.00	1682.29
537.36	1697.58
537.72	1712.13
538.08	1726.61
538.44	1740.32
538.79	1754.27
539.15	1767.91
539.51	1781.41
539.87	1795.70
540.22	1809.51
540.58	1823.27
540.94	1836.50
541.29	1849.32
541.65	1862.06
542.01	1875.18
542.37	1887.46
542.72	1899.93
543.08	1911.63
543.44	1924.04
543.79	1935.12
544.15	1946.13
544.51	1957.55
544.87	1968.47
545.22	1979.14
545.58	1989.22
545.94	1998.87
546.29	2008.61
546.65	2018.52
547.01	2027.77
547.36	2036.38
547.72	2044.82
548.07	2052.59
548.43	2060.79
548.79	2068.79
549.14	2076.31
549.50	2083.74
549.86	2091.55
550.21	2098.88
550.57	2105.98
550.92	2112.44
551.28	2119.45
551.64	2126.51
551.99	2132.98
552.35	2139.06
552.70	2145.27
553.06	2151.28
553.41	2157.63
553.77	2163.68
554.13	2169.62
554.48	2175.82
554.84	2181.33
555.19	2186.58
555.55	2191.64
555.90	2196.08
556.26	2201.01
556.61	2205.71
556.97	2209.98
557.32	2214.08
557.68	2218.02
558.03	2222.37
558.39	2226.08
558.74	2230.77
559.10	2234.57
559.45	2238.38
559.81	2242.77
560.16	2246.62
560.52	2249.94
560.87	2253.36
561.23	2256.03
561.58	2259.06
561.94	2261.64
562.29	2264.08
562.64	2266.77
563.00	2269.36
563.35	2273.00
563.71	2276.04
564.06	2279.29
564.42	2282.08
564.77	2284.45
565.12	2286.85
565.48	2288.74
565.83	2290.67
566.19	2292.02
566.54	2292.98
566.89	2294.00
567.25	2294.47
567.60	2295.78
567.96	2297.37
568.31	2298.22
568.66	2299.37
569.02	2299.92
569.37	2300.18
569.72	2300.99
570.08	2301.09
570.43	2301.27
570.78	2300.61
571.14	2299.04
571.49	2297.74
571.84	2297.44
572.20	2296.41
572.55	2295.33
572.90	2293.87
573.26	2292.66
573.61	2291.05
573.96	2289.23
574.31	2286.30
574.67	2283.40
575.02	2279.81
575.37	2276.46
575.72	2272.78
576.08	2269.39
576.43	2266.01
576.78	2262.30
577.13	2259.15
577.49	2256.15
577.84	2252.60
578.19	2248.84
578.54	2245.26
578.90	2240.94
579.25	2235.44
579.60	2230.40
579.95	2225.36
580.30	2220.36
580.66	2215.06
581.01	2210.12
581.36	2205.17
581.71	2201.03
582.06	2196.52
582.42	2191.96
582.77	2186.59
583.12	2181.91
583.47	2177.10
583.82	2172.19
584.17	2166.97
584.53	2161.45
584.88	2155.82
585.23	2150.05
585.58	2144.73
585.93	2139.34
586.28	2134.61
586.63	2129.55
586.98	2124.58
587.34	2119.90
587.69	2114.86
588.04	2109.54
588.39	2103.83
588.74	2097.55
589.09	2091.40
589.44	2084.54
589.79	2078.59
590.14	2073.20
590.49	2066.67
590.84	2060.34
591.19	2054.41
591.54	2048.01
591.89	2040.67
592.25	2033.82
592.60	2026.67
592.95	2018.90
593.30	2011.52
593.65	2003.94
594.00	1996.86
594.35	1989.66
594.70	1981.71
595.05	1974.63
595.40	1967.43
595.75	1959.81
596.10	1953.63
596.45	1946.88
596.80	1940.79
597.15	1934.16
597.50	1926.91
597.85	1920.47
598.19	1913.85
598.54	1906.63
598.89	1899.95
599.24	1894.10
599.59	1887.34
599.94	1881.10
600.29	1874.96
600.64	1868.36
600.99	1860.90
601.34	1854.03
601.69	1847.08
602.04	1840.17
602.39	1832.77
602.74	1825.93
603.08	1819.21
603.43	1812.29
603.78	1805.06
604.13	1797.92
604.48	1790.67
604.83	1783.81
605.18	1776.84
605.53	1768.80
605.87	1760.71
606.22	1753.50
606.57	1745.45
606.92	1738.29
607.27	1731.12
607.62	1724.11
607.96	1716.72
608.31	1710.09
608.66	1702.46
609.01	1694.78
609.36	1687.11
609.70	1679.21
610.05	1671.13
610.40	1663.53
610.75	1655.25
611.10	1647.50
611.44	1638.95
611.79	1630.92
612.14	1622.32
612.49	1613.14
612.83	1604.86
613.18	1596.75
613.53	1588.64
613.88	1580.11
614.22	1571.80
614.57	1563.17
614.92	1555.05
615.27	1547.53
615.61	1539.20
615.96	1531.19
616.31	1523.59
616.65	1516.24
617.00	1508.45
617.35	1500.73
617.70	1492.28
618.04	1483.75
618.39	1475.50
618.74	1467.95
619.08	1459.67
619.43	1451.96
619.78	1445.08
620.12	1437.80
620.47	1430.34
620.82	1422.23
621.16	1414.92
621.51	1407.37
621.85	1399.72
622.20	1391.35
622.55	1382.99
622.89	1375.20
623.24	1367.74
623.59	1360.39
623.93	1352.83
624.28	1345.79
624.62	1338.24
624.97	1331.08
625.32	1324.36
625.66	1317.33
626.01	1310.16
626.35	1302.66
626.70	1295.06
627.04	1287.30
627.39	1279.67
627.73	1272.24
628.08	1265.23
628.43	1257.78
628.77	1250.32
629.12	1242.86
629.46	1235.62
629.81	1228.37
630.15	1221.11
630.50	1213.53
630.84	1205.29
631.19	1197.43
631.53	1189.90
631.88	1182.42
632.22	1174.86
632.57	1167.52
632.91	1159.95
633.26	1152.60
633.60	1145.20
633.95	1138.16
634.29	1131.13
634.64	1124.40
634.98	1117.07
635.32	1109.97
635.67	1103.55
636.01	1096.95
636.36	1090.21
636.70	1083.68
637.05	1077.09
637.39	1070.63
637.73	1064.11
638.08	1058.27
638.42	1052.22
638.77	1045.74
639.11	1039.09
639.45	1032.79
639.80	1026.25
640.14	1019.91
640.49	1013.34
640.83	1007.14
641.17	1000.86
641.52	994.52
641.86	988.01
642.20	982.14
642.55	975.80
642.89	969.26
643.23	962.69
643.58	956.74
643.92	950.54
644.26	944.42
644.61	938.40
644.95	932.42
645.29	925.87
645.64	919.22
645.98	912.84
646.32	907.10
646.66	900.99
647.01	895.12
647.35	889.41
647.69	883.58
648.04	877.96
648.38	872.17
648.72	866.08
649.06	860.07
649.41	854.22
649.75	848.22
650.09	842.29
650.43	836.60
650.78	830.50
651.12	824.55
651.46	818.84
651.80	813.07
652.14	807.66
652.49	802.31
652.83	797.09
653.17	791.41
653.51	785.62
653.85	780.26
654.20	774.64
654.54	768.57
654.88	762.83
655.22	756.97
655.56	751.23
655.90	745.83
656.25	740.53
656.59	735.24
656.93	730.20
657.27	724.97
657.61	719.42
657.95	714.28
658.29	709.15
658.64	703.88
658.98	698.55
659.32	693.09
659.66	687.82
660.00	682.46
660.34	677.56
660.68	672.65
661.02	667.60
661.36	662.88
661.70	658.42
662.05	654.14
662.39	649.74
662.73	645.32
663.07	640.97
663.41	636.55
663.75	631.96
664.09	627.35
664.43	623.04
664.77	618.97
665.11	614.73
665.45	610.62
665.79	606.53
666.13	602.40
666.47	598.35
666.81	594.27
667.15	590.24
667.49	586.33
667.83	582.61
668.17	578.69
668.51	574.61
668.85	570.58
669.19	566.67
669.53	562.86
669.87	558.94
670.21	555.21
670.55	551.54
670.89	548.14
671.23	544.74
671.57	541.22
671.91	537.67
672.25	534.26
672.58	530.78
672.92	527.36
673.26	524.30
673.60	521.11
673.94	517.96
674.28	515.11
674.62	512.13
674.96	508.93
675.30	506.00
675.64	503.07
675.97	500.31
676.31	497.45
676.65	494.53
676.99	491.82
677.33	489.01
677.67	486.20
678.01	483.15
678.34	480.19
678.68	477.33
679.02	474.54
679.36	471.76
679.70	469.06
680.04	466.31
680.37	463.40
680.71	460.62
681.05	457.94
681.39	455.15
681.73	452.52
682.06	449.99
682.40	447.45
682.74	444.96
683.08	442.39
683.42	439.74
683.75	437.26
684.09	434.70
684.43	432.27
684.77	429.81
685.10	427.49
685.44	425.21
685.78	422.91
686.12	420.60
686.45	418.24
686.79	415.87
687.13	413.73
687.46	411.53
687.80	409.39
688.14	407.19
688.48	405.15
688.81	402.92
689.15	400.83
689.49	398.66
689.82	396.63
690.16	394.57
690.50	392.68
690.83	390.75
691.17	388.82
691.51	386.89
691.84	385.07
692.18	383.12
692.52	381.13
692.85	379.22
693.19	377.40
693.52	375.63
693.86	373.89
694.20	372.08
694.53	370.28
694.87	368.41
695.21	366.66
695.54	364.84
695.88	363.14
696.21	361.43
696.55	359.75
696.88	357.98
697.22	356.32
697.56	354.70
697.89	353.01
698.23	351.41
698.56	349.78
698.90	348.17
699.23	346.54
699.57	344.95
699.90	343.44
700.24	341.86
700.58	340.29
700.91	338.74
701.25	337.24
701.58	335.91
701.92	334.57
702.25	333.18
702.59	331.81
702.92	330.45
703.26	329.10
703.59	327.85
703.93	326.66
704.26	325.42
704.60	324.09
704.93	322.82
705.26	321.53
705.60	320.39
705.93	319.26
706.27	318.27
706.60	317.23
706.94	316.09
707.27	314.96
707.61	313.92
707.94	312.95
708.27	311.91
708.61	310.80
708.94	309.76
709.28	308.76
709.61	307.79
709.94	306.82
710.28	305.81
710.61	304.84
710.95	303.75
711.28	302.81
711.61	301.86
711.95	300.94
712.28	299.94
712.61	298.91
712.95	297.98
713.28	297.05
713.61	296.14
713.95	295.28
714.28	294.44
714.61	293.58
714.95	292.66
715.28	291.76
715.61	290.89
715.95	290.05
716.28	289.20
716.61	288.36
716.95	287.55
717.28	286.79
717.61	286.00
717.94	285.29
718.28	284.47
718.61	283.75
718.94	283.06
719.27	282.46
719.61	281.81
719.94	281.13
720.27	280.42
720.60	279.76
720.94	279.13
721.27	278.52
721.60	277.98
721.93	277.40
722.27	276.90
722.60	276.35
722.93	275.81
723.26	275.26
723.59	274.70
723.93	274.17
724.26	273.67
724.59	273.05
724.92	272.51
725.25	272.07
725.59	271.54
725.92	271.06
726.25	270.52
726.58	270.02
726.91	269.52
727.24	269.06
727.57	268.58
727.91	268.09
728.24	267.63
728.57	267.10
728.90	266.70
729.23	266.18
729.56	265.76
729.89	265.26
730.22	264.77
730.55	264.30
730.89	263.83
731.22	263.34
731.55	262.94
731.88	262.52
732.21	262.06
732.54	261.65
732.87	261.20
733.20	260.82
733.53	260.45
733.86	260.08
734.19	259.67
734.52	259.30
734.85	258.98
735.18	258.55
735.51	258.19
735.84	257.78
736.17	257.42
736.50	257.04
736.83	256.81
737.16	256.50
737.49	256.18
737.82	255.86
738.15	255.56
738.48	255.25
738.81	254.94
739.14	254.62
739.47	254.29
739.80	253.97
740.13	253.69
740.46	253.35
740.79	253.01
741.12	252.72
741.45	252.41
741.78	252.05
742.11	251.80
742.44	251.47
742.77	251.20
743.10	250.91
743.43	250.62
743.75	250.21
744.08	250.07
744.41	249.81
744.74	249.53
745.07	249.25
745.40	249.00
745.73	248.76
746.06	248.48
746.39	248.24
746.71	247.99
747.04	247.68
747.37	247.42
747.70	247.19
748.03	246.93
748.36	246.69
748.68	246.48
749.01	246.22
749.34	246.00
749.67	245.76
750.00	245.53
750.33	245.37
750.65	245.19
750.98	244.83
751.31	244.60
751.64	244.42
751.97	244.23
752.29	244.01
752.62	243.77
752.95	243.58
753.28	243.33
753.60	243.11
753.93	242.96
754.26	242.80
754.59	242.58
754.91	242.40
755.24	242.23
755.57	242.03
755.90	241.84
756.22	241.63
756.55	241.44
756.88	241.25
757.20	241.01
757.53	240.80
757.86	240.66
758.19	240.49
758.51	240.31
758.84	240.10
759.17	239.96
759.49	239.83
759.82	239.73
760.15	239.61
760.47	239.47
760.80	239.30
761.13	239.17
761.45	239.02
761.78	238.85
762.11	238.70
762.43	238.52
762.76	238.38
763.08	238.24
763.41	238.16
763.74	238.03
764.06	237.89
764.39	237.75
764.71	237.57
765.04	237.47
765.37	237.34
765.69	237.24
766.02	237.08
766.34	236.90
766.67	236.71
767.00	236.61
767.32	236.54
767.65	236.49
767.97	236.37
768.30	236.24
768.62	236.17
768.95	236.03
769.27	235.97
769.60	235.89
769.92	235.80
770.25	235.65
770.57	235.54
770.90	235.46
771.22	235.38
771.55	235.33
771.87	235.19
772.20	235.11
772.52	235.10
772.85	235.12
773.17	235.05
773.50	234.96
773.82	234.89
774.15	234.77
774.47	234.59
774.80	234.50
775.12	234.43
775.45	234.33
775.77	234.27
776.09	234.17
776.42	234.08
776.74	234.00
777.07	233.89
777.39	233.80
777.72	233.70
778.04	233.63
778.36	233.54
778.69	233.49
779.01	233.43
779.33	233.24
779.66	233.07
779.98	233.01
780.31	232.93
780.63	232.85
780.95	232.80
781.28	232.75
781.60	232.68
781.92	232.60
782.25	232.56
782.57	232.49
782.89	232.45
783.22	232.37
783.54	232.31
783.86	232.29
784.19	232.24
784.51	232.23
784.83	232.14
785.16	232.10
785.48	232.01
785.80	231.93
786.12	231.88
786.45	231.81
786.77	231.75
787.09	231.69
787.42	231.62
787.74	231.57
788.06	231.54
788.38	231.47
788.71	231.42
789.03	231.34
789.35	231.29
789.67	231.23
789.99	231.19
790.32	231.15
790.64	231.10
790.96	231.13
791.28	230.99
791.61	230.97
791.93	230.91
792.25	230.87
792.57	230.93
792.89	230.90
793.21	230.88
793.54	230.82
793.86	230.76
794.18	230.71
794.50	230.65
794.82	230.58
795.14	230.57
795.47	230.53
795.79	230.48
796.11	230.45
796.43	230.40
796.75	230.36
797.07	230.35
797.39	230.32
797.71	230.23
798.04	230.26
798.36	230.24
798.68	230.21
799.00	230.17
799.32	230.08
799.64	230.06
799.96	230.02
800.28	230.00
800.60	230.00
800.92	229.98
801.24	229.96
801.56	229.95
801.89	229.93
802.21	229.90
802.53	229.87
802.85	229.86
803.17	229.88
803.49	229.81
803.81	229.73
804.13	229.69
804.45	229.64
804.77	229.57
805.09	229.52
805.41	229.47
805.73	229.43
806.05	229.35
806.37	229.30
806.69	229.30
807.01	229.26
807.33	229.25
807.65	229.20
807.97	229.20
808.28	229.14
808.60	229.06
808.92	229.04
809.24	229.09
809.56	229.04
809.88	228.98
810.20	228.98
810.52	229.01
810.84	228.98
811.16	228.94
811.48	228.93
811.80	228.96
812.12	228.98
812.43	228.97
812.75	228.97
813.07	228.94
813.39	228.91
813.71	228.89
814.03	228.83
814.35	228.81
814.67	228.77
814.98	228.76
815.30	228.77
815.62	228.71
815.94	228.63
816.26	228.64
816.58	228.60
816.89	228.59
817.21	228.52
817.53	228.48
817.85	228.45
818.17	228.47
818.48	228.41
818.80	228.39
819.12	228.37
819.44	228.34
819.76	228.34
820.07	228.30
820.39	228.28
820.71	228.28
821.03	228.23
821.34	228.20
821.66	228.20
821.98	228.17
822.30	228.18
822.61	228.19
822.93	228.13
823.25	228.09
823.57	228.04
823.88	228.07
824.20	228.09
824.52	228.11
824.83	228.06
825.15	228.04
825.47	227.97
825.79	227.96
826.10	227.95
826.42	227.93
826.74	227.95
827.05	227.95
827.37	227.94
827.69	227.99
828.00	228.00
828.32	227.98
828.64	227.96
828.95	228.03
829.27	228.04
829.58	228.01
829.90	228.06
830.22	228.09
830.53	228.04
830.85	228.01
831.17	228.01
831.48	228.02
831.80	228.00
832.11	228.04
832.43	228.04
832.75	228.03
833.06	228.05
833.38	228.05
833.69	228.03
834.01	228.03
834.32	228.00
834.64	227.96
834.96	227.98
835.27	227.99
835.59	227.93
835.90	227.91
836.22	227.92
836.53	227.91
836.85	227.88
837.16	227.98
837.48	227.99
837.79	228.01
838.11	228.02
838.42	228.06
838.74	228.04
839.05	228.01
839.37	228.02
839.68	228.00
840.00	227.97
840.31	227.99
840.63	227.99
840.94	227.98
841.26	227.99
841.57	227.96
841.88	227.95
842.20	227.94
842.51	227.87
842.83	227.87
843.14	227.92
843.46	227.93
843.77	227.87
844.08	227.85
844.40	227.81
844.71	227.78
845.03	227.75
845.34	227.73
845.65	227.70
845.97	227.71
846.28	227.70
846.60	227.71
846.91	227.68
847.22	227.68
847.54	227.70
847.85	227.69
848.16	227.67
848.48	227.68
848.79	227.70
849.10	227.73
849.42	227.72
849.73	227.62
850.04	227.62
850.36	227.58
850.67	227.61
850.98	227.63
851.30	227.60
851.61	227.59
851.92	227.61
852.23	227.68
852.55	227.66
852.86	227.65
853.17	227.62
853.49	227.65
853.80	227.66
854.11	227.65
854.42	227.66
854.74	227.63
855.05	227.64
855.36	227.57
855.67	227.56
855.99	227.55
856.30	227.68
856.61	227.68
856.92	227.69
857.23	227.66
857.55	227.61
857.86	227.62
858.17	227.63
858.48	227.57
858.79	227.52
859.11	227.52
859.42	227.52
859.73	227.50
860.04	227.48
860.35	227.43
860.66	227.41
860.98	227.43
861.29	227.48
861.60	227.43
861.91	227.46
862.22	227.47
862.53	227.45
862.84	227.33
863.16	227.34
863.47	227.31
863.78	227.28
864.09	227.30
864.40	227.31
864.71	227.32
865.02	227.34
865.33	227.36
865.64	227.35
865.95	227.36
866.27	227.45
866.58	227.43
866.89	227.45
867.20	227.44
867.51	227.38
867.82	227.35
868.13	227.40
868.44	227.38
868.75	227.39
869.06	227.39
869.37	227.39
869.68	227.35
869.99	227.40
870.30	227.43
870.61	227.43
870.92	227.39
871.23	227.36
871.54	227.38
871.85	227.41
872.16	227.38
872.47	227.35
872.78	227.31
873.09	227.31
873.40	227.32
873.71	227.31
874.02	227.33
874.33	227.31
874.64	227.28
874.95	227.30
875.26	227.29
875.56	227.30
875.87	227.29
876.18	227.31
876.49	227.37
876.80	227.32
877.11	227.31
877.42	227.31
877.73	227.32
878.04	227.29
878.35	227.23
878.66	227.25
878.96	227.21
879.27	227.17
879.58	227.16
879.89	227.12
880.20	227.13
880.51	227.13
880.82	227.16
881.12	227.14
881.43	227.11
881.74	227.07
882.05	227.05
882.36	227.06
882.67	227.07
882.97	226.97
883.28	226.98
883.59	226.96
883.90	226.94
884.21	226.97
884.51	226.96
884.82	226.99
885.13	226.96
885.44	227.01
885.74	227.01
886.05	227.02
886.36	227.07
886.67	227.03
886.98	227.08
887.28	227.04
887.59	227.07
887.90	227.08
888.20	227.08
888.51	227.11
888.82	227.10
889.13	227.09
889.43	227.17
889.74	227.16
890.05	227.15
890.35	227.16
890.66	227.13
890.97	227.15
891.28	227.12
891.58	227.11
891.89	227.10
892.20	227.06
892.50	227.04
892.81	227.00
893.12	227.00
893.42	226.96
893.73	226.98
894.04	226.97
894.34	226.96
894.65	226.99
894.95	226.98
895.26	226.97
895.57	227.00
895.87	226.89
896.18	226.90
896.48	226.91
896.79	226.90
897.10	226.89
897.40	226.90
897.71	226.91
898.01	226.92
898.32	226.90
898.63	226.91
898.93	226.94
899.24	226.94
899.54	226.95
899.85	226.94
900.15	226.93
900.46	226.93
900.76	226.93
901.07	226.89
901.38	226.87
901.68	226.88
901.99	226.85
902.29	226.89
902.60	226.90
902.90	226.89
903.21	226.89
903.51	226.88
903.82	226.88
904.12	226.89
904.43	226.93
904.73	226.95
905.03	226.97
905.34	227.03
905.64	227.01
905.95	227.01
906.25	227.00
906.56	227.00
906.86	226.98
907.17	226.96
907.47	227.00
907.77	226.99
908.08	226.97
908.38	226.95
908.69	226.93
908.99	226.93
909.30	226.92
909.60	226.93
909.90	226.95
910.21	226.92
910.51	226.89
910.81	226.86
911.12	226.87
911.42	226.88
911.73	226.78
912.03	226.79
912.33	226.85
912.64	226.89
912.94	226.88
913.24	226.89
913.55	226.89
913.85	226.88
914.15	226.93
914.46	226.95
914.76	226.97
915.06	226.97
915.37	226.97
915.67	226.99
915.97	227.00
916.27	226.99
916.58	227.00
916.88	226.98
917.18	226.97
917.49	227.02
917.79	227.00
918.09	227.01
918.39	227.04
918.70	227.00
919.00	226.95
919.30	227.01
919.60	226.98
919.91	226.96
920.21	226.96
920.51	226.94
920.81	226.91
921.12	226.89
921.42	226.89
921.72	226.86
922.02	226.85
922.32	226.85
922.63	226.85
922.93	226.89
923.23	226.93
923.53	226.89
923.83	226.80
924.13	226.82
924.44	226.81
924.74	226.80
925.04	226.86
925.34	226.83
925.64	226.77
925.94	226.75
926.24	226.82
926.55	226.82
926.85	226.79
927.15	226.80
927.45	226.81
927.75	226.83
928.05	226.84
928.35	226.82
928.65	226.84
928.95	226.84
929.26	226.78
929.56	226.77
929.86	226.84
930.16	226.85
930.46	226.84
930.76	226.87
931.06	226.82
931.36	226.76
931.66	226.82
931.96	226.85
932.26	226.88
932.56	226.84
932.86	226.87
933.16	226.89
933.46	226.90
933.76	226.91
934.06	226.90
934.36	226.97
934.66	226.95
934.96	226.91
935.26	226.92
935.56	226.94
935.86	226.93
936.16	226.88
936.46	226.86
936.76	226.87
937.06	226.86
937.36	226.88
937.66	226.90
937.96	226.90
938.26	226.90
938.56	226.92
938.86	226.92
939.16	226.88
939.46	226.90
939.76	226.90
940.06	226.90
940.35	226.88
940.65	226.82
940.95	226.87
941.25	226.88
941.55	226.86
941.85	226.87
942.15	226.88
942.45	226.93
942.75	226.94
943.04	226.93
943.34	226.94
943.64	226.93
943.94	226.90
944.24	226.87
944.54	226.87
944.84	226.87
945.13	226.85
945.43	226.87
945.73	226.87
946.03	226.87
946.33	226.84
946.62	226.86
946.92	226.85
947.22	226.85
947.52	226.87
947.82	226.91
948.11	226.89
948.41	226.86
948.71	226.82
949.01	226.81
949.31	226.82
949.60	226.84
949.90	226.82
950.20	226.85
950.50	226.87
950.79	226.84
951.09	226.85
951.39	226.86
951.69	226.83
951.98	226.82
952.28	226.81
952.58	226.84
952.87	226.82
953.17	226.83
953.47	226.83
953.76	226.83
954.06	226.78
954.36	226.78
954.66	226.81
954.95	226.84
955.25	226.84
955.55	226.84
955.84	226.80
956.14	226.83
956.44	226.83
956.73	226.82
957.03	226.79
957.32	226.80
957.62	226.80
957.92	226.80
958.21	226.80
958.51	226.91
958.81	226.94
959.10	226.93
959.40	226.94
959.69	226.92
959.99	226.92
960.29	226.94
960.58	226.91
960.88	226.92
961.17	226.91
961.47	226.95
961.76	226.92
962.06	226.91
962.36	226.88
962.65	226.89
962.95	226.87
963.24	226.89
963.54	226.87
963.83	226.85
964.13	226.85
964.42	226.81
964.72	226.74
965.01	226.70
965.31	226.69
965.60	226.68
965.90	226.73
966.19	226.69
966.49	226.69
966.78	226.69
967.08	226.70
967.37	226.70
967.67	226.67
967.96	226.71
968.26	226.71
968.55	226.73
968.85	226.70
969.14	226.71
969.43	226.73
969.73	226.72
970.02	226.73
970.32	226.75
970.61	226.75
970.91	226.71
971.20	226.70
971.49	226.71
971.79	226.68
972.08	226.60
972.38	226.66
972.67	226.67
972.96	226.70
973.26	226.66
973.55	226.71
973.85	226.71
974.14	226.71
974.43	226.72
974.73	226.71
975.02	226.70
975.31	226.71
975.61	226.70
975.90	226.72
976.19	226.71
976.49	226.71
976.78	226.76
977.07	226.76
977.37	226.77
977.66	226.81
977.95	226.83
978.24	226.90
978.54	226.91
978.83	226.85
979.12	226.85
979.42	226.87
979.71	226.83
980.00	226.84
980.29	226.84
980.59	226.86
980.88	226.90
981.17	226.93
981.46	226.90
981.76	226.89
982.05	226.89
982.34	226.87
982.63	226.90
982.93	226.90
983.22	226.91
983.51	226.95
983.80	226.94
984.09	226.96
984.39	226.92
984.68	226.91
984.97	226.95
985.26	226.96
985.55	226.98
985.85	226.97
986.14	226.98
986.43	227.01
986.72	226.98
987.01	226.96
987.30	226.97
987.59	226.95
987.89	226.98
988.18	226.97
988.47	226.98
988.76	226.95
989.05	226.91
989.34	226.89
989.63	226.85
989.92	226.84
990.22	226.81
990.51	226.82
990.80	226.81
991.09	226.83
991.38	226.83
991.67	226.76
991.96	226.79
992.25	226.78
992.54	226.72
992.83	226.71
993.12	226.71
993.41	226.70
993.70	226.77
993.99	226.77
994.28	226.78
994.58	226.79
994.87	226.80
995.16	226.82
995.45	226.84
995.74	226.87
996.03	226.88
996.32	226.92
996.61	226.92
996.90	226.93
997.19	226.93
997.48	226.94
997.77	226.95
998.06	226.93
998.34	226.92
998.63	226.92
998.92	226.92
999.21	226.91
999.50	226.91
999.79	226.85
1000.08	226.85
1000.37	226.83
1000.66	226.79
1000.95	226.79
1001.24	226.77
1001.53	226.74
1001.82	226.68
1002.11	226.65
1002.40	226.66
1002.68	226.67
1002.97	226.72
1003.26	226.64
1003.55	226.59
1003.84	226.61
1004.13	226.62
1004.42	226.58
1004.71	226.58
1004.99	226.60
1005.28	226.59
1005.57	226.53
1005.86	226.54
1006.15	226.52
1006.44	226.52
1006.72	226.56
1007.01	226.49
1007.30	226.50
1007.59	226.47
1007.88	226.50
1008.17	226.49
1008.45	226.46
1008.74	226.41
1009.03	226.36
1009.32	226.37
1009.60	226.37
1009.89	226.35
1010.18	226.34
1010.47	226.37
1010.76	226.35
1011.04	226.32
1011.33	226.35
1011.62	226.39
1011.91	226.37
1012.19	226.35
1012.48	226.36
1012.77	226.37
1013.05	226.45
1013.34	226.43
1013.63	226.46
1013.92	226.46
1014.20	226.47
1014.49	226.46
1014.78	226.48
1015.06	226.46
1015.35	226.49
1015.64	226.48
1015.92	226.48
1016.21	226.44
1016.50	226.45
1016.78	226.51
1017.07	226.54
1017.36	226.50
1017.64	226.50
1017.93	226.53
1018.22	226.53
1018.50	226.54
1018.79	226.54
1019.08	226.50
1019.36	226.51
1019.65	226.51
1019.93	226.55
1020.22	226.56
1020.51	226.60
1020.79	226.58
1021.08	226.32
1021.36	226.75
1021.65	226.85
1021.94	226.56
1022.22	226.38
1022.51	226.44
1022.79	227.26
1023.08	226.67
1023.36	227.51
1023.65	226.07
>>>>>End Processed Spectral Data<<<<<
