SpectraSuite Data File
++++++++++++++++++++++++++++++++++++
Date: Fri Feb 01 16:18:23 EST 2013
User: group
Dark Spectrum Present: No
Reference Spectrum Present: No
Number of Sampled Component Spectra: 1
Spectrometers: USB2E7196
Integration Time (usec): 35000 (USB2E7196)
Spectra Averaged: 100 (USB2E7196)
Boxcar Smoothing: 10 (USB2E7196)
Correct for Electrical Dark: No (USB2E7196)
Strobe/Lamp Enabled: No (USB2E7196)
Correct for Detector Non-linearity: No (USB2E7196)
Correct for Stray Light: No (USB2E7196)
Number of Pixels in Processed Spectrum: 2048
>>>>>Begin Processed Spectral Data<<<<<
339.09	0.00
339.48	214.47
339.86	215.73
340.24	217.45
340.63	218.27
341.01	221.13
341.39	220.71
341.78	222.39
342.16	223.80
342.54	224.23
342.93	212.59
343.31	223.33
343.69	223.85
344.07	224.31
344.46	224.74
344.84	225.11
345.22	225.35
345.60	225.62
345.99	225.81
346.37	225.95
346.75	226.01
347.13	226.07
347.52	226.11
347.90	226.13
348.28	226.15
348.66	226.15
349.05	226.12
349.43	226.17
349.81	226.21
350.19	226.26
350.57	226.29
350.96	226.34
351.34	226.44
351.72	226.52
352.10	226.59
352.48	226.62
352.87	226.69
353.25	226.75
353.63	226.77
354.01	226.83
354.39	226.87
354.77	226.97
355.15	227.06
355.54	227.10
355.92	227.16
356.30	227.20
356.68	227.35
357.06	227.44
357.44	227.50
357.82	227.53
358.20	227.56
358.58	227.61
358.97	227.69
359.35	227.72
359.73	227.79
360.11	227.84
360.49	227.89
360.87	227.89
361.25	227.93
361.63	228.00
362.01	228.04
362.39	228.05
362.77	228.08
363.15	228.09
363.53	228.12
363.91	228.14
364.29	228.17
364.67	228.08
365.05	228.08
365.43	228.05
365.81	228.09
366.19	228.15
366.57	228.20
366.95	228.19
367.33	228.17
367.71	228.15
368.09	228.15
368.47	228.14
368.85	228.13
369.23	228.15
369.61	228.07
369.99	228.06
370.37	228.05
370.75	228.06
371.13	227.99
371.51	227.97
371.89	227.93
372.27	227.89
372.65	227.85
373.03	227.77
373.41	227.74
373.78	227.65
374.16	227.55
374.54	227.46
374.92	227.39
375.30	227.35
375.68	227.26
376.06	227.20
376.44	227.14
376.82	227.10
377.19	227.00
377.57	226.97
377.95	226.88
378.33	226.84
378.71	226.70
379.09	226.66
379.47	226.60
379.84	226.51
380.22	226.43
380.60	226.37
380.98	226.32
381.36	226.25
381.73	226.21
382.11	226.15
382.49	226.09
382.87	226.01
383.25	225.91
383.62	225.96
384.00	225.86
384.38	225.81
384.76	225.77
385.13	225.76
385.51	225.69
385.89	225.63
386.27	225.59
386.64	225.58
387.02	225.53
387.40	225.50
387.78	225.50
388.15	225.48
388.53	225.43
388.91	225.42
389.29	225.41
389.66	225.40
390.04	225.38
390.42	225.38
390.79	225.39
391.17	225.42
391.55	225.32
391.92	225.34
392.30	225.34
392.68	225.29
393.05	225.30
393.43	225.34
393.81	225.37
394.18	225.36
394.56	225.37
394.94	225.44
395.31	225.45
395.69	225.49
396.06	225.56
396.44	225.60
396.82	225.62
397.19	225.67
397.57	225.71
397.95	225.76
398.32	225.79
398.70	225.83
399.07	225.90
399.45	225.94
399.82	225.95
400.20	226.02
400.58	226.13
400.95	226.16
401.33	226.24
401.70	226.38
402.08	226.49
402.45	226.59
402.83	226.69
403.20	226.79
403.58	226.86
403.95	226.93
404.33	227.07
404.71	227.18
405.08	227.39
405.46	227.49
405.83	227.67
406.21	227.81
406.58	228.00
406.96	228.15
407.33	228.35
407.70	228.59
408.08	228.83
408.45	229.03
408.83	229.28
409.20	229.51
409.58	229.70
409.95	229.93
410.33	230.21
410.70	230.42
411.08	230.73
411.45	231.06
411.82	231.39
412.20	231.75
412.57	232.17
412.95	232.44
413.32	232.88
413.69	233.24
414.07	233.69
414.44	234.14
414.82	234.60
415.19	235.14
415.56	235.67
415.94	236.22
416.31	236.85
416.68	237.48
417.06	238.19
417.43	238.86
417.81	239.64
418.18	240.41
418.55	241.29
418.93	242.13
419.30	243.04
419.67	243.97
420.04	244.94
420.42	245.97
420.79	247.18
421.16	248.31
421.54	249.53
421.91	250.71
422.28	251.94
422.66	253.27
423.03	254.55
423.40	255.89
423.77	257.31
424.15	258.72
424.52	260.19
424.89	261.76
425.26	263.29
425.64	264.72
426.01	266.31
426.38	267.95
426.75	269.65
427.13	271.36
427.50	273.17
427.87	275.02
428.24	276.86
428.61	278.58
428.99	280.51
429.36	282.58
429.73	284.66
430.10	286.67
430.47	288.72
430.85	290.83
431.22	293.05
431.59	295.42
431.96	297.67
432.33	300.12
432.70	302.46
433.08	305.26
433.45	307.89
433.82	310.52
434.19	313.40
434.56	316.17
434.93	318.82
435.30	321.43
435.68	324.32
436.05	327.13
436.42	329.93
436.79	332.43
437.16	335.16
437.53	338.04
437.90	340.87
438.27	343.64
438.64	346.51
439.01	349.16
439.38	351.39
439.75	353.56
440.13	356.09
440.50	358.46
440.87	360.33
441.24	362.27
441.61	364.40
441.98	365.89
442.35	367.74
442.72	369.59
443.09	371.38
443.46	372.36
443.83	372.94
444.20	373.46
444.57	374.33
444.94	374.61
445.31	374.90
445.68	375.30
446.05	375.34
446.42	374.94
446.79	374.47
447.16	374.06
447.53	373.72
447.90	372.57
448.27	371.42
448.64	369.83
449.01	368.66
449.37	366.70
449.74	364.80
450.11	362.52
450.48	360.06
450.85	357.55
451.22	355.42
451.59	353.40
451.96	351.42
452.33	348.80
452.70	346.43
453.07	343.65
453.43	340.74
453.80	338.00
454.17	335.36
454.54	332.82
454.91	330.08
455.28	327.44
455.65	324.97
456.02	322.54
456.38	320.39
456.75	317.77
457.12	315.54
457.49	313.31
457.86	311.16
458.23	309.30
458.59	307.27
458.96	305.21
459.33	303.37
459.70	301.53
460.07	300.01
460.43	298.29
460.80	296.65
461.17	295.20
461.54	293.69
461.91	292.27
462.27	290.87
462.64	289.61
463.01	288.23
463.38	286.90
463.74	285.53
464.11	284.37
464.48	283.34
464.85	282.21
465.21	281.35
465.58	280.43
465.95	279.31
466.32	278.45
466.68	277.57
467.05	276.63
467.42	275.77
467.78	274.85
468.15	274.00
468.52	273.32
468.88	272.45
469.25	271.68
469.62	271.04
469.98	270.37
470.35	269.72
470.72	269.13
471.08	268.49
471.45	267.93
471.82	267.39
472.18	266.81
472.55	266.41
472.92	265.84
473.28	265.37
473.65	264.95
474.02	264.44
474.38	264.04
474.75	263.72
475.11	263.34
475.48	263.08
475.85	262.85
476.21	262.65
476.58	262.49
476.94	262.36
477.31	262.18
477.67	262.03
478.04	261.97
478.41	261.93
478.77	262.00
479.14	261.97
479.50	261.99
479.87	262.08
480.23	262.16
480.60	262.28
480.96	262.39
481.33	262.63
481.69	262.87
482.06	263.05
482.42	263.24
482.79	263.54
483.15	263.85
483.52	264.22
483.88	264.63
484.25	265.01
484.61	265.46
484.98	265.96
485.34	266.52
485.71	267.07
486.07	267.63
486.44	268.17
486.80	268.86
487.17	269.64
487.53	270.44
487.90	271.28
488.26	272.23
488.62	273.23
488.99	274.15
489.35	275.18
489.72	276.35
490.08	277.60
490.44	278.81
490.81	280.20
491.17	281.57
491.54	283.04
491.90	284.63
492.26	286.25
492.63	287.95
492.99	289.73
493.36	291.63
493.72	293.73
494.08	295.86
494.45	298.13
494.81	300.48
495.17	302.92
495.54	305.50
495.90	308.18
496.26	310.96
496.63	313.94
496.99	317.05
497.35	320.33
497.72	323.75
498.08	327.31
498.44	330.98
498.80	334.88
499.17	338.88
499.53	343.01
499.89	347.42
500.26	351.96
500.62	356.63
500.98	361.64
501.34	366.76
501.71	372.09
502.07	377.55
502.43	383.19
502.79	388.99
503.16	395.08
503.52	401.35
503.88	407.85
504.24	414.51
504.60	421.44
504.97	428.54
505.33	435.84
505.69	443.54
506.05	451.31
506.41	459.20
506.78	467.39
507.14	475.87
507.50	484.61
507.86	493.67
508.22	502.89
508.59	512.10
508.95	521.65
509.31	531.55
509.67	541.67
510.03	551.91
510.39	562.42
510.75	573.14
511.12	584.07
511.48	595.33
511.84	606.74
512.20	618.30
512.56	630.29
512.92	642.44
513.28	654.79
513.64	667.24
514.00	679.93
514.37	692.90
514.73	706.00
515.09	719.01
515.45	732.30
515.81	745.95
516.17	759.97
516.53	774.10
516.89	788.17
517.25	802.35
517.61	816.86
517.97	831.38
518.33	845.85
518.69	860.67
519.05	875.68
519.41	890.93
519.77	906.39
520.13	921.81
520.49	937.22
520.85	952.60
521.21	968.32
521.57	984.58
521.93	1000.26
522.29	1016.58
522.65	1032.80
523.01	1048.94
523.37	1064.86
523.73	1080.97
524.09	1097.04
524.45	1113.38
524.81	1129.96
525.17	1146.68
525.53	1163.57
525.89	1180.44
526.25	1197.27
526.61	1213.59
526.97	1230.28
527.33	1246.69
527.68	1263.21
528.04	1279.71
528.40	1296.20
528.76	1313.26
529.12	1329.83
529.48	1346.57
529.84	1362.57
530.20	1379.11
530.56	1396.09
530.91	1413.52
531.27	1430.20
531.63	1446.66
531.99	1463.09
532.35	1479.03
532.71	1494.81
533.07	1510.96
533.42	1526.88
533.78	1542.95
534.14	1559.17
534.50	1574.48
534.86	1590.35
535.21	1605.57
535.57	1621.38
535.93	1636.95
536.29	1651.65
536.65	1666.62
537.00	1681.35
537.36	1696.58
537.72	1711.09
538.08	1725.44
538.44	1739.12
538.79	1752.88
539.15	1766.48
539.51	1780.26
539.87	1794.59
540.22	1808.27
540.58	1821.90
540.94	1835.10
541.29	1847.83
541.65	1860.48
542.01	1873.56
542.37	1885.87
542.72	1898.22
543.08	1909.94
543.44	1922.15
543.79	1933.48
544.15	1944.45
544.51	1956.14
544.87	1967.05
545.22	1977.77
545.58	1988.03
545.94	1997.70
546.29	2007.54
546.65	2017.41
547.01	2026.62
547.36	2035.22
547.72	2043.76
548.07	2051.67
548.43	2059.74
548.79	2067.75
549.14	2075.19
549.50	2082.46
549.86	2090.01
550.21	2097.35
550.57	2104.56
550.92	2111.21
551.28	2118.07
551.64	2125.09
551.99	2131.49
552.35	2137.57
552.70	2143.80
553.06	2149.66
553.41	2155.94
553.77	2161.89
554.13	2167.80
554.48	2173.90
554.84	2179.40
555.19	2184.68
555.55	2189.88
555.90	2194.27
556.26	2199.04
556.61	2203.91
556.97	2208.27
557.32	2212.48
557.68	2216.43
558.03	2220.71
558.39	2224.30
558.74	2228.92
559.10	2232.75
559.45	2236.28
559.81	2240.52
560.16	2244.34
560.52	2247.60
560.87	2251.12
561.23	2253.83
561.58	2256.83
561.94	2259.32
562.29	2261.61
562.64	2264.33
563.00	2266.87
563.35	2270.46
563.71	2273.64
564.06	2276.81
564.42	2279.64
564.77	2282.03
565.12	2284.43
565.48	2286.29
565.83	2288.21
566.19	2289.53
566.54	2290.44
566.89	2291.68
567.25	2292.40
567.60	2293.66
567.96	2295.48
568.31	2296.25
568.66	2297.41
569.02	2298.01
569.37	2298.41
569.72	2299.35
570.08	2299.37
570.43	2299.55
570.78	2299.09
571.14	2297.67
571.49	2296.27
571.84	2295.95
572.20	2295.13
572.55	2294.12
572.90	2292.69
573.26	2291.33
573.61	2289.70
573.96	2288.02
574.31	2285.16
574.67	2282.24
575.02	2278.72
575.37	2275.12
575.72	2271.51
576.08	2268.35
576.43	2265.02
576.78	2261.29
577.13	2258.10
577.49	2255.09
577.84	2251.60
578.19	2247.95
578.54	2244.34
578.90	2240.07
579.25	2234.61
579.60	2229.53
579.95	2224.52
580.30	2219.53
580.66	2214.47
581.01	2209.67
581.36	2204.80
581.71	2200.68
582.06	2196.17
582.42	2191.77
582.77	2186.78
583.12	2182.14
583.47	2177.43
583.82	2172.52
584.17	2167.46
584.53	2162.03
584.88	2156.51
585.23	2150.74
585.58	2145.15
585.93	2139.73
586.28	2135.16
586.63	2130.22
586.98	2125.24
587.34	2120.54
587.69	2115.64
588.04	2110.40
588.39	2104.69
588.74	2098.39
589.09	2092.18
589.44	2085.45
589.79	2079.51
590.14	2073.90
590.49	2067.38
590.84	2061.06
591.19	2054.99
591.54	2048.49
591.89	2041.24
592.25	2034.44
592.60	2027.19
592.95	2019.75
593.30	2012.39
593.65	2004.78
594.00	1997.69
594.35	1990.38
594.70	1982.43
595.05	1975.21
595.40	1968.01
595.75	1960.48
596.10	1954.27
596.45	1947.79
596.80	1941.68
597.15	1935.10
597.50	1928.12
597.85	1921.80
598.19	1915.11
598.54	1908.07
598.89	1901.53
599.24	1895.56
599.59	1888.88
599.94	1882.78
600.29	1876.50
600.64	1869.95
600.99	1862.56
601.34	1855.76
601.69	1848.88
602.04	1842.04
602.39	1834.68
602.74	1827.84
603.08	1821.20
603.43	1814.43
603.78	1807.05
604.13	1799.86
604.48	1792.50
604.83	1785.45
605.18	1778.33
605.53	1770.29
605.87	1762.38
606.22	1755.09
606.57	1747.11
606.92	1739.89
607.27	1732.71
607.62	1725.71
607.96	1718.40
608.31	1711.71
608.66	1704.17
609.01	1696.65
609.36	1689.10
609.70	1681.20
610.05	1673.19
610.40	1665.46
610.75	1657.08
611.10	1649.36
611.44	1640.95
611.79	1632.89
612.14	1624.36
612.49	1615.37
612.83	1607.12
613.18	1599.05
613.53	1590.94
613.88	1582.46
614.22	1574.11
614.57	1565.43
614.92	1557.46
615.27	1549.97
615.61	1541.68
615.96	1533.47
616.31	1525.79
616.65	1518.36
617.00	1510.85
617.35	1503.08
617.70	1494.68
618.04	1486.23
618.39	1478.03
618.74	1470.49
619.08	1462.22
619.43	1454.65
619.78	1447.71
620.12	1440.37
620.47	1432.79
620.82	1424.57
621.16	1417.14
621.51	1409.50
621.85	1401.86
622.20	1393.30
622.55	1384.90
622.89	1377.10
623.24	1369.51
623.59	1362.09
623.93	1354.52
624.28	1347.31
624.62	1339.72
624.97	1332.61
625.32	1325.76
625.66	1318.75
626.01	1311.51
626.35	1304.03
626.70	1296.21
627.04	1288.34
627.39	1280.70
627.73	1273.22
628.08	1266.29
628.43	1258.96
628.77	1251.54
629.12	1244.01
629.46	1236.89
629.81	1229.38
630.15	1222.12
630.50	1214.78
630.84	1206.53
631.19	1198.65
631.53	1190.92
631.88	1183.51
632.22	1175.84
632.57	1168.57
632.91	1161.04
633.26	1153.57
633.60	1146.24
633.95	1139.13
634.29	1132.19
634.64	1125.38
634.98	1118.03
635.32	1110.89
635.67	1104.23
636.01	1097.58
636.36	1090.87
636.70	1084.25
637.05	1077.74
637.39	1071.24
637.73	1064.73
638.08	1058.89
638.42	1052.93
638.77	1046.53
639.11	1039.86
639.45	1033.42
639.80	1026.71
640.14	1020.21
640.49	1013.73
640.83	1007.37
641.17	1001.03
641.52	994.58
641.86	988.11
642.20	982.23
642.55	975.93
642.89	969.47
643.23	962.97
643.58	957.15
643.92	950.89
644.26	944.83
644.61	938.84
644.95	932.79
645.29	926.17
645.64	919.29
645.98	913.01
646.32	907.17
646.66	901.15
647.01	895.46
647.35	889.69
647.69	883.79
648.04	878.24
648.38	872.42
648.72	866.53
649.06	860.51
649.41	854.62
649.75	848.53
650.09	842.62
650.43	836.80
650.78	830.58
651.12	824.68
651.46	818.93
651.80	813.18
652.14	807.68
652.49	802.33
652.83	797.24
653.17	791.53
653.51	785.78
653.85	780.36
654.20	774.63
654.54	768.64
654.88	762.86
655.22	757.03
655.56	751.36
655.90	745.90
656.25	740.66
656.59	735.23
656.93	730.20
657.27	725.01
657.61	719.58
657.95	714.56
658.29	709.42
658.64	704.25
658.98	698.87
659.32	693.51
659.66	688.21
660.00	682.87
660.34	677.90
660.68	673.00
661.02	668.01
661.36	663.33
661.70	658.82
662.05	654.47
662.39	650.07
662.73	645.67
663.07	641.28
663.41	636.82
663.75	632.35
664.09	627.92
664.43	623.51
664.77	619.36
665.11	615.02
665.45	610.90
665.79	606.75
666.13	602.61
666.47	598.48
666.81	594.36
667.15	590.21
667.49	586.26
667.83	582.47
668.17	578.51
668.51	574.38
668.85	570.36
669.19	566.56
669.53	562.74
669.87	558.83
670.21	555.07
670.55	551.40
670.89	548.00
671.23	544.49
671.57	541.01
671.91	537.45
672.25	534.01
672.58	530.45
672.92	527.05
673.26	523.94
673.60	520.70
673.94	517.58
674.28	514.73
674.62	511.79
674.96	508.62
675.30	505.69
675.64	502.76
675.97	499.98
676.31	497.02
676.65	494.06
676.99	491.36
677.33	488.55
677.67	485.72
678.01	482.70
678.34	479.68
678.68	476.77
679.02	474.04
679.36	471.25
679.70	468.62
680.04	465.83
680.37	462.92
680.71	460.19
681.05	457.56
681.39	454.81
681.73	452.15
682.06	449.64
682.40	447.08
682.74	444.61
683.08	442.05
683.42	439.49
683.75	436.96
684.09	434.39
684.43	431.85
684.77	429.38
685.10	426.98
685.44	424.66
685.78	422.39
686.12	420.08
686.45	417.78
686.79	415.44
687.13	413.23
687.46	411.04
687.80	408.88
688.14	406.69
688.48	404.63
688.81	402.40
689.15	400.25
689.49	398.11
689.82	396.00
690.16	393.92
690.50	391.98
690.83	390.05
691.17	388.07
691.51	386.20
691.84	384.34
692.18	382.46
692.52	380.51
692.85	378.54
693.19	376.65
693.52	374.79
693.86	372.98
694.20	371.25
694.53	369.47
694.87	367.58
695.21	365.78
695.54	363.95
695.88	362.22
696.21	360.49
696.55	358.76
696.88	357.08
697.22	355.44
697.56	353.82
697.89	352.16
698.23	350.52
698.56	348.90
698.90	347.33
699.23	345.65
699.57	344.13
699.90	342.60
700.24	341.06
700.58	339.53
700.91	338.03
701.25	336.54
701.58	335.14
701.92	333.80
702.25	332.40
702.59	331.02
702.92	329.68
703.26	328.33
703.59	327.07
703.93	325.86
704.26	324.59
704.60	323.29
704.93	322.05
705.26	320.81
705.60	319.63
705.93	318.45
706.27	317.43
706.60	316.33
706.94	315.26
707.27	314.09
707.61	313.06
707.94	312.03
708.27	310.98
708.61	309.90
708.94	308.86
709.28	307.89
709.61	306.91
709.94	306.02
710.28	305.06
710.61	304.10
710.95	303.00
711.28	302.07
711.61	301.11
711.95	300.15
712.28	299.22
712.61	298.25
712.95	297.30
713.28	296.40
713.61	295.51
713.95	294.62
714.28	293.83
714.61	292.92
714.95	292.09
715.28	291.17
715.61	290.29
715.95	289.40
716.28	288.53
716.61	287.70
716.95	286.80
717.28	286.00
717.61	285.23
717.94	284.53
718.28	283.74
718.61	283.05
718.94	282.38
719.27	281.72
719.61	281.07
719.94	280.44
720.27	279.75
720.60	279.11
720.94	278.50
721.27	277.90
721.60	277.34
721.93	276.74
722.27	276.22
722.60	275.67
722.93	275.16
723.26	274.62
723.59	274.11
723.93	273.57
724.26	273.06
724.59	272.52
724.92	272.00
725.25	271.49
725.59	270.98
725.92	270.50
726.25	270.00
726.58	269.48
726.91	268.98
727.24	268.47
727.57	267.98
727.91	267.46
728.24	266.98
728.57	266.49
728.90	266.02
729.23	265.51
729.56	265.07
729.89	264.61
730.22	264.17
730.55	263.67
730.89	263.20
731.22	262.76
731.55	262.32
731.88	261.88
732.21	261.45
732.54	261.02
732.87	260.57
733.20	260.16
733.53	259.79
733.86	259.39
734.19	259.00
734.52	258.61
734.85	258.32
735.18	257.89
735.51	257.54
735.84	257.17
736.17	256.86
736.50	256.44
736.83	256.21
737.16	255.86
737.49	255.54
737.82	255.21
738.15	254.88
738.48	254.53
738.81	254.16
739.14	253.81
739.47	253.47
739.80	253.18
740.13	252.87
740.46	252.52
740.79	252.19
741.12	251.86
741.45	251.53
741.78	251.16
742.11	250.89
742.44	250.56
742.77	250.28
743.10	249.95
743.43	249.68
743.75	249.30
744.08	249.15
744.41	248.86
744.74	248.60
745.07	248.30
745.40	248.10
745.73	247.85
746.06	247.61
746.39	247.35
746.71	247.05
747.04	246.76
747.37	246.54
747.70	246.26
748.03	246.06
748.36	245.86
748.68	245.62
749.01	245.34
749.34	245.12
749.67	244.89
750.00	244.67
750.33	244.49
750.65	244.26
750.98	243.92
751.31	243.73
751.64	243.50
751.97	243.34
752.29	243.04
752.62	242.80
752.95	242.61
753.28	242.40
753.60	242.18
753.93	242.04
754.26	241.86
754.59	241.69
754.91	241.47
755.24	241.25
755.57	241.06
755.90	240.93
756.22	240.71
756.55	240.49
756.88	240.32
757.20	240.09
757.53	239.88
757.86	239.69
758.19	239.52
758.51	239.37
758.84	239.17
759.17	239.04
759.49	238.91
759.82	238.79
760.15	238.63
760.47	238.50
760.80	238.31
761.13	238.14
761.45	237.97
761.78	237.83
762.11	237.67
762.43	237.55
762.76	237.38
763.08	237.29
763.41	237.18
763.74	237.05
764.06	236.92
764.39	236.79
764.71	236.68
765.04	236.56
765.37	236.44
765.69	236.29
766.02	236.15
766.34	236.01
766.67	235.85
767.00	235.78
767.32	235.74
767.65	235.69
767.97	235.61
768.30	235.53
768.62	235.40
768.95	235.33
769.27	235.21
769.60	235.14
769.92	234.99
770.25	234.87
770.57	234.74
770.90	234.62
771.22	234.52
771.55	234.45
771.87	234.37
772.20	234.29
772.52	234.33
772.85	234.37
773.17	234.31
773.50	234.21
773.82	234.08
774.15	233.91
774.47	233.77
774.80	233.66
775.12	233.58
775.45	233.51
775.77	233.40
776.09	233.34
776.42	233.23
776.74	233.19
777.07	233.08
777.39	233.01
777.72	232.92
778.04	232.90
778.36	232.81
778.69	232.72
779.01	232.63
779.33	232.46
779.66	232.27
779.98	232.19
780.31	232.10
780.63	232.09
780.95	232.05
781.28	231.96
781.60	231.90
781.92	231.82
782.25	231.76
782.57	231.69
782.89	231.58
783.22	231.49
783.54	231.40
783.86	231.36
784.19	231.29
784.51	231.28
784.83	231.17
785.16	231.11
785.48	231.08
785.80	231.02
786.12	230.96
786.45	230.91
786.77	230.86
787.09	230.82
787.42	230.72
787.74	230.65
788.06	230.61
788.38	230.53
788.71	230.48
789.03	230.44
789.35	230.41
789.67	230.38
789.99	230.35
790.32	230.32
790.64	230.28
790.96	230.29
791.28	230.19
791.61	230.11
791.93	230.07
792.25	230.00
792.57	230.00
792.89	229.91
793.21	229.85
793.54	229.78
793.86	229.72
794.18	229.69
794.50	229.67
794.82	229.61
795.14	229.59
795.47	229.58
795.79	229.57
796.11	229.52
796.43	229.48
796.75	229.42
797.07	229.38
797.39	229.33
797.71	229.26
798.04	229.25
798.36	229.27
798.68	229.21
799.00	229.21
799.32	229.13
799.64	229.13
799.96	229.13
800.28	229.15
800.60	229.15
800.92	229.12
801.24	229.07
801.56	229.06
801.89	229.01
802.21	228.95
802.53	228.85
802.85	228.84
803.17	228.88
803.49	228.87
803.81	228.85
804.13	228.84
804.45	228.78
804.77	228.73
805.09	228.70
805.41	228.68
805.73	228.64
806.05	228.62
806.37	228.60
806.69	228.54
807.01	228.51
807.33	228.51
807.65	228.46
807.97	228.47
808.28	228.43
808.60	228.42
808.92	228.40
809.24	228.47
809.56	228.43
809.88	228.37
810.20	228.32
810.52	228.33
810.84	228.28
811.16	228.28
811.48	228.28
811.80	228.30
812.12	228.25
812.43	228.21
812.75	228.21
813.07	228.17
813.39	228.17
813.71	228.13
814.03	228.07
814.35	228.02
814.67	227.96
814.98	227.94
815.30	227.93
815.62	227.87
815.94	227.77
816.26	227.78
816.58	227.73
816.89	227.73
817.21	227.66
817.53	227.64
817.85	227.62
818.17	227.60
818.48	227.53
818.80	227.59
819.12	227.52
819.44	227.49
819.76	227.48
820.07	227.46
820.39	227.44
820.71	227.44
821.03	227.43
821.34	227.42
821.66	227.47
821.98	227.46
822.30	227.47
822.61	227.52
822.93	227.47
823.25	227.45
823.57	227.44
823.88	227.44
824.20	227.46
824.52	227.47
824.83	227.44
825.15	227.42
825.47	227.39
825.79	227.41
826.10	227.35
826.42	227.33
826.74	227.31
827.05	227.29
827.37	227.26
827.69	227.23
828.00	227.23
828.32	227.13
828.64	227.09
828.95	227.16
829.27	227.11
829.58	227.08
829.90	227.10
830.22	227.11
830.53	227.06
830.85	227.00
831.17	226.97
831.48	226.96
831.80	226.94
832.11	226.91
832.43	226.90
832.75	226.87
833.06	226.93
833.38	226.93
833.69	226.92
834.01	226.94
834.32	226.94
834.64	226.91
834.96	226.94
835.27	226.94
835.59	226.87
835.90	226.85
836.22	226.85
836.53	226.79
836.85	226.75
837.16	226.85
837.48	226.87
837.79	226.86
838.11	226.86
838.42	226.88
838.74	226.88
839.05	226.88
839.37	226.94
839.68	226.86
840.00	226.82
840.31	226.83
840.63	226.78
840.94	226.76
841.26	226.76
841.57	226.78
841.88	226.78
842.20	226.77
842.51	226.77
842.83	226.76
843.14	226.84
843.46	226.85
843.77	226.80
844.08	226.81
844.40	226.81
844.71	226.79
845.03	226.78
845.34	226.80
845.65	226.79
845.97	226.72
846.28	226.72
846.60	226.73
846.91	226.71
847.22	226.70
847.54	226.76
847.85	226.75
848.16	226.73
848.48	226.71
848.79	226.72
849.10	226.70
849.42	226.68
849.73	226.65
850.04	226.63
850.36	226.60
850.67	226.61
850.98	226.58
851.30	226.58
851.61	226.56
851.92	226.53
852.23	226.55
852.55	226.58
852.86	226.61
853.17	226.61
853.49	226.64
853.80	226.66
854.11	226.63
854.42	226.67
854.74	226.63
855.05	226.62
855.36	226.60
855.67	226.61
855.99	226.63
856.30	226.72
856.61	226.70
856.92	226.71
857.23	226.67
857.55	226.68
857.86	226.66
858.17	226.68
858.48	226.64
858.79	226.63
859.11	226.63
859.42	226.63
859.73	226.61
860.04	226.57
860.35	226.55
860.66	226.52
860.98	226.46
861.29	226.47
861.60	226.45
861.91	226.44
862.22	226.46
862.53	226.41
862.84	226.29
863.16	226.33
863.47	226.30
863.78	226.31
864.09	226.30
864.40	226.33
864.71	226.33
865.02	226.36
865.33	226.38
865.64	226.35
865.95	226.33
866.27	226.40
866.58	226.45
866.89	226.43
867.20	226.43
867.51	226.44
867.82	226.43
868.13	226.47
868.44	226.45
868.75	226.47
869.06	226.49
869.37	226.52
869.68	226.53
869.99	226.50
870.30	226.53
870.61	226.51
870.92	226.46
871.23	226.47
871.54	226.50
871.85	226.49
872.16	226.52
872.47	226.51
872.78	226.43
873.09	226.43
873.40	226.45
873.71	226.48
874.02	226.49
874.33	226.49
874.64	226.49
874.95	226.51
875.26	226.46
875.56	226.44
875.87	226.43
876.18	226.39
876.49	226.51
876.80	226.48
877.11	226.47
877.42	226.48
877.73	226.49
878.04	226.44
878.35	226.48
878.66	226.47
878.96	226.49
879.27	226.50
879.58	226.49
879.89	226.50
880.20	226.52
880.51	226.53
880.82	226.53
881.12	226.51
881.43	226.47
881.74	226.45
882.05	226.44
882.36	226.45
882.67	226.48
882.97	226.37
883.28	226.41
883.59	226.42
883.90	226.45
884.21	226.45
884.51	226.43
884.82	226.39
885.13	226.44
885.44	226.41
885.74	226.42
886.05	226.40
886.36	226.37
886.67	226.32
886.98	226.37
887.28	226.36
887.59	226.35
887.90	226.39
888.20	226.39
888.51	226.44
888.82	226.38
889.13	226.36
889.43	226.47
889.74	226.42
890.05	226.39
890.35	226.34
890.66	226.33
890.97	226.34
891.28	226.33
891.58	226.28
891.89	226.32
892.20	226.32
892.50	226.30
892.81	226.30
893.12	226.32
893.42	226.27
893.73	226.29
894.04	226.31
894.34	226.35
894.65	226.35
894.95	226.31
895.26	226.35
895.57	226.38
895.87	226.25
896.18	226.28
896.48	226.30
896.79	226.33
897.10	226.32
897.40	226.31
897.71	226.31
898.01	226.32
898.32	226.29
898.63	226.26
898.93	226.27
899.24	226.28
899.54	226.28
899.85	226.26
900.15	226.26
900.46	226.25
900.76	226.25
901.07	226.24
901.38	226.25
901.68	226.24
901.99	226.20
902.29	226.24
902.60	226.27
902.90	226.28
903.21	226.26
903.51	226.26
903.82	226.29
904.12	226.30
904.43	226.32
904.73	226.31
905.03	226.33
905.34	226.42
905.64	226.42
905.95	226.40
906.25	226.38
906.56	226.39
906.86	226.39
907.17	226.37
907.47	226.39
907.77	226.40
908.08	226.37
908.38	226.38
908.69	226.38
908.99	226.33
909.30	226.33
909.60	226.36
909.90	226.38
910.21	226.36
910.51	226.36
910.81	226.35
911.12	226.37
911.42	226.36
911.73	226.24
912.03	226.24
912.33	226.26
912.64	226.26
912.94	226.22
913.24	226.19
913.55	226.17
913.85	226.14
914.15	226.14
914.46	226.17
914.76	226.15
915.06	226.11
915.37	226.13
915.67	226.11
915.97	226.05
916.27	226.02
916.58	226.00
916.88	225.96
917.18	225.94
917.49	226.01
917.79	226.00
918.09	226.03
918.39	226.04
918.70	226.02
919.00	226.03
919.30	226.10
919.60	226.10
919.91	226.07
920.21	226.09
920.51	226.06
920.81	226.04
921.12	226.06
921.42	226.07
921.72	226.07
922.02	226.08
922.32	226.09
922.63	226.11
922.93	226.12
923.23	226.18
923.53	226.19
923.83	226.10
924.13	226.11
924.44	226.14
924.74	226.20
925.04	226.21
925.34	226.23
925.64	226.19
925.94	226.17
926.24	226.28
926.55	226.28
926.85	226.31
927.15	226.31
927.45	226.30
927.75	226.30
928.05	226.33
928.35	226.34
928.65	226.37
928.95	226.39
929.26	226.40
929.56	226.37
929.86	226.37
930.16	226.37
930.46	226.37
930.76	226.35
931.06	226.24
931.36	226.23
931.66	226.25
931.96	226.28
932.26	226.30
932.56	226.25
932.86	226.23
933.16	226.21
933.46	226.20
933.76	226.19
934.06	226.22
934.36	226.19
934.66	226.16
934.96	226.17
935.26	226.15
935.56	226.13
935.86	226.12
936.16	226.09
936.46	226.08
936.76	226.07
937.06	226.08
937.36	226.14
937.66	226.13
937.96	226.10
938.26	226.05
938.56	226.06
938.86	226.05
939.16	226.05
939.46	226.07
939.76	226.08
940.06	226.09
940.35	226.05
940.65	226.02
940.95	226.05
941.25	226.01
941.55	226.01
941.85	225.97
942.15	225.99
942.45	226.03
942.75	226.00
943.04	225.98
943.34	225.97
943.64	225.93
943.94	225.93
944.24	225.93
944.54	225.96
944.84	225.93
945.13	225.91
945.43	225.89
945.73	225.89
946.03	225.88
946.33	225.84
946.62	225.87
946.92	225.86
947.22	225.86
947.52	225.86
947.82	225.86
948.11	225.87
948.41	225.82
948.71	225.80
949.01	225.80
949.31	225.80
949.60	225.76
949.90	225.80
950.20	225.80
950.50	225.79
950.79	225.77
951.09	225.75
951.39	225.75
951.69	225.76
951.98	225.76
952.28	225.77
952.58	225.78
952.87	225.76
953.17	225.77
953.47	225.74
953.76	225.72
954.06	225.69
954.36	225.67
954.66	225.70
954.95	225.71
955.25	225.74
955.55	225.74
955.84	225.77
956.14	225.73
956.44	225.73
956.73	225.72
957.03	225.74
957.32	225.76
957.62	225.77
957.92	225.82
958.21	225.82
958.51	225.90
958.81	225.92
959.10	225.95
959.40	225.97
959.69	226.00
959.99	226.03
960.29	226.07
960.58	226.07
960.88	226.13
961.17	226.13
961.47	226.12
961.76	226.14
962.06	226.17
962.36	226.16
962.65	226.18
962.95	226.21
963.24	226.17
963.54	226.18
963.83	226.19
964.13	226.15
964.42	226.13
964.72	226.08
965.01	226.09
965.31	226.10
965.60	226.09
965.90	226.18
966.19	226.17
966.49	226.18
966.78	226.18
967.08	226.15
967.37	226.15
967.67	226.14
967.96	226.14
968.26	226.11
968.55	226.14
968.85	226.11
969.14	226.09
969.43	226.09
969.73	226.07
970.02	226.07
970.32	226.06
970.61	226.05
970.91	226.00
971.20	225.97
971.49	225.96
971.79	225.95
972.08	225.86
972.38	225.87
972.67	225.86
972.96	225.88
973.26	225.87
973.55	225.91
973.85	225.88
974.14	225.88
974.43	225.91
974.73	225.89
975.02	225.91
975.31	225.93
975.61	225.96
975.90	225.98
976.19	225.94
976.49	225.96
976.78	225.92
977.07	225.94
977.37	225.95
977.66	225.94
977.95	225.95
978.24	225.94
978.54	225.95
978.83	225.89
979.12	225.85
979.42	225.87
979.71	225.84
980.00	225.88
980.29	225.90
980.59	225.84
980.88	225.86
981.17	225.84
981.46	225.79
981.76	225.76
982.05	225.77
982.34	225.78
982.63	225.77
982.93	225.81
983.22	225.81
983.51	225.81
983.80	225.85
984.09	225.84
984.39	225.81
984.68	225.77
984.97	225.80
985.26	225.82
985.55	225.77
985.85	225.73
986.14	225.72
986.43	225.73
986.72	225.72
987.01	225.68
987.30	225.67
987.59	225.68
987.89	225.67
988.18	225.62
988.47	225.62
988.76	225.59
989.05	225.55
989.34	225.54
989.63	225.55
989.92	225.51
990.22	225.47
990.51	225.52
990.80	225.51
991.09	225.52
991.38	225.51
991.67	225.51
991.96	225.49
992.25	225.49
992.54	225.46
992.83	225.43
993.12	225.45
993.41	225.48
993.70	225.52
993.99	225.56
994.28	225.59
994.58	225.63
994.87	225.63
995.16	225.64
995.45	225.65
995.74	225.65
996.03	225.66
996.32	225.69
996.61	225.68
996.90	225.69
997.19	225.68
997.48	225.67
997.77	225.69
998.06	225.73
998.34	225.72
998.63	225.72
998.92	225.75
999.21	225.78
999.50	225.78
999.79	225.74
1000.08	225.73
1000.37	225.72
1000.66	225.69
1000.95	225.71
1001.24	225.75
1001.53	225.75
1001.82	225.70
1002.11	225.71
1002.40	225.72
1002.68	225.74
1002.97	225.81
1003.26	225.82
1003.55	225.84
1003.84	225.83
1004.13	225.85
1004.42	225.83
1004.71	225.83
1004.99	225.83
1005.28	225.84
1005.57	225.80
1005.86	225.80
1006.15	225.80
1006.44	225.81
1006.72	225.80
1007.01	225.79
1007.30	225.77
1007.59	225.77
1007.88	225.79
1008.17	225.79
1008.45	225.74
1008.74	225.69
1009.03	225.66
1009.32	225.67
1009.60	225.66
1009.89	225.64
1010.18	225.65
1010.47	225.67
1010.76	225.68
1011.04	225.70
1011.33	225.66
1011.62	225.70
1011.91	225.71
1012.19	225.71
1012.48	225.71
1012.77	225.73
1013.05	225.78
1013.34	225.77
1013.63	225.79
1013.92	225.80
1014.20	225.75
1014.49	225.77
1014.78	225.83
1015.06	225.78
1015.35	225.79
1015.64	225.77
1015.92	225.79
1016.21	225.76
1016.50	225.76
1016.78	225.78
1017.07	225.79
1017.36	225.81
1017.64	225.80
1017.93	225.83
1018.22	225.81
1018.50	225.82
1018.79	225.79
1019.08	225.74
1019.36	225.76
1019.65	225.72
1019.93	225.75
1020.22	225.78
1020.51	225.81
1020.79	225.76
1021.08	225.28
1021.36	226.07
1021.65	225.35
1021.94	225.57
1022.22	225.84
1022.51	225.32
1022.79	226.23
1023.08	225.67
1023.36	226.41
1023.65	225.38
>>>>>End Processed Spectral Data<<<<<
