SpectraSuite Data File
++++++++++++++++++++++++++++++++++++
Date: Fri Feb 01 15:48:38 EST 2013
User: group
Dark Spectrum Present: No
Reference Spectrum Present: No
Number of Sampled Component Spectra: 1
Spectrometers: USB2E7196
Integration Time (usec): 35000 (USB2E7196)
Spectra Averaged: 100 (USB2E7196)
Boxcar Smoothing: 10 (USB2E7196)
Correct for Electrical Dark: No (USB2E7196)
Strobe/Lamp Enabled: No (USB2E7196)
Correct for Detector Non-linearity: No (USB2E7196)
Correct for Stray Light: No (USB2E7196)
Number of Pixels in Processed Spectrum: 2048
>>>>>Begin Processed Spectral Data<<<<<
339.09	0.00
339.48	214.59
339.86	216.04
340.24	217.32
340.63	218.31
341.01	221.78
341.39	221.48
341.78	223.27
342.16	224.37
342.54	225.04
342.93	212.91
343.31	223.70
343.69	224.26
344.07	224.72
344.46	225.14
344.84	225.53
345.22	225.74
345.60	225.97
345.99	226.13
346.37	226.24
346.75	226.34
347.13	226.39
347.52	226.47
347.90	226.56
348.28	226.60
348.66	226.66
349.05	226.65
349.43	226.69
349.81	226.73
350.19	226.81
350.57	226.87
350.96	226.92
351.34	226.97
351.72	227.05
352.10	227.16
352.48	227.26
352.87	227.34
353.25	227.43
353.63	227.51
354.01	227.58
354.39	227.63
354.77	227.69
355.15	227.83
355.54	227.90
355.92	227.95
356.30	228.06
356.68	228.21
357.06	228.29
357.44	228.37
357.82	228.46
358.20	228.53
358.58	228.60
358.97	228.68
359.35	228.78
359.73	228.86
360.11	228.93
360.49	228.97
360.87	229.02
361.25	229.10
361.63	229.18
362.01	229.26
362.39	229.34
362.77	229.40
363.15	229.43
363.53	229.44
363.91	229.47
364.29	229.47
364.67	229.39
365.05	229.43
365.43	229.44
365.81	229.45
366.19	229.48
366.57	229.54
366.95	229.57
367.33	229.56
367.71	229.54
368.09	229.53
368.47	229.52
368.85	229.49
369.23	229.48
369.61	229.43
369.99	229.41
370.37	229.39
370.75	229.38
371.13	229.31
371.51	229.27
371.89	229.25
372.27	229.24
372.65	229.19
373.03	229.10
373.41	229.03
373.78	228.98
374.16	228.87
374.54	228.76
374.92	228.66
375.30	228.59
375.68	228.51
376.06	228.45
376.44	228.40
376.82	228.34
377.19	228.25
377.57	228.18
377.95	228.08
378.33	227.99
378.71	227.87
379.09	227.81
379.47	227.75
379.84	227.64
380.22	227.52
380.60	227.45
380.98	227.41
381.36	227.34
381.73	227.24
382.11	227.17
382.49	227.12
382.87	227.08
383.25	227.00
383.62	227.05
384.00	226.95
384.38	226.91
384.76	226.86
385.13	226.85
385.51	226.78
385.89	226.74
386.27	226.71
386.64	226.67
387.02	226.60
387.40	226.55
387.78	226.54
388.15	226.51
388.53	226.46
388.91	226.41
389.29	226.36
389.66	226.39
390.04	226.37
390.42	226.39
390.79	226.34
391.17	226.31
391.55	226.21
391.92	226.19
392.30	226.18
392.68	226.18
393.05	226.14
393.43	226.17
393.81	226.19
394.18	226.16
394.56	226.15
394.94	226.20
395.31	226.20
395.69	226.26
396.06	226.34
396.44	226.37
396.82	226.41
397.19	226.49
397.57	226.52
397.95	226.60
398.32	226.58
398.70	226.64
399.07	226.74
399.45	226.78
399.82	226.87
400.20	226.92
400.58	226.99
400.95	227.03
401.33	227.11
401.70	227.22
402.08	227.36
402.45	227.47
402.83	227.57
403.20	227.69
403.58	227.78
403.95	227.86
404.33	228.03
404.71	228.18
405.08	228.38
405.46	228.52
405.83	228.70
406.21	228.86
406.58	229.05
406.96	229.21
407.33	229.42
407.70	229.63
408.08	229.92
408.45	230.17
408.83	230.45
409.20	230.67
409.58	230.84
409.95	231.05
410.33	231.34
410.70	231.63
411.08	231.96
411.45	232.24
411.82	232.57
412.20	232.91
412.57	233.33
412.95	233.63
413.32	234.04
413.69	234.41
414.07	234.88
414.44	235.33
414.82	235.83
415.19	236.38
415.56	236.93
415.94	237.44
416.31	238.07
416.68	238.67
417.06	239.40
417.43	240.12
417.81	240.94
418.18	241.69
418.55	242.50
418.93	243.38
419.30	244.32
419.67	245.24
420.04	246.17
420.42	247.15
420.79	248.35
421.16	249.47
421.54	250.68
421.91	251.88
422.28	253.16
422.66	254.48
423.03	255.77
423.40	257.12
423.77	258.55
424.15	259.97
424.52	261.47
424.89	263.10
425.26	264.60
425.64	266.03
426.01	267.65
426.38	269.31
426.75	270.98
427.13	272.64
427.50	274.44
427.87	276.30
428.24	278.13
428.61	279.85
428.99	281.82
429.36	283.92
429.73	285.96
430.10	287.97
430.47	290.03
430.85	292.15
431.22	294.36
431.59	296.69
431.96	298.92
432.33	301.41
432.70	303.77
433.08	306.60
433.45	309.23
433.82	311.82
434.19	314.71
434.56	317.48
434.93	320.11
435.30	322.76
435.68	325.66
436.05	328.51
436.42	331.31
436.79	333.78
437.16	336.47
437.53	339.30
437.90	342.10
438.27	344.78
438.64	347.55
439.01	350.18
439.38	352.46
439.75	354.63
440.13	357.10
440.50	359.41
440.87	361.23
441.24	363.14
441.61	365.29
441.98	366.74
442.35	368.54
442.72	370.46
443.09	372.24
443.46	373.23
443.83	373.81
444.20	374.33
444.57	375.14
444.94	375.42
445.31	375.73
445.68	376.09
446.05	376.23
446.42	375.89
446.79	375.42
447.16	374.94
447.53	374.63
447.90	373.48
448.27	372.29
448.64	370.75
449.01	369.63
449.37	367.66
449.74	365.76
450.11	363.55
450.48	361.06
450.85	358.50
451.22	356.40
451.59	354.40
451.96	352.45
452.33	349.90
452.70	347.58
453.07	344.75
453.43	341.84
453.80	339.05
454.17	336.34
454.54	333.85
454.91	331.13
455.28	328.40
455.65	325.89
456.02	323.48
456.38	321.35
456.75	318.70
457.12	316.48
457.49	314.27
457.86	312.12
458.23	310.27
458.59	308.29
458.96	306.17
459.33	304.31
459.70	302.45
460.07	300.93
460.43	299.21
460.80	297.62
461.17	296.22
461.54	294.74
461.91	293.34
462.27	291.87
462.64	290.67
463.01	289.38
463.38	288.11
463.74	286.75
464.11	285.58
464.48	284.59
464.85	283.48
465.21	282.63
465.58	281.70
465.95	280.62
466.32	279.72
466.68	278.84
467.05	277.94
467.42	277.06
467.78	276.14
468.15	275.26
468.52	274.62
468.88	273.74
469.25	272.99
469.62	272.37
469.98	271.69
470.35	271.04
470.72	270.43
471.08	269.76
471.45	269.23
471.82	268.68
472.18	268.06
472.55	267.61
472.92	267.08
473.28	266.61
473.65	266.17
474.02	265.68
474.38	265.32
474.75	265.00
475.11	264.62
475.48	264.34
475.85	264.09
476.21	263.85
476.58	263.65
476.94	263.50
477.31	263.35
477.67	263.24
478.04	263.09
478.41	263.03
478.77	263.06
479.14	262.98
479.50	262.99
479.87	263.03
480.23	263.10
480.60	263.16
480.96	263.23
481.33	263.39
481.69	263.62
482.06	263.80
482.42	263.98
482.79	264.28
483.15	264.62
483.52	264.99
483.88	265.33
484.25	265.74
484.61	266.16
484.98	266.57
485.34	267.08
485.71	267.69
486.07	268.30
486.44	268.88
486.80	269.61
487.17	270.34
487.53	271.19
487.90	272.03
488.26	272.95
488.62	273.93
488.99	274.95
489.35	275.99
489.72	277.14
490.08	278.34
490.44	279.54
490.81	280.84
491.17	282.18
491.54	283.66
491.90	285.18
492.26	286.82
492.63	288.55
492.99	290.36
493.36	292.23
493.72	294.22
494.08	296.30
494.45	298.53
494.81	300.90
495.17	303.33
495.54	305.91
495.90	308.64
496.26	311.50
496.63	314.42
496.99	317.54
497.35	320.78
497.72	324.20
498.08	327.68
498.44	331.36
498.80	335.30
499.17	339.33
499.53	343.47
499.89	347.84
500.26	352.35
500.62	357.02
500.98	362.01
501.34	367.13
501.71	372.48
502.07	377.95
502.43	383.55
502.79	389.37
503.16	395.47
503.52	401.72
503.88	408.10
504.24	414.76
504.60	421.64
504.97	428.76
505.33	436.09
505.69	443.82
506.05	451.60
506.41	459.50
506.78	467.66
507.14	476.20
507.50	484.91
507.86	493.90
508.22	503.10
508.59	512.30
508.95	521.89
509.31	531.69
509.67	541.83
510.03	552.12
510.39	562.59
510.75	573.40
511.12	584.32
511.48	595.65
511.84	607.15
512.20	618.64
512.56	630.60
512.92	642.70
513.28	655.10
513.64	667.50
514.00	680.17
514.37	693.15
514.73	706.12
515.09	719.16
515.45	732.48
515.81	746.08
516.17	760.09
516.53	774.26
516.89	788.38
517.25	802.54
517.61	816.99
517.97	831.59
518.33	845.94
518.69	860.75
519.05	875.66
519.41	890.74
519.77	906.39
520.13	921.80
520.49	937.20
520.85	952.65
521.21	968.44
521.57	984.70
521.93	1000.41
522.29	1016.83
522.65	1033.06
523.01	1049.24
523.37	1065.33
523.73	1081.49
524.09	1097.47
524.45	1113.85
524.81	1130.49
525.17	1147.32
525.53	1164.28
525.89	1181.11
526.25	1197.97
526.61	1214.42
526.97	1231.21
527.33	1247.62
527.68	1264.25
528.04	1280.79
528.40	1297.33
528.76	1314.49
529.12	1331.04
529.48	1347.91
529.84	1363.99
530.20	1380.66
530.56	1397.79
530.91	1415.05
531.27	1431.82
531.63	1448.35
531.99	1464.94
532.35	1480.85
532.71	1496.66
533.07	1512.82
533.42	1528.84
533.78	1544.82
534.14	1561.04
534.50	1576.51
534.86	1592.35
535.21	1607.50
535.57	1623.53
535.93	1639.09
536.29	1653.82
536.65	1668.78
537.00	1683.46
537.36	1698.70
537.72	1713.22
538.08	1727.56
538.44	1741.50
538.79	1755.30
539.15	1768.94
539.51	1782.60
539.87	1796.95
540.22	1810.79
540.58	1824.54
540.94	1837.87
541.29	1850.74
541.65	1863.42
542.01	1876.58
542.37	1888.91
542.72	1901.48
543.08	1913.09
543.44	1925.38
543.79	1936.60
544.15	1947.74
544.51	1959.40
544.87	1970.47
545.22	1981.23
545.58	1991.33
545.94	2000.99
546.29	2010.98
546.65	2020.81
547.01	2030.14
547.36	2038.77
547.72	2047.12
548.07	2054.83
548.43	2062.91
548.79	2070.91
549.14	2078.40
549.50	2085.71
549.86	2093.44
550.21	2100.65
550.57	2107.87
550.92	2114.50
551.28	2121.40
551.64	2128.36
551.99	2134.98
552.35	2141.07
552.70	2147.21
553.06	2153.27
553.41	2159.59
553.77	2165.51
554.13	2171.64
554.48	2177.62
554.84	2183.11
555.19	2188.57
555.55	2193.84
555.90	2198.39
556.26	2203.35
556.61	2208.30
556.97	2212.55
557.32	2216.62
557.68	2220.67
558.03	2224.96
558.39	2228.65
558.74	2233.27
559.10	2237.22
559.45	2240.88
559.81	2245.13
560.16	2248.94
560.52	2252.17
560.87	2255.68
561.23	2258.28
561.58	2261.18
561.94	2263.84
562.29	2266.36
562.64	2268.79
563.00	2271.41
563.35	2274.81
563.71	2277.85
564.06	2280.88
564.42	2283.63
564.77	2286.13
565.12	2288.37
565.48	2290.17
565.83	2291.89
566.19	2293.22
566.54	2294.26
566.89	2295.18
567.25	2295.75
567.60	2297.19
567.96	2298.80
568.31	2299.60
568.66	2300.76
569.02	2301.23
569.37	2301.53
569.72	2302.18
570.08	2302.52
570.43	2302.49
570.78	2301.97
571.14	2300.46
571.49	2299.07
571.84	2298.80
572.20	2297.61
572.55	2296.76
572.90	2295.41
573.26	2294.20
573.61	2292.65
573.96	2290.64
574.31	2287.83
574.67	2284.85
575.02	2281.20
575.37	2277.75
575.72	2273.84
576.08	2270.68
576.43	2267.41
576.78	2263.69
577.13	2260.77
577.49	2257.60
577.84	2254.05
578.19	2250.34
578.54	2246.68
578.90	2242.43
579.25	2236.71
579.60	2231.70
579.95	2226.38
580.30	2221.21
580.66	2215.94
581.01	2210.96
581.36	2206.09
581.71	2201.92
582.06	2197.43
582.42	2192.86
582.77	2187.82
583.12	2183.34
583.47	2178.37
583.82	2173.35
584.17	2168.17
584.53	2162.38
584.88	2156.65
585.23	2150.92
585.58	2145.41
585.93	2139.90
586.28	2135.34
586.63	2130.46
586.98	2125.55
587.34	2120.99
587.69	2116.07
588.04	2110.76
588.39	2105.01
588.74	2098.66
589.09	2092.45
589.44	2085.72
589.79	2079.79
590.14	2074.00
590.49	2067.36
590.84	2060.93
591.19	2054.96
591.54	2048.41
591.89	2041.04
592.25	2034.19
592.60	2026.96
592.95	2019.29
593.30	2012.08
593.65	2004.39
594.00	1997.29
594.35	1989.83
594.70	1981.87
595.05	1974.68
595.40	1967.49
595.75	1960.02
596.10	1953.68
596.45	1946.98
596.80	1940.77
597.15	1933.97
597.50	1926.92
597.85	1920.64
598.19	1914.10
598.54	1906.90
598.89	1900.28
599.24	1894.47
599.59	1887.83
599.94	1881.67
600.29	1875.36
600.64	1868.60
600.99	1861.05
601.34	1854.22
601.69	1847.51
602.04	1840.57
602.39	1833.23
602.74	1826.23
603.08	1819.49
603.43	1812.81
603.78	1805.51
604.13	1798.25
604.48	1790.93
604.83	1784.08
605.18	1776.97
605.53	1768.97
605.87	1760.97
606.22	1753.78
606.57	1745.74
606.92	1738.47
607.27	1731.27
607.62	1724.32
607.96	1717.11
608.31	1710.49
608.66	1702.85
609.01	1695.10
609.36	1687.51
609.70	1679.56
610.05	1671.57
610.40	1663.77
610.75	1655.45
611.10	1647.73
611.44	1639.36
611.79	1631.47
612.14	1622.79
612.49	1613.62
612.83	1605.17
613.18	1597.14
613.53	1588.99
613.88	1580.58
614.22	1572.28
614.57	1563.59
614.92	1555.61
615.27	1547.89
615.61	1539.58
615.96	1531.58
616.31	1524.06
616.65	1516.65
617.00	1509.06
617.35	1501.47
617.70	1493.12
618.04	1484.51
618.39	1476.26
618.74	1468.66
619.08	1460.35
619.43	1452.70
619.78	1445.79
620.12	1438.64
620.47	1431.05
620.82	1422.88
621.16	1415.43
621.51	1407.84
621.85	1400.30
622.20	1391.79
622.55	1383.58
622.89	1375.75
623.24	1368.11
623.59	1360.76
623.93	1353.21
624.28	1345.95
624.62	1338.40
624.97	1331.30
625.32	1324.59
625.66	1317.59
626.01	1310.47
626.35	1302.97
626.70	1295.32
627.04	1287.56
627.39	1279.86
627.73	1272.49
628.08	1265.60
628.43	1258.27
628.77	1250.82
629.12	1243.26
629.46	1236.14
629.81	1228.77
630.15	1221.55
630.50	1214.21
630.84	1205.96
631.19	1198.06
631.53	1190.57
631.88	1183.04
632.22	1175.42
632.57	1168.15
632.91	1160.50
633.26	1152.98
633.60	1145.64
633.95	1138.58
634.29	1131.61
634.64	1124.88
634.98	1117.47
635.32	1110.32
635.67	1103.78
636.01	1097.18
636.36	1090.36
636.70	1083.77
637.05	1077.11
637.39	1070.67
637.73	1064.13
638.08	1058.26
638.42	1052.22
638.77	1045.76
639.11	1039.13
639.45	1032.76
639.80	1026.00
640.14	1019.69
640.49	1013.12
640.83	1006.90
641.17	1000.65
641.52	994.27
641.86	987.86
642.20	982.04
642.55	975.79
642.89	969.24
643.23	962.61
643.58	956.84
643.92	950.60
644.26	944.52
644.61	938.47
644.95	932.42
645.29	925.80
645.64	919.07
645.98	912.70
646.32	906.83
646.66	900.71
647.01	894.95
647.35	889.21
647.69	883.43
648.04	877.79
648.38	871.92
648.72	865.93
649.06	859.82
649.41	853.94
649.75	847.88
650.09	841.96
650.43	836.31
650.78	830.19
651.12	824.32
651.46	818.60
651.80	812.83
652.14	807.40
652.49	802.01
652.83	796.92
653.17	791.20
653.51	785.49
653.85	780.15
654.20	774.48
654.54	768.45
654.88	762.76
655.22	756.91
655.56	751.23
655.90	745.76
656.25	740.51
656.59	735.13
656.93	730.08
657.27	724.99
657.61	719.52
657.95	714.42
658.29	709.33
658.64	704.14
658.98	698.86
659.32	693.44
659.66	688.22
660.00	682.85
660.34	677.95
660.68	673.02
661.02	667.96
661.36	663.26
661.70	658.77
662.05	654.42
662.39	650.05
662.73	645.57
663.07	641.21
663.41	636.76
663.75	632.31
664.09	627.78
664.43	623.33
664.77	619.22
665.11	614.97
665.45	610.81
665.79	606.63
666.13	602.46
666.47	598.36
666.81	594.21
667.15	590.13
667.49	586.31
667.83	582.58
668.17	578.72
668.51	574.70
668.85	570.70
669.19	566.87
669.53	563.09
669.87	559.25
670.21	555.54
670.55	551.89
670.89	548.43
671.23	545.00
671.57	541.50
671.91	537.93
672.25	534.41
672.58	530.91
672.92	527.61
673.26	524.45
673.60	521.31
673.94	518.21
674.28	515.31
674.62	512.32
674.96	509.19
675.30	506.26
675.64	503.30
675.97	500.54
676.31	497.62
676.65	494.66
676.99	491.95
677.33	489.11
677.67	486.34
678.01	483.26
678.34	480.25
678.68	477.39
679.02	474.61
679.36	471.90
679.70	469.17
680.04	466.35
680.37	463.50
680.71	460.71
681.05	458.05
681.39	455.33
681.73	452.67
682.06	450.16
682.40	447.60
682.74	445.07
683.08	442.52
683.42	439.93
683.75	437.41
684.09	434.88
684.43	432.39
684.77	429.89
685.10	427.60
685.44	425.29
685.78	422.97
686.12	420.70
686.45	418.33
686.79	416.00
687.13	413.84
687.46	411.69
687.80	409.55
688.14	407.35
688.48	405.27
688.81	402.98
689.15	400.76
689.49	398.60
689.82	396.52
690.16	394.39
690.50	392.44
690.83	390.51
691.17	388.52
691.51	386.62
691.84	384.77
692.18	382.84
692.52	380.83
692.85	378.92
693.19	377.02
693.52	375.23
693.86	373.47
694.20	371.66
694.53	369.84
694.87	368.01
695.21	366.26
695.54	364.44
695.88	362.79
696.21	361.07
696.55	359.35
696.88	357.64
697.22	356.03
697.56	354.38
697.89	352.73
698.23	351.12
698.56	349.48
698.90	347.89
699.23	346.22
699.57	344.71
699.90	343.17
700.24	341.65
700.58	340.12
700.91	338.56
701.25	337.11
701.58	335.75
701.92	334.35
702.25	332.98
702.59	331.56
702.92	330.17
703.26	328.90
703.59	327.65
703.93	326.47
704.26	325.23
704.60	323.96
704.93	322.64
705.26	321.41
705.60	320.28
705.93	319.14
706.27	318.10
706.60	317.07
706.94	315.98
707.27	314.83
707.61	313.79
707.94	312.79
708.27	311.70
708.61	310.62
708.94	309.60
709.28	308.60
709.61	307.69
709.94	306.79
710.28	305.81
710.61	304.85
710.95	303.83
711.28	302.90
711.61	301.98
711.95	301.07
712.28	300.14
712.61	299.12
712.95	298.19
713.28	297.34
713.61	296.39
713.95	295.52
714.28	294.70
714.61	293.84
714.95	293.04
715.28	292.21
715.61	291.36
715.95	290.52
716.28	289.68
716.61	288.84
716.95	287.99
717.28	287.21
717.61	286.44
717.94	285.69
718.28	284.88
718.61	284.12
718.94	283.44
719.27	282.78
719.61	282.15
719.94	281.48
720.27	280.79
720.60	280.15
720.94	279.52
721.27	278.89
721.60	278.29
721.93	277.66
722.27	277.10
722.60	276.54
722.93	275.97
723.26	275.47
723.59	274.91
723.93	274.39
724.26	273.85
724.59	273.30
724.92	272.75
725.25	272.27
725.59	271.73
725.92	271.24
726.25	270.73
726.58	270.24
726.91	269.73
727.24	269.21
727.57	268.72
727.91	268.20
728.24	267.72
728.57	267.24
728.90	266.79
729.23	266.28
729.56	265.85
729.89	265.38
730.22	264.90
730.55	264.43
730.89	263.98
731.22	263.50
731.55	263.07
731.88	262.66
732.21	262.18
732.54	261.81
732.87	261.40
733.20	260.98
733.53	260.58
733.86	260.21
734.19	259.80
734.52	259.43
734.85	259.13
735.18	258.71
735.51	258.37
735.84	257.99
736.17	257.67
736.50	257.26
736.83	257.04
737.16	256.67
737.49	256.35
737.82	255.98
738.15	255.66
738.48	255.32
738.81	254.97
739.14	254.66
739.47	254.33
739.80	253.97
740.13	253.65
740.46	253.31
740.79	252.98
741.12	252.69
741.45	252.38
741.78	252.00
742.11	251.73
742.44	251.38
742.77	251.06
743.10	250.74
743.43	250.47
743.75	250.05
744.08	249.90
744.41	249.62
744.74	249.37
745.07	249.06
745.40	248.82
745.73	248.56
746.06	248.29
746.39	248.00
746.71	247.75
747.04	247.48
747.37	247.24
747.70	247.02
748.03	246.78
748.36	246.55
748.68	246.35
749.01	246.07
749.34	245.85
749.67	245.62
750.00	245.39
750.33	245.24
750.65	245.05
750.98	244.74
751.31	244.51
751.64	244.30
751.97	244.17
752.29	243.96
752.62	243.72
752.95	243.52
753.28	243.28
753.60	243.09
753.93	242.92
754.26	242.73
754.59	242.49
754.91	242.31
755.24	242.10
755.57	241.93
755.90	241.76
756.22	241.58
756.55	241.42
756.88	241.22
757.20	240.96
757.53	240.77
757.86	240.59
758.19	240.43
758.51	240.27
758.84	240.05
759.17	239.88
759.49	239.72
759.82	239.61
760.15	239.50
760.47	239.36
760.80	239.19
761.13	239.03
761.45	238.91
761.78	238.74
762.11	238.59
762.43	238.44
762.76	238.32
763.08	238.15
763.41	238.00
763.74	237.89
764.06	237.74
764.39	237.58
764.71	237.43
765.04	237.28
765.37	237.17
765.69	237.04
766.02	236.89
766.34	236.78
766.67	236.63
767.00	236.54
767.32	236.50
767.65	236.46
767.97	236.37
768.30	236.25
768.62	236.12
768.95	236.01
769.27	235.86
769.60	235.74
769.92	235.67
770.25	235.52
770.57	235.40
770.90	235.32
771.22	235.20
771.55	235.09
771.87	235.02
772.20	234.92
772.52	234.93
772.85	234.99
773.17	234.86
773.50	234.75
773.82	234.63
774.15	234.44
774.47	234.29
774.80	234.16
775.12	234.04
775.45	233.96
775.77	233.91
776.09	233.84
776.42	233.76
776.74	233.68
777.07	233.63
777.39	233.55
777.72	233.45
778.04	233.40
778.36	233.35
778.69	233.27
779.01	233.20
779.33	232.99
779.66	232.79
779.98	232.74
780.31	232.67
780.63	232.63
780.95	232.61
781.28	232.48
781.60	232.41
781.92	232.34
782.25	232.25
782.57	232.18
782.89	232.11
783.22	232.08
783.54	232.00
783.86	231.96
784.19	231.89
784.51	231.85
784.83	231.81
785.16	231.75
785.48	231.69
785.80	231.61
786.12	231.60
786.45	231.55
786.77	231.53
787.09	231.53
787.42	231.46
787.74	231.42
788.06	231.43
788.38	231.43
788.71	231.40
789.03	231.39
789.35	231.36
789.67	231.32
789.99	231.26
790.32	231.24
790.64	231.23
790.96	231.30
791.28	231.25
791.61	231.21
791.93	231.18
792.25	231.13
792.57	231.19
792.89	231.17
793.21	231.15
793.54	231.08
793.86	231.01
794.18	230.99
794.50	230.93
794.82	230.91
795.14	230.88
795.47	230.88
795.79	230.84
796.11	230.81
796.43	230.81
796.75	230.76
797.07	230.71
797.39	230.66
797.71	230.54
798.04	230.55
798.36	230.54
798.68	230.48
799.00	230.46
799.32	230.37
799.64	230.34
799.96	230.30
800.28	230.31
800.60	230.32
800.92	230.29
801.24	230.28
801.56	230.22
801.89	230.18
802.21	230.17
802.53	230.14
802.85	230.12
803.17	230.12
803.49	230.06
803.81	230.00
804.13	229.95
804.45	229.90
804.77	229.85
805.09	229.80
805.41	229.78
805.73	229.73
806.05	229.67
806.37	229.64
806.69	229.62
807.01	229.56
807.33	229.48
807.65	229.40
807.97	229.40
808.28	229.38
808.60	229.35
808.92	229.30
809.24	229.35
809.56	229.29
809.88	229.19
810.20	229.20
810.52	229.21
810.84	229.21
811.16	229.19
811.48	229.14
811.80	229.11
812.12	229.06
812.43	229.06
812.75	229.04
813.07	228.98
813.39	228.95
813.71	228.91
814.03	228.90
814.35	228.90
814.67	228.84
814.98	228.78
815.30	228.73
815.62	228.69
815.94	228.58
816.26	228.61
816.58	228.60
816.89	228.59
817.21	228.54
817.53	228.53
817.85	228.51
818.17	228.51
818.48	228.47
818.80	228.48
819.12	228.42
819.44	228.39
819.76	228.39
820.07	228.36
820.39	228.33
820.71	228.30
821.03	228.28
821.34	228.26
821.66	228.28
821.98	228.28
822.30	228.24
822.61	228.29
822.93	228.24
823.25	228.23
823.57	228.22
823.88	228.22
824.20	228.20
824.52	228.20
824.83	228.16
825.15	228.18
825.47	228.16
825.79	228.21
826.10	228.24
826.42	228.24
826.74	228.26
827.05	228.27
827.37	228.26
827.69	228.27
828.00	228.28
828.32	228.29
828.64	228.28
828.95	228.34
829.27	228.32
829.58	228.31
829.90	228.32
830.22	228.32
830.53	228.31
830.85	228.31
831.17	228.28
831.48	228.26
831.80	228.24
832.11	228.23
832.43	228.22
832.75	228.20
833.06	228.26
833.38	228.22
833.69	228.21
834.01	228.25
834.32	228.23
834.64	228.23
834.96	228.21
835.27	228.23
835.59	228.22
835.90	228.21
836.22	228.19
836.53	228.18
836.85	228.16
837.16	228.23
837.48	228.23
837.79	228.24
838.11	228.26
838.42	228.25
838.74	228.22
839.05	228.21
839.37	228.16
839.68	228.06
840.00	228.06
840.31	228.07
840.63	228.03
840.94	228.02
841.26	228.00
841.57	228.00
841.88	227.96
842.20	227.92
842.51	227.87
842.83	227.86
843.14	227.94
843.46	227.90
843.77	227.86
844.08	227.80
844.40	227.78
844.71	227.76
845.03	227.75
845.34	227.74
845.65	227.66
845.97	227.68
846.28	227.70
846.60	227.71
846.91	227.65
847.22	227.62
847.54	227.63
847.85	227.59
848.16	227.55
848.48	227.54
848.79	227.55
849.10	227.58
849.42	227.59
849.73	227.48
850.04	227.47
850.36	227.44
850.67	227.46
850.98	227.47
851.30	227.44
851.61	227.45
851.92	227.45
852.23	227.49
852.55	227.48
852.86	227.50
853.17	227.50
853.49	227.55
853.80	227.56
854.11	227.56
854.42	227.58
854.74	227.57
855.05	227.55
855.36	227.51
855.67	227.46
855.99	227.45
856.30	227.56
856.61	227.57
856.92	227.55
857.23	227.53
857.55	227.50
857.86	227.49
858.17	227.50
858.48	227.47
858.79	227.45
859.11	227.46
859.42	227.41
859.73	227.37
860.04	227.35
860.35	227.30
860.66	227.25
860.98	227.24
861.29	227.25
861.60	227.24
861.91	227.25
862.22	227.25
862.53	227.25
862.84	227.13
863.16	227.12
863.47	227.11
863.78	227.14
864.09	227.13
864.40	227.19
864.71	227.17
865.02	227.16
865.33	227.16
865.64	227.17
865.95	227.20
866.27	227.26
866.58	227.23
866.89	227.29
867.20	227.31
867.51	227.32
867.82	227.31
868.13	227.36
868.44	227.37
868.75	227.39
869.06	227.37
869.37	227.40
869.68	227.37
869.99	227.38
870.30	227.34
870.61	227.33
870.92	227.29
871.23	227.32
871.54	227.37
871.85	227.38
872.16	227.37
872.47	227.35
872.78	227.31
873.09	227.33
873.40	227.30
873.71	227.33
874.02	227.32
874.33	227.31
874.64	227.29
874.95	227.30
875.26	227.27
875.56	227.29
875.87	227.28
876.18	227.31
876.49	227.44
876.80	227.43
877.11	227.45
877.42	227.45
877.73	227.41
878.04	227.37
878.35	227.37
878.66	227.36
878.96	227.34
879.27	227.35
879.58	227.35
879.89	227.32
880.20	227.32
880.51	227.31
880.82	227.34
881.12	227.35
881.43	227.38
881.74	227.38
882.05	227.38
882.36	227.37
882.67	227.38
882.97	227.26
883.28	227.31
883.59	227.29
883.90	227.29
884.21	227.32
884.51	227.33
884.82	227.31
885.13	227.33
885.44	227.32
885.74	227.29
886.05	227.28
886.36	227.32
886.67	227.27
886.98	227.37
887.28	227.33
887.59	227.32
887.90	227.26
888.20	227.28
888.51	227.31
888.82	227.28
889.13	227.29
889.43	227.38
889.74	227.33
890.05	227.35
890.35	227.37
890.66	227.36
890.97	227.31
891.28	227.31
891.58	227.32
891.89	227.34
892.20	227.33
892.50	227.31
892.81	227.30
893.12	227.31
893.42	227.22
893.73	227.24
894.04	227.25
894.34	227.28
894.65	227.27
894.95	227.26
895.26	227.27
895.57	227.30
895.87	227.18
896.18	227.20
896.48	227.18
896.79	227.17
897.10	227.19
897.40	227.23
897.71	227.24
898.01	227.21
898.32	227.20
898.63	227.20
898.93	227.23
899.24	227.22
899.54	227.21
899.85	227.18
900.15	227.18
900.46	227.16
900.76	227.15
901.07	227.14
901.38	227.07
901.68	227.11
901.99	227.05
902.29	227.05
902.60	227.03
902.90	227.02
903.21	227.00
903.51	226.98
903.82	226.99
904.12	226.97
904.43	227.00
904.73	226.98
905.03	226.96
905.34	227.04
905.64	227.03
905.95	227.02
906.25	227.05
906.56	227.03
906.86	227.01
907.17	226.99
907.47	227.00
907.77	227.01
908.08	226.97
908.38	226.98
908.69	227.00
908.99	227.01
909.30	227.00
909.60	227.02
909.90	227.01
910.21	226.95
910.51	226.94
910.81	226.92
911.12	226.95
911.42	226.95
911.73	226.82
912.03	226.84
912.33	226.86
912.64	226.84
912.94	226.81
913.24	226.80
913.55	226.77
913.85	226.72
914.15	226.75
914.46	226.75
914.76	226.74
915.06	226.72
915.37	226.70
915.67	226.72
915.97	226.70
916.27	226.69
916.58	226.72
916.88	226.72
917.18	226.70
917.49	226.74
917.79	226.73
918.09	226.77
918.39	226.78
918.70	226.76
919.00	226.80
919.30	226.87
919.60	226.87
919.91	226.85
920.21	226.87
920.51	226.86
920.81	226.84
921.12	226.85
921.42	226.84
921.72	226.86
922.02	226.84
922.32	226.88
922.63	226.87
922.93	226.92
923.23	226.91
923.53	226.92
923.83	226.87
924.13	226.90
924.44	226.90
924.74	226.92
925.04	226.98
925.34	226.95
925.64	226.90
925.94	226.93
926.24	226.99
926.55	227.00
926.85	227.00
927.15	227.04
927.45	227.04
927.75	227.05
928.05	227.08
928.35	227.10
928.65	227.13
928.95	227.16
929.26	227.12
929.56	227.15
929.86	227.19
930.16	227.16
930.46	227.14
930.76	227.13
931.06	227.09
931.36	227.04
931.66	227.04
931.96	227.06
932.26	227.07
932.56	227.07
932.86	227.06
933.16	227.07
933.46	227.07
933.76	227.07
934.06	227.10
934.36	227.13
934.66	227.12
934.96	227.05
935.26	227.09
935.56	227.09
935.86	227.04
936.16	227.03
936.46	227.04
936.76	227.03
937.06	227.04
937.36	227.04
937.66	227.07
937.96	227.04
938.26	227.03
938.56	226.99
938.86	226.98
939.16	227.02
939.46	227.01
939.76	226.99
940.06	226.98
940.35	226.98
940.65	226.91
940.95	226.89
941.25	226.89
941.55	226.82
941.85	226.81
942.15	226.85
942.45	226.86
942.75	226.86
943.04	226.86
943.34	226.87
943.64	226.86
943.94	226.82
944.24	226.85
944.54	226.85
944.84	226.86
945.13	226.83
945.43	226.77
945.73	226.80
946.03	226.79
946.33	226.75
946.62	226.69
946.92	226.68
947.22	226.69
947.52	226.70
947.82	226.73
948.11	226.70
948.41	226.68
948.71	226.67
949.01	226.70
949.31	226.70
949.60	226.69
949.90	226.70
950.20	226.69
950.50	226.67
950.79	226.66
951.09	226.66
951.39	226.66
951.69	226.67
951.98	226.69
952.28	226.73
952.58	226.73
952.87	226.74
953.17	226.78
953.47	226.75
953.76	226.78
954.06	226.75
954.36	226.75
954.66	226.76
954.95	226.76
955.25	226.79
955.55	226.78
955.84	226.76
956.14	226.78
956.44	226.78
956.73	226.78
957.03	226.78
957.32	226.79
957.62	226.79
957.92	226.81
958.21	226.80
958.51	226.88
958.81	226.90
959.10	226.95
959.40	226.92
959.69	226.95
959.99	226.94
960.29	226.98
960.58	227.00
960.88	227.04
961.17	227.04
961.47	227.03
961.76	227.05
962.06	227.10
962.36	227.09
962.65	227.11
962.95	227.13
963.24	227.11
963.54	227.15
963.83	227.15
964.13	227.15
964.42	227.09
964.72	227.00
965.01	227.03
965.31	227.01
965.60	227.02
965.90	227.08
966.19	227.08
966.49	227.08
966.78	227.07
967.08	227.04
967.37	227.03
967.67	227.00
967.96	227.00
968.26	226.99
968.55	227.00
968.85	226.99
969.14	226.97
969.43	226.98
969.73	226.94
970.02	226.95
970.32	226.96
970.61	226.93
970.91	226.91
971.20	226.86
971.49	226.86
971.79	226.87
972.08	226.77
972.38	226.73
972.67	226.71
972.96	226.72
973.26	226.70
973.55	226.74
973.85	226.71
974.14	226.70
974.43	226.71
974.73	226.70
975.02	226.68
975.31	226.70
975.61	226.68
975.90	226.67
976.19	226.69
976.49	226.64
976.78	226.68
977.07	226.71
977.37	226.72
977.66	226.69
977.95	226.69
978.24	226.72
978.54	226.76
978.83	226.78
979.12	226.80
979.42	226.80
979.71	226.77
980.00	226.80
980.29	226.77
980.59	226.75
980.88	226.76
981.17	226.80
981.46	226.80
981.76	226.81
982.05	226.83
982.34	226.82
982.63	226.85
982.93	226.84
983.22	226.83
983.51	226.83
983.80	226.87
984.09	226.85
984.39	226.86
984.68	226.84
984.97	226.82
985.26	226.77
985.55	226.78
985.85	226.76
986.14	226.75
986.43	226.75
986.72	226.72
987.01	226.70
987.30	226.67
987.59	226.65
987.89	226.64
988.18	226.63
988.47	226.60
988.76	226.59
989.05	226.59
989.34	226.58
989.63	226.61
989.92	226.60
990.22	226.59
990.51	226.60
990.80	226.61
991.09	226.62
991.38	226.65
991.67	226.63
991.96	226.61
992.25	226.62
992.54	226.64
992.83	226.68
993.12	226.67
993.41	226.67
993.70	226.68
993.99	226.71
994.28	226.73
994.58	226.74
994.87	226.76
995.16	226.74
995.45	226.74
995.74	226.72
996.03	226.74
996.32	226.76
996.61	226.77
996.90	226.77
997.19	226.77
997.48	226.79
997.77	226.78
998.06	226.82
998.34	226.83
998.63	226.84
998.92	226.81
999.21	226.84
999.50	226.86
999.79	226.86
1000.08	226.87
1000.37	226.85
1000.66	226.84
1000.95	226.85
1001.24	226.89
1001.53	226.92
1001.82	226.91
1002.11	226.88
1002.40	226.88
1002.68	226.90
1002.97	226.94
1003.26	226.93
1003.55	226.92
1003.84	226.95
1004.13	226.98
1004.42	226.99
1004.71	226.97
1004.99	226.99
1005.28	227.01
1005.57	227.01
1005.86	226.99
1006.15	226.97
1006.44	226.98
1006.72	227.01
1007.01	226.98
1007.30	226.98
1007.59	226.98
1007.88	227.01
1008.17	227.02
1008.45	226.97
1008.74	226.93
1009.03	226.90
1009.32	226.92
1009.60	226.90
1009.89	226.84
1010.18	226.80
1010.47	226.76
1010.76	226.77
1011.04	226.74
1011.33	226.75
1011.62	226.75
1011.91	226.76
1012.19	226.77
1012.48	226.78
1012.77	226.77
1013.05	226.82
1013.34	226.81
1013.63	226.79
1013.92	226.77
1014.20	226.73
1014.49	226.76
1014.78	226.77
1015.06	226.74
1015.35	226.71
1015.64	226.75
1015.92	226.79
1016.21	226.81
1016.50	226.81
1016.78	226.84
1017.07	226.85
1017.36	226.84
1017.64	226.82
1017.93	226.84
1018.22	226.85
1018.50	226.85
1018.79	226.86
1019.08	226.82
1019.36	226.83
1019.65	226.81
1019.93	226.82
1020.22	226.84
1020.51	226.87
1020.79	226.87
1021.08	227.36
1021.36	226.76
1021.65	226.92
1021.94	226.98
1022.22	226.65
1022.51	226.59
1022.79	226.70
1023.08	226.68
1023.36	227.48
1023.65	226.61
>>>>>End Processed Spectral Data<<<<<
