SpectraSuite Data File
++++++++++++++++++++++++++++++++++++
Date: Fri Feb 01 14:56:03 EST 2013
User: group
Dark Spectrum Present: No
Reference Spectrum Present: No
Number of Sampled Component Spectra: 1
Spectrometers: USB2E7196
Integration Time (usec): 35000 (USB2E7196)
Spectra Averaged: 100 (USB2E7196)
Boxcar Smoothing: 10 (USB2E7196)
Correct for Electrical Dark: No (USB2E7196)
Strobe/Lamp Enabled: No (USB2E7196)
Correct for Detector Non-linearity: No (USB2E7196)
Correct for Stray Light: No (USB2E7196)
Number of Pixels in Processed Spectrum: 2048
>>>>>Begin Processed Spectral Data<<<<<
339.09	0.00
339.48	216.16
339.86	217.13
340.24	218.10
340.63	220.14
341.01	222.83
341.39	222.65
341.78	223.46
342.16	225.24
342.54	225.65
342.93	213.95
343.31	224.76
343.69	225.28
344.07	225.74
344.46	226.19
344.84	226.55
345.22	226.76
345.60	227.02
345.99	227.22
346.37	227.35
346.75	227.46
347.13	227.55
347.52	227.63
347.90	227.71
348.28	227.78
348.66	227.79
349.05	227.77
349.43	227.79
349.81	227.81
350.19	227.85
350.57	227.90
350.96	227.95
351.34	228.04
351.72	228.11
352.10	228.23
352.48	228.28
352.87	228.36
353.25	228.45
353.63	228.46
354.01	228.52
354.39	228.60
354.77	228.66
355.15	228.74
355.54	228.80
355.92	228.83
356.30	228.87
356.68	228.98
357.06	229.09
357.44	229.15
357.82	229.20
358.20	229.30
358.58	229.33
358.97	229.40
359.35	229.44
359.73	229.50
360.11	229.54
360.49	229.60
360.87	229.59
361.25	229.64
361.63	229.75
362.01	229.80
362.39	229.80
362.77	229.84
363.15	229.89
363.53	229.90
363.91	229.91
364.29	229.94
364.67	229.85
365.05	229.81
365.43	229.83
365.81	229.84
366.19	229.85
366.57	229.90
366.95	229.89
367.33	229.83
367.71	229.83
368.09	229.80
368.47	229.75
368.85	229.76
369.23	229.74
369.61	229.66
369.99	229.60
370.37	229.58
370.75	229.56
371.13	229.48
371.51	229.39
371.89	229.35
372.27	229.29
372.65	229.26
373.03	229.20
373.41	229.11
373.78	229.02
374.16	228.92
374.54	228.83
374.92	228.76
375.30	228.74
375.68	228.64
376.06	228.57
376.44	228.51
376.82	228.42
377.19	228.35
377.57	228.29
377.95	228.19
378.33	228.10
378.71	227.98
379.09	227.91
379.47	227.88
379.84	227.77
380.22	227.65
380.60	227.57
380.98	227.49
381.36	227.42
381.73	227.34
382.11	227.27
382.49	227.17
382.87	227.05
383.25	226.99
383.62	227.02
384.00	226.95
384.38	226.91
384.76	226.88
385.13	226.86
385.51	226.77
385.89	226.74
386.27	226.69
386.64	226.65
387.02	226.59
387.40	226.53
387.78	226.52
388.15	226.53
388.53	226.47
388.91	226.42
389.29	226.38
389.66	226.37
390.04	226.38
390.42	226.40
390.79	226.40
391.17	226.37
391.55	226.25
391.92	226.26
392.30	226.23
392.68	226.20
393.05	226.19
393.43	226.20
393.81	226.21
394.18	226.24
394.56	226.26
394.94	226.28
395.31	226.29
395.69	226.32
396.06	226.35
396.44	226.40
396.82	226.44
397.19	226.54
397.57	226.60
397.95	226.63
398.32	226.68
398.70	226.76
399.07	226.87
399.45	226.96
399.82	227.03
400.20	227.11
400.58	227.20
400.95	227.24
401.33	227.37
401.70	227.56
402.08	227.65
402.45	227.75
402.83	227.91
403.20	228.07
403.58	228.21
403.95	228.37
404.33	228.54
404.71	228.72
405.08	228.92
405.46	229.07
405.83	229.28
406.21	229.41
406.58	229.60
406.96	229.80
407.33	229.98
407.70	230.15
408.08	230.45
408.45	230.69
408.83	230.95
409.20	231.19
409.58	231.39
409.95	231.65
410.33	231.95
410.70	232.17
411.08	232.48
411.45	232.81
411.82	233.12
412.20	233.45
412.57	233.88
412.95	234.17
413.32	234.60
413.69	235.01
414.07	235.47
414.44	235.94
414.82	236.40
415.19	236.96
415.56	237.54
415.94	238.08
416.31	238.71
416.68	239.37
417.06	240.07
417.43	240.75
417.81	241.53
418.18	242.29
418.55	243.13
418.93	243.97
419.30	244.86
419.67	245.80
420.04	246.76
420.42	247.72
420.79	248.91
421.16	250.04
421.54	251.18
421.91	252.41
422.28	253.65
422.66	254.98
423.03	256.29
423.40	257.62
423.77	259.01
424.15	260.45
424.52	261.90
424.89	263.52
425.26	265.03
425.64	266.44
426.01	268.04
426.38	269.71
426.75	271.39
427.13	273.09
427.50	274.91
427.87	276.80
428.24	278.65
428.61	280.39
428.99	282.30
429.36	284.39
429.73	286.43
430.10	288.48
430.47	290.50
430.85	292.59
431.22	294.83
431.59	297.21
431.96	299.41
432.33	301.93
432.70	304.26
433.08	307.10
433.45	309.75
433.82	312.38
434.19	315.28
434.56	318.10
434.93	320.78
435.30	323.40
435.68	326.30
436.05	329.16
436.42	331.99
436.79	334.51
437.16	337.25
437.53	340.14
437.90	342.93
438.27	345.71
438.64	348.59
439.01	351.18
439.38	353.45
439.75	355.66
440.13	358.13
440.50	360.51
440.87	362.36
441.24	364.33
441.61	366.49
441.98	367.97
442.35	369.77
442.72	371.61
443.09	373.43
443.46	374.38
443.83	374.93
444.20	375.42
444.57	376.27
444.94	376.58
445.31	376.85
445.68	377.20
446.05	377.20
446.42	376.74
446.79	376.32
447.16	375.81
447.53	375.49
447.90	374.35
448.27	373.18
448.64	371.62
449.01	370.46
449.37	368.50
449.74	366.61
450.11	364.31
450.48	361.83
450.85	359.29
451.22	357.17
451.59	355.17
451.96	353.24
452.33	350.61
452.70	348.22
453.07	345.38
453.43	342.52
453.80	339.84
454.17	337.23
454.54	334.66
454.91	331.95
455.28	329.30
455.65	326.80
456.02	324.35
456.38	322.17
456.75	319.50
457.12	317.26
457.49	315.02
457.86	312.93
458.23	311.09
458.59	309.04
458.96	306.95
459.33	305.09
459.70	303.16
460.07	301.71
460.43	300.01
460.80	298.39
461.17	296.93
461.54	295.41
461.91	293.93
462.27	292.46
462.64	291.21
463.01	289.84
463.38	288.50
463.74	287.13
464.11	285.96
464.48	284.96
464.85	283.82
465.21	282.94
465.58	281.97
465.95	280.87
466.32	279.93
466.68	279.01
467.05	278.11
467.42	277.22
467.78	276.26
468.15	275.37
468.52	274.69
468.88	273.82
469.25	273.02
469.62	272.43
469.98	271.78
470.35	271.17
470.72	270.54
471.08	269.90
471.45	269.30
471.82	268.75
472.18	268.09
472.55	267.62
472.92	267.12
473.28	266.63
473.65	266.18
474.02	265.72
474.38	265.34
474.75	265.01
475.11	264.63
475.48	264.34
475.85	264.10
476.21	263.87
476.58	263.65
476.94	263.49
477.31	263.29
477.67	263.11
478.04	262.95
478.41	262.85
478.77	262.88
479.14	262.82
479.50	262.82
479.87	262.91
480.23	263.03
480.60	263.08
480.96	263.15
481.33	263.34
481.69	263.54
482.06	263.74
482.42	263.93
482.79	264.21
483.15	264.53
483.52	264.91
483.88	265.24
484.25	265.64
484.61	266.03
484.98	266.48
485.34	267.05
485.71	267.63
486.07	268.23
486.44	268.77
486.80	269.51
487.17	270.26
487.53	271.03
487.90	271.85
488.26	272.77
488.62	273.76
488.99	274.73
489.35	275.77
489.72	276.87
490.08	278.05
490.44	279.25
490.81	280.57
491.17	281.86
491.54	283.32
491.90	284.86
492.26	286.51
492.63	288.24
492.99	289.99
493.36	291.89
493.72	293.89
494.08	295.97
494.45	298.14
494.81	300.45
495.17	302.89
495.54	305.46
495.90	308.16
496.26	310.93
496.63	313.85
496.99	316.95
497.35	320.16
497.72	323.54
498.08	327.03
498.44	330.71
498.80	334.67
499.17	338.69
499.53	342.79
499.89	347.13
500.26	351.60
500.62	356.19
500.98	361.14
501.34	366.20
501.71	371.54
502.07	377.03
502.43	382.67
502.79	388.49
503.16	394.52
503.52	400.72
503.88	407.09
504.24	413.73
504.60	420.61
504.97	427.74
505.33	435.12
505.69	442.86
506.05	450.56
506.41	458.34
506.78	466.50
507.14	474.94
507.50	483.62
507.86	492.61
508.22	501.88
508.59	511.09
508.95	520.67
509.31	530.50
509.67	540.51
510.03	550.68
510.39	561.18
510.75	571.98
511.12	582.95
511.48	594.21
511.84	605.61
512.20	617.15
512.56	629.08
512.92	641.18
513.28	653.46
513.64	665.98
514.00	678.83
514.37	691.82
514.73	704.88
515.09	717.93
515.45	731.27
515.81	744.76
516.17	758.74
516.53	772.89
516.89	786.94
517.25	801.17
517.61	815.68
517.97	830.17
518.33	844.53
518.69	859.40
519.05	874.52
519.41	889.81
519.77	905.37
520.13	920.88
520.49	936.29
520.85	951.82
521.21	967.56
521.57	983.71
521.93	999.49
522.29	1015.99
522.65	1032.45
523.01	1048.73
523.37	1064.93
523.73	1081.12
524.09	1097.22
524.45	1113.64
524.81	1130.46
525.17	1147.40
525.53	1164.38
525.89	1181.38
526.25	1198.17
526.61	1214.54
526.97	1231.28
527.33	1247.84
527.68	1264.49
528.04	1281.11
528.40	1297.78
528.76	1314.95
529.12	1331.63
529.48	1348.62
529.84	1364.75
530.20	1381.38
530.56	1398.50
530.91	1416.03
531.27	1432.84
531.63	1449.53
531.99	1466.21
532.35	1482.18
532.71	1498.15
533.07	1514.42
533.42	1530.42
533.78	1546.53
534.14	1562.95
534.50	1578.43
534.86	1594.36
535.21	1609.60
535.57	1625.58
535.93	1641.21
536.29	1656.03
536.65	1671.23
537.00	1686.16
537.36	1701.54
537.72	1716.31
538.08	1730.72
538.44	1744.67
538.79	1758.67
539.15	1772.47
539.51	1786.36
539.87	1800.74
540.22	1814.45
540.58	1828.42
540.94	1841.90
541.29	1854.96
541.65	1867.68
542.01	1881.00
542.37	1893.30
542.72	1905.78
543.08	1917.64
543.44	1930.08
543.79	1941.47
544.15	1952.56
544.51	1964.06
544.87	1975.13
545.22	1985.83
545.58	1996.06
545.94	2005.74
546.29	2015.78
546.65	2025.50
547.01	2034.71
547.36	2043.49
547.72	2052.20
548.07	2059.96
548.43	2068.26
548.79	2076.42
549.14	2084.03
549.50	2091.36
549.86	2099.23
550.21	2106.51
550.57	2113.64
550.92	2120.10
551.28	2127.17
551.64	2134.14
551.99	2140.71
552.35	2146.89
552.70	2152.98
553.06	2158.87
553.41	2165.27
553.77	2171.26
554.13	2177.42
554.48	2183.55
554.84	2188.94
555.19	2194.17
555.55	2199.26
555.90	2203.67
556.26	2208.22
556.61	2212.84
556.97	2216.98
557.32	2221.00
557.68	2225.18
558.03	2229.51
558.39	2233.25
558.74	2237.80
559.10	2241.64
559.45	2245.17
559.81	2249.29
560.16	2252.99
560.52	2256.25
560.87	2259.48
561.23	2261.94
561.58	2264.70
561.94	2267.25
562.29	2269.55
562.64	2271.94
563.00	2274.46
563.35	2277.79
563.71	2280.98
564.06	2284.08
564.42	2286.89
564.77	2289.19
565.12	2291.33
565.48	2293.02
565.83	2294.70
566.19	2295.81
566.54	2296.62
566.89	2297.57
567.25	2297.94
567.60	2299.26
567.96	2300.82
568.31	2301.58
568.66	2302.66
569.02	2303.22
569.37	2303.24
569.72	2303.89
570.08	2303.83
570.43	2303.76
570.78	2302.87
571.14	2301.14
571.49	2299.65
571.84	2299.20
572.20	2297.80
572.55	2296.47
572.90	2294.79
573.26	2293.15
573.61	2291.34
573.96	2289.20
574.31	2286.24
574.67	2283.13
575.02	2279.37
575.37	2275.81
575.72	2271.74
576.08	2268.14
576.43	2264.52
576.78	2260.77
577.13	2257.59
577.49	2254.53
577.84	2250.84
578.19	2247.07
578.54	2243.20
578.90	2238.72
579.25	2233.00
579.60	2227.80
579.95	2222.76
580.30	2217.75
580.66	2212.58
581.01	2207.42
581.36	2202.57
581.71	2198.18
582.06	2193.47
582.42	2188.65
582.77	2183.25
583.12	2178.59
583.47	2173.78
583.82	2168.66
584.17	2163.25
584.53	2157.50
584.88	2151.60
585.23	2145.70
585.58	2140.17
585.93	2134.68
586.28	2129.93
586.63	2124.59
586.98	2119.54
587.34	2114.69
587.69	2109.46
588.04	2103.97
588.39	2098.11
588.74	2091.45
589.09	2085.10
589.44	2078.26
589.79	2072.15
590.14	2066.45
590.49	2059.63
590.84	2053.01
591.19	2046.81
591.54	2040.17
591.89	2032.54
592.25	2025.56
592.60	2018.28
592.95	2010.31
593.30	2002.80
593.65	1995.05
594.00	1987.98
594.35	1980.71
594.70	1972.59
595.05	1965.37
595.40	1958.12
595.75	1950.70
596.10	1944.49
596.45	1937.50
596.80	1931.17
597.15	1924.48
597.50	1917.22
597.85	1910.82
598.19	1904.06
598.54	1896.96
598.89	1890.35
599.24	1884.47
599.59	1877.74
599.94	1871.55
600.29	1865.38
600.64	1858.77
600.99	1851.18
601.34	1844.17
601.69	1837.13
602.04	1830.21
602.39	1822.78
602.74	1815.87
603.08	1809.03
603.43	1802.08
603.78	1794.93
604.13	1787.72
604.48	1780.48
604.83	1773.65
605.18	1766.54
605.53	1758.48
605.87	1750.42
606.22	1743.24
606.57	1735.30
606.92	1728.14
607.27	1720.84
607.62	1713.83
607.96	1706.49
608.31	1699.97
608.66	1692.48
609.01	1684.96
609.36	1677.42
609.70	1669.37
610.05	1661.29
610.40	1653.65
610.75	1645.34
611.10	1637.66
611.44	1629.42
611.79	1621.35
612.14	1612.54
612.49	1603.55
612.83	1595.34
613.18	1587.37
613.53	1579.23
613.88	1570.65
614.22	1562.29
614.57	1553.76
614.92	1545.74
615.27	1538.03
615.61	1529.82
615.96	1521.99
616.31	1514.38
616.65	1506.93
617.00	1499.42
617.35	1491.80
617.70	1483.34
618.04	1474.86
618.39	1466.76
618.74	1459.18
619.08	1450.99
619.43	1443.68
619.78	1436.85
620.12	1429.71
620.47	1422.09
620.82	1413.93
621.16	1406.66
621.51	1399.14
621.85	1391.58
622.20	1383.16
622.55	1375.16
622.89	1367.34
623.24	1359.69
623.59	1352.43
623.93	1344.92
624.28	1337.74
624.62	1330.21
624.97	1323.11
625.32	1316.61
625.66	1309.49
626.01	1302.19
626.35	1294.75
626.70	1286.97
627.04	1279.31
627.39	1271.71
627.73	1264.41
628.08	1257.59
628.43	1250.34
628.77	1243.02
629.12	1235.52
629.46	1228.37
629.81	1220.95
630.15	1213.71
630.50	1206.29
630.84	1198.07
631.19	1190.36
631.53	1182.94
631.88	1175.51
632.22	1168.07
632.57	1160.77
632.91	1153.37
633.26	1146.11
633.60	1138.89
633.95	1131.93
634.29	1124.97
634.64	1118.28
634.98	1110.93
635.32	1103.85
635.67	1097.38
636.01	1090.79
636.36	1084.01
636.70	1077.59
637.05	1071.08
637.39	1064.65
637.73	1058.21
638.08	1052.48
638.42	1046.48
638.77	1040.20
639.11	1033.74
639.45	1027.36
639.80	1020.68
640.14	1014.26
640.49	1007.77
640.83	1001.46
641.17	995.18
641.52	988.86
641.86	982.54
642.20	976.80
642.55	970.63
642.89	964.07
643.23	957.65
643.58	951.87
643.92	945.69
644.26	939.62
644.61	933.73
644.95	927.74
645.29	921.12
645.64	914.46
645.98	908.06
646.32	902.25
646.66	896.25
647.01	890.44
647.35	884.80
647.69	879.00
648.04	873.57
648.38	867.81
648.72	861.80
649.06	855.64
649.41	849.72
649.75	843.62
650.09	837.73
650.43	831.88
650.78	825.78
651.12	819.79
651.46	814.07
651.80	808.30
652.14	802.93
652.49	797.58
652.83	792.43
653.17	786.73
653.51	780.95
653.85	775.58
654.20	770.04
654.54	764.14
654.88	758.50
655.22	752.62
655.56	747.09
655.90	741.62
656.25	736.43
656.59	731.15
656.93	726.12
657.27	720.97
657.61	715.65
657.95	710.60
658.29	705.60
658.64	700.44
658.98	695.20
659.32	689.82
659.66	684.62
660.00	679.33
660.34	674.42
660.68	669.61
661.02	664.61
661.36	659.87
661.70	655.36
662.05	650.99
662.39	646.67
662.73	642.19
663.07	637.93
663.41	633.51
663.75	629.01
664.09	624.45
664.43	620.13
664.77	616.01
665.11	611.80
665.45	607.71
665.79	603.64
666.13	599.58
666.47	595.51
666.81	591.37
667.15	587.27
667.49	583.46
667.83	579.63
668.17	575.72
668.51	571.80
668.85	567.76
669.19	563.94
669.53	560.11
669.87	556.28
670.21	552.62
670.55	549.01
670.89	545.62
671.23	542.24
671.57	538.74
671.91	535.26
672.25	531.79
672.58	528.29
672.92	524.97
673.26	521.88
673.60	518.71
673.94	515.64
674.28	512.77
674.62	509.78
674.96	506.70
675.30	503.84
675.64	500.91
675.97	498.20
676.31	495.40
676.65	492.54
676.99	489.83
677.33	486.99
677.67	484.20
678.01	481.19
678.34	478.26
678.68	475.46
679.02	472.67
679.36	469.91
679.70	467.28
680.04	464.51
680.37	461.59
680.71	458.89
681.05	456.33
681.39	453.65
681.73	451.03
682.06	448.56
682.40	446.01
682.74	443.49
683.08	440.97
683.42	438.38
683.75	435.93
684.09	433.40
684.43	430.94
684.77	428.51
685.10	426.20
685.44	423.93
685.78	421.66
686.12	419.43
686.45	417.23
686.79	414.94
687.13	412.76
687.46	410.64
687.80	408.55
688.14	406.36
688.48	404.32
688.81	402.10
689.15	399.99
689.49	397.90
689.82	395.87
690.16	393.81
690.50	391.88
690.83	389.91
691.17	387.96
691.51	386.06
691.84	384.25
692.18	382.34
692.52	380.39
692.85	378.47
693.19	376.55
693.52	374.69
693.86	372.89
694.20	371.10
694.53	369.31
694.87	367.41
695.21	365.62
695.54	363.78
695.88	362.06
696.21	360.29
696.55	358.63
696.88	356.92
697.22	355.28
697.56	353.62
697.89	351.93
698.23	350.29
698.56	348.67
698.90	347.07
699.23	345.40
699.57	343.89
699.90	342.35
700.24	340.82
700.58	339.33
700.91	337.80
701.25	336.40
701.58	335.05
701.92	333.71
702.25	332.33
702.59	330.99
702.92	329.69
703.26	328.37
703.59	327.08
703.93	325.89
704.26	324.63
704.60	323.36
704.93	322.13
705.26	320.93
705.60	319.78
705.93	318.61
706.27	317.65
706.60	316.55
706.94	315.49
707.27	314.37
707.61	313.28
707.94	312.28
708.27	311.19
708.61	310.10
708.94	309.08
709.28	308.12
709.61	307.21
709.94	306.29
710.28	305.33
710.61	304.39
710.95	303.36
711.28	302.47
711.61	301.56
711.95	300.69
712.28	299.74
712.61	298.78
712.95	297.87
713.28	296.96
713.61	296.07
713.95	295.21
714.28	294.42
714.61	293.58
714.95	292.73
715.28	291.88
715.61	291.05
715.95	290.23
716.28	289.40
716.61	288.60
716.95	287.82
717.28	287.09
717.61	286.34
717.94	285.66
718.28	284.87
718.61	284.13
718.94	283.43
719.27	282.82
719.61	282.18
719.94	281.57
720.27	280.88
720.60	280.20
720.94	279.58
721.27	279.01
721.60	278.49
721.93	277.96
722.27	277.43
722.60	276.88
722.93	276.33
723.26	275.80
723.59	275.23
723.93	274.69
724.26	274.16
724.59	273.62
724.92	273.10
725.25	272.63
725.59	272.15
725.92	271.65
726.25	271.16
726.58	270.67
726.91	270.14
727.24	269.69
727.57	269.29
727.91	268.81
728.24	268.35
728.57	267.85
728.90	267.40
729.23	266.88
729.56	266.42
729.89	265.95
730.22	265.44
730.55	265.00
730.89	264.52
731.22	264.08
731.55	263.63
731.88	263.17
732.21	262.73
732.54	262.31
732.87	261.90
733.20	261.47
733.53	261.10
733.86	260.75
734.19	260.34
734.52	259.94
734.85	259.58
735.18	259.15
735.51	258.77
735.84	258.36
736.17	258.06
736.50	257.63
736.83	257.38
737.16	257.05
737.49	256.72
737.82	256.40
738.15	256.02
738.48	255.69
738.81	255.35
739.14	255.00
739.47	254.67
739.80	254.33
740.13	254.02
740.46	253.67
740.79	253.31
741.12	252.96
741.45	252.64
741.78	252.28
742.11	252.00
742.44	251.64
742.77	251.37
743.10	251.04
743.43	250.76
743.75	250.37
744.08	250.21
744.41	249.90
744.74	249.61
745.07	249.31
745.40	249.02
745.73	248.77
746.06	248.50
746.39	248.23
746.71	248.01
747.04	247.73
747.37	247.43
747.70	247.20
748.03	246.96
748.36	246.75
748.68	246.53
749.01	246.28
749.34	246.07
749.67	245.80
750.00	245.59
750.33	245.42
750.65	245.23
750.98	244.89
751.31	244.66
751.64	244.46
751.97	244.32
752.29	244.15
752.62	243.95
752.95	243.74
753.28	243.54
753.60	243.28
753.93	243.15
754.26	242.99
754.59	242.76
754.91	242.62
755.24	242.41
755.57	242.24
755.90	242.05
756.22	241.88
756.55	241.74
756.88	241.57
757.20	241.38
757.53	241.18
757.86	241.07
758.19	240.94
758.51	240.79
758.84	240.59
759.17	240.44
759.49	240.28
759.82	240.17
760.15	240.05
760.47	239.95
760.80	239.77
761.13	239.63
761.45	239.51
761.78	239.32
762.11	239.19
762.43	239.05
762.76	238.94
763.08	238.82
763.41	238.72
763.74	238.59
764.06	238.45
764.39	238.34
764.71	238.18
765.04	238.04
765.37	237.92
765.69	237.81
766.02	237.66
766.34	237.53
766.67	237.40
767.00	237.29
767.32	237.21
767.65	237.20
767.97	237.08
768.30	236.98
768.62	236.89
768.95	236.74
769.27	236.63
769.60	236.51
769.92	236.40
770.25	236.26
770.57	236.14
770.90	236.05
771.22	235.92
771.55	235.82
771.87	235.72
772.20	235.60
772.52	235.60
772.85	235.61
773.17	235.50
773.50	235.38
773.82	235.26
774.15	235.11
774.47	234.92
774.80	234.85
775.12	234.73
775.45	234.63
775.77	234.53
776.09	234.42
776.42	234.32
776.74	234.26
777.07	234.13
777.39	234.04
777.72	233.94
778.04	233.87
778.36	233.77
778.69	233.69
779.01	233.60
779.33	233.41
779.66	233.24
779.98	233.17
780.31	233.10
780.63	233.03
780.95	232.97
781.28	232.89
781.60	232.78
781.92	232.72
782.25	232.69
782.57	232.69
782.89	232.63
783.22	232.61
783.54	232.49
783.86	232.42
784.19	232.38
784.51	232.34
784.83	232.26
785.16	232.23
785.48	232.17
785.80	232.11
786.12	232.07
786.45	231.99
786.77	231.95
787.09	231.91
787.42	231.83
787.74	231.81
788.06	231.76
788.38	231.75
788.71	231.70
789.03	231.62
789.35	231.53
789.67	231.46
789.99	231.39
790.32	231.34
790.64	231.32
790.96	231.34
791.28	231.25
791.61	231.22
791.93	231.17
792.25	231.14
792.57	231.18
792.89	231.10
793.21	231.04
793.54	231.02
793.86	230.96
794.18	230.92
794.50	230.84
794.82	230.82
795.14	230.80
795.47	230.80
795.79	230.80
796.11	230.79
796.43	230.78
796.75	230.75
797.07	230.75
797.39	230.71
797.71	230.61
798.04	230.61
798.36	230.61
798.68	230.55
799.00	230.51
799.32	230.45
799.64	230.48
799.96	230.50
800.28	230.48
800.60	230.45
800.92	230.46
801.24	230.46
801.56	230.46
801.89	230.44
802.21	230.42
802.53	230.36
802.85	230.33
803.17	230.37
803.49	230.31
803.81	230.30
804.13	230.28
804.45	230.27
804.77	230.31
805.09	230.26
805.41	230.25
805.73	230.21
806.05	230.18
806.37	230.15
806.69	230.11
807.01	230.06
807.33	230.06
807.65	230.01
807.97	230.03
808.28	229.97
808.60	229.90
808.92	229.84
809.24	229.89
809.56	229.86
809.88	229.80
810.20	229.80
810.52	229.80
810.84	229.79
811.16	229.75
811.48	229.71
811.80	229.73
812.12	229.70
812.43	229.70
812.75	229.64
813.07	229.60
813.39	229.56
813.71	229.55
814.03	229.49
814.35	229.44
814.67	229.40
814.98	229.37
815.30	229.39
815.62	229.34
815.94	229.25
816.26	229.28
816.58	229.21
816.89	229.20
817.21	229.13
817.53	229.09
817.85	229.08
818.17	229.02
818.48	228.96
818.80	228.96
819.12	228.93
819.44	228.92
819.76	228.89
820.07	228.87
820.39	228.83
820.71	228.81
821.03	228.79
821.34	228.73
821.66	228.69
821.98	228.67
822.30	228.65
822.61	228.69
822.93	228.63
823.25	228.61
823.57	228.56
823.88	228.59
824.20	228.59
824.52	228.56
824.83	228.55
825.15	228.52
825.47	228.50
825.79	228.51
826.10	228.51
826.42	228.51
826.74	228.50
827.05	228.48
827.37	228.47
827.69	228.50
828.00	228.50
828.32	228.50
828.64	228.46
828.95	228.49
829.27	228.46
829.58	228.41
829.90	228.42
830.22	228.43
830.53	228.36
830.85	228.29
831.17	228.29
831.48	228.24
831.80	228.25
832.11	228.25
832.43	228.22
832.75	228.22
833.06	228.26
833.38	228.22
833.69	228.20
834.01	228.22
834.32	228.16
834.64	228.20
834.96	228.23
835.27	228.26
835.59	228.25
835.90	228.24
836.22	228.27
836.53	228.24
836.85	228.26
837.16	228.35
837.48	228.38
837.79	228.38
838.11	228.45
838.42	228.42
838.74	228.42
839.05	228.38
839.37	228.41
839.68	228.39
840.00	228.39
840.31	228.43
840.63	228.41
840.94	228.44
841.26	228.41
841.57	228.39
841.88	228.38
842.20	228.36
842.51	228.32
842.83	228.30
843.14	228.38
843.46	228.39
843.77	228.36
844.08	228.36
844.40	228.33
844.71	228.28
845.03	228.31
845.34	228.29
845.65	228.29
845.97	228.25
846.28	228.22
846.60	228.23
846.91	228.21
847.22	228.21
847.54	228.22
847.85	228.22
848.16	228.19
848.48	228.14
848.79	228.20
849.10	228.23
849.42	228.25
849.73	228.20
850.04	228.17
850.36	228.15
850.67	228.16
850.98	228.17
851.30	228.17
851.61	228.11
851.92	228.11
852.23	228.17
852.55	228.15
852.86	228.13
853.17	228.15
853.49	228.18
853.80	228.19
854.11	228.18
854.42	228.16
854.74	228.16
855.05	228.16
855.36	228.07
855.67	228.07
855.99	228.07
856.30	228.15
856.61	228.11
856.92	228.10
857.23	228.07
857.55	228.03
857.86	228.01
858.17	228.03
858.48	228.01
858.79	227.94
859.11	227.95
859.42	227.91
859.73	227.87
860.04	227.83
860.35	227.80
860.66	227.74
860.98	227.72
861.29	227.72
861.60	227.71
861.91	227.73
862.22	227.71
862.53	227.69
862.84	227.56
863.16	227.60
863.47	227.59
863.78	227.57
864.09	227.58
864.40	227.61
864.71	227.61
865.02	227.59
865.33	227.58
865.64	227.55
865.95	227.59
866.27	227.64
866.58	227.64
866.89	227.64
867.20	227.66
867.51	227.64
867.82	227.64
868.13	227.67
868.44	227.65
868.75	227.64
869.06	227.61
869.37	227.62
869.68	227.58
869.99	227.58
870.30	227.60
870.61	227.63
870.92	227.59
871.23	227.58
871.54	227.62
871.85	227.63
872.16	227.64
872.47	227.62
872.78	227.55
873.09	227.54
873.40	227.56
873.71	227.55
874.02	227.57
874.33	227.55
874.64	227.55
874.95	227.56
875.26	227.52
875.56	227.53
875.87	227.52
876.18	227.53
876.49	227.61
876.80	227.61
877.11	227.56
877.42	227.59
877.73	227.60
878.04	227.56
878.35	227.58
878.66	227.60
878.96	227.61
879.27	227.63
879.58	227.65
879.89	227.63
880.20	227.69
880.51	227.71
880.82	227.72
881.12	227.74
881.43	227.72
881.74	227.75
882.05	227.75
882.36	227.76
882.67	227.78
882.97	227.69
883.28	227.68
883.59	227.70
883.90	227.69
884.21	227.69
884.51	227.69
884.82	227.69
885.13	227.68
885.44	227.67
885.74	227.69
886.05	227.70
886.36	227.71
886.67	227.66
886.98	227.69
887.28	227.71
887.59	227.69
887.90	227.68
888.20	227.67
888.51	227.70
888.82	227.68
889.13	227.69
889.43	227.76
889.74	227.76
890.05	227.77
890.35	227.76
890.66	227.76
890.97	227.76
891.28	227.72
891.58	227.74
891.89	227.77
892.20	227.73
892.50	227.69
892.81	227.66
893.12	227.67
893.42	227.62
893.73	227.60
894.04	227.58
894.34	227.57
894.65	227.58
894.95	227.56
895.26	227.53
895.57	227.56
895.87	227.46
896.18	227.46
896.48	227.43
896.79	227.41
897.10	227.40
897.40	227.40
897.71	227.41
898.01	227.40
898.32	227.34
898.63	227.34
898.93	227.32
899.24	227.36
899.54	227.32
899.85	227.32
900.15	227.29
900.46	227.30
900.76	227.31
901.07	227.30
901.38	227.30
901.68	227.35
901.99	227.29
902.29	227.31
902.60	227.30
902.90	227.32
903.21	227.30
903.51	227.31
903.82	227.32
904.12	227.31
904.43	227.30
904.73	227.31
905.03	227.31
905.34	227.40
905.64	227.38
905.95	227.39
906.25	227.40
906.56	227.40
906.86	227.40
907.17	227.41
907.47	227.43
907.77	227.42
908.08	227.38
908.38	227.38
908.69	227.37
908.99	227.41
909.30	227.41
909.60	227.45
909.90	227.46
910.21	227.49
910.51	227.51
910.81	227.52
911.12	227.55
911.42	227.56
911.73	227.50
912.03	227.51
912.33	227.56
912.64	227.55
912.94	227.54
913.24	227.55
913.55	227.57
913.85	227.55
914.15	227.59
914.46	227.61
914.76	227.58
915.06	227.55
915.37	227.53
915.67	227.55
915.97	227.53
916.27	227.51
916.58	227.50
916.88	227.49
917.18	227.48
917.49	227.54
917.79	227.54
918.09	227.54
918.39	227.55
918.70	227.52
919.00	227.52
919.30	227.59
919.60	227.53
919.91	227.48
920.21	227.48
920.51	227.44
920.81	227.43
921.12	227.49
921.42	227.51
921.72	227.47
922.02	227.43
922.32	227.45
922.63	227.42
922.93	227.42
923.23	227.41
923.53	227.40
923.83	227.30
924.13	227.30
924.44	227.28
924.74	227.31
925.04	227.32
925.34	227.32
925.64	227.26
925.94	227.28
926.24	227.35
926.55	227.34
926.85	227.33
927.15	227.30
927.45	227.30
927.75	227.33
928.05	227.35
928.35	227.35
928.65	227.36
928.95	227.37
929.26	227.35
929.56	227.39
929.86	227.40
930.16	227.41
930.46	227.39
930.76	227.37
931.06	227.29
931.36	227.28
931.66	227.29
931.96	227.30
932.26	227.32
932.56	227.26
932.86	227.29
933.16	227.28
933.46	227.30
933.76	227.27
934.06	227.30
934.36	227.31
934.66	227.35
934.96	227.32
935.26	227.33
935.56	227.34
935.86	227.33
936.16	227.31
936.46	227.30
936.76	227.32
937.06	227.33
937.36	227.35
937.66	227.39
937.96	227.39
938.26	227.37
938.56	227.34
938.86	227.38
939.16	227.36
939.46	227.40
939.76	227.42
940.06	227.44
940.35	227.40
940.65	227.37
940.95	227.39
941.25	227.40
941.55	227.40
941.85	227.35
942.15	227.36
942.45	227.38
942.75	227.36
943.04	227.36
943.34	227.37
943.64	227.37
943.94	227.34
944.24	227.32
944.54	227.32
944.84	227.31
945.13	227.26
945.43	227.26
945.73	227.25
946.03	227.22
946.33	227.23
946.62	227.21
946.92	227.19
947.22	227.16
947.52	227.12
947.82	227.13
948.11	227.16
948.41	227.15
948.71	227.13
949.01	227.17
949.31	227.20
949.60	227.20
949.90	227.21
950.20	227.18
950.50	227.20
950.79	227.21
951.09	227.24
951.39	227.26
951.69	227.28
951.98	227.28
952.28	227.28
952.58	227.25
952.87	227.27
953.17	227.30
953.47	227.32
953.76	227.35
954.06	227.37
954.36	227.36
954.66	227.33
954.95	227.35
955.25	227.35
955.55	227.33
955.84	227.33
956.14	227.34
956.44	227.37
956.73	227.36
957.03	227.37
957.32	227.37
957.62	227.34
957.92	227.34
958.21	227.32
958.51	227.42
958.81	227.42
959.10	227.42
959.40	227.42
959.69	227.42
959.99	227.43
960.29	227.39
960.58	227.39
960.88	227.45
961.17	227.44
961.47	227.43
961.76	227.44
962.06	227.45
962.36	227.42
962.65	227.42
962.95	227.39
963.24	227.38
963.54	227.36
963.83	227.38
964.13	227.36
964.42	227.34
964.72	227.23
965.01	227.23
965.31	227.21
965.60	227.19
965.90	227.19
966.19	227.17
966.49	227.18
966.78	227.16
967.08	227.12
967.37	227.14
967.67	227.13
967.96	227.14
968.26	227.10
968.55	227.14
968.85	227.10
969.14	227.11
969.43	227.07
969.73	227.05
970.02	227.03
970.32	227.05
970.61	227.06
970.91	227.06
971.20	227.05
971.49	227.07
971.79	227.05
972.08	227.03
972.38	227.01
972.67	227.01
972.96	227.02
973.26	227.01
973.55	227.02
973.85	226.99
974.14	226.98
974.43	227.00
974.73	226.97
975.02	226.97
975.31	227.00
975.61	227.02
975.90	227.02
976.19	227.02
976.49	227.04
976.78	227.07
977.07	227.07
977.37	227.10
977.66	227.11
977.95	227.14
978.24	227.12
978.54	227.17
978.83	227.15
979.12	227.13
979.42	227.15
979.71	227.12
980.00	227.13
980.29	227.13
980.59	227.10
980.88	227.14
981.17	227.13
981.46	227.10
981.76	227.10
982.05	227.16
982.34	227.19
982.63	227.20
982.93	227.18
983.22	227.23
983.51	227.22
983.80	227.22
984.09	227.22
984.39	227.26
984.68	227.21
984.97	227.22
985.26	227.24
985.55	227.26
985.85	227.25
986.14	227.26
986.43	227.27
986.72	227.28
987.01	227.27
987.30	227.27
987.59	227.29
987.89	227.30
988.18	227.25
988.47	227.24
988.76	227.20
989.05	227.21
989.34	227.16
989.63	227.20
989.92	227.19
990.22	227.19
990.51	227.22
990.80	227.24
991.09	227.27
991.38	227.25
991.67	227.20
991.96	227.21
992.25	227.19
992.54	227.18
992.83	227.18
993.12	227.15
993.41	227.21
993.70	227.24
993.99	227.25
994.28	227.24
994.58	227.27
994.87	227.28
995.16	227.29
995.45	227.29
995.74	227.26
996.03	227.25
996.32	227.23
996.61	227.21
996.90	227.19
997.19	227.19
997.48	227.21
997.77	227.22
998.06	227.21
998.34	227.23
998.63	227.25
998.92	227.28
999.21	227.31
999.50	227.28
999.79	227.22
1000.08	227.20
1000.37	227.22
1000.66	227.18
1000.95	227.17
1001.24	227.17
1001.53	227.20
1001.82	227.17
1002.11	227.16
1002.40	227.19
1002.68	227.21
1002.97	227.25
1003.26	227.22
1003.55	227.18
1003.84	227.20
1004.13	227.21
1004.42	227.19
1004.71	227.16
1004.99	227.10
1005.28	227.13
1005.57	227.13
1005.86	227.14
1006.15	227.14
1006.44	227.12
1006.72	227.16
1007.01	227.20
1007.30	227.17
1007.59	227.16
1007.88	227.18
1008.17	227.17
1008.45	227.16
1008.74	227.15
1009.03	227.12
1009.32	227.13
1009.60	227.14
1009.89	227.11
1010.18	227.08
1010.47	227.09
1010.76	227.14
1011.04	227.16
1011.33	227.16
1011.62	227.16
1011.91	227.14
1012.19	227.15
1012.48	227.18
1012.77	227.18
1013.05	227.20
1013.34	227.21
1013.63	227.21
1013.92	227.18
1014.20	227.18
1014.49	227.16
1014.78	227.15
1015.06	227.11
1015.35	227.14
1015.64	227.16
1015.92	227.20
1016.21	227.19
1016.50	227.19
1016.78	227.18
1017.07	227.18
1017.36	227.13
1017.64	227.13
1017.93	227.14
1018.22	227.12
1018.50	227.10
1018.79	227.07
1019.08	226.98
1019.36	226.98
1019.65	226.97
1019.93	227.03
1020.22	227.00
1020.51	227.09
1020.79	227.07
1021.08	226.79
1021.36	227.11
1021.65	226.88
1021.94	226.21
1022.22	227.12
1022.51	226.98
1022.79	227.80
1023.08	226.53
1023.36	228.53
1023.65	226.76
>>>>>End Processed Spectral Data<<<<<
