SpectraSuite Data File
++++++++++++++++++++++++++++++++++++
Date: Fri Feb 01 17:43:13 EST 2013
User: group
Dark Spectrum Present: No
Reference Spectrum Present: No
Number of Sampled Component Spectra: 1
Spectrometers: USB2E7196
Integration Time (usec): 35000 (USB2E7196)
Spectra Averaged: 100 (USB2E7196)
Boxcar Smoothing: 10 (USB2E7196)
Correct for Electrical Dark: No (USB2E7196)
Strobe/Lamp Enabled: No (USB2E7196)
Correct for Detector Non-linearity: No (USB2E7196)
Correct for Stray Light: No (USB2E7196)
Number of Pixels in Processed Spectrum: 2048
>>>>>Begin Processed Spectral Data<<<<<
339.09	0.00
339.48	212.71
339.86	214.00
340.24	215.63
340.63	216.65
341.01	219.57
341.39	219.55
341.78	220.88
342.16	221.65
342.54	222.13
342.93	210.88
343.31	221.53
343.69	222.07
344.07	222.52
344.46	222.89
344.84	223.28
345.22	223.51
345.60	223.74
345.99	223.91
346.37	224.02
346.75	224.12
347.13	224.22
347.52	224.27
347.90	224.34
348.28	224.36
348.66	224.41
349.05	224.37
349.43	224.41
349.81	224.46
350.19	224.52
350.57	224.58
350.96	224.69
351.34	224.77
351.72	224.84
352.10	224.93
352.48	225.04
352.87	225.11
353.25	225.19
353.63	225.27
354.01	225.37
354.39	225.47
354.77	225.56
355.15	225.63
355.54	225.69
355.92	225.73
356.30	225.81
356.68	225.94
357.06	226.02
357.44	226.08
357.82	226.13
358.20	226.19
358.58	226.28
358.97	226.36
359.35	226.47
359.73	226.55
360.11	226.65
360.49	226.72
360.87	226.76
361.25	226.85
361.63	226.93
362.01	226.98
362.39	227.02
362.77	227.10
363.15	227.18
363.53	227.21
363.91	227.24
364.29	227.30
364.67	227.27
365.05	227.32
365.43	227.33
365.81	227.37
366.19	227.45
366.57	227.48
366.95	227.49
367.33	227.44
367.71	227.46
368.09	227.45
368.47	227.45
368.85	227.46
369.23	227.43
369.61	227.37
369.99	227.39
370.37	227.39
370.75	227.40
371.13	227.37
371.51	227.35
371.89	227.33
372.27	227.29
372.65	227.23
373.03	227.20
373.41	227.18
373.78	227.14
374.16	227.05
374.54	226.99
374.92	226.93
375.30	226.92
375.68	226.82
376.06	226.79
376.44	226.69
376.82	226.63
377.19	226.57
377.57	226.54
377.95	226.42
378.33	226.34
378.71	226.22
379.09	226.16
379.47	226.12
379.84	226.05
380.22	225.99
380.60	225.92
380.98	225.86
381.36	225.77
381.73	225.67
382.11	225.63
382.49	225.57
382.87	225.50
383.25	225.42
383.62	225.50
384.00	225.43
384.38	225.42
384.76	225.38
385.13	225.36
385.51	225.28
385.89	225.24
386.27	225.21
386.64	225.16
387.02	225.09
387.40	225.01
387.78	224.97
388.15	224.89
388.53	224.87
388.91	224.84
389.29	224.81
389.66	224.84
390.04	224.79
390.42	224.75
390.79	224.72
391.17	224.69
391.55	224.56
391.92	224.51
392.30	224.47
392.68	224.44
393.05	224.44
393.43	224.44
393.81	224.43
394.18	224.42
394.56	224.44
394.94	224.48
395.31	224.46
395.69	224.51
396.06	224.55
396.44	224.55
396.82	224.51
397.19	224.63
397.57	224.62
397.95	224.69
398.32	224.69
398.70	224.76
399.07	224.83
399.45	224.89
399.82	224.96
400.20	225.03
400.58	225.09
400.95	225.12
401.33	225.20
401.70	225.36
402.08	225.46
402.45	225.53
402.83	225.64
403.20	225.76
403.58	225.84
403.95	225.98
404.33	226.14
404.71	226.31
405.08	226.45
405.46	226.59
405.83	226.71
406.21	226.86
406.58	227.04
406.96	227.23
407.33	227.44
407.70	227.63
408.08	227.94
408.45	228.14
408.83	228.39
409.20	228.63
409.58	228.83
409.95	229.13
410.33	229.46
410.70	229.73
411.08	230.08
411.45	230.42
411.82	230.75
412.20	231.17
412.57	231.67
412.95	232.06
413.32	232.54
413.69	233.01
414.07	233.57
414.44	234.12
414.82	234.66
415.19	235.33
415.56	235.98
415.94	236.63
416.31	237.42
416.68	238.15
417.06	239.00
417.43	239.83
417.81	240.74
418.18	241.69
418.55	242.71
418.93	243.77
419.30	244.90
419.67	246.04
420.04	247.14
420.42	248.32
420.79	249.71
421.16	251.08
421.54	252.52
421.91	253.96
422.28	255.46
422.66	257.08
423.03	258.65
423.40	260.25
423.77	261.92
424.15	263.61
424.52	265.43
424.89	267.37
425.26	269.22
425.64	270.97
426.01	272.85
426.38	274.82
426.75	276.81
427.13	278.87
427.50	281.05
427.87	283.37
428.24	285.59
428.61	287.69
428.99	290.04
429.36	292.62
429.73	295.13
430.10	297.58
430.47	300.00
430.85	302.52
431.22	305.22
431.59	308.09
431.96	310.83
432.33	313.80
432.70	316.68
433.08	320.08
433.45	323.26
433.82	326.36
434.19	329.87
434.56	333.23
434.93	336.43
435.30	339.58
435.68	343.05
436.05	346.49
436.42	349.86
436.79	352.88
437.16	356.07
437.53	359.43
437.90	362.76
438.27	366.10
438.64	369.49
439.01	372.62
439.38	375.36
439.75	377.93
440.13	380.93
440.50	383.75
440.87	385.96
441.24	388.31
441.61	390.96
441.98	392.75
442.35	394.96
442.72	397.17
443.09	399.35
443.46	400.56
443.83	401.25
444.20	401.86
444.57	402.90
444.94	403.28
445.31	403.76
445.68	404.20
446.05	404.28
446.42	403.84
446.79	403.33
447.16	402.77
447.53	402.41
447.90	401.07
448.27	399.69
448.64	397.80
449.01	396.44
449.37	394.09
449.74	391.80
450.11	389.05
450.48	386.04
450.85	383.01
451.22	380.43
451.59	378.04
451.96	375.73
452.33	372.60
452.70	369.76
453.07	366.33
453.43	362.87
453.80	359.59
454.17	356.37
454.54	353.33
454.91	350.07
455.28	346.85
455.65	343.82
456.02	340.84
456.38	338.21
456.75	334.95
457.12	332.22
457.49	329.55
457.86	326.96
458.23	324.74
458.59	322.28
458.96	319.76
459.33	317.48
459.70	315.19
460.07	313.38
460.43	311.28
460.80	309.29
461.17	307.52
461.54	305.65
461.91	303.95
462.27	302.19
462.64	300.67
463.01	299.07
463.38	297.50
463.74	295.87
464.11	294.46
464.48	293.23
464.85	291.88
465.21	290.86
465.58	289.74
465.95	288.44
466.32	287.35
466.68	286.23
467.05	285.16
467.42	284.09
467.78	282.95
468.15	281.90
468.52	281.14
468.88	280.09
469.25	279.17
469.62	278.39
469.98	277.56
470.35	276.78
470.72	276.02
471.08	275.26
471.45	274.60
471.82	273.99
472.18	273.26
472.55	272.73
472.92	272.09
473.28	271.55
473.65	271.01
474.02	270.46
474.38	270.03
474.75	269.62
475.11	269.19
475.48	268.86
475.85	268.57
476.21	268.26
476.58	268.04
476.94	267.83
477.31	267.65
477.67	267.47
478.04	267.32
478.41	267.22
478.77	267.20
479.14	267.08
479.50	267.06
479.87	267.08
480.23	267.14
480.60	267.15
480.96	267.23
481.33	267.43
481.69	267.61
482.06	267.74
482.42	267.91
482.79	268.13
483.15	268.40
483.52	268.71
483.88	269.02
484.25	269.38
484.61	269.80
484.98	270.17
485.34	270.68
485.71	271.27
486.07	271.85
486.44	272.34
486.80	273.02
487.17	273.73
487.53	274.57
487.90	275.41
488.26	276.35
488.62	277.33
488.99	278.32
489.35	279.37
489.72	280.52
490.08	281.71
490.44	282.97
490.81	284.35
491.17	285.76
491.54	287.29
491.90	288.85
492.26	290.52
492.63	292.31
492.99	294.14
493.36	296.08
493.72	298.18
494.08	300.36
494.45	302.66
494.81	305.08
495.17	307.57
495.54	310.18
495.90	312.87
496.26	315.71
496.63	318.70
496.99	321.90
497.35	325.22
497.72	328.70
498.08	332.32
498.44	336.07
498.80	340.10
499.17	344.24
499.53	348.54
499.89	353.01
500.26	357.63
500.62	362.40
500.98	367.49
501.34	372.67
501.71	378.14
502.07	383.67
502.43	389.42
502.79	395.39
503.16	401.60
503.52	408.07
503.88	414.64
504.24	421.45
504.60	428.47
504.97	435.82
505.33	443.35
505.69	451.22
506.05	459.18
506.41	467.19
506.78	475.55
507.14	484.17
507.50	493.18
507.86	502.47
508.22	511.95
508.59	521.41
508.95	531.24
509.31	541.35
509.67	551.80
510.03	562.37
510.39	573.21
510.75	584.30
511.12	595.56
511.48	607.14
511.84	618.89
512.20	630.75
512.56	642.98
512.92	655.49
513.28	668.28
513.64	681.08
514.00	694.13
514.37	707.45
514.73	720.97
515.09	734.34
515.45	747.92
515.81	761.84
516.17	776.16
516.53	790.74
516.89	805.32
517.25	819.92
517.61	834.80
517.97	849.77
518.33	864.68
518.69	879.97
519.05	895.45
519.41	911.18
519.77	927.27
520.13	943.24
520.49	959.28
520.85	975.02
521.21	991.21
521.57	1008.07
521.93	1024.46
522.29	1041.31
522.65	1058.26
523.01	1075.13
523.37	1091.78
523.73	1108.63
524.09	1125.38
524.45	1142.33
524.81	1159.68
525.17	1177.08
525.53	1194.63
525.89	1212.16
526.25	1229.62
526.61	1246.66
526.97	1264.12
527.33	1281.33
527.68	1298.64
528.04	1315.73
528.40	1333.19
528.76	1351.21
529.12	1368.63
529.48	1386.28
529.84	1403.13
530.20	1420.53
530.56	1438.38
530.91	1456.67
531.27	1474.31
531.63	1491.63
531.99	1509.19
532.35	1526.13
532.71	1543.07
533.07	1560.24
533.42	1577.20
533.78	1594.29
534.14	1611.52
534.50	1627.82
534.86	1644.64
535.21	1660.94
535.57	1677.97
535.93	1694.60
536.29	1710.32
536.65	1726.52
537.00	1742.35
537.36	1758.85
537.72	1774.30
538.08	1789.87
538.44	1804.86
538.79	1819.90
539.15	1834.65
539.51	1849.50
539.87	1864.89
540.22	1879.58
540.58	1894.46
540.94	1908.73
541.29	1922.58
541.65	1936.44
542.01	1950.77
542.37	1964.27
542.72	1977.81
543.08	1990.86
543.44	2004.44
543.79	2016.98
544.15	2029.01
544.51	2041.75
544.87	2053.82
545.22	2065.85
545.58	2077.22
545.94	2088.17
546.29	2099.28
546.65	2110.47
547.01	2120.81
547.36	2130.74
547.72	2140.47
548.07	2149.75
548.43	2159.23
548.79	2168.31
549.14	2177.36
549.50	2185.81
549.86	2194.55
550.21	2202.99
550.57	2211.30
550.92	2219.03
551.28	2227.29
551.64	2235.58
551.99	2243.26
552.35	2250.62
552.70	2258.04
553.06	2265.27
553.41	2272.79
553.77	2279.84
554.13	2286.95
554.48	2294.29
554.84	2301.15
555.19	2307.39
555.55	2313.58
555.90	2319.12
556.26	2325.41
556.61	2331.00
556.97	2336.54
557.32	2341.81
557.68	2347.03
558.03	2352.17
558.39	2356.85
558.74	2362.45
559.10	2367.32
559.45	2371.98
559.81	2377.21
560.16	2382.06
560.52	2386.23
560.87	2390.56
561.23	2394.05
561.58	2397.65
561.94	2401.13
562.29	2404.11
562.64	2408.08
563.00	2411.53
563.35	2415.94
563.71	2419.93
564.06	2423.89
564.42	2427.58
564.77	2431.11
565.12	2434.53
565.48	2437.45
565.83	2440.22
566.19	2442.44
566.54	2444.16
566.89	2446.24
567.25	2447.71
567.60	2449.70
567.96	2452.37
568.31	2453.89
568.66	2455.83
569.02	2457.41
569.37	2458.34
569.72	2459.87
570.08	2460.62
570.43	2461.12
570.78	2461.22
571.14	2460.09
571.49	2459.30
571.84	2459.39
572.20	2458.65
572.55	2457.86
572.90	2456.56
573.26	2455.59
573.61	2454.07
573.96	2452.82
574.31	2450.12
574.67	2447.40
575.02	2444.05
575.37	2440.64
575.72	2437.17
576.08	2433.96
576.43	2430.74
576.78	2427.45
577.13	2424.33
577.49	2421.27
577.84	2418.17
578.19	2414.60
578.54	2411.33
578.90	2407.35
579.25	2402.01
579.60	2397.27
579.95	2392.37
580.30	2387.42
580.66	2382.32
581.01	2377.44
581.36	2372.49
581.71	2368.46
582.06	2364.11
582.42	2359.78
582.77	2354.50
583.12	2349.87
583.47	2345.40
583.82	2340.44
584.17	2335.17
584.53	2329.73
584.88	2323.99
585.23	2318.10
585.58	2312.28
585.93	2306.51
586.28	2301.57
586.63	2296.33
586.98	2290.92
587.34	2286.08
587.69	2281.05
588.04	2275.72
588.39	2269.82
588.74	2262.90
589.09	2256.44
589.44	2249.27
589.79	2242.69
590.14	2236.83
590.49	2229.87
590.84	2222.94
591.19	2216.55
591.54	2209.64
591.89	2201.96
592.25	2195.00
592.60	2187.30
592.95	2179.47
593.30	2171.79
593.65	2163.81
594.00	2156.38
594.35	2148.76
594.70	2140.03
595.05	2132.58
595.40	2124.54
595.75	2116.63
596.10	2110.19
596.45	2102.96
596.80	2096.52
597.15	2089.55
597.50	2082.23
597.85	2075.31
598.19	2068.20
598.54	2060.88
598.89	2053.90
599.24	2047.56
599.59	2040.52
599.94	2033.81
600.29	2026.95
600.64	2019.88
600.99	2011.75
601.34	2004.41
601.69	1996.85
602.04	1989.63
602.39	1981.60
602.74	1974.46
603.08	1967.34
603.43	1960.00
603.78	1952.14
604.13	1944.19
604.48	1936.50
604.83	1929.01
605.18	1921.77
605.53	1913.22
605.87	1904.34
606.22	1896.38
606.57	1887.71
606.92	1879.44
607.27	1871.81
607.62	1864.49
607.96	1856.61
608.31	1849.76
608.66	1841.46
609.01	1833.32
609.36	1825.12
609.70	1816.38
610.05	1807.65
610.40	1799.11
610.75	1790.11
611.10	1781.81
611.44	1772.59
611.79	1763.73
612.14	1754.23
612.49	1744.05
612.83	1734.73
613.18	1725.88
613.53	1716.93
613.88	1707.58
614.22	1698.56
614.57	1688.90
614.92	1679.97
615.27	1671.84
615.61	1662.57
615.96	1653.75
616.31	1645.20
616.65	1637.09
617.00	1628.92
617.35	1620.20
617.70	1611.20
618.04	1601.91
618.39	1592.78
618.74	1584.62
619.08	1575.48
619.43	1567.04
619.78	1559.40
620.12	1551.75
620.47	1543.42
620.82	1534.42
621.16	1526.14
621.51	1517.64
621.85	1509.23
622.20	1499.83
622.55	1490.44
622.89	1481.76
623.24	1473.30
623.59	1465.17
623.93	1456.86
624.28	1448.60
624.62	1440.53
624.97	1432.54
625.32	1424.88
625.66	1417.17
626.01	1409.12
626.35	1401.13
626.70	1392.50
627.04	1384.00
627.39	1375.35
627.73	1367.17
628.08	1359.59
628.43	1351.73
628.77	1343.82
629.12	1335.63
629.46	1327.71
629.81	1319.47
630.15	1311.40
630.50	1303.28
630.84	1294.38
631.19	1285.48
631.53	1277.23
631.88	1268.87
632.22	1260.45
632.57	1252.32
632.91	1243.85
633.26	1235.76
633.60	1227.54
633.95	1219.64
634.29	1211.67
634.64	1204.14
634.98	1196.13
635.32	1188.27
635.67	1180.84
636.01	1173.49
636.36	1166.09
636.70	1158.92
637.05	1151.78
637.39	1144.75
637.73	1137.68
638.08	1131.14
638.42	1124.63
638.77	1117.72
639.11	1110.53
639.45	1103.52
639.80	1096.39
640.14	1089.52
640.49	1082.41
640.83	1075.42
641.17	1068.75
641.52	1062.05
641.86	1055.08
642.20	1048.63
642.55	1041.67
642.89	1034.76
643.23	1027.53
643.58	1021.13
643.92	1014.41
644.26	1007.91
644.61	1001.27
644.95	994.63
645.29	987.43
645.64	980.15
645.98	973.07
646.32	966.55
646.66	960.00
647.01	953.61
647.35	947.43
647.69	940.89
648.04	934.88
648.38	928.61
648.72	922.17
649.06	915.63
649.41	909.15
649.75	902.75
650.09	896.22
650.43	889.99
650.78	883.37
651.12	876.81
651.46	870.48
651.80	864.34
652.14	858.46
652.49	852.73
652.83	847.04
653.17	841.09
653.51	834.98
653.85	828.99
654.20	822.96
654.54	816.41
654.88	810.24
655.22	803.79
655.56	797.49
655.90	791.45
656.25	785.83
656.59	780.00
656.93	774.41
657.27	768.79
657.61	762.72
657.95	757.09
658.29	751.59
658.64	745.83
658.98	739.96
659.32	734.06
659.66	728.32
660.00	722.64
660.34	717.16
660.68	711.79
661.02	706.36
661.36	701.27
661.70	696.33
662.05	691.53
662.39	686.83
662.73	682.01
663.07	677.25
663.41	672.40
663.75	667.61
664.09	662.61
664.43	657.83
664.77	653.47
665.11	648.97
665.45	644.45
665.79	640.07
666.13	635.58
666.47	631.05
666.81	626.57
667.15	621.99
667.49	617.76
667.83	613.49
668.17	609.17
668.51	604.70
668.85	600.34
669.19	596.18
669.53	592.09
669.87	587.93
670.21	583.85
670.55	579.78
670.89	576.01
671.23	572.28
671.57	568.42
671.91	564.63
672.25	560.68
672.58	556.86
672.92	553.12
673.26	549.65
673.60	546.24
673.94	542.84
674.28	539.72
674.62	536.50
674.96	533.24
675.30	530.15
675.64	526.93
675.97	523.83
676.31	520.73
676.65	517.49
676.99	514.48
677.33	511.38
677.67	508.34
678.01	505.06
678.34	501.89
678.68	498.75
679.02	495.60
679.36	492.59
679.70	489.65
680.04	486.68
680.37	483.61
680.71	480.55
681.05	477.74
681.39	474.76
681.73	471.87
682.06	469.07
682.40	466.30
682.74	463.54
683.08	460.78
683.42	457.93
683.75	455.22
684.09	452.43
684.43	449.78
684.77	447.09
685.10	444.50
685.44	441.91
685.78	439.41
686.12	436.98
686.45	434.46
686.79	431.93
687.13	429.49
687.46	427.13
687.80	424.80
688.14	422.31
688.48	420.09
688.81	417.62
689.15	415.24
689.49	412.87
689.82	410.59
690.16	408.28
690.50	406.16
690.83	404.04
691.17	401.89
691.51	399.77
691.84	397.80
692.18	395.68
692.52	393.59
692.85	391.48
693.19	389.46
693.52	387.46
693.86	385.45
694.20	383.48
694.53	381.52
694.87	379.53
695.21	377.54
695.54	375.54
695.88	373.66
696.21	371.79
696.55	369.97
696.88	368.13
697.22	366.30
697.56	364.49
697.89	362.73
698.23	360.98
698.56	359.20
698.90	357.48
699.23	355.73
699.57	354.00
699.90	352.33
700.24	350.62
700.58	349.01
700.91	347.42
701.25	345.84
701.58	344.32
701.92	342.80
702.25	341.37
702.59	339.88
702.92	338.49
703.26	337.08
703.59	335.71
703.93	334.39
704.26	333.05
704.60	331.69
704.93	330.26
705.26	328.91
705.60	327.60
705.93	326.28
706.27	325.12
706.60	323.99
706.94	322.80
707.27	321.55
707.61	320.34
707.94	319.20
708.27	318.04
708.61	316.84
708.94	315.74
709.28	314.66
709.61	313.59
709.94	312.47
710.28	311.33
710.61	310.22
710.95	309.04
711.28	308.03
711.61	306.97
711.95	305.99
712.28	304.97
712.61	303.93
712.95	302.91
713.28	301.94
713.61	300.91
713.95	299.95
714.28	299.04
714.61	298.11
714.95	297.21
715.28	296.26
715.61	295.30
715.95	294.33
716.28	293.36
716.61	292.42
716.95	291.56
717.28	290.74
717.61	289.90
717.94	289.10
718.28	288.24
718.61	287.39
718.94	286.62
719.27	285.86
719.61	285.13
719.94	284.40
720.27	283.61
720.60	282.89
720.94	282.20
721.27	281.51
721.60	280.86
721.93	280.18
722.27	279.55
722.60	279.00
722.93	278.36
723.26	277.78
723.59	277.19
723.93	276.57
724.26	275.97
724.59	275.36
724.92	274.75
725.25	274.20
725.59	273.71
725.92	273.16
726.25	272.63
726.58	272.12
726.91	271.59
727.24	271.08
727.57	270.54
727.91	270.00
728.24	269.48
728.57	268.94
728.90	268.41
729.23	267.90
729.56	267.38
729.89	266.88
730.22	266.37
730.55	265.88
730.89	265.43
731.22	264.92
731.55	264.43
731.88	263.96
732.21	263.50
732.54	263.02
732.87	262.54
733.20	262.09
733.53	261.65
733.86	261.26
734.19	260.82
734.52	260.42
734.85	260.07
735.18	259.64
735.51	259.28
735.84	258.92
736.17	258.51
736.50	258.07
736.83	257.83
737.16	257.47
737.49	257.11
737.82	256.70
738.15	256.36
738.48	256.02
738.81	255.71
739.14	255.33
739.47	254.95
739.80	254.60
740.13	254.26
740.46	253.86
740.79	253.49
741.12	253.17
741.45	252.85
741.78	252.50
742.11	252.22
742.44	251.87
742.77	251.56
743.10	251.24
743.43	250.93
743.75	250.50
744.08	250.31
744.41	249.98
744.74	249.70
745.07	249.40
745.40	249.13
745.73	248.88
746.06	248.60
746.39	248.32
746.71	248.03
747.04	247.76
747.37	247.51
747.70	247.25
748.03	246.98
748.36	246.73
748.68	246.44
749.01	246.11
749.34	245.85
749.67	245.59
750.00	245.35
750.33	245.18
750.65	244.91
750.98	244.54
751.31	244.30
751.64	244.07
751.97	243.87
752.29	243.62
752.62	243.33
752.95	243.09
753.28	242.84
753.60	242.62
753.93	242.41
754.26	242.18
754.59	241.94
754.91	241.66
755.24	241.42
755.57	241.21
755.90	241.02
756.22	240.81
756.55	240.53
756.88	240.32
757.20	240.06
757.53	239.85
757.86	239.68
758.19	239.50
758.51	239.31
758.84	239.08
759.17	238.89
759.49	238.70
759.82	238.59
760.15	238.45
760.47	238.27
760.80	238.10
761.13	237.98
761.45	237.77
761.78	237.64
762.11	237.47
762.43	237.28
762.76	237.12
763.08	236.97
763.41	236.85
763.74	236.69
764.06	236.51
764.39	236.38
764.71	236.18
765.04	236.03
765.37	235.84
765.69	235.69
766.02	235.53
766.34	235.38
766.67	235.19
767.00	235.07
767.32	234.98
767.65	234.89
767.97	234.74
768.30	234.66
768.62	234.52
768.95	234.39
769.27	234.29
769.60	234.17
769.92	234.04
770.25	233.91
770.57	233.79
770.90	233.67
771.22	233.56
771.55	233.48
771.87	233.35
772.20	233.26
772.52	233.22
772.85	233.25
773.17	233.16
773.50	233.06
773.82	232.93
774.15	232.78
774.47	232.63
774.80	232.50
775.12	232.40
775.45	232.29
775.77	232.20
776.09	232.12
776.42	232.04
776.74	231.99
777.07	231.91
777.39	231.85
777.72	231.80
778.04	231.72
778.36	231.63
778.69	231.57
779.01	231.54
779.33	231.42
779.66	231.23
779.98	231.16
780.31	231.09
780.63	231.03
780.95	230.99
781.28	230.91
781.60	230.83
781.92	230.76
782.25	230.69
782.57	230.63
782.89	230.55
783.22	230.48
783.54	230.38
783.86	230.35
784.19	230.26
784.51	230.24
784.83	230.18
785.16	230.13
785.48	230.09
785.80	230.00
786.12	229.93
786.45	229.89
786.77	229.83
787.09	229.79
787.42	229.73
787.74	229.67
788.06	229.63
788.38	229.60
788.71	229.55
789.03	229.54
789.35	229.49
789.67	229.43
789.99	229.37
790.32	229.32
790.64	229.26
790.96	229.28
791.28	229.20
791.61	229.15
791.93	229.15
792.25	229.09
792.57	229.12
792.89	229.06
793.21	229.00
793.54	228.95
793.86	228.89
794.18	228.84
794.50	228.81
794.82	228.78
795.14	228.76
795.47	228.74
795.79	228.70
796.11	228.67
796.43	228.61
796.75	228.58
797.07	228.55
797.39	228.52
797.71	228.41
798.04	228.38
798.36	228.36
798.68	228.29
799.00	228.26
799.32	228.20
799.64	228.17
799.96	228.15
800.28	228.14
800.60	228.11
800.92	228.11
801.24	228.07
801.56	228.02
801.89	227.96
802.21	227.93
802.53	227.89
802.85	227.86
803.17	227.88
803.49	227.85
803.81	227.81
804.13	227.77
804.45	227.74
804.77	227.70
805.09	227.67
805.41	227.63
805.73	227.59
806.05	227.54
806.37	227.54
806.69	227.50
807.01	227.46
807.33	227.43
807.65	227.36
807.97	227.34
808.28	227.30
808.60	227.28
808.92	227.21
809.24	227.21
809.56	227.18
809.88	227.14
810.20	227.10
810.52	227.10
810.84	227.06
811.16	227.04
811.48	227.00
811.80	227.02
812.12	226.97
812.43	226.97
812.75	226.93
813.07	226.89
813.39	226.84
813.71	226.77
814.03	226.75
814.35	226.73
814.67	226.68
814.98	226.65
815.30	226.61
815.62	226.60
815.94	226.53
816.26	226.55
816.58	226.50
816.89	226.54
817.21	226.51
817.53	226.47
817.85	226.45
818.17	226.43
818.48	226.36
818.80	226.40
819.12	226.36
819.44	226.33
819.76	226.31
820.07	226.31
820.39	226.32
820.71	226.30
821.03	226.26
821.34	226.25
821.66	226.24
821.98	226.25
822.30	226.21
822.61	226.25
822.93	226.19
823.25	226.14
823.57	226.05
823.88	226.05
824.20	226.03
824.52	226.04
824.83	226.01
825.15	225.96
825.47	225.93
825.79	225.93
826.10	225.92
826.42	225.91
826.74	225.90
827.05	225.86
827.37	225.85
827.69	225.85
828.00	225.86
828.32	225.86
828.64	225.82
828.95	225.88
829.27	225.86
829.58	225.85
829.90	225.85
830.22	225.86
830.53	225.85
830.85	225.86
831.17	225.84
831.48	225.86
831.80	225.88
832.11	225.82
832.43	225.81
832.75	225.78
833.06	225.83
833.38	225.81
833.69	225.82
834.01	225.81
834.32	225.78
834.64	225.74
834.96	225.72
835.27	225.69
835.59	225.64
835.90	225.62
836.22	225.59
836.53	225.58
836.85	225.57
837.16	225.64
837.48	225.57
837.79	225.60
838.11	225.59
838.42	225.55
838.74	225.61
839.05	225.56
839.37	225.57
839.68	225.50
840.00	225.50
840.31	225.53
840.63	225.51
840.94	225.48
841.26	225.50
841.57	225.48
841.88	225.49
842.20	225.48
842.51	225.45
842.83	225.46
843.14	225.57
843.46	225.60
843.77	225.50
844.08	225.52
844.40	225.46
844.71	225.45
845.03	225.48
845.34	225.43
845.65	225.46
845.97	225.45
846.28	225.47
846.60	225.46
846.91	225.38
847.22	225.44
847.54	225.51
847.85	225.51
848.16	225.51
848.48	225.54
848.79	225.56
849.10	225.59
849.42	225.59
849.73	225.49
850.04	225.46
850.36	225.45
850.67	225.47
850.98	225.47
851.30	225.50
851.61	225.48
851.92	225.50
852.23	225.51
852.55	225.54
852.86	225.54
853.17	225.53
853.49	225.58
853.80	225.54
854.11	225.53
854.42	225.51
854.74	225.53
855.05	225.52
855.36	225.47
855.67	225.46
855.99	225.46
856.30	225.59
856.61	225.57
856.92	225.55
857.23	225.58
857.55	225.59
857.86	225.56
858.17	225.59
858.48	225.56
858.79	225.54
859.11	225.56
859.42	225.52
859.73	225.51
860.04	225.48
860.35	225.42
860.66	225.40
860.98	225.41
861.29	225.41
861.60	225.39
861.91	225.37
862.22	225.35
862.53	225.30
862.84	225.14
863.16	225.16
863.47	225.15
863.78	225.09
864.09	225.09
864.40	225.08
864.71	225.05
865.02	225.08
865.33	225.06
865.64	225.02
865.95	225.04
866.27	225.12
866.58	225.12
866.89	225.14
867.20	225.11
867.51	225.09
867.82	225.07
868.13	225.11
868.44	225.14
868.75	225.13
869.06	225.17
869.37	225.20
869.68	225.18
869.99	225.23
870.30	225.27
870.61	225.27
870.92	225.23
871.23	225.24
871.54	225.22
871.85	225.25
872.16	225.24
872.47	225.20
872.78	225.12
873.09	225.12
873.40	225.12
873.71	225.15
874.02	225.16
874.33	225.12
874.64	225.10
874.95	225.13
875.26	225.15
875.56	225.14
875.87	225.13
876.18	225.11
876.49	225.17
876.80	225.14
877.11	225.12
877.42	225.18
877.73	225.15
878.04	225.15
878.35	225.12
878.66	225.14
878.96	225.15
879.27	225.15
879.58	225.17
879.89	225.13
880.20	225.16
880.51	225.17
880.82	225.18
881.12	225.18
881.43	225.12
881.74	225.10
882.05	225.09
882.36	225.13
882.67	225.16
882.97	225.08
883.28	225.10
883.59	225.07
883.90	225.04
884.21	225.07
884.51	225.05
884.82	225.06
885.13	225.02
885.44	225.00
885.74	225.02
886.05	224.99
886.36	225.05
886.67	225.00
886.98	225.04
887.28	225.07
887.59	225.05
887.90	225.04
888.20	225.04
888.51	225.05
888.82	225.00
889.13	225.00
889.43	225.03
889.74	224.97
890.05	224.95
890.35	224.94
890.66	224.91
890.97	224.89
891.28	224.92
891.58	224.93
891.89	224.96
892.20	224.96
892.50	225.00
892.81	224.96
893.12	224.98
893.42	224.92
893.73	224.91
894.04	224.87
894.34	224.89
894.65	224.89
894.95	224.90
895.26	224.90
895.57	224.91
895.87	224.84
896.18	224.88
896.48	224.93
896.79	224.94
897.10	224.99
897.40	225.00
897.71	224.98
898.01	224.96
898.32	224.99
898.63	224.95
898.93	224.93
899.24	224.92
899.54	224.91
899.85	224.90
900.15	224.89
900.46	224.92
900.76	224.92
901.07	224.88
901.38	224.87
901.68	224.89
901.99	224.83
902.29	224.82
902.60	224.81
902.90	224.77
903.21	224.74
903.51	224.70
903.82	224.71
904.12	224.70
904.43	224.71
904.73	224.67
905.03	224.68
905.34	224.75
905.64	224.68
905.95	224.66
906.25	224.64
906.56	224.64
906.86	224.63
907.17	224.64
907.47	224.65
907.77	224.63
908.08	224.60
908.38	224.61
908.69	224.62
908.99	224.62
909.30	224.65
909.60	224.67
909.90	224.69
910.21	224.67
910.51	224.66
910.81	224.66
911.12	224.69
911.42	224.69
911.73	224.62
912.03	224.69
912.33	224.74
912.64	224.73
912.94	224.73
913.24	224.73
913.55	224.70
913.85	224.69
914.15	224.72
914.46	224.72
914.76	224.71
915.06	224.70
915.37	224.69
915.67	224.66
915.97	224.63
916.27	224.61
916.58	224.58
916.88	224.58
917.18	224.58
917.49	224.65
917.79	224.65
918.09	224.66
918.39	224.68
918.70	224.66
919.00	224.70
919.30	224.71
919.60	224.70
919.91	224.69
920.21	224.70
920.51	224.68
920.81	224.71
921.12	224.76
921.42	224.77
921.72	224.75
922.02	224.78
922.32	224.82
922.63	224.82
922.93	224.92
923.23	224.93
923.53	224.92
923.83	224.83
924.13	224.84
924.44	224.80
924.74	224.85
925.04	224.88
925.34	224.87
925.64	224.86
925.94	224.86
926.24	224.93
926.55	224.92
926.85	224.96
927.15	224.95
927.45	224.93
927.75	224.94
928.05	224.96
928.35	224.96
928.65	224.98
928.95	224.97
929.26	224.93
929.56	224.95
929.86	225.00
930.16	225.00
930.46	225.00
930.76	225.03
931.06	225.00
931.36	224.97
931.66	225.00
931.96	225.02
932.26	225.03
932.56	225.00
932.86	224.99
933.16	225.00
933.46	224.95
933.76	224.95
934.06	224.98
934.36	225.01
934.66	224.98
934.96	224.96
935.26	224.97
935.56	224.95
935.86	224.93
936.16	224.87
936.46	224.89
936.76	224.89
937.06	224.89
937.36	224.85
937.66	224.85
937.96	224.85
938.26	224.79
938.56	224.77
938.86	224.75
939.16	224.81
939.46	224.78
939.76	224.80
940.06	224.78
940.35	224.74
940.65	224.69
940.95	224.68
941.25	224.66
941.55	224.68
941.85	224.71
942.15	224.72
942.45	224.76
942.75	224.73
943.04	224.74
943.34	224.73
943.64	224.72
943.94	224.70
944.24	224.63
944.54	224.65
944.84	224.67
945.13	224.69
945.43	224.66
945.73	224.64
946.03	224.62
946.33	224.59
946.62	224.60
946.92	224.59
947.22	224.60
947.52	224.58
947.82	224.54
948.11	224.48
948.41	224.43
948.71	224.39
949.01	224.35
949.31	224.30
949.60	224.27
949.90	224.26
950.20	224.25
950.50	224.26
950.79	224.22
951.09	224.18
951.39	224.14
951.69	224.12
951.98	224.16
952.28	224.15
952.58	224.15
952.87	224.14
953.17	224.17
953.47	224.18
953.76	224.17
954.06	224.15
954.36	224.16
954.66	224.19
954.95	224.20
955.25	224.25
955.55	224.29
955.84	224.29
956.14	224.34
956.44	224.32
956.73	224.31
957.03	224.32
957.32	224.32
957.62	224.29
957.92	224.31
958.21	224.27
958.51	224.38
958.81	224.45
959.10	224.47
959.40	224.44
959.69	224.46
959.99	224.47
960.29	224.51
960.58	224.49
960.88	224.50
961.17	224.46
961.47	224.47
961.76	224.46
962.06	224.48
962.36	224.43
962.65	224.47
962.95	224.46
963.24	224.49
963.54	224.50
963.83	224.54
964.13	224.54
964.42	224.50
964.72	224.44
965.01	224.41
965.31	224.39
965.60	224.41
965.90	224.43
966.19	224.38
966.49	224.39
966.78	224.41
967.08	224.39
967.37	224.42
967.67	224.38
967.96	224.38
968.26	224.37
968.55	224.40
968.85	224.40
969.14	224.43
969.43	224.44
969.73	224.44
970.02	224.49
970.32	224.50
970.61	224.52
970.91	224.51
971.20	224.50
971.49	224.51
971.79	224.52
972.08	224.49
972.38	224.54
972.67	224.50
972.96	224.53
973.26	224.52
973.55	224.58
973.85	224.60
974.14	224.61
974.43	224.63
974.73	224.62
975.02	224.62
975.31	224.62
975.61	224.60
975.90	224.61
976.19	224.59
976.49	224.59
976.78	224.60
977.07	224.59
977.37	224.62
977.66	224.62
977.95	224.62
978.24	224.64
978.54	224.66
978.83	224.67
979.12	224.67
979.42	224.70
979.71	224.67
980.00	224.66
980.29	224.68
980.59	224.67
980.88	224.69
981.17	224.68
981.46	224.68
981.76	224.69
982.05	224.72
982.34	224.70
982.63	224.70
982.93	224.70
983.22	224.71
983.51	224.69
983.80	224.72
984.09	224.71
984.39	224.70
984.68	224.69
984.97	224.70
985.26	224.71
985.55	224.68
985.85	224.63
986.14	224.63
986.43	224.64
986.72	224.63
987.01	224.58
987.30	224.57
987.59	224.55
987.89	224.53
988.18	224.49
988.47	224.47
988.76	224.46
989.05	224.50
989.34	224.48
989.63	224.52
989.92	224.50
990.22	224.47
990.51	224.42
990.80	224.42
991.09	224.45
991.38	224.46
991.67	224.46
991.96	224.47
992.25	224.47
992.54	224.45
992.83	224.44
993.12	224.42
993.41	224.43
993.70	224.49
993.99	224.54
994.28	224.55
994.58	224.60
994.87	224.59
995.16	224.56
995.45	224.54
995.74	224.50
996.03	224.50
996.32	224.51
996.61	224.56
996.90	224.55
997.19	224.50
997.48	224.51
997.77	224.51
998.06	224.50
998.34	224.50
998.63	224.48
998.92	224.51
999.21	224.55
999.50	224.56
999.79	224.49
1000.08	224.47
1000.37	224.47
1000.66	224.44
1000.95	224.49
1001.24	224.49
1001.53	224.55
1001.82	224.55
1002.11	224.59
1002.40	224.62
1002.68	224.64
1002.97	224.71
1003.26	224.72
1003.55	224.72
1003.84	224.70
1004.13	224.77
1004.42	224.80
1004.71	224.81
1004.99	224.81
1005.28	224.85
1005.57	224.86
1005.86	224.87
1006.15	224.86
1006.44	224.86
1006.72	224.87
1007.01	224.83
1007.30	224.85
1007.59	224.83
1007.88	224.82
1008.17	224.78
1008.45	224.74
1008.74	224.68
1009.03	224.63
1009.32	224.63
1009.60	224.62
1009.89	224.64
1010.18	224.57
1010.47	224.54
1010.76	224.52
1011.04	224.51
1011.33	224.46
1011.62	224.49
1011.91	224.52
1012.19	224.53
1012.48	224.52
1012.77	224.49
1013.05	224.54
1013.34	224.53
1013.63	224.52
1013.92	224.51
1014.20	224.50
1014.49	224.53
1014.78	224.55
1015.06	224.52
1015.35	224.52
1015.64	224.51
1015.92	224.50
1016.21	224.51
1016.50	224.54
1016.78	224.56
1017.07	224.54
1017.36	224.56
1017.64	224.50
1017.93	224.50
1018.22	224.48
1018.50	224.49
1018.79	224.49
1019.08	224.44
1019.36	224.43
1019.65	224.42
1019.93	224.43
1020.22	224.47
1020.51	224.51
1020.79	224.48
1021.08	224.33
1021.36	224.52
1021.65	224.16
1021.94	224.37
1022.22	224.58
1022.51	224.11
1022.79	224.66
1023.08	224.81
1023.36	225.85
1023.65	223.96
>>>>>End Processed Spectral Data<<<<<
