SpectraSuite Data File
++++++++++++++++++++++++++++++++++++
Date: Fri Feb 01 16:17:39 EST 2013
User: group
Dark Spectrum Present: No
Reference Spectrum Present: No
Number of Sampled Component Spectra: 1
Spectrometers: USB2E7196
Integration Time (usec): 35000 (USB2E7196)
Spectra Averaged: 100 (USB2E7196)
Boxcar Smoothing: 10 (USB2E7196)
Correct for Electrical Dark: No (USB2E7196)
Strobe/Lamp Enabled: No (USB2E7196)
Correct for Detector Non-linearity: No (USB2E7196)
Correct for Stray Light: No (USB2E7196)
Number of Pixels in Processed Spectrum: 2048
>>>>>Begin Processed Spectral Data<<<<<
339.09	0.00
339.48	214.14
339.86	215.47
340.24	216.35
340.63	218.32
341.01	221.29
341.39	220.99
341.78	222.11
342.16	223.09
342.54	223.91
342.93	212.33
343.31	223.05
343.69	223.55
344.07	224.03
344.46	224.46
344.84	224.82
345.22	225.04
345.60	225.28
345.99	225.44
346.37	225.58
346.75	225.67
347.13	225.72
347.52	225.79
347.90	225.88
348.28	225.91
348.66	225.97
349.05	225.94
349.43	225.96
349.81	225.99
350.19	226.05
350.57	226.14
350.96	226.24
351.34	226.33
351.72	226.47
352.10	226.56
352.48	226.66
352.87	226.74
353.25	226.83
353.63	226.88
354.01	226.99
354.39	227.08
354.77	227.18
355.15	227.28
355.54	227.34
355.92	227.37
356.30	227.47
356.68	227.60
357.06	227.72
357.44	227.76
357.82	227.84
358.20	227.95
358.58	227.99
358.97	228.08
359.35	228.17
359.73	228.22
360.11	228.30
360.49	228.37
360.87	228.43
361.25	228.50
361.63	228.58
362.01	228.64
362.39	228.69
362.77	228.71
363.15	228.74
363.53	228.79
363.91	228.84
364.29	228.86
364.67	228.79
365.05	228.80
365.43	228.87
365.81	228.89
366.19	228.91
366.57	228.97
366.95	228.98
367.33	228.97
367.71	228.97
368.09	228.96
368.47	228.93
368.85	228.93
369.23	228.92
369.61	228.90
369.99	228.90
370.37	228.91
370.75	228.93
371.13	228.86
371.51	228.84
371.89	228.78
372.27	228.73
372.65	228.73
373.03	228.66
373.41	228.60
373.78	228.51
374.16	228.41
374.54	228.36
374.92	228.26
375.30	228.20
375.68	228.08
376.06	228.01
376.44	227.93
376.82	227.85
377.19	227.75
377.57	227.69
377.95	227.59
378.33	227.45
378.71	227.35
379.09	227.29
379.47	227.22
379.84	227.13
380.22	227.05
380.60	226.95
380.98	226.90
381.36	226.79
381.73	226.72
382.11	226.68
382.49	226.58
382.87	226.53
383.25	226.45
383.62	226.53
384.00	226.44
384.38	226.40
384.76	226.36
385.13	226.35
385.51	226.27
385.89	226.22
386.27	226.18
386.64	226.15
387.02	226.10
387.40	226.02
387.78	226.00
388.15	225.96
388.53	225.89
388.91	225.82
389.29	225.80
389.66	225.80
390.04	225.75
390.42	225.73
390.79	225.67
391.17	225.66
391.55	225.54
391.92	225.52
392.30	225.50
392.68	225.46
393.05	225.43
393.43	225.44
393.81	225.47
394.18	225.48
394.56	225.45
394.94	225.50
395.31	225.51
395.69	225.51
396.06	225.53
396.44	225.60
396.82	225.65
397.19	225.74
397.57	225.73
397.95	225.78
398.32	225.79
398.70	225.89
399.07	225.93
399.45	225.96
399.82	226.04
400.20	226.10
400.58	226.15
400.95	226.18
401.33	226.24
401.70	226.32
402.08	226.40
402.45	226.52
402.83	226.64
403.20	226.74
403.58	226.85
403.95	226.99
404.33	227.07
404.71	227.16
405.08	227.32
405.46	227.46
405.83	227.59
406.21	227.74
406.58	227.89
406.96	228.08
407.33	228.30
407.70	228.47
408.08	228.74
408.45	228.97
408.83	229.21
409.20	229.46
409.58	229.64
409.95	229.88
410.33	230.13
410.70	230.35
411.08	230.64
411.45	230.92
411.82	231.24
412.20	231.62
412.57	232.05
412.95	232.35
413.32	232.78
413.69	233.21
414.07	233.66
414.44	234.09
414.82	234.55
415.19	235.06
415.56	235.59
415.94	236.13
416.31	236.79
416.68	237.42
417.06	238.10
417.43	238.78
417.81	239.58
418.18	240.36
418.55	241.21
418.93	242.09
419.30	242.98
419.67	243.87
420.04	244.82
420.42	245.80
420.79	247.01
421.16	248.15
421.54	249.35
421.91	250.55
422.28	251.82
422.66	253.17
423.03	254.48
423.40	255.84
423.77	257.25
424.15	258.67
424.52	260.17
424.89	261.80
425.26	263.39
425.64	264.83
426.01	266.44
426.38	268.09
426.75	269.79
427.13	271.55
427.50	273.38
427.87	275.28
428.24	277.15
428.61	278.87
428.99	280.85
429.36	282.93
429.73	285.02
430.10	287.04
430.47	289.09
430.85	291.23
431.22	293.47
431.59	295.85
431.96	298.10
432.33	300.58
432.70	302.96
433.08	305.77
433.45	308.42
433.82	311.00
434.19	313.91
434.56	316.70
434.93	319.34
435.30	322.00
435.68	324.84
436.05	327.68
436.42	330.49
436.79	332.98
437.16	335.64
437.53	338.50
437.90	341.29
438.27	344.03
438.64	346.83
439.01	349.42
439.38	351.62
439.75	353.76
440.13	356.26
440.50	358.56
440.87	360.36
441.24	362.28
441.61	364.44
441.98	365.89
442.35	367.64
442.72	369.50
443.09	371.26
443.46	372.25
443.83	372.81
444.20	373.27
444.57	374.12
444.94	374.45
445.31	374.73
445.68	375.10
446.05	375.16
446.42	374.77
446.79	374.35
447.16	373.91
447.53	373.59
447.90	372.37
448.27	371.20
448.64	369.63
449.01	368.52
449.37	366.56
449.74	364.66
450.11	362.44
450.48	359.96
450.85	357.39
451.22	355.23
451.59	353.20
451.96	351.25
452.33	348.64
452.70	346.22
453.07	343.41
453.43	340.50
453.80	337.68
454.17	334.99
454.54	332.41
454.91	329.72
455.28	327.03
455.65	324.58
456.02	322.18
456.38	320.02
456.75	317.37
457.12	315.10
457.49	312.90
457.86	310.73
458.23	308.89
458.59	306.87
458.96	304.82
459.33	303.02
459.70	301.17
460.07	299.67
460.43	297.98
460.80	296.34
461.17	294.94
461.54	293.51
461.91	292.14
462.27	290.70
462.64	289.44
463.01	288.11
463.38	286.85
463.74	285.48
464.11	284.37
464.48	283.34
464.85	282.26
465.21	281.37
465.58	280.48
465.95	279.35
466.32	278.49
466.68	277.62
467.05	276.71
467.42	275.85
467.78	274.96
468.15	274.08
468.52	273.44
468.88	272.58
469.25	271.79
469.62	271.14
469.98	270.52
470.35	269.90
470.72	269.34
471.08	268.67
471.45	268.14
471.82	267.59
472.18	267.01
472.55	266.59
472.92	266.10
473.28	265.68
473.65	265.28
474.02	264.82
474.38	264.45
474.75	264.16
475.11	263.78
475.48	263.51
475.85	263.34
476.21	263.14
476.58	262.97
476.94	262.86
477.31	262.74
477.67	262.52
478.04	262.47
478.41	262.39
478.77	262.45
479.14	262.39
479.50	262.42
479.87	262.48
480.23	262.56
480.60	262.59
480.96	262.68
481.33	262.89
481.69	263.12
482.06	263.28
482.42	263.48
482.79	263.77
483.15	264.10
483.52	264.47
483.88	264.81
484.25	265.21
484.61	265.62
484.98	266.08
485.34	266.71
485.71	267.26
486.07	267.83
486.44	268.36
486.80	269.09
487.17	269.78
487.53	270.61
487.90	271.47
488.26	272.43
488.62	273.43
488.99	274.41
489.35	275.46
489.72	276.62
490.08	277.83
490.44	279.10
490.81	280.42
491.17	281.74
491.54	283.20
491.90	284.74
492.26	286.39
492.63	288.09
492.99	289.84
493.36	291.76
493.72	293.84
494.08	295.98
494.45	298.24
494.81	300.61
495.17	303.01
495.54	305.55
495.90	308.26
496.26	311.00
496.63	313.94
496.99	317.01
497.35	320.25
497.72	323.64
498.08	327.11
498.44	330.83
498.80	334.77
499.17	338.79
499.53	342.96
499.89	347.36
500.26	351.88
500.62	356.55
500.98	361.50
501.34	366.58
501.71	371.87
502.07	377.31
502.43	382.97
502.79	388.84
503.16	394.96
503.52	401.23
503.88	407.67
504.24	414.34
504.60	421.26
504.97	428.44
505.33	435.70
505.69	443.42
506.05	451.19
506.41	459.09
506.78	467.31
507.14	475.74
507.50	484.48
507.86	493.47
508.22	502.73
508.59	511.95
508.95	521.56
509.31	531.41
509.67	541.56
510.03	551.80
510.39	562.38
510.75	573.20
511.12	584.11
511.48	595.45
511.84	606.94
512.20	618.51
512.56	630.44
512.92	642.71
513.28	655.10
513.64	667.60
514.00	680.37
514.37	693.40
514.73	706.51
515.09	719.52
515.45	732.81
515.81	746.32
516.17	760.39
516.53	774.54
516.89	788.77
517.25	802.89
517.61	817.36
517.97	831.76
518.33	846.10
518.69	860.79
519.05	875.84
519.41	891.02
519.77	906.54
520.13	922.02
520.49	937.36
520.85	952.74
521.21	968.34
521.57	984.47
521.93	1000.16
522.29	1016.49
522.65	1032.69
523.01	1048.84
523.37	1064.91
523.73	1081.02
524.09	1097.00
524.45	1113.23
524.81	1129.82
525.17	1146.57
525.53	1163.51
525.89	1180.38
526.25	1197.17
526.61	1213.37
526.97	1230.01
527.33	1246.45
527.68	1263.01
528.04	1279.35
528.40	1295.79
528.76	1312.95
529.12	1329.58
529.48	1346.44
529.84	1362.47
530.20	1379.09
530.56	1396.07
530.91	1413.37
531.27	1429.98
531.63	1446.48
531.99	1463.01
532.35	1478.92
532.71	1494.75
533.07	1510.90
533.42	1526.75
533.78	1542.92
534.14	1559.23
534.50	1574.54
534.86	1590.40
535.21	1605.42
535.57	1621.37
535.93	1636.88
536.29	1651.59
536.65	1666.49
537.00	1681.09
537.36	1696.22
537.72	1710.75
538.08	1725.14
538.44	1738.86
538.79	1752.79
539.15	1766.32
539.51	1779.99
539.87	1794.16
540.22	1807.86
540.58	1821.56
540.94	1834.76
541.29	1847.45
541.65	1859.98
542.01	1873.12
542.37	1885.26
542.72	1897.73
543.08	1909.55
543.44	1921.93
543.79	1933.07
544.15	1944.03
544.51	1955.63
544.87	1966.64
545.22	1977.29
545.58	1987.46
545.94	1997.29
546.29	2007.08
546.65	2016.95
547.01	2026.18
547.36	2034.85
547.72	2043.27
548.07	2051.09
548.43	2059.34
548.79	2067.37
549.14	2074.87
549.50	2082.05
549.86	2089.67
550.21	2096.93
550.57	2104.12
550.92	2110.56
551.28	2117.63
551.64	2124.60
551.99	2131.04
552.35	2137.10
552.70	2143.36
553.06	2149.51
553.41	2155.84
553.77	2161.82
554.13	2167.90
554.48	2174.01
554.84	2179.66
555.19	2184.92
555.55	2190.10
555.90	2194.52
556.26	2199.30
556.61	2204.10
556.97	2208.56
557.32	2212.72
557.68	2216.69
558.03	2220.90
558.39	2224.63
558.74	2229.28
559.10	2233.21
559.45	2236.90
559.81	2241.12
560.16	2244.97
560.52	2248.11
560.87	2251.46
561.23	2254.11
561.58	2257.06
561.94	2259.55
562.29	2261.96
562.64	2264.73
563.00	2267.31
563.35	2270.76
563.71	2273.98
564.06	2277.19
564.42	2280.01
564.77	2282.66
565.12	2285.16
565.48	2287.07
565.83	2289.11
566.19	2290.43
566.54	2291.38
566.89	2292.51
567.25	2293.20
567.60	2294.39
567.96	2295.96
568.31	2296.83
568.66	2297.87
569.02	2298.43
569.37	2298.96
569.72	2299.88
570.08	2299.93
570.43	2299.97
570.78	2299.40
571.14	2297.96
571.49	2296.70
571.84	2296.39
572.20	2295.22
572.55	2294.19
572.90	2292.66
573.26	2291.33
573.61	2289.50
573.96	2287.71
574.31	2284.88
574.67	2281.90
575.02	2278.44
575.37	2275.20
575.72	2271.33
576.08	2268.11
576.43	2264.82
576.78	2260.99
577.13	2257.76
577.49	2254.79
577.84	2251.43
578.19	2247.84
578.54	2244.19
578.90	2239.88
579.25	2234.34
579.60	2229.40
579.95	2224.45
580.30	2219.48
580.66	2214.23
581.01	2209.38
581.36	2204.63
581.71	2200.36
582.06	2196.04
582.42	2191.59
582.77	2186.30
583.12	2181.98
583.47	2177.30
583.82	2172.37
584.17	2167.25
584.53	2161.61
584.88	2155.98
585.23	2150.23
585.58	2144.70
585.93	2139.20
586.28	2134.57
586.63	2129.59
586.98	2124.54
587.34	2119.78
587.69	2114.94
588.04	2109.79
588.39	2104.13
588.74	2097.57
589.09	2091.46
589.44	2084.64
589.79	2078.57
590.14	2073.06
590.49	2066.50
590.84	2060.14
591.19	2054.19
591.54	2047.68
591.89	2040.49
592.25	2033.70
592.60	2026.48
592.95	2018.98
593.30	2011.71
593.65	2004.10
594.00	1997.09
594.35	1989.95
594.70	1981.95
595.05	1974.72
595.40	1967.49
595.75	1960.05
596.10	1954.06
596.45	1947.36
596.80	1941.29
597.15	1934.70
597.50	1927.65
597.85	1921.19
598.19	1914.54
598.54	1907.45
598.89	1900.90
599.24	1895.07
599.59	1888.36
599.94	1882.21
600.29	1875.86
600.64	1869.29
600.99	1861.93
601.34	1855.15
601.69	1848.04
602.04	1841.18
602.39	1833.88
602.74	1827.12
603.08	1820.50
603.43	1813.76
603.78	1806.56
604.13	1799.25
604.48	1791.98
604.83	1785.02
605.18	1778.03
605.53	1770.04
605.87	1761.99
606.22	1754.63
606.57	1746.67
606.92	1739.40
607.27	1732.14
607.62	1725.21
607.96	1717.99
608.31	1711.42
608.66	1703.82
609.01	1696.48
609.36	1688.87
609.70	1680.89
610.05	1672.66
610.40	1664.90
610.75	1656.50
611.10	1648.80
611.44	1640.41
611.79	1632.49
612.14	1623.86
612.49	1614.68
612.83	1606.37
613.18	1598.33
613.53	1590.30
613.88	1581.66
614.22	1573.44
614.57	1564.82
614.92	1556.87
615.27	1549.27
615.61	1541.00
615.96	1532.94
616.31	1525.10
616.65	1517.76
617.00	1510.11
617.35	1502.45
617.70	1494.09
618.04	1485.51
618.39	1477.27
618.74	1469.79
619.08	1461.35
619.43	1453.68
619.78	1446.78
620.12	1439.59
620.47	1432.02
620.82	1423.88
621.16	1416.59
621.51	1409.04
621.85	1401.56
622.20	1393.04
622.55	1384.79
622.89	1376.85
623.24	1369.24
623.59	1361.94
623.93	1354.41
624.28	1347.26
624.62	1339.78
624.97	1332.65
625.32	1325.97
625.66	1319.03
626.01	1311.88
626.35	1304.45
626.70	1296.79
627.04	1289.06
627.39	1281.23
627.73	1273.78
628.08	1266.78
628.43	1259.39
628.77	1251.92
629.12	1244.28
629.46	1237.13
629.81	1229.67
630.15	1222.45
630.50	1214.92
630.84	1206.70
631.19	1198.78
631.53	1191.18
631.88	1183.55
632.22	1175.87
632.57	1168.46
632.91	1160.82
633.26	1153.20
633.60	1145.92
633.95	1138.79
634.29	1131.74
634.64	1125.06
634.98	1117.69
635.32	1110.63
635.67	1104.05
636.01	1097.36
636.36	1090.55
636.70	1083.90
637.05	1077.30
637.39	1070.76
637.73	1064.35
638.08	1058.45
638.42	1052.45
638.77	1045.96
639.11	1039.33
639.45	1032.89
639.80	1026.17
640.14	1019.76
640.49	1013.36
640.83	1007.03
641.17	1000.83
641.52	994.48
641.86	988.02
642.20	982.12
642.55	975.73
642.89	969.19
643.23	962.67
643.58	956.97
643.92	950.78
644.26	944.76
644.61	938.76
644.95	932.74
645.29	926.15
645.64	919.44
645.98	913.19
646.32	907.42
646.66	901.43
647.01	895.72
647.35	889.99
647.69	884.10
648.04	878.53
648.38	872.65
648.72	866.64
649.06	860.57
649.41	854.79
649.75	848.86
650.09	842.96
650.43	837.22
650.78	830.97
651.12	825.02
651.46	819.25
651.80	813.44
652.14	808.04
652.49	802.73
652.83	797.50
653.17	791.74
653.51	785.95
653.85	780.57
654.20	774.92
654.54	768.87
654.88	763.17
655.22	757.28
655.56	751.60
655.90	746.17
656.25	740.92
656.59	735.46
656.93	730.38
657.27	725.29
657.61	719.83
657.95	714.73
658.29	709.66
658.64	704.38
658.98	699.06
659.32	693.56
659.66	688.33
660.00	683.04
660.34	678.14
660.68	673.32
661.02	668.31
661.36	663.56
661.70	659.13
662.05	654.69
662.39	650.36
662.73	645.91
663.07	641.56
663.41	637.07
663.75	632.53
664.09	627.93
664.43	623.49
664.77	619.38
665.11	615.11
665.45	611.00
665.79	606.97
666.13	602.87
666.47	598.82
666.81	594.65
667.15	590.53
667.49	586.55
667.83	582.71
668.17	578.72
668.51	574.64
668.85	570.57
669.19	566.76
669.53	562.85
669.87	558.99
670.21	555.22
670.55	551.68
670.89	548.30
671.23	544.86
671.57	541.30
671.91	537.72
672.25	534.24
672.58	530.68
672.92	527.19
673.26	523.95
673.60	520.74
673.94	517.56
674.28	514.62
674.62	511.68
674.96	508.52
675.30	505.59
675.64	502.63
675.97	499.80
676.31	496.94
676.65	494.00
676.99	491.28
677.33	488.38
677.67	485.47
678.01	482.41
678.34	479.44
678.68	476.56
679.02	473.70
679.36	470.92
679.70	468.17
680.04	465.43
680.37	462.55
680.71	459.81
681.05	457.17
681.39	454.45
681.73	451.78
682.06	449.28
682.40	446.75
682.74	444.26
683.08	441.74
683.42	439.12
683.75	436.65
684.09	434.05
684.43	431.63
684.77	429.21
685.10	426.92
685.44	424.62
685.78	422.32
686.12	420.07
686.45	417.72
686.79	415.45
687.13	413.31
687.46	411.14
687.80	408.95
688.14	406.80
688.48	404.77
688.81	402.54
689.15	400.34
689.49	398.19
689.82	396.10
690.16	394.04
690.50	392.11
690.83	390.16
691.17	388.22
691.51	386.31
691.84	384.46
692.18	382.46
692.52	380.48
692.85	378.53
693.19	376.67
693.52	374.87
693.86	373.05
694.20	371.22
694.53	369.44
694.87	367.61
695.21	365.82
695.54	363.97
695.88	362.29
696.21	360.62
696.55	358.96
696.88	357.25
697.22	355.60
697.56	353.98
697.89	352.36
698.23	350.76
698.56	349.15
698.90	347.52
699.23	345.91
699.57	344.36
699.90	342.87
700.24	341.37
700.58	339.85
700.91	338.36
701.25	336.92
701.58	335.57
701.92	334.22
702.25	332.84
702.59	331.48
702.92	330.13
703.26	328.79
703.59	327.53
703.93	326.37
704.26	325.07
704.60	323.73
704.93	322.45
705.26	321.20
705.60	320.05
705.93	318.92
706.27	317.89
706.60	316.81
706.94	315.72
707.27	314.53
707.61	313.46
707.94	312.45
708.27	311.39
708.61	310.29
708.94	309.25
709.28	308.24
709.61	307.26
709.94	306.28
710.28	305.29
710.61	304.26
710.95	303.18
711.28	302.24
711.61	301.33
711.95	300.40
712.28	299.42
712.61	298.39
712.95	297.42
713.28	296.53
713.61	295.63
713.95	294.74
714.28	293.92
714.61	293.01
714.95	292.11
715.28	291.26
715.61	290.35
715.95	289.48
716.28	288.61
716.61	287.77
716.95	286.96
717.28	286.19
717.61	285.43
717.94	284.69
718.28	283.90
718.61	283.17
718.94	282.47
719.27	281.82
719.61	281.19
719.94	280.54
720.27	279.83
720.60	279.18
720.94	278.56
721.27	277.92
721.60	277.36
721.93	276.76
722.27	276.16
722.60	275.64
722.93	275.09
723.26	274.55
723.59	273.95
723.93	273.42
724.26	272.82
724.59	272.26
724.92	271.73
725.25	271.23
725.59	270.72
725.92	270.17
726.25	269.64
726.58	269.17
726.91	268.70
727.24	268.18
727.57	267.70
727.91	267.18
728.24	266.75
728.57	266.28
728.90	265.87
729.23	265.36
729.56	264.94
729.89	264.46
730.22	263.94
730.55	263.49
730.89	263.05
731.22	262.65
731.55	262.24
731.88	261.81
732.21	261.38
732.54	260.95
732.87	260.53
733.20	260.14
733.53	259.75
733.86	259.39
734.19	259.02
734.52	258.63
734.85	258.33
735.18	257.91
735.51	257.53
735.84	257.13
736.17	256.81
736.50	256.36
736.83	256.13
737.16	255.86
737.49	255.57
737.82	255.21
738.15	254.88
738.48	254.51
738.81	254.21
739.14	253.91
739.47	253.59
739.80	253.34
740.13	253.07
740.46	252.72
740.79	252.39
741.12	252.11
741.45	251.80
741.78	251.45
742.11	251.15
742.44	250.85
742.77	250.60
743.10	250.26
743.43	249.99
743.75	249.61
744.08	249.46
744.41	249.19
744.74	248.92
745.07	248.62
745.40	248.38
745.73	248.16
746.06	247.89
746.39	247.60
746.71	247.32
747.04	247.01
747.37	246.74
747.70	246.46
748.03	246.19
748.36	245.98
748.68	245.74
749.01	245.52
749.34	245.29
749.67	245.05
750.00	244.86
750.33	244.73
750.65	244.50
750.98	244.15
751.31	243.91
751.64	243.71
751.97	243.58
752.29	243.37
752.62	243.11
752.95	242.91
753.28	242.72
753.60	242.46
753.93	242.30
754.26	242.11
754.59	241.90
754.91	241.68
755.24	241.48
755.57	241.24
755.90	241.02
756.22	240.78
756.55	240.55
756.88	240.38
757.20	240.12
757.53	239.91
757.86	239.72
758.19	239.57
758.51	239.37
758.84	239.13
759.17	238.94
759.49	238.77
759.82	238.60
760.15	238.46
760.47	238.35
760.80	238.16
761.13	238.02
761.45	237.87
761.78	237.74
762.11	237.58
762.43	237.44
762.76	237.31
763.08	237.22
763.41	237.10
763.74	236.94
764.06	236.80
764.39	236.70
764.71	236.60
765.04	236.44
765.37	236.32
765.69	236.22
766.02	236.09
766.34	235.94
766.67	235.81
767.00	235.67
767.32	235.60
767.65	235.53
767.97	235.44
768.30	235.32
768.62	235.19
768.95	235.07
769.27	234.97
769.60	234.87
769.92	234.75
770.25	234.65
770.57	234.53
770.90	234.44
771.22	234.32
771.55	234.19
771.87	234.12
772.20	234.01
772.52	234.01
772.85	234.06
773.17	233.99
773.50	233.90
773.82	233.81
774.15	233.68
774.47	233.56
774.80	233.45
775.12	233.36
775.45	233.29
775.77	233.21
776.09	233.16
776.42	233.11
776.74	233.06
777.07	232.98
777.39	232.91
777.72	232.83
778.04	232.76
778.36	232.71
778.69	232.63
779.01	232.62
779.33	232.47
779.66	232.24
779.98	232.19
780.31	232.14
780.63	232.11
780.95	232.05
781.28	231.99
781.60	231.93
781.92	231.87
782.25	231.83
782.57	231.76
782.89	231.67
783.22	231.61
783.54	231.53
783.86	231.46
784.19	231.39
784.51	231.36
784.83	231.33
785.16	231.24
785.48	231.20
785.80	231.14
786.12	231.04
786.45	231.03
786.77	230.96
787.09	230.89
787.42	230.79
787.74	230.73
788.06	230.66
788.38	230.62
788.71	230.58
789.03	230.55
789.35	230.53
789.67	230.52
789.99	230.44
790.32	230.41
790.64	230.40
790.96	230.42
791.28	230.36
791.61	230.32
791.93	230.29
792.25	230.25
792.57	230.25
792.89	230.25
793.21	230.21
793.54	230.16
793.86	230.12
794.18	230.08
794.50	230.06
794.82	230.02
795.14	229.97
795.47	229.94
795.79	229.90
796.11	229.81
796.43	229.73
796.75	229.71
797.07	229.65
797.39	229.60
797.71	229.49
798.04	229.45
798.36	229.39
798.68	229.38
799.00	229.33
799.32	229.25
799.64	229.21
799.96	229.18
800.28	229.17
800.60	229.15
800.92	229.13
801.24	229.11
801.56	229.11
801.89	229.06
802.21	229.05
802.53	229.01
802.85	229.01
803.17	229.05
803.49	229.01
803.81	228.97
804.13	228.98
804.45	228.97
804.77	228.98
805.09	228.94
805.41	228.89
805.73	228.89
806.05	228.85
806.37	228.80
806.69	228.77
807.01	228.74
807.33	228.71
807.65	228.67
807.97	228.67
808.28	228.61
808.60	228.62
808.92	228.57
809.24	228.61
809.56	228.58
809.88	228.53
810.20	228.51
810.52	228.49
810.84	228.43
811.16	228.42
811.48	228.38
811.80	228.41
812.12	228.37
812.43	228.36
812.75	228.33
813.07	228.32
813.39	228.31
813.71	228.27
814.03	228.24
814.35	228.24
814.67	228.17
814.98	228.14
815.30	228.10
815.62	228.09
815.94	227.98
816.26	227.98
816.58	227.92
816.89	227.92
817.21	227.89
817.53	227.88
817.85	227.84
818.17	227.83
818.48	227.78
818.80	227.80
819.12	227.76
819.44	227.72
819.76	227.67
820.07	227.67
820.39	227.67
820.71	227.67
821.03	227.67
821.34	227.67
821.66	227.69
821.98	227.68
822.30	227.67
822.61	227.75
822.93	227.69
823.25	227.68
823.57	227.66
823.88	227.70
824.20	227.68
824.52	227.68
824.83	227.66
825.15	227.66
825.47	227.63
825.79	227.66
826.10	227.65
826.42	227.67
826.74	227.66
827.05	227.64
827.37	227.63
827.69	227.59
828.00	227.55
828.32	227.56
828.64	227.55
828.95	227.62
829.27	227.58
829.58	227.58
829.90	227.60
830.22	227.62
830.53	227.53
830.85	227.53
831.17	227.49
831.48	227.45
831.80	227.42
832.11	227.40
832.43	227.33
832.75	227.32
833.06	227.35
833.38	227.32
833.69	227.30
834.01	227.32
834.32	227.27
834.64	227.29
834.96	227.23
835.27	227.23
835.59	227.16
835.90	227.10
836.22	227.10
836.53	227.05
836.85	227.04
837.16	227.18
837.48	227.15
837.79	227.20
838.11	227.21
838.42	227.22
838.74	227.21
839.05	227.22
839.37	227.19
839.68	227.13
840.00	227.08
840.31	227.09
840.63	227.06
840.94	227.09
841.26	227.04
841.57	227.07
841.88	227.04
842.20	227.01
842.51	226.99
842.83	227.00
843.14	227.09
843.46	227.07
843.77	226.97
844.08	226.96
844.40	226.94
844.71	226.93
845.03	226.89
845.34	226.88
845.65	226.88
845.97	226.87
846.28	226.86
846.60	226.88
846.91	226.83
847.22	226.81
847.54	226.80
847.85	226.80
848.16	226.76
848.48	226.74
848.79	226.78
849.10	226.81
849.42	226.78
849.73	226.70
850.04	226.66
850.36	226.65
850.67	226.65
850.98	226.64
851.30	226.65
851.61	226.64
851.92	226.64
852.23	226.64
852.55	226.65
852.86	226.66
853.17	226.69
853.49	226.73
853.80	226.78
854.11	226.79
854.42	226.84
854.74	226.85
855.05	226.86
855.36	226.80
855.67	226.79
855.99	226.81
856.30	226.90
856.61	226.91
856.92	226.88
857.23	226.90
857.55	226.88
857.86	226.86
858.17	226.88
858.48	226.85
858.79	226.84
859.11	226.88
859.42	226.91
859.73	226.85
860.04	226.83
860.35	226.74
860.66	226.71
860.98	226.68
861.29	226.67
861.60	226.67
861.91	226.71
862.22	226.68
862.53	226.65
862.84	226.57
863.16	226.64
863.47	226.64
863.78	226.59
864.09	226.61
864.40	226.63
864.71	226.63
865.02	226.67
865.33	226.66
865.64	226.63
865.95	226.63
866.27	226.73
866.58	226.74
866.89	226.79
867.20	226.80
867.51	226.81
867.82	226.80
868.13	226.84
868.44	226.80
868.75	226.82
869.06	226.83
869.37	226.82
869.68	226.76
869.99	226.77
870.30	226.82
870.61	226.81
870.92	226.80
871.23	226.78
871.54	226.77
871.85	226.81
872.16	226.82
872.47	226.81
872.78	226.75
873.09	226.77
873.40	226.74
873.71	226.77
874.02	226.75
874.33	226.77
874.64	226.73
874.95	226.78
875.26	226.74
875.56	226.71
875.87	226.72
876.18	226.71
876.49	226.81
876.80	226.78
877.11	226.74
877.42	226.70
877.73	226.72
878.04	226.70
878.35	226.68
878.66	226.66
878.96	226.66
879.27	226.64
879.58	226.63
879.89	226.62
880.20	226.62
880.51	226.58
880.82	226.55
881.12	226.56
881.43	226.50
881.74	226.52
882.05	226.56
882.36	226.57
882.67	226.59
882.97	226.45
883.28	226.44
883.59	226.47
883.90	226.48
884.21	226.50
884.51	226.50
884.82	226.47
885.13	226.46
885.44	226.42
885.74	226.39
886.05	226.37
886.36	226.39
886.67	226.33
886.98	226.42
887.28	226.42
887.59	226.41
887.90	226.37
888.20	226.39
888.51	226.38
888.82	226.34
889.13	226.37
889.43	226.45
889.74	226.43
890.05	226.41
890.35	226.40
890.66	226.38
890.97	226.36
891.28	226.36
891.58	226.35
891.89	226.33
892.20	226.34
892.50	226.31
892.81	226.30
893.12	226.28
893.42	226.21
893.73	226.22
894.04	226.20
894.34	226.21
894.65	226.17
894.95	226.14
895.26	226.13
895.57	226.14
895.87	226.05
896.18	226.06
896.48	226.07
896.79	226.08
897.10	226.11
897.40	226.11
897.71	226.13
898.01	226.15
898.32	226.21
898.63	226.23
898.93	226.27
899.24	226.29
899.54	226.33
899.85	226.33
900.15	226.31
900.46	226.30
900.76	226.34
901.07	226.35
901.38	226.34
901.68	226.35
901.99	226.29
902.29	226.33
902.60	226.35
902.90	226.34
903.21	226.33
903.51	226.28
903.82	226.32
904.12	226.27
904.43	226.28
904.73	226.27
905.03	226.25
905.34	226.35
905.64	226.31
905.95	226.29
906.25	226.28
906.56	226.30
906.86	226.33
907.17	226.31
907.47	226.30
907.77	226.30
908.08	226.30
908.38	226.31
908.69	226.34
908.99	226.35
909.30	226.35
909.60	226.33
909.90	226.35
910.21	226.35
910.51	226.35
910.81	226.32
911.12	226.32
911.42	226.30
911.73	226.18
912.03	226.19
912.33	226.20
912.64	226.21
912.94	226.18
913.24	226.19
913.55	226.19
913.85	226.19
914.15	226.20
914.46	226.18
914.76	226.17
915.06	226.10
915.37	226.08
915.67	226.06
915.97	226.07
916.27	226.06
916.58	226.02
916.88	226.03
917.18	226.01
917.49	226.07
917.79	226.08
918.09	226.08
918.39	226.09
918.70	226.12
919.00	226.12
919.30	226.14
919.60	226.13
919.91	226.12
920.21	226.14
920.51	226.11
920.81	226.11
921.12	226.11
921.42	226.14
921.72	226.16
922.02	226.16
922.32	226.18
922.63	226.17
922.93	226.23
923.23	226.22
923.53	226.22
923.83	226.17
924.13	226.18
924.44	226.17
924.74	226.21
925.04	226.24
925.34	226.25
925.64	226.25
925.94	226.22
926.24	226.27
926.55	226.28
926.85	226.32
927.15	226.33
927.45	226.29
927.75	226.28
928.05	226.28
928.35	226.28
928.65	226.29
928.95	226.29
929.26	226.21
929.56	226.21
929.86	226.20
930.16	226.20
930.46	226.17
930.76	226.18
931.06	226.11
931.36	226.05
931.66	226.05
931.96	226.05
932.26	226.08
932.56	226.01
932.86	225.98
933.16	225.96
933.46	225.95
933.76	225.98
934.06	226.01
934.36	226.02
934.66	226.03
934.96	226.02
935.26	226.02
935.56	226.09
935.86	226.09
936.16	226.09
936.46	226.06
936.76	226.06
937.06	226.03
937.36	226.04
937.66	226.09
937.96	226.08
938.26	226.08
938.56	226.07
938.86	226.08
939.16	226.10
939.46	226.12
939.76	226.13
940.06	226.12
940.35	226.10
940.65	226.07
940.95	226.06
941.25	226.03
941.55	226.05
941.85	226.01
942.15	226.01
942.45	226.05
942.75	226.05
943.04	226.08
943.34	226.11
943.64	226.08
943.94	226.03
944.24	226.05
944.54	226.03
944.84	226.03
945.13	226.01
945.43	226.01
945.73	226.01
946.03	226.00
946.33	225.99
946.62	225.96
946.92	225.96
947.22	225.95
947.52	225.97
947.82	225.96
948.11	225.98
948.41	225.98
948.71	225.94
949.01	225.95
949.31	225.93
949.60	225.93
949.90	225.94
950.20	225.95
950.50	225.96
950.79	225.95
951.09	225.96
951.39	225.98
951.69	225.95
951.98	225.97
952.28	225.98
952.58	225.97
952.87	225.99
953.17	226.00
953.47	226.00
953.76	226.00
954.06	226.01
954.36	225.98
954.66	226.02
954.95	226.05
955.25	226.07
955.55	226.06
955.84	226.04
956.14	226.04
956.44	226.03
956.73	226.01
957.03	226.02
957.32	226.02
957.62	226.01
957.92	226.02
958.21	226.00
958.51	226.12
958.81	226.13
959.10	226.14
959.40	226.16
959.69	226.16
959.99	226.15
960.29	226.12
960.58	226.12
960.88	226.10
961.17	226.07
961.47	226.06
961.76	226.06
962.06	226.11
962.36	226.06
962.65	226.07
962.95	226.09
963.24	226.08
963.54	226.09
963.83	226.10
964.13	226.10
964.42	226.07
964.72	225.98
965.01	225.96
965.31	225.96
965.60	225.92
965.90	225.98
966.19	225.92
966.49	225.93
966.78	225.93
967.08	225.91
967.37	225.92
967.67	225.87
967.96	225.89
968.26	225.85
968.55	225.91
968.85	225.92
969.14	225.89
969.43	225.88
969.73	225.85
970.02	225.85
970.32	225.83
970.61	225.82
970.91	225.82
971.20	225.82
971.49	225.82
971.79	225.83
972.08	225.77
972.38	225.79
972.67	225.80
972.96	225.79
973.26	225.75
973.55	225.76
973.85	225.77
974.14	225.78
974.43	225.82
974.73	225.78
975.02	225.75
975.31	225.77
975.61	225.77
975.90	225.78
976.19	225.75
976.49	225.77
976.78	225.80
977.07	225.81
977.37	225.78
977.66	225.81
977.95	225.80
978.24	225.83
978.54	225.86
978.83	225.85
979.12	225.87
979.42	225.93
979.71	225.94
980.00	225.96
980.29	225.98
980.59	225.95
980.88	226.00
981.17	226.01
981.46	226.01
981.76	226.00
982.05	226.02
982.34	226.04
982.63	226.04
982.93	226.03
983.22	226.05
983.51	226.09
983.80	226.08
984.09	226.09
984.39	226.06
984.68	226.07
984.97	226.06
985.26	226.06
985.55	226.08
985.85	226.07
986.14	226.09
986.43	226.06
986.72	226.06
987.01	226.02
987.30	226.01
987.59	226.01
987.89	226.02
988.18	226.00
988.47	226.01
988.76	226.02
989.05	225.99
989.34	225.96
989.63	225.98
989.92	225.97
990.22	225.96
990.51	225.97
990.80	225.99
991.09	226.03
991.38	226.03
991.67	226.01
991.96	225.98
992.25	225.98
992.54	225.99
992.83	226.00
993.12	226.01
993.41	226.05
993.70	226.11
993.99	226.14
994.28	226.17
994.58	226.16
994.87	226.15
995.16	226.15
995.45	226.14
995.74	226.12
996.03	226.14
996.32	226.16
996.61	226.17
996.90	226.15
997.19	226.13
997.48	226.12
997.77	226.13
998.06	226.16
998.34	226.15
998.63	226.14
998.92	226.16
999.21	226.15
999.50	226.13
999.79	226.09
1000.08	226.04
1000.37	226.04
1000.66	226.06
1000.95	226.05
1001.24	226.08
1001.53	226.06
1001.82	226.05
1002.11	225.99
1002.40	225.98
1002.68	226.01
1002.97	226.05
1003.26	226.04
1003.55	226.03
1003.84	226.00
1004.13	226.01
1004.42	226.01
1004.71	225.99
1004.99	225.94
1005.28	225.98
1005.57	225.99
1005.86	225.97
1006.15	226.00
1006.44	225.96
1006.72	225.92
1007.01	225.95
1007.30	225.94
1007.59	225.98
1007.88	225.98
1008.17	226.02
1008.45	226.00
1008.74	225.95
1009.03	225.92
1009.32	225.95
1009.60	225.91
1009.89	225.89
1010.18	225.82
1010.47	225.80
1010.76	225.81
1011.04	225.81
1011.33	225.80
1011.62	225.81
1011.91	225.81
1012.19	225.82
1012.48	225.81
1012.77	225.81
1013.05	225.85
1013.34	225.83
1013.63	225.80
1013.92	225.81
1014.20	225.81
1014.49	225.79
1014.78	225.80
1015.06	225.77
1015.35	225.78
1015.64	225.85
1015.92	225.88
1016.21	225.93
1016.50	225.93
1016.78	225.98
1017.07	225.99
1017.36	225.97
1017.64	225.92
1017.93	225.93
1018.22	225.95
1018.50	225.98
1018.79	226.01
1019.08	225.96
1019.36	226.00
1019.65	226.00
1019.93	226.01
1020.22	226.00
1020.51	226.11
1020.79	226.12
1021.08	226.49
1021.36	225.96
1021.65	226.26
1021.94	225.82
1022.22	226.40
1022.51	226.05
1022.79	225.94
1023.08	226.00
1023.36	227.60
1023.65	225.87
>>>>>End Processed Spectral Data<<<<<
