SpectraSuite Data File
++++++++++++++++++++++++++++++++++++
Date: Fri Feb 01 14:52:00 EST 2013
User: group
Dark Spectrum Present: No
Reference Spectrum Present: No
Number of Sampled Component Spectra: 1
Spectrometers: USB2E7196
Integration Time (usec): 35000 (USB2E7196)
Spectra Averaged: 100 (USB2E7196)
Boxcar Smoothing: 10 (USB2E7196)
Correct for Electrical Dark: No (USB2E7196)
Strobe/Lamp Enabled: No (USB2E7196)
Correct for Detector Non-linearity: No (USB2E7196)
Correct for Stray Light: No (USB2E7196)
Number of Pixels in Processed Spectrum: 2048
>>>>>Begin Processed Spectral Data<<<<<
339.09	0.00
339.48	215.75
339.86	217.21
340.24	218.63
340.63	219.86
341.01	222.56
341.39	222.80
341.78	223.72
342.16	224.67
342.54	225.30
342.93	213.96
343.31	224.76
343.69	225.27
344.07	225.72
344.46	226.13
344.84	226.51
345.22	226.77
345.60	226.99
345.99	227.17
346.37	227.32
346.75	227.44
347.13	227.52
347.52	227.56
347.90	227.65
348.28	227.63
348.66	227.68
349.05	227.67
349.43	227.71
349.81	227.76
350.19	227.80
350.57	227.90
350.96	227.97
351.34	228.08
351.72	228.17
352.10	228.27
352.48	228.33
352.87	228.36
353.25	228.40
353.63	228.49
354.01	228.57
354.39	228.65
354.77	228.72
355.15	228.79
355.54	228.87
355.92	228.91
356.30	228.98
356.68	229.08
357.06	229.12
357.44	229.17
357.82	229.25
358.20	229.33
358.58	229.39
358.97	229.46
359.35	229.52
359.73	229.60
360.11	229.67
360.49	229.78
360.87	229.85
361.25	229.91
361.63	229.99
362.01	230.01
362.39	230.04
362.77	230.11
363.15	230.16
363.53	230.20
363.91	230.26
364.29	230.30
364.67	230.25
365.05	230.28
365.43	230.28
365.81	230.29
366.19	230.31
366.57	230.33
366.95	230.31
367.33	230.25
367.71	230.23
368.09	230.18
368.47	230.13
368.85	230.10
369.23	230.06
369.61	229.99
369.99	229.95
370.37	229.92
370.75	229.87
371.13	229.82
371.51	229.74
371.89	229.66
372.27	229.59
372.65	229.52
373.03	229.44
373.41	229.39
373.78	229.26
374.16	229.18
374.54	229.05
374.92	228.99
375.30	228.95
375.68	228.88
376.06	228.81
376.44	228.74
376.82	228.67
377.19	228.60
377.57	228.52
377.95	228.46
378.33	228.35
378.71	228.21
379.09	228.13
379.47	228.04
379.84	227.93
380.22	227.85
380.60	227.74
380.98	227.69
381.36	227.59
381.73	227.50
382.11	227.45
382.49	227.40
382.87	227.29
383.25	227.20
383.62	227.20
384.00	227.15
384.38	227.06
384.76	227.01
385.13	227.00
385.51	226.94
385.89	226.87
386.27	226.84
386.64	226.80
387.02	226.74
387.40	226.73
387.78	226.73
388.15	226.69
388.53	226.68
388.91	226.63
389.29	226.58
389.66	226.60
390.04	226.51
390.42	226.47
390.79	226.48
391.17	226.46
391.55	226.36
391.92	226.36
392.30	226.36
392.68	226.32
393.05	226.31
393.43	226.33
393.81	226.36
394.18	226.38
394.56	226.41
394.94	226.43
395.31	226.43
395.69	226.48
396.06	226.53
396.44	226.56
396.82	226.60
397.19	226.73
397.57	226.79
397.95	226.89
398.32	226.96
398.70	227.03
399.07	227.15
399.45	227.22
399.82	227.29
400.20	227.38
400.58	227.49
400.95	227.54
401.33	227.63
401.70	227.76
402.08	227.88
402.45	228.03
402.83	228.19
403.20	228.34
403.58	228.47
403.95	228.63
404.33	228.78
404.71	228.95
405.08	229.13
405.46	229.27
405.83	229.47
406.21	229.68
406.58	229.85
406.96	229.99
407.33	230.22
407.70	230.44
408.08	230.75
408.45	231.01
408.83	231.27
409.20	231.52
409.58	231.73
409.95	231.99
410.33	232.25
410.70	232.49
411.08	232.78
411.45	233.08
411.82	233.39
412.20	233.76
412.57	234.16
412.95	234.46
413.32	234.88
413.69	235.29
414.07	235.66
414.44	236.14
414.82	236.64
415.19	237.18
415.56	237.71
415.94	238.23
416.31	238.86
416.68	239.45
417.06	240.16
417.43	240.80
417.81	241.58
418.18	242.36
418.55	243.22
418.93	244.10
419.30	244.99
419.67	245.92
420.04	246.86
420.42	247.88
420.79	249.07
421.16	250.23
421.54	251.43
421.91	252.65
422.28	253.88
422.66	255.23
423.03	256.50
423.40	257.81
423.77	259.19
424.15	260.61
424.52	262.08
424.89	263.67
425.26	265.21
425.64	266.62
426.01	268.16
426.38	269.79
426.75	271.45
427.13	273.13
427.50	274.90
427.87	276.75
428.24	278.58
428.61	280.29
428.99	282.20
429.36	284.26
429.73	286.33
430.10	288.37
430.47	290.41
430.85	292.53
431.22	294.78
431.59	297.18
431.96	299.40
432.33	301.89
432.70	304.23
433.08	307.11
433.45	309.76
433.82	312.40
434.19	315.28
434.56	318.08
434.93	320.78
435.30	323.42
435.68	326.32
436.05	329.10
436.42	331.91
436.79	334.37
437.16	337.03
437.53	339.86
437.90	342.65
438.27	345.35
438.64	348.14
439.01	350.69
439.38	352.94
439.75	355.06
440.13	357.58
440.50	359.97
440.87	361.77
441.24	363.72
441.61	365.85
441.98	367.35
442.35	369.08
442.72	370.92
443.09	372.75
443.46	373.76
443.83	374.35
444.20	374.86
444.57	375.78
444.94	376.05
445.31	376.37
445.68	376.74
446.05	376.85
446.42	376.46
446.79	376.08
447.16	375.63
447.53	375.35
447.90	374.15
448.27	372.98
448.64	371.44
449.01	370.32
449.37	368.39
449.74	366.50
450.11	364.30
450.48	361.83
450.85	359.28
451.22	357.12
451.59	355.15
451.96	353.19
452.33	350.56
452.70	348.27
453.07	345.47
453.43	342.55
453.80	339.82
454.17	337.21
454.54	334.67
454.91	332.00
455.28	329.36
455.65	326.90
456.02	324.43
456.38	322.25
456.75	319.57
457.12	317.35
457.49	315.15
457.86	312.98
458.23	311.14
458.59	309.09
458.96	307.00
459.33	305.15
459.70	303.29
460.07	301.80
460.43	300.05
460.80	298.42
461.17	297.02
461.54	295.51
461.91	294.06
462.27	292.61
462.64	291.29
463.01	289.97
463.38	288.64
463.74	287.29
464.11	286.16
464.48	285.12
464.85	283.99
465.21	283.11
465.58	282.23
465.95	281.12
466.32	280.19
466.68	279.29
467.05	278.36
467.42	277.48
467.78	276.56
468.15	275.70
468.52	275.01
468.88	274.10
469.25	273.32
469.62	272.68
469.98	271.95
470.35	271.34
470.72	270.68
471.08	270.00
471.45	269.44
471.82	268.90
472.18	268.28
472.55	267.79
472.92	267.22
473.28	266.72
473.65	266.25
474.02	265.79
474.38	265.39
474.75	265.06
475.11	264.68
475.48	264.38
475.85	264.12
476.21	263.88
476.58	263.73
476.94	263.56
477.31	263.38
477.67	263.22
478.04	263.07
478.41	263.01
478.77	263.08
479.14	262.98
479.50	262.97
479.87	263.06
480.23	263.11
480.60	263.16
480.96	263.23
481.33	263.47
481.69	263.67
482.06	263.87
482.42	264.07
482.79	264.32
483.15	264.64
483.52	265.02
483.88	265.39
484.25	265.74
484.61	266.13
484.98	266.62
485.34	267.19
485.71	267.76
486.07	268.36
486.44	268.86
486.80	269.57
487.17	270.26
487.53	271.03
487.90	271.92
488.26	272.83
488.62	273.81
488.99	274.73
489.35	275.74
489.72	276.85
490.08	278.03
490.44	279.28
490.81	280.62
491.17	281.94
491.54	283.36
491.90	284.91
492.26	286.55
492.63	288.24
492.99	290.04
493.36	291.94
493.72	293.93
494.08	296.06
494.45	298.28
494.81	300.65
495.17	303.10
495.54	305.61
495.90	308.32
496.26	311.12
496.63	314.06
496.99	317.20
497.35	320.44
497.72	323.79
498.08	327.28
498.44	330.89
498.80	334.81
499.17	338.84
499.53	342.95
499.89	347.33
500.26	351.78
500.62	356.42
500.98	361.36
501.34	366.45
501.71	371.75
502.07	377.14
502.43	382.78
502.79	388.58
503.16	394.62
503.52	400.82
503.88	407.21
504.24	413.84
504.60	420.65
504.97	427.75
505.33	435.07
505.69	442.78
506.05	450.52
506.41	458.38
506.78	466.49
507.14	474.91
507.50	483.52
507.86	492.48
508.22	501.63
508.59	510.73
508.95	520.28
509.31	530.01
509.67	540.13
510.03	550.29
510.39	560.78
510.75	571.56
511.12	582.42
511.48	593.67
511.84	605.09
512.20	616.54
512.56	628.48
512.92	640.64
513.28	652.86
513.64	665.32
514.00	678.03
514.37	690.94
514.73	703.98
515.09	716.99
515.45	730.23
515.81	743.78
516.17	757.73
516.53	771.85
516.89	786.04
517.25	800.18
517.61	814.60
517.97	829.06
518.33	843.39
518.69	858.17
519.05	873.17
519.41	888.34
519.77	903.98
520.13	919.45
520.49	934.78
520.85	950.27
521.21	965.97
521.57	982.20
521.93	998.00
522.29	1014.43
522.65	1030.80
523.01	1047.11
523.37	1063.19
523.73	1079.48
524.09	1095.56
524.45	1111.97
524.81	1128.64
525.17	1145.55
525.53	1162.55
525.89	1179.53
526.25	1196.47
526.61	1212.91
526.97	1229.65
527.33	1246.06
527.68	1262.61
528.04	1279.25
528.40	1295.90
528.76	1313.06
529.12	1329.68
529.48	1346.60
529.84	1362.76
530.20	1379.38
530.56	1396.49
530.91	1413.91
531.27	1430.73
531.63	1447.27
531.99	1463.87
532.35	1479.88
532.71	1495.79
533.07	1512.07
533.42	1527.95
533.78	1543.98
534.14	1560.25
534.50	1575.64
534.86	1591.65
535.21	1607.00
535.57	1622.92
535.93	1638.35
536.29	1653.22
536.65	1668.39
537.00	1683.29
537.36	1698.75
537.72	1713.40
538.08	1727.83
538.44	1741.72
538.79	1755.73
539.15	1769.54
539.51	1783.45
539.87	1797.85
540.22	1811.60
540.58	1825.33
540.94	1838.88
541.29	1852.03
541.65	1864.83
542.01	1878.14
542.37	1890.54
542.72	1903.06
543.08	1914.99
543.44	1927.60
543.79	1938.83
544.15	1949.88
544.51	1961.53
544.87	1972.40
545.22	1983.19
545.58	1993.45
545.94	2003.32
546.29	2013.17
546.65	2023.04
547.01	2032.14
547.36	2041.07
547.72	2049.58
548.07	2057.55
548.43	2065.84
548.79	2073.60
549.14	2081.20
549.50	2088.64
549.86	2096.40
550.21	2103.56
550.57	2110.56
550.92	2117.06
551.28	2124.18
551.64	2131.12
551.99	2137.69
552.35	2143.81
552.70	2149.90
553.06	2155.79
553.41	2161.94
553.77	2167.99
554.13	2173.94
554.48	2180.03
554.84	2185.37
555.19	2190.69
555.55	2195.67
555.90	2199.80
556.26	2204.67
556.61	2209.35
556.97	2213.40
557.32	2217.36
557.68	2221.61
558.03	2225.86
558.39	2229.58
558.74	2234.05
559.10	2237.90
559.45	2241.32
559.81	2245.55
560.16	2249.15
560.52	2252.35
560.87	2255.73
561.23	2258.16
561.58	2260.95
561.94	2263.48
562.29	2265.65
562.64	2268.18
563.00	2270.77
563.35	2274.42
563.71	2277.52
564.06	2280.33
564.42	2283.10
564.77	2285.44
565.12	2287.46
565.48	2289.27
565.83	2290.90
566.19	2292.03
566.54	2292.87
566.89	2293.84
567.25	2294.16
567.60	2295.54
567.96	2296.96
568.31	2297.53
568.66	2298.37
569.02	2298.79
569.37	2298.84
569.72	2299.45
570.08	2299.27
570.43	2299.04
570.78	2297.86
571.14	2295.99
571.49	2294.50
571.84	2294.01
572.20	2292.55
572.55	2291.19
572.90	2289.31
573.26	2287.56
573.61	2285.60
573.96	2283.57
574.31	2280.41
574.67	2277.05
575.02	2273.13
575.37	2269.59
575.72	2265.59
576.08	2262.15
576.43	2258.68
576.78	2254.78
577.13	2251.33
577.49	2248.12
577.84	2244.39
578.19	2240.58
578.54	2236.80
578.90	2232.43
579.25	2226.69
579.60	2221.72
579.95	2216.65
580.30	2211.37
580.66	2205.98
581.01	2200.85
581.36	2195.72
581.71	2191.27
582.06	2186.78
582.42	2182.07
582.77	2176.49
583.12	2171.78
583.47	2166.84
583.82	2161.55
584.17	2156.07
584.53	2150.50
584.88	2144.70
585.23	2138.81
585.58	2133.23
585.93	2127.63
586.28	2122.80
586.63	2117.59
586.98	2112.39
587.34	2107.47
587.69	2102.58
588.04	2097.27
588.39	2091.40
588.74	2084.74
589.09	2078.46
589.44	2071.53
589.79	2065.37
590.14	2059.73
590.49	2053.06
590.84	2046.51
591.19	2040.32
591.54	2033.82
591.89	2026.10
592.25	2019.16
592.60	2011.82
592.95	2004.13
593.30	1996.72
593.65	1988.89
594.00	1981.70
594.35	1974.24
594.70	1965.95
595.05	1958.63
595.40	1951.25
595.75	1943.75
596.10	1937.45
596.45	1930.56
596.80	1924.30
597.15	1917.63
597.50	1910.52
597.85	1903.91
598.19	1897.24
598.54	1890.25
598.89	1883.56
599.24	1877.79
599.59	1871.04
599.94	1864.80
600.29	1858.48
600.64	1851.88
600.99	1844.35
601.34	1837.46
601.69	1830.45
602.04	1823.62
602.39	1816.21
602.74	1809.36
603.08	1802.68
603.43	1796.07
603.78	1788.88
604.13	1781.77
604.48	1774.48
604.83	1767.56
605.18	1760.64
605.53	1752.60
605.87	1744.46
606.22	1737.30
606.57	1729.31
606.92	1722.04
607.27	1714.96
607.62	1708.03
607.96	1700.68
608.31	1694.13
608.66	1686.56
609.01	1679.13
609.36	1671.65
609.70	1663.81
610.05	1655.88
610.40	1648.26
610.75	1639.79
611.10	1632.19
611.44	1623.80
611.79	1615.86
612.14	1607.29
612.49	1598.28
612.83	1590.00
613.18	1582.04
613.53	1573.96
613.88	1565.52
614.22	1557.33
614.57	1548.82
614.92	1540.86
615.27	1533.38
615.61	1525.13
615.96	1517.15
616.31	1509.42
616.65	1502.11
617.00	1494.53
617.35	1486.82
617.70	1478.40
618.04	1469.94
618.39	1461.85
618.74	1454.30
619.08	1446.13
619.43	1438.61
619.78	1431.73
620.12	1424.65
620.47	1417.18
620.82	1409.15
621.16	1401.95
621.51	1394.33
621.85	1386.72
622.20	1378.25
622.55	1369.94
622.89	1362.24
623.24	1354.78
623.59	1347.61
623.93	1340.18
624.28	1333.04
624.62	1325.68
624.97	1318.60
625.32	1311.94
625.66	1304.94
626.01	1297.79
626.35	1290.32
626.70	1282.61
627.04	1275.01
627.39	1267.35
627.73	1259.97
628.08	1253.02
628.43	1245.59
628.77	1238.37
629.12	1230.90
629.46	1223.84
629.81	1216.69
630.15	1209.56
630.50	1202.23
630.84	1194.18
631.19	1186.43
631.53	1179.07
631.88	1171.57
632.22	1164.11
632.57	1157.04
632.91	1149.60
633.26	1142.32
633.60	1135.11
633.95	1128.22
634.29	1121.32
634.64	1114.75
634.98	1107.59
635.32	1100.60
635.67	1094.35
636.01	1087.76
636.36	1081.05
636.70	1074.61
637.05	1068.04
637.39	1061.61
637.73	1055.19
638.08	1049.29
638.42	1043.39
638.77	1036.98
639.11	1030.56
639.45	1024.29
639.80	1017.67
640.14	1011.37
640.49	1004.94
640.83	998.75
641.17	992.56
641.52	986.25
641.86	979.89
642.20	974.12
642.55	968.01
642.89	961.43
643.23	955.03
643.58	949.39
643.92	943.24
644.26	937.24
644.61	931.36
644.95	925.42
645.29	918.99
645.64	912.30
645.98	906.04
646.32	900.24
646.66	894.24
647.01	888.47
647.35	882.85
647.69	877.07
648.04	871.65
648.38	865.87
648.72	859.98
649.06	853.96
649.41	848.07
649.75	842.02
650.09	836.14
650.43	830.38
650.78	824.22
651.12	818.33
651.46	812.71
651.80	806.97
652.14	801.61
652.49	796.27
652.83	791.09
653.17	785.47
653.51	779.76
653.85	774.43
654.20	768.84
654.54	762.83
654.88	757.12
655.22	751.27
655.56	745.64
655.90	740.21
656.25	735.02
656.59	729.66
656.93	724.66
657.27	719.60
657.61	714.24
657.95	709.15
658.29	704.19
658.64	699.00
658.98	693.77
659.32	688.33
659.66	683.13
660.00	677.89
660.34	672.95
660.68	668.08
661.02	663.10
661.36	658.46
661.70	654.02
662.05	649.72
662.39	645.32
662.73	640.93
663.07	636.57
663.41	632.13
663.75	627.77
664.09	623.21
664.43	618.87
664.77	614.77
665.11	610.59
665.45	606.41
665.79	602.29
666.13	598.16
666.47	594.10
666.81	589.98
667.15	585.91
667.49	582.07
667.83	578.34
668.17	574.41
668.51	570.36
668.85	566.35
669.19	562.55
669.53	558.81
669.87	555.02
670.21	551.34
670.55	547.83
670.89	544.40
671.23	541.00
671.57	537.52
671.91	534.04
672.25	530.62
672.58	527.18
672.92	523.91
673.26	520.82
673.60	517.72
673.94	514.68
674.28	511.78
674.62	508.87
674.96	505.82
675.30	503.04
675.64	500.18
675.97	497.54
676.31	494.73
676.65	491.81
676.99	489.17
677.33	486.38
677.67	483.58
678.01	480.63
678.34	477.79
678.68	474.99
679.02	472.27
679.36	469.52
679.70	466.85
680.04	464.11
680.37	461.27
680.71	458.51
681.05	455.94
681.39	453.29
681.73	450.69
682.06	448.18
682.40	445.63
682.74	443.16
683.08	440.61
683.42	438.05
683.75	435.61
684.09	433.02
684.43	430.59
684.77	428.13
685.10	425.79
685.44	423.48
685.78	421.23
686.12	418.96
686.45	416.75
686.79	414.48
687.13	412.34
687.46	410.25
687.80	408.17
688.14	406.00
688.48	403.98
688.81	401.76
689.15	399.63
689.49	397.51
689.82	395.44
690.16	393.34
690.50	391.43
690.83	389.50
691.17	387.56
691.51	385.66
691.84	383.87
692.18	381.98
692.52	380.04
692.85	378.14
693.19	376.33
693.52	374.52
693.86	372.78
694.20	371.00
694.53	369.20
694.87	367.34
695.21	365.60
695.54	363.82
695.88	362.10
696.21	360.38
696.55	358.69
696.88	357.05
697.22	355.43
697.56	353.80
697.89	352.19
698.23	350.63
698.56	349.06
698.90	347.43
699.23	345.78
699.57	344.20
699.90	342.66
700.24	341.10
700.58	339.55
700.91	338.02
701.25	336.57
701.58	335.19
701.92	333.87
702.25	332.48
702.59	331.13
702.92	329.82
703.26	328.55
703.59	327.37
703.93	326.15
704.26	324.94
704.60	323.65
704.93	322.38
705.26	321.15
705.60	320.01
705.93	318.92
706.27	317.94
706.60	316.93
706.94	315.86
707.27	314.76
707.61	313.71
707.94	312.68
708.27	311.60
708.61	310.57
708.94	309.56
709.28	308.58
709.61	307.63
709.94	306.72
710.28	305.69
710.61	304.68
710.95	303.63
711.28	302.74
711.61	301.79
711.95	300.93
712.28	299.97
712.61	298.97
712.95	298.00
713.28	297.12
713.61	296.25
713.95	295.35
714.28	294.54
714.61	293.69
714.95	292.91
715.28	292.09
715.61	291.22
715.95	290.42
716.28	289.59
716.61	288.76
716.95	287.93
717.28	287.20
717.61	286.43
717.94	285.73
718.28	284.94
718.61	284.28
718.94	283.57
719.27	282.95
719.61	282.31
719.94	281.68
720.27	280.98
720.60	280.32
720.94	279.72
721.27	279.13
721.60	278.63
721.93	278.00
722.27	277.47
722.60	276.93
722.93	276.32
723.26	275.80
723.59	275.27
723.93	274.75
724.26	274.23
724.59	273.68
724.92	273.18
725.25	272.68
725.59	272.12
725.92	271.66
726.25	271.15
726.58	270.70
726.91	270.22
727.24	269.75
727.57	269.29
727.91	268.81
728.24	268.30
728.57	267.76
728.90	267.35
729.23	266.86
729.56	266.47
729.89	266.00
730.22	265.50
730.55	265.02
730.89	264.59
731.22	264.12
731.55	263.70
731.88	263.25
732.21	262.82
732.54	262.41
732.87	261.98
733.20	261.57
733.53	261.16
733.86	260.78
734.19	260.39
734.52	260.01
734.85	259.67
735.18	259.25
735.51	258.88
735.84	258.49
736.17	258.15
736.50	257.70
736.83	257.49
737.16	257.17
737.49	256.83
737.82	256.45
738.15	256.14
738.48	255.77
738.81	255.45
739.14	255.15
739.47	254.84
739.80	254.48
740.13	254.18
740.46	253.88
740.79	253.55
741.12	253.26
741.45	252.96
741.78	252.62
742.11	252.36
742.44	252.05
742.77	251.76
743.10	251.43
743.43	251.14
743.75	250.75
744.08	250.60
744.41	250.33
744.74	250.05
745.07	249.77
745.40	249.57
745.73	249.32
746.06	249.02
746.39	248.76
746.71	248.51
747.04	248.19
747.37	247.92
747.70	247.68
748.03	247.43
748.36	247.17
748.68	246.91
749.01	246.64
749.34	246.42
749.67	246.23
750.00	246.02
750.33	245.87
750.65	245.68
750.98	245.36
751.31	245.16
751.64	244.96
751.97	244.82
752.29	244.58
752.62	244.34
752.95	244.14
753.28	243.94
753.60	243.73
753.93	243.56
754.26	243.35
754.59	243.11
754.91	242.89
755.24	242.70
755.57	242.52
755.90	242.35
756.22	242.16
756.55	241.94
756.88	241.77
757.20	241.55
757.53	241.34
757.86	241.20
758.19	241.02
758.51	240.88
758.84	240.64
759.17	240.50
759.49	240.32
759.82	240.21
760.15	240.10
760.47	239.98
760.80	239.82
761.13	239.71
761.45	239.57
761.78	239.44
762.11	239.26
762.43	239.17
762.76	239.05
763.08	238.94
763.41	238.83
763.74	238.67
764.06	238.52
764.39	238.37
764.71	238.20
765.04	238.07
765.37	237.96
765.69	237.85
766.02	237.71
766.34	237.60
766.67	237.47
767.00	237.34
767.32	237.24
767.65	237.22
767.97	237.11
768.30	237.02
768.62	236.91
768.95	236.83
769.27	236.69
769.60	236.60
769.92	236.46
770.25	236.31
770.57	236.21
770.90	236.09
771.22	236.00
771.55	235.91
771.87	235.84
772.20	235.72
772.52	235.70
772.85	235.71
773.17	235.56
773.50	235.46
773.82	235.33
774.15	235.24
774.47	235.09
774.80	235.03
775.12	234.92
775.45	234.85
775.77	234.79
776.09	234.71
776.42	234.62
776.74	234.55
777.07	234.48
777.39	234.40
777.72	234.35
778.04	234.28
778.36	234.19
778.69	234.13
779.01	234.08
779.33	233.93
779.66	233.74
779.98	233.71
780.31	233.65
780.63	233.64
780.95	233.60
781.28	233.50
781.60	233.41
781.92	233.34
782.25	233.25
782.57	233.16
782.89	233.08
783.22	232.99
783.54	232.90
783.86	232.83
784.19	232.78
784.51	232.73
784.83	232.68
785.16	232.64
785.48	232.56
785.80	232.49
786.12	232.44
786.45	232.38
786.77	232.32
787.09	232.24
787.42	232.16
787.74	232.05
788.06	231.98
788.38	231.93
788.71	231.86
789.03	231.83
789.35	231.77
789.67	231.70
789.99	231.71
790.32	231.68
790.64	231.64
790.96	231.69
791.28	231.61
791.61	231.56
791.93	231.51
792.25	231.43
792.57	231.45
792.89	231.38
793.21	231.38
793.54	231.34
793.86	231.32
794.18	231.29
794.50	231.28
794.82	231.27
795.14	231.22
795.47	231.21
795.79	231.17
796.11	231.13
796.43	231.09
796.75	231.02
797.07	230.99
797.39	231.01
797.71	230.89
798.04	230.87
798.36	230.86
798.68	230.82
799.00	230.83
799.32	230.76
799.64	230.77
799.96	230.69
800.28	230.69
800.60	230.67
800.92	230.66
801.24	230.59
801.56	230.61
801.89	230.57
802.21	230.58
802.53	230.55
802.85	230.59
803.17	230.63
803.49	230.61
803.81	230.59
804.13	230.57
804.45	230.55
804.77	230.54
805.09	230.49
805.41	230.46
805.73	230.43
806.05	230.39
806.37	230.37
806.69	230.37
807.01	230.34
807.33	230.32
807.65	230.28
807.97	230.31
808.28	230.25
808.60	230.25
808.92	230.20
809.24	230.22
809.56	230.17
809.88	230.11
810.20	230.11
810.52	230.09
810.84	230.03
811.16	229.99
811.48	230.00
811.80	230.01
812.12	229.99
812.43	229.99
812.75	229.97
813.07	229.94
813.39	229.93
813.71	229.90
814.03	229.88
814.35	229.85
814.67	229.84
814.98	229.83
815.30	229.80
815.62	229.73
815.94	229.67
816.26	229.67
816.58	229.64
816.89	229.61
817.21	229.55
817.53	229.54
817.85	229.53
818.17	229.49
818.48	229.43
818.80	229.43
819.12	229.37
819.44	229.32
819.76	229.28
820.07	229.28
820.39	229.23
820.71	229.21
821.03	229.18
821.34	229.11
821.66	229.07
821.98	229.04
822.30	229.08
822.61	229.07
822.93	229.00
823.25	228.96
823.57	228.93
823.88	228.95
824.20	228.89
824.52	228.87
824.83	228.82
825.15	228.79
825.47	228.74
825.79	228.74
826.10	228.73
826.42	228.71
826.74	228.68
827.05	228.66
827.37	228.65
827.69	228.62
828.00	228.61
828.32	228.60
828.64	228.55
828.95	228.54
829.27	228.54
829.58	228.54
829.90	228.55
830.22	228.55
830.53	228.51
830.85	228.48
831.17	228.43
831.48	228.42
831.80	228.39
832.11	228.39
832.43	228.35
832.75	228.32
833.06	228.37
833.38	228.34
833.69	228.32
834.01	228.28
834.32	228.28
834.64	228.26
834.96	228.24
835.27	228.24
835.59	228.25
835.90	228.21
836.22	228.20
836.53	228.15
836.85	228.14
837.16	228.23
837.48	228.22
837.79	228.25
838.11	228.24
838.42	228.26
838.74	228.25
839.05	228.24
839.37	228.27
839.68	228.21
840.00	228.22
840.31	228.26
840.63	228.25
840.94	228.24
841.26	228.25
841.57	228.27
841.88	228.31
842.20	228.27
842.51	228.29
842.83	228.30
843.14	228.40
843.46	228.42
843.77	228.38
844.08	228.44
844.40	228.42
844.71	228.40
845.03	228.42
845.34	228.43
845.65	228.47
845.97	228.49
846.28	228.50
846.60	228.51
846.91	228.51
847.22	228.52
847.54	228.54
847.85	228.56
848.16	228.55
848.48	228.52
848.79	228.56
849.10	228.55
849.42	228.54
849.73	228.47
850.04	228.46
850.36	228.44
850.67	228.42
850.98	228.44
851.30	228.48
851.61	228.44
851.92	228.47
852.23	228.50
852.55	228.48
852.86	228.49
853.17	228.50
853.49	228.49
853.80	228.49
854.11	228.50
854.42	228.48
854.74	228.48
855.05	228.49
855.36	228.43
855.67	228.44
855.99	228.44
856.30	228.57
856.61	228.53
856.92	228.49
857.23	228.49
857.55	228.48
857.86	228.45
858.17	228.44
858.48	228.39
858.79	228.33
859.11	228.29
859.42	228.27
859.73	228.24
860.04	228.22
860.35	228.21
860.66	228.17
860.98	228.16
861.29	228.12
861.60	228.10
861.91	228.13
862.22	228.09
862.53	228.08
862.84	227.90
863.16	227.93
863.47	227.92
863.78	227.90
864.09	227.88
864.40	227.90
864.71	227.92
865.02	227.91
865.33	227.89
865.64	227.86
865.95	227.85
866.27	227.90
866.58	227.89
866.89	227.88
867.20	227.90
867.51	227.88
867.82	227.88
868.13	227.89
868.44	227.86
868.75	227.86
869.06	227.86
869.37	227.86
869.68	227.82
869.99	227.81
870.30	227.79
870.61	227.81
870.92	227.76
871.23	227.75
871.54	227.77
871.85	227.80
872.16	227.85
872.47	227.83
872.78	227.77
873.09	227.75
873.40	227.74
873.71	227.71
874.02	227.75
874.33	227.76
874.64	227.73
874.95	227.73
875.26	227.72
875.56	227.70
875.87	227.72
876.18	227.73
876.49	227.86
876.80	227.86
877.11	227.85
877.42	227.88
877.73	227.87
878.04	227.84
878.35	227.88
878.66	227.85
878.96	227.85
879.27	227.83
879.58	227.85
879.89	227.86
880.20	227.89
880.51	227.86
880.82	227.86
881.12	227.90
881.43	227.92
881.74	227.90
882.05	227.90
882.36	227.93
882.67	227.96
882.97	227.84
883.28	227.87
883.59	227.87
883.90	227.90
884.21	227.89
884.51	227.89
884.82	227.88
885.13	227.89
885.44	227.93
885.74	227.98
886.05	227.97
886.36	228.00
886.67	227.97
886.98	227.99
887.28	228.02
887.59	227.99
887.90	227.98
888.20	227.98
888.51	228.00
888.82	227.99
889.13	227.98
889.43	228.06
889.74	228.04
890.05	228.07
890.35	228.04
890.66	228.07
890.97	228.10
891.28	228.08
891.58	228.05
891.89	228.01
892.20	228.00
892.50	227.99
892.81	227.97
893.12	227.96
893.42	227.90
893.73	227.89
894.04	227.86
894.34	227.88
894.65	227.90
894.95	227.90
895.26	227.90
895.57	227.93
895.87	227.85
896.18	227.85
896.48	227.84
896.79	227.85
897.10	227.87
897.40	227.82
897.71	227.82
898.01	227.82
898.32	227.85
898.63	227.82
898.93	227.81
899.24	227.79
899.54	227.79
899.85	227.80
900.15	227.75
900.46	227.77
900.76	227.76
901.07	227.74
901.38	227.73
901.68	227.73
901.99	227.67
902.29	227.66
902.60	227.65
902.90	227.58
903.21	227.58
903.51	227.53
903.82	227.56
904.12	227.56
904.43	227.58
904.73	227.56
905.03	227.57
905.34	227.64
905.64	227.64
905.95	227.63
906.25	227.61
906.56	227.63
906.86	227.64
907.17	227.62
907.47	227.59
907.77	227.58
908.08	227.56
908.38	227.53
908.69	227.54
908.99	227.56
909.30	227.59
909.60	227.59
909.90	227.57
910.21	227.56
910.51	227.52
910.81	227.51
911.12	227.51
911.42	227.51
911.73	227.42
912.03	227.44
912.33	227.46
912.64	227.48
912.94	227.48
913.24	227.49
913.55	227.47
913.85	227.49
914.15	227.50
914.46	227.52
914.76	227.54
915.06	227.56
915.37	227.52
915.67	227.52
915.97	227.53
916.27	227.55
916.58	227.56
916.88	227.59
917.18	227.60
917.49	227.68
917.79	227.69
918.09	227.74
918.39	227.76
918.70	227.78
919.00	227.78
919.30	227.81
919.60	227.83
919.91	227.84
920.21	227.84
920.51	227.85
920.81	227.82
921.12	227.86
921.42	227.86
921.72	227.85
922.02	227.86
922.32	227.89
922.63	227.88
922.93	227.94
923.23	227.94
923.53	227.96
923.83	227.89
924.13	227.91
924.44	227.92
924.74	227.94
925.04	227.94
925.34	227.95
925.64	227.93
925.94	227.89
926.24	227.96
926.55	227.98
926.85	227.99
927.15	228.01
927.45	228.00
927.75	228.00
928.05	228.03
928.35	228.04
928.65	228.03
928.95	228.05
929.26	228.00
929.56	228.02
929.86	227.99
930.16	227.99
930.46	227.97
930.76	227.96
931.06	227.91
931.36	227.88
931.66	227.88
931.96	227.90
932.26	227.89
932.56	227.81
932.86	227.85
933.16	227.84
933.46	227.85
933.76	227.84
934.06	227.86
934.36	227.90
934.66	227.89
934.96	227.89
935.26	227.87
935.56	227.86
935.86	227.82
936.16	227.82
936.46	227.77
936.76	227.74
937.06	227.72
937.36	227.72
937.66	227.71
937.96	227.68
938.26	227.64
938.56	227.63
938.86	227.64
939.16	227.58
939.46	227.56
939.76	227.53
940.06	227.50
940.35	227.48
940.65	227.40
940.95	227.38
941.25	227.34
941.55	227.33
941.85	227.33
942.15	227.34
942.45	227.33
942.75	227.35
943.04	227.33
943.34	227.35
943.64	227.34
943.94	227.36
944.24	227.35
944.54	227.35
944.84	227.38
945.13	227.39
945.43	227.39
945.73	227.38
946.03	227.37
946.33	227.35
946.62	227.32
946.92	227.35
947.22	227.35
947.52	227.34
947.82	227.37
948.11	227.35
948.41	227.32
948.71	227.35
949.01	227.37
949.31	227.37
949.60	227.38
949.90	227.38
950.20	227.37
950.50	227.40
950.79	227.38
951.09	227.39
951.39	227.38
951.69	227.35
951.98	227.38
952.28	227.40
952.58	227.42
952.87	227.43
953.17	227.40
953.47	227.42
953.76	227.42
954.06	227.44
954.36	227.43
954.66	227.48
954.95	227.50
955.25	227.50
955.55	227.53
955.84	227.52
956.14	227.54
956.44	227.55
956.73	227.56
957.03	227.57
957.32	227.58
957.62	227.60
957.92	227.65
958.21	227.65
958.51	227.76
958.81	227.78
959.10	227.81
959.40	227.86
959.69	227.87
959.99	227.92
960.29	227.89
960.58	227.91
960.88	227.96
961.17	227.92
961.47	227.96
961.76	227.95
962.06	227.97
962.36	227.97
962.65	227.96
962.95	227.90
963.24	227.91
963.54	227.91
963.83	227.90
964.13	227.86
964.42	227.85
964.72	227.79
965.01	227.79
965.31	227.80
965.60	227.77
965.90	227.83
966.19	227.82
966.49	227.83
966.78	227.84
967.08	227.79
967.37	227.81
967.67	227.78
967.96	227.80
968.26	227.78
968.55	227.79
968.85	227.79
969.14	227.86
969.43	227.86
969.73	227.85
970.02	227.86
970.32	227.86
970.61	227.86
970.91	227.80
971.20	227.79
971.49	227.76
971.79	227.78
972.08	227.71
972.38	227.66
972.67	227.66
972.96	227.68
973.26	227.64
973.55	227.63
973.85	227.62
974.14	227.57
974.43	227.57
974.73	227.55
975.02	227.58
975.31	227.56
975.61	227.54
975.90	227.52
976.19	227.49
976.49	227.48
976.78	227.48
977.07	227.48
977.37	227.47
977.66	227.47
977.95	227.47
978.24	227.52
978.54	227.56
978.83	227.52
979.12	227.48
979.42	227.46
979.71	227.48
980.00	227.48
980.29	227.54
980.59	227.53
980.88	227.55
981.17	227.51
981.46	227.49
981.76	227.47
982.05	227.48
982.34	227.49
982.63	227.54
982.93	227.53
983.22	227.53
983.51	227.55
983.80	227.56
984.09	227.54
984.39	227.51
984.68	227.46
984.97	227.47
985.26	227.47
985.55	227.48
985.85	227.45
986.14	227.44
986.43	227.42
986.72	227.42
987.01	227.36
987.30	227.34
987.59	227.37
987.89	227.39
988.18	227.39
988.47	227.36
988.76	227.34
989.05	227.35
989.34	227.37
989.63	227.39
989.92	227.36
990.22	227.35
990.51	227.34
990.80	227.36
991.09	227.39
991.38	227.40
991.67	227.40
991.96	227.42
992.25	227.43
992.54	227.46
992.83	227.47
993.12	227.48
993.41	227.46
993.70	227.49
993.99	227.52
994.28	227.52
994.58	227.56
994.87	227.54
995.16	227.52
995.45	227.52
995.74	227.49
996.03	227.53
996.32	227.54
996.61	227.56
996.90	227.53
997.19	227.52
997.48	227.52
997.77	227.52
998.06	227.51
998.34	227.52
998.63	227.50
998.92	227.50
999.21	227.54
999.50	227.58
999.79	227.53
1000.08	227.51
1000.37	227.54
1000.66	227.50
1000.95	227.51
1001.24	227.52
1001.53	227.52
1001.82	227.51
1002.11	227.47
1002.40	227.51
1002.68	227.54
1002.97	227.62
1003.26	227.62
1003.55	227.60
1003.84	227.59
1004.13	227.65
1004.42	227.61
1004.71	227.61
1004.99	227.60
1005.28	227.60
1005.57	227.60
1005.86	227.63
1006.15	227.66
1006.44	227.59
1006.72	227.61
1007.01	227.61
1007.30	227.61
1007.59	227.61
1007.88	227.60
1008.17	227.63
1008.45	227.57
1008.74	227.53
1009.03	227.49
1009.32	227.48
1009.60	227.50
1009.89	227.53
1010.18	227.47
1010.47	227.48
1010.76	227.44
1011.04	227.44
1011.33	227.45
1011.62	227.45
1011.91	227.40
1012.19	227.39
1012.48	227.43
1012.77	227.43
1013.05	227.45
1013.34	227.47
1013.63	227.46
1013.92	227.45
1014.20	227.41
1014.49	227.40
1014.78	227.39
1015.06	227.35
1015.35	227.35
1015.64	227.31
1015.92	227.28
1016.21	227.27
1016.50	227.26
1016.78	227.32
1017.07	227.34
1017.36	227.30
1017.64	227.28
1017.93	227.30
1018.22	227.28
1018.50	227.27
1018.79	227.25
1019.08	227.23
1019.36	227.21
1019.65	227.19
1019.93	227.22
1020.22	227.24
1020.51	227.29
1020.79	227.29
1021.08	227.23
1021.36	227.27
1021.65	227.08
1021.94	227.45
1022.22	227.06
1022.51	227.01
1022.79	227.36
1023.08	227.36
1023.36	228.14
1023.65	227.13
>>>>>End Processed Spectral Data<<<<<
