SpectraSuite Data File
++++++++++++++++++++++++++++++++++++
Date: Fri Feb 01 16:20:59 EST 2013
User: group
Dark Spectrum Present: No
Reference Spectrum Present: No
Number of Sampled Component Spectra: 1
Spectrometers: USB2E7196
Integration Time (usec): 35000 (USB2E7196)
Spectra Averaged: 100 (USB2E7196)
Boxcar Smoothing: 10 (USB2E7196)
Correct for Electrical Dark: No (USB2E7196)
Strobe/Lamp Enabled: No (USB2E7196)
Correct for Detector Non-linearity: No (USB2E7196)
Correct for Stray Light: No (USB2E7196)
Number of Pixels in Processed Spectrum: 2048
>>>>>Begin Processed Spectral Data<<<<<
339.09	0.00
339.48	214.35
339.86	215.52
340.24	217.18
340.63	218.71
341.01	221.36
341.39	221.24
341.78	222.73
342.16	223.62
342.54	224.11
342.93	212.56
343.31	223.29
343.69	223.78
344.07	224.23
344.46	224.63
344.84	224.98
345.22	225.19
345.60	225.41
345.99	225.56
346.37	225.70
346.75	225.82
347.13	225.90
347.52	225.95
347.90	225.98
348.28	225.95
348.66	226.01
349.05	226.03
349.43	226.06
349.81	226.08
350.19	226.10
350.57	226.14
350.96	226.24
351.34	226.31
351.72	226.45
352.10	226.56
352.48	226.63
352.87	226.70
353.25	226.78
353.63	226.85
354.01	226.93
354.39	227.00
354.77	227.06
355.15	227.16
355.54	227.25
355.92	227.28
356.30	227.35
356.68	227.48
357.06	227.56
357.44	227.61
357.82	227.71
358.20	227.80
358.58	227.86
358.97	227.90
359.35	228.00
359.73	228.05
360.11	228.08
360.49	228.14
360.87	228.20
361.25	228.25
361.63	228.35
362.01	228.39
362.39	228.39
362.77	228.42
363.15	228.43
363.53	228.43
363.91	228.49
364.29	228.54
364.67	228.47
365.05	228.45
365.43	228.47
365.81	228.47
366.19	228.49
366.57	228.55
366.95	228.55
367.33	228.52
367.71	228.52
368.09	228.54
368.47	228.53
368.85	228.50
369.23	228.51
369.61	228.41
369.99	228.41
370.37	228.43
370.75	228.47
371.13	228.45
371.51	228.43
371.89	228.39
372.27	228.35
372.65	228.31
373.03	228.31
373.41	228.26
373.78	228.22
374.16	228.13
374.54	228.06
374.92	228.00
375.30	227.93
375.68	227.83
376.06	227.77
376.44	227.69
376.82	227.66
377.19	227.61
377.57	227.59
377.95	227.49
378.33	227.42
378.71	227.27
379.09	227.23
379.47	227.19
379.84	227.12
380.22	227.06
380.60	226.96
380.98	226.88
381.36	226.82
381.73	226.73
382.11	226.69
382.49	226.65
382.87	226.58
383.25	226.55
383.62	226.63
384.00	226.57
384.38	226.53
384.76	226.49
385.13	226.45
385.51	226.39
385.89	226.33
386.27	226.26
386.64	226.22
387.02	226.16
387.40	226.08
387.78	226.02
388.15	225.99
388.53	225.98
388.91	225.94
389.29	225.88
389.66	225.85
390.04	225.83
390.42	225.80
390.79	225.79
391.17	225.76
391.55	225.64
391.92	225.63
392.30	225.60
392.68	225.56
393.05	225.57
393.43	225.57
393.81	225.59
394.18	225.58
394.56	225.59
394.94	225.60
395.31	225.63
395.69	225.67
396.06	225.68
396.44	225.69
396.82	225.71
397.19	225.79
397.57	225.80
397.95	225.85
398.32	225.84
398.70	225.89
399.07	225.97
399.45	226.01
399.82	226.08
400.20	226.19
400.58	226.26
400.95	226.30
401.33	226.38
401.70	226.55
402.08	226.64
402.45	226.71
402.83	226.81
403.20	226.87
403.58	226.96
403.95	227.11
404.33	227.28
404.71	227.41
405.08	227.61
405.46	227.76
405.83	227.92
406.21	228.06
406.58	228.24
406.96	228.40
407.33	228.58
407.70	228.75
408.08	228.97
408.45	229.19
408.83	229.41
409.20	229.61
409.58	229.79
409.95	230.08
410.33	230.35
410.70	230.61
411.08	230.95
411.45	231.27
411.82	231.53
412.20	231.86
412.57	232.28
412.95	232.56
413.32	232.97
413.69	233.35
414.07	233.80
414.44	234.27
414.82	234.76
415.19	235.31
415.56	235.86
415.94	236.40
416.31	237.06
416.68	237.70
417.06	238.46
417.43	239.14
417.81	239.89
418.18	240.72
418.55	241.57
418.93	242.47
419.30	243.34
419.67	244.32
420.04	245.29
420.42	246.28
420.79	247.51
421.16	248.69
421.54	249.91
421.91	251.13
422.28	252.38
422.66	253.72
423.03	255.03
423.40	256.39
423.77	257.82
424.15	259.22
424.52	260.70
424.89	262.28
425.26	263.83
425.64	265.28
426.01	266.86
426.38	268.51
426.75	270.16
427.13	271.89
427.50	273.71
427.87	275.62
428.24	277.47
428.61	279.15
428.99	281.06
429.36	283.19
429.73	285.25
430.10	287.25
430.47	289.28
430.85	291.40
431.22	293.67
431.59	296.05
431.96	298.30
432.33	300.79
432.70	303.16
433.08	306.00
433.45	308.62
433.82	311.19
434.19	314.11
434.56	316.94
434.93	319.56
435.30	322.14
435.68	324.90
436.05	327.73
436.42	330.53
436.79	333.03
437.16	335.65
437.53	338.48
437.90	341.29
438.27	344.02
438.64	346.82
439.01	349.38
439.38	351.55
439.75	353.70
440.13	356.14
440.50	358.47
440.87	360.24
441.24	362.13
441.61	364.29
441.98	365.73
442.35	367.47
442.72	369.36
443.09	371.18
443.46	372.24
443.83	372.82
444.20	373.28
444.57	374.10
444.94	374.39
445.31	374.70
445.68	375.03
446.05	375.08
446.42	374.65
446.79	374.20
447.16	373.75
447.53	373.42
447.90	372.25
448.27	371.10
448.64	369.52
449.01	368.42
449.37	366.45
449.74	364.57
450.11	362.34
450.48	359.86
450.85	357.35
451.22	355.21
451.59	353.17
451.96	351.25
452.33	348.66
452.70	346.33
453.07	343.48
453.43	340.63
453.80	337.91
454.17	335.26
454.54	332.73
454.91	330.06
455.28	327.34
455.65	324.92
456.02	322.48
456.38	320.34
456.75	317.68
457.12	315.47
457.49	313.23
457.86	311.09
458.23	309.24
458.59	307.22
458.96	305.11
459.33	303.27
459.70	301.46
460.07	299.94
460.43	298.24
460.80	296.66
461.17	295.21
461.54	293.75
461.91	292.34
462.27	290.89
462.64	289.63
463.01	288.35
463.38	287.04
463.74	285.64
464.11	284.50
464.48	283.51
464.85	282.42
465.21	281.58
465.58	280.64
465.95	279.58
466.32	278.66
466.68	277.80
467.05	276.94
467.42	276.05
467.78	275.13
468.15	274.26
468.52	273.59
468.88	272.72
469.25	271.93
469.62	271.34
469.98	270.69
470.35	270.07
470.72	269.50
471.08	268.84
471.45	268.34
471.82	267.78
472.18	267.18
472.55	266.72
472.92	266.22
473.28	265.74
473.65	265.29
474.02	264.87
474.38	264.47
474.75	264.14
475.11	263.77
475.48	263.53
475.85	263.31
476.21	263.09
476.58	262.93
476.94	262.78
477.31	262.61
477.67	262.47
478.04	262.33
478.41	262.27
478.77	262.33
479.14	262.23
479.50	262.27
479.87	262.31
480.23	262.38
480.60	262.39
480.96	262.51
481.33	262.73
481.69	262.94
482.06	263.16
482.42	263.39
482.79	263.69
483.15	264.01
483.52	264.38
483.88	264.73
484.25	265.13
484.61	265.58
484.98	266.02
485.34	266.61
485.71	267.23
486.07	267.83
486.44	268.39
486.80	269.15
487.17	269.87
487.53	270.72
487.90	271.59
488.26	272.58
488.62	273.57
488.99	274.51
489.35	275.52
489.72	276.65
490.08	277.84
490.44	279.06
490.81	280.37
491.17	281.71
491.54	283.18
491.90	284.74
492.26	286.39
492.63	288.08
492.99	289.84
493.36	291.70
493.72	293.78
494.08	295.94
494.45	298.19
494.81	300.60
495.17	303.04
495.54	305.62
495.90	308.28
496.26	311.07
496.63	314.07
496.99	317.18
497.35	320.39
497.72	323.81
498.08	327.32
498.44	331.01
498.80	334.98
499.17	339.00
499.53	343.16
499.89	347.55
500.26	352.11
500.62	356.77
500.98	361.79
501.34	366.87
501.71	372.14
502.07	377.57
502.43	383.18
502.79	389.01
503.16	395.07
503.52	401.34
503.88	407.73
504.24	414.36
504.60	421.28
504.97	428.42
505.33	435.72
505.69	443.48
506.05	451.29
506.41	459.17
506.78	467.38
507.14	475.88
507.50	484.65
507.86	493.68
508.22	502.88
508.59	512.06
508.95	521.65
509.31	531.49
509.67	541.59
510.03	551.86
510.39	562.40
510.75	573.23
511.12	584.21
511.48	595.55
511.84	606.97
512.20	618.58
512.56	630.58
512.92	642.80
513.28	655.21
513.64	667.61
514.00	680.39
514.37	693.36
514.73	706.38
515.09	719.25
515.45	732.53
515.81	746.10
516.17	760.05
516.53	774.21
516.89	788.35
517.25	802.48
517.61	816.92
517.97	831.39
518.33	845.80
518.69	860.51
519.05	875.42
519.41	890.57
519.77	906.01
520.13	921.39
520.49	936.75
520.85	952.05
521.21	967.73
521.57	983.88
521.93	999.53
522.29	1015.92
522.65	1032.23
523.01	1048.33
523.37	1064.39
523.73	1080.56
524.09	1096.50
524.45	1112.79
524.81	1129.41
525.17	1146.09
525.53	1162.99
525.89	1179.87
526.25	1196.61
526.61	1213.10
526.97	1229.80
527.33	1246.24
527.68	1262.80
528.04	1279.13
528.40	1295.65
528.76	1312.73
529.12	1329.24
529.48	1346.11
529.84	1362.05
530.20	1378.70
530.56	1395.76
530.91	1413.17
531.27	1429.83
531.63	1446.24
531.99	1462.73
532.35	1478.58
532.71	1494.45
533.07	1510.53
533.42	1526.33
533.78	1542.42
534.14	1558.52
534.50	1573.91
534.86	1589.70
535.21	1604.87
535.57	1620.72
535.93	1636.25
536.29	1651.02
536.65	1666.03
537.00	1680.69
537.36	1695.84
537.72	1710.28
538.08	1724.58
538.44	1738.15
538.79	1752.05
539.15	1765.70
539.51	1779.47
539.87	1793.81
540.22	1807.40
540.58	1821.17
540.94	1834.42
541.29	1847.11
541.65	1859.67
542.01	1872.72
542.37	1885.06
542.72	1897.40
543.08	1909.17
543.44	1921.42
543.79	1932.57
544.15	1943.47
544.51	1955.02
544.87	1965.92
545.22	1976.49
545.58	1986.66
545.94	1996.37
546.29	2006.14
546.65	2015.97
547.01	2025.19
547.36	2033.78
547.72	2042.30
548.07	2049.99
548.43	2058.14
548.79	2066.19
549.14	2073.69
549.50	2081.03
549.86	2088.56
550.21	2095.88
550.57	2102.85
550.92	2109.38
551.28	2116.28
551.64	2123.24
551.99	2129.82
552.35	2135.91
552.70	2142.14
553.06	2148.14
553.41	2154.60
553.77	2160.56
554.13	2166.62
554.48	2172.65
554.84	2178.13
555.19	2183.40
555.55	2188.63
555.90	2193.05
556.26	2197.93
556.61	2202.64
556.97	2206.93
557.32	2211.02
557.68	2215.12
558.03	2219.66
558.39	2223.36
558.74	2228.01
559.10	2232.07
559.45	2235.71
559.81	2240.14
560.16	2243.98
560.52	2247.17
560.87	2250.42
561.23	2253.14
561.58	2256.13
561.94	2258.63
562.29	2260.92
562.64	2263.72
563.00	2266.31
563.35	2269.77
563.71	2272.85
564.06	2276.11
564.42	2278.89
564.77	2281.36
565.12	2283.65
565.48	2285.59
565.83	2287.51
566.19	2288.84
566.54	2289.64
566.89	2290.77
567.25	2291.29
567.60	2292.62
567.96	2294.45
568.31	2295.43
568.66	2296.52
569.02	2297.06
569.37	2297.53
569.72	2298.55
570.08	2298.51
570.43	2298.69
570.78	2298.15
571.14	2296.81
571.49	2295.49
571.84	2295.31
572.20	2294.50
572.55	2293.52
572.90	2292.08
573.26	2290.73
573.61	2289.10
573.96	2287.29
574.31	2284.37
574.67	2281.53
575.02	2277.94
575.37	2274.56
575.72	2270.85
576.08	2267.61
576.43	2264.24
576.78	2260.46
577.13	2257.22
577.49	2254.36
577.84	2250.84
578.19	2247.19
578.54	2243.53
578.90	2239.32
579.25	2233.65
579.60	2228.46
579.95	2223.56
580.30	2218.45
580.66	2213.33
581.01	2208.50
581.36	2203.76
581.71	2199.75
582.06	2195.41
582.42	2190.90
582.77	2185.67
583.12	2181.09
583.47	2176.38
583.82	2171.55
584.17	2166.33
584.53	2161.06
584.88	2155.38
585.23	2149.70
585.58	2144.43
585.93	2139.02
586.28	2134.35
586.63	2129.49
586.98	2124.53
587.34	2119.79
587.69	2115.00
588.04	2109.81
588.39	2104.32
588.74	2097.97
589.09	2091.70
589.44	2084.85
589.79	2079.09
590.14	2073.59
590.49	2067.19
590.84	2060.87
591.19	2054.74
591.54	2048.45
591.89	2041.02
592.25	2034.17
592.60	2027.04
592.95	2019.46
593.30	2012.25
593.65	2004.78
594.00	1997.75
594.35	1990.52
594.70	1982.59
595.05	1975.39
595.40	1968.12
595.75	1960.51
596.10	1954.28
596.45	1947.59
596.80	1941.54
597.15	1934.78
597.50	1927.62
597.85	1921.23
598.19	1914.57
598.54	1907.73
598.89	1901.15
599.24	1895.35
599.59	1888.67
599.94	1882.37
600.29	1876.07
600.64	1869.31
600.99	1861.81
601.34	1855.08
601.69	1848.18
602.04	1841.38
602.39	1834.12
602.74	1827.38
603.08	1820.63
603.43	1813.94
603.78	1806.73
604.13	1799.50
604.48	1792.27
604.83	1785.46
605.18	1778.40
605.53	1770.49
605.87	1762.28
606.22	1755.04
606.57	1747.13
606.92	1739.91
607.27	1732.82
607.62	1725.78
607.96	1718.57
608.31	1712.02
608.66	1704.27
609.01	1696.79
609.36	1689.11
609.70	1681.06
610.05	1673.00
610.40	1665.28
610.75	1656.98
611.10	1649.25
611.44	1640.65
611.79	1632.70
612.14	1624.00
612.49	1614.82
612.83	1606.39
613.18	1598.36
613.53	1590.17
613.88	1581.58
614.22	1573.30
614.57	1564.65
614.92	1556.59
615.27	1549.09
615.61	1540.72
615.96	1532.69
616.31	1525.13
616.65	1517.70
617.00	1510.13
617.35	1502.37
617.70	1494.07
618.04	1485.52
618.39	1477.41
618.74	1469.96
619.08	1461.64
619.43	1454.10
619.78	1447.18
620.12	1439.90
620.47	1432.35
620.82	1424.23
621.16	1416.81
621.51	1409.26
621.85	1401.74
622.20	1393.24
622.55	1384.86
622.89	1376.99
623.24	1369.41
623.59	1361.89
623.93	1354.36
624.28	1347.14
624.62	1339.56
624.97	1332.33
625.32	1325.65
625.66	1318.51
626.01	1311.35
626.35	1303.91
626.70	1296.07
627.04	1288.30
627.39	1280.63
627.73	1273.24
628.08	1266.37
628.43	1259.05
628.77	1251.68
629.12	1243.97
629.46	1236.81
629.81	1229.42
630.15	1222.18
630.50	1214.77
630.84	1206.58
631.19	1198.66
631.53	1191.10
631.88	1183.61
632.22	1176.02
632.57	1168.60
632.91	1161.03
633.26	1153.48
633.60	1146.11
633.95	1139.02
634.29	1132.02
634.64	1125.30
634.98	1117.91
635.32	1110.72
635.67	1104.22
636.01	1097.52
636.36	1090.78
636.70	1084.36
637.05	1077.77
637.39	1071.28
637.73	1064.68
638.08	1058.80
638.42	1052.88
638.77	1046.47
639.11	1039.88
639.45	1033.52
639.80	1026.87
640.14	1020.43
640.49	1013.96
640.83	1007.54
641.17	1001.28
641.52	994.92
641.86	988.52
642.20	982.65
642.55	976.36
642.89	969.69
643.23	963.11
643.58	957.39
643.92	951.10
644.26	944.92
644.61	938.93
644.95	932.95
645.29	926.34
645.64	919.50
645.98	913.12
646.32	907.31
646.66	901.27
647.01	895.44
647.35	889.81
647.69	883.96
648.04	878.51
648.38	872.64
648.72	866.63
649.06	860.53
649.41	854.68
649.75	848.68
650.09	842.83
650.43	837.07
650.78	830.81
651.12	824.85
651.46	819.22
651.80	813.48
652.14	808.14
652.49	802.73
652.83	797.56
653.17	791.87
653.51	786.03
653.85	780.51
654.20	774.94
654.54	768.86
654.88	763.17
655.22	757.32
655.56	751.67
655.90	746.25
656.25	740.97
656.59	735.55
656.93	730.44
657.27	725.24
657.61	719.86
657.95	714.87
658.29	709.83
658.64	704.56
658.98	699.27
659.32	693.74
659.66	688.56
660.00	683.22
660.34	678.22
660.68	673.34
661.02	668.39
661.36	663.63
661.70	659.14
662.05	654.75
662.39	650.42
662.73	645.96
663.07	641.56
663.41	637.11
663.75	632.61
664.09	628.06
664.43	623.68
664.77	619.50
665.11	615.11
665.45	610.94
665.79	606.90
666.13	602.75
666.47	598.66
666.81	594.50
667.15	590.43
667.49	586.54
667.83	582.77
668.17	578.82
668.51	574.69
668.85	570.65
669.19	566.86
669.53	562.93
669.87	559.01
670.21	555.30
670.55	551.68
670.89	548.30
671.23	544.82
671.57	541.25
671.91	537.67
672.25	534.15
672.58	530.60
672.92	527.17
673.26	523.95
673.60	520.79
673.94	517.61
674.28	514.68
674.62	511.75
674.96	508.62
675.30	505.70
675.64	502.75
675.97	499.99
676.31	497.04
676.65	494.12
676.99	491.41
677.33	488.49
677.67	485.68
678.01	482.63
678.34	479.65
678.68	476.85
679.02	474.02
679.36	471.28
679.70	468.59
680.04	465.83
680.37	462.99
680.71	460.17
681.05	457.59
681.39	454.87
681.73	452.24
682.06	449.69
682.40	447.13
682.74	444.63
683.08	442.09
683.42	439.51
683.75	437.05
684.09	434.50
684.43	432.08
684.77	429.57
685.10	427.17
685.44	424.85
685.78	422.54
686.12	420.30
686.45	418.03
686.79	415.73
687.13	413.48
687.46	411.29
687.80	409.19
688.14	406.97
688.48	404.90
688.81	402.60
689.15	400.44
689.49	398.33
689.82	396.24
690.16	394.13
690.50	392.18
690.83	390.19
691.17	388.24
691.51	386.33
691.84	384.53
692.18	382.64
692.52	380.67
692.85	378.74
693.19	376.84
693.52	375.00
693.86	373.19
694.20	371.39
694.53	369.63
694.87	367.74
695.21	365.94
695.54	364.12
695.88	362.41
696.21	360.70
696.55	358.96
696.88	357.23
697.22	355.56
697.56	353.93
697.89	352.29
698.23	350.71
698.56	349.08
698.90	347.46
699.23	345.83
699.57	344.27
699.90	342.72
700.24	341.18
700.58	339.65
700.91	338.14
701.25	336.70
701.58	335.31
701.92	333.96
702.25	332.62
702.59	331.23
702.92	329.93
703.26	328.62
703.59	327.35
703.93	326.21
704.26	324.98
704.60	323.69
704.93	322.40
705.26	321.16
705.60	319.96
705.93	318.81
706.27	317.79
706.60	316.74
706.94	315.67
707.27	314.58
707.61	313.49
707.94	312.46
708.27	311.40
708.61	310.35
708.94	309.34
709.28	308.35
709.61	307.39
709.94	306.42
710.28	305.39
710.61	304.40
710.95	303.34
711.28	302.41
711.61	301.45
711.95	300.52
712.28	299.57
712.61	298.63
712.95	297.67
713.28	296.74
713.61	295.85
713.95	294.96
714.28	294.12
714.61	293.27
714.95	292.45
715.28	291.59
715.61	290.69
715.95	289.84
716.28	288.97
716.61	288.17
716.95	287.36
717.28	286.61
717.61	285.86
717.94	285.11
718.28	284.31
718.61	283.59
718.94	282.91
719.27	282.21
719.61	281.54
719.94	280.88
720.27	280.21
720.60	279.48
720.94	278.82
721.27	278.21
721.60	277.64
721.93	277.01
722.27	276.43
722.60	275.87
722.93	275.31
723.26	274.80
723.59	274.20
723.93	273.64
724.26	273.07
724.59	272.48
724.92	271.94
725.25	271.41
725.59	270.87
725.92	270.36
726.25	269.86
726.58	269.41
726.91	268.91
727.24	268.38
727.57	267.92
727.91	267.43
728.24	266.95
728.57	266.45
728.90	266.03
729.23	265.53
729.56	265.12
729.89	264.62
730.22	264.10
730.55	263.62
730.89	263.15
731.22	262.74
731.55	262.34
731.88	261.97
732.21	261.58
732.54	261.13
732.87	260.72
733.20	260.32
733.53	259.92
733.86	259.55
734.19	259.20
734.52	258.84
734.85	258.55
735.18	258.12
735.51	257.78
735.84	257.35
736.17	257.04
736.50	256.65
736.83	256.43
737.16	256.13
737.49	255.80
737.82	255.48
738.15	255.15
738.48	254.84
738.81	254.49
739.14	254.15
739.47	253.87
739.80	253.55
740.13	253.26
740.46	252.89
740.79	252.56
741.12	252.24
741.45	251.98
741.78	251.60
742.11	251.35
742.44	250.99
742.77	250.74
743.10	250.40
743.43	250.07
743.75	249.71
744.08	249.57
744.41	249.29
744.74	249.00
745.07	248.66
745.40	248.37
745.73	248.08
746.06	247.80
746.39	247.54
746.71	247.27
747.04	246.97
747.37	246.73
747.70	246.49
748.03	246.26
748.36	245.98
748.68	245.77
749.01	245.51
749.34	245.31
749.67	245.08
750.00	244.86
750.33	244.70
750.65	244.42
750.98	244.05
751.31	243.84
751.64	243.64
751.97	243.53
752.29	243.29
752.62	243.07
752.95	242.83
753.28	242.59
753.60	242.39
753.93	242.24
754.26	242.04
754.59	241.82
754.91	241.57
755.24	241.38
755.57	241.18
755.90	241.03
756.22	240.82
756.55	240.61
756.88	240.42
757.20	240.18
757.53	239.99
757.86	239.84
758.19	239.68
758.51	239.52
758.84	239.30
759.17	239.16
759.49	239.02
759.82	238.90
760.15	238.74
760.47	238.58
760.80	238.41
761.13	238.26
761.45	238.09
761.78	237.99
762.11	237.84
762.43	237.68
762.76	237.50
763.08	237.38
763.41	237.24
763.74	237.10
764.06	236.99
764.39	236.89
764.71	236.73
765.04	236.57
765.37	236.42
765.69	236.28
766.02	236.15
766.34	235.99
766.67	235.86
767.00	235.75
767.32	235.70
767.65	235.67
767.97	235.56
768.30	235.46
768.62	235.31
768.95	235.17
769.27	235.08
769.60	234.97
769.92	234.86
770.25	234.76
770.57	234.64
770.90	234.51
771.22	234.38
771.55	234.29
771.87	234.19
772.20	234.10
772.52	234.11
772.85	234.10
773.17	234.02
773.50	233.92
773.82	233.83
774.15	233.67
774.47	233.50
774.80	233.40
775.12	233.29
775.45	233.21
775.77	233.14
776.09	233.07
776.42	232.99
776.74	232.93
777.07	232.81
777.39	232.73
777.72	232.66
778.04	232.62
778.36	232.55
778.69	232.53
779.01	232.47
779.33	232.31
779.66	232.17
779.98	232.12
780.31	232.07
780.63	232.06
780.95	232.05
781.28	231.96
781.60	231.90
781.92	231.88
782.25	231.84
782.57	231.79
782.89	231.70
783.22	231.67
783.54	231.64
783.86	231.65
784.19	231.60
784.51	231.59
784.83	231.54
785.16	231.46
785.48	231.38
785.80	231.35
786.12	231.30
786.45	231.28
786.77	231.25
787.09	231.19
787.42	231.11
787.74	231.06
788.06	231.01
788.38	230.97
788.71	230.93
789.03	230.90
789.35	230.89
789.67	230.88
789.99	230.81
790.32	230.77
790.64	230.71
790.96	230.72
791.28	230.64
791.61	230.60
791.93	230.62
792.25	230.58
792.57	230.60
792.89	230.52
793.21	230.47
793.54	230.39
793.86	230.37
794.18	230.33
794.50	230.27
794.82	230.24
795.14	230.23
795.47	230.18
795.79	230.16
796.11	230.08
796.43	230.04
796.75	230.03
797.07	229.94
797.39	229.94
797.71	229.86
798.04	229.78
798.36	229.73
798.68	229.70
799.00	229.65
799.32	229.57
799.64	229.56
799.96	229.51
800.28	229.52
800.60	229.47
800.92	229.43
801.24	229.39
801.56	229.37
801.89	229.30
802.21	229.28
802.53	229.19
802.85	229.18
803.17	229.19
803.49	229.13
803.81	229.10
804.13	229.01
804.45	228.98
804.77	229.01
805.09	228.98
805.41	228.89
805.73	228.85
806.05	228.77
806.37	228.77
806.69	228.72
807.01	228.66
807.33	228.61
807.65	228.56
807.97	228.57
808.28	228.51
808.60	228.48
808.92	228.46
809.24	228.52
809.56	228.46
809.88	228.36
810.20	228.33
810.52	228.31
810.84	228.29
811.16	228.23
811.48	228.17
811.80	228.19
812.12	228.18
812.43	228.17
812.75	228.14
813.07	228.10
813.39	228.09
813.71	228.06
814.03	228.08
814.35	228.08
814.67	228.01
814.98	228.03
815.30	228.03
815.62	227.97
815.94	227.88
816.26	227.93
816.58	227.92
816.89	227.95
817.21	227.92
817.53	227.94
817.85	227.95
818.17	227.93
818.48	227.90
818.80	227.88
819.12	227.87
819.44	227.88
819.76	227.84
820.07	227.84
820.39	227.85
820.71	227.77
821.03	227.76
821.34	227.74
821.66	227.75
821.98	227.74
822.30	227.73
822.61	227.78
822.93	227.71
823.25	227.69
823.57	227.67
823.88	227.68
824.20	227.65
824.52	227.64
824.83	227.68
825.15	227.66
825.47	227.66
825.79	227.69
826.10	227.67
826.42	227.69
826.74	227.70
827.05	227.69
827.37	227.74
827.69	227.74
828.00	227.75
828.32	227.72
828.64	227.73
828.95	227.80
829.27	227.78
829.58	227.78
829.90	227.80
830.22	227.80
830.53	227.75
830.85	227.74
831.17	227.73
831.48	227.72
831.80	227.69
832.11	227.69
832.43	227.66
832.75	227.67
833.06	227.71
833.38	227.64
833.69	227.64
834.01	227.63
834.32	227.59
834.64	227.56
834.96	227.56
835.27	227.52
835.59	227.45
835.90	227.44
836.22	227.44
836.53	227.44
836.85	227.39
837.16	227.50
837.48	227.49
837.79	227.50
838.11	227.46
838.42	227.48
838.74	227.47
839.05	227.47
839.37	227.42
839.68	227.31
840.00	227.31
840.31	227.31
840.63	227.29
840.94	227.29
841.26	227.30
841.57	227.28
841.88	227.29
842.20	227.28
842.51	227.24
842.83	227.22
843.14	227.28
843.46	227.28
843.77	227.19
844.08	227.16
844.40	227.14
844.71	227.12
845.03	227.11
845.34	227.07
845.65	227.01
845.97	227.03
846.28	227.06
846.60	227.05
846.91	226.99
847.22	226.98
847.54	226.97
847.85	226.96
848.16	226.93
848.48	226.90
848.79	226.92
849.10	226.90
849.42	226.87
849.73	226.75
850.04	226.75
850.36	226.71
850.67	226.74
850.98	226.70
851.30	226.72
851.61	226.67
851.92	226.68
852.23	226.72
852.55	226.70
852.86	226.67
853.17	226.70
853.49	226.72
853.80	226.72
854.11	226.70
854.42	226.70
854.74	226.69
855.05	226.68
855.36	226.64
855.67	226.64
855.99	226.65
856.30	226.77
856.61	226.76
856.92	226.77
857.23	226.76
857.55	226.78
857.86	226.75
858.17	226.78
858.48	226.76
858.79	226.74
859.11	226.75
859.42	226.76
859.73	226.76
860.04	226.76
860.35	226.76
860.66	226.74
860.98	226.73
861.29	226.75
861.60	226.75
861.91	226.76
862.22	226.77
862.53	226.69
862.84	226.57
863.16	226.60
863.47	226.57
863.78	226.57
864.09	226.56
864.40	226.58
864.71	226.60
865.02	226.61
865.33	226.60
865.64	226.61
865.95	226.60
866.27	226.63
866.58	226.64
866.89	226.62
867.20	226.66
867.51	226.65
867.82	226.64
868.13	226.68
868.44	226.66
868.75	226.67
869.06	226.74
869.37	226.76
869.68	226.75
869.99	226.78
870.30	226.81
870.61	226.80
870.92	226.77
871.23	226.74
871.54	226.76
871.85	226.79
872.16	226.79
872.47	226.79
872.78	226.73
873.09	226.72
873.40	226.71
873.71	226.72
874.02	226.71
874.33	226.69
874.64	226.67
874.95	226.69
875.26	226.67
875.56	226.64
875.87	226.62
876.18	226.57
876.49	226.65
876.80	226.61
877.11	226.60
877.42	226.62
877.73	226.64
878.04	226.59
878.35	226.58
878.66	226.60
878.96	226.60
879.27	226.61
879.58	226.58
879.89	226.58
880.20	226.59
880.51	226.56
880.82	226.57
881.12	226.57
881.43	226.55
881.74	226.52
882.05	226.51
882.36	226.51
882.67	226.54
882.97	226.42
883.28	226.44
883.59	226.42
883.90	226.42
884.21	226.42
884.51	226.44
884.82	226.40
885.13	226.38
885.44	226.36
885.74	226.32
886.05	226.32
886.36	226.33
886.67	226.29
886.98	226.36
887.28	226.35
887.59	226.32
887.90	226.30
888.20	226.35
888.51	226.38
888.82	226.38
889.13	226.40
889.43	226.49
889.74	226.47
890.05	226.47
890.35	226.47
890.66	226.42
890.97	226.40
891.28	226.41
891.58	226.39
891.89	226.41
892.20	226.42
892.50	226.41
892.81	226.38
893.12	226.35
893.42	226.33
893.73	226.36
894.04	226.35
894.34	226.35
894.65	226.33
894.95	226.29
895.26	226.27
895.57	226.28
895.87	226.17
896.18	226.18
896.48	226.21
896.79	226.20
897.10	226.23
897.40	226.24
897.71	226.24
898.01	226.25
898.32	226.28
898.63	226.27
898.93	226.28
899.24	226.27
899.54	226.28
899.85	226.26
900.15	226.25
900.46	226.27
900.76	226.27
901.07	226.24
901.38	226.26
901.68	226.26
901.99	226.20
902.29	226.22
902.60	226.20
902.90	226.18
903.21	226.18
903.51	226.17
903.82	226.19
904.12	226.17
904.43	226.15
904.73	226.10
905.03	226.10
905.34	226.21
905.64	226.23
905.95	226.24
906.25	226.24
906.56	226.24
906.86	226.23
907.17	226.23
907.47	226.25
907.77	226.25
908.08	226.25
908.38	226.26
908.69	226.29
908.99	226.33
909.30	226.35
909.60	226.33
909.90	226.30
910.21	226.26
910.51	226.27
910.81	226.28
911.12	226.30
911.42	226.31
911.73	226.22
912.03	226.24
912.33	226.24
912.64	226.25
912.94	226.23
913.24	226.23
913.55	226.22
913.85	226.24
914.15	226.22
914.46	226.22
914.76	226.25
915.06	226.23
915.37	226.20
915.67	226.17
915.97	226.18
916.27	226.21
916.58	226.21
916.88	226.21
917.18	226.19
917.49	226.26
917.79	226.28
918.09	226.30
918.39	226.34
918.70	226.35
919.00	226.35
919.30	226.38
919.60	226.36
919.91	226.35
920.21	226.33
920.51	226.34
920.81	226.34
921.12	226.32
921.42	226.34
921.72	226.33
922.02	226.33
922.32	226.34
922.63	226.34
922.93	226.40
923.23	226.40
923.53	226.37
923.83	226.30
924.13	226.26
924.44	226.24
924.74	226.22
925.04	226.20
925.34	226.19
925.64	226.15
925.94	226.20
926.24	226.28
926.55	226.25
926.85	226.27
927.15	226.25
927.45	226.22
927.75	226.19
928.05	226.18
928.35	226.15
928.65	226.18
928.95	226.16
929.26	226.11
929.56	226.15
929.86	226.17
930.16	226.17
930.46	226.16
930.76	226.14
931.06	226.11
931.36	226.08
931.66	226.09
931.96	226.10
932.26	226.05
932.56	225.96
932.86	225.99
933.16	226.01
933.46	225.99
933.76	226.01
934.06	226.03
934.36	226.10
934.66	226.12
934.96	226.12
935.26	226.12
935.56	226.15
935.86	226.10
936.16	226.10
936.46	226.08
936.76	226.09
937.06	226.07
937.36	226.05
937.66	226.08
937.96	226.07
938.26	226.02
938.56	226.00
938.86	226.03
939.16	226.05
939.46	226.04
939.76	226.05
940.06	226.05
940.35	226.05
940.65	225.98
940.95	226.02
941.25	225.99
941.55	225.99
941.85	225.96
942.15	225.98
942.45	226.02
942.75	226.05
943.04	226.07
943.34	226.11
943.64	226.10
943.94	226.11
944.24	226.14
944.54	226.21
944.84	226.21
945.13	226.24
945.43	226.23
945.73	226.25
946.03	226.27
946.33	226.27
946.62	226.25
946.92	226.24
947.22	226.21
947.52	226.21
947.82	226.26
948.11	226.28
948.41	226.27
948.71	226.25
949.01	226.24
949.31	226.20
949.60	226.22
949.90	226.24
950.20	226.27
950.50	226.23
950.79	226.23
951.09	226.27
951.39	226.26
951.69	226.27
951.98	226.29
952.28	226.29
952.58	226.28
952.87	226.28
953.17	226.31
953.47	226.33
953.76	226.34
954.06	226.31
954.36	226.29
954.66	226.29
954.95	226.34
955.25	226.33
955.55	226.36
955.84	226.37
956.14	226.37
956.44	226.36
956.73	226.37
957.03	226.35
957.32	226.35
957.62	226.32
957.92	226.33
958.21	226.29
958.51	226.39
958.81	226.42
959.10	226.44
959.40	226.46
959.69	226.45
959.99	226.45
960.29	226.46
960.58	226.46
960.88	226.50
961.17	226.46
961.47	226.46
961.76	226.46
962.06	226.46
962.36	226.44
962.65	226.45
962.95	226.44
963.24	226.43
963.54	226.46
963.83	226.46
964.13	226.44
964.42	226.42
964.72	226.36
965.01	226.36
965.31	226.34
965.60	226.28
965.90	226.32
966.19	226.32
966.49	226.32
966.78	226.26
967.08	226.25
967.37	226.27
967.67	226.24
967.96	226.22
968.26	226.19
968.55	226.21
968.85	226.17
969.14	226.17
969.43	226.16
969.73	226.11
970.02	226.11
970.32	226.11
970.61	226.12
970.91	226.06
971.20	226.01
971.49	226.02
971.79	226.07
972.08	225.99
972.38	225.97
972.67	225.97
972.96	226.02
973.26	226.00
973.55	226.01
973.85	226.01
974.14	226.04
974.43	226.06
974.73	226.05
975.02	226.04
975.31	226.05
975.61	226.05
975.90	226.04
976.19	226.03
976.49	226.03
976.78	226.04
977.07	226.05
977.37	226.08
977.66	226.06
977.95	226.03
978.24	226.08
978.54	226.11
978.83	226.08
979.12	226.07
979.42	226.08
979.71	226.07
980.00	226.10
980.29	226.07
980.59	226.01
980.88	226.06
981.17	226.08
981.46	226.07
981.76	226.08
982.05	226.14
982.34	226.13
982.63	226.13
982.93	226.12
983.22	226.14
983.51	226.15
983.80	226.21
984.09	226.22
984.39	226.20
984.68	226.17
984.97	226.18
985.26	226.17
985.55	226.16
985.85	226.13
986.14	226.15
986.43	226.21
986.72	226.26
987.01	226.20
987.30	226.20
987.59	226.20
987.89	226.23
988.18	226.20
988.47	226.22
988.76	226.22
989.05	226.22
989.34	226.23
989.63	226.24
989.92	226.22
990.22	226.24
990.51	226.25
990.80	226.29
991.09	226.29
991.38	226.31
991.67	226.32
991.96	226.31
992.25	226.32
992.54	226.32
992.83	226.32
993.12	226.32
993.41	226.34
993.70	226.39
993.99	226.38
994.28	226.40
994.58	226.41
994.87	226.41
995.16	226.42
995.45	226.40
995.74	226.37
996.03	226.39
996.32	226.38
996.61	226.39
996.90	226.36
997.19	226.39
997.48	226.41
997.77	226.38
998.06	226.41
998.34	226.39
998.63	226.34
998.92	226.34
999.21	226.37
999.50	226.36
999.79	226.32
1000.08	226.31
1000.37	226.30
1000.66	226.25
1000.95	226.24
1001.24	226.23
1001.53	226.25
1001.82	226.24
1002.11	226.20
1002.40	226.20
1002.68	226.19
1002.97	226.27
1003.26	226.26
1003.55	226.24
1003.84	226.23
1004.13	226.27
1004.42	226.23
1004.71	226.23
1004.99	226.23
1005.28	226.23
1005.57	226.22
1005.86	226.19
1006.15	226.16
1006.44	226.17
1006.72	226.21
1007.01	226.18
1007.30	226.18
1007.59	226.15
1007.88	226.16
1008.17	226.15
1008.45	226.11
1008.74	226.09
1009.03	226.04
1009.32	226.00
1009.60	226.01
1009.89	226.00
1010.18	225.92
1010.47	225.92
1010.76	225.92
1011.04	225.90
1011.33	225.95
1011.62	225.96
1011.91	226.01
1012.19	226.02
1012.48	225.99
1012.77	225.99
1013.05	226.02
1013.34	226.01
1013.63	226.02
1013.92	226.01
1014.20	226.01
1014.49	226.04
1014.78	226.04
1015.06	226.00
1015.35	226.01
1015.64	226.01
1015.92	226.05
1016.21	226.06
1016.50	226.05
1016.78	226.06
1017.07	226.07
1017.36	225.98
1017.64	225.96
1017.93	225.91
1018.22	225.91
1018.50	225.92
1018.79	225.91
1019.08	225.90
1019.36	225.91
1019.65	225.89
1019.93	225.89
1020.22	225.87
1020.51	225.90
1020.79	225.86
1021.08	225.83
1021.36	225.93
1021.65	226.00
1021.94	226.13
1022.22	225.86
1022.51	225.71
1022.79	225.68
1023.08	225.52
1023.36	226.96
1023.65	225.12
>>>>>End Processed Spectral Data<<<<<
