SpectraSuite Data File
++++++++++++++++++++++++++++++++++++
Date: Fri Feb 01 15:01:42 EST 2013
User: group
Dark Spectrum Present: No
Reference Spectrum Present: No
Number of Sampled Component Spectra: 1
Spectrometers: USB2E7196
Integration Time (usec): 35000 (USB2E7196)
Spectra Averaged: 100 (USB2E7196)
Boxcar Smoothing: 10 (USB2E7196)
Correct for Electrical Dark: No (USB2E7196)
Strobe/Lamp Enabled: No (USB2E7196)
Correct for Detector Non-linearity: No (USB2E7196)
Correct for Stray Light: No (USB2E7196)
Number of Pixels in Processed Spectrum: 2048
>>>>>Begin Processed Spectral Data<<<<<
339.09	0.00
339.48	215.51
339.86	216.77
340.24	218.20
340.63	219.65
341.01	222.00
341.39	222.07
341.78	223.16
342.16	224.63
342.54	224.55
342.93	213.47
343.31	224.26
343.69	224.82
344.07	225.26
344.46	225.69
344.84	226.07
345.22	226.31
345.60	226.54
345.99	226.75
346.37	226.89
346.75	227.04
347.13	227.10
347.52	227.15
347.90	227.24
348.28	227.32
348.66	227.37
349.05	227.39
349.43	227.38
349.81	227.48
350.19	227.53
350.57	227.60
350.96	227.66
351.34	227.71
351.72	227.79
352.10	227.89
352.48	227.92
352.87	227.98
353.25	228.07
353.63	228.15
354.01	228.20
354.39	228.29
354.77	228.35
355.15	228.44
355.54	228.46
355.92	228.48
356.30	228.52
356.68	228.64
357.06	228.71
357.44	228.78
357.82	228.81
358.20	228.87
358.58	228.96
358.97	228.98
359.35	229.08
359.73	229.12
360.11	229.18
360.49	229.24
360.87	229.26
361.25	229.32
361.63	229.38
362.01	229.45
362.39	229.43
362.77	229.48
363.15	229.48
363.53	229.54
363.91	229.56
364.29	229.58
364.67	229.49
365.05	229.49
365.43	229.52
365.81	229.55
366.19	229.59
366.57	229.57
366.95	229.58
367.33	229.55
367.71	229.53
368.09	229.55
368.47	229.55
368.85	229.56
369.23	229.51
369.61	229.44
369.99	229.43
370.37	229.43
370.75	229.39
371.13	229.37
371.51	229.31
371.89	229.28
372.27	229.22
372.65	229.21
373.03	229.15
373.41	229.08
373.78	229.03
374.16	228.91
374.54	228.84
374.92	228.78
375.30	228.73
375.68	228.66
376.06	228.55
376.44	228.45
376.82	228.35
377.19	228.28
377.57	228.20
377.95	228.09
378.33	227.98
378.71	227.85
379.09	227.77
379.47	227.71
379.84	227.61
380.22	227.51
380.60	227.42
380.98	227.32
381.36	227.25
381.73	227.15
382.11	227.10
382.49	227.03
382.87	226.93
383.25	226.87
383.62	226.87
384.00	226.83
384.38	226.77
384.76	226.73
385.13	226.77
385.51	226.73
385.89	226.65
386.27	226.61
386.64	226.62
387.02	226.56
387.40	226.50
387.78	226.48
388.15	226.46
388.53	226.41
388.91	226.40
389.29	226.34
389.66	226.35
390.04	226.31
390.42	226.30
390.79	226.32
391.17	226.29
391.55	226.21
391.92	226.20
392.30	226.23
392.68	226.22
393.05	226.14
393.43	226.15
393.81	226.18
394.18	226.17
394.56	226.20
394.94	226.24
395.31	226.28
395.69	226.35
396.06	226.42
396.44	226.48
396.82	226.49
397.19	226.61
397.57	226.61
397.95	226.71
398.32	226.75
398.70	226.81
399.07	226.93
399.45	226.95
399.82	227.05
400.20	227.13
400.58	227.18
400.95	227.30
401.33	227.42
401.70	227.58
402.08	227.69
402.45	227.78
402.83	227.92
403.20	228.05
403.58	228.12
403.95	228.26
404.33	228.43
404.71	228.60
405.08	228.78
405.46	228.95
405.83	229.08
406.21	229.23
406.58	229.38
406.96	229.52
407.33	229.72
407.70	229.93
408.08	230.21
408.45	230.47
408.83	230.69
409.20	230.91
409.58	231.11
409.95	231.39
410.33	231.66
410.70	231.91
411.08	232.22
411.45	232.53
411.82	232.84
412.20	233.15
412.57	233.57
412.95	233.86
413.32	234.27
413.69	234.68
414.07	235.17
414.44	235.65
414.82	236.14
415.19	236.70
415.56	237.22
415.94	237.77
416.31	238.41
416.68	238.98
417.06	239.70
417.43	240.36
417.81	241.11
418.18	241.89
418.55	242.72
418.93	243.60
419.30	244.53
419.67	245.44
420.04	246.40
420.42	247.35
420.79	248.54
421.16	249.67
421.54	250.84
421.91	252.04
422.28	253.28
422.66	254.62
423.03	255.90
423.40	257.23
423.77	258.63
424.15	260.03
424.52	261.54
424.89	263.13
425.26	264.68
425.64	266.15
426.01	267.80
426.38	269.44
426.75	271.08
427.13	272.79
427.50	274.61
427.87	276.49
428.24	278.33
428.61	280.05
428.99	282.01
429.36	284.11
429.73	286.17
430.10	288.19
430.47	290.25
430.85	292.39
431.22	294.63
431.59	296.97
431.96	299.20
432.33	301.68
432.70	304.08
433.08	306.93
433.45	309.56
433.82	312.15
434.19	315.06
434.56	317.93
434.93	320.62
435.30	323.30
435.68	326.23
436.05	329.09
436.42	331.90
436.79	334.43
437.16	337.18
437.53	340.03
437.90	342.88
438.27	345.64
438.64	348.48
439.01	351.06
439.38	353.37
439.75	355.61
440.13	358.13
440.50	360.47
440.87	362.29
441.24	364.23
441.61	366.38
441.98	367.89
442.35	369.67
442.72	371.48
443.09	373.23
443.46	374.21
443.83	374.82
444.20	375.35
444.57	376.19
444.94	376.48
445.31	376.85
445.68	377.22
446.05	377.26
446.42	376.87
446.79	376.49
447.16	376.01
447.53	375.68
447.90	374.50
448.27	373.34
448.64	371.74
449.01	370.64
449.37	368.66
449.74	366.71
450.11	364.44
450.48	361.97
450.85	359.45
451.22	357.31
451.59	355.26
451.96	353.31
452.33	350.69
452.70	348.27
453.07	345.40
453.43	342.49
453.80	339.72
454.17	337.01
454.54	334.47
454.91	331.73
455.28	329.02
455.65	326.54
456.02	324.04
456.38	321.90
456.75	319.19
457.12	316.93
457.49	314.74
457.86	312.58
458.23	310.73
458.59	308.67
458.96	306.60
459.33	304.73
459.70	302.85
460.07	301.33
460.43	299.65
460.80	298.04
461.17	296.58
461.54	295.09
461.91	293.70
462.27	292.25
462.64	290.97
463.01	289.62
463.38	288.33
463.74	286.96
464.11	285.80
464.48	284.79
464.85	283.68
465.21	282.77
465.58	281.84
465.95	280.73
466.32	279.84
466.68	278.89
467.05	278.01
467.42	277.09
467.78	276.18
468.15	275.28
468.52	274.58
468.88	273.67
469.25	272.89
469.62	272.25
469.98	271.51
470.35	270.88
470.72	270.28
471.08	269.60
471.45	269.09
471.82	268.52
472.18	267.93
472.55	267.49
472.92	266.95
473.28	266.47
473.65	266.01
474.02	265.57
474.38	265.20
474.75	264.87
475.11	264.56
475.48	264.27
475.85	264.02
476.21	263.78
476.58	263.61
476.94	263.47
477.31	263.33
477.67	263.17
478.04	263.06
478.41	262.99
478.77	263.04
479.14	262.96
479.50	262.98
479.87	263.03
480.23	263.07
480.60	263.18
480.96	263.24
481.33	263.48
481.69	263.66
482.06	263.87
482.42	264.08
482.79	264.31
483.15	264.62
483.52	264.99
483.88	265.34
484.25	265.74
484.61	266.13
484.98	266.56
485.34	267.12
485.71	267.69
486.07	268.27
486.44	268.84
486.80	269.53
487.17	270.29
487.53	271.09
487.90	271.94
488.26	272.88
488.62	273.90
488.99	274.88
489.35	275.92
489.72	277.02
490.08	278.21
490.44	279.47
490.81	280.81
491.17	282.16
491.54	283.63
491.90	285.09
492.26	286.73
492.63	288.44
492.99	290.23
493.36	292.13
493.72	294.20
494.08	296.29
494.45	298.53
494.81	300.86
495.17	303.23
495.54	305.81
495.90	308.46
496.26	311.21
496.63	314.14
496.99	317.23
497.35	320.45
497.72	323.83
498.08	327.32
498.44	330.96
498.80	334.83
499.17	338.86
499.53	343.06
499.89	347.38
500.26	351.85
500.62	356.53
500.98	361.43
501.34	366.38
501.71	371.70
502.07	377.09
502.43	382.67
502.79	388.48
503.16	394.49
503.52	400.72
503.88	407.10
504.24	413.71
504.60	420.58
504.97	427.71
505.33	434.95
505.69	442.61
506.05	450.31
506.41	458.21
506.78	466.34
507.14	474.76
507.50	483.54
507.86	492.60
508.22	501.72
508.59	510.96
508.95	520.56
509.31	530.33
509.67	540.41
510.03	550.63
510.39	561.18
510.75	572.00
511.12	582.89
511.48	594.21
511.84	605.56
512.20	617.09
512.56	629.01
512.92	641.20
513.28	653.54
513.64	666.09
514.00	678.82
514.37	691.69
514.73	704.76
515.09	717.81
515.45	731.04
515.81	744.62
516.17	758.55
516.53	772.73
516.89	786.91
517.25	801.14
517.61	815.66
517.97	830.11
518.33	844.54
518.69	859.36
519.05	874.28
519.41	889.54
519.77	905.07
520.13	920.70
520.49	936.16
520.85	951.67
521.21	967.43
521.57	983.72
521.93	999.61
522.29	1016.07
522.65	1032.32
523.01	1048.60
523.37	1064.78
523.73	1081.14
524.09	1097.23
524.45	1113.55
524.81	1130.21
525.17	1147.13
525.53	1164.16
525.89	1181.15
526.25	1198.03
526.61	1214.49
526.97	1231.38
527.33	1247.88
527.68	1264.44
528.04	1281.01
528.40	1297.66
528.76	1314.76
529.12	1331.42
529.48	1348.39
529.84	1364.51
530.20	1381.22
530.56	1398.43
530.91	1415.86
531.27	1432.59
531.63	1449.16
531.99	1465.88
532.35	1481.99
532.71	1497.89
533.07	1514.16
533.42	1530.06
533.78	1546.26
534.14	1562.75
534.50	1578.16
534.86	1594.19
535.21	1609.37
535.57	1625.34
535.93	1640.82
536.29	1655.78
536.65	1671.01
537.00	1685.94
537.36	1701.35
537.72	1716.05
538.08	1730.42
538.44	1744.28
538.79	1758.30
539.15	1772.16
539.51	1785.99
539.87	1800.41
540.22	1814.18
540.58	1828.16
540.94	1841.63
541.29	1854.43
541.65	1867.12
542.01	1880.46
542.37	1892.87
542.72	1905.51
543.08	1917.45
543.44	1929.96
543.79	1941.19
544.15	1952.09
544.51	1963.65
544.87	1974.68
545.22	1985.42
545.58	1995.70
545.94	2005.57
546.29	2015.53
546.65	2025.25
547.01	2034.55
547.36	2043.31
547.72	2051.97
548.07	2059.77
548.43	2068.11
548.79	2076.30
549.14	2083.99
549.50	2091.39
549.86	2099.09
550.21	2106.31
550.57	2113.45
550.92	2120.06
551.28	2127.27
551.64	2134.42
551.99	2140.90
552.35	2146.96
552.70	2153.14
553.06	2159.08
553.41	2165.38
553.77	2171.39
554.13	2177.64
554.48	2183.65
554.84	2188.97
555.19	2194.10
555.55	2199.18
555.90	2203.48
556.26	2208.24
556.61	2212.94
556.97	2217.02
557.32	2221.05
557.68	2225.33
558.03	2229.63
558.39	2233.24
558.74	2237.62
559.10	2241.52
559.45	2245.12
559.81	2249.48
560.16	2253.24
560.52	2256.50
560.87	2259.89
561.23	2262.38
561.58	2265.19
561.94	2267.71
562.29	2270.23
562.64	2272.88
563.00	2275.53
563.35	2279.08
563.71	2282.11
564.06	2285.12
564.42	2287.97
564.77	2290.52
565.12	2292.48
565.48	2294.24
565.83	2295.94
566.19	2297.25
566.54	2298.17
566.89	2299.36
567.25	2299.76
567.60	2301.07
567.96	2302.68
568.31	2303.36
568.66	2304.36
569.02	2304.87
569.37	2305.08
569.72	2305.68
570.08	2305.58
570.43	2305.40
570.78	2304.39
571.14	2302.87
571.49	2301.38
571.84	2300.90
572.20	2299.35
572.55	2298.12
572.90	2296.49
573.26	2294.97
573.61	2293.10
573.96	2291.03
574.31	2287.69
574.67	2284.51
575.02	2280.71
575.37	2277.03
575.72	2272.95
576.08	2269.54
576.43	2265.99
576.78	2262.13
577.13	2258.92
577.49	2255.85
577.84	2252.03
578.19	2248.29
578.54	2244.41
578.90	2240.03
579.25	2234.28
579.60	2229.33
579.95	2224.28
580.30	2218.99
580.66	2213.86
581.01	2208.71
581.36	2203.61
581.71	2199.26
582.06	2194.60
582.42	2189.88
582.77	2184.53
583.12	2179.96
583.47	2175.10
583.82	2170.05
584.17	2164.67
584.53	2158.86
584.88	2152.91
585.23	2147.11
585.58	2141.58
585.93	2136.00
586.28	2131.15
586.63	2126.02
586.98	2120.79
587.34	2116.00
587.69	2111.19
588.04	2105.74
588.39	2100.04
588.74	2093.48
589.09	2087.29
589.44	2080.45
589.79	2074.31
590.14	2068.56
590.49	2061.81
590.84	2055.17
591.19	2048.96
591.54	2042.46
591.89	2035.00
592.25	2028.26
592.60	2021.09
592.95	2013.25
593.30	2005.80
593.65	1998.08
594.00	1991.01
594.35	1983.71
594.70	1975.50
595.05	1968.01
595.40	1960.75
595.75	1953.07
596.10	1946.69
596.45	1939.79
596.80	1933.66
597.15	1927.00
597.50	1919.87
597.85	1913.39
598.19	1906.71
598.54	1899.49
598.89	1892.82
599.24	1886.89
599.59	1880.11
599.94	1873.84
600.29	1867.54
600.64	1860.97
600.99	1853.32
601.34	1846.35
601.69	1839.34
602.04	1832.35
602.39	1824.96
602.74	1818.00
603.08	1811.35
603.43	1804.58
603.78	1797.38
604.13	1790.00
604.48	1782.61
604.83	1775.78
605.18	1768.80
605.53	1760.81
605.87	1752.74
606.22	1745.43
606.57	1737.52
606.92	1730.29
607.27	1723.00
607.62	1716.16
607.96	1708.78
608.31	1702.30
608.66	1694.57
609.01	1687.03
609.36	1679.68
609.70	1671.64
610.05	1663.53
610.40	1655.77
610.75	1647.47
611.10	1639.77
611.44	1631.52
611.79	1623.59
612.14	1614.88
612.49	1605.84
612.83	1597.52
613.18	1589.49
613.53	1581.42
613.88	1572.98
614.22	1564.53
614.57	1556.05
614.92	1548.00
615.27	1540.61
615.61	1532.27
615.96	1524.43
616.31	1516.85
616.65	1509.33
617.00	1501.87
617.35	1494.24
617.70	1485.88
618.04	1477.39
618.39	1469.25
618.74	1461.68
619.08	1453.40
619.43	1445.97
619.78	1439.00
620.12	1431.83
620.47	1424.41
620.82	1416.24
621.16	1408.84
621.51	1401.28
621.85	1393.67
622.20	1385.15
622.55	1376.80
622.89	1369.08
623.24	1361.53
623.59	1354.18
623.93	1346.76
624.28	1339.52
624.62	1332.14
624.97	1324.97
625.32	1318.31
625.66	1311.34
626.01	1304.09
626.35	1296.68
626.70	1288.86
627.04	1281.21
627.39	1273.54
627.73	1266.12
628.08	1259.23
628.43	1251.81
628.77	1244.45
629.12	1236.95
629.46	1229.77
629.81	1222.35
630.15	1215.14
630.50	1207.82
630.84	1199.62
631.19	1191.66
631.53	1184.26
631.88	1176.69
632.22	1169.09
632.57	1161.87
632.91	1154.33
633.26	1146.90
633.60	1139.66
633.95	1132.64
634.29	1125.70
634.64	1119.06
634.98	1111.79
635.32	1104.67
635.67	1098.23
636.01	1091.74
636.36	1084.89
636.70	1078.52
637.05	1072.03
637.39	1065.59
637.73	1059.01
638.08	1053.21
638.42	1047.43
638.77	1040.99
639.11	1034.40
639.45	1028.21
639.80	1021.47
640.14	1015.00
640.49	1008.57
640.83	1002.28
641.17	996.09
641.52	989.73
641.86	983.38
642.20	977.57
642.55	971.38
642.89	964.90
643.23	958.41
643.58	952.77
643.92	946.52
644.26	940.53
644.61	934.53
644.95	928.51
645.29	921.98
645.64	915.18
645.98	908.91
646.32	903.08
646.66	897.04
647.01	891.32
647.35	885.74
647.69	879.94
648.04	874.39
648.38	868.58
648.72	862.62
649.06	856.58
649.41	850.70
649.75	844.68
650.09	838.74
650.43	832.97
650.78	826.81
651.12	820.93
651.46	815.16
651.80	809.45
652.14	804.13
652.49	798.75
652.83	793.69
653.17	787.96
653.51	782.26
653.85	776.94
654.20	771.24
654.54	765.26
654.88	759.58
655.22	753.80
655.56	748.19
655.90	742.75
656.25	737.49
656.59	732.14
656.93	727.12
657.27	722.06
657.61	716.67
657.95	711.53
658.29	706.46
658.64	701.28
658.98	696.01
659.32	690.58
659.66	685.35
660.00	680.01
660.34	675.15
660.68	670.32
661.02	665.25
661.36	660.66
661.70	656.21
662.05	651.87
662.39	647.55
662.73	643.08
663.07	638.73
663.41	634.26
663.75	629.78
664.09	625.25
664.43	620.91
664.77	616.76
665.11	612.60
665.45	608.52
665.79	604.41
666.13	600.24
666.47	596.13
666.81	591.99
667.15	587.89
667.49	584.04
667.83	580.23
668.17	576.31
668.51	572.22
668.85	568.21
669.19	564.41
669.53	560.54
669.87	556.75
670.21	553.09
670.55	549.50
670.89	546.13
671.23	542.76
671.57	539.23
671.91	535.70
672.25	532.20
672.58	528.73
672.92	525.43
673.26	522.32
673.60	519.25
673.94	516.19
674.28	513.25
674.62	510.30
674.96	507.24
675.30	504.37
675.64	501.48
675.97	498.75
676.31	495.88
676.65	492.98
676.99	490.26
677.33	487.45
677.67	484.68
678.01	481.63
678.34	478.66
678.68	475.82
679.02	473.06
679.36	470.31
679.70	467.58
680.04	464.82
680.37	461.95
680.71	459.16
681.05	456.60
681.39	453.91
681.73	451.30
682.06	448.78
682.40	446.24
682.74	443.76
683.08	441.26
683.42	438.69
683.75	436.18
684.09	433.73
684.43	431.29
684.77	428.82
685.10	426.49
685.44	424.28
685.78	421.97
686.12	419.79
686.45	417.57
686.79	415.27
687.13	413.07
687.46	410.96
687.80	408.86
688.14	406.65
688.48	404.62
688.81	402.39
689.15	400.20
689.49	398.09
689.82	395.99
690.16	393.87
690.50	391.91
690.83	390.03
691.17	388.00
691.51	386.06
691.84	384.21
692.18	382.33
692.52	380.29
692.85	378.40
693.19	376.52
693.52	374.68
693.86	372.93
694.20	371.15
694.53	369.35
694.87	367.54
695.21	365.77
695.54	363.96
695.88	362.28
696.21	360.58
696.55	358.86
696.88	357.20
697.22	355.55
697.56	353.94
697.89	352.22
698.23	350.60
698.56	349.01
698.90	347.41
699.23	345.76
699.57	344.19
699.90	342.66
700.24	341.09
700.58	339.55
700.91	338.01
701.25	336.57
701.58	335.18
701.92	333.78
702.25	332.37
702.59	331.01
702.92	329.65
703.26	328.38
703.59	327.11
703.93	325.93
704.26	324.71
704.60	323.45
704.93	322.25
705.26	321.03
705.60	319.90
705.93	318.78
706.27	317.74
706.60	316.73
706.94	315.66
707.27	314.53
707.61	313.52
707.94	312.51
708.27	311.43
708.61	310.36
708.94	309.35
709.28	308.42
709.61	307.50
709.94	306.57
710.28	305.58
710.61	304.62
710.95	303.57
711.28	302.64
711.61	301.67
711.95	300.77
712.28	299.85
712.61	298.83
712.95	297.92
713.28	297.02
713.61	296.12
713.95	295.23
714.28	294.42
714.61	293.51
714.95	292.66
715.28	291.81
715.61	290.95
715.95	290.11
716.28	289.27
716.61	288.44
716.95	287.66
717.28	286.93
717.61	286.19
717.94	285.49
718.28	284.68
718.61	283.98
718.94	283.28
719.27	282.63
719.61	282.06
719.94	281.40
720.27	280.72
720.60	280.09
720.94	279.48
721.27	278.90
721.60	278.38
721.93	277.84
722.27	277.31
722.60	276.78
722.93	276.21
723.26	275.68
723.59	275.12
723.93	274.57
724.26	274.03
724.59	273.48
724.92	272.92
725.25	272.48
725.59	271.94
725.92	271.46
726.25	270.93
726.58	270.40
726.91	269.89
727.24	269.45
727.57	268.95
727.91	268.43
728.24	267.95
728.57	267.43
728.90	266.94
729.23	266.48
729.56	266.03
729.89	265.56
730.22	265.07
730.55	264.59
730.89	264.13
731.22	263.67
731.55	263.24
731.88	262.82
732.21	262.38
732.54	261.98
732.87	261.55
733.20	261.15
733.53	260.75
733.86	260.40
734.19	259.98
734.52	259.59
734.85	259.28
735.18	258.87
735.51	258.50
735.84	258.18
736.17	257.81
736.50	257.41
736.83	257.18
737.16	256.81
737.49	256.50
737.82	256.18
738.15	255.82
738.48	255.47
738.81	255.12
739.14	254.78
739.47	254.42
739.80	254.08
740.13	253.75
740.46	253.38
740.79	253.02
741.12	252.71
741.45	252.38
741.78	252.03
742.11	251.72
742.44	251.40
742.77	251.11
743.10	250.79
743.43	250.49
743.75	250.10
744.08	249.96
744.41	249.68
744.74	249.37
745.07	249.09
745.40	248.84
745.73	248.58
746.06	248.32
746.39	248.09
746.71	247.84
747.04	247.60
747.37	247.36
747.70	247.14
748.03	246.91
748.36	246.71
748.68	246.47
749.01	246.24
749.34	246.01
749.67	245.71
750.00	245.51
750.33	245.37
750.65	245.16
750.98	244.82
751.31	244.59
751.64	244.40
751.97	244.27
752.29	244.10
752.62	243.88
752.95	243.67
753.28	243.46
753.60	243.26
753.93	243.10
754.26	242.92
754.59	242.72
754.91	242.50
755.24	242.30
755.57	242.15
755.90	241.99
756.22	241.81
756.55	241.66
756.88	241.48
757.20	241.26
757.53	241.07
757.86	240.91
758.19	240.77
758.51	240.60
758.84	240.40
759.17	240.19
759.49	240.05
759.82	239.97
760.15	239.84
760.47	239.68
760.80	239.52
761.13	239.40
761.45	239.25
761.78	239.10
762.11	238.93
762.43	238.76
762.76	238.63
763.08	238.50
763.41	238.36
763.74	238.22
764.06	238.08
764.39	237.94
764.71	237.83
765.04	237.66
765.37	237.54
765.69	237.42
766.02	237.32
766.34	237.17
766.67	237.00
767.00	236.88
767.32	236.81
767.65	236.72
767.97	236.57
768.30	236.45
768.62	236.36
768.95	236.27
769.27	236.15
769.60	236.04
769.92	235.90
770.25	235.79
770.57	235.67
770.90	235.55
771.22	235.45
771.55	235.33
771.87	235.24
772.20	235.12
772.52	235.09
772.85	235.07
773.17	234.98
773.50	234.85
773.82	234.75
774.15	234.61
774.47	234.43
774.80	234.35
775.12	234.24
775.45	234.15
775.77	234.06
776.09	233.99
776.42	233.91
776.74	233.87
777.07	233.77
777.39	233.71
777.72	233.63
778.04	233.57
778.36	233.50
778.69	233.45
779.01	233.38
779.33	233.24
779.66	233.06
779.98	232.97
780.31	232.92
780.63	232.88
780.95	232.82
781.28	232.79
781.60	232.69
781.92	232.64
782.25	232.55
782.57	232.45
782.89	232.38
783.22	232.28
783.54	232.19
783.86	232.19
784.19	232.11
784.51	232.10
784.83	232.02
785.16	231.96
785.48	231.89
785.80	231.84
786.12	231.77
786.45	231.73
786.77	231.69
787.09	231.65
787.42	231.60
787.74	231.57
788.06	231.51
788.38	231.51
788.71	231.45
789.03	231.44
789.35	231.45
789.67	231.40
789.99	231.37
790.32	231.36
790.64	231.31
790.96	231.34
791.28	231.23
791.61	231.21
791.93	231.18
792.25	231.15
792.57	231.20
792.89	231.18
793.21	231.15
793.54	231.11
793.86	231.07
794.18	231.01
794.50	230.95
794.82	230.95
795.14	230.91
795.47	230.92
795.79	230.91
796.11	230.85
796.43	230.83
796.75	230.84
797.07	230.80
797.39	230.79
797.71	230.72
798.04	230.76
798.36	230.71
798.68	230.69
799.00	230.65
799.32	230.55
799.64	230.57
799.96	230.57
800.28	230.55
800.60	230.54
800.92	230.53
801.24	230.48
801.56	230.44
801.89	230.42
802.21	230.39
802.53	230.31
802.85	230.30
803.17	230.28
803.49	230.19
803.81	230.14
804.13	230.09
804.45	230.07
804.77	230.03
805.09	230.04
805.41	230.00
805.73	229.97
806.05	229.94
806.37	229.84
806.69	229.79
807.01	229.76
807.33	229.70
807.65	229.63
807.97	229.66
808.28	229.62
808.60	229.57
808.92	229.54
809.24	229.58
809.56	229.52
809.88	229.48
810.20	229.48
810.52	229.45
810.84	229.42
811.16	229.37
811.48	229.34
811.80	229.31
812.12	229.28
812.43	229.24
812.75	229.21
813.07	229.17
813.39	229.14
813.71	229.09
814.03	229.06
814.35	229.01
814.67	228.94
814.98	228.92
815.30	228.89
815.62	228.84
815.94	228.75
816.26	228.79
816.58	228.76
816.89	228.72
817.21	228.69
817.53	228.65
817.85	228.63
818.17	228.57
818.48	228.52
818.80	228.51
819.12	228.49
819.44	228.48
819.76	228.45
820.07	228.44
820.39	228.42
820.71	228.41
821.03	228.42
821.34	228.42
821.66	228.41
821.98	228.44
822.30	228.43
822.61	228.47
822.93	228.41
823.25	228.40
823.57	228.38
823.88	228.40
824.20	228.44
824.52	228.42
824.83	228.43
825.15	228.43
825.47	228.40
825.79	228.40
826.10	228.37
826.42	228.37
826.74	228.35
827.05	228.35
827.37	228.36
827.69	228.34
828.00	228.33
828.32	228.31
828.64	228.26
828.95	228.30
829.27	228.25
829.58	228.23
829.90	228.23
830.22	228.25
830.53	228.19
830.85	228.17
831.17	228.11
831.48	228.11
831.80	228.11
832.11	228.13
832.43	228.11
832.75	228.14
833.06	228.22
833.38	228.20
833.69	228.22
834.01	228.22
834.32	228.23
834.64	228.21
834.96	228.22
835.27	228.23
835.59	228.21
835.90	228.19
836.22	228.20
836.53	228.19
836.85	228.18
837.16	228.27
837.48	228.24
837.79	228.31
838.11	228.31
838.42	228.29
838.74	228.30
839.05	228.33
839.37	228.32
839.68	228.22
840.00	228.18
840.31	228.18
840.63	228.19
840.94	228.18
841.26	228.18
841.57	228.18
841.88	228.19
842.20	228.18
842.51	228.15
842.83	228.15
843.14	228.22
843.46	228.23
843.77	228.19
844.08	228.21
844.40	228.20
844.71	228.21
845.03	228.21
845.34	228.15
845.65	228.15
845.97	228.12
846.28	228.12
846.60	228.17
846.91	228.16
847.22	228.16
847.54	228.17
847.85	228.19
848.16	228.19
848.48	228.16
848.79	228.15
849.10	228.19
849.42	228.19
849.73	228.07
850.04	228.06
850.36	228.04
850.67	228.03
850.98	227.97
851.30	227.96
851.61	227.96
851.92	227.98
852.23	228.01
852.55	228.00
852.86	228.02
853.17	228.03
853.49	228.06
853.80	228.02
854.11	228.00
854.42	227.98
854.74	227.94
855.05	227.94
855.36	227.90
855.67	227.87
855.99	227.88
856.30	227.98
856.61	227.99
856.92	227.96
857.23	227.97
857.55	228.00
857.86	227.99
858.17	227.97
858.48	227.94
858.79	227.86
859.11	227.87
859.42	227.83
859.73	227.82
860.04	227.78
860.35	227.78
860.66	227.75
860.98	227.74
861.29	227.76
861.60	227.74
861.91	227.77
862.22	227.75
862.53	227.71
862.84	227.63
863.16	227.64
863.47	227.62
863.78	227.60
864.09	227.58
864.40	227.58
864.71	227.59
865.02	227.61
865.33	227.62
865.64	227.59
865.95	227.56
866.27	227.63
866.58	227.62
866.89	227.64
867.20	227.61
867.51	227.64
867.82	227.62
868.13	227.66
868.44	227.64
868.75	227.66
869.06	227.68
869.37	227.66
869.68	227.64
869.99	227.64
870.30	227.65
870.61	227.65
870.92	227.62
871.23	227.62
871.54	227.61
871.85	227.63
872.16	227.64
872.47	227.65
872.78	227.56
873.09	227.57
873.40	227.55
873.71	227.60
874.02	227.59
874.33	227.61
874.64	227.57
874.95	227.58
875.26	227.60
875.56	227.60
875.87	227.59
876.18	227.62
876.49	227.74
876.80	227.75
877.11	227.77
877.42	227.78
877.73	227.78
878.04	227.78
878.35	227.80
878.66	227.82
878.96	227.83
879.27	227.82
879.58	227.83
879.89	227.80
880.20	227.83
880.51	227.79
880.82	227.75
881.12	227.73
881.43	227.73
881.74	227.68
882.05	227.69
882.36	227.72
882.67	227.70
882.97	227.55
883.28	227.51
883.59	227.49
883.90	227.51
884.21	227.52
884.51	227.51
884.82	227.47
885.13	227.49
885.44	227.47
885.74	227.50
886.05	227.48
886.36	227.50
886.67	227.46
886.98	227.52
887.28	227.52
887.59	227.53
887.90	227.52
888.20	227.51
888.51	227.50
888.82	227.47
889.13	227.46
889.43	227.56
889.74	227.54
890.05	227.52
890.35	227.50
890.66	227.49
890.97	227.49
891.28	227.47
891.58	227.46
891.89	227.47
892.20	227.41
892.50	227.39
892.81	227.37
893.12	227.38
893.42	227.35
893.73	227.37
894.04	227.40
894.34	227.38
894.65	227.37
894.95	227.37
895.26	227.34
895.57	227.38
895.87	227.31
896.18	227.31
896.48	227.32
896.79	227.30
897.10	227.31
897.40	227.34
897.71	227.34
898.01	227.31
898.32	227.30
898.63	227.34
898.93	227.35
899.24	227.37
899.54	227.35
899.85	227.33
900.15	227.32
900.46	227.28
900.76	227.29
901.07	227.32
901.38	227.31
901.68	227.31
901.99	227.27
902.29	227.24
902.60	227.25
902.90	227.25
903.21	227.27
903.51	227.26
903.82	227.26
904.12	227.28
904.43	227.28
904.73	227.29
905.03	227.29
905.34	227.37
905.64	227.36
905.95	227.38
906.25	227.39
906.56	227.37
906.86	227.37
907.17	227.35
907.47	227.34
907.77	227.31
908.08	227.32
908.38	227.30
908.69	227.29
908.99	227.30
909.30	227.29
909.60	227.28
909.90	227.28
910.21	227.23
910.51	227.21
910.81	227.22
911.12	227.23
911.42	227.21
911.73	227.14
912.03	227.12
912.33	227.14
912.64	227.10
912.94	227.10
913.24	227.12
913.55	227.16
913.85	227.19
914.15	227.25
914.46	227.25
914.76	227.27
915.06	227.29
915.37	227.27
915.67	227.25
915.97	227.24
916.27	227.22
916.58	227.22
916.88	227.21
917.18	227.20
917.49	227.26
917.79	227.28
918.09	227.27
918.39	227.29
918.70	227.29
919.00	227.31
919.30	227.34
919.60	227.31
919.91	227.29
920.21	227.26
920.51	227.22
920.81	227.24
921.12	227.25
921.42	227.26
921.72	227.30
922.02	227.33
922.32	227.36
922.63	227.40
922.93	227.45
923.23	227.47
923.53	227.47
923.83	227.39
924.13	227.39
924.44	227.40
924.74	227.41
925.04	227.41
925.34	227.38
925.64	227.38
925.94	227.41
926.24	227.43
926.55	227.43
926.85	227.43
927.15	227.40
927.45	227.39
927.75	227.36
928.05	227.37
928.35	227.37
928.65	227.38
928.95	227.36
929.26	227.33
929.56	227.37
929.86	227.39
930.16	227.40
930.46	227.42
930.76	227.42
931.06	227.34
931.36	227.35
931.66	227.37
931.96	227.37
932.26	227.39
932.56	227.37
932.86	227.37
933.16	227.38
933.46	227.37
933.76	227.39
934.06	227.43
934.36	227.44
934.66	227.44
934.96	227.41
935.26	227.43
935.56	227.41
935.86	227.37
936.16	227.35
936.46	227.31
936.76	227.29
937.06	227.28
937.36	227.29
937.66	227.26
937.96	227.27
938.26	227.23
938.56	227.21
938.86	227.24
939.16	227.29
939.46	227.29
939.76	227.31
940.06	227.29
940.35	227.24
940.65	227.20
940.95	227.19
941.25	227.16
941.55	227.12
941.85	227.14
942.15	227.15
942.45	227.16
942.75	227.17
943.04	227.14
943.34	227.16
943.64	227.16
943.94	227.15
944.24	227.15
944.54	227.13
944.84	227.13
945.13	227.07
945.43	227.02
945.73	226.99
946.03	226.95
946.33	226.93
946.62	226.97
946.92	226.97
947.22	226.97
947.52	226.98
947.82	227.00
948.11	226.99
948.41	226.95
948.71	226.93
949.01	226.94
949.31	226.95
949.60	226.95
949.90	226.98
950.20	227.00
950.50	227.00
950.79	227.02
951.09	227.00
951.39	227.01
951.69	227.01
951.98	227.04
952.28	227.05
952.58	227.05
952.87	227.02
953.17	227.02
953.47	227.00
953.76	227.02
954.06	226.99
954.36	226.97
954.66	226.97
954.95	227.01
955.25	227.03
955.55	227.06
955.84	227.06
956.14	227.05
956.44	227.05
956.73	227.02
957.03	227.04
957.32	227.07
957.62	227.07
957.92	227.08
958.21	227.08
958.51	227.21
958.81	227.27
959.10	227.33
959.40	227.37
959.69	227.41
959.99	227.42
960.29	227.47
960.58	227.48
960.88	227.59
961.17	227.56
961.47	227.55
961.76	227.55
962.06	227.55
962.36	227.57
962.65	227.56
962.95	227.58
963.24	227.58
963.54	227.59
963.83	227.63
964.13	227.63
964.42	227.59
964.72	227.50
965.01	227.46
965.31	227.41
965.60	227.40
965.90	227.44
966.19	227.39
966.49	227.36
966.78	227.36
967.08	227.29
967.37	227.28
967.67	227.26
967.96	227.25
968.26	227.22
968.55	227.22
968.85	227.23
969.14	227.22
969.43	227.23
969.73	227.21
970.02	227.19
970.32	227.16
970.61	227.17
970.91	227.13
971.20	227.10
971.49	227.09
971.79	227.07
972.08	227.01
972.38	227.04
972.67	227.05
972.96	227.06
973.26	227.07
973.55	227.12
973.85	227.14
974.14	227.12
974.43	227.14
974.73	227.13
975.02	227.13
975.31	227.10
975.61	227.07
975.90	227.03
976.19	226.99
976.49	226.99
976.78	227.01
977.07	227.03
977.37	227.02
977.66	227.03
977.95	227.04
978.24	227.03
978.54	227.03
978.83	226.99
979.12	226.96
979.42	226.92
979.71	226.87
980.00	226.86
980.29	226.87
980.59	226.83
980.88	226.83
981.17	226.80
981.46	226.82
981.76	226.84
982.05	226.87
982.34	226.90
982.63	226.87
982.93	226.89
983.22	226.90
983.51	226.95
983.80	226.95
984.09	226.95
984.39	226.92
984.68	226.88
984.97	226.90
985.26	226.92
985.55	226.91
985.85	226.90
986.14	226.95
986.43	226.96
986.72	226.93
987.01	226.92
987.30	226.90
987.59	226.91
987.89	226.89
988.18	226.88
988.47	226.85
988.76	226.86
989.05	226.81
989.34	226.82
989.63	226.81
989.92	226.78
990.22	226.79
990.51	226.81
990.80	226.83
991.09	226.84
991.38	226.86
991.67	226.87
991.96	226.85
992.25	226.80
992.54	226.79
992.83	226.83
993.12	226.85
993.41	226.91
993.70	226.90
993.99	226.93
994.28	226.94
994.58	226.99
994.87	227.01
995.16	226.99
995.45	227.00
995.74	226.98
996.03	227.02
996.32	227.04
996.61	227.05
996.90	227.07
997.19	227.07
997.48	227.06
997.77	227.04
998.06	227.07
998.34	227.09
998.63	227.08
998.92	227.10
999.21	227.08
999.50	227.08
999.79	227.09
1000.08	227.09
1000.37	227.07
1000.66	227.06
1000.95	227.06
1001.24	227.12
1001.53	227.13
1001.82	227.15
1002.11	227.13
1002.40	227.13
1002.68	227.18
1002.97	227.22
1003.26	227.23
1003.55	227.19
1003.84	227.23
1004.13	227.26
1004.42	227.20
1004.71	227.24
1004.99	227.21
1005.28	227.22
1005.57	227.16
1005.86	227.16
1006.15	227.17
1006.44	227.18
1006.72	227.19
1007.01	227.19
1007.30	227.15
1007.59	227.13
1007.88	227.10
1008.17	227.09
1008.45	227.02
1008.74	226.97
1009.03	226.92
1009.32	226.90
1009.60	226.96
1009.89	226.94
1010.18	226.90
1010.47	226.90
1010.76	226.88
1011.04	226.89
1011.33	226.96
1011.62	226.99
1011.91	226.98
1012.19	226.95
1012.48	226.95
1012.77	226.94
1013.05	226.99
1013.34	227.00
1013.63	226.99
1013.92	227.01
1014.20	227.03
1014.49	227.09
1014.78	227.09
1015.06	227.07
1015.35	227.08
1015.64	227.06
1015.92	227.06
1016.21	227.09
1016.50	227.12
1016.78	227.13
1017.07	227.14
1017.36	227.08
1017.64	227.11
1017.93	227.10
1018.22	227.10
1018.50	227.08
1018.79	227.06
1019.08	227.00
1019.36	227.00
1019.65	226.97
1019.93	226.99
1020.22	226.97
1020.51	227.03
1020.79	227.03
1021.08	226.60
1021.36	226.42
1021.65	226.91
1021.94	226.97
1022.22	226.80
1022.51	226.66
1022.79	227.30
1023.08	226.97
1023.36	228.43
1023.65	226.98
>>>>>End Processed Spectral Data<<<<<
