SpectraSuite Data File
++++++++++++++++++++++++++++++++++++
Date: Fri Feb 01 16:42:01 EST 2013
User: group
Dark Spectrum Present: No
Reference Spectrum Present: No
Number of Sampled Component Spectra: 1
Spectrometers: USB2E7196
Integration Time (usec): 35000 (USB2E7196)
Spectra Averaged: 100 (USB2E7196)
Boxcar Smoothing: 10 (USB2E7196)
Correct for Electrical Dark: No (USB2E7196)
Strobe/Lamp Enabled: No (USB2E7196)
Correct for Detector Non-linearity: No (USB2E7196)
Correct for Stray Light: No (USB2E7196)
Number of Pixels in Processed Spectrum: 2048
>>>>>Begin Processed Spectral Data<<<<<
339.09	0.00
339.48	213.52
339.86	214.53
340.24	216.05
340.63	218.06
341.01	220.89
341.39	220.11
341.78	221.85
342.16	222.66
342.54	223.69
342.93	211.93
343.31	222.67
343.69	223.21
344.07	223.72
344.46	224.16
344.84	224.55
345.22	224.76
345.60	225.01
345.99	225.19
346.37	225.32
346.75	225.41
347.13	225.47
347.52	225.55
347.90	225.62
348.28	225.67
348.66	225.71
349.05	225.70
349.43	225.73
349.81	225.79
350.19	225.80
350.57	225.87
350.96	225.93
351.34	226.01
351.72	226.10
352.10	226.13
352.48	226.19
352.87	226.23
353.25	226.27
353.63	226.35
354.01	226.44
354.39	226.52
354.77	226.60
355.15	226.70
355.54	226.73
355.92	226.75
356.30	226.79
356.68	226.92
357.06	227.01
357.44	227.09
357.82	227.12
358.20	227.19
358.58	227.27
358.97	227.34
359.35	227.42
359.73	227.47
360.11	227.56
360.49	227.62
360.87	227.67
361.25	227.76
361.63	227.86
362.01	227.91
362.39	227.95
362.77	227.99
363.15	228.03
363.53	228.08
363.91	228.09
364.29	228.14
364.67	228.04
365.05	228.04
365.43	228.06
365.81	228.11
366.19	228.18
366.57	228.20
366.95	228.19
367.33	228.14
367.71	228.17
368.09	228.19
368.47	228.18
368.85	228.18
369.23	228.19
369.61	228.11
369.99	228.10
370.37	228.10
370.75	228.11
371.13	228.07
371.51	228.02
371.89	227.99
372.27	227.95
372.65	227.93
373.03	227.89
373.41	227.84
373.78	227.77
374.16	227.65
374.54	227.56
374.92	227.49
375.30	227.45
375.68	227.35
376.06	227.28
376.44	227.20
376.82	227.11
377.19	227.04
377.57	226.98
377.95	226.89
378.33	226.83
378.71	226.70
379.09	226.67
379.47	226.58
379.84	226.53
380.22	226.44
380.60	226.35
380.98	226.32
381.36	226.19
381.73	226.13
382.11	226.10
382.49	226.05
382.87	225.98
383.25	225.90
383.62	225.96
384.00	225.90
384.38	225.84
384.76	225.81
385.13	225.81
385.51	225.74
385.89	225.69
386.27	225.61
386.64	225.56
387.02	225.46
387.40	225.40
387.78	225.37
388.15	225.34
388.53	225.30
388.91	225.22
389.29	225.23
389.66	225.19
390.04	225.15
390.42	225.12
390.79	225.11
391.17	225.09
391.55	224.95
391.92	224.92
392.30	224.93
392.68	224.86
393.05	224.82
393.43	224.82
393.81	224.80
394.18	224.83
394.56	224.87
394.94	224.91
395.31	224.97
395.69	224.98
396.06	225.00
396.44	225.04
396.82	225.07
397.19	225.13
397.57	225.20
397.95	225.25
398.32	225.27
398.70	225.34
399.07	225.41
399.45	225.45
399.82	225.52
400.20	225.58
400.58	225.68
400.95	225.71
401.33	225.80
401.70	225.95
402.08	225.99
402.45	226.04
402.83	226.16
403.20	226.26
403.58	226.39
403.95	226.55
404.33	226.67
404.71	226.78
405.08	226.94
405.46	227.05
405.83	227.20
406.21	227.34
406.58	227.49
406.96	227.67
407.33	227.87
407.70	228.04
408.08	228.30
408.45	228.52
408.83	228.75
409.20	228.95
409.58	229.13
409.95	229.41
410.33	229.71
410.70	229.93
411.08	230.19
411.45	230.48
411.82	230.74
412.20	231.09
412.57	231.50
412.95	231.81
413.32	232.21
413.69	232.63
414.07	233.09
414.44	233.56
414.82	234.03
415.19	234.56
415.56	235.12
415.94	235.67
416.31	236.34
416.68	236.96
417.06	237.71
417.43	238.37
417.81	239.14
418.18	239.88
418.55	240.73
418.93	241.61
419.30	242.51
419.67	243.49
420.04	244.45
420.42	245.45
420.79	246.66
421.16	247.83
421.54	249.02
421.91	250.22
422.28	251.46
422.66	252.79
423.03	254.08
423.40	255.40
423.77	256.79
424.15	258.18
424.52	259.66
424.89	261.24
425.26	262.81
425.64	264.23
426.01	265.86
426.38	267.50
426.75	269.14
427.13	270.81
427.50	272.60
427.87	274.45
428.24	276.30
428.61	278.00
428.99	279.88
429.36	281.95
429.73	284.00
430.10	286.01
430.47	288.02
430.85	290.12
431.22	292.32
431.59	294.65
431.96	296.84
432.33	299.34
432.70	301.69
433.08	304.48
433.45	307.09
433.82	309.63
434.19	312.48
434.56	315.29
434.93	317.93
435.30	320.50
435.68	323.38
436.05	326.19
436.42	328.94
436.79	331.48
437.16	334.15
437.53	336.92
437.90	339.62
438.27	342.38
438.64	345.21
439.01	347.75
439.38	349.97
439.75	352.16
440.13	354.59
440.50	356.88
440.87	358.70
441.24	360.64
441.61	362.84
441.98	364.36
442.35	366.14
442.72	367.96
443.09	369.75
443.46	370.73
443.83	371.34
444.20	371.84
444.57	372.64
444.94	372.94
445.31	373.29
445.68	373.72
446.05	373.83
446.42	373.41
446.79	373.03
447.16	372.62
447.53	372.29
447.90	371.16
448.27	370.04
448.64	368.49
449.01	367.34
449.37	365.35
449.74	363.45
450.11	361.26
450.48	358.87
450.85	356.36
451.22	354.22
451.59	352.19
451.96	350.29
452.33	347.70
452.70	345.31
453.07	342.52
453.43	339.65
453.80	336.85
454.17	334.25
454.54	331.72
454.91	329.04
455.28	326.33
455.65	323.89
456.02	321.46
456.38	319.29
456.75	316.67
457.12	314.43
457.49	312.25
457.86	310.07
458.23	308.20
458.59	306.20
458.96	304.14
459.33	302.35
459.70	300.50
460.07	299.03
460.43	297.36
460.80	295.77
461.17	294.35
461.54	292.90
461.91	291.47
462.27	290.03
462.64	288.76
463.01	287.46
463.38	286.15
463.74	284.79
464.11	283.64
464.48	282.62
464.85	281.53
465.21	280.66
465.58	279.73
465.95	278.69
466.32	277.79
466.68	276.88
467.05	275.95
467.42	275.08
467.78	274.19
468.15	273.32
468.52	272.67
468.88	271.82
469.25	271.04
469.62	270.41
469.98	269.77
470.35	269.19
470.72	268.59
471.08	267.95
471.45	267.39
471.82	266.88
472.18	266.28
472.55	265.82
472.92	265.30
473.28	264.86
473.65	264.40
474.02	263.95
474.38	263.60
474.75	263.30
475.11	262.94
475.48	262.68
475.85	262.47
476.21	262.21
476.58	262.06
476.94	261.92
477.31	261.77
477.67	261.64
478.04	261.53
478.41	261.48
478.77	261.52
479.14	261.43
479.50	261.42
479.87	261.52
480.23	261.64
480.60	261.68
480.96	261.81
481.33	262.03
481.69	262.24
482.06	262.43
482.42	262.63
482.79	262.88
483.15	263.18
483.52	263.55
483.88	263.92
484.25	264.28
484.61	264.71
484.98	265.18
485.34	265.73
485.71	266.30
486.07	266.93
486.44	267.49
486.80	268.28
487.17	269.04
487.53	269.83
487.90	270.70
488.26	271.64
488.62	272.60
488.99	273.54
489.35	274.59
489.72	275.72
490.08	276.93
490.44	278.19
490.81	279.51
491.17	280.89
491.54	282.38
491.90	283.95
492.26	285.60
492.63	287.31
492.99	289.09
493.36	291.00
493.72	293.08
494.08	295.22
494.45	297.48
494.81	299.85
495.17	302.34
495.54	304.93
495.90	307.61
496.26	310.43
496.63	313.39
496.99	316.55
497.35	319.83
497.72	323.26
498.08	326.83
498.44	330.53
498.80	334.48
499.17	338.55
499.53	342.73
499.89	347.08
500.26	351.60
500.62	356.28
500.98	361.24
501.34	366.27
501.71	371.55
502.07	376.99
502.43	382.63
502.79	388.42
503.16	394.41
503.52	400.71
503.88	407.10
504.24	413.73
504.60	420.57
504.97	427.65
505.33	434.93
505.69	442.64
506.05	450.44
506.41	458.30
506.78	466.40
507.14	474.81
507.50	483.51
507.86	492.50
508.22	501.68
508.59	510.89
508.95	520.46
509.31	530.27
509.67	540.38
510.03	550.61
510.39	561.13
510.75	571.95
511.12	582.86
511.48	594.12
511.84	605.54
512.20	617.02
512.56	628.98
512.92	641.09
513.28	653.34
513.64	665.66
514.00	678.27
514.37	691.23
514.73	704.24
515.09	717.31
515.45	730.55
515.81	744.04
516.17	757.91
516.53	771.97
516.89	786.12
517.25	800.10
517.61	814.45
517.97	828.85
518.33	843.22
518.69	857.91
519.05	872.79
519.41	887.93
519.77	903.39
520.13	918.74
520.49	934.05
520.85	949.38
521.21	964.96
521.57	981.18
521.93	996.78
522.29	1013.06
522.65	1029.18
523.01	1045.21
523.37	1061.21
523.73	1077.16
524.09	1093.10
524.45	1109.21
524.81	1125.77
525.17	1142.39
525.53	1159.01
525.89	1175.74
526.25	1192.43
526.61	1208.68
526.97	1225.23
527.33	1241.65
527.68	1258.00
528.04	1274.33
528.40	1290.64
528.76	1307.64
529.12	1323.99
529.48	1340.73
529.84	1356.54
530.20	1372.98
530.56	1389.84
530.91	1407.10
531.27	1423.86
531.63	1440.13
531.99	1456.53
532.35	1472.34
532.71	1488.25
533.07	1504.41
533.42	1520.30
533.78	1536.28
534.14	1552.30
534.50	1567.41
534.86	1582.88
535.21	1598.16
535.57	1613.79
535.93	1629.17
536.29	1643.71
536.65	1658.61
537.00	1673.14
537.36	1688.28
537.72	1702.55
538.08	1716.76
538.44	1730.31
538.79	1743.97
539.15	1757.38
539.51	1770.89
539.87	1785.00
540.22	1798.30
540.58	1811.76
540.94	1824.57
541.29	1837.07
541.65	1849.52
542.01	1862.58
542.37	1874.95
542.72	1886.96
543.08	1898.80
543.44	1910.87
543.79	1922.01
544.15	1932.82
544.51	1944.19
544.87	1955.08
545.22	1965.88
545.58	1975.97
545.94	1985.68
546.29	1995.41
546.65	2005.40
547.01	2014.61
547.36	2023.23
547.72	2031.68
548.07	2039.68
548.43	2047.87
548.79	2055.77
549.14	2063.40
549.50	2070.61
549.86	2078.05
550.21	2085.28
550.57	2092.42
550.92	2099.21
551.28	2106.36
551.64	2113.33
551.99	2119.82
552.35	2125.96
552.70	2132.10
553.06	2138.03
553.41	2144.31
553.77	2150.25
554.13	2156.14
554.48	2162.13
554.84	2167.79
555.19	2172.92
555.55	2178.04
555.90	2182.61
556.26	2187.72
556.61	2192.42
556.97	2196.95
557.32	2201.15
557.68	2205.33
558.03	2209.53
558.39	2213.15
558.74	2217.52
559.10	2221.50
559.45	2225.23
559.81	2229.35
560.16	2233.16
560.52	2236.59
560.87	2239.99
561.23	2242.78
561.58	2245.68
561.94	2248.36
562.29	2250.54
562.64	2253.62
563.00	2256.20
563.35	2259.73
563.71	2262.93
564.06	2266.00
564.42	2268.82
564.77	2271.58
565.12	2274.09
565.48	2276.11
565.83	2278.14
566.19	2279.61
566.54	2280.45
566.89	2281.73
567.25	2282.66
567.60	2283.82
567.96	2285.51
568.31	2286.39
568.66	2287.58
569.02	2288.24
569.37	2288.73
569.72	2289.77
570.08	2289.87
570.43	2290.00
570.78	2289.45
571.14	2287.85
571.49	2286.81
571.84	2286.42
572.20	2285.27
572.55	2284.17
572.90	2282.47
573.26	2281.20
573.61	2279.53
573.96	2277.97
574.31	2275.08
574.67	2272.10
575.02	2268.61
575.37	2265.32
575.72	2261.62
576.08	2258.19
576.43	2254.87
576.78	2251.33
577.13	2248.07
577.49	2244.91
577.84	2241.53
578.19	2237.73
578.54	2234.30
578.90	2230.31
579.25	2224.88
579.60	2220.05
579.95	2215.12
580.30	2210.30
580.66	2205.11
581.01	2200.23
581.36	2195.26
581.71	2191.30
582.06	2186.96
582.42	2182.72
582.77	2177.52
583.12	2173.14
583.47	2168.60
583.82	2163.83
584.17	2158.62
584.53	2153.26
584.88	2147.77
585.23	2142.03
585.58	2136.86
585.93	2131.43
586.28	2126.21
586.63	2121.32
586.98	2116.27
587.34	2111.58
587.69	2106.67
588.04	2101.51
588.39	2095.96
588.74	2089.57
589.09	2083.23
589.44	2076.54
589.79	2070.45
590.14	2064.86
590.49	2058.29
590.84	2051.95
591.19	2045.99
591.54	2039.57
591.89	2032.45
592.25	2025.78
592.60	2018.79
592.95	2011.29
593.30	2004.01
593.65	1996.78
594.00	1989.74
594.35	1982.55
594.70	1974.51
595.05	1967.61
595.40	1960.53
595.75	1953.12
596.10	1947.23
596.45	1940.82
596.80	1934.71
597.15	1928.30
597.50	1921.56
597.85	1915.23
598.19	1908.80
598.54	1902.02
598.89	1895.49
599.24	1889.61
599.59	1883.21
599.94	1876.81
600.29	1870.51
600.64	1863.98
600.99	1856.67
601.34	1850.05
601.69	1843.04
602.04	1836.49
602.39	1829.11
602.74	1822.24
603.08	1815.51
603.43	1808.68
603.78	1801.38
604.13	1794.20
604.48	1786.94
604.83	1780.04
605.18	1773.23
605.53	1765.31
605.87	1757.12
606.22	1749.80
606.57	1741.72
606.92	1734.09
607.27	1727.19
607.62	1720.22
607.96	1713.08
608.31	1706.69
608.66	1699.03
609.01	1691.64
609.36	1684.02
609.70	1675.97
610.05	1667.87
610.40	1660.37
610.75	1652.03
611.10	1644.43
611.44	1636.04
611.79	1627.99
612.14	1619.33
612.49	1610.12
612.83	1601.66
613.18	1593.58
613.53	1585.48
613.88	1577.15
614.22	1569.05
614.57	1560.36
614.92	1552.41
615.27	1544.96
615.61	1536.55
615.96	1528.57
616.31	1520.88
616.65	1513.60
617.00	1506.13
617.35	1498.62
617.70	1490.48
618.04	1482.22
618.39	1473.89
618.74	1466.47
619.08	1458.19
619.43	1450.57
619.78	1443.63
620.12	1436.52
620.47	1429.09
620.82	1421.07
621.16	1413.67
621.51	1405.97
621.85	1398.42
622.20	1389.98
622.55	1381.52
622.89	1373.66
623.24	1365.92
623.59	1358.61
623.93	1351.06
624.28	1343.82
624.62	1336.34
624.97	1328.99
625.32	1321.98
625.66	1314.98
626.01	1307.63
626.35	1300.41
626.70	1292.74
627.04	1285.10
627.39	1277.25
627.73	1269.84
628.08	1262.94
628.43	1255.72
628.77	1248.56
629.12	1241.04
629.46	1233.95
629.81	1226.48
630.15	1219.25
630.50	1212.01
630.84	1203.76
631.19	1195.86
631.53	1188.37
631.88	1180.72
632.22	1173.16
632.57	1165.97
632.91	1158.58
633.26	1151.27
633.60	1143.80
633.95	1136.59
634.29	1129.42
634.64	1122.72
634.98	1115.46
635.32	1108.38
635.67	1101.64
636.01	1094.94
636.36	1088.19
636.70	1081.53
637.05	1075.06
637.39	1068.57
637.73	1062.04
638.08	1056.16
638.42	1050.12
638.77	1043.71
639.11	1037.24
639.45	1030.87
639.80	1024.17
640.14	1017.70
640.49	1011.18
640.83	1004.84
641.17	998.69
641.52	992.53
641.86	986.10
642.20	980.16
642.55	973.74
642.89	967.41
643.23	960.74
643.58	954.90
643.92	948.85
644.26	942.91
644.61	936.84
644.95	930.92
645.29	924.46
645.64	917.82
645.98	911.46
646.32	905.46
646.66	899.41
647.01	893.67
647.35	887.95
647.69	882.06
648.04	876.56
648.38	870.80
648.72	864.85
649.06	858.97
649.41	853.03
649.75	847.16
650.09	841.14
650.43	835.47
650.78	829.40
651.12	823.41
651.46	817.55
651.80	812.00
652.14	806.50
652.49	801.14
652.83	795.95
653.17	790.39
653.51	784.88
653.85	779.46
654.20	773.86
654.54	767.90
654.88	762.15
655.22	756.21
655.56	750.44
655.90	744.88
656.25	739.57
656.59	734.24
656.93	729.10
657.27	724.01
657.61	718.57
657.95	713.36
658.29	708.27
658.64	703.04
658.98	697.59
659.32	692.21
659.66	686.97
660.00	681.68
660.34	676.72
660.68	671.72
661.02	666.68
661.36	661.95
661.70	657.42
662.05	653.11
662.39	648.85
662.73	644.44
663.07	640.07
663.41	635.67
663.75	631.22
664.09	626.68
664.43	622.31
664.77	618.27
665.11	614.15
665.45	609.95
665.79	605.86
666.13	601.76
666.47	597.64
666.81	593.52
667.15	589.35
667.49	585.39
667.83	581.49
668.17	577.55
668.51	573.48
668.85	569.50
669.19	565.61
669.53	561.82
669.87	557.94
670.21	554.28
670.55	550.59
670.89	547.12
671.23	543.62
671.57	540.08
671.91	536.51
672.25	532.90
672.58	529.41
672.92	526.00
673.26	522.85
673.60	519.67
673.94	516.58
674.28	513.66
674.62	510.72
674.96	507.70
675.30	504.83
675.64	501.99
675.97	499.16
676.31	496.32
676.65	493.34
676.99	490.67
677.33	487.81
677.67	485.00
678.01	482.07
678.34	479.13
678.68	476.23
679.02	473.42
679.36	470.69
679.70	468.00
680.04	465.18
680.37	462.37
680.71	459.60
681.05	456.93
681.39	454.22
681.73	451.56
682.06	449.03
682.40	446.52
682.74	443.91
683.08	441.40
683.42	438.80
683.75	436.31
684.09	433.67
684.43	431.16
684.77	428.73
685.10	426.32
685.44	424.02
685.78	421.77
686.12	419.52
686.45	417.24
686.79	414.96
687.13	412.83
687.46	410.62
687.80	408.48
688.14	406.24
688.48	404.20
688.81	402.00
689.15	399.84
689.49	397.65
689.82	395.60
690.16	393.49
690.50	391.53
690.83	389.64
691.17	387.69
691.51	385.84
691.84	383.93
692.18	382.01
692.52	380.08
692.85	378.12
693.19	376.23
693.52	374.43
693.86	372.60
694.20	370.76
694.53	368.99
694.87	367.10
695.21	365.33
695.54	363.54
695.88	361.79
696.21	360.05
696.55	358.37
696.88	356.69
697.22	355.02
697.56	353.30
697.89	351.63
698.23	350.06
698.56	348.40
698.90	346.87
699.23	345.25
699.57	343.70
699.90	342.19
700.24	340.63
700.58	339.09
700.91	337.63
701.25	336.22
701.58	334.87
701.92	333.54
702.25	332.18
702.59	330.80
702.92	329.48
703.26	328.18
703.59	326.91
703.93	325.73
704.26	324.49
704.60	323.27
704.93	321.99
705.26	320.69
705.60	319.54
705.93	318.34
706.27	317.29
706.60	316.21
706.94	315.09
707.27	313.97
707.61	312.91
707.94	311.90
708.27	310.77
708.61	309.65
708.94	308.59
709.28	307.57
709.61	306.62
709.94	305.66
710.28	304.63
710.61	303.60
710.95	302.50
711.28	301.56
711.61	300.64
711.95	299.73
712.28	298.82
712.61	297.85
712.95	296.97
713.28	296.07
713.61	295.16
713.95	294.31
714.28	293.47
714.61	292.58
714.95	291.69
715.28	290.86
715.61	290.00
715.95	289.17
716.28	288.32
716.61	287.48
716.95	286.64
717.28	285.87
717.61	285.12
717.94	284.38
718.28	283.55
718.61	282.80
718.94	282.10
719.27	281.40
719.61	280.70
719.94	280.02
720.27	279.31
720.60	278.65
720.94	277.98
721.27	277.34
721.60	276.78
721.93	276.20
722.27	275.68
722.60	275.08
722.93	274.52
723.26	274.00
723.59	273.43
723.93	272.89
724.26	272.36
724.59	271.78
724.92	271.27
725.25	270.82
725.59	270.27
725.92	269.77
726.25	269.27
726.58	268.82
726.91	268.31
727.24	267.83
727.57	267.36
727.91	266.85
728.24	266.42
728.57	265.93
728.90	265.43
729.23	264.89
729.56	264.50
729.89	264.03
730.22	263.54
730.55	263.07
730.89	262.60
731.22	262.18
731.55	261.77
731.88	261.31
732.21	260.84
732.54	260.41
732.87	259.99
733.20	259.59
733.53	259.20
733.86	258.82
734.19	258.47
734.52	258.09
734.85	257.76
735.18	257.34
735.51	256.98
735.84	256.64
736.17	256.30
736.50	255.90
736.83	255.68
737.16	255.36
737.49	255.02
737.82	254.70
738.15	254.33
738.48	254.01
738.81	253.69
739.14	253.38
739.47	253.10
739.80	252.73
740.13	252.39
740.46	252.07
740.79	251.73
741.12	251.42
741.45	251.12
741.78	250.78
742.11	250.54
742.44	250.22
742.77	249.94
743.10	249.64
743.43	249.31
743.75	248.94
744.08	248.77
744.41	248.50
744.74	248.28
745.07	248.01
745.40	247.76
745.73	247.52
746.06	247.27
746.39	246.99
746.71	246.79
747.04	246.55
747.37	246.25
747.70	246.04
748.03	245.76
748.36	245.52
748.68	245.30
749.01	245.04
749.34	244.81
749.67	244.57
750.00	244.38
750.33	244.23
750.65	244.01
750.98	243.67
751.31	243.46
751.64	243.20
751.97	243.04
752.29	242.78
752.62	242.54
752.95	242.33
753.28	242.13
753.60	241.88
753.93	241.70
754.26	241.50
754.59	241.25
754.91	241.04
755.24	240.83
755.57	240.62
755.90	240.40
756.22	240.20
756.55	239.96
756.88	239.72
757.20	239.50
757.53	239.28
757.86	239.13
758.19	238.96
758.51	238.77
758.84	238.57
759.17	238.47
759.49	238.30
759.82	238.18
760.15	238.03
760.47	237.93
760.80	237.77
761.13	237.64
761.45	237.50
761.78	237.38
762.11	237.26
762.43	237.12
762.76	236.97
763.08	236.85
763.41	236.75
763.74	236.65
764.06	236.49
764.39	236.37
764.71	236.20
765.04	236.05
765.37	235.94
765.69	235.81
766.02	235.66
766.34	235.56
766.67	235.41
767.00	235.30
767.32	235.21
767.65	235.13
767.97	235.04
768.30	234.95
768.62	234.83
768.95	234.70
769.27	234.60
769.60	234.51
769.92	234.35
770.25	234.26
770.57	234.13
770.90	234.06
771.22	233.94
771.55	233.87
771.87	233.81
772.20	233.72
772.52	233.72
772.85	233.77
773.17	233.70
773.50	233.60
773.82	233.50
774.15	233.38
774.47	233.25
774.80	233.16
775.12	233.07
775.45	233.00
775.77	232.92
776.09	232.86
776.42	232.81
776.74	232.79
777.07	232.70
777.39	232.67
777.72	232.60
778.04	232.54
778.36	232.46
778.69	232.39
779.01	232.31
779.33	232.14
779.66	231.95
779.98	231.86
780.31	231.79
780.63	231.77
780.95	231.74
781.28	231.69
781.60	231.61
781.92	231.53
782.25	231.49
782.57	231.43
782.89	231.33
783.22	231.24
783.54	231.16
783.86	231.10
784.19	230.99
784.51	230.91
784.83	230.86
785.16	230.76
785.48	230.74
785.80	230.69
786.12	230.62
786.45	230.55
786.77	230.49
787.09	230.43
787.42	230.35
787.74	230.31
788.06	230.25
788.38	230.20
788.71	230.16
789.03	230.07
789.35	230.05
789.67	230.01
789.99	229.97
790.32	229.93
790.64	229.88
790.96	229.92
791.28	229.84
791.61	229.77
791.93	229.75
792.25	229.65
792.57	229.68
792.89	229.60
793.21	229.54
793.54	229.47
793.86	229.41
794.18	229.37
794.50	229.26
794.82	229.19
795.14	229.12
795.47	229.06
795.79	229.01
796.11	228.92
796.43	228.90
796.75	228.83
797.07	228.80
797.39	228.72
797.71	228.61
798.04	228.57
798.36	228.56
798.68	228.54
799.00	228.54
799.32	228.46
799.64	228.47
799.96	228.46
800.28	228.48
800.60	228.45
800.92	228.42
801.24	228.40
801.56	228.40
801.89	228.40
802.21	228.41
802.53	228.38
802.85	228.37
803.17	228.39
803.49	228.36
803.81	228.33
804.13	228.31
804.45	228.30
804.77	228.35
805.09	228.31
805.41	228.25
805.73	228.22
806.05	228.16
806.37	228.15
806.69	228.11
807.01	228.09
807.33	228.09
807.65	228.05
807.97	228.10
808.28	228.04
808.60	228.02
808.92	228.00
809.24	228.05
809.56	228.08
809.88	228.01
810.20	228.00
810.52	227.99
810.84	227.97
811.16	227.95
811.48	227.88
811.80	227.92
812.12	227.91
812.43	227.91
812.75	227.91
813.07	227.85
813.39	227.86
813.71	227.83
814.03	227.80
814.35	227.81
814.67	227.76
814.98	227.76
815.30	227.73
815.62	227.69
815.94	227.59
816.26	227.60
816.58	227.56
816.89	227.57
817.21	227.55
817.53	227.56
817.85	227.53
818.17	227.54
818.48	227.48
818.80	227.48
819.12	227.47
819.44	227.42
819.76	227.40
820.07	227.38
820.39	227.34
820.71	227.35
821.03	227.33
821.34	227.31
821.66	227.29
821.98	227.31
822.30	227.25
822.61	227.31
822.93	227.24
823.25	227.23
823.57	227.22
823.88	227.22
824.20	227.18
824.52	227.22
824.83	227.18
825.15	227.16
825.47	227.11
825.79	227.09
826.10	227.07
826.42	227.06
826.74	227.05
827.05	227.01
827.37	227.00
827.69	226.99
828.00	226.98
828.32	226.96
828.64	226.93
828.95	226.97
829.27	226.94
829.58	226.90
829.90	226.92
830.22	226.89
830.53	226.83
830.85	226.84
831.17	226.79
831.48	226.75
831.80	226.70
832.11	226.71
832.43	226.67
832.75	226.66
833.06	226.70
833.38	226.67
833.69	226.67
834.01	226.66
834.32	226.61
834.64	226.59
834.96	226.60
835.27	226.58
835.59	226.59
835.90	226.53
836.22	226.54
836.53	226.50
836.85	226.50
837.16	226.63
837.48	226.61
837.79	226.61
838.11	226.61
838.42	226.61
838.74	226.60
839.05	226.56
839.37	226.56
839.68	226.49
840.00	226.49
840.31	226.52
840.63	226.51
840.94	226.52
841.26	226.48
841.57	226.45
841.88	226.47
842.20	226.40
842.51	226.39
842.83	226.38
843.14	226.46
843.46	226.46
843.77	226.37
844.08	226.35
844.40	226.36
844.71	226.36
845.03	226.36
845.34	226.35
845.65	226.37
845.97	226.36
846.28	226.37
846.60	226.35
846.91	226.31
847.22	226.30
847.54	226.31
847.85	226.30
848.16	226.30
848.48	226.29
848.79	226.36
849.10	226.35
849.42	226.32
849.73	226.25
850.04	226.22
850.36	226.20
850.67	226.19
850.98	226.19
851.30	226.18
851.61	226.20
851.92	226.21
852.23	226.20
852.55	226.20
852.86	226.21
853.17	226.24
853.49	226.23
853.80	226.24
854.11	226.25
854.42	226.26
854.74	226.26
855.05	226.27
855.36	226.23
855.67	226.23
855.99	226.27
856.30	226.33
856.61	226.33
856.92	226.34
857.23	226.34
857.55	226.30
857.86	226.29
858.17	226.32
858.48	226.30
858.79	226.33
859.11	226.34
859.42	226.33
859.73	226.29
860.04	226.31
860.35	226.28
860.66	226.24
860.98	226.25
861.29	226.27
861.60	226.23
861.91	226.20
862.22	226.21
862.53	226.17
862.84	226.07
863.16	226.08
863.47	226.09
863.78	226.07
864.09	226.09
864.40	226.10
864.71	226.04
865.02	226.03
865.33	225.96
865.64	225.93
865.95	225.92
866.27	226.02
866.58	226.00
866.89	226.03
867.20	226.04
867.51	226.03
867.82	225.98
868.13	226.02
868.44	226.02
868.75	226.02
869.06	226.03
869.37	226.04
869.68	226.02
869.99	226.01
870.30	226.03
870.61	226.04
870.92	226.02
871.23	226.04
871.54	226.07
871.85	226.14
872.16	226.16
872.47	226.16
872.78	226.06
873.09	226.07
873.40	226.03
873.71	226.05
874.02	226.05
874.33	226.05
874.64	226.03
874.95	226.01
875.26	226.02
875.56	225.99
875.87	225.99
876.18	225.99
876.49	226.08
876.80	226.05
877.11	226.05
877.42	226.05
877.73	226.01
878.04	225.96
878.35	225.95
878.66	225.97
878.96	225.93
879.27	225.93
879.58	225.93
879.89	225.97
880.20	225.97
880.51	225.95
880.82	225.96
881.12	225.95
881.43	225.97
881.74	225.95
882.05	225.93
882.36	225.93
882.67	225.91
882.97	225.82
883.28	225.78
883.59	225.79
883.90	225.79
884.21	225.81
884.51	225.81
884.82	225.81
885.13	225.80
885.44	225.80
885.74	225.80
886.05	225.78
886.36	225.75
886.67	225.69
886.98	225.72
887.28	225.70
887.59	225.70
887.90	225.67
888.20	225.64
888.51	225.68
888.82	225.65
889.13	225.66
889.43	225.71
889.74	225.76
890.05	225.77
890.35	225.75
890.66	225.74
890.97	225.70
891.28	225.67
891.58	225.65
891.89	225.63
892.20	225.61
892.50	225.62
892.81	225.60
893.12	225.59
893.42	225.53
893.73	225.55
894.04	225.54
894.34	225.55
894.65	225.58
894.95	225.52
895.26	225.53
895.57	225.60
895.87	225.48
896.18	225.49
896.48	225.45
896.79	225.46
897.10	225.48
897.40	225.52
897.71	225.54
898.01	225.55
898.32	225.54
898.63	225.55
898.93	225.54
899.24	225.57
899.54	225.59
899.85	225.60
900.15	225.61
900.46	225.61
900.76	225.61
901.07	225.61
901.38	225.63
901.68	225.66
901.99	225.60
902.29	225.64
902.60	225.64
902.90	225.62
903.21	225.60
903.51	225.61
903.82	225.63
904.12	225.64
904.43	225.65
904.73	225.70
905.03	225.73
905.34	225.83
905.64	225.81
905.95	225.86
906.25	225.84
906.56	225.83
906.86	225.83
907.17	225.85
907.47	225.84
907.77	225.81
908.08	225.79
908.38	225.80
908.69	225.85
908.99	225.85
909.30	225.89
909.60	225.87
909.90	225.87
910.21	225.85
910.51	225.84
910.81	225.85
911.12	225.82
911.42	225.82
911.73	225.75
912.03	225.79
912.33	225.76
912.64	225.76
912.94	225.75
913.24	225.78
913.55	225.76
913.85	225.80
914.15	225.85
914.46	225.91
914.76	225.87
915.06	225.84
915.37	225.80
915.67	225.78
915.97	225.80
916.27	225.77
916.58	225.79
916.88	225.77
917.18	225.78
917.49	225.86
917.79	225.86
918.09	225.84
918.39	225.83
918.70	225.83
919.00	225.85
919.30	225.93
919.60	225.90
919.91	225.90
920.21	225.89
920.51	225.87
920.81	225.83
921.12	225.88
921.42	225.85
921.72	225.92
922.02	225.93
922.32	225.95
922.63	225.98
922.93	226.03
923.23	226.03
923.53	226.02
923.83	225.94
924.13	225.95
924.44	225.97
924.74	225.98
925.04	226.02
925.34	226.02
925.64	225.97
925.94	225.99
926.24	226.02
926.55	226.00
926.85	226.03
927.15	226.01
927.45	225.99
927.75	225.99
928.05	225.94
928.35	225.90
928.65	225.88
928.95	225.88
929.26	225.82
929.56	225.85
929.86	225.85
930.16	225.83
930.46	225.83
930.76	225.80
931.06	225.75
931.36	225.68
931.66	225.70
931.96	225.70
932.26	225.69
932.56	225.64
932.86	225.65
933.16	225.62
933.46	225.59
933.76	225.59
934.06	225.61
934.36	225.67
934.66	225.68
934.96	225.70
935.26	225.69
935.56	225.67
935.86	225.63
936.16	225.63
936.46	225.62
936.76	225.59
937.06	225.58
937.36	225.56
937.66	225.58
937.96	225.53
938.26	225.48
938.56	225.43
938.86	225.46
939.16	225.46
939.46	225.47
939.76	225.48
940.06	225.48
940.35	225.48
940.65	225.38
940.95	225.41
941.25	225.35
941.55	225.34
941.85	225.36
942.15	225.35
942.45	225.34
942.75	225.33
943.04	225.32
943.34	225.33
943.64	225.33
943.94	225.31
944.24	225.32
944.54	225.36
944.84	225.36
945.13	225.31
945.43	225.26
945.73	225.25
946.03	225.26
946.33	225.23
946.62	225.20
946.92	225.19
947.22	225.18
947.52	225.23
947.82	225.23
948.11	225.22
948.41	225.23
948.71	225.21
949.01	225.24
949.31	225.25
949.60	225.25
949.90	225.26
950.20	225.28
950.50	225.31
950.79	225.31
951.09	225.32
951.39	225.36
951.69	225.38
951.98	225.40
952.28	225.42
952.58	225.44
952.87	225.44
953.17	225.49
953.47	225.46
953.76	225.45
954.06	225.43
954.36	225.43
954.66	225.43
954.95	225.46
955.25	225.46
955.55	225.48
955.84	225.46
956.14	225.50
956.44	225.49
956.73	225.47
957.03	225.47
957.32	225.47
957.62	225.48
957.92	225.52
958.21	225.50
958.51	225.56
958.81	225.58
959.10	225.60
959.40	225.62
959.69	225.64
959.99	225.66
960.29	225.66
960.58	225.64
960.88	225.68
961.17	225.66
961.47	225.68
961.76	225.67
962.06	225.70
962.36	225.66
962.65	225.66
962.95	225.68
963.24	225.67
963.54	225.68
963.83	225.68
964.13	225.65
964.42	225.63
964.72	225.58
965.01	225.57
965.31	225.56
965.60	225.54
965.90	225.59
966.19	225.57
966.49	225.56
966.78	225.56
967.08	225.56
967.37	225.57
967.67	225.52
967.96	225.54
968.26	225.54
968.55	225.57
968.85	225.57
969.14	225.58
969.43	225.58
969.73	225.57
970.02	225.57
970.32	225.55
970.61	225.55
970.91	225.53
971.20	225.54
971.49	225.56
971.79	225.60
972.08	225.54
972.38	225.52
972.67	225.54
972.96	225.56
973.26	225.56
973.55	225.59
973.85	225.62
974.14	225.58
974.43	225.58
974.73	225.55
975.02	225.56
975.31	225.54
975.61	225.52
975.90	225.52
976.19	225.50
976.49	225.55
976.78	225.57
977.07	225.59
977.37	225.56
977.66	225.54
977.95	225.47
978.24	225.47
978.54	225.50
978.83	225.49
979.12	225.48
979.42	225.46
979.71	225.45
980.00	225.43
980.29	225.41
980.59	225.37
980.88	225.40
981.17	225.39
981.46	225.38
981.76	225.38
982.05	225.39
982.34	225.39
982.63	225.35
982.93	225.34
983.22	225.33
983.51	225.35
983.80	225.37
984.09	225.42
984.39	225.41
984.68	225.40
984.97	225.41
985.26	225.39
985.55	225.41
985.85	225.39
986.14	225.40
986.43	225.41
986.72	225.41
987.01	225.40
987.30	225.42
987.59	225.41
987.89	225.43
988.18	225.38
988.47	225.36
988.76	225.37
989.05	225.36
989.34	225.34
989.63	225.35
989.92	225.32
990.22	225.30
990.51	225.28
990.80	225.30
991.09	225.30
991.38	225.32
991.67	225.29
991.96	225.27
992.25	225.26
992.54	225.28
992.83	225.29
993.12	225.28
993.41	225.26
993.70	225.33
993.99	225.35
994.28	225.38
994.58	225.41
994.87	225.40
995.16	225.41
995.45	225.40
995.74	225.35
996.03	225.41
996.32	225.41
996.61	225.46
996.90	225.42
997.19	225.40
997.48	225.40
997.77	225.42
998.06	225.44
998.34	225.49
998.63	225.47
998.92	225.50
999.21	225.51
999.50	225.53
999.79	225.47
1000.08	225.47
1000.37	225.49
1000.66	225.50
1000.95	225.55
1001.24	225.55
1001.53	225.56
1001.82	225.57
1002.11	225.55
1002.40	225.55
1002.68	225.59
1002.97	225.68
1003.26	225.70
1003.55	225.68
1003.84	225.68
1004.13	225.72
1004.42	225.69
1004.71	225.73
1004.99	225.73
1005.28	225.73
1005.57	225.70
1005.86	225.71
1006.15	225.67
1006.44	225.66
1006.72	225.66
1007.01	225.61
1007.30	225.60
1007.59	225.59
1007.88	225.58
1008.17	225.60
1008.45	225.59
1008.74	225.52
1009.03	225.49
1009.32	225.50
1009.60	225.52
1009.89	225.52
1010.18	225.45
1010.47	225.40
1010.76	225.40
1011.04	225.36
1011.33	225.33
1011.62	225.35
1011.91	225.34
1012.19	225.35
1012.48	225.30
1012.77	225.29
1013.05	225.35
1013.34	225.35
1013.63	225.35
1013.92	225.34
1014.20	225.31
1014.49	225.32
1014.78	225.34
1015.06	225.27
1015.35	225.25
1015.64	225.26
1015.92	225.28
1016.21	225.29
1016.50	225.32
1016.78	225.29
1017.07	225.31
1017.36	225.31
1017.64	225.28
1017.93	225.27
1018.22	225.27
1018.50	225.31
1018.79	225.34
1019.08	225.29
1019.36	225.30
1019.65	225.28
1019.93	225.35
1020.22	225.37
1020.51	225.46
1020.79	225.42
1021.08	225.21
1021.36	225.38
1021.65	225.80
1021.94	225.48
1022.22	225.49
1022.51	224.75
1022.79	226.54
1023.08	225.69
1023.36	227.05
1023.65	224.93
>>>>>End Processed Spectral Data<<<<<
