SpectraSuite Data File
++++++++++++++++++++++++++++++++++++
Date: Fri Feb 01 15:25:54 EST 2013
User: group
Dark Spectrum Present: No
Reference Spectrum Present: No
Number of Sampled Component Spectra: 1
Spectrometers: USB2E7196
Integration Time (usec): 35000 (USB2E7196)
Spectra Averaged: 100 (USB2E7196)
Boxcar Smoothing: 10 (USB2E7196)
Correct for Electrical Dark: No (USB2E7196)
Strobe/Lamp Enabled: No (USB2E7196)
Correct for Detector Non-linearity: No (USB2E7196)
Correct for Stray Light: No (USB2E7196)
Number of Pixels in Processed Spectrum: 2048
>>>>>Begin Processed Spectral Data<<<<<
339.09	0.00
339.48	215.53
339.86	216.96
340.24	218.61
340.63	219.23
341.01	222.50
341.39	222.51
341.78	223.63
342.16	224.76
342.54	225.42
342.93	213.65
343.31	224.44
343.69	224.98
344.07	225.43
344.46	225.83
344.84	226.19
345.22	226.42
345.60	226.62
345.99	226.79
346.37	226.89
346.75	226.98
347.13	227.03
347.52	227.06
347.90	227.15
348.28	227.18
348.66	227.25
349.05	227.26
349.43	227.28
349.81	227.33
350.19	227.37
350.57	227.42
350.96	227.51
351.34	227.59
351.72	227.65
352.10	227.76
352.48	227.83
352.87	227.89
353.25	227.94
353.63	228.01
354.01	228.08
354.39	228.19
354.77	228.26
355.15	228.36
355.54	228.43
355.92	228.48
356.30	228.54
356.68	228.65
357.06	228.70
357.44	228.76
357.82	228.82
358.20	228.91
358.58	228.97
358.97	229.03
359.35	229.09
359.73	229.18
360.11	229.16
360.49	229.24
360.87	229.31
361.25	229.40
361.63	229.50
362.01	229.53
362.39	229.57
362.77	229.61
363.15	229.63
363.53	229.67
363.91	229.67
364.29	229.68
364.67	229.58
365.05	229.60
365.43	229.61
365.81	229.64
366.19	229.68
366.57	229.69
366.95	229.67
367.33	229.63
367.71	229.62
368.09	229.67
368.47	229.63
368.85	229.64
369.23	229.60
369.61	229.54
369.99	229.52
370.37	229.46
370.75	229.47
371.13	229.42
371.51	229.38
371.89	229.37
372.27	229.34
372.65	229.31
373.03	229.26
373.41	229.19
373.78	229.10
374.16	228.98
374.54	228.90
374.92	228.83
375.30	228.81
375.68	228.73
376.06	228.63
376.44	228.58
376.82	228.46
377.19	228.39
377.57	228.34
377.95	228.27
378.33	228.23
378.71	228.09
379.09	228.05
379.47	227.94
379.84	227.85
380.22	227.75
380.60	227.69
380.98	227.59
381.36	227.52
381.73	227.43
382.11	227.37
382.49	227.29
382.87	227.20
383.25	227.14
383.62	227.18
384.00	227.14
384.38	227.05
384.76	227.04
385.13	226.99
385.51	226.89
385.89	226.83
386.27	226.74
386.64	226.71
387.02	226.66
387.40	226.64
387.78	226.60
388.15	226.56
388.53	226.51
388.91	226.50
389.29	226.49
389.66	226.49
390.04	226.48
390.42	226.45
390.79	226.46
391.17	226.42
391.55	226.28
391.92	226.27
392.30	226.28
392.68	226.27
393.05	226.27
393.43	226.29
393.81	226.28
394.18	226.25
394.56	226.26
394.94	226.26
395.31	226.27
395.69	226.33
396.06	226.37
396.44	226.43
396.82	226.46
397.19	226.53
397.57	226.58
397.95	226.63
398.32	226.69
398.70	226.75
399.07	226.81
399.45	226.88
399.82	226.95
400.20	227.00
400.58	227.05
400.95	227.11
401.33	227.23
401.70	227.39
402.08	227.55
402.45	227.67
402.83	227.81
403.20	227.92
403.58	228.05
403.95	228.19
404.33	228.33
404.71	228.46
405.08	228.64
405.46	228.76
405.83	228.90
406.21	229.09
406.58	229.25
406.96	229.44
407.33	229.61
407.70	229.80
408.08	230.10
408.45	230.31
408.83	230.57
409.20	230.79
409.58	230.95
409.95	231.20
410.33	231.48
410.70	231.73
411.08	232.03
411.45	232.33
411.82	232.63
412.20	232.97
412.57	233.42
412.95	233.73
413.32	234.15
413.69	234.56
414.07	234.97
414.44	235.48
414.82	235.97
415.19	236.56
415.56	237.15
415.94	237.67
416.31	238.34
416.68	238.95
417.06	239.65
417.43	240.39
417.81	241.18
418.18	241.98
418.55	242.80
418.93	243.69
419.30	244.57
419.67	245.52
420.04	246.51
420.42	247.49
420.79	248.70
421.16	249.86
421.54	251.08
421.91	252.32
422.28	253.58
422.66	254.91
423.03	256.20
423.40	257.51
423.77	258.94
424.15	260.39
424.52	261.92
424.89	263.54
425.26	265.11
425.64	266.54
426.01	268.13
426.38	269.79
426.75	271.47
427.13	273.20
427.50	275.03
427.87	276.91
428.24	278.74
428.61	280.48
428.99	282.44
429.36	284.51
429.73	286.51
430.10	288.51
430.47	290.56
430.85	292.68
431.22	294.92
431.59	297.33
431.96	299.55
432.33	302.01
432.70	304.40
433.08	307.17
433.45	309.85
433.82	312.47
434.19	315.36
434.56	318.17
434.93	320.83
435.30	323.46
435.68	326.31
436.05	329.16
436.42	331.98
436.79	334.50
437.16	337.21
437.53	340.07
437.90	342.88
438.27	345.62
438.64	348.44
439.01	351.00
439.38	353.23
439.75	355.38
440.13	357.83
440.50	360.14
440.87	361.95
441.24	363.88
441.61	366.00
441.98	367.48
442.35	369.29
442.72	371.15
443.09	372.93
443.46	373.91
443.83	374.48
444.20	374.91
444.57	375.76
444.94	376.01
445.31	376.34
445.68	376.64
446.05	376.71
446.42	376.31
446.79	375.90
447.16	375.45
447.53	375.14
447.90	374.01
448.27	372.86
448.64	371.31
449.01	370.14
449.37	368.17
449.74	366.26
450.11	364.01
450.48	361.49
450.85	358.97
451.22	356.82
451.59	354.80
451.96	352.87
452.33	350.24
452.70	347.86
453.07	345.05
453.43	342.16
453.80	339.37
454.17	336.68
454.54	334.12
454.91	331.38
455.28	328.69
455.65	326.20
456.02	323.73
456.38	321.56
456.75	318.92
457.12	316.72
457.49	314.51
457.86	312.34
458.23	310.48
458.59	308.44
458.96	306.35
459.33	304.47
459.70	302.62
460.07	301.11
460.43	299.41
460.80	297.83
461.17	296.44
461.54	295.01
461.91	293.60
462.27	292.16
462.64	290.89
463.01	289.58
463.38	288.26
463.74	286.87
464.11	285.73
464.48	284.69
464.85	283.55
465.21	282.67
465.58	281.72
465.95	280.64
466.32	279.71
466.68	278.84
467.05	277.96
467.42	277.07
467.78	276.17
468.15	275.33
468.52	274.63
468.88	273.80
469.25	273.00
469.62	272.37
469.98	271.70
470.35	271.11
470.72	270.50
471.08	269.87
471.45	269.34
471.82	268.81
472.18	268.19
472.55	267.76
472.92	267.22
473.28	266.78
473.65	266.33
474.02	265.86
474.38	265.49
474.75	265.16
475.11	264.84
475.48	264.57
475.85	264.33
476.21	264.06
476.58	263.84
476.94	263.71
477.31	263.51
477.67	263.38
478.04	263.26
478.41	263.19
478.77	263.22
479.14	263.14
479.50	263.15
479.87	263.26
480.23	263.33
480.60	263.42
480.96	263.51
481.33	263.73
481.69	263.95
482.06	264.14
482.42	264.36
482.79	264.57
483.15	264.88
483.52	265.29
483.88	265.67
484.25	266.06
484.61	266.45
484.98	266.92
485.34	267.44
485.71	268.02
486.07	268.62
486.44	269.18
486.80	269.90
487.17	270.61
487.53	271.42
487.90	272.27
488.26	273.21
488.62	274.17
488.99	275.09
489.35	276.14
489.72	277.22
490.08	278.40
490.44	279.63
490.81	280.93
491.17	282.22
491.54	283.68
491.90	285.21
492.26	286.85
492.63	288.59
492.99	290.37
493.36	292.27
493.72	294.33
494.08	296.43
494.45	298.64
494.81	300.97
495.17	303.37
495.54	305.94
495.90	308.59
496.26	311.40
496.63	314.41
496.99	317.46
497.35	320.71
497.72	324.11
498.08	327.65
498.44	331.30
498.80	335.22
499.17	339.21
499.53	343.33
499.89	347.74
500.26	352.22
500.62	356.89
500.98	361.79
501.34	366.81
501.71	372.16
502.07	377.66
502.43	383.31
502.79	389.15
503.16	395.23
503.52	401.49
503.88	407.86
504.24	414.40
504.60	421.38
504.97	428.54
505.33	435.87
505.69	443.56
506.05	451.41
506.41	459.36
506.78	467.57
507.14	476.05
507.50	484.77
507.86	493.82
508.22	503.02
508.59	512.29
508.95	521.92
509.31	531.75
509.67	541.82
510.03	552.13
510.39	562.62
510.75	573.49
511.12	584.42
511.48	595.82
511.84	607.35
512.20	618.87
512.56	630.90
512.92	643.17
513.28	655.53
513.64	668.01
514.00	680.67
514.37	693.59
514.73	706.68
515.09	719.74
515.45	733.11
515.81	746.78
516.17	760.75
516.53	774.91
516.89	789.04
517.25	803.17
517.61	817.63
517.97	832.23
518.33	846.67
518.69	861.60
519.05	876.67
519.41	891.88
519.77	907.46
520.13	922.89
520.49	938.27
520.85	953.74
521.21	969.44
521.57	985.86
521.93	1001.74
522.29	1018.23
522.65	1034.50
523.01	1050.70
523.37	1066.77
523.73	1083.08
524.09	1099.15
524.45	1115.47
524.81	1132.25
525.17	1149.11
525.53	1166.11
525.89	1183.00
526.25	1199.70
526.61	1215.97
526.97	1232.69
527.33	1249.08
527.68	1265.73
528.04	1282.25
528.40	1298.85
528.76	1316.00
529.12	1332.55
529.48	1349.44
529.84	1365.61
530.20	1382.28
530.56	1399.34
530.91	1416.63
531.27	1433.37
531.63	1449.94
531.99	1466.71
532.35	1482.67
532.71	1498.50
533.07	1514.71
533.42	1530.51
533.78	1546.55
534.14	1562.96
534.50	1578.32
534.86	1594.39
535.21	1609.53
535.57	1625.45
535.93	1641.09
536.29	1655.90
536.65	1671.06
537.00	1685.89
537.36	1701.10
537.72	1715.65
538.08	1730.14
538.44	1744.13
538.79	1757.98
539.15	1771.78
539.51	1785.49
539.87	1799.93
540.22	1813.79
540.58	1827.62
540.94	1841.18
541.29	1854.32
541.65	1867.03
542.01	1880.47
542.37	1892.86
542.72	1905.40
543.08	1917.22
543.44	1929.59
543.79	1940.94
544.15	1951.87
544.51	1963.53
544.87	1974.52
545.22	1985.44
545.58	1995.88
545.94	2005.80
546.29	2015.78
546.65	2025.58
547.01	2034.87
547.36	2043.70
547.72	2052.34
548.07	2060.12
548.43	2068.31
548.79	2076.42
549.14	2084.05
549.50	2091.41
549.86	2099.22
550.21	2106.55
550.57	2113.95
550.92	2120.62
551.28	2127.70
551.64	2134.91
551.99	2141.57
552.35	2147.72
552.70	2153.84
553.06	2159.62
553.41	2165.80
553.77	2171.85
554.13	2177.94
554.48	2184.17
554.84	2189.53
555.19	2194.68
555.55	2199.96
555.90	2204.40
556.26	2209.17
556.61	2213.91
556.97	2218.09
557.32	2222.18
557.68	2226.33
558.03	2230.52
558.39	2234.24
558.74	2238.86
559.10	2242.66
559.45	2246.32
559.81	2250.64
560.16	2254.41
560.52	2257.71
560.87	2261.18
561.23	2263.86
561.58	2266.84
561.94	2269.37
562.29	2271.87
562.64	2274.62
563.00	2277.13
563.35	2280.72
563.71	2283.83
564.06	2286.99
564.42	2289.94
564.77	2292.32
565.12	2294.54
565.48	2296.25
565.83	2297.94
566.19	2299.05
566.54	2299.94
566.89	2300.90
567.25	2301.47
567.60	2302.90
567.96	2304.47
568.31	2305.27
568.66	2306.21
569.02	2306.71
569.37	2306.92
569.72	2307.67
570.08	2307.65
570.43	2307.63
570.78	2306.81
571.14	2305.25
571.49	2303.84
571.84	2303.41
572.20	2302.11
572.55	2301.05
572.90	2299.79
573.26	2298.38
573.61	2296.81
573.96	2294.93
574.31	2291.80
574.67	2288.67
575.02	2285.02
575.37	2281.58
575.72	2277.81
576.08	2274.64
576.43	2271.29
576.78	2267.58
577.13	2264.32
577.49	2261.21
577.84	2257.70
578.19	2253.96
578.54	2250.25
578.90	2245.95
579.25	2240.26
579.60	2235.29
579.95	2230.30
580.30	2224.81
580.66	2219.55
581.01	2214.46
581.36	2209.49
581.71	2205.36
582.06	2200.85
582.42	2196.20
582.77	2190.83
583.12	2186.00
583.47	2180.95
583.82	2175.84
584.17	2170.58
584.53	2164.91
584.88	2159.14
585.23	2153.24
585.58	2147.72
585.93	2142.27
586.28	2137.56
586.63	2132.43
586.98	2127.33
587.34	2122.58
587.69	2117.68
588.04	2112.34
588.39	2106.58
588.74	2099.89
589.09	2093.61
589.44	2086.73
589.79	2080.71
590.14	2075.11
590.49	2068.49
590.84	2062.15
591.19	2055.95
591.54	2049.35
591.89	2041.89
592.25	2035.13
592.60	2027.94
592.95	2020.26
593.30	2012.81
593.65	2004.97
594.00	1998.04
594.35	1990.63
594.70	1982.38
595.05	1975.00
595.40	1967.78
595.75	1960.25
596.10	1954.09
596.45	1947.16
596.80	1940.89
597.15	1934.04
597.50	1926.87
597.85	1920.54
598.19	1913.64
598.54	1906.50
598.89	1899.72
599.24	1893.93
599.59	1887.18
599.94	1880.81
600.29	1874.51
600.64	1867.88
600.99	1860.46
601.34	1853.43
601.69	1846.54
602.04	1839.62
602.39	1832.40
602.74	1825.56
603.08	1818.75
603.43	1811.93
603.78	1804.68
604.13	1797.53
604.48	1790.15
604.83	1783.29
605.18	1776.18
605.53	1768.17
605.87	1760.14
606.22	1752.91
606.57	1744.76
606.92	1737.30
607.27	1729.99
607.62	1723.13
607.96	1715.82
608.31	1709.05
608.66	1701.39
609.01	1693.71
609.36	1686.04
609.70	1677.97
610.05	1669.75
610.40	1661.99
610.75	1653.59
611.10	1645.91
611.44	1637.49
611.79	1629.65
612.14	1620.83
612.49	1611.77
612.83	1603.41
613.18	1595.34
613.53	1587.30
613.88	1578.84
614.22	1570.65
614.57	1562.09
614.92	1553.85
615.27	1546.24
615.61	1537.96
615.96	1529.94
616.31	1522.25
616.65	1514.96
617.00	1507.46
617.35	1499.86
617.70	1491.41
618.04	1482.80
618.39	1474.57
618.74	1466.91
619.08	1458.47
619.43	1450.91
619.78	1443.82
620.12	1436.75
620.47	1429.17
620.82	1420.99
621.16	1413.54
621.51	1405.91
621.85	1398.43
622.20	1389.93
622.55	1381.56
622.89	1373.69
623.24	1366.11
623.59	1358.85
623.93	1351.40
624.28	1344.13
624.62	1336.64
624.97	1329.55
625.32	1323.06
625.66	1316.03
626.01	1308.86
626.35	1301.47
626.70	1293.79
627.04	1286.06
627.39	1278.22
627.73	1270.86
628.08	1263.88
628.43	1256.61
628.77	1249.23
629.12	1241.60
629.46	1234.44
629.81	1226.97
630.15	1219.67
630.50	1212.24
630.84	1204.14
631.19	1196.09
631.53	1188.58
631.88	1180.97
632.22	1173.40
632.57	1166.07
632.91	1158.56
633.26	1151.08
633.60	1143.66
633.95	1136.52
634.29	1129.57
634.64	1123.03
634.98	1115.66
635.32	1108.52
635.67	1101.94
636.01	1095.34
636.36	1088.56
636.70	1082.10
637.05	1075.58
637.39	1069.29
637.73	1062.76
638.08	1056.75
638.42	1050.87
638.77	1044.46
639.11	1037.88
639.45	1031.56
639.80	1024.95
640.14	1018.43
640.49	1011.95
640.83	1005.73
641.17	999.51
641.52	993.18
641.86	986.68
642.20	980.90
642.55	974.67
642.89	968.13
643.23	961.57
643.58	955.86
643.92	949.58
644.26	943.40
644.61	937.41
644.95	931.36
645.29	924.75
645.64	917.97
645.98	911.63
646.32	905.82
646.66	899.81
647.01	894.04
647.35	888.45
647.69	882.66
648.04	877.18
648.38	871.32
648.72	865.25
649.06	859.21
649.41	853.29
649.75	847.27
650.09	841.44
650.43	835.68
650.78	829.46
651.12	823.66
651.46	818.00
651.80	812.14
652.14	806.85
652.49	801.47
652.83	796.24
653.17	790.53
653.51	784.76
653.85	779.32
654.20	773.55
654.54	767.50
654.88	761.77
655.22	755.85
655.56	750.26
655.90	744.91
656.25	739.64
656.59	734.32
656.93	729.16
657.27	723.90
657.61	718.41
657.95	713.29
658.29	708.15
658.64	702.92
658.98	697.68
659.32	692.14
659.66	686.98
660.00	681.73
660.34	676.82
660.68	671.97
661.02	666.92
661.36	662.25
661.70	657.80
662.05	653.44
662.39	649.16
662.73	644.71
663.07	640.32
663.41	635.83
663.75	631.27
664.09	626.79
664.43	622.47
664.77	618.38
665.11	614.19
665.45	610.01
665.79	605.97
666.13	601.82
666.47	597.81
666.81	593.65
667.15	589.53
667.49	585.65
667.83	581.78
668.17	577.91
668.51	573.84
668.85	569.77
669.19	565.91
669.53	562.03
669.87	558.14
670.21	554.38
670.55	550.77
670.89	547.35
671.23	543.91
671.57	540.37
671.91	536.87
672.25	533.42
672.58	529.91
672.92	526.51
673.26	523.41
673.60	520.23
673.94	517.11
674.28	514.22
674.62	511.26
674.96	508.24
675.30	505.33
675.64	502.42
675.97	499.77
676.31	496.93
676.65	494.07
676.99	491.41
677.33	488.58
677.67	485.81
678.01	482.85
678.34	479.88
678.68	477.06
679.02	474.28
679.36	471.47
679.70	468.78
680.04	466.00
680.37	463.09
680.71	460.34
681.05	457.72
681.39	455.05
681.73	452.40
682.06	449.83
682.40	447.26
682.74	444.74
683.08	442.14
683.42	439.54
683.75	437.04
684.09	434.49
684.43	432.02
684.77	429.57
685.10	427.22
685.44	424.94
685.78	422.62
686.12	420.31
686.45	418.09
686.79	415.80
687.13	413.64
687.46	411.55
687.80	409.36
688.14	407.17
688.48	405.10
688.81	402.87
689.15	400.75
689.49	398.66
689.82	396.57
690.16	394.50
690.50	392.59
690.83	390.62
691.17	388.64
691.51	386.79
691.84	384.95
692.18	383.01
692.52	380.99
692.85	379.11
693.19	377.27
693.52	375.43
693.86	373.64
694.20	371.89
694.53	370.05
694.87	368.23
695.21	366.48
695.54	364.66
695.88	362.94
696.21	361.20
696.55	359.47
696.88	357.78
697.22	356.07
697.56	354.39
697.89	352.75
698.23	351.14
698.56	349.50
698.90	347.86
699.23	346.24
699.57	344.75
699.90	343.20
700.24	341.64
700.58	340.10
700.91	338.57
701.25	337.12
701.58	335.73
701.92	334.33
702.25	332.90
702.59	331.55
702.92	330.24
703.26	328.98
703.59	327.71
703.93	326.57
704.26	325.36
704.60	324.09
704.93	322.84
705.26	321.59
705.60	320.44
705.93	319.33
706.27	318.29
706.60	317.20
706.94	316.11
707.27	314.98
707.61	313.91
707.94	312.92
708.27	311.80
708.61	310.75
708.94	309.77
709.28	308.80
709.61	307.86
709.94	306.91
710.28	305.85
710.61	304.87
710.95	303.81
711.28	302.89
711.61	301.95
711.95	301.03
712.28	300.09
712.61	299.10
712.95	298.14
713.28	297.26
713.61	296.34
713.95	295.45
714.28	294.64
714.61	293.77
714.95	292.90
715.28	292.06
715.61	291.18
715.95	290.32
716.28	289.48
716.61	288.64
716.95	287.79
717.28	287.08
717.61	286.32
717.94	285.54
718.28	284.77
718.61	284.01
718.94	283.28
719.27	282.62
719.61	281.98
719.94	281.31
720.27	280.57
720.60	279.89
720.94	279.28
721.27	278.72
721.60	278.18
721.93	277.61
722.27	277.09
722.60	276.54
722.93	276.00
723.26	275.47
723.59	274.88
723.93	274.36
724.26	273.80
724.59	273.25
724.92	272.79
725.25	272.28
725.59	271.78
725.92	271.31
726.25	270.81
726.58	270.31
726.91	269.81
727.24	269.38
727.57	268.93
727.91	268.46
728.24	267.95
728.57	267.43
728.90	266.96
729.23	266.44
729.56	266.00
729.89	265.55
730.22	265.04
730.55	264.63
730.89	264.20
731.22	263.77
731.55	263.34
731.88	262.88
732.21	262.47
732.54	262.05
732.87	261.60
733.20	261.20
733.53	260.84
733.86	260.48
734.19	260.10
734.52	259.74
734.85	259.41
735.18	259.00
735.51	258.65
735.84	258.31
736.17	258.01
736.50	257.64
736.83	257.41
737.16	257.10
737.49	256.75
737.82	256.40
738.15	256.09
738.48	255.75
738.81	255.41
739.14	255.10
739.47	254.80
739.80	254.55
740.13	254.23
740.46	253.86
740.79	253.54
741.12	253.18
741.45	252.89
741.78	252.54
742.11	252.25
742.44	251.90
742.77	251.57
743.10	251.22
743.43	250.93
743.75	250.53
744.08	250.40
744.41	250.14
744.74	249.84
745.07	249.52
745.40	249.31
745.73	249.09
746.06	248.79
746.39	248.52
746.71	248.24
747.04	247.98
747.37	247.73
747.70	247.48
748.03	247.24
748.36	246.98
748.68	246.74
749.01	246.52
749.34	246.30
749.67	246.09
750.00	245.86
750.33	245.67
750.65	245.44
750.98	245.02
751.31	244.78
751.64	244.56
751.97	244.37
752.29	244.11
752.62	243.87
752.95	243.64
753.28	243.45
753.60	243.20
753.93	243.02
754.26	242.83
754.59	242.60
754.91	242.40
755.24	242.24
755.57	242.06
755.90	241.84
756.22	241.63
756.55	241.43
756.88	241.24
757.20	240.98
757.53	240.78
757.86	240.64
758.19	240.47
758.51	240.31
758.84	240.12
759.17	239.93
759.49	239.76
759.82	239.66
760.15	239.50
760.47	239.33
760.80	239.16
761.13	239.05
761.45	238.88
761.78	238.70
762.11	238.52
762.43	238.35
762.76	238.21
763.08	238.09
763.41	237.95
763.74	237.81
764.06	237.67
764.39	237.56
764.71	237.43
765.04	237.31
765.37	237.18
765.69	237.05
766.02	236.93
766.34	236.81
766.67	236.66
767.00	236.57
767.32	236.52
767.65	236.47
767.97	236.33
768.30	236.24
768.62	236.16
768.95	236.03
769.27	235.94
769.60	235.84
769.92	235.75
770.25	235.64
770.57	235.53
770.90	235.46
771.22	235.33
771.55	235.24
771.87	235.16
772.20	235.06
772.52	235.05
772.85	235.09
773.17	234.98
773.50	234.89
773.82	234.77
774.15	234.64
774.47	234.51
774.80	234.41
775.12	234.31
775.45	234.22
775.77	234.17
776.09	234.13
776.42	234.08
776.74	234.03
777.07	233.94
777.39	233.88
777.72	233.80
778.04	233.75
778.36	233.69
778.69	233.61
779.01	233.58
779.33	233.43
779.66	233.27
779.98	233.23
780.31	233.20
780.63	233.19
780.95	233.16
781.28	233.09
781.60	233.03
781.92	232.99
782.25	232.94
782.57	232.88
782.89	232.80
783.22	232.71
783.54	232.63
783.86	232.60
784.19	232.56
784.51	232.52
784.83	232.46
785.16	232.40
785.48	232.34
785.80	232.30
786.12	232.28
786.45	232.18
786.77	232.13
787.09	232.05
787.42	231.97
787.74	231.91
788.06	231.85
788.38	231.82
788.71	231.77
789.03	231.73
789.35	231.72
789.67	231.67
789.99	231.64
790.32	231.59
790.64	231.55
790.96	231.58
791.28	231.52
791.61	231.52
791.93	231.50
792.25	231.46
792.57	231.45
792.89	231.36
793.21	231.38
793.54	231.32
793.86	231.28
794.18	231.22
794.50	231.14
794.82	231.10
795.14	231.07
795.47	231.05
795.79	231.02
796.11	230.94
796.43	230.89
796.75	230.83
797.07	230.75
797.39	230.71
797.71	230.60
798.04	230.53
798.36	230.47
798.68	230.40
799.00	230.39
799.32	230.32
799.64	230.32
799.96	230.29
800.28	230.27
800.60	230.21
800.92	230.19
801.24	230.15
801.56	230.10
801.89	230.05
802.21	230.04
802.53	229.97
802.85	229.96
803.17	229.95
803.49	229.93
803.81	229.91
804.13	229.86
804.45	229.84
804.77	229.85
805.09	229.80
805.41	229.80
805.73	229.75
806.05	229.69
806.37	229.66
806.69	229.59
807.01	229.53
807.33	229.51
807.65	229.45
807.97	229.51
808.28	229.51
808.60	229.49
808.92	229.40
809.24	229.45
809.56	229.41
809.88	229.37
810.20	229.38
810.52	229.38
810.84	229.34
811.16	229.29
811.48	229.28
811.80	229.29
812.12	229.24
812.43	229.22
812.75	229.21
813.07	229.17
813.39	229.16
813.71	229.16
814.03	229.12
814.35	229.12
814.67	229.06
814.98	229.04
815.30	229.04
815.62	229.04
815.94	228.97
816.26	229.01
816.58	228.99
816.89	228.96
817.21	228.94
817.53	228.92
817.85	228.96
818.17	228.95
818.48	228.90
818.80	228.92
819.12	228.88
819.44	228.86
819.76	228.86
820.07	228.86
820.39	228.87
820.71	228.92
821.03	228.92
821.34	228.91
821.66	228.93
821.98	228.92
822.30	228.93
822.61	229.00
822.93	228.93
823.25	228.90
823.57	228.88
823.88	228.91
824.20	228.95
824.52	228.94
824.83	228.93
825.15	228.94
825.47	228.95
825.79	228.94
826.10	228.93
826.42	228.91
826.74	228.90
827.05	228.88
827.37	228.84
827.69	228.79
828.00	228.75
828.32	228.72
828.64	228.64
828.95	228.67
829.27	228.61
829.58	228.61
829.90	228.61
830.22	228.62
830.53	228.56
830.85	228.51
831.17	228.45
831.48	228.43
831.80	228.39
832.11	228.32
832.43	228.32
832.75	228.26
833.06	228.32
833.38	228.31
833.69	228.31
834.01	228.31
834.32	228.34
834.64	228.31
834.96	228.30
835.27	228.33
835.59	228.29
835.90	228.24
836.22	228.22
836.53	228.20
836.85	228.17
837.16	228.23
837.48	228.20
837.79	228.23
838.11	228.22
838.42	228.22
838.74	228.25
839.05	228.24
839.37	228.28
839.68	228.18
840.00	228.13
840.31	228.11
840.63	228.11
840.94	228.06
841.26	228.04
841.57	228.00
841.88	228.00
842.20	227.97
842.51	227.99
842.83	228.01
843.14	228.06
843.46	228.05
843.77	228.02
844.08	228.03
844.40	227.99
844.71	227.95
845.03	227.91
845.34	227.88
845.65	227.87
845.97	227.86
846.28	227.87
846.60	227.87
846.91	227.82
847.22	227.80
847.54	227.82
847.85	227.85
848.16	227.84
848.48	227.81
848.79	227.83
849.10	227.83
849.42	227.80
849.73	227.73
850.04	227.71
850.36	227.67
850.67	227.69
850.98	227.70
851.30	227.73
851.61	227.75
851.92	227.74
852.23	227.79
852.55	227.80
852.86	227.80
853.17	227.82
853.49	227.87
853.80	227.90
854.11	227.89
854.42	227.92
854.74	227.94
855.05	227.95
855.36	227.90
855.67	227.88
855.99	227.91
856.30	228.00
856.61	228.00
856.92	227.98
857.23	227.98
857.55	227.93
857.86	227.94
858.17	227.98
858.48	227.96
858.79	227.91
859.11	227.89
859.42	227.87
859.73	227.86
860.04	227.82
860.35	227.77
860.66	227.75
860.98	227.72
861.29	227.72
861.60	227.69
861.91	227.72
862.22	227.70
862.53	227.67
862.84	227.55
863.16	227.58
863.47	227.58
863.78	227.56
864.09	227.59
864.40	227.58
864.71	227.56
865.02	227.56
865.33	227.52
865.64	227.53
865.95	227.52
866.27	227.59
866.58	227.59
866.89	227.60
867.20	227.57
867.51	227.55
867.82	227.54
868.13	227.56
868.44	227.54
868.75	227.57
869.06	227.56
869.37	227.58
869.68	227.55
869.99	227.57
870.30	227.57
870.61	227.58
870.92	227.55
871.23	227.52
871.54	227.53
871.85	227.56
872.16	227.52
872.47	227.52
872.78	227.44
873.09	227.45
873.40	227.44
873.71	227.45
874.02	227.47
874.33	227.42
874.64	227.40
874.95	227.41
875.26	227.37
875.56	227.35
875.87	227.35
876.18	227.35
876.49	227.42
876.80	227.41
877.11	227.37
877.42	227.36
877.73	227.36
878.04	227.33
878.35	227.36
878.66	227.36
878.96	227.39
879.27	227.40
879.58	227.38
879.89	227.38
880.20	227.43
880.51	227.38
880.82	227.43
881.12	227.44
881.43	227.42
881.74	227.43
882.05	227.43
882.36	227.43
882.67	227.45
882.97	227.36
883.28	227.34
883.59	227.33
883.90	227.35
884.21	227.40
884.51	227.39
884.82	227.35
885.13	227.41
885.44	227.38
885.74	227.39
886.05	227.40
886.36	227.40
886.67	227.36
886.98	227.43
887.28	227.41
887.59	227.43
887.90	227.43
888.20	227.42
888.51	227.42
888.82	227.42
889.13	227.42
889.43	227.49
889.74	227.51
890.05	227.50
890.35	227.49
890.66	227.45
890.97	227.47
891.28	227.43
891.58	227.39
891.89	227.40
892.20	227.34
892.50	227.31
892.81	227.30
893.12	227.28
893.42	227.21
893.73	227.24
894.04	227.22
894.34	227.22
894.65	227.22
894.95	227.20
895.26	227.19
895.57	227.22
895.87	227.10
896.18	227.09
896.48	227.16
896.79	227.16
897.10	227.18
897.40	227.15
897.71	227.20
898.01	227.21
898.32	227.21
898.63	227.23
898.93	227.25
899.24	227.22
899.54	227.23
899.85	227.21
900.15	227.17
900.46	227.18
900.76	227.19
901.07	227.17
901.38	227.19
901.68	227.21
901.99	227.13
902.29	227.13
902.60	227.15
902.90	227.11
903.21	227.12
903.51	227.08
903.82	227.12
904.12	227.15
904.43	227.09
904.73	227.11
905.03	227.14
905.34	227.20
905.64	227.21
905.95	227.21
906.25	227.23
906.56	227.26
906.86	227.26
907.17	227.25
907.47	227.25
907.77	227.25
908.08	227.23
908.38	227.25
908.69	227.29
908.99	227.27
909.30	227.27
909.60	227.26
909.90	227.28
910.21	227.23
910.51	227.18
910.81	227.23
911.12	227.26
911.42	227.26
911.73	227.17
912.03	227.19
912.33	227.24
912.64	227.26
912.94	227.24
913.24	227.21
913.55	227.19
913.85	227.20
914.15	227.21
914.46	227.20
914.76	227.19
915.06	227.19
915.37	227.19
915.67	227.17
915.97	227.19
916.27	227.17
916.58	227.22
916.88	227.24
917.18	227.24
917.49	227.25
917.79	227.24
918.09	227.25
918.39	227.27
918.70	227.26
919.00	227.23
919.30	227.27
919.60	227.26
919.91	227.28
920.21	227.28
920.51	227.29
920.81	227.31
921.12	227.35
921.42	227.32
921.72	227.32
922.02	227.33
922.32	227.34
922.63	227.36
922.93	227.40
923.23	227.39
923.53	227.36
923.83	227.33
924.13	227.32
924.44	227.32
924.74	227.34
925.04	227.37
925.34	227.38
925.64	227.35
925.94	227.34
926.24	227.34
926.55	227.31
926.85	227.31
927.15	227.31
927.45	227.27
927.75	227.28
928.05	227.28
928.35	227.26
928.65	227.22
928.95	227.23
929.26	227.17
929.56	227.20
929.86	227.17
930.16	227.16
930.46	227.15
930.76	227.15
931.06	227.08
931.36	227.07
931.66	227.08
931.96	227.08
932.26	227.11
932.56	227.11
932.86	227.12
933.16	227.10
933.46	227.07
933.76	227.06
934.06	227.10
934.36	227.12
934.66	227.14
934.96	227.14
935.26	227.13
935.56	227.14
935.86	227.10
936.16	227.11
936.46	227.09
936.76	227.09
937.06	227.08
937.36	227.07
937.66	227.02
937.96	227.01
938.26	226.98
938.56	226.97
938.86	226.99
939.16	227.00
939.46	227.01
939.76	227.02
940.06	227.01
940.35	226.96
940.65	226.91
940.95	226.91
941.25	226.88
941.55	226.87
941.85	226.87
942.15	226.90
942.45	226.91
942.75	226.91
943.04	226.91
943.34	226.92
943.64	226.94
943.94	226.93
944.24	226.93
944.54	226.97
944.84	226.96
945.13	226.95
945.43	226.96
945.73	226.96
946.03	226.97
946.33	226.98
946.62	226.98
946.92	227.00
947.22	227.03
947.52	227.05
947.82	227.06
948.11	227.08
948.41	227.05
948.71	227.04
949.01	227.05
949.31	227.07
949.60	227.04
949.90	227.03
950.20	227.09
950.50	227.07
950.79	227.07
951.09	227.06
951.39	227.07
951.69	227.06
951.98	227.06
952.28	227.10
952.58	227.11
952.87	227.15
953.17	227.19
953.47	227.17
953.76	227.21
954.06	227.19
954.36	227.18
954.66	227.18
954.95	227.23
955.25	227.24
955.55	227.28
955.84	227.29
956.14	227.32
956.44	227.29
956.73	227.29
957.03	227.34
957.32	227.34
957.62	227.32
957.92	227.33
958.21	227.36
958.51	227.41
958.81	227.42
959.10	227.40
959.40	227.38
959.69	227.37
959.99	227.37
960.29	227.38
960.58	227.34
960.88	227.43
961.17	227.41
961.47	227.41
961.76	227.34
962.06	227.36
962.36	227.32
962.65	227.36
962.95	227.39
963.24	227.35
963.54	227.36
963.83	227.34
964.13	227.33
964.42	227.28
964.72	227.21
965.01	227.20
965.31	227.18
965.60	227.15
965.90	227.23
966.19	227.18
966.49	227.17
966.78	227.20
967.08	227.12
967.37	227.12
967.67	227.11
967.96	227.15
968.26	227.19
968.55	227.21
968.85	227.17
969.14	227.12
969.43	227.10
969.73	227.08
970.02	227.11
970.32	227.11
970.61	227.14
970.91	227.11
971.20	227.09
971.49	227.08
971.79	227.07
972.08	226.97
972.38	226.99
972.67	226.98
972.96	226.97
973.26	226.98
973.55	226.98
973.85	226.96
974.14	226.94
974.43	226.93
974.73	226.92
975.02	226.93
975.31	226.93
975.61	226.94
975.90	226.92
976.19	226.89
976.49	226.88
976.78	226.85
977.07	226.81
977.37	226.82
977.66	226.85
977.95	226.85
978.24	226.88
978.54	226.90
978.83	226.92
979.12	226.92
979.42	226.92
979.71	226.91
980.00	226.92
980.29	226.92
980.59	226.87
980.88	226.86
981.17	226.83
981.46	226.86
981.76	226.87
982.05	226.91
982.34	226.92
982.63	226.95
982.93	226.98
983.22	227.05
983.51	227.07
983.80	227.06
984.09	227.09
984.39	227.08
984.68	227.07
984.97	227.04
985.26	227.03
985.55	227.03
985.85	227.02
986.14	227.03
986.43	227.05
986.72	227.04
987.01	227.02
987.30	227.06
987.59	227.03
987.89	227.05
988.18	227.05
988.47	227.04
988.76	227.03
989.05	227.02
989.34	227.00
989.63	227.00
989.92	227.02
990.22	227.03
990.51	227.04
990.80	227.03
991.09	227.07
991.38	227.10
991.67	227.08
991.96	227.09
992.25	227.10
992.54	227.10
992.83	227.11
993.12	227.13
993.41	227.12
993.70	227.15
993.99	227.12
994.28	227.15
994.58	227.17
994.87	227.15
995.16	227.14
995.45	227.14
995.74	227.15
996.03	227.15
996.32	227.16
996.61	227.18
996.90	227.19
997.19	227.16
997.48	227.18
997.77	227.19
998.06	227.18
998.34	227.17
998.63	227.15
998.92	227.15
999.21	227.16
999.50	227.17
999.79	227.15
1000.08	227.16
1000.37	227.15
1000.66	227.13
1000.95	227.18
1001.24	227.18
1001.53	227.19
1001.82	227.13
1002.11	227.13
1002.40	227.12
1002.68	227.11
1002.97	227.17
1003.26	227.15
1003.55	227.10
1003.84	227.10
1004.13	227.13
1004.42	227.13
1004.71	227.10
1004.99	227.13
1005.28	227.15
1005.57	227.12
1005.86	227.12
1006.15	227.11
1006.44	227.08
1006.72	227.09
1007.01	227.05
1007.30	227.05
1007.59	227.02
1007.88	227.01
1008.17	226.98
1008.45	226.94
1008.74	226.89
1009.03	226.84
1009.32	226.85
1009.60	226.85
1009.89	226.84
1010.18	226.80
1010.47	226.77
1010.76	226.77
1011.04	226.76
1011.33	226.73
1011.62	226.75
1011.91	226.74
1012.19	226.72
1012.48	226.72
1012.77	226.73
1013.05	226.76
1013.34	226.75
1013.63	226.75
1013.92	226.80
1014.20	226.81
1014.49	226.81
1014.78	226.84
1015.06	226.79
1015.35	226.80
1015.64	226.81
1015.92	226.80
1016.21	226.81
1016.50	226.82
1016.78	226.87
1017.07	226.88
1017.36	226.88
1017.64	226.86
1017.93	226.87
1018.22	226.85
1018.50	226.84
1018.79	226.82
1019.08	226.76
1019.36	226.77
1019.65	226.75
1019.93	226.77
1020.22	226.75
1020.51	226.81
1020.79	226.80
1021.08	226.07
1021.36	226.69
1021.65	226.95
1021.94	226.35
1022.22	226.86
1022.51	226.27
1022.79	227.42
1023.08	226.76
1023.36	227.94
1023.65	226.82
>>>>>End Processed Spectral Data<<<<<
