SpectraSuite Data File
++++++++++++++++++++++++++++++++++++
Date: Fri Feb 01 16:37:19 EST 2013
User: group
Dark Spectrum Present: No
Reference Spectrum Present: No
Number of Sampled Component Spectra: 1
Spectrometers: USB2E7196
Integration Time (usec): 35000 (USB2E7196)
Spectra Averaged: 100 (USB2E7196)
Boxcar Smoothing: 10 (USB2E7196)
Correct for Electrical Dark: No (USB2E7196)
Strobe/Lamp Enabled: No (USB2E7196)
Correct for Detector Non-linearity: No (USB2E7196)
Correct for Stray Light: No (USB2E7196)
Number of Pixels in Processed Spectrum: 2048
>>>>>Begin Processed Spectral Data<<<<<
339.09	0.00
339.48	213.67
339.86	215.29
340.24	217.06
340.63	218.14
341.01	221.58
341.39	220.87
341.78	223.00
342.16	223.55
342.54	223.53
342.93	212.41
343.31	223.16
343.69	223.72
344.07	224.19
344.46	224.59
344.84	225.00
345.22	225.19
345.60	225.46
345.99	225.63
346.37	225.74
346.75	225.87
347.13	225.96
347.52	226.06
347.90	226.14
348.28	226.16
348.66	226.20
349.05	226.21
349.43	226.24
349.81	226.31
350.19	226.31
350.57	226.39
350.96	226.45
351.34	226.54
351.72	226.60
352.10	226.68
352.48	226.74
352.87	226.80
353.25	226.89
353.63	226.92
354.01	227.00
354.39	227.07
354.77	227.15
355.15	227.23
355.54	227.27
355.92	227.31
356.30	227.40
356.68	227.52
357.06	227.57
357.44	227.63
357.82	227.68
358.20	227.79
358.58	227.84
358.97	227.91
359.35	227.96
359.73	228.05
360.11	228.12
360.49	228.18
360.87	228.19
361.25	228.26
361.63	228.33
362.01	228.32
362.39	228.38
362.77	228.38
363.15	228.39
363.53	228.43
363.91	228.47
364.29	228.48
364.67	228.40
365.05	228.40
365.43	228.44
365.81	228.47
366.19	228.49
366.57	228.49
366.95	228.49
367.33	228.46
367.71	228.43
368.09	228.43
368.47	228.41
368.85	228.40
369.23	228.39
369.61	228.35
369.99	228.36
370.37	228.34
370.75	228.38
371.13	228.33
371.51	228.28
371.89	228.23
372.27	228.16
372.65	228.14
373.03	228.11
373.41	228.01
373.78	227.95
374.16	227.84
374.54	227.78
374.92	227.73
375.30	227.66
375.68	227.59
376.06	227.54
376.44	227.49
376.82	227.40
377.19	227.33
377.57	227.23
377.95	227.17
378.33	227.09
378.71	226.98
379.09	226.94
379.47	226.88
379.84	226.80
380.22	226.75
380.60	226.65
380.98	226.57
381.36	226.50
381.73	226.42
382.11	226.40
382.49	226.34
382.87	226.23
383.25	226.19
383.62	226.25
384.00	226.16
384.38	226.10
384.76	226.10
385.13	226.05
385.51	226.03
385.89	225.94
386.27	225.88
386.64	225.83
387.02	225.79
387.40	225.76
387.78	225.75
388.15	225.73
388.53	225.69
388.91	225.67
389.29	225.67
389.66	225.67
390.04	225.61
390.42	225.58
390.79	225.57
391.17	225.55
391.55	225.44
391.92	225.43
392.30	225.45
392.68	225.39
393.05	225.41
393.43	225.44
393.81	225.46
394.18	225.47
394.56	225.45
394.94	225.45
395.31	225.47
395.69	225.50
396.06	225.49
396.44	225.51
396.82	225.53
397.19	225.61
397.57	225.65
397.95	225.71
398.32	225.74
398.70	225.82
399.07	225.89
399.45	225.93
399.82	226.01
400.20	226.05
400.58	226.17
400.95	226.17
401.33	226.26
401.70	226.40
402.08	226.48
402.45	226.58
402.83	226.72
403.20	226.80
403.58	226.90
403.95	227.04
404.33	227.18
404.71	227.36
405.08	227.53
405.46	227.62
405.83	227.75
406.21	227.91
406.58	228.08
406.96	228.21
407.33	228.37
407.70	228.55
408.08	228.81
408.45	229.02
408.83	229.26
409.20	229.45
409.58	229.65
409.95	229.91
410.33	230.19
410.70	230.40
411.08	230.69
411.45	230.97
411.82	231.28
412.20	231.61
412.57	231.96
412.95	232.24
413.32	232.66
413.69	233.06
414.07	233.48
414.44	233.91
414.82	234.39
415.19	234.91
415.56	235.47
415.94	236.00
416.31	236.61
416.68	237.22
417.06	237.92
417.43	238.59
417.81	239.34
418.18	240.11
418.55	240.97
418.93	241.86
419.30	242.76
419.67	243.67
420.04	244.63
420.42	245.64
420.79	246.87
421.16	248.03
421.54	249.23
421.91	250.47
422.28	251.74
422.66	253.09
423.03	254.39
423.40	255.66
423.77	257.04
424.15	258.44
424.52	259.92
424.89	261.49
425.26	263.03
425.64	264.47
426.01	266.07
426.38	267.70
426.75	269.33
427.13	271.05
427.50	272.84
427.87	274.72
428.24	276.56
428.61	278.25
428.99	280.15
429.36	282.20
429.73	284.21
430.10	286.19
430.47	288.21
430.85	290.33
431.22	292.57
431.59	294.98
431.96	297.20
432.33	299.66
432.70	302.06
433.08	304.82
433.45	307.45
433.82	310.02
434.19	312.90
434.56	315.68
434.93	318.32
435.30	320.95
435.68	323.78
436.05	326.57
436.42	329.34
436.79	331.86
437.16	334.56
437.53	337.41
437.90	340.24
438.27	342.98
438.64	345.74
439.01	348.36
439.38	350.52
439.75	352.73
440.13	355.19
440.50	357.46
440.87	359.32
441.24	361.24
441.61	363.37
441.98	364.82
442.35	366.64
442.72	368.52
443.09	370.32
443.46	371.35
443.83	371.96
444.20	372.45
444.57	373.27
444.94	373.56
445.31	373.86
445.68	374.17
446.05	374.24
446.42	373.86
446.79	373.41
447.16	372.99
447.53	372.63
447.90	371.52
448.27	370.39
448.64	368.84
449.01	367.71
449.37	365.74
449.74	363.86
450.11	361.61
450.48	359.09
450.85	356.56
451.22	354.42
451.59	352.40
451.96	350.47
452.33	347.89
452.70	345.55
453.07	342.74
453.43	339.88
453.80	337.12
454.17	334.50
454.54	331.99
454.91	329.32
455.28	326.68
455.65	324.18
456.02	321.77
456.38	319.63
456.75	316.99
457.12	314.80
457.49	312.62
457.86	310.44
458.23	308.59
458.59	306.57
458.96	304.51
459.33	302.67
459.70	300.79
460.07	299.28
460.43	297.58
460.80	295.99
461.17	294.53
461.54	293.04
461.91	291.63
462.27	290.19
462.64	288.92
463.01	287.57
463.38	286.30
463.74	284.97
464.11	283.80
464.48	282.78
464.85	281.65
465.21	280.78
465.58	279.90
465.95	278.83
466.32	277.92
466.68	277.01
467.05	276.12
467.42	275.30
467.78	274.42
468.15	273.57
468.52	272.91
468.88	272.07
469.25	271.35
469.62	270.75
469.98	270.12
470.35	269.53
470.72	268.95
471.08	268.31
471.45	267.78
471.82	267.29
472.18	266.72
472.55	266.34
472.92	265.84
473.28	265.40
473.65	264.97
474.02	264.58
474.38	264.22
474.75	263.96
475.11	263.62
475.48	263.39
475.85	263.20
476.21	262.99
476.58	262.86
476.94	262.72
477.31	262.55
477.67	262.40
478.04	262.29
478.41	262.25
478.77	262.32
479.14	262.26
479.50	262.25
479.87	262.35
480.23	262.40
480.60	262.49
480.96	262.59
481.33	262.79
481.69	262.99
482.06	263.19
482.42	263.40
482.79	263.63
483.15	263.90
483.52	264.23
483.88	264.57
484.25	264.94
484.61	265.36
484.98	265.86
485.34	266.45
485.71	267.03
486.07	267.66
486.44	268.21
486.80	268.92
487.17	269.63
487.53	270.41
487.90	271.28
488.26	272.22
488.62	273.19
488.99	274.19
489.35	275.21
489.72	276.36
490.08	277.56
490.44	278.82
490.81	280.15
491.17	281.53
491.54	283.04
491.90	284.60
492.26	286.24
492.63	287.96
492.99	289.73
493.36	291.63
493.72	293.66
494.08	295.78
494.45	298.01
494.81	300.41
495.17	302.86
495.54	305.46
495.90	308.11
496.26	310.93
496.63	313.86
496.99	316.99
497.35	320.21
497.72	323.65
498.08	327.14
498.44	330.83
498.80	334.75
499.17	338.79
499.53	342.95
499.89	347.35
500.26	351.87
500.62	356.52
500.98	361.50
501.34	366.59
501.71	371.91
502.07	377.35
502.43	382.95
502.79	388.77
503.16	394.79
503.52	401.09
503.88	407.54
504.24	414.19
504.60	421.11
504.97	428.21
505.33	435.50
505.69	443.23
506.05	451.00
506.41	458.87
506.78	467.04
507.14	475.49
507.50	484.15
507.86	493.16
508.22	502.39
508.59	511.58
508.95	521.14
509.31	531.00
509.67	541.11
510.03	551.40
510.39	561.95
510.75	572.67
511.12	583.54
511.48	594.79
511.84	606.23
512.20	617.74
512.56	629.74
512.92	641.90
513.28	654.24
513.64	666.70
514.00	679.39
514.37	692.30
514.73	705.29
515.09	718.32
515.45	731.56
515.81	745.11
516.17	759.06
516.53	773.21
516.89	787.30
517.25	801.44
517.61	815.79
517.97	830.18
518.33	844.59
518.69	859.30
519.05	874.23
519.41	889.34
519.77	904.74
520.13	920.06
520.49	935.37
520.85	950.76
521.21	966.40
521.57	982.52
521.93	998.13
522.29	1014.41
522.65	1030.60
523.01	1046.71
523.37	1062.56
523.73	1078.56
524.09	1094.44
524.45	1110.58
524.81	1127.16
525.17	1143.87
525.53	1160.66
525.89	1177.52
526.25	1194.28
526.61	1210.52
526.97	1227.14
527.33	1243.55
527.68	1260.10
528.04	1276.45
528.40	1292.81
528.76	1309.79
529.12	1326.43
529.48	1343.35
529.84	1359.28
530.20	1375.81
530.56	1392.67
530.91	1410.09
531.27	1426.91
531.63	1443.26
531.99	1459.74
532.35	1475.60
532.71	1491.38
533.07	1507.54
533.42	1523.38
533.78	1539.30
534.14	1555.41
534.50	1570.60
534.86	1586.29
535.21	1601.32
535.57	1617.15
535.93	1632.48
536.29	1646.98
536.65	1661.72
537.00	1676.24
537.36	1691.36
537.72	1705.68
538.08	1719.94
538.44	1733.46
538.79	1747.02
539.15	1760.39
539.51	1773.93
539.87	1788.08
540.22	1801.65
540.58	1815.16
540.94	1828.12
541.29	1840.82
541.65	1853.30
542.01	1866.36
542.37	1878.67
542.72	1890.83
543.08	1902.39
543.44	1914.63
543.79	1925.96
544.15	1936.95
544.51	1948.37
544.87	1959.28
545.22	1970.13
545.58	1980.19
545.94	1990.00
546.29	1999.93
546.65	2009.80
547.01	2019.13
547.36	2027.87
547.72	2036.25
548.07	2044.18
548.43	2052.34
548.79	2060.21
549.14	2067.82
549.50	2075.05
549.86	2082.54
550.21	2089.91
550.57	2097.07
550.92	2103.62
551.28	2110.48
551.64	2117.43
551.99	2123.92
552.35	2130.06
552.70	2135.94
553.06	2142.07
553.41	2148.35
553.77	2154.24
554.13	2160.35
554.48	2166.30
554.84	2171.79
555.19	2177.02
555.55	2182.18
555.90	2186.70
556.26	2191.77
556.61	2196.45
556.97	2200.86
557.32	2205.02
557.68	2209.16
558.03	2213.38
558.39	2217.09
558.74	2221.78
559.10	2225.67
559.45	2229.30
559.81	2233.55
560.16	2237.54
560.52	2240.77
560.87	2244.25
561.23	2246.89
561.58	2249.69
561.94	2252.27
562.29	2254.32
562.64	2257.26
563.00	2259.74
563.35	2263.26
563.71	2266.43
564.06	2269.71
564.42	2272.75
564.77	2275.39
565.12	2277.86
565.48	2279.89
565.83	2281.97
566.19	2283.33
566.54	2284.20
566.89	2285.46
567.25	2286.08
567.60	2287.27
567.96	2288.88
568.31	2289.61
568.66	2290.80
569.02	2291.61
569.37	2292.02
569.72	2293.11
570.08	2293.26
570.43	2293.40
570.78	2292.97
571.14	2291.33
571.49	2289.98
571.84	2289.45
572.20	2288.44
572.55	2287.30
572.90	2285.69
573.26	2284.22
573.61	2282.51
573.96	2280.88
574.31	2278.06
574.67	2275.17
575.02	2271.67
575.37	2268.47
575.72	2264.87
576.08	2261.49
576.43	2258.06
576.78	2254.57
577.13	2251.25
577.49	2247.92
577.84	2244.51
578.19	2240.60
578.54	2237.12
578.90	2233.07
579.25	2227.64
579.60	2222.75
579.95	2217.92
580.30	2212.99
580.66	2207.94
581.01	2203.07
581.36	2198.21
581.71	2194.10
582.06	2189.91
582.42	2185.67
582.77	2180.44
583.12	2175.94
583.47	2171.46
583.82	2166.67
584.17	2161.52
584.53	2156.25
584.88	2150.99
585.23	2145.34
585.58	2139.97
585.93	2134.60
586.28	2129.80
586.63	2124.90
586.98	2119.77
587.34	2115.06
587.69	2110.27
588.04	2105.17
588.39	2099.55
588.74	2093.08
589.09	2086.96
589.44	2080.29
589.79	2074.06
590.14	2068.46
590.49	2061.87
590.84	2055.41
591.19	2049.46
591.54	2043.02
591.89	2035.85
592.25	2029.16
592.60	2022.06
592.95	2014.66
593.30	2007.37
593.65	1999.82
594.00	1992.79
594.35	1985.62
594.70	1977.55
595.05	1970.63
595.40	1963.33
595.75	1955.84
596.10	1949.82
596.45	1943.24
596.80	1936.96
597.15	1930.58
597.50	1923.66
597.85	1917.27
598.19	1910.67
598.54	1903.80
598.89	1897.16
599.24	1891.22
599.59	1884.60
599.94	1878.38
600.29	1872.03
600.64	1865.36
600.99	1857.96
601.34	1851.28
601.69	1844.33
602.04	1837.61
602.39	1830.04
602.74	1823.28
603.08	1816.66
603.43	1809.94
603.78	1802.49
604.13	1795.42
604.48	1788.14
604.83	1781.29
605.18	1774.45
605.53	1766.69
605.87	1758.60
606.22	1751.39
606.57	1743.43
606.92	1735.94
607.27	1728.86
607.62	1722.05
607.96	1714.98
608.31	1708.57
608.66	1700.99
609.01	1693.60
609.36	1685.99
609.70	1678.10
610.05	1670.14
610.40	1662.53
610.75	1654.21
611.10	1646.58
611.44	1638.06
611.79	1630.10
612.14	1621.47
612.49	1612.29
612.83	1603.83
613.18	1595.64
613.53	1587.56
613.88	1579.00
614.22	1570.78
614.57	1562.08
614.92	1554.14
615.27	1546.67
615.61	1538.32
615.96	1530.14
616.31	1522.38
616.65	1514.98
617.00	1507.45
617.35	1499.67
617.70	1491.54
618.04	1483.10
618.39	1474.89
618.74	1467.50
619.08	1459.19
619.43	1451.62
619.78	1444.77
620.12	1437.69
620.47	1430.25
620.82	1422.06
621.16	1414.75
621.51	1407.17
621.85	1399.59
622.20	1391.04
622.55	1382.67
622.89	1374.81
623.24	1367.22
623.59	1359.74
623.93	1352.38
624.28	1345.18
624.62	1337.71
624.97	1330.35
625.32	1323.46
625.66	1316.37
626.01	1309.11
626.35	1301.75
626.70	1293.96
627.04	1286.34
627.39	1278.46
627.73	1271.01
628.08	1264.15
628.43	1256.88
628.77	1249.55
629.12	1241.99
629.46	1234.88
629.81	1227.34
630.15	1220.09
630.50	1212.76
630.84	1204.59
631.19	1196.55
631.53	1188.95
631.88	1181.36
632.22	1173.83
632.57	1166.53
632.91	1159.00
633.26	1151.60
633.60	1144.10
633.95	1136.93
634.29	1129.75
634.64	1123.10
634.98	1115.77
635.32	1108.63
635.67	1101.99
636.01	1095.31
636.36	1088.57
636.70	1082.00
637.05	1075.49
637.39	1069.05
637.73	1062.54
638.08	1056.66
638.42	1050.72
638.77	1044.35
639.11	1037.94
639.45	1031.53
639.80	1024.94
640.14	1018.68
640.49	1012.18
640.83	1005.93
641.17	999.86
641.52	993.45
641.86	987.05
642.20	981.26
642.55	974.83
642.89	968.48
643.23	961.85
643.58	956.07
643.92	949.86
644.26	943.91
644.61	937.82
644.95	931.83
645.29	925.39
645.64	918.62
645.98	912.33
646.32	906.34
646.66	900.33
647.01	894.58
647.35	888.93
647.69	883.00
648.04	877.48
648.38	871.67
648.72	865.87
649.06	859.79
649.41	853.85
649.75	848.00
650.09	842.01
650.43	836.22
650.78	830.06
651.12	824.17
651.46	818.37
651.80	812.74
652.14	807.36
652.49	801.97
652.83	796.86
653.17	791.20
653.51	785.57
653.85	780.10
654.20	774.49
654.54	768.35
654.88	762.58
655.22	756.69
655.56	750.98
655.90	745.48
656.25	740.19
656.59	734.83
656.93	729.72
657.27	724.56
657.61	719.22
657.95	714.14
658.29	709.03
658.64	703.72
658.98	698.32
659.32	692.84
659.66	687.61
660.00	682.32
660.34	677.35
660.68	672.38
661.02	667.37
661.36	662.69
661.70	658.24
662.05	653.96
662.39	649.63
662.73	645.09
663.07	640.70
663.41	636.24
663.75	631.78
664.09	627.19
664.43	622.80
664.77	618.73
665.11	614.47
665.45	610.31
665.79	606.25
666.13	602.19
666.47	598.11
666.81	593.92
667.15	589.80
667.49	585.82
667.83	581.95
668.17	578.03
668.51	573.90
668.85	569.86
669.19	565.98
669.53	562.11
669.87	558.35
670.21	554.65
670.55	551.01
670.89	547.57
671.23	544.17
671.57	540.64
671.91	537.09
672.25	533.57
672.58	530.09
672.92	526.65
673.26	523.41
673.60	520.18
673.94	517.11
674.28	514.17
674.62	511.26
674.96	508.20
675.30	505.31
675.64	502.43
675.97	499.61
676.31	496.73
676.65	493.88
676.99	491.17
677.33	488.27
677.67	485.50
678.01	482.47
678.34	479.52
678.68	476.66
679.02	473.83
679.36	471.05
679.70	468.30
680.04	465.58
680.37	462.73
680.71	460.00
681.05	457.36
681.39	454.63
681.73	451.97
682.06	449.43
682.40	446.85
682.74	444.28
683.08	441.77
683.42	439.14
683.75	436.57
684.09	433.95
684.43	431.47
684.77	429.00
685.10	426.63
685.44	424.26
685.78	421.94
686.12	419.63
686.45	417.29
686.79	414.99
687.13	412.75
687.46	410.62
687.80	408.44
688.14	406.24
688.48	404.19
688.81	401.98
689.15	399.84
689.49	397.71
689.82	395.64
690.16	393.56
690.50	391.63
690.83	389.74
691.17	387.77
691.51	385.87
691.84	384.01
692.18	382.12
692.52	380.23
692.85	378.29
693.19	376.46
693.52	374.64
693.86	372.82
694.20	371.09
694.53	369.26
694.87	367.41
695.21	365.58
695.54	363.73
695.88	361.97
696.21	360.20
696.55	358.51
696.88	356.82
697.22	355.12
697.56	353.50
697.89	351.84
698.23	350.21
698.56	348.61
698.90	347.06
699.23	345.42
699.57	343.83
699.90	342.27
700.24	340.69
700.58	339.21
700.91	337.75
701.25	336.26
701.58	334.90
701.92	333.49
702.25	332.12
702.59	330.73
702.92	329.44
703.26	328.15
703.59	326.86
703.93	325.67
704.26	324.45
704.60	323.15
704.93	321.86
705.26	320.62
705.60	319.39
705.93	318.21
706.27	317.16
706.60	316.09
706.94	315.05
707.27	313.92
707.61	312.85
707.94	311.79
708.27	310.72
708.61	309.59
708.94	308.64
709.28	307.66
709.61	306.70
709.94	305.72
710.28	304.73
710.61	303.71
710.95	302.58
711.28	301.64
711.61	300.69
711.95	299.80
712.28	298.87
712.61	297.91
712.95	296.94
713.28	296.02
713.61	295.14
713.95	294.28
714.28	293.48
714.61	292.61
714.95	291.75
715.28	290.90
715.61	290.07
715.95	289.19
716.28	288.35
716.61	287.55
716.95	286.74
717.28	286.01
717.61	285.27
717.94	284.61
718.28	283.81
718.61	283.05
718.94	282.34
719.27	281.69
719.61	281.07
719.94	280.43
720.27	279.75
720.60	279.06
720.94	278.41
721.27	277.81
721.60	277.24
721.93	276.66
722.27	276.11
722.60	275.56
722.93	275.03
723.26	274.51
723.59	273.96
723.93	273.42
724.26	272.83
724.59	272.25
724.92	271.68
725.25	271.19
725.59	270.69
725.92	270.20
726.25	269.70
726.58	269.17
726.91	268.67
727.24	268.17
727.57	267.71
727.91	267.19
728.24	266.72
728.57	266.21
728.90	265.76
729.23	265.25
729.56	264.85
729.89	264.36
730.22	263.84
730.55	263.33
730.89	262.89
731.22	262.45
731.55	262.06
731.88	261.64
732.21	261.22
732.54	260.78
732.87	260.34
733.20	259.91
733.53	259.54
733.86	259.18
734.19	258.79
734.52	258.42
734.85	258.11
735.18	257.67
735.51	257.32
735.84	256.94
736.17	256.59
736.50	256.11
736.83	255.90
737.16	255.60
737.49	255.30
737.82	254.94
738.15	254.62
738.48	254.29
738.81	253.96
739.14	253.62
739.47	253.35
739.80	253.04
740.13	252.76
740.46	252.43
740.79	252.10
741.12	251.80
741.45	251.48
741.78	251.14
742.11	250.85
742.44	250.51
742.77	250.23
743.10	249.94
743.43	249.68
743.75	249.23
744.08	249.06
744.41	248.76
744.74	248.49
745.07	248.19
745.40	247.94
745.73	247.73
746.06	247.48
746.39	247.17
746.71	246.90
747.04	246.63
747.37	246.38
747.70	246.14
748.03	245.90
748.36	245.65
748.68	245.40
749.01	245.17
749.34	244.95
749.67	244.72
750.00	244.53
750.33	244.37
750.65	244.18
750.98	243.81
751.31	243.61
751.64	243.42
751.97	243.22
752.29	242.98
752.62	242.68
752.95	242.49
753.28	242.30
753.60	242.09
753.93	241.90
754.26	241.71
754.59	241.45
754.91	241.24
755.24	241.05
755.57	240.90
755.90	240.70
756.22	240.50
756.55	240.28
756.88	240.03
757.20	239.80
757.53	239.62
757.86	239.49
758.19	239.32
758.51	239.13
758.84	238.98
759.17	238.81
759.49	238.69
759.82	238.57
760.15	238.37
760.47	238.21
760.80	238.03
761.13	237.90
761.45	237.79
761.78	237.67
762.11	237.52
762.43	237.32
762.76	237.17
763.08	237.05
763.41	236.94
763.74	236.82
764.06	236.68
764.39	236.56
764.71	236.40
765.04	236.26
765.37	236.15
765.69	235.99
766.02	235.88
766.34	235.70
766.67	235.55
767.00	235.50
767.32	235.43
767.65	235.37
767.97	235.23
768.30	235.11
768.62	235.00
768.95	234.88
769.27	234.76
769.60	234.67
769.92	234.57
770.25	234.45
770.57	234.33
770.90	234.24
771.22	234.13
771.55	234.06
771.87	233.97
772.20	233.90
772.52	233.88
772.85	233.89
773.17	233.84
773.50	233.75
773.82	233.63
774.15	233.53
774.47	233.38
774.80	233.28
775.12	233.15
775.45	233.05
775.77	232.99
776.09	232.94
776.42	232.86
776.74	232.79
777.07	232.73
777.39	232.67
777.72	232.60
778.04	232.54
778.36	232.43
778.69	232.38
779.01	232.26
779.33	232.11
779.66	231.95
779.98	231.87
780.31	231.82
780.63	231.82
780.95	231.76
781.28	231.70
781.60	231.64
781.92	231.60
782.25	231.53
782.57	231.46
782.89	231.40
783.22	231.33
783.54	231.24
783.86	231.18
784.19	231.11
784.51	231.06
784.83	230.99
785.16	230.95
785.48	230.86
785.80	230.82
786.12	230.81
786.45	230.75
786.77	230.71
787.09	230.60
787.42	230.49
787.74	230.47
788.06	230.41
788.38	230.35
788.71	230.33
789.03	230.31
789.35	230.25
789.67	230.20
789.99	230.17
790.32	230.12
790.64	230.08
790.96	230.12
791.28	230.03
791.61	229.97
791.93	229.93
792.25	229.92
792.57	229.94
792.89	229.85
793.21	229.81
793.54	229.74
793.86	229.71
794.18	229.66
794.50	229.58
794.82	229.57
795.14	229.55
795.47	229.50
795.79	229.43
796.11	229.39
796.43	229.35
796.75	229.30
797.07	229.28
797.39	229.27
797.71	229.17
798.04	229.16
798.36	229.13
798.68	229.10
799.00	229.04
799.32	228.96
799.64	228.95
799.96	228.93
800.28	228.91
800.60	228.86
800.92	228.85
801.24	228.83
801.56	228.81
801.89	228.79
802.21	228.77
802.53	228.75
802.85	228.74
803.17	228.79
803.49	228.76
803.81	228.74
804.13	228.69
804.45	228.66
804.77	228.63
805.09	228.63
805.41	228.60
805.73	228.57
806.05	228.54
806.37	228.51
806.69	228.48
807.01	228.49
807.33	228.52
807.65	228.47
807.97	228.51
808.28	228.46
808.60	228.46
808.92	228.41
809.24	228.46
809.56	228.43
809.88	228.37
810.20	228.34
810.52	228.34
810.84	228.31
811.16	228.29
811.48	228.29
811.80	228.31
812.12	228.28
812.43	228.32
812.75	228.31
813.07	228.32
813.39	228.29
813.71	228.21
814.03	228.19
814.35	228.17
814.67	228.09
814.98	228.11
815.30	228.06
815.62	228.06
815.94	227.98
816.26	227.98
816.58	227.94
816.89	227.97
817.21	227.95
817.53	227.97
817.85	227.95
818.17	227.93
818.48	227.86
818.80	227.89
819.12	227.84
819.44	227.79
819.76	227.74
820.07	227.74
820.39	227.74
820.71	227.70
821.03	227.69
821.34	227.68
821.66	227.66
821.98	227.63
822.30	227.58
822.61	227.63
822.93	227.59
823.25	227.56
823.57	227.52
823.88	227.54
824.20	227.51
824.52	227.50
824.83	227.49
825.15	227.47
825.47	227.43
825.79	227.41
826.10	227.41
826.42	227.38
826.74	227.37
827.05	227.35
827.37	227.34
827.69	227.32
828.00	227.31
828.32	227.26
828.64	227.25
828.95	227.28
829.27	227.24
829.58	227.22
829.90	227.24
830.22	227.24
830.53	227.16
830.85	227.09
831.17	227.05
831.48	227.01
831.80	226.97
832.11	226.92
832.43	226.90
832.75	226.89
833.06	226.91
833.38	226.85
833.69	226.83
834.01	226.82
834.32	226.81
834.64	226.79
834.96	226.80
835.27	226.81
835.59	226.77
835.90	226.68
836.22	226.65
836.53	226.58
836.85	226.56
837.16	226.65
837.48	226.65
837.79	226.69
838.11	226.67
838.42	226.67
838.74	226.70
839.05	226.69
839.37	226.66
839.68	226.62
840.00	226.62
840.31	226.66
840.63	226.65
840.94	226.64
841.26	226.62
841.57	226.58
841.88	226.57
842.20	226.60
842.51	226.61
842.83	226.63
843.14	226.74
843.46	226.76
843.77	226.69
844.08	226.67
844.40	226.63
844.71	226.64
845.03	226.66
845.34	226.64
845.65	226.63
845.97	226.63
846.28	226.62
846.60	226.61
846.91	226.59
847.22	226.58
847.54	226.61
847.85	226.63
848.16	226.63
848.48	226.63
848.79	226.64
849.10	226.66
849.42	226.69
849.73	226.58
850.04	226.56
850.36	226.53
850.67	226.58
850.98	226.60
851.30	226.64
851.61	226.64
851.92	226.65
852.23	226.67
852.55	226.70
852.86	226.74
853.17	226.77
853.49	226.79
853.80	226.81
854.11	226.80
854.42	226.78
854.74	226.79
855.05	226.80
855.36	226.74
855.67	226.71
855.99	226.66
856.30	226.82
856.61	226.81
856.92	226.83
857.23	226.79
857.55	226.75
857.86	226.74
858.17	226.74
858.48	226.72
858.79	226.70
859.11	226.67
859.42	226.65
859.73	226.63
860.04	226.62
860.35	226.58
860.66	226.56
860.98	226.56
861.29	226.54
861.60	226.50
861.91	226.52
862.22	226.51
862.53	226.52
862.84	226.37
863.16	226.38
863.47	226.36
863.78	226.38
864.09	226.39
864.40	226.36
864.71	226.35
865.02	226.36
865.33	226.36
865.64	226.36
865.95	226.36
866.27	226.41
866.58	226.41
866.89	226.40
867.20	226.38
867.51	226.37
867.82	226.38
868.13	226.43
868.44	226.38
868.75	226.41
869.06	226.41
869.37	226.44
869.68	226.42
869.99	226.42
870.30	226.42
870.61	226.43
870.92	226.39
871.23	226.38
871.54	226.39
871.85	226.37
872.16	226.40
872.47	226.39
872.78	226.35
873.09	226.36
873.40	226.33
873.71	226.35
874.02	226.36
874.33	226.34
874.64	226.29
874.95	226.31
875.26	226.28
875.56	226.26
875.87	226.25
876.18	226.23
876.49	226.32
876.80	226.30
877.11	226.27
877.42	226.30
877.73	226.30
878.04	226.31
878.35	226.32
878.66	226.30
878.96	226.32
879.27	226.28
879.58	226.26
879.89	226.29
880.20	226.28
880.51	226.30
880.82	226.30
881.12	226.31
881.43	226.29
881.74	226.27
882.05	226.27
882.36	226.28
882.67	226.30
882.97	226.19
883.28	226.17
883.59	226.16
883.90	226.15
884.21	226.17
884.51	226.12
884.82	226.13
885.13	226.10
885.44	226.05
885.74	226.06
886.05	226.07
886.36	226.03
886.67	226.01
886.98	226.06
887.28	226.03
887.59	226.03
887.90	226.08
888.20	226.10
888.51	226.14
888.82	226.11
889.13	226.12
889.43	226.20
889.74	226.19
890.05	226.20
890.35	226.21
890.66	226.21
890.97	226.21
891.28	226.16
891.58	226.20
891.89	226.22
892.20	226.23
892.50	226.21
892.81	226.28
893.12	226.32
893.42	226.27
893.73	226.30
894.04	226.29
894.34	226.30
894.65	226.28
894.95	226.24
895.26	226.22
895.57	226.26
895.87	226.17
896.18	226.20
896.48	226.21
896.79	226.20
897.10	226.19
897.40	226.18
897.71	226.21
898.01	226.20
898.32	226.21
898.63	226.17
898.93	226.20
899.24	226.15
899.54	226.13
899.85	226.11
900.15	226.11
900.46	226.09
900.76	226.06
901.07	226.06
901.38	226.06
901.68	226.12
901.99	226.06
902.29	226.04
902.60	226.01
902.90	225.99
903.21	225.98
903.51	225.94
903.82	225.97
904.12	225.93
904.43	225.93
904.73	225.91
905.03	225.91
905.34	225.97
905.64	225.98
905.95	225.96
906.25	225.97
906.56	225.92
906.86	225.91
907.17	225.92
907.47	225.92
907.77	225.93
908.08	225.91
908.38	225.89
908.69	225.91
908.99	225.92
909.30	225.92
909.60	225.91
909.90	225.93
910.21	225.90
910.51	225.92
910.81	225.91
911.12	225.92
911.42	225.95
911.73	225.83
912.03	225.84
912.33	225.84
912.64	225.82
912.94	225.84
913.24	225.83
913.55	225.80
913.85	225.81
914.15	225.79
914.46	225.77
914.76	225.76
915.06	225.74
915.37	225.74
915.67	225.75
915.97	225.73
916.27	225.71
916.58	225.75
916.88	225.71
917.18	225.71
917.49	225.78
917.79	225.77
918.09	225.80
918.39	225.79
918.70	225.76
919.00	225.77
919.30	225.82
919.60	225.85
919.91	225.86
920.21	225.88
920.51	225.86
920.81	225.85
921.12	225.88
921.42	225.87
921.72	225.89
922.02	225.87
922.32	225.90
922.63	225.91
922.93	225.94
923.23	225.97
923.53	225.96
923.83	225.88
924.13	225.86
924.44	225.87
924.74	225.90
925.04	225.96
925.34	225.92
925.64	225.85
925.94	225.86
926.24	225.88
926.55	225.88
926.85	225.89
927.15	225.89
927.45	225.87
927.75	225.89
928.05	225.87
928.35	225.89
928.65	225.93
928.95	226.00
929.26	225.95
929.56	225.96
929.86	225.98
930.16	225.95
930.46	225.94
930.76	225.94
931.06	225.86
931.36	225.85
931.66	225.91
931.96	225.93
932.26	225.92
932.56	225.91
932.86	225.89
933.16	225.92
933.46	225.92
933.76	225.93
934.06	225.94
934.36	225.97
934.66	225.94
934.96	225.92
935.26	225.90
935.56	225.87
935.86	225.85
936.16	225.85
936.46	225.83
936.76	225.84
937.06	225.83
937.36	225.86
937.66	225.85
937.96	225.83
938.26	225.78
938.56	225.79
938.86	225.77
939.16	225.80
939.46	225.80
939.76	225.82
940.06	225.80
940.35	225.79
940.65	225.77
940.95	225.78
941.25	225.75
941.55	225.72
941.85	225.75
942.15	225.80
942.45	225.81
942.75	225.83
943.04	225.83
943.34	225.87
943.64	225.87
943.94	225.83
944.24	225.85
944.54	225.88
944.84	225.86
945.13	225.86
945.43	225.85
945.73	225.84
946.03	225.82
946.33	225.84
946.62	225.81
946.92	225.82
947.22	225.83
947.52	225.83
947.82	225.83
948.11	225.84
948.41	225.79
948.71	225.76
949.01	225.80
949.31	225.80
949.60	225.74
949.90	225.74
950.20	225.75
950.50	225.72
950.79	225.72
951.09	225.74
951.39	225.73
951.69	225.70
951.98	225.70
952.28	225.70
952.58	225.65
952.87	225.68
953.17	225.69
953.47	225.68
953.76	225.70
954.06	225.71
954.36	225.66
954.66	225.66
954.95	225.67
955.25	225.63
955.55	225.62
955.84	225.62
956.14	225.65
956.44	225.67
956.73	225.67
957.03	225.69
957.32	225.67
957.62	225.65
957.92	225.66
958.21	225.67
958.51	225.75
958.81	225.80
959.10	225.82
959.40	225.82
959.69	225.83
959.99	225.85
960.29	225.83
960.58	225.83
960.88	225.92
961.17	225.90
961.47	225.91
961.76	225.91
962.06	225.95
962.36	225.93
962.65	225.88
962.95	225.86
963.24	225.84
963.54	225.87
963.83	225.86
964.13	225.86
964.42	225.82
964.72	225.77
965.01	225.76
965.31	225.70
965.60	225.68
965.90	225.70
966.19	225.63
966.49	225.62
966.78	225.63
967.08	225.58
967.37	225.60
967.67	225.59
967.96	225.62
968.26	225.60
968.55	225.62
968.85	225.65
969.14	225.65
969.43	225.63
969.73	225.62
970.02	225.66
970.32	225.63
970.61	225.65
970.91	225.62
971.20	225.63
971.49	225.62
971.79	225.61
972.08	225.55
972.38	225.59
972.67	225.59
972.96	225.60
973.26	225.58
973.55	225.58
973.85	225.60
974.14	225.58
974.43	225.58
974.73	225.58
975.02	225.56
975.31	225.58
975.61	225.62
975.90	225.60
976.19	225.57
976.49	225.60
976.78	225.59
977.07	225.59
977.37	225.58
977.66	225.61
977.95	225.60
978.24	225.59
978.54	225.58
978.83	225.56
979.12	225.56
979.42	225.57
979.71	225.57
980.00	225.55
980.29	225.59
980.59	225.58
980.88	225.61
981.17	225.62
981.46	225.60
981.76	225.62
982.05	225.65
982.34	225.67
982.63	225.68
982.93	225.70
983.22	225.72
983.51	225.75
983.80	225.76
984.09	225.78
984.39	225.80
984.68	225.79
984.97	225.85
985.26	225.82
985.55	225.82
985.85	225.83
986.14	225.88
986.43	225.89
986.72	225.88
987.01	225.85
987.30	225.84
987.59	225.87
987.89	225.85
988.18	225.81
988.47	225.80
988.76	225.81
989.05	225.80
989.34	225.78
989.63	225.79
989.92	225.80
990.22	225.79
990.51	225.80
990.80	225.84
991.09	225.81
991.38	225.85
991.67	225.83
991.96	225.80
992.25	225.77
992.54	225.72
992.83	225.70
993.12	225.72
993.41	225.74
993.70	225.77
993.99	225.80
994.28	225.83
994.58	225.85
994.87	225.83
995.16	225.82
995.45	225.82
995.74	225.75
996.03	225.73
996.32	225.74
996.61	225.74
996.90	225.70
997.19	225.69
997.48	225.71
997.77	225.74
998.06	225.75
998.34	225.73
998.63	225.70
998.92	225.71
999.21	225.69
999.50	225.68
999.79	225.62
1000.08	225.59
1000.37	225.57
1000.66	225.51
1000.95	225.55
1001.24	225.52
1001.53	225.53
1001.82	225.55
1002.11	225.51
1002.40	225.49
1002.68	225.50
1002.97	225.54
1003.26	225.55
1003.55	225.48
1003.84	225.47
1004.13	225.49
1004.42	225.46
1004.71	225.49
1004.99	225.49
1005.28	225.50
1005.57	225.52
1005.86	225.52
1006.15	225.52
1006.44	225.50
1006.72	225.54
1007.01	225.51
1007.30	225.51
1007.59	225.50
1007.88	225.51
1008.17	225.53
1008.45	225.53
1008.74	225.52
1009.03	225.51
1009.32	225.50
1009.60	225.52
1009.89	225.49
1010.18	225.45
1010.47	225.47
1010.76	225.48
1011.04	225.45
1011.33	225.46
1011.62	225.45
1011.91	225.47
1012.19	225.47
1012.48	225.48
1012.77	225.48
1013.05	225.49
1013.34	225.48
1013.63	225.50
1013.92	225.50
1014.20	225.48
1014.49	225.49
1014.78	225.47
1015.06	225.43
1015.35	225.42
1015.64	225.44
1015.92	225.47
1016.21	225.51
1016.50	225.49
1016.78	225.50
1017.07	225.52
1017.36	225.51
1017.64	225.50
1017.93	225.53
1018.22	225.54
1018.50	225.52
1018.79	225.56
1019.08	225.50
1019.36	225.56
1019.65	225.53
1019.93	225.59
1020.22	225.61
1020.51	225.65
1020.79	225.64
1021.08	225.51
1021.36	225.14
1021.65	226.06
1021.94	224.84
1022.22	226.21
1022.51	225.37
1022.79	226.64
1023.08	225.37
1023.36	226.55
1023.65	225.03
>>>>>End Processed Spectral Data<<<<<
