SpectraSuite Data File
++++++++++++++++++++++++++++++++++++
Date: Fri Feb 01 17:46:25 EST 2013
User: group
Dark Spectrum Present: No
Reference Spectrum Present: No
Number of Sampled Component Spectra: 1
Spectrometers: USB2E7196
Integration Time (usec): 35000 (USB2E7196)
Spectra Averaged: 100 (USB2E7196)
Boxcar Smoothing: 10 (USB2E7196)
Correct for Electrical Dark: No (USB2E7196)
Strobe/Lamp Enabled: No (USB2E7196)
Correct for Detector Non-linearity: No (USB2E7196)
Correct for Stray Light: No (USB2E7196)
Number of Pixels in Processed Spectrum: 2048
>>>>>Begin Processed Spectral Data<<<<<
339.09	0.00
339.48	212.35
339.86	214.17
340.24	215.41
340.63	216.48
341.01	219.55
341.39	218.80
341.78	221.29
342.16	221.46
342.54	222.25
342.93	210.88
343.31	221.52
343.69	222.06
344.07	222.53
344.46	222.92
344.84	223.30
345.22	223.54
345.60	223.80
345.99	223.97
346.37	224.14
346.75	224.24
347.13	224.29
347.52	224.32
347.90	224.40
348.28	224.44
348.66	224.51
349.05	224.49
349.43	224.55
349.81	224.59
350.19	224.68
350.57	224.73
350.96	224.82
351.34	224.95
351.72	225.04
352.10	225.15
352.48	225.27
352.87	225.35
353.25	225.41
353.63	225.50
354.01	225.54
354.39	225.61
354.77	225.69
355.15	225.80
355.54	225.89
355.92	225.90
356.30	226.03
356.68	226.17
357.06	226.26
357.44	226.31
357.82	226.40
358.20	226.47
358.58	226.53
358.97	226.57
359.35	226.66
359.73	226.73
360.11	226.78
360.49	226.84
360.87	226.89
361.25	226.96
361.63	227.04
362.01	227.11
362.39	227.14
362.77	227.20
363.15	227.24
363.53	227.26
363.91	227.30
364.29	227.29
364.67	227.21
365.05	227.22
365.43	227.27
365.81	227.31
366.19	227.38
366.57	227.44
366.95	227.45
367.33	227.44
367.71	227.44
368.09	227.45
368.47	227.40
368.85	227.38
369.23	227.39
369.61	227.33
369.99	227.33
370.37	227.34
370.75	227.39
371.13	227.32
371.51	227.29
371.89	227.27
372.27	227.22
372.65	227.20
373.03	227.15
373.41	227.05
373.78	226.93
374.16	226.83
374.54	226.75
374.92	226.70
375.30	226.65
375.68	226.57
376.06	226.47
376.44	226.44
376.82	226.40
377.19	226.35
377.57	226.30
377.95	226.22
378.33	226.16
378.71	226.01
379.09	226.00
379.47	225.91
379.84	225.83
380.22	225.78
380.60	225.69
380.98	225.62
381.36	225.58
381.73	225.57
382.11	225.51
382.49	225.44
382.87	225.37
383.25	225.27
383.62	225.34
384.00	225.29
384.38	225.21
384.76	225.18
385.13	225.11
385.51	225.05
385.89	224.98
386.27	224.91
386.64	224.91
387.02	224.82
387.40	224.80
387.78	224.78
388.15	224.74
388.53	224.69
388.91	224.67
389.29	224.65
389.66	224.60
390.04	224.61
390.42	224.61
390.79	224.60
391.17	224.60
391.55	224.46
391.92	224.46
392.30	224.46
392.68	224.42
393.05	224.44
393.43	224.45
393.81	224.50
394.18	224.51
394.56	224.47
394.94	224.52
395.31	224.50
395.69	224.54
396.06	224.58
396.44	224.62
396.82	224.66
397.19	224.73
397.57	224.75
397.95	224.75
398.32	224.77
398.70	224.82
399.07	224.92
399.45	225.00
399.82	225.03
400.20	225.10
400.58	225.17
400.95	225.19
401.33	225.29
401.70	225.41
402.08	225.47
402.45	225.57
402.83	225.71
403.20	225.80
403.58	225.90
403.95	226.00
404.33	226.13
404.71	226.26
405.08	226.48
405.46	226.62
405.83	226.79
406.21	226.98
406.58	227.12
406.96	227.25
407.33	227.45
407.70	227.69
408.08	228.00
408.45	228.24
408.83	228.55
409.20	228.79
409.58	229.00
409.95	229.37
410.33	229.68
410.70	229.95
411.08	230.34
411.45	230.71
411.82	231.10
412.20	231.51
412.57	232.00
412.95	232.36
413.32	232.88
413.69	233.39
414.07	233.89
414.44	234.52
414.82	235.11
415.19	235.81
415.56	236.48
415.94	237.14
416.31	237.95
416.68	238.77
417.06	239.68
417.43	240.53
417.81	241.46
418.18	242.45
418.55	243.51
418.93	244.62
419.30	245.74
419.67	246.90
420.04	248.16
420.42	249.42
420.79	250.91
421.16	252.38
421.54	253.89
421.91	255.47
422.28	257.06
422.66	258.72
423.03	260.32
423.40	262.03
423.77	263.83
424.15	265.66
424.52	267.49
424.89	269.47
425.26	271.46
425.64	273.32
426.01	275.34
426.38	277.47
426.75	279.59
427.13	281.76
427.50	284.10
427.87	286.49
428.24	288.89
428.61	291.08
428.99	293.53
429.36	296.22
429.73	298.78
430.10	301.30
430.47	303.99
430.85	306.69
431.22	309.54
431.59	312.54
431.96	315.35
432.33	318.50
432.70	321.52
433.08	325.08
433.45	328.44
433.82	331.73
434.19	335.35
434.56	338.90
434.93	342.30
435.30	345.62
435.68	349.29
436.05	352.84
436.42	356.42
436.79	359.56
437.16	362.92
437.53	366.54
437.90	370.17
438.27	373.61
438.64	377.22
439.01	380.53
439.38	383.42
439.75	386.15
440.13	389.31
440.50	392.31
440.87	394.63
441.24	397.09
441.61	399.88
441.98	401.84
442.35	404.14
442.72	406.54
443.09	408.82
443.46	410.06
443.83	410.88
444.20	411.54
444.57	412.62
444.94	413.08
445.31	413.55
445.68	413.97
446.05	414.07
446.42	413.62
446.79	413.05
447.16	412.52
447.53	412.17
447.90	410.75
448.27	409.30
448.64	407.32
449.01	405.90
449.37	403.39
449.74	400.98
450.11	398.18
450.48	395.01
450.85	391.83
451.22	389.14
451.59	386.50
451.96	384.04
452.33	380.79
452.70	377.78
453.07	374.19
453.43	370.54
453.80	367.07
454.17	363.65
454.54	360.47
454.91	356.96
455.28	353.55
455.65	350.37
456.02	347.25
456.38	344.56
456.75	341.15
457.12	338.32
457.49	335.44
457.86	332.66
458.23	330.28
458.59	327.67
458.96	325.00
459.33	322.65
459.70	320.30
460.07	318.34
460.43	316.14
460.80	314.09
461.17	312.27
461.54	310.33
461.91	308.48
462.27	306.61
462.64	305.00
463.01	303.28
463.38	301.57
463.74	299.81
464.11	298.26
464.48	296.93
464.85	295.47
465.21	294.34
465.58	293.15
465.95	291.76
466.32	290.56
466.68	289.40
467.05	288.23
467.42	287.04
467.78	285.85
468.15	284.74
468.52	283.83
468.88	282.71
469.25	281.69
469.62	280.92
469.98	280.05
470.35	279.25
470.72	278.49
471.08	277.68
471.45	276.99
471.82	276.32
472.18	275.57
472.55	275.01
472.92	274.33
473.28	273.72
473.65	273.14
474.02	272.58
474.38	272.08
474.75	271.65
475.11	271.19
475.48	270.85
475.85	270.51
476.21	270.20
476.58	269.94
476.94	269.73
477.31	269.47
477.67	269.22
478.04	269.03
478.41	268.89
478.77	268.86
479.14	268.74
479.50	268.71
479.87	268.72
480.23	268.76
480.60	268.80
480.96	268.84
481.33	268.99
481.69	269.16
482.06	269.35
482.42	269.53
482.79	269.75
483.15	270.02
483.52	270.42
483.88	270.74
484.25	271.10
484.61	271.51
484.98	271.94
485.34	272.49
485.71	273.08
486.07	273.67
486.44	274.21
486.80	274.92
487.17	275.61
487.53	276.41
487.90	277.26
488.26	278.25
488.62	279.25
488.99	280.27
489.35	281.35
489.72	282.51
490.08	283.80
490.44	285.09
490.81	286.45
491.17	287.82
491.54	289.33
491.90	290.89
492.26	292.61
492.63	294.42
492.99	296.26
493.36	298.22
493.72	300.35
494.08	302.59
494.45	304.97
494.81	307.46
495.17	309.97
495.54	312.68
495.90	315.46
496.26	318.40
496.63	321.48
496.99	324.73
497.35	328.10
497.72	331.61
498.08	335.23
498.44	339.08
498.80	343.15
499.17	347.39
499.53	351.78
499.89	356.33
500.26	360.98
500.62	365.88
500.98	371.05
501.34	376.38
501.71	381.92
502.07	387.55
502.43	393.39
502.79	399.49
503.16	405.75
503.52	412.22
503.88	418.93
504.24	425.81
504.60	432.97
504.97	440.44
505.33	448.07
505.69	456.17
506.05	464.29
506.41	472.51
506.78	481.02
507.14	489.88
507.50	498.94
507.86	508.41
508.22	518.02
508.59	527.66
508.95	537.61
509.31	547.89
509.67	558.50
510.03	569.31
510.39	580.41
510.75	591.78
511.12	603.28
511.48	615.14
511.84	627.16
512.20	639.22
512.56	651.78
512.92	664.47
513.28	677.48
513.64	690.63
514.00	704.01
514.37	717.64
514.73	731.38
515.09	745.12
515.45	759.09
515.81	773.38
516.17	788.07
516.53	803.01
516.89	818.05
517.25	833.01
517.61	848.28
517.97	863.52
518.33	878.76
518.69	894.42
519.05	910.19
519.41	926.32
519.77	942.79
520.13	959.16
520.49	975.68
520.85	991.97
521.21	1008.60
521.57	1025.91
521.93	1042.71
522.29	1060.07
522.65	1077.43
523.01	1094.70
523.37	1111.94
523.73	1129.18
524.09	1146.37
524.45	1163.67
524.81	1181.48
525.17	1199.36
525.53	1217.45
525.89	1235.62
526.25	1253.69
526.61	1271.45
526.97	1289.46
527.33	1307.32
527.68	1325.14
528.04	1342.83
528.40	1360.76
528.76	1379.28
529.12	1397.15
529.48	1415.46
529.84	1432.81
530.20	1450.82
530.56	1469.21
530.91	1488.05
531.27	1506.41
531.63	1524.33
531.99	1542.35
532.35	1559.91
532.71	1577.34
533.07	1595.12
533.42	1612.45
533.78	1630.11
534.14	1647.88
534.50	1664.62
534.86	1681.93
535.21	1698.72
535.57	1716.19
535.93	1733.15
536.29	1749.30
536.65	1766.01
537.00	1782.31
537.36	1799.35
537.72	1815.41
538.08	1831.53
538.44	1846.84
538.79	1862.39
539.15	1877.61
539.51	1892.98
539.87	1908.89
540.22	1924.32
540.58	1939.60
540.94	1954.57
541.29	1968.93
541.65	1983.24
542.01	1998.24
542.37	2012.39
542.72	2026.47
543.08	2039.99
543.44	2054.32
543.79	2067.46
544.15	2080.06
544.51	2093.26
544.87	2105.80
545.22	2118.45
545.58	2130.34
545.94	2141.88
546.29	2153.26
546.65	2164.89
547.01	2175.95
547.36	2186.37
547.72	2196.49
548.07	2206.08
548.43	2215.98
548.79	2225.50
549.14	2234.72
549.50	2243.52
549.86	2252.55
550.21	2261.37
550.57	2270.14
550.92	2278.17
551.28	2286.71
551.64	2295.49
551.99	2303.64
552.35	2311.42
552.70	2318.89
553.06	2326.52
553.41	2334.38
553.77	2341.91
554.13	2349.46
554.48	2357.17
554.84	2364.23
555.19	2370.71
555.55	2377.43
555.90	2383.36
556.26	2389.86
556.61	2395.81
556.97	2401.79
557.32	2407.39
557.68	2413.06
558.03	2418.62
558.39	2423.44
558.74	2429.28
559.10	2434.39
559.45	2439.22
559.81	2444.57
560.16	2449.77
560.52	2454.20
560.87	2458.69
561.23	2462.40
561.58	2466.16
561.94	2469.67
562.29	2472.88
562.64	2476.93
563.00	2480.49
563.35	2484.86
563.71	2489.11
564.06	2493.47
564.42	2497.29
564.77	2500.97
565.12	2504.21
565.48	2507.16
565.83	2510.36
566.19	2512.84
566.54	2514.39
566.89	2516.51
567.25	2518.11
567.60	2520.26
567.96	2522.93
568.31	2524.55
568.66	2526.65
569.02	2528.31
569.37	2529.43
569.72	2531.05
570.08	2531.96
570.43	2532.46
570.78	2532.68
571.14	2531.55
571.49	2530.70
571.84	2530.92
572.20	2530.22
572.55	2529.64
572.90	2528.29
573.26	2527.24
573.61	2525.67
573.96	2524.53
574.31	2521.86
574.67	2519.14
575.02	2515.69
575.37	2512.12
575.72	2508.53
576.08	2505.15
576.43	2501.79
576.78	2498.42
577.13	2495.43
577.49	2492.23
577.84	2489.08
578.19	2485.33
578.54	2482.03
578.90	2477.97
579.25	2472.23
579.60	2467.33
579.95	2462.24
580.30	2457.12
580.66	2451.75
581.01	2446.70
581.36	2441.45
581.71	2437.34
582.06	2432.89
582.42	2428.23
582.77	2422.97
583.12	2418.22
583.47	2413.55
583.82	2408.61
584.17	2402.98
584.53	2397.10
584.88	2391.25
585.23	2385.26
585.58	2379.42
585.93	2373.41
586.28	2368.11
586.63	2362.85
586.98	2357.27
587.34	2352.25
587.69	2347.13
588.04	2341.73
588.39	2335.83
588.74	2328.87
589.09	2322.13
589.44	2314.82
589.79	2308.22
590.14	2302.07
590.49	2294.93
590.84	2287.74
591.19	2281.04
591.54	2274.07
591.89	2266.27
592.25	2258.85
592.60	2250.87
592.95	2242.75
593.30	2234.74
593.65	2226.54
594.00	2218.67
594.35	2210.69
594.70	2201.75
595.05	2193.98
595.40	2185.77
595.75	2177.37
596.10	2170.66
596.45	2163.20
596.80	2156.24
597.15	2149.13
597.50	2141.68
597.85	2134.56
598.19	2127.37
598.54	2119.78
598.89	2112.41
599.24	2105.75
599.59	2098.62
599.94	2091.61
600.29	2084.41
600.64	2077.07
600.99	2068.76
601.34	2061.24
601.69	2053.36
602.04	2045.74
602.39	2037.38
602.74	2029.83
603.08	2022.31
603.43	2014.63
603.78	2006.46
604.13	1998.52
604.48	1990.40
604.83	1982.49
605.18	1974.89
605.53	1966.02
605.87	1956.90
606.22	1948.59
606.57	1939.57
606.92	1930.88
607.27	1922.84
607.62	1914.99
607.96	1906.81
608.31	1899.42
608.66	1890.78
609.01	1882.51
609.36	1874.09
609.70	1865.11
610.05	1855.94
610.40	1847.32
610.75	1838.12
611.10	1829.48
611.44	1819.85
611.79	1810.76
612.14	1800.88
612.49	1790.47
612.83	1780.88
613.18	1771.53
613.53	1762.44
613.88	1752.87
614.22	1743.55
614.57	1733.65
614.92	1724.65
615.27	1716.35
615.61	1707.01
615.96	1697.90
616.31	1689.08
616.65	1680.70
617.00	1672.18
617.35	1663.38
617.70	1653.96
618.04	1644.34
618.39	1634.82
618.74	1626.21
619.08	1616.72
619.43	1608.10
619.78	1600.14
620.12	1592.22
620.47	1583.82
620.82	1574.40
621.16	1565.79
621.51	1557.10
621.85	1548.56
622.20	1538.89
622.55	1529.20
622.89	1520.11
623.24	1511.35
623.59	1502.80
623.93	1494.13
624.28	1485.90
624.62	1477.45
624.97	1469.19
625.32	1461.25
625.66	1453.32
626.01	1445.25
626.35	1436.99
626.70	1428.01
627.04	1419.20
627.39	1410.05
627.73	1401.43
628.08	1393.65
628.43	1385.53
628.77	1377.41
629.12	1368.82
629.46	1360.67
629.81	1352.06
630.15	1343.86
630.50	1335.60
630.84	1326.49
631.19	1317.47
631.53	1308.82
631.88	1300.20
632.22	1291.53
632.57	1283.35
632.91	1274.83
633.26	1266.46
633.60	1257.87
633.95	1249.82
634.29	1241.73
634.64	1234.19
634.98	1226.01
635.32	1217.86
635.67	1210.22
636.01	1202.49
636.36	1194.91
636.70	1187.44
637.05	1180.07
637.39	1172.77
637.73	1165.36
638.08	1158.72
638.42	1151.86
638.77	1144.70
639.11	1137.38
639.45	1130.16
639.80	1122.63
640.14	1115.38
640.49	1107.99
640.83	1100.88
641.17	1093.98
641.52	1087.02
641.86	1079.71
642.20	1073.11
642.55	1066.01
642.89	1058.70
643.23	1051.28
643.58	1044.68
643.92	1037.74
644.26	1031.02
644.61	1024.17
644.95	1017.43
645.29	1010.04
645.64	1002.55
645.98	995.34
646.32	988.56
646.66	981.86
647.01	975.26
647.35	968.80
647.69	962.10
648.04	955.85
648.38	949.38
648.72	942.71
649.06	935.99
649.41	929.27
649.75	922.59
650.09	915.97
650.43	909.60
650.78	902.75
651.12	896.12
651.46	889.72
651.80	883.27
652.14	877.19
652.49	871.15
652.83	865.33
653.17	859.09
653.51	852.82
653.85	846.68
654.20	840.48
654.54	833.75
654.88	827.34
655.22	820.74
655.56	814.27
655.90	808.00
656.25	802.06
656.59	796.02
656.93	790.31
657.27	784.51
657.61	778.38
657.95	772.59
658.29	766.95
658.64	760.93
658.98	754.96
659.32	748.80
659.66	742.90
660.00	736.95
660.34	731.30
660.68	725.74
661.02	720.06
661.36	714.81
661.70	709.77
662.05	704.84
662.39	700.04
662.73	695.02
663.07	690.08
663.41	685.23
663.75	680.27
664.09	675.17
664.43	670.30
664.77	665.75
665.11	661.01
665.45	656.23
665.79	651.66
666.13	647.11
666.47	642.48
666.81	637.91
667.15	633.31
667.49	628.88
667.83	624.49
668.17	620.10
668.51	615.46
668.85	610.98
669.19	606.68
669.53	602.39
669.87	598.08
670.21	593.98
670.55	589.81
670.89	585.97
671.23	582.11
671.57	578.14
671.91	574.14
672.25	570.17
672.58	566.31
672.92	562.50
673.26	558.93
673.60	555.42
673.94	551.93
674.28	548.62
674.62	545.40
674.96	542.03
675.30	538.78
675.64	535.51
675.97	532.35
676.31	529.12
676.65	525.81
676.99	522.75
677.33	519.46
677.67	516.28
678.01	512.90
678.34	509.61
678.68	506.37
679.02	503.32
679.36	500.24
679.70	497.19
680.04	494.17
680.37	490.96
680.71	487.82
681.05	484.82
681.39	481.79
681.73	478.72
682.06	475.88
682.40	473.06
682.74	470.22
683.08	467.40
683.42	464.52
683.75	461.78
684.09	458.91
684.43	456.22
684.77	453.47
685.10	450.79
685.44	448.13
685.78	445.58
686.12	442.96
686.45	440.47
686.79	437.90
687.13	435.42
687.46	432.91
687.80	430.50
688.14	427.98
688.48	425.74
688.81	423.28
689.15	420.83
689.49	418.36
689.82	416.06
690.16	413.69
690.50	411.49
690.83	409.29
691.17	407.06
691.51	404.92
691.84	402.87
692.18	400.75
692.52	398.58
692.85	396.36
693.19	394.21
693.52	392.12
693.86	390.09
694.20	388.03
694.53	386.10
694.87	384.01
695.21	382.04
695.54	379.90
695.88	377.95
696.21	376.04
696.55	374.19
696.88	372.28
697.22	370.39
697.56	368.50
697.89	366.66
698.23	364.88
698.56	363.05
698.90	361.28
699.23	359.47
699.57	357.72
699.90	356.04
700.24	354.32
700.58	352.61
700.91	350.93
701.25	349.29
701.58	347.74
701.92	346.24
702.25	344.71
702.59	343.22
702.92	341.75
703.26	340.27
703.59	338.84
703.93	337.52
704.26	336.17
704.60	334.76
704.93	333.34
705.26	331.94
705.60	330.60
705.93	329.23
706.27	328.02
706.60	326.83
706.94	325.59
707.27	324.32
707.61	323.04
707.94	321.84
708.27	320.62
708.61	319.36
708.94	318.20
709.28	317.06
709.61	315.95
709.94	314.85
710.28	313.68
710.61	312.51
710.95	311.24
711.28	310.18
711.61	309.10
711.95	308.04
712.28	306.99
712.61	305.93
712.95	304.91
713.28	303.90
713.61	302.89
713.95	301.91
714.28	300.97
714.61	300.05
714.95	299.13
715.28	298.14
715.61	297.18
715.95	296.18
716.28	295.21
716.61	294.26
716.95	293.29
717.28	292.43
717.61	291.55
717.94	290.75
718.28	289.83
718.61	288.98
718.94	288.19
719.27	287.46
719.61	286.71
719.94	285.92
720.27	285.11
720.60	284.35
720.94	283.63
721.27	282.94
721.60	282.28
721.93	281.56
722.27	280.96
722.60	280.34
722.93	279.69
723.26	279.10
723.59	278.47
723.93	277.87
724.26	277.28
724.59	276.64
724.92	276.05
725.25	275.51
725.59	274.91
725.92	274.35
726.25	273.70
726.58	273.15
726.91	272.60
727.24	272.05
727.57	271.49
727.91	270.93
728.24	270.39
728.57	269.82
728.90	269.30
729.23	268.76
729.56	268.24
729.89	267.72
730.22	267.15
730.55	266.63
730.89	266.12
731.22	265.62
731.55	265.15
731.88	264.70
732.21	264.18
732.54	263.71
732.87	263.20
733.20	262.77
733.53	262.29
733.86	261.91
734.19	261.48
734.52	261.06
734.85	260.66
735.18	260.19
735.51	259.77
735.84	259.38
736.17	258.97
736.50	258.53
736.83	258.26
737.16	257.90
737.49	257.51
737.82	257.13
738.15	256.75
738.48	256.36
738.81	255.99
739.14	255.63
739.47	255.29
739.80	254.93
740.13	254.60
740.46	254.31
740.79	253.89
741.12	253.54
741.45	253.20
741.78	252.83
742.11	252.54
742.44	252.20
742.77	251.85
743.10	251.52
743.43	251.19
743.75	250.76
744.08	250.59
744.41	250.28
744.74	249.99
745.07	249.67
745.40	249.40
745.73	249.11
746.06	248.79
746.39	248.50
746.71	248.23
747.04	247.91
747.37	247.60
747.70	247.36
748.03	247.06
748.36	246.81
748.68	246.52
749.01	246.22
749.34	245.94
749.67	245.69
750.00	245.44
750.33	245.26
750.65	245.03
750.98	244.68
751.31	244.44
751.64	244.21
751.97	244.05
752.29	243.81
752.62	243.51
752.95	243.31
753.28	243.06
753.60	242.81
753.93	242.59
754.26	242.33
754.59	242.07
754.91	241.86
755.24	241.58
755.57	241.38
755.90	241.16
756.22	240.93
756.55	240.74
756.88	240.48
757.20	240.22
757.53	240.00
757.86	239.81
758.19	239.64
758.51	239.42
758.84	239.16
759.17	238.98
759.49	238.80
759.82	238.67
760.15	238.52
760.47	238.37
760.80	238.20
761.13	238.07
761.45	237.91
761.78	237.73
762.11	237.58
762.43	237.45
762.76	237.31
763.08	237.18
763.41	237.01
763.74	236.90
764.06	236.73
764.39	236.55
764.71	236.40
765.04	236.20
765.37	236.08
765.69	235.96
766.02	235.80
766.34	235.65
766.67	235.46
767.00	235.34
767.32	235.26
767.65	235.15
767.97	235.03
768.30	234.90
768.62	234.80
768.95	234.69
769.27	234.51
769.60	234.39
769.92	234.26
770.25	234.12
770.57	233.96
770.90	233.86
771.22	233.75
771.55	233.58
771.87	233.49
772.20	233.35
772.52	233.32
772.85	233.34
773.17	233.23
773.50	233.12
773.82	232.98
774.15	232.81
774.47	232.65
774.80	232.50
775.12	232.41
775.45	232.28
775.77	232.19
776.09	232.15
776.42	232.09
776.74	232.02
777.07	231.94
777.39	231.88
777.72	231.78
778.04	231.73
778.36	231.66
778.69	231.60
779.01	231.56
779.33	231.37
779.66	231.17
779.98	231.10
780.31	231.02
780.63	231.01
780.95	230.95
781.28	230.89
781.60	230.82
781.92	230.74
782.25	230.72
782.57	230.66
782.89	230.61
783.22	230.52
783.54	230.41
783.86	230.33
784.19	230.28
784.51	230.26
784.83	230.15
785.16	230.12
785.48	230.09
785.80	230.02
786.12	230.01
786.45	229.99
786.77	229.96
787.09	229.93
787.42	229.82
787.74	229.77
788.06	229.77
788.38	229.73
788.71	229.65
789.03	229.59
789.35	229.52
789.67	229.45
789.99	229.43
790.32	229.41
790.64	229.41
790.96	229.45
791.28	229.35
791.61	229.34
791.93	229.26
792.25	229.19
792.57	229.20
792.89	229.10
793.21	229.03
793.54	228.99
793.86	228.92
794.18	228.90
794.50	228.85
794.82	228.79
795.14	228.77
795.47	228.78
795.79	228.72
796.11	228.66
796.43	228.58
796.75	228.53
797.07	228.52
797.39	228.47
797.71	228.32
798.04	228.29
798.36	228.27
798.68	228.24
799.00	228.21
799.32	228.13
799.64	228.15
799.96	228.14
800.28	228.07
800.60	228.02
800.92	228.01
801.24	227.98
801.56	227.93
801.89	227.88
802.21	227.85
802.53	227.80
802.85	227.75
803.17	227.79
803.49	227.70
803.81	227.64
804.13	227.56
804.45	227.55
804.77	227.54
805.09	227.48
805.41	227.45
805.73	227.39
806.05	227.34
806.37	227.30
806.69	227.24
807.01	227.23
807.33	227.23
807.65	227.15
807.97	227.17
808.28	227.12
808.60	227.09
808.92	227.04
809.24	227.07
809.56	227.06
809.88	227.02
810.20	227.04
810.52	227.04
810.84	227.03
811.16	226.99
811.48	226.96
811.80	226.97
812.12	226.95
812.43	226.95
812.75	226.91
813.07	226.87
813.39	226.84
813.71	226.79
814.03	226.79
814.35	226.76
814.67	226.69
814.98	226.69
815.30	226.64
815.62	226.60
815.94	226.53
816.26	226.55
816.58	226.46
816.89	226.42
817.21	226.37
817.53	226.36
817.85	226.34
818.17	226.33
818.48	226.27
818.80	226.26
819.12	226.25
819.44	226.23
819.76	226.22
820.07	226.19
820.39	226.19
820.71	226.16
821.03	226.16
821.34	226.12
821.66	226.11
821.98	226.11
822.30	226.08
822.61	226.12
822.93	226.07
823.25	226.11
823.57	226.11
823.88	226.13
824.20	226.13
824.52	226.13
824.83	226.12
825.15	226.11
825.47	226.12
825.79	226.10
826.10	226.07
826.42	226.06
826.74	226.12
827.05	226.12
827.37	226.08
827.69	226.09
828.00	226.12
828.32	226.11
828.64	226.09
828.95	226.15
829.27	226.13
829.58	226.13
829.90	226.10
830.22	226.09
830.53	226.08
830.85	226.07
831.17	226.06
831.48	226.04
831.80	226.04
832.11	225.99
832.43	225.97
832.75	225.96
833.06	225.99
833.38	225.93
833.69	225.90
834.01	225.90
834.32	225.88
834.64	225.86
834.96	225.87
835.27	225.87
835.59	225.83
835.90	225.79
836.22	225.77
836.53	225.76
836.85	225.74
837.16	225.82
837.48	225.79
837.79	225.80
838.11	225.81
838.42	225.82
838.74	225.83
839.05	225.83
839.37	225.82
839.68	225.74
840.00	225.77
840.31	225.79
840.63	225.77
840.94	225.74
841.26	225.72
841.57	225.67
841.88	225.66
842.20	225.64
842.51	225.59
842.83	225.58
843.14	225.67
843.46	225.66
843.77	225.58
844.08	225.58
844.40	225.58
844.71	225.55
845.03	225.50
845.34	225.47
845.65	225.43
845.97	225.43
846.28	225.45
846.60	225.42
846.91	225.38
847.22	225.39
847.54	225.38
847.85	225.38
848.16	225.39
848.48	225.37
848.79	225.41
849.10	225.45
849.42	225.48
849.73	225.37
850.04	225.35
850.36	225.32
850.67	225.30
850.98	225.27
851.30	225.28
851.61	225.27
851.92	225.27
852.23	225.33
852.55	225.34
852.86	225.34
853.17	225.33
853.49	225.35
853.80	225.34
854.11	225.38
854.42	225.36
854.74	225.36
855.05	225.36
855.36	225.31
855.67	225.31
855.99	225.27
856.30	225.36
856.61	225.36
856.92	225.36
857.23	225.41
857.55	225.38
857.86	225.39
858.17	225.42
858.48	225.41
858.79	225.34
859.11	225.37
859.42	225.37
859.73	225.35
860.04	225.37
860.35	225.33
860.66	225.28
860.98	225.31
861.29	225.29
861.60	225.30
861.91	225.31
862.22	225.28
862.53	225.27
862.84	225.17
863.16	225.17
863.47	225.16
863.78	225.13
864.09	225.17
864.40	225.12
864.71	225.11
865.02	225.14
865.33	225.17
865.64	225.16
865.95	225.13
866.27	225.21
866.58	225.18
866.89	225.23
867.20	225.23
867.51	225.21
867.82	225.19
868.13	225.20
868.44	225.17
868.75	225.20
869.06	225.19
869.37	225.21
869.68	225.19
869.99	225.22
870.30	225.19
870.61	225.19
870.92	225.20
871.23	225.18
871.54	225.17
871.85	225.18
872.16	225.14
872.47	225.14
872.78	225.08
873.09	225.11
873.40	225.09
873.71	225.08
874.02	225.08
874.33	225.11
874.64	225.10
874.95	225.12
875.26	225.13
875.56	225.14
875.87	225.16
876.18	225.13
876.49	225.23
876.80	225.20
877.11	225.19
877.42	225.16
877.73	225.14
878.04	225.12
878.35	225.13
878.66	225.12
878.96	225.13
879.27	225.13
879.58	225.13
879.89	225.12
880.20	225.15
880.51	225.13
880.82	225.08
881.12	225.11
881.43	225.08
881.74	225.03
882.05	225.05
882.36	225.01
882.67	225.02
882.97	224.89
883.28	224.92
883.59	224.90
883.90	224.94
884.21	224.95
884.51	224.94
884.82	224.89
885.13	224.91
885.44	224.89
885.74	224.87
886.05	224.83
886.36	224.79
886.67	224.76
886.98	224.82
887.28	224.82
887.59	224.82
887.90	224.83
888.20	224.82
888.51	224.79
888.82	224.78
889.13	224.77
889.43	224.85
889.74	224.83
890.05	224.83
890.35	224.81
890.66	224.81
890.97	224.83
891.28	224.82
891.58	224.82
891.89	224.83
892.20	224.81
892.50	224.80
892.81	224.80
893.12	224.80
893.42	224.75
893.73	224.74
894.04	224.74
894.34	224.75
894.65	224.73
894.95	224.73
895.26	224.74
895.57	224.80
895.87	224.73
896.18	224.73
896.48	224.74
896.79	224.76
897.10	224.75
897.40	224.75
897.71	224.78
898.01	224.78
898.32	224.79
898.63	224.79
898.93	224.81
899.24	224.82
899.54	224.82
899.85	224.83
900.15	224.86
900.46	224.83
900.76	224.84
901.07	224.85
901.38	224.85
901.68	224.87
901.99	224.82
902.29	224.82
902.60	224.86
902.90	224.83
903.21	224.82
903.51	224.84
903.82	224.86
904.12	224.87
904.43	224.89
904.73	224.88
905.03	224.90
905.34	225.01
905.64	225.01
905.95	225.01
906.25	225.01
906.56	224.99
906.86	224.99
907.17	224.98
907.47	224.96
907.77	224.95
908.08	224.94
908.38	224.96
908.69	224.98
908.99	224.98
909.30	225.02
909.60	225.04
909.90	225.01
910.21	225.02
910.51	224.98
910.81	224.98
911.12	224.99
911.42	224.98
911.73	224.86
912.03	224.88
912.33	224.91
912.64	224.90
912.94	224.91
913.24	224.90
913.55	224.89
913.85	224.92
914.15	224.95
914.46	224.94
914.76	224.92
915.06	224.90
915.37	224.88
915.67	224.86
915.97	224.84
916.27	224.82
916.58	224.81
916.88	224.81
917.18	224.80
917.49	224.84
917.79	224.84
918.09	224.88
918.39	224.87
918.70	224.85
919.00	224.85
919.30	224.85
919.60	224.90
919.91	224.88
920.21	224.92
920.51	224.88
920.81	224.90
921.12	224.92
921.42	224.92
921.72	224.90
922.02	224.88
922.32	224.89
922.63	224.88
922.93	224.92
923.23	224.90
923.53	224.87
923.83	224.79
924.13	224.82
924.44	224.79
924.74	224.79
925.04	224.79
925.34	224.76
925.64	224.73
925.94	224.68
926.24	224.73
926.55	224.70
926.85	224.71
927.15	224.73
927.45	224.71
927.75	224.70
928.05	224.75
928.35	224.72
928.65	224.73
928.95	224.77
929.26	224.73
929.56	224.73
929.86	224.74
930.16	224.74
930.46	224.73
930.76	224.74
931.06	224.73
931.36	224.73
931.66	224.76
931.96	224.77
932.26	224.79
932.56	224.72
932.86	224.72
933.16	224.71
933.46	224.69
933.76	224.67
934.06	224.69
934.36	224.68
934.66	224.71
934.96	224.71
935.26	224.70
935.56	224.71
935.86	224.69
936.16	224.68
936.46	224.68
936.76	224.64
937.06	224.65
937.36	224.66
937.66	224.63
937.96	224.60
938.26	224.58
938.56	224.57
938.86	224.63
939.16	224.62
939.46	224.62
939.76	224.62
940.06	224.61
940.35	224.59
940.65	224.57
940.95	224.55
941.25	224.54
941.55	224.51
941.85	224.50
942.15	224.54
942.45	224.60
942.75	224.61
943.04	224.64
943.34	224.65
943.64	224.63
943.94	224.64
944.24	224.65
944.54	224.66
944.84	224.66
945.13	224.60
945.43	224.61
945.73	224.61
946.03	224.58
946.33	224.59
946.62	224.58
946.92	224.59
947.22	224.60
947.52	224.61
947.82	224.63
948.11	224.61
948.41	224.60
948.71	224.51
949.01	224.53
949.31	224.48
949.60	224.46
949.90	224.48
950.20	224.50
950.50	224.50
950.79	224.51
951.09	224.54
951.39	224.55
951.69	224.56
951.98	224.60
952.28	224.62
952.58	224.62
952.87	224.62
953.17	224.65
953.47	224.64
953.76	224.65
954.06	224.66
954.36	224.69
954.66	224.68
954.95	224.77
955.25	224.77
955.55	224.80
955.84	224.79
956.14	224.77
956.44	224.76
956.73	224.77
957.03	224.78
957.32	224.79
957.62	224.79
957.92	224.77
958.21	224.74
958.51	224.84
958.81	224.85
959.10	224.84
959.40	224.84
959.69	224.85
959.99	224.83
960.29	224.81
960.58	224.77
960.88	224.79
961.17	224.74
961.47	224.73
961.76	224.69
962.06	224.71
962.36	224.73
962.65	224.72
962.95	224.68
963.24	224.65
963.54	224.62
963.83	224.65
964.13	224.65
964.42	224.62
964.72	224.53
965.01	224.53
965.31	224.52
965.60	224.47
965.90	224.52
966.19	224.50
966.49	224.49
966.78	224.48
967.08	224.47
967.37	224.49
967.67	224.48
967.96	224.50
968.26	224.50
968.55	224.49
968.85	224.49
969.14	224.50
969.43	224.52
969.73	224.49
970.02	224.48
970.32	224.48
970.61	224.47
970.91	224.45
971.20	224.45
971.49	224.44
971.79	224.46
972.08	224.38
972.38	224.37
972.67	224.38
972.96	224.38
973.26	224.36
973.55	224.38
973.85	224.37
974.14	224.36
974.43	224.34
974.73	224.35
975.02	224.31
975.31	224.35
975.61	224.34
975.90	224.33
976.19	224.33
976.49	224.36
976.78	224.39
977.07	224.39
977.37	224.34
977.66	224.39
977.95	224.36
978.24	224.40
978.54	224.42
978.83	224.46
979.12	224.48
979.42	224.50
979.71	224.48
980.00	224.48
980.29	224.50
980.59	224.48
980.88	224.53
981.17	224.56
981.46	224.53
981.76	224.51
982.05	224.56
982.34	224.55
982.63	224.51
982.93	224.52
983.22	224.56
983.51	224.58
983.80	224.55
984.09	224.60
984.39	224.56
984.68	224.57
984.97	224.56
985.26	224.59
985.55	224.59
985.85	224.59
986.14	224.60
986.43	224.60
986.72	224.62
987.01	224.56
987.30	224.55
987.59	224.58
987.89	224.58
988.18	224.56
988.47	224.57
988.76	224.60
989.05	224.57
989.34	224.55
989.63	224.55
989.92	224.55
990.22	224.52
990.51	224.55
990.80	224.53
991.09	224.52
991.38	224.49
991.67	224.51
991.96	224.50
992.25	224.54
992.54	224.55
992.83	224.53
993.12	224.55
993.41	224.60
993.70	224.63
993.99	224.71
994.28	224.70
994.58	224.73
994.87	224.72
995.16	224.72
995.45	224.71
995.74	224.68
996.03	224.68
996.32	224.70
996.61	224.70
996.90	224.68
997.19	224.66
997.48	224.66
997.77	224.61
998.06	224.59
998.34	224.57
998.63	224.54
998.92	224.58
999.21	224.58
999.50	224.55
999.79	224.51
1000.08	224.47
1000.37	224.46
1000.66	224.42
1000.95	224.42
1001.24	224.41
1001.53	224.39
1001.82	224.40
1002.11	224.40
1002.40	224.39
1002.68	224.42
1002.97	224.50
1003.26	224.53
1003.55	224.54
1003.84	224.54
1004.13	224.59
1004.42	224.54
1004.71	224.53
1004.99	224.50
1005.28	224.52
1005.57	224.50
1005.86	224.47
1006.15	224.47
1006.44	224.46
1006.72	224.48
1007.01	224.44
1007.30	224.48
1007.59	224.49
1007.88	224.50
1008.17	224.48
1008.45	224.47
1008.74	224.42
1009.03	224.38
1009.32	224.33
1009.60	224.31
1009.89	224.30
1010.18	224.24
1010.47	224.27
1010.76	224.30
1011.04	224.30
1011.33	224.28
1011.62	224.32
1011.91	224.35
1012.19	224.35
1012.48	224.34
1012.77	224.33
1013.05	224.39
1013.34	224.42
1013.63	224.42
1013.92	224.44
1014.20	224.49
1014.49	224.50
1014.78	224.51
1015.06	224.49
1015.35	224.52
1015.64	224.56
1015.92	224.57
1016.21	224.58
1016.50	224.57
1016.78	224.60
1017.07	224.58
1017.36	224.58
1017.64	224.53
1017.93	224.54
1018.22	224.51
1018.50	224.53
1018.79	224.53
1019.08	224.51
1019.36	224.51
1019.65	224.49
1019.93	224.50
1020.22	224.49
1020.51	224.52
1020.79	224.53
1021.08	223.83
1021.36	224.42
1021.65	224.57
1021.94	224.73
1022.22	224.91
1022.51	224.17
1022.79	224.93
1023.08	224.30
1023.36	225.12
1023.65	224.79
>>>>>End Processed Spectral Data<<<<<
