SpectraSuite Data File
++++++++++++++++++++++++++++++++++++
Date: Fri Feb 01 15:47:22 EST 2013
User: group
Dark Spectrum Present: No
Reference Spectrum Present: No
Number of Sampled Component Spectra: 1
Spectrometers: USB2E7196
Integration Time (usec): 35000 (USB2E7196)
Spectra Averaged: 100 (USB2E7196)
Boxcar Smoothing: 10 (USB2E7196)
Correct for Electrical Dark: No (USB2E7196)
Strobe/Lamp Enabled: No (USB2E7196)
Correct for Detector Non-linearity: No (USB2E7196)
Correct for Stray Light: No (USB2E7196)
Number of Pixels in Processed Spectrum: 2048
>>>>>Begin Processed Spectral Data<<<<<
339.09	0.00
339.48	214.73
339.86	216.15
340.24	217.48
340.63	219.05
341.01	221.87
341.39	221.90
341.78	223.18
342.16	224.75
342.54	225.09
342.93	213.36
343.31	224.13
343.69	224.66
344.07	225.15
344.46	225.60
344.84	225.99
345.22	226.23
345.60	226.47
345.99	226.69
346.37	226.79
346.75	226.90
347.13	226.93
347.52	226.98
347.90	227.09
348.28	227.12
348.66	227.15
349.05	227.17
349.43	227.19
349.81	227.25
350.19	227.24
350.57	227.30
350.96	227.37
351.34	227.49
351.72	227.60
352.10	227.70
352.48	227.79
352.87	227.86
353.25	227.94
353.63	228.00
354.01	228.05
354.39	228.12
354.77	228.23
355.15	228.33
355.54	228.38
355.92	228.42
356.30	228.50
356.68	228.62
357.06	228.73
357.44	228.80
357.82	228.85
358.20	228.94
358.58	229.01
358.97	229.06
359.35	229.09
359.73	229.17
360.11	229.19
360.49	229.23
360.87	229.26
361.25	229.31
361.63	229.38
362.01	229.41
362.39	229.43
362.77	229.41
363.15	229.46
363.53	229.46
363.91	229.43
364.29	229.41
364.67	229.34
365.05	229.29
365.43	229.26
365.81	229.31
366.19	229.37
366.57	229.40
366.95	229.39
367.33	229.36
367.71	229.33
368.09	229.33
368.47	229.29
368.85	229.25
369.23	229.21
369.61	229.14
369.99	229.13
370.37	229.11
370.75	229.13
371.13	229.04
371.51	229.01
371.89	229.00
372.27	228.95
372.65	228.88
373.03	228.84
373.41	228.82
373.78	228.68
374.16	228.54
374.54	228.44
374.92	228.38
375.30	228.32
375.68	228.25
376.06	228.20
376.44	228.11
376.82	228.07
377.19	227.99
377.57	227.92
377.95	227.82
378.33	227.75
378.71	227.60
379.09	227.54
379.47	227.46
379.84	227.38
380.22	227.31
380.60	227.23
380.98	227.15
381.36	227.06
381.73	226.99
382.11	226.95
382.49	226.89
382.87	226.79
383.25	226.71
383.62	226.74
384.00	226.65
384.38	226.61
384.76	226.55
385.13	226.55
385.51	226.49
385.89	226.45
386.27	226.40
386.64	226.42
387.02	226.38
387.40	226.36
387.78	226.32
388.15	226.27
388.53	226.24
388.91	226.22
389.29	226.24
389.66	226.25
390.04	226.24
390.42	226.25
390.79	226.23
391.17	226.25
391.55	226.11
391.92	226.11
392.30	226.13
392.68	226.14
393.05	226.12
393.43	226.15
393.81	226.15
394.18	226.14
394.56	226.14
394.94	226.16
395.31	226.17
395.69	226.25
396.06	226.31
396.44	226.34
396.82	226.35
397.19	226.41
397.57	226.46
397.95	226.47
398.32	226.48
398.70	226.57
399.07	226.64
399.45	226.73
399.82	226.79
400.20	226.86
400.58	226.93
400.95	226.98
401.33	227.07
401.70	227.22
402.08	227.33
402.45	227.45
402.83	227.56
403.20	227.70
403.58	227.79
403.95	227.92
404.33	228.07
404.71	228.22
405.08	228.41
405.46	228.52
405.83	228.66
406.21	228.81
406.58	228.98
406.96	229.09
407.33	229.25
407.70	229.47
408.08	229.73
408.45	229.93
408.83	230.17
409.20	230.39
409.58	230.58
409.95	230.83
410.33	231.08
410.70	231.34
411.08	231.59
411.45	231.91
411.82	232.19
412.20	232.54
412.57	232.95
412.95	233.22
413.32	233.66
413.69	234.11
414.07	234.53
414.44	234.99
414.82	235.53
415.19	236.10
415.56	236.63
415.94	237.18
416.31	237.79
416.68	238.40
417.06	239.11
417.43	239.78
417.81	240.56
418.18	241.31
418.55	242.19
418.93	243.08
419.30	243.96
419.67	244.91
420.04	245.88
420.42	246.88
420.79	248.05
421.16	249.17
421.54	250.34
421.91	251.58
422.28	252.83
422.66	254.15
423.03	255.41
423.40	256.75
423.77	258.16
424.15	259.63
424.52	261.12
424.89	262.72
425.26	264.25
425.64	265.69
426.01	267.28
426.38	268.91
426.75	270.56
427.13	272.29
427.50	274.09
427.87	275.95
428.24	277.84
428.61	279.59
428.99	281.54
429.36	283.65
429.73	285.70
430.10	287.70
430.47	289.73
430.85	291.87
431.22	294.11
431.59	296.47
431.96	298.67
432.33	301.14
432.70	303.52
433.08	306.34
433.45	309.00
433.82	311.61
434.19	314.50
434.56	317.37
434.93	320.03
435.30	322.67
435.68	325.59
436.05	328.36
436.42	331.20
436.79	333.74
437.16	336.44
437.53	339.29
437.90	342.17
438.27	344.95
438.64	347.80
439.01	350.37
439.38	352.62
439.75	354.87
440.13	357.37
440.50	359.68
440.87	361.56
441.24	363.50
441.61	365.65
441.98	367.14
442.35	368.90
442.72	370.78
443.09	372.58
443.46	373.58
443.83	374.24
444.20	374.73
444.57	375.51
444.94	375.78
445.31	376.08
445.68	376.41
446.05	376.49
446.42	376.13
446.79	375.74
447.16	375.30
447.53	374.94
447.90	373.78
448.27	372.63
448.64	371.02
449.01	369.91
449.37	367.95
449.74	366.06
450.11	363.86
450.48	361.39
450.85	358.86
451.22	356.71
451.59	354.68
451.96	352.72
452.33	350.17
452.70	347.85
453.07	345.06
453.43	342.15
453.80	339.36
454.17	336.66
454.54	334.08
454.91	331.35
455.28	328.64
455.65	326.14
456.02	323.70
456.38	321.59
456.75	318.91
457.12	316.63
457.49	314.42
457.86	312.23
458.23	310.35
458.59	308.30
458.96	306.19
459.33	304.31
459.70	302.44
460.07	300.92
460.43	299.18
460.80	297.55
461.17	296.10
461.54	294.63
461.91	293.17
462.27	291.76
462.64	290.54
463.01	289.23
463.38	287.95
463.74	286.61
464.11	285.35
464.48	284.31
464.85	283.22
465.21	282.36
465.58	281.41
465.95	280.29
466.32	279.40
466.68	278.52
467.05	277.63
467.42	276.77
467.78	275.83
468.15	274.94
468.52	274.30
468.88	273.43
469.25	272.64
469.62	272.03
469.98	271.38
470.35	270.72
470.72	270.10
471.08	269.45
471.45	268.90
471.82	268.44
472.18	267.85
472.55	267.43
472.92	266.90
473.28	266.43
473.65	266.02
474.02	265.54
474.38	265.16
474.75	264.81
475.11	264.44
475.48	264.17
475.85	263.93
476.21	263.63
476.58	263.46
476.94	263.28
477.31	263.14
477.67	262.94
478.04	262.81
478.41	262.78
478.77	262.84
479.14	262.77
479.50	262.72
479.87	262.78
480.23	262.86
480.60	262.94
480.96	263.04
481.33	263.25
481.69	263.48
482.06	263.69
482.42	263.91
482.79	264.15
483.15	264.50
483.52	264.89
483.88	265.27
484.25	265.66
484.61	266.11
484.98	266.55
485.34	267.13
485.71	267.73
486.07	268.31
486.44	268.86
486.80	269.58
487.17	270.35
487.53	271.18
487.90	272.00
488.26	272.91
488.62	273.90
488.99	274.83
489.35	275.86
489.72	276.96
490.08	278.15
490.44	279.39
490.81	280.76
491.17	282.12
491.54	283.59
491.90	285.16
492.26	286.84
492.63	288.57
492.99	290.36
493.36	292.27
493.72	294.33
494.08	296.46
494.45	298.70
494.81	301.09
495.17	303.48
495.54	306.08
495.90	308.77
496.26	311.58
496.63	314.56
496.99	317.66
497.35	320.96
497.72	324.35
498.08	327.86
498.44	331.51
498.80	335.46
499.17	339.57
499.53	343.77
499.89	348.16
500.26	352.66
500.62	357.33
500.98	362.29
501.34	367.38
501.71	372.68
502.07	378.17
502.43	383.81
502.79	389.69
503.16	395.74
503.52	402.09
503.88	408.50
504.24	415.15
504.60	422.07
504.97	429.13
505.33	436.49
505.69	444.26
506.05	452.00
506.41	459.88
506.78	468.00
507.14	476.44
507.50	485.12
507.86	494.16
508.22	503.38
508.59	512.58
508.95	522.18
509.31	532.03
509.67	542.12
510.03	552.37
510.39	562.89
510.75	573.74
511.12	584.63
511.48	595.91
511.84	607.37
512.20	618.87
512.56	630.90
512.92	643.03
513.28	655.32
513.64	667.84
514.00	680.51
514.37	693.44
514.73	706.52
515.09	719.52
515.45	732.83
515.81	746.37
516.17	760.35
516.53	774.47
516.89	788.66
517.25	802.79
517.61	817.17
517.97	831.69
518.33	846.08
518.69	860.83
519.05	875.84
519.41	891.06
519.77	906.61
520.13	922.08
520.49	937.47
520.85	952.93
521.21	968.66
521.57	984.93
521.93	1000.72
522.29	1017.10
522.65	1033.41
523.01	1049.59
523.37	1065.69
523.73	1081.93
524.09	1098.02
524.45	1114.35
524.81	1131.05
525.17	1147.92
525.53	1164.77
525.89	1181.65
526.25	1198.40
526.61	1214.72
526.97	1231.45
527.33	1247.94
527.68	1264.49
528.04	1281.05
528.40	1297.60
528.76	1314.70
529.12	1331.30
529.48	1348.12
529.84	1364.09
530.20	1380.79
530.56	1397.87
530.91	1415.24
531.27	1431.87
531.63	1448.41
531.99	1464.92
532.35	1480.84
532.71	1496.67
533.07	1512.97
533.42	1528.84
533.78	1544.98
534.14	1561.41
534.50	1576.79
534.86	1592.76
535.21	1607.85
535.57	1623.69
535.93	1639.18
536.29	1653.92
536.65	1668.98
537.00	1683.79
537.36	1699.10
537.72	1713.58
538.08	1727.93
538.44	1741.58
538.79	1755.56
539.15	1769.15
539.51	1782.88
539.87	1797.24
540.22	1811.04
540.58	1824.86
540.94	1838.26
541.29	1851.09
541.65	1863.59
542.01	1876.66
542.37	1888.80
542.72	1901.23
543.08	1912.92
543.44	1925.29
543.79	1936.52
544.15	1947.50
544.51	1959.16
544.87	1970.07
545.22	1980.83
545.58	1991.03
545.94	2000.90
546.29	2010.78
546.65	2020.67
547.01	2029.94
547.36	2038.70
547.72	2047.15
548.07	2054.76
548.43	2063.00
548.79	2071.11
549.14	2078.58
549.50	2086.01
549.86	2093.74
550.21	2101.12
550.57	2108.29
550.92	2114.95
551.28	2121.98
551.64	2128.94
551.99	2135.35
552.35	2141.50
552.70	2147.67
553.06	2153.77
553.41	2160.21
553.77	2166.22
554.13	2172.36
554.48	2178.49
554.84	2183.87
555.19	2189.17
555.55	2194.44
555.90	2198.73
556.26	2203.52
556.61	2208.42
556.97	2212.56
557.32	2216.77
557.68	2220.96
558.03	2225.44
558.39	2229.19
558.74	2233.79
559.10	2237.66
559.45	2241.31
559.81	2245.76
560.16	2249.70
560.52	2252.88
560.87	2256.19
561.23	2258.90
561.58	2261.84
561.94	2264.38
562.29	2266.73
562.64	2269.33
563.00	2271.86
563.35	2275.48
563.71	2278.64
564.06	2281.84
564.42	2284.62
564.77	2287.07
565.12	2289.16
565.48	2290.94
565.83	2292.69
566.19	2293.94
566.54	2295.00
566.89	2296.11
567.25	2296.60
567.60	2297.86
567.96	2299.40
568.31	2300.24
568.66	2301.25
569.02	2301.79
569.37	2302.09
569.72	2303.06
570.08	2303.15
570.43	2303.28
570.78	2302.69
571.14	2301.21
571.49	2299.84
571.84	2299.71
572.20	2298.45
572.55	2297.48
572.90	2295.95
573.26	2294.50
573.61	2292.86
573.96	2291.06
574.31	2288.10
574.67	2285.04
575.02	2281.37
575.37	2278.05
575.72	2274.28
576.08	2270.97
576.43	2267.68
576.78	2263.85
577.13	2260.61
577.49	2257.62
577.84	2254.03
578.19	2250.29
578.54	2246.67
578.90	2242.38
579.25	2236.79
579.60	2231.81
579.95	2226.76
580.30	2221.81
580.66	2216.69
581.01	2211.66
581.36	2206.77
581.71	2202.53
582.06	2198.18
582.42	2193.60
582.77	2188.32
583.12	2183.77
583.47	2178.90
583.82	2173.83
584.17	2168.65
584.53	2163.07
584.88	2157.40
585.23	2151.63
585.58	2146.15
585.93	2140.67
586.28	2136.01
586.63	2130.98
586.98	2126.03
587.34	2121.43
587.69	2116.55
588.04	2111.29
588.39	2105.74
588.74	2099.21
589.09	2093.07
589.44	2086.16
589.79	2080.24
590.14	2074.72
590.49	2067.93
590.84	2061.70
591.19	2055.63
591.54	2049.12
591.89	2041.78
592.25	2034.86
592.60	2027.63
592.95	2020.10
593.30	2012.72
593.65	2005.02
594.00	1997.87
594.35	1990.59
594.70	1982.55
595.05	1975.12
595.40	1967.80
595.75	1960.31
596.10	1954.08
596.45	1947.39
596.80	1941.14
597.15	1934.41
597.50	1927.16
597.85	1920.93
598.19	1914.10
598.54	1906.92
598.89	1900.35
599.24	1894.39
599.59	1887.82
599.94	1881.70
600.29	1875.30
600.64	1868.67
600.99	1861.26
601.34	1854.55
601.69	1847.51
602.04	1840.57
602.39	1833.20
602.74	1826.32
603.08	1819.47
603.43	1812.63
603.78	1805.25
604.13	1798.01
604.48	1790.69
604.83	1783.93
605.18	1776.91
605.53	1768.93
605.87	1761.02
606.22	1753.82
606.57	1746.03
606.92	1738.74
607.27	1731.42
607.62	1724.33
607.96	1717.08
608.31	1710.43
608.66	1702.64
609.01	1695.12
609.36	1687.62
609.70	1679.72
610.05	1671.65
610.40	1663.94
610.75	1655.64
611.10	1647.97
611.44	1639.63
611.79	1631.70
612.14	1622.96
612.49	1613.77
612.83	1605.45
613.18	1597.17
613.53	1588.99
613.88	1580.27
614.22	1571.90
614.57	1563.31
614.92	1555.36
615.27	1547.70
615.61	1539.32
615.96	1531.46
616.31	1523.81
616.65	1516.36
617.00	1508.78
617.35	1501.29
617.70	1493.05
618.04	1484.55
618.39	1476.37
618.74	1468.83
619.08	1460.50
619.43	1452.91
619.78	1446.10
620.12	1438.88
620.47	1431.42
620.82	1423.28
621.16	1415.94
621.51	1408.41
621.85	1400.79
622.20	1392.25
622.55	1383.86
622.89	1376.04
623.24	1368.32
623.59	1360.95
623.93	1353.46
624.28	1346.27
624.62	1338.53
624.97	1331.29
625.32	1324.55
625.66	1317.52
626.01	1310.32
626.35	1302.90
626.70	1295.13
627.04	1287.27
627.39	1279.60
627.73	1272.19
628.08	1265.29
628.43	1257.95
628.77	1250.48
629.12	1242.98
629.46	1235.84
629.81	1228.49
630.15	1221.28
630.50	1213.89
630.84	1205.70
631.19	1197.70
631.53	1190.12
631.88	1182.66
632.22	1174.95
632.57	1167.62
632.91	1160.08
633.26	1152.63
633.60	1145.29
633.95	1138.26
634.29	1131.29
634.64	1124.61
634.98	1117.27
635.32	1110.06
635.67	1103.55
636.01	1096.91
636.36	1090.08
636.70	1083.52
637.05	1076.96
637.39	1070.44
637.73	1063.84
638.08	1057.96
638.42	1052.04
638.77	1045.62
639.11	1038.93
639.45	1032.64
639.80	1026.02
640.14	1019.55
640.49	1012.98
640.83	1006.64
641.17	1000.37
641.52	994.00
641.86	987.48
642.20	981.51
642.55	975.36
642.89	968.77
643.23	962.25
643.58	956.46
643.92	950.31
644.26	944.21
644.61	938.30
644.95	932.29
645.29	925.65
645.64	918.88
645.98	912.53
646.32	906.81
646.66	900.77
647.01	894.94
647.35	889.24
647.69	883.48
648.04	877.96
648.38	872.11
648.72	866.11
649.06	860.08
649.41	854.29
649.75	848.24
650.09	842.36
650.43	836.55
650.78	830.41
651.12	824.42
651.46	818.69
651.80	812.85
652.14	807.54
652.49	802.27
652.83	797.13
653.17	791.42
653.51	785.65
653.85	780.19
654.20	774.54
654.54	768.60
654.88	762.87
655.22	756.96
655.56	751.35
655.90	745.89
656.25	740.61
656.59	735.24
656.93	730.13
657.27	724.91
657.61	719.45
657.95	714.40
658.29	709.36
658.64	704.15
658.98	698.93
659.32	693.40
659.66	688.20
660.00	682.83
660.34	677.90
660.68	672.96
661.02	667.97
661.36	663.28
661.70	658.77
662.05	654.37
662.39	650.05
662.73	645.60
663.07	641.23
663.41	636.84
663.75	632.36
664.09	627.81
664.43	623.50
664.77	619.45
665.11	615.13
665.45	611.00
665.79	606.93
666.13	602.75
666.47	598.70
666.81	594.45
667.15	590.32
667.49	586.47
667.83	582.72
668.17	578.80
668.51	574.74
668.85	570.69
669.19	566.82
669.53	562.97
669.87	559.03
670.21	555.33
670.55	551.63
670.89	548.14
671.23	544.66
671.57	541.04
671.91	537.48
672.25	534.04
672.58	530.54
672.92	527.12
673.26	523.88
673.60	520.73
673.94	517.64
674.28	514.78
674.62	511.83
674.96	508.68
675.30	505.80
675.64	502.88
675.97	500.11
676.31	497.30
676.65	494.38
676.99	491.65
677.33	488.78
677.67	485.99
678.01	482.95
678.34	479.98
678.68	477.25
679.02	474.47
679.36	471.74
679.70	468.97
680.04	466.19
680.37	463.35
680.71	460.58
681.05	457.99
681.39	455.26
681.73	452.56
682.06	450.09
682.40	447.51
682.74	444.97
683.08	442.43
683.42	439.86
683.75	437.34
684.09	434.86
684.43	432.40
684.77	429.93
685.10	427.64
685.44	425.40
685.78	423.05
686.12	420.80
686.45	418.50
686.79	416.23
687.13	414.02
687.46	411.87
687.80	409.69
688.14	407.44
688.48	405.33
688.81	403.09
689.15	400.91
689.49	398.79
689.82	396.73
690.16	394.70
690.50	392.74
690.83	390.79
691.17	388.80
691.51	386.88
691.84	385.02
692.18	383.08
692.52	381.07
692.85	379.16
693.19	377.25
693.52	375.42
693.86	373.60
694.20	371.84
694.53	370.08
694.87	368.24
695.21	366.50
695.54	364.75
695.88	363.03
696.21	361.31
696.55	359.60
696.88	357.88
697.22	356.18
697.56	354.54
697.89	352.87
698.23	351.27
698.56	349.70
698.90	348.11
699.23	346.50
699.57	344.99
699.90	343.47
700.24	341.97
700.58	340.37
700.91	338.85
701.25	337.40
701.58	335.98
701.92	334.65
702.25	333.23
702.59	331.84
702.92	330.59
703.26	329.30
703.59	328.06
703.93	326.87
704.26	325.63
704.60	324.31
704.93	323.07
705.26	321.84
705.60	320.64
705.93	319.49
706.27	318.47
706.60	317.43
706.94	316.34
707.27	315.15
707.61	314.15
707.94	313.16
708.27	312.07
708.61	311.02
708.94	310.02
709.28	309.06
709.61	308.12
709.94	307.15
710.28	306.11
710.61	305.09
710.95	304.03
711.28	303.14
711.61	302.21
711.95	301.28
712.28	300.29
712.61	299.31
712.95	298.38
713.28	297.46
713.61	296.56
713.95	295.69
714.28	294.85
714.61	294.01
714.95	293.17
715.28	292.34
715.61	291.46
715.95	290.56
716.28	289.72
716.61	288.85
716.95	288.01
717.28	287.30
717.61	286.54
717.94	285.77
718.28	284.94
718.61	284.19
718.94	283.49
719.27	282.85
719.61	282.20
719.94	281.54
720.27	280.81
720.60	280.12
720.94	279.44
721.27	278.85
721.60	278.23
721.93	277.62
722.27	277.08
722.60	276.52
722.93	275.95
723.26	275.38
723.59	274.84
723.93	274.31
724.26	273.70
724.59	273.16
724.92	272.65
725.25	272.16
725.59	271.65
725.92	271.13
726.25	270.62
726.58	270.10
726.91	269.60
727.24	269.15
727.57	268.65
727.91	268.13
728.24	267.64
728.57	267.16
728.90	266.67
729.23	266.15
729.56	265.75
729.89	265.30
730.22	264.84
730.55	264.39
730.89	263.93
731.22	263.52
731.55	263.06
731.88	262.62
732.21	262.20
732.54	261.75
732.87	261.33
733.20	260.93
733.53	260.55
733.86	260.17
734.19	259.75
734.52	259.36
734.85	259.05
735.18	258.62
735.51	258.27
735.84	257.91
736.17	257.58
736.50	257.15
736.83	256.93
737.16	256.61
737.49	256.26
737.82	255.92
738.15	255.62
738.48	255.29
738.81	255.00
739.14	254.68
739.47	254.39
739.80	254.10
740.13	253.81
740.46	253.52
740.79	253.18
741.12	252.86
741.45	252.57
741.78	252.25
742.11	252.00
742.44	251.64
742.77	251.41
743.10	251.10
743.43	250.83
743.75	250.45
744.08	250.31
744.41	250.05
744.74	249.77
745.07	249.45
745.40	249.23
745.73	248.99
746.06	248.71
746.39	248.42
746.71	248.12
747.04	247.83
747.37	247.56
747.70	247.33
748.03	247.10
748.36	246.87
748.68	246.64
749.01	246.35
749.34	246.14
749.67	245.84
750.00	245.63
750.33	245.45
750.65	245.22
750.98	244.83
751.31	244.60
751.64	244.41
751.97	244.26
752.29	244.02
752.62	243.74
752.95	243.55
753.28	243.34
753.60	243.17
753.93	243.00
754.26	242.80
754.59	242.56
754.91	242.36
755.24	242.16
755.57	241.95
755.90	241.78
756.22	241.59
756.55	241.42
756.88	241.22
757.20	240.98
757.53	240.77
757.86	240.61
758.19	240.48
758.51	240.28
758.84	240.04
759.17	239.86
759.49	239.73
759.82	239.60
760.15	239.45
760.47	239.29
760.80	239.12
761.13	238.99
761.45	238.82
761.78	238.68
762.11	238.54
762.43	238.39
762.76	238.27
763.08	238.12
763.41	237.95
763.74	237.78
764.06	237.64
764.39	237.49
764.71	237.38
765.04	237.23
765.37	237.09
765.69	236.98
766.02	236.84
766.34	236.68
766.67	236.53
767.00	236.44
767.32	236.34
767.65	236.29
767.97	236.14
768.30	236.03
768.62	235.92
768.95	235.79
769.27	235.68
769.60	235.55
769.92	235.47
770.25	235.38
770.57	235.30
770.90	235.21
771.22	235.11
771.55	234.99
771.87	234.90
772.20	234.81
772.52	234.82
772.85	234.83
773.17	234.75
773.50	234.64
773.82	234.56
774.15	234.47
774.47	234.32
774.80	234.24
775.12	234.16
775.45	234.07
775.77	234.01
776.09	233.95
776.42	233.88
776.74	233.78
777.07	233.68
777.39	233.59
777.72	233.50
778.04	233.47
778.36	233.43
778.69	233.36
779.01	233.31
779.33	233.12
779.66	232.98
779.98	232.89
780.31	232.82
780.63	232.80
780.95	232.71
781.28	232.65
781.60	232.60
781.92	232.54
782.25	232.49
782.57	232.40
782.89	232.34
783.22	232.30
783.54	232.25
783.86	232.20
784.19	232.15
784.51	232.16
784.83	232.08
785.16	231.99
785.48	231.93
785.80	231.88
786.12	231.88
786.45	231.82
786.77	231.80
787.09	231.76
787.42	231.64
787.74	231.61
788.06	231.59
788.38	231.53
788.71	231.50
789.03	231.43
789.35	231.41
789.67	231.38
789.99	231.34
790.32	231.28
790.64	231.27
790.96	231.31
791.28	231.22
791.61	231.16
791.93	231.12
792.25	231.07
792.57	231.09
792.89	230.99
793.21	230.97
793.54	230.91
793.86	230.87
794.18	230.83
794.50	230.76
794.82	230.70
795.14	230.65
795.47	230.62
795.79	230.61
796.11	230.55
796.43	230.48
796.75	230.44
797.07	230.41
797.39	230.36
797.71	230.25
798.04	230.22
798.36	230.21
798.68	230.18
799.00	230.14
799.32	230.07
799.64	230.09
799.96	230.06
800.28	230.05
800.60	230.04
800.92	230.03
801.24	230.00
801.56	229.98
801.89	229.97
802.21	229.94
802.53	229.89
802.85	229.89
803.17	229.92
803.49	229.86
803.81	229.84
804.13	229.84
804.45	229.84
804.77	229.85
805.09	229.82
805.41	229.78
805.73	229.72
806.05	229.66
806.37	229.60
806.69	229.54
807.01	229.51
807.33	229.45
807.65	229.40
807.97	229.41
808.28	229.34
808.60	229.29
808.92	229.26
809.24	229.29
809.56	229.24
809.88	229.18
810.20	229.16
810.52	229.14
810.84	229.08
811.16	229.02
811.48	228.97
811.80	228.95
812.12	228.95
812.43	228.96
812.75	228.98
813.07	228.95
813.39	228.95
813.71	228.92
814.03	228.87
814.35	228.84
814.67	228.79
814.98	228.80
815.30	228.79
815.62	228.72
815.94	228.66
816.26	228.67
816.58	228.62
816.89	228.63
817.21	228.60
817.53	228.59
817.85	228.59
818.17	228.55
818.48	228.49
818.80	228.48
819.12	228.45
819.44	228.40
819.76	228.36
820.07	228.35
820.39	228.34
820.71	228.40
821.03	228.37
821.34	228.35
821.66	228.36
821.98	228.36
822.30	228.39
822.61	228.41
822.93	228.37
823.25	228.37
823.57	228.33
823.88	228.33
824.20	228.32
824.52	228.31
824.83	228.32
825.15	228.34
825.47	228.33
825.79	228.35
826.10	228.33
826.42	228.34
826.74	228.30
827.05	228.28
827.37	228.25
827.69	228.26
828.00	228.25
828.32	228.24
828.64	228.23
828.95	228.26
829.27	228.22
829.58	228.21
829.90	228.19
830.22	228.21
830.53	228.14
830.85	228.14
831.17	228.09
831.48	228.05
831.80	228.05
832.11	228.01
832.43	227.97
832.75	227.96
833.06	228.01
833.38	228.00
833.69	228.00
834.01	227.97
834.32	227.95
834.64	227.92
834.96	227.91
835.27	227.88
835.59	227.84
835.90	227.84
836.22	227.83
836.53	227.82
836.85	227.78
837.16	227.88
837.48	227.83
837.79	227.90
838.11	227.93
838.42	227.92
838.74	227.91
839.05	227.93
839.37	227.93
839.68	227.87
840.00	227.86
840.31	227.86
840.63	227.86
840.94	227.85
841.26	227.83
841.57	227.80
841.88	227.80
842.20	227.78
842.51	227.75
842.83	227.76
843.14	227.84
843.46	227.88
843.77	227.83
844.08	227.85
844.40	227.78
844.71	227.76
845.03	227.74
845.34	227.74
845.65	227.71
845.97	227.70
846.28	227.65
846.60	227.66
846.91	227.63
847.22	227.63
847.54	227.64
847.85	227.66
848.16	227.66
848.48	227.63
848.79	227.68
849.10	227.67
849.42	227.64
849.73	227.56
850.04	227.53
850.36	227.49
850.67	227.51
850.98	227.53
851.30	227.54
851.61	227.53
851.92	227.52
852.23	227.55
852.55	227.58
852.86	227.62
853.17	227.62
853.49	227.65
853.80	227.68
854.11	227.68
854.42	227.68
854.74	227.70
855.05	227.73
855.36	227.70
855.67	227.68
855.99	227.68
856.30	227.81
856.61	227.82
856.92	227.81
857.23	227.78
857.55	227.79
857.86	227.78
858.17	227.80
858.48	227.79
858.79	227.78
859.11	227.74
859.42	227.72
859.73	227.71
860.04	227.69
860.35	227.67
860.66	227.63
860.98	227.63
861.29	227.62
861.60	227.59
861.91	227.59
862.22	227.59
862.53	227.59
862.84	227.44
863.16	227.45
863.47	227.45
863.78	227.43
864.09	227.43
864.40	227.43
864.71	227.43
865.02	227.41
865.33	227.41
865.64	227.40
865.95	227.40
866.27	227.46
866.58	227.45
866.89	227.44
867.20	227.45
867.51	227.43
867.82	227.43
868.13	227.48
868.44	227.47
868.75	227.50
869.06	227.51
869.37	227.52
869.68	227.47
869.99	227.49
870.30	227.52
870.61	227.50
870.92	227.43
871.23	227.40
871.54	227.45
871.85	227.46
872.16	227.46
872.47	227.45
872.78	227.40
873.09	227.40
873.40	227.42
873.71	227.44
874.02	227.42
874.33	227.42
874.64	227.36
874.95	227.39
875.26	227.38
875.56	227.34
875.87	227.36
876.18	227.37
876.49	227.45
876.80	227.44
877.11	227.45
877.42	227.50
877.73	227.48
878.04	227.45
878.35	227.43
878.66	227.44
878.96	227.44
879.27	227.41
879.58	227.45
879.89	227.40
880.20	227.42
880.51	227.43
880.82	227.43
881.12	227.44
881.43	227.40
881.74	227.40
882.05	227.38
882.36	227.37
882.67	227.37
882.97	227.27
883.28	227.25
883.59	227.24
883.90	227.24
884.21	227.26
884.51	227.23
884.82	227.23
885.13	227.27
885.44	227.23
885.74	227.26
886.05	227.23
886.36	227.26
886.67	227.20
886.98	227.25
887.28	227.24
887.59	227.22
887.90	227.21
888.20	227.18
888.51	227.22
888.82	227.21
889.13	227.21
889.43	227.26
889.74	227.23
890.05	227.24
890.35	227.22
890.66	227.18
890.97	227.19
891.28	227.17
891.58	227.11
891.89	227.11
892.20	227.06
892.50	227.03
892.81	226.98
893.12	226.97
893.42	226.92
893.73	226.88
894.04	226.90
894.34	226.91
894.65	226.92
894.95	226.89
895.26	226.89
895.57	226.91
895.87	226.83
896.18	226.86
896.48	226.83
896.79	226.80
897.10	226.81
897.40	226.80
897.71	226.77
898.01	226.75
898.32	226.76
898.63	226.78
898.93	226.80
899.24	226.82
899.54	226.83
899.85	226.82
900.15	226.84
900.46	226.82
900.76	226.82
901.07	226.81
901.38	226.83
901.68	226.81
901.99	226.79
902.29	226.77
902.60	226.76
902.90	226.76
903.21	226.79
903.51	226.78
903.82	226.81
904.12	226.86
904.43	226.86
904.73	226.90
905.03	226.88
905.34	226.95
905.64	226.95
905.95	226.97
906.25	226.97
906.56	226.98
906.86	226.96
907.17	226.94
907.47	226.95
907.77	226.94
908.08	226.94
908.38	226.94
908.69	226.98
908.99	227.01
909.30	227.01
909.60	227.02
909.90	227.03
910.21	227.03
910.51	227.01
910.81	227.02
911.12	227.02
911.42	227.03
911.73	226.96
912.03	226.96
912.33	226.96
912.64	226.97
912.94	226.95
913.24	226.93
913.55	226.95
913.85	226.95
914.15	226.98
914.46	227.01
914.76	227.02
915.06	227.05
915.37	227.03
915.67	227.09
915.97	227.09
916.27	227.09
916.58	227.09
916.88	227.11
917.18	227.13
917.49	227.20
917.79	227.22
918.09	227.22
918.39	227.26
918.70	227.25
919.00	227.23
919.30	227.29
919.60	227.31
919.91	227.30
920.21	227.33
920.51	227.31
920.81	227.29
921.12	227.26
921.42	227.24
921.72	227.24
922.02	227.18
922.32	227.19
922.63	227.20
922.93	227.25
923.23	227.23
923.53	227.21
923.83	227.14
924.13	227.13
924.44	227.14
924.74	227.12
925.04	227.16
925.34	227.15
925.64	227.10
925.94	227.10
926.24	227.13
926.55	227.11
926.85	227.10
927.15	227.10
927.45	227.10
927.75	227.07
928.05	227.07
928.35	227.07
928.65	227.07
928.95	227.08
929.26	227.01
929.56	227.05
929.86	227.05
930.16	227.01
930.46	227.01
930.76	226.97
931.06	226.94
931.36	226.87
931.66	226.90
931.96	226.91
932.26	226.92
932.56	226.86
932.86	226.86
933.16	226.84
933.46	226.84
933.76	226.83
934.06	226.86
934.36	226.91
934.66	226.92
934.96	226.91
935.26	226.88
935.56	226.93
935.86	226.86
936.16	226.87
936.46	226.86
936.76	226.85
937.06	226.85
937.36	226.84
937.66	226.88
937.96	226.87
938.26	226.84
938.56	226.82
938.86	226.84
939.16	226.82
939.46	226.83
939.76	226.81
940.06	226.80
940.35	226.77
940.65	226.70
940.95	226.72
941.25	226.71
941.55	226.71
941.85	226.67
942.15	226.72
942.45	226.71
942.75	226.73
943.04	226.74
943.34	226.75
943.64	226.75
943.94	226.74
944.24	226.74
944.54	226.77
944.84	226.78
945.13	226.80
945.43	226.85
945.73	226.88
946.03	226.92
946.33	226.94
946.62	226.96
946.92	226.96
947.22	226.96
947.52	226.95
947.82	226.96
948.11	226.99
948.41	226.96
948.71	226.98
949.01	226.98
949.31	226.99
949.60	227.01
949.90	227.04
950.20	227.06
950.50	227.07
950.79	227.02
951.09	227.02
951.39	227.01
951.69	226.98
951.98	226.97
952.28	226.98
952.58	226.99
952.87	226.99
953.17	227.01
953.47	227.02
953.76	227.02
954.06	227.02
954.36	226.99
954.66	227.01
954.95	227.02
955.25	227.03
955.55	227.04
955.84	227.02
956.14	227.03
956.44	226.98
956.73	226.98
957.03	227.01
957.32	226.98
957.62	226.94
957.92	226.96
958.21	226.96
958.51	227.06
958.81	227.05
959.10	227.04
959.40	227.06
959.69	227.04
959.99	227.06
960.29	227.06
960.58	227.08
960.88	227.10
961.17	227.07
961.47	227.05
961.76	227.02
962.06	227.03
962.36	227.01
962.65	227.05
962.95	227.04
963.24	227.03
963.54	227.05
963.83	227.07
964.13	227.07
964.42	227.02
964.72	226.94
965.01	226.94
965.31	226.97
965.60	226.91
965.90	227.00
966.19	226.95
966.49	226.94
966.78	226.92
967.08	226.92
967.37	226.94
967.67	226.89
967.96	226.90
968.26	226.88
968.55	226.92
968.85	226.89
969.14	226.85
969.43	226.83
969.73	226.82
970.02	226.80
970.32	226.78
970.61	226.77
970.91	226.73
971.20	226.68
971.49	226.63
971.79	226.62
972.08	226.53
972.38	226.55
972.67	226.53
972.96	226.53
973.26	226.46
973.55	226.49
973.85	226.51
974.14	226.53
974.43	226.55
974.73	226.50
975.02	226.49
975.31	226.52
975.61	226.48
975.90	226.46
976.19	226.49
976.49	226.48
976.78	226.48
977.07	226.49
977.37	226.54
977.66	226.57
977.95	226.61
978.24	226.61
978.54	226.62
978.83	226.61
979.12	226.62
979.42	226.64
979.71	226.61
980.00	226.59
980.29	226.58
980.59	226.56
980.88	226.56
981.17	226.60
981.46	226.59
981.76	226.62
982.05	226.69
982.34	226.65
982.63	226.67
982.93	226.70
983.22	226.70
983.51	226.70
983.80	226.74
984.09	226.74
984.39	226.77
984.68	226.76
984.97	226.78
985.26	226.79
985.55	226.79
985.85	226.77
986.14	226.81
986.43	226.81
986.72	226.81
987.01	226.81
987.30	226.79
987.59	226.79
987.89	226.81
988.18	226.76
988.47	226.77
988.76	226.78
989.05	226.79
989.34	226.76
989.63	226.77
989.92	226.74
990.22	226.71
990.51	226.70
990.80	226.71
991.09	226.74
991.38	226.77
991.67	226.80
991.96	226.81
992.25	226.80
992.54	226.80
992.83	226.78
993.12	226.81
993.41	226.83
993.70	226.88
993.99	226.89
994.28	226.90
994.58	226.92
994.87	226.89
995.16	226.89
995.45	226.90
995.74	226.90
996.03	226.94
996.32	226.97
996.61	226.98
996.90	226.99
997.19	226.97
997.48	226.93
997.77	226.88
998.06	226.87
998.34	226.86
998.63	226.84
998.92	226.85
999.21	226.83
999.50	226.82
999.79	226.77
1000.08	226.79
1000.37	226.78
1000.66	226.78
1000.95	226.80
1001.24	226.81
1001.53	226.83
1001.82	226.79
1002.11	226.73
1002.40	226.73
1002.68	226.76
1002.97	226.82
1003.26	226.79
1003.55	226.78
1003.84	226.82
1004.13	226.85
1004.42	226.85
1004.71	226.87
1004.99	226.87
1005.28	226.91
1005.57	226.92
1005.86	226.91
1006.15	226.88
1006.44	226.88
1006.72	226.87
1007.01	226.85
1007.30	226.82
1007.59	226.81
1007.88	226.80
1008.17	226.81
1008.45	226.78
1008.74	226.72
1009.03	226.65
1009.32	226.63
1009.60	226.66
1009.89	226.64
1010.18	226.61
1010.47	226.60
1010.76	226.59
1011.04	226.58
1011.33	226.57
1011.62	226.55
1011.91	226.57
1012.19	226.60
1012.48	226.62
1012.77	226.63
1013.05	226.69
1013.34	226.72
1013.63	226.70
1013.92	226.72
1014.20	226.71
1014.49	226.70
1014.78	226.70
1015.06	226.67
1015.35	226.68
1015.64	226.68
1015.92	226.73
1016.21	226.72
1016.50	226.75
1016.78	226.79
1017.07	226.78
1017.36	226.77
1017.64	226.77
1017.93	226.76
1018.22	226.75
1018.50	226.75
1018.79	226.73
1019.08	226.68
1019.36	226.68
1019.65	226.64
1019.93	226.67
1020.22	226.67
1020.51	226.74
1020.79	226.76
1021.08	226.54
1021.36	226.64
1021.65	226.60
1021.94	226.97
1022.22	226.81
1022.51	225.80
1022.79	227.41
1023.08	226.25
1023.36	227.69
1023.65	226.87
>>>>>End Processed Spectral Data<<<<<
