SpectraSuite Data File
++++++++++++++++++++++++++++++++++++
Date: Fri Feb 01 15:28:36 EST 2013
User: group
Dark Spectrum Present: No
Reference Spectrum Present: No
Number of Sampled Component Spectra: 1
Spectrometers: USB2E7196
Integration Time (usec): 35000 (USB2E7196)
Spectra Averaged: 100 (USB2E7196)
Boxcar Smoothing: 10 (USB2E7196)
Correct for Electrical Dark: No (USB2E7196)
Strobe/Lamp Enabled: No (USB2E7196)
Correct for Detector Non-linearity: No (USB2E7196)
Correct for Stray Light: No (USB2E7196)
Number of Pixels in Processed Spectrum: 2048
>>>>>Begin Processed Spectral Data<<<<<
339.09	0.00
339.48	215.34
339.86	216.44
340.24	217.70
340.63	219.63
341.01	222.10
341.39	222.33
341.78	223.41
342.16	223.85
342.54	225.40
342.93	213.48
343.31	224.30
343.69	224.81
344.07	225.27
344.46	225.74
344.84	226.08
345.22	226.33
345.60	226.57
345.99	226.73
346.37	226.89
346.75	226.97
347.13	227.02
347.52	227.07
347.90	227.18
348.28	227.21
348.66	227.24
349.05	227.21
349.43	227.25
349.81	227.26
350.19	227.33
350.57	227.41
350.96	227.47
351.34	227.56
351.72	227.68
352.10	227.79
352.48	227.82
352.87	227.91
353.25	227.95
353.63	228.02
354.01	228.10
354.39	228.17
354.77	228.26
355.15	228.38
355.54	228.45
355.92	228.49
356.30	228.56
356.68	228.72
357.06	228.83
357.44	228.88
357.82	228.96
358.20	229.01
358.58	229.08
358.97	229.14
359.35	229.20
359.73	229.25
360.11	229.29
360.49	229.38
360.87	229.41
361.25	229.53
361.63	229.56
362.01	229.63
362.39	229.69
362.77	229.73
363.15	229.72
363.53	229.74
363.91	229.76
364.29	229.77
364.67	229.68
365.05	229.71
365.43	229.74
365.81	229.75
366.19	229.79
366.57	229.78
366.95	229.78
367.33	229.73
367.71	229.73
368.09	229.73
368.47	229.69
368.85	229.67
369.23	229.60
369.61	229.57
369.99	229.56
370.37	229.51
370.75	229.54
371.13	229.52
371.51	229.44
371.89	229.41
372.27	229.39
372.65	229.34
373.03	229.25
373.41	229.17
373.78	229.13
374.16	229.01
374.54	228.95
374.92	228.89
375.30	228.82
375.68	228.72
376.06	228.65
376.44	228.57
376.82	228.54
377.19	228.49
377.57	228.43
377.95	228.34
378.33	228.26
378.71	228.12
379.09	228.05
379.47	228.04
379.84	227.93
380.22	227.80
380.60	227.74
380.98	227.69
381.36	227.61
381.73	227.51
382.11	227.47
382.49	227.41
382.87	227.31
383.25	227.25
383.62	227.29
384.00	227.22
384.38	227.16
384.76	227.11
385.13	227.07
385.51	226.99
385.89	226.92
386.27	226.86
386.64	226.82
387.02	226.77
387.40	226.69
387.78	226.68
388.15	226.65
388.53	226.61
388.91	226.55
389.29	226.51
389.66	226.50
390.04	226.45
390.42	226.42
390.79	226.43
391.17	226.41
391.55	226.29
391.92	226.27
392.30	226.26
392.68	226.23
393.05	226.22
393.43	226.23
393.81	226.27
394.18	226.28
394.56	226.33
394.94	226.36
395.31	226.38
395.69	226.43
396.06	226.48
396.44	226.54
396.82	226.57
397.19	226.65
397.57	226.68
397.95	226.75
398.32	226.79
398.70	226.85
399.07	226.95
399.45	227.02
399.82	227.10
400.20	227.20
400.58	227.26
400.95	227.34
401.33	227.44
401.70	227.58
402.08	227.69
402.45	227.73
402.83	227.86
403.20	227.98
403.58	228.06
403.95	228.17
404.33	228.29
404.71	228.43
405.08	228.61
405.46	228.73
405.83	228.88
406.21	229.02
406.58	229.18
406.96	229.36
407.33	229.54
407.70	229.73
408.08	230.01
408.45	230.23
408.83	230.43
409.20	230.61
409.58	230.78
409.95	231.01
410.33	231.28
410.70	231.54
411.08	231.82
411.45	232.12
411.82	232.44
412.20	232.78
412.57	233.20
412.95	233.50
413.32	233.91
413.69	234.31
414.07	234.77
414.44	235.23
414.82	235.66
415.19	236.19
415.56	236.76
415.94	237.26
416.31	237.91
416.68	238.55
417.06	239.28
417.43	239.99
417.81	240.74
418.18	241.58
418.55	242.39
418.93	243.29
419.30	244.19
419.67	245.13
420.04	246.08
420.42	247.05
420.79	248.25
421.16	249.41
421.54	250.64
421.91	251.88
422.28	253.13
422.66	254.48
423.03	255.80
423.40	257.10
423.77	258.53
424.15	259.96
424.52	261.49
424.89	263.09
425.26	264.63
425.64	266.13
426.01	267.65
426.38	269.32
426.75	270.98
427.13	272.72
427.50	274.51
427.87	276.43
428.24	278.30
428.61	280.04
428.99	281.99
429.36	284.08
429.73	286.13
430.10	288.16
430.47	290.25
430.85	292.38
431.22	294.65
431.59	297.06
431.96	299.34
432.33	301.80
432.70	304.23
433.08	307.07
433.45	309.68
433.82	312.36
434.19	315.23
434.56	318.09
434.93	320.75
435.30	323.37
435.68	326.28
436.05	329.14
436.42	331.93
436.79	334.47
437.16	337.16
437.53	340.00
437.90	342.83
438.27	345.55
438.64	348.44
439.01	351.02
439.38	353.28
439.75	355.43
440.13	357.94
440.50	360.30
440.87	362.12
441.24	364.09
441.61	366.24
441.98	367.75
442.35	369.51
442.72	371.35
443.09	373.22
443.46	374.19
443.83	374.77
444.20	375.30
444.57	376.12
444.94	376.42
445.31	376.78
445.68	377.14
446.05	377.23
446.42	376.78
446.79	376.37
447.16	375.89
447.53	375.56
447.90	374.37
448.27	373.19
448.64	371.60
449.01	370.42
449.37	368.43
449.74	366.53
450.11	364.27
450.48	361.82
450.85	359.28
451.22	357.12
451.59	355.10
451.96	353.16
452.33	350.54
452.70	348.15
453.07	345.28
453.43	342.35
453.80	339.57
454.17	336.85
454.54	334.29
454.91	331.54
455.28	328.86
455.65	326.34
456.02	323.86
456.38	321.70
456.75	319.05
457.12	316.81
457.49	314.56
457.86	312.40
458.23	310.50
458.59	308.41
458.96	306.31
459.33	304.42
459.70	302.54
460.07	301.03
460.43	299.32
460.80	297.66
461.17	296.23
461.54	294.72
461.91	293.34
462.27	291.89
462.64	290.65
463.01	289.29
463.38	288.01
463.74	286.64
464.11	285.45
464.48	284.43
464.85	283.32
465.21	282.48
465.58	281.51
465.95	280.46
466.32	279.50
466.68	278.61
467.05	277.72
467.42	276.81
467.78	275.88
468.15	274.99
468.52	274.36
468.88	273.47
469.25	272.68
469.62	272.04
469.98	271.36
470.35	270.74
470.72	270.14
471.08	269.48
471.45	268.94
471.82	268.42
472.18	267.82
472.55	267.38
472.92	266.81
473.28	266.41
473.65	265.95
474.02	265.55
474.38	265.17
474.75	264.85
475.11	264.51
475.48	264.25
475.85	264.01
476.21	263.77
476.58	263.61
476.94	263.50
477.31	263.32
477.67	263.13
478.04	263.02
478.41	262.97
478.77	263.03
479.14	262.94
479.50	262.95
479.87	263.00
480.23	263.07
480.60	263.16
480.96	263.18
481.33	263.35
481.69	263.57
482.06	263.74
482.42	263.95
482.79	264.22
483.15	264.54
483.52	264.93
483.88	265.28
484.25	265.66
484.61	266.05
484.98	266.47
485.34	267.05
485.71	267.64
486.07	268.26
486.44	268.81
486.80	269.56
487.17	270.25
487.53	271.09
487.90	271.92
488.26	272.84
488.62	273.89
488.99	274.89
489.35	275.89
489.72	277.06
490.08	278.24
490.44	279.51
490.81	280.85
491.17	282.21
491.54	283.68
491.90	285.22
492.26	286.88
492.63	288.63
492.99	290.43
493.36	292.29
493.72	294.31
494.08	296.42
494.45	298.66
494.81	301.03
495.17	303.48
495.54	306.07
495.90	308.74
496.26	311.52
496.63	314.46
496.99	317.56
497.35	320.78
497.72	324.20
498.08	327.68
498.44	331.37
498.80	335.32
499.17	339.33
499.53	343.49
499.89	347.85
500.26	352.40
500.62	357.10
500.98	362.07
501.34	367.16
501.71	372.51
502.07	377.92
502.43	383.57
502.79	389.39
503.16	395.47
503.52	401.80
503.88	408.25
504.24	414.89
504.60	421.84
504.97	429.00
505.33	436.32
505.69	444.08
506.05	451.87
506.41	459.77
506.78	467.92
507.14	476.40
507.50	485.13
507.86	494.13
508.22	503.35
508.59	512.54
508.95	522.17
509.31	531.98
509.67	542.11
510.03	552.39
510.39	563.00
510.75	573.82
511.12	584.71
511.48	596.07
511.84	607.60
512.20	619.15
512.56	631.12
512.92	643.36
513.28	655.69
513.64	668.18
514.00	680.83
514.37	693.81
514.73	706.90
515.09	719.97
515.45	733.29
515.81	746.81
516.17	760.89
516.53	774.95
516.89	789.13
517.25	803.33
517.61	817.79
517.97	832.20
518.33	846.61
518.69	861.48
519.05	876.45
519.41	891.67
519.77	907.24
520.13	922.74
520.49	938.05
520.85	953.49
521.21	969.26
521.57	985.62
521.93	1001.55
522.29	1017.90
522.65	1034.26
523.01	1050.56
523.37	1066.75
523.73	1082.95
524.09	1099.13
524.45	1115.54
524.81	1132.29
525.17	1149.17
525.53	1166.13
525.89	1183.07
526.25	1199.90
526.61	1216.27
526.97	1233.04
527.33	1249.60
527.68	1266.32
528.04	1282.84
528.40	1299.46
528.76	1316.59
529.12	1333.17
529.48	1350.09
529.84	1366.26
530.20	1382.82
530.56	1399.83
530.91	1417.23
531.27	1434.09
531.63	1450.62
531.99	1467.32
532.35	1483.31
532.71	1499.19
533.07	1515.57
533.42	1531.51
533.78	1547.59
534.14	1563.90
534.50	1579.19
534.86	1595.06
535.21	1610.27
535.57	1626.31
535.93	1641.86
536.29	1656.59
536.65	1671.80
537.00	1686.50
537.36	1701.97
537.72	1716.54
538.08	1730.98
538.44	1744.68
538.79	1758.49
539.15	1772.19
539.51	1785.88
539.87	1800.28
540.22	1814.00
540.58	1827.77
540.94	1841.19
541.29	1854.19
541.65	1867.06
542.01	1880.36
542.37	1892.61
542.72	1904.99
543.08	1916.82
543.44	1929.38
543.79	1940.65
544.15	1951.71
544.51	1963.38
544.87	1974.26
545.22	1985.11
545.58	1995.37
545.94	2005.38
546.29	2015.42
546.65	2025.32
547.01	2034.60
547.36	2043.37
547.72	2051.93
548.07	2059.92
548.43	2068.09
548.79	2076.19
549.14	2083.78
549.50	2091.28
549.86	2099.24
550.21	2106.66
550.57	2113.84
550.92	2120.39
551.28	2127.72
551.64	2134.71
551.99	2141.32
552.35	2147.56
552.70	2153.96
553.06	2159.99
553.41	2166.31
553.77	2172.36
554.13	2178.46
554.48	2184.61
554.84	2190.01
555.19	2195.46
555.55	2200.48
555.90	2205.04
556.26	2210.02
556.61	2214.69
556.97	2218.97
557.32	2223.10
557.68	2227.31
558.03	2231.74
558.39	2235.37
558.74	2239.87
559.10	2243.70
559.45	2247.33
559.81	2251.68
560.16	2255.43
560.52	2258.74
560.87	2262.20
561.23	2264.79
561.58	2267.70
561.94	2270.25
562.29	2272.66
562.64	2275.50
563.00	2278.37
563.35	2281.98
563.71	2285.02
564.06	2288.31
564.42	2291.11
564.77	2293.53
565.12	2295.72
565.48	2297.53
565.83	2299.47
566.19	2300.75
566.54	2301.82
566.89	2302.91
567.25	2303.48
567.60	2304.78
567.96	2306.46
568.31	2307.29
568.66	2308.47
569.02	2308.98
569.37	2309.19
569.72	2309.98
570.08	2309.82
570.43	2309.42
570.78	2308.56
571.14	2306.88
571.49	2305.35
571.84	2305.00
572.20	2303.51
572.55	2302.39
572.90	2300.78
573.26	2299.30
573.61	2297.59
573.96	2295.59
574.31	2292.66
574.67	2289.40
575.02	2285.50
575.37	2282.01
575.72	2278.01
576.08	2274.55
576.43	2271.40
576.78	2267.76
577.13	2264.50
577.49	2261.28
577.84	2257.79
578.19	2254.00
578.54	2250.25
578.90	2245.99
579.25	2240.39
579.60	2235.63
579.95	2230.43
580.30	2225.26
580.66	2220.00
581.01	2214.92
581.36	2210.05
581.71	2205.75
582.06	2201.47
582.42	2197.11
582.77	2191.78
583.12	2187.01
583.47	2182.00
583.82	2176.69
584.17	2171.28
584.53	2165.82
584.88	2160.18
585.23	2154.25
585.58	2148.84
585.93	2143.37
586.28	2138.56
586.63	2133.30
586.98	2128.11
587.34	2123.51
587.69	2118.56
588.04	2113.32
588.39	2107.36
588.74	2100.70
589.09	2094.47
589.44	2087.42
589.79	2081.20
590.14	2075.32
590.49	2068.83
590.84	2062.50
591.19	2056.43
591.54	2050.04
591.89	2042.54
592.25	2035.62
592.60	2028.70
592.95	2020.93
593.30	2013.56
593.65	2005.85
594.00	1998.78
594.35	1991.56
594.70	1983.44
595.05	1976.17
595.40	1968.65
595.75	1961.36
596.10	1955.04
596.45	1948.16
596.80	1941.90
597.15	1935.28
597.50	1928.26
597.85	1921.91
598.19	1915.18
598.54	1908.10
598.89	1901.40
599.24	1895.50
599.59	1888.81
599.94	1882.25
600.29	1875.93
600.64	1869.24
600.99	1861.76
601.34	1854.85
601.69	1847.80
602.04	1840.82
602.39	1833.53
602.74	1826.81
603.08	1820.04
603.43	1813.41
603.78	1806.15
604.13	1798.99
604.48	1791.68
604.83	1784.87
605.18	1777.72
605.53	1769.70
605.87	1761.59
606.22	1754.14
606.57	1746.03
606.92	1738.57
607.27	1731.41
607.62	1724.37
607.96	1717.10
608.31	1710.53
608.66	1702.81
609.01	1695.10
609.36	1687.48
609.70	1679.38
610.05	1671.20
610.40	1663.34
610.75	1654.94
611.10	1647.21
611.44	1638.76
611.79	1630.69
612.14	1621.94
612.49	1612.80
612.83	1604.37
613.18	1596.28
613.53	1588.39
613.88	1579.98
614.22	1571.79
614.57	1563.29
614.92	1555.44
615.27	1547.91
615.61	1539.49
615.96	1531.57
616.31	1523.96
616.65	1516.63
617.00	1509.16
617.35	1501.51
617.70	1493.16
618.04	1484.56
618.39	1476.32
618.74	1468.66
619.08	1460.29
619.43	1452.60
619.78	1445.72
620.12	1438.68
620.47	1431.11
620.82	1422.81
621.16	1415.30
621.51	1407.66
621.85	1399.98
622.20	1391.33
622.55	1382.86
622.89	1375.02
623.24	1367.44
623.59	1360.01
623.93	1352.50
624.28	1345.15
624.62	1337.67
624.97	1330.52
625.32	1323.87
625.66	1316.81
626.01	1309.60
626.35	1302.17
626.70	1294.44
627.04	1286.69
627.39	1278.75
627.73	1271.32
628.08	1264.37
628.43	1257.06
628.77	1249.64
629.12	1242.07
629.46	1234.94
629.81	1227.54
630.15	1220.34
630.50	1212.88
630.84	1204.83
631.19	1196.82
631.53	1189.38
631.88	1181.77
632.22	1174.15
632.57	1166.88
632.91	1159.36
633.26	1152.01
633.60	1144.73
633.95	1137.72
634.29	1130.65
634.64	1124.05
634.98	1116.78
635.32	1109.73
635.67	1103.18
636.01	1096.63
636.36	1089.84
636.70	1083.35
637.05	1076.79
637.39	1070.32
637.73	1063.82
638.08	1057.99
638.42	1051.99
638.77	1045.54
639.11	1039.02
639.45	1032.64
639.80	1025.96
640.14	1019.49
640.49	1012.99
640.83	1006.70
641.17	1000.46
641.52	994.12
641.86	987.75
642.20	981.90
642.55	975.61
642.89	969.09
643.23	962.53
643.58	956.72
643.92	950.53
644.26	944.46
644.61	938.47
644.95	932.48
645.29	925.76
645.64	919.06
645.98	912.70
646.32	906.80
646.66	900.75
647.01	894.90
647.35	889.28
647.69	883.45
648.04	877.92
648.38	872.18
648.72	866.22
649.06	860.11
649.41	854.22
649.75	848.14
650.09	842.17
650.43	836.37
650.78	830.26
651.12	824.26
651.46	818.63
651.80	812.83
652.14	807.39
652.49	802.13
652.83	797.00
653.17	791.24
653.51	785.52
653.85	780.06
654.20	774.47
654.54	768.39
654.88	762.64
655.22	756.74
655.56	751.05
655.90	745.55
656.25	740.22
656.59	734.88
656.93	729.80
657.27	724.60
657.61	719.14
657.95	714.03
658.29	708.90
658.64	703.45
658.98	698.19
659.32	692.69
659.66	687.35
660.00	681.98
660.34	677.12
660.68	672.29
661.02	667.36
661.36	662.61
661.70	658.13
662.05	653.77
662.39	649.41
662.73	644.92
663.07	640.52
663.41	636.17
663.75	631.62
664.09	627.13
664.43	622.87
664.77	618.82
665.11	614.60
665.45	610.52
665.79	606.65
666.13	602.56
666.47	598.49
666.81	594.36
667.15	590.25
667.49	586.31
667.83	582.40
668.17	578.51
668.51	574.51
668.85	570.51
669.19	566.61
669.53	562.76
669.87	558.84
670.21	555.22
670.55	551.51
670.89	548.06
671.23	544.57
671.57	541.00
671.91	537.46
672.25	533.95
672.58	530.43
672.92	526.91
673.26	523.73
673.60	520.59
673.94	517.53
674.28	514.63
674.62	511.66
674.96	508.56
675.30	505.61
675.64	502.69
675.97	499.92
676.31	497.11
676.65	494.22
676.99	491.55
677.33	488.65
677.67	485.88
678.01	482.85
678.34	479.89
678.68	477.01
679.02	474.19
679.36	471.38
679.70	468.71
680.04	465.97
680.37	463.08
680.71	460.32
681.05	457.72
681.39	455.06
681.73	452.50
682.06	450.02
682.40	447.48
682.74	444.94
683.08	442.36
683.42	439.76
683.75	437.26
684.09	434.71
684.43	432.22
684.77	429.78
685.10	427.47
685.44	425.21
685.78	422.96
686.12	420.72
686.45	418.47
686.79	416.10
687.13	413.95
687.46	411.77
687.80	409.56
688.14	407.29
688.48	405.18
688.81	402.92
689.15	400.74
689.49	398.61
689.82	396.46
690.16	394.41
690.50	392.41
690.83	390.49
691.17	388.51
691.51	386.69
691.84	384.83
692.18	382.93
692.52	380.96
692.85	378.99
693.19	377.10
693.52	375.32
693.86	373.59
694.20	371.76
694.53	369.99
694.87	368.18
695.21	366.44
695.54	364.64
695.88	362.91
696.21	361.20
696.55	359.50
696.88	357.89
697.22	356.24
697.56	354.65
697.89	352.96
698.23	351.38
698.56	349.73
698.90	348.09
699.23	346.45
699.57	344.87
699.90	343.37
700.24	341.84
700.58	340.26
700.91	338.76
701.25	337.33
701.58	335.96
701.92	334.63
702.25	333.26
702.59	331.89
702.92	330.55
703.26	329.26
703.59	327.99
703.93	326.79
704.26	325.53
704.60	324.23
704.93	322.98
705.26	321.69
705.60	320.50
705.93	319.39
706.27	318.32
706.60	317.29
706.94	316.19
707.27	315.07
707.61	314.04
707.94	312.98
708.27	311.89
708.61	310.81
708.94	309.77
709.28	308.73
709.61	307.72
709.94	306.80
710.28	305.82
710.61	304.82
710.95	303.73
711.28	302.82
711.61	301.89
711.95	300.98
712.28	300.07
712.61	299.11
712.95	298.19
713.28	297.31
713.61	296.39
713.95	295.50
714.28	294.63
714.61	293.77
714.95	292.94
715.28	292.08
715.61	291.18
715.95	290.32
716.28	289.55
716.61	288.78
716.95	287.96
717.28	287.15
717.61	286.40
717.94	285.67
718.28	284.88
718.61	284.14
718.94	283.43
719.27	282.74
719.61	282.11
719.94	281.43
720.27	280.73
720.60	280.03
720.94	279.42
721.27	278.80
721.60	278.16
721.93	277.52
722.27	276.96
722.60	276.44
722.93	275.91
723.26	275.35
723.59	274.75
723.93	274.22
724.26	273.74
724.59	273.20
724.92	272.69
725.25	272.20
725.59	271.67
725.92	271.18
726.25	270.68
726.58	270.16
726.91	269.68
727.24	269.25
727.57	268.85
727.91	268.34
728.24	267.91
728.57	267.44
728.90	267.01
729.23	266.54
729.56	266.09
729.89	265.58
730.22	265.08
730.55	264.65
730.89	264.17
731.22	263.65
731.55	263.19
731.88	262.78
732.21	262.33
732.54	261.91
732.87	261.47
733.20	261.09
733.53	260.68
733.86	260.30
734.19	259.89
734.52	259.45
734.85	259.13
735.18	258.72
735.51	258.35
735.84	257.99
736.17	257.64
736.50	257.24
736.83	257.04
737.16	256.70
737.49	256.34
737.82	255.97
738.15	255.66
738.48	255.36
738.81	255.02
739.14	254.69
739.47	254.37
739.80	254.07
740.13	253.78
740.46	253.47
740.79	253.13
741.12	252.82
741.45	252.50
741.78	252.14
742.11	251.85
742.44	251.55
742.77	251.27
743.10	250.95
743.43	250.67
743.75	250.26
744.08	250.08
744.41	249.84
744.74	249.63
745.07	249.33
745.40	249.08
745.73	248.82
746.06	248.55
746.39	248.32
746.71	248.04
747.04	247.74
747.37	247.50
747.70	247.25
748.03	247.00
748.36	246.79
748.68	246.61
749.01	246.35
749.34	246.13
749.67	245.91
750.00	245.71
750.33	245.56
750.65	245.36
750.98	245.04
751.31	244.82
751.64	244.59
751.97	244.46
752.29	244.25
752.62	243.98
752.95	243.78
753.28	243.55
753.60	243.33
753.93	243.19
754.26	243.00
754.59	242.78
754.91	242.58
755.24	242.39
755.57	242.17
755.90	242.02
756.22	241.78
756.55	241.58
756.88	241.37
757.20	241.12
757.53	240.93
757.86	240.77
758.19	240.61
758.51	240.44
758.84	240.20
759.17	240.03
759.49	239.87
759.82	239.76
760.15	239.63
760.47	239.50
760.80	239.31
761.13	239.16
761.45	239.04
761.78	238.87
762.11	238.76
762.43	238.58
762.76	238.45
763.08	238.34
763.41	238.20
763.74	238.07
764.06	237.92
764.39	237.78
764.71	237.64
765.04	237.50
765.37	237.38
765.69	237.27
766.02	237.15
766.34	237.07
766.67	236.96
767.00	236.86
767.32	236.78
767.65	236.70
767.97	236.58
768.30	236.47
768.62	236.42
768.95	236.26
769.27	236.17
769.60	236.08
769.92	235.98
770.25	235.86
770.57	235.79
770.90	235.71
771.22	235.62
771.55	235.53
771.87	235.45
772.20	235.35
772.52	235.35
772.85	235.37
773.17	235.26
773.50	235.12
773.82	235.00
774.15	234.88
774.47	234.77
774.80	234.67
775.12	234.57
775.45	234.43
775.77	234.38
776.09	234.29
776.42	234.18
776.74	234.13
777.07	234.03
777.39	233.96
777.72	233.84
778.04	233.78
778.36	233.70
778.69	233.62
779.01	233.55
779.33	233.36
779.66	233.19
779.98	233.12
780.31	233.03
780.63	232.99
780.95	232.93
781.28	232.86
781.60	232.79
781.92	232.75
782.25	232.67
782.57	232.61
782.89	232.53
783.22	232.48
783.54	232.38
783.86	232.34
784.19	232.24
784.51	232.23
784.83	232.16
785.16	232.09
785.48	232.01
785.80	231.92
786.12	231.88
786.45	231.80
786.77	231.72
787.09	231.67
787.42	231.60
787.74	231.53
788.06	231.51
788.38	231.45
788.71	231.36
789.03	231.37
789.35	231.31
789.67	231.26
789.99	231.23
790.32	231.15
790.64	231.12
790.96	231.13
791.28	231.05
791.61	230.99
791.93	230.95
792.25	230.92
792.57	230.97
792.89	230.90
793.21	230.87
793.54	230.86
793.86	230.82
794.18	230.79
794.50	230.74
794.82	230.67
795.14	230.65
795.47	230.65
795.79	230.57
796.11	230.55
796.43	230.53
796.75	230.52
797.07	230.51
797.39	230.50
797.71	230.42
798.04	230.40
798.36	230.38
798.68	230.37
799.00	230.35
799.32	230.30
799.64	230.31
799.96	230.29
800.28	230.28
800.60	230.24
800.92	230.23
801.24	230.20
801.56	230.19
801.89	230.20
802.21	230.19
802.53	230.18
802.85	230.19
803.17	230.22
803.49	230.17
803.81	230.15
804.13	230.11
804.45	230.11
804.77	230.13
805.09	230.10
805.41	230.05
805.73	230.01
806.05	229.97
806.37	229.95
806.69	229.92
807.01	229.92
807.33	229.91
807.65	229.86
807.97	229.92
808.28	229.90
808.60	229.84
808.92	229.81
809.24	229.85
809.56	229.79
809.88	229.71
810.20	229.72
810.52	229.71
810.84	229.70
811.16	229.65
811.48	229.62
811.80	229.65
812.12	229.65
812.43	229.65
812.75	229.65
813.07	229.62
813.39	229.63
813.71	229.60
814.03	229.58
814.35	229.57
814.67	229.47
814.98	229.47
815.30	229.46
815.62	229.42
815.94	229.31
816.26	229.34
816.58	229.33
816.89	229.29
817.21	229.24
817.53	229.18
817.85	229.17
818.17	229.16
818.48	229.08
818.80	229.06
819.12	229.01
819.44	228.95
819.76	228.94
820.07	228.87
820.39	228.79
820.71	228.79
821.03	228.79
821.34	228.79
821.66	228.76
821.98	228.72
822.30	228.71
822.61	228.75
822.93	228.66
823.25	228.65
823.57	228.60
823.88	228.60
824.20	228.59
824.52	228.55
824.83	228.48
825.15	228.44
825.47	228.43
825.79	228.41
826.10	228.38
826.42	228.31
826.74	228.31
827.05	228.30
827.37	228.28
827.69	228.24
828.00	228.21
828.32	228.20
828.64	228.18
828.95	228.21
829.27	228.15
829.58	228.16
829.90	228.14
830.22	228.12
830.53	228.08
830.85	228.07
831.17	228.03
831.48	228.00
831.80	228.01
832.11	228.01
832.43	227.99
832.75	227.99
833.06	228.04
833.38	228.01
833.69	228.00
834.01	228.02
834.32	227.97
834.64	227.94
834.96	227.92
835.27	227.90
835.59	227.83
835.90	227.82
836.22	227.80
836.53	227.76
836.85	227.76
837.16	227.85
837.48	227.84
837.79	227.88
838.11	227.90
838.42	227.89
838.74	227.87
839.05	227.85
839.37	227.82
839.68	227.79
840.00	227.78
840.31	227.82
840.63	227.75
840.94	227.75
841.26	227.74
841.57	227.72
841.88	227.77
842.20	227.77
842.51	227.78
842.83	227.77
843.14	227.89
843.46	227.88
843.77	227.83
844.08	227.83
844.40	227.80
844.71	227.80
845.03	227.76
845.34	227.76
845.65	227.75
845.97	227.78
846.28	227.76
846.60	227.76
846.91	227.74
847.22	227.76
847.54	227.79
847.85	227.80
848.16	227.80
848.48	227.74
848.79	227.76
849.10	227.77
849.42	227.77
849.73	227.68
850.04	227.66
850.36	227.64
850.67	227.63
850.98	227.64
851.30	227.66
851.61	227.69
851.92	227.70
852.23	227.71
852.55	227.72
852.86	227.73
853.17	227.76
853.49	227.78
853.80	227.84
854.11	227.84
854.42	227.84
854.74	227.86
855.05	227.90
855.36	227.86
855.67	227.85
855.99	227.86
856.30	227.96
856.61	227.97
856.92	227.99
857.23	228.01
857.55	228.00
857.86	227.98
858.17	227.99
858.48	227.99
858.79	228.02
859.11	228.01
859.42	228.00
859.73	227.98
860.04	227.93
860.35	227.86
860.66	227.85
860.98	227.86
861.29	227.85
861.60	227.83
861.91	227.85
862.22	227.80
862.53	227.79
862.84	227.68
863.16	227.72
863.47	227.71
863.78	227.70
864.09	227.70
864.40	227.70
864.71	227.70
865.02	227.69
865.33	227.65
865.64	227.64
865.95	227.68
866.27	227.72
866.58	227.73
866.89	227.75
867.20	227.74
867.51	227.73
867.82	227.71
868.13	227.73
868.44	227.72
868.75	227.78
869.06	227.78
869.37	227.81
869.68	227.77
869.99	227.79
870.30	227.80
870.61	227.81
870.92	227.80
871.23	227.78
871.54	227.81
871.85	227.79
872.16	227.81
872.47	227.77
872.78	227.71
873.09	227.71
873.40	227.70
873.71	227.69
874.02	227.71
874.33	227.67
874.64	227.63
874.95	227.63
875.26	227.56
875.56	227.55
875.87	227.55
876.18	227.55
876.49	227.64
876.80	227.61
877.11	227.56
877.42	227.54
877.73	227.56
878.04	227.53
878.35	227.53
878.66	227.50
878.96	227.53
879.27	227.51
879.58	227.50
879.89	227.47
880.20	227.49
880.51	227.44
880.82	227.42
881.12	227.44
881.43	227.44
881.74	227.46
882.05	227.43
882.36	227.39
882.67	227.40
882.97	227.25
883.28	227.22
883.59	227.23
883.90	227.23
884.21	227.22
884.51	227.20
884.82	227.18
885.13	227.20
885.44	227.17
885.74	227.16
886.05	227.16
886.36	227.21
886.67	227.16
886.98	227.19
887.28	227.24
887.59	227.23
887.90	227.20
888.20	227.17
888.51	227.21
888.82	227.18
889.13	227.15
889.43	227.23
889.74	227.24
890.05	227.24
890.35	227.22
890.66	227.20
890.97	227.20
891.28	227.21
891.58	227.21
891.89	227.20
892.20	227.21
892.50	227.17
892.81	227.12
893.12	227.13
893.42	227.07
893.73	227.04
894.04	227.07
894.34	227.06
894.65	227.07
894.95	227.04
895.26	227.07
895.57	227.14
895.87	227.06
896.18	227.09
896.48	227.09
896.79	227.10
897.10	227.14
897.40	227.16
897.71	227.17
898.01	227.15
898.32	227.18
898.63	227.19
898.93	227.23
899.24	227.24
899.54	227.26
899.85	227.29
900.15	227.30
900.46	227.29
900.76	227.34
901.07	227.33
901.38	227.34
901.68	227.36
901.99	227.30
902.29	227.30
902.60	227.31
902.90	227.30
903.21	227.31
903.51	227.28
903.82	227.28
904.12	227.27
904.43	227.26
904.73	227.24
905.03	227.23
905.34	227.31
905.64	227.28
905.95	227.27
906.25	227.28
906.56	227.29
906.86	227.26
907.17	227.24
907.47	227.25
907.77	227.25
908.08	227.22
908.38	227.21
908.69	227.20
908.99	227.18
909.30	227.20
909.60	227.21
909.90	227.21
910.21	227.20
910.51	227.21
910.81	227.25
911.12	227.21
911.42	227.21
911.73	227.10
912.03	227.15
912.33	227.17
912.64	227.15
912.94	227.14
913.24	227.12
913.55	227.11
913.85	227.08
914.15	227.10
914.46	227.09
914.76	227.11
915.06	227.14
915.37	227.10
915.67	227.10
915.97	227.07
916.27	227.05
916.58	227.04
916.88	227.01
917.18	226.99
917.49	227.06
917.79	227.06
918.09	227.06
918.39	227.05
918.70	227.04
919.00	227.02
919.30	227.04
919.60	227.07
919.91	227.05
920.21	227.08
920.51	227.05
920.81	227.08
921.12	227.08
921.42	227.06
921.72	227.10
922.02	227.10
922.32	227.12
922.63	227.14
922.93	227.17
923.23	227.19
923.53	227.17
923.83	227.12
924.13	227.09
924.44	227.11
924.74	227.16
925.04	227.16
925.34	227.19
925.64	227.15
925.94	227.15
926.24	227.19
926.55	227.19
926.85	227.22
927.15	227.20
927.45	227.19
927.75	227.18
928.05	227.18
928.35	227.19
928.65	227.23
928.95	227.22
929.26	227.19
929.56	227.18
929.86	227.21
930.16	227.21
930.46	227.23
930.76	227.22
931.06	227.17
931.36	227.16
931.66	227.16
931.96	227.17
932.26	227.16
932.56	227.14
932.86	227.13
933.16	227.13
933.46	227.13
933.76	227.11
934.06	227.16
934.36	227.19
934.66	227.19
934.96	227.19
935.26	227.20
935.56	227.23
935.86	227.22
936.16	227.19
936.46	227.20
936.76	227.17
937.06	227.16
937.36	227.18
937.66	227.20
937.96	227.21
938.26	227.19
938.56	227.16
938.86	227.18
939.16	227.18
939.46	227.17
939.76	227.19
940.06	227.21
940.35	227.20
940.65	227.13
940.95	227.07
941.25	227.03
941.55	227.02
941.85	227.04
942.15	227.07
942.45	227.11
942.75	227.11
943.04	227.12
943.34	227.16
943.64	227.17
943.94	227.14
944.24	227.15
944.54	227.17
944.84	227.21
945.13	227.19
945.43	227.22
945.73	227.22
946.03	227.20
946.33	227.17
946.62	227.16
946.92	227.18
947.22	227.24
947.52	227.22
947.82	227.21
948.11	227.17
948.41	227.16
948.71	227.13
949.01	227.10
949.31	227.13
949.60	227.09
949.90	227.07
950.20	227.07
950.50	227.09
950.79	227.07
951.09	227.08
951.39	227.06
951.69	227.03
951.98	227.05
952.28	227.03
952.58	227.04
952.87	227.04
953.17	227.03
953.47	227.03
953.76	227.03
954.06	227.00
954.36	226.97
954.66	226.98
954.95	227.00
955.25	227.03
955.55	227.01
955.84	227.00
956.14	226.97
956.44	226.98
956.73	226.94
957.03	226.98
957.32	226.97
957.62	226.96
957.92	227.01
958.21	226.97
958.51	227.09
958.81	227.11
959.10	227.06
959.40	227.09
959.69	227.08
959.99	227.10
960.29	227.12
960.58	227.16
960.88	227.18
961.17	227.17
961.47	227.17
961.76	227.17
962.06	227.21
962.36	227.22
962.65	227.19
962.95	227.19
963.24	227.15
963.54	227.16
963.83	227.17
964.13	227.15
964.42	227.17
964.72	227.09
965.01	227.09
965.31	227.11
965.60	227.10
965.90	227.16
966.19	227.15
966.49	227.15
966.78	227.13
967.08	227.11
967.37	227.11
967.67	227.08
967.96	227.07
968.26	227.08
968.55	227.10
968.85	227.13
969.14	227.13
969.43	227.15
969.73	227.12
970.02	227.12
970.32	227.11
970.61	227.08
970.91	227.06
971.20	227.02
971.49	227.02
971.79	227.01
972.08	226.94
972.38	226.94
972.67	226.93
972.96	226.95
973.26	226.96
973.55	226.98
973.85	226.99
974.14	226.99
974.43	227.00
974.73	226.98
975.02	226.93
975.31	226.94
975.61	226.92
975.90	226.94
976.19	226.92
976.49	226.93
976.78	226.91
977.07	226.91
977.37	226.95
977.66	226.96
977.95	226.93
978.24	226.95
978.54	226.98
978.83	226.99
979.12	226.96
979.42	226.94
979.71	226.90
980.00	226.90
980.29	226.87
980.59	226.84
980.88	226.83
981.17	226.84
981.46	226.83
981.76	226.83
982.05	226.83
982.34	226.83
982.63	226.84
982.93	226.86
983.22	226.86
983.51	226.87
983.80	226.90
984.09	226.94
984.39	226.93
984.68	226.90
984.97	226.87
985.26	226.86
985.55	226.87
985.85	226.86
986.14	226.89
986.43	226.92
986.72	226.92
987.01	226.95
987.30	226.98
987.59	226.99
987.89	226.98
988.18	226.97
988.47	227.00
988.76	226.99
989.05	227.00
989.34	226.97
989.63	227.01
989.92	226.95
990.22	226.95
990.51	226.91
990.80	226.90
991.09	226.94
991.38	226.98
991.67	226.97
991.96	226.99
992.25	226.98
992.54	226.94
992.83	226.94
993.12	226.92
993.41	226.92
993.70	226.96
993.99	226.97
994.28	226.99
994.58	226.94
994.87	226.92
995.16	226.92
995.45	226.90
995.74	226.83
996.03	226.87
996.32	226.86
996.61	226.90
996.90	226.90
997.19	226.89
997.48	226.88
997.77	226.89
998.06	226.87
998.34	226.87
998.63	226.86
998.92	226.85
999.21	226.85
999.50	226.83
999.79	226.81
1000.08	226.81
1000.37	226.79
1000.66	226.80
1000.95	226.82
1001.24	226.82
1001.53	226.83
1001.82	226.80
1002.11	226.79
1002.40	226.78
1002.68	226.82
1002.97	226.89
1003.26	226.86
1003.55	226.86
1003.84	226.84
1004.13	226.86
1004.42	226.84
1004.71	226.85
1004.99	226.85
1005.28	226.86
1005.57	226.85
1005.86	226.83
1006.15	226.81
1006.44	226.81
1006.72	226.79
1007.01	226.79
1007.30	226.77
1007.59	226.77
1007.88	226.80
1008.17	226.79
1008.45	226.79
1008.74	226.70
1009.03	226.65
1009.32	226.65
1009.60	226.61
1009.89	226.59
1010.18	226.55
1010.47	226.55
1010.76	226.54
1011.04	226.55
1011.33	226.56
1011.62	226.58
1011.91	226.59
1012.19	226.60
1012.48	226.56
1012.77	226.58
1013.05	226.61
1013.34	226.64
1013.63	226.64
1013.92	226.63
1014.20	226.61
1014.49	226.63
1014.78	226.66
1015.06	226.65
1015.35	226.68
1015.64	226.68
1015.92	226.74
1016.21	226.77
1016.50	226.80
1016.78	226.84
1017.07	226.84
1017.36	226.84
1017.64	226.85
1017.93	226.85
1018.22	226.83
1018.50	226.87
1018.79	226.88
1019.08	226.86
1019.36	226.85
1019.65	226.84
1019.93	226.90
1020.22	226.94
1020.51	226.97
1020.79	226.99
1021.08	226.40
1021.36	226.87
1021.65	227.06
1021.94	227.05
1022.22	226.68
1022.51	226.65
1022.79	227.56
1023.08	226.94
1023.36	228.07
1023.65	226.78
>>>>>End Processed Spectral Data<<<<<
