SpectraSuite Data File
++++++++++++++++++++++++++++++++++++
Date: Fri Feb 01 15:22:09 EST 2013
User: group
Dark Spectrum Present: No
Reference Spectrum Present: No
Number of Sampled Component Spectra: 1
Spectrometers: USB2E7196
Integration Time (usec): 35000 (USB2E7196)
Spectra Averaged: 100 (USB2E7196)
Boxcar Smoothing: 10 (USB2E7196)
Correct for Electrical Dark: No (USB2E7196)
Strobe/Lamp Enabled: No (USB2E7196)
Correct for Detector Non-linearity: No (USB2E7196)
Correct for Stray Light: No (USB2E7196)
Number of Pixels in Processed Spectrum: 2048
>>>>>Begin Processed Spectral Data<<<<<
339.09	0.00
339.48	215.77
339.86	216.71
340.24	217.84
340.63	219.81
341.01	222.10
341.39	221.80
341.78	222.92
342.16	224.33
342.54	225.42
342.93	213.51
343.31	224.31
343.69	224.84
344.07	225.32
344.46	225.76
344.84	226.08
345.22	226.34
345.60	226.62
345.99	226.83
346.37	226.98
346.75	227.08
347.13	227.15
347.52	227.23
347.90	227.29
348.28	227.30
348.66	227.33
349.05	227.35
349.43	227.38
349.81	227.44
350.19	227.47
350.57	227.55
350.96	227.63
351.34	227.71
351.72	227.77
352.10	227.86
352.48	227.89
352.87	227.97
353.25	228.02
353.63	228.05
354.01	228.13
354.39	228.23
354.77	228.29
355.15	228.39
355.54	228.42
355.92	228.46
356.30	228.55
356.68	228.69
357.06	228.78
357.44	228.83
357.82	228.88
358.20	228.97
358.58	229.01
358.97	229.06
359.35	229.13
359.73	229.22
360.11	229.25
360.49	229.33
360.87	229.37
361.25	229.42
361.63	229.49
362.01	229.53
362.39	229.50
362.77	229.51
363.15	229.50
363.53	229.55
363.91	229.57
364.29	229.58
364.67	229.51
365.05	229.46
365.43	229.46
365.81	229.46
366.19	229.49
366.57	229.50
366.95	229.48
367.33	229.42
367.71	229.35
368.09	229.32
368.47	229.29
368.85	229.28
369.23	229.30
369.61	229.25
369.99	229.22
370.37	229.20
370.75	229.25
371.13	229.21
371.51	229.17
371.89	229.10
372.27	229.07
372.65	228.98
373.03	228.95
373.41	228.88
373.78	228.84
374.16	228.71
374.54	228.62
374.92	228.55
375.30	228.51
375.68	228.45
376.06	228.39
376.44	228.34
376.82	228.25
377.19	228.15
377.57	228.08
377.95	227.96
378.33	227.89
378.71	227.74
379.09	227.66
379.47	227.61
379.84	227.56
380.22	227.49
380.60	227.44
380.98	227.36
381.36	227.30
381.73	227.21
382.11	227.19
382.49	227.14
382.87	227.05
383.25	226.99
383.62	227.06
384.00	227.02
384.38	226.93
384.76	226.92
385.13	226.91
385.51	226.86
385.89	226.82
386.27	226.77
386.64	226.73
387.02	226.68
387.40	226.61
387.78	226.58
388.15	226.53
388.53	226.48
388.91	226.46
389.29	226.46
389.66	226.46
390.04	226.41
390.42	226.42
390.79	226.45
391.17	226.47
391.55	226.35
391.92	226.33
392.30	226.38
392.68	226.36
393.05	226.33
393.43	226.37
393.81	226.39
394.18	226.43
394.56	226.46
394.94	226.52
395.31	226.54
395.69	226.59
396.06	226.62
396.44	226.66
396.82	226.71
397.19	226.77
397.57	226.82
397.95	226.88
398.32	226.88
398.70	226.92
399.07	226.98
399.45	227.04
399.82	227.09
400.20	227.13
400.58	227.22
400.95	227.29
401.33	227.38
401.70	227.54
402.08	227.60
402.45	227.69
402.83	227.80
403.20	227.88
403.58	228.01
403.95	228.17
404.33	228.34
404.71	228.45
405.08	228.63
405.46	228.76
405.83	228.91
406.21	229.06
406.58	229.24
406.96	229.41
407.33	229.60
407.70	229.81
408.08	230.09
408.45	230.31
408.83	230.54
409.20	230.75
409.58	230.94
409.95	231.23
410.33	231.53
410.70	231.77
411.08	232.10
411.45	232.40
411.82	232.70
412.20	233.01
412.57	233.43
412.95	233.76
413.32	234.19
413.69	234.61
414.07	235.06
414.44	235.54
414.82	235.98
415.19	236.50
415.56	237.07
415.94	237.61
416.31	238.18
416.68	238.83
417.06	239.54
417.43	240.21
417.81	240.99
418.18	241.78
418.55	242.64
418.93	243.50
419.30	244.43
419.67	245.39
420.04	246.40
420.42	247.44
420.79	248.63
421.16	249.77
421.54	250.94
421.91	252.18
422.28	253.41
422.66	254.78
423.03	256.11
423.40	257.44
423.77	258.86
424.15	260.34
424.52	261.81
424.89	263.42
425.26	265.00
425.64	266.46
426.01	268.08
426.38	269.75
426.75	271.42
427.13	273.14
427.50	274.96
427.87	276.80
428.24	278.65
428.61	280.39
428.99	282.33
429.36	284.44
429.73	286.53
430.10	288.60
430.47	290.64
430.85	292.78
431.22	295.05
431.59	297.42
431.96	299.66
432.33	302.14
432.70	304.53
433.08	307.34
433.45	309.96
433.82	312.53
434.19	315.44
434.56	318.29
434.93	320.95
435.30	323.55
435.68	326.46
436.05	329.26
436.42	332.04
436.79	334.58
437.16	337.35
437.53	340.14
437.90	342.95
438.27	345.69
438.64	348.53
439.01	351.09
439.38	353.36
439.75	355.52
440.13	358.08
440.50	360.41
440.87	362.26
441.24	364.21
441.61	366.39
441.98	367.89
442.35	369.68
442.72	371.53
443.09	373.37
443.46	374.35
443.83	374.98
444.20	375.49
444.57	376.33
444.94	376.54
445.31	376.88
445.68	377.20
446.05	377.29
446.42	376.91
446.79	376.47
447.16	376.00
447.53	375.69
447.90	374.53
448.27	373.34
448.64	371.73
449.01	370.56
449.37	368.58
449.74	366.64
450.11	364.33
450.48	361.81
450.85	359.22
451.22	357.08
451.59	354.99
451.96	353.03
452.33	350.43
452.70	348.10
453.07	345.21
453.43	342.34
453.80	339.58
454.17	336.89
454.54	334.37
454.91	331.63
455.28	328.95
455.65	326.40
456.02	323.96
456.38	321.83
456.75	319.16
457.12	316.88
457.49	314.66
457.86	312.50
458.23	310.68
458.59	308.66
458.96	306.57
459.33	304.73
459.70	302.89
460.07	301.35
460.43	299.61
460.80	298.04
461.17	296.59
461.54	295.10
461.91	293.66
462.27	292.19
462.64	290.94
463.01	289.60
463.38	288.32
463.74	286.95
464.11	285.77
464.48	284.74
464.85	283.67
465.21	282.77
465.58	281.88
465.95	280.78
466.32	279.89
466.68	278.98
467.05	278.07
467.42	277.14
467.78	276.20
468.15	275.33
468.52	274.67
468.88	273.78
469.25	273.01
469.62	272.40
469.98	271.74
470.35	271.11
470.72	270.48
471.08	269.84
471.45	269.30
471.82	268.76
472.18	268.18
472.55	267.72
472.92	267.23
473.28	266.73
473.65	266.26
474.02	265.78
474.38	265.43
474.75	265.12
475.11	264.79
475.48	264.57
475.85	264.34
476.21	264.10
476.58	263.91
476.94	263.74
477.31	263.57
477.67	263.39
478.04	263.26
478.41	263.22
478.77	263.23
479.14	263.14
479.50	263.13
479.87	263.22
480.23	263.29
480.60	263.35
480.96	263.45
481.33	263.68
481.69	263.87
482.06	264.05
482.42	264.24
482.79	264.47
483.15	264.74
483.52	265.12
483.88	265.45
484.25	265.85
484.61	266.27
484.98	266.67
485.34	267.26
485.71	267.86
486.07	268.43
486.44	268.99
486.80	269.68
487.17	270.40
487.53	271.19
487.90	272.03
488.26	272.94
488.62	273.93
488.99	274.88
489.35	275.94
489.72	277.08
490.08	278.27
490.44	279.53
490.81	280.83
491.17	282.17
491.54	283.63
491.90	285.15
492.26	286.75
492.63	288.51
492.99	290.24
493.36	292.11
493.72	294.15
494.08	296.25
494.45	298.51
494.81	300.86
495.17	303.23
495.54	305.81
495.90	308.49
496.26	311.28
496.63	314.25
496.99	317.34
497.35	320.55
497.72	323.92
498.08	327.46
498.44	331.18
498.80	335.10
499.17	339.12
499.53	343.30
499.89	347.71
500.26	352.19
500.62	356.85
500.98	361.84
501.34	366.96
501.71	372.27
502.07	377.69
502.43	383.33
502.79	389.19
503.16	395.20
503.52	401.43
503.88	407.83
504.24	414.45
504.60	421.32
504.97	428.41
505.33	435.70
505.69	443.38
506.05	451.11
506.41	458.95
506.78	467.18
507.14	475.58
507.50	484.30
507.86	493.35
508.22	502.58
508.59	511.78
508.95	521.36
509.31	531.18
509.67	541.29
510.03	551.64
510.39	562.20
510.75	573.06
511.12	584.06
511.48	595.37
511.84	606.83
512.20	618.38
512.56	630.35
512.92	642.61
513.28	654.96
513.64	667.57
514.00	680.29
514.37	693.17
514.73	706.29
515.09	719.38
515.45	732.68
515.81	746.25
516.17	760.30
516.53	774.38
516.89	788.59
517.25	802.83
517.61	817.27
517.97	831.79
518.33	846.29
518.69	861.11
519.05	876.08
519.41	891.24
519.77	906.87
520.13	922.44
520.49	937.84
520.85	953.26
521.21	968.92
521.57	985.32
521.93	1001.15
522.29	1017.67
522.65	1033.91
523.01	1050.22
523.37	1066.33
523.73	1082.56
524.09	1098.75
524.45	1115.17
524.81	1131.88
525.17	1148.79
525.53	1165.71
525.89	1182.68
526.25	1199.54
526.61	1216.04
526.97	1232.86
527.33	1249.41
527.68	1266.11
528.04	1282.72
528.40	1299.51
528.76	1316.77
529.12	1333.35
529.48	1350.28
529.84	1366.27
530.20	1383.08
530.56	1400.11
530.91	1417.58
531.27	1434.50
531.63	1451.03
531.99	1467.65
532.35	1483.72
532.71	1499.55
533.07	1515.89
533.42	1531.74
533.78	1547.83
534.14	1564.19
534.50	1579.61
534.86	1595.67
535.21	1610.76
535.57	1626.69
535.93	1642.23
536.29	1656.94
536.65	1672.17
537.00	1687.25
537.36	1702.58
537.72	1717.13
538.08	1731.70
538.44	1745.54
538.79	1759.38
539.15	1773.20
539.51	1787.00
539.87	1801.34
540.22	1815.18
540.58	1829.07
540.94	1842.54
541.29	1855.57
541.65	1868.45
542.01	1881.71
542.37	1893.88
542.72	1906.47
543.08	1918.22
543.44	1930.71
543.79	1941.98
544.15	1952.89
544.51	1964.38
544.87	1975.43
545.22	1986.25
545.58	1996.27
545.94	2006.15
546.29	2016.05
546.65	2025.83
547.01	2035.14
547.36	2044.05
547.72	2052.54
548.07	2060.31
548.43	2068.61
548.79	2076.61
549.14	2084.07
549.50	2091.65
549.86	2099.64
550.21	2107.07
550.57	2114.37
550.92	2120.90
551.28	2128.05
551.64	2135.16
551.99	2141.66
552.35	2147.86
552.70	2154.03
553.06	2160.06
553.41	2166.35
553.77	2172.54
554.13	2178.81
554.48	2184.93
554.84	2190.17
555.19	2195.60
555.55	2200.71
555.90	2205.01
556.26	2209.91
556.61	2214.70
556.97	2218.75
557.32	2222.57
557.68	2226.46
558.03	2230.78
558.39	2234.46
558.74	2239.13
559.10	2242.98
559.45	2246.62
559.81	2250.99
560.16	2254.66
560.52	2258.08
560.87	2261.53
561.23	2264.04
561.58	2266.86
561.94	2269.42
562.29	2271.99
562.64	2274.50
563.00	2277.14
563.35	2280.63
563.71	2283.67
564.06	2286.73
564.42	2289.58
564.77	2292.09
565.12	2294.23
565.48	2296.03
565.83	2297.81
566.19	2299.13
566.54	2300.05
566.89	2301.12
567.25	2301.64
567.60	2302.96
567.96	2304.53
568.31	2305.40
568.66	2306.38
569.02	2306.97
569.37	2307.10
569.72	2307.82
570.08	2307.93
570.43	2307.86
570.78	2307.25
571.14	2305.84
571.49	2304.52
571.84	2304.17
572.20	2302.84
572.55	2301.87
572.90	2300.36
573.26	2298.95
573.61	2297.07
573.96	2295.25
574.31	2292.23
574.67	2289.06
575.02	2285.41
575.37	2281.87
575.72	2278.04
576.08	2274.79
576.43	2271.31
576.78	2267.60
577.13	2264.35
577.49	2261.23
577.84	2257.70
578.19	2253.80
578.54	2249.93
578.90	2245.56
579.25	2240.00
579.60	2235.08
579.95	2230.07
580.30	2224.86
580.66	2219.62
581.01	2214.55
581.36	2209.42
581.71	2205.14
582.06	2200.58
582.42	2196.06
582.77	2190.94
583.12	2186.10
583.47	2181.08
583.82	2175.98
584.17	2170.53
584.53	2164.84
584.88	2159.11
585.23	2153.15
585.58	2147.80
585.93	2142.39
586.28	2137.64
586.63	2132.42
586.98	2127.23
587.34	2122.41
587.69	2117.61
588.04	2112.25
588.39	2106.46
588.74	2100.02
589.09	2093.92
589.44	2087.10
589.79	2080.96
590.14	2075.20
590.49	2068.66
590.84	2062.22
591.19	2056.12
591.54	2049.76
591.89	2042.30
592.25	2035.32
592.60	2028.17
592.95	2020.39
593.30	2012.92
593.65	2005.16
594.00	1998.08
594.35	1990.87
594.70	1982.74
595.05	1975.26
595.40	1967.96
595.75	1960.51
596.10	1954.11
596.45	1947.04
596.80	1940.79
597.15	1934.00
597.50	1926.72
597.85	1920.14
598.19	1913.44
598.54	1906.22
598.89	1899.56
599.24	1893.73
599.59	1887.20
599.94	1880.94
600.29	1874.54
600.64	1867.85
600.99	1860.28
601.34	1853.39
601.69	1846.41
602.04	1839.32
602.39	1832.00
602.74	1825.10
603.08	1818.28
603.43	1811.63
603.78	1804.40
604.13	1797.19
604.48	1789.95
604.83	1783.11
605.18	1776.06
605.53	1767.98
605.87	1759.91
606.22	1752.66
606.57	1744.61
606.92	1737.07
607.27	1729.81
607.62	1723.04
607.96	1715.71
608.31	1709.12
608.66	1701.48
609.01	1693.85
609.36	1686.32
609.70	1678.23
610.05	1670.13
610.40	1662.42
610.75	1654.10
611.10	1646.49
611.44	1638.11
611.79	1630.15
612.14	1621.51
612.49	1612.47
612.83	1604.19
613.18	1596.16
613.53	1587.94
613.88	1579.43
614.22	1571.16
614.57	1562.60
614.92	1554.38
615.27	1546.66
615.61	1538.33
615.96	1530.24
616.31	1522.59
616.65	1515.40
617.00	1507.79
617.35	1500.16
617.70	1491.70
618.04	1483.11
618.39	1474.84
618.74	1467.09
619.08	1458.75
619.43	1451.02
619.78	1444.05
620.12	1436.88
620.47	1429.27
620.82	1421.22
621.16	1413.87
621.51	1406.35
621.85	1398.72
622.20	1390.14
622.55	1382.03
622.89	1374.19
623.24	1366.69
623.59	1359.30
623.93	1351.71
624.28	1344.48
624.62	1336.88
624.97	1329.74
625.32	1323.00
625.66	1315.95
626.01	1308.80
626.35	1301.36
626.70	1293.57
627.04	1285.74
627.39	1278.00
627.73	1270.64
628.08	1263.58
628.43	1256.06
628.77	1248.54
629.12	1240.95
629.46	1233.86
629.81	1226.34
630.15	1219.06
630.50	1211.58
630.84	1203.44
631.19	1195.65
631.53	1188.16
631.88	1180.72
632.22	1173.18
632.57	1165.93
632.91	1158.37
633.26	1151.11
633.60	1143.81
633.95	1136.97
634.29	1130.00
634.64	1123.33
634.98	1115.97
635.32	1108.92
635.67	1102.38
636.01	1095.80
636.36	1089.02
636.70	1082.56
637.05	1076.04
637.39	1069.70
637.73	1063.20
638.08	1057.28
638.42	1051.20
638.77	1044.86
639.11	1038.18
639.45	1031.80
639.80	1025.08
640.14	1018.62
640.49	1011.92
640.83	1005.58
641.17	999.23
641.52	992.90
641.86	986.43
642.20	980.62
642.55	974.32
642.89	967.82
643.23	961.35
643.58	955.52
643.92	949.25
644.26	943.12
644.61	937.13
644.95	931.02
645.29	924.40
645.64	917.69
645.98	911.31
646.32	905.50
646.66	899.48
647.01	893.68
647.35	888.00
647.69	882.27
648.04	876.69
648.38	870.85
648.72	864.82
649.06	858.79
649.41	852.83
649.75	846.88
650.09	840.99
650.43	835.16
650.78	829.08
651.12	823.16
651.46	817.44
651.80	811.59
652.14	806.21
652.49	800.86
652.83	795.73
653.17	790.03
653.51	784.27
653.85	778.86
654.20	773.26
654.54	767.36
654.88	761.68
655.22	755.86
655.56	750.28
655.90	744.87
656.25	739.55
656.59	734.23
656.93	729.10
657.27	724.01
657.61	718.63
657.95	713.51
658.29	708.37
658.64	703.22
658.98	697.93
659.32	692.51
659.66	687.28
660.00	681.97
660.34	677.07
660.68	672.17
661.02	667.18
661.36	662.44
661.70	657.94
662.05	653.50
662.39	649.16
662.73	644.70
663.07	640.34
663.41	636.03
663.75	631.55
664.09	627.03
664.43	622.59
664.77	618.45
665.11	614.16
665.45	610.05
665.79	605.97
666.13	601.81
666.47	597.74
666.81	593.58
667.15	589.41
667.49	585.61
667.83	581.92
668.17	578.00
668.51	573.96
668.85	569.94
669.19	566.10
669.53	562.29
669.87	558.34
670.21	554.62
670.55	550.95
670.89	547.54
671.23	544.11
671.57	540.63
671.91	537.14
672.25	533.72
672.58	530.26
672.92	526.83
673.26	523.70
673.60	520.54
673.94	517.49
674.28	514.68
674.62	511.60
674.96	508.40
675.30	505.45
675.64	502.50
675.97	499.77
676.31	496.97
676.65	494.04
676.99	491.35
677.33	488.54
677.67	485.72
678.01	482.65
678.34	479.68
678.68	476.81
679.02	473.94
679.36	471.20
679.70	468.48
680.04	465.73
680.37	462.86
680.71	460.08
681.05	457.48
681.39	454.70
681.73	452.08
682.06	449.59
682.40	447.04
682.74	444.50
683.08	441.94
683.42	439.27
683.75	436.83
684.09	434.32
684.43	431.91
684.77	429.42
685.10	427.13
685.44	424.85
685.78	422.60
686.12	420.43
686.45	418.18
686.79	415.88
687.13	413.70
687.46	411.59
687.80	409.50
688.14	407.26
688.48	405.26
688.81	403.03
689.15	400.84
689.49	398.76
689.82	396.68
690.16	394.60
690.50	392.68
690.83	390.68
691.17	388.69
691.51	386.71
691.84	384.90
692.18	382.96
692.52	381.02
692.85	379.08
693.19	377.18
693.52	375.34
693.86	373.55
694.20	371.76
694.53	369.96
694.87	368.09
695.21	366.33
695.54	364.42
695.88	362.75
696.21	361.06
696.55	359.37
696.88	357.72
697.22	356.05
697.56	354.42
697.89	352.78
698.23	351.15
698.56	349.58
698.90	347.93
699.23	346.27
699.57	344.73
699.90	343.19
700.24	341.61
700.58	340.07
700.91	338.56
701.25	337.11
701.58	335.73
701.92	334.37
702.25	332.99
702.59	331.70
702.92	330.35
703.26	329.02
703.59	327.73
703.93	326.53
704.26	325.35
704.60	324.07
704.93	322.83
705.26	321.62
705.60	320.42
705.93	319.33
706.27	318.27
706.60	317.21
706.94	316.14
707.27	315.05
707.61	314.00
707.94	313.03
708.27	311.95
708.61	310.92
708.94	309.90
709.28	308.97
709.61	308.00
709.94	307.07
710.28	306.08
710.61	305.12
710.95	304.06
711.28	303.12
711.61	302.16
711.95	301.26
712.28	300.34
712.61	299.34
712.95	298.38
713.28	297.54
713.61	296.62
713.95	295.75
714.28	294.92
714.61	294.06
714.95	293.20
715.28	292.34
715.61	291.44
715.95	290.62
716.28	289.77
716.61	288.93
716.95	288.10
717.28	287.30
717.61	286.49
717.94	285.79
718.28	285.03
718.61	284.34
718.94	283.62
719.27	282.95
719.61	282.35
719.94	281.69
720.27	280.97
720.60	280.31
720.94	279.69
721.27	279.11
721.60	278.55
721.93	277.96
722.27	277.42
722.60	276.86
722.93	276.27
723.26	275.72
723.59	275.17
723.93	274.63
724.26	274.10
724.59	273.59
724.92	273.05
725.25	272.54
725.59	272.01
725.92	271.50
726.25	270.98
726.58	270.47
726.91	269.96
727.24	269.49
727.57	269.07
727.91	268.53
728.24	268.03
728.57	267.51
728.90	267.06
729.23	266.56
729.56	266.13
729.89	265.65
730.22	265.15
730.55	264.67
730.89	264.24
731.22	263.81
731.55	263.35
731.88	262.90
732.21	262.44
732.54	261.99
732.87	261.58
733.20	261.19
733.53	260.82
733.86	260.45
734.19	260.03
734.52	259.58
734.85	259.30
735.18	258.90
735.51	258.52
735.84	258.13
736.17	257.78
736.50	257.37
736.83	257.13
737.16	256.81
737.49	256.47
737.82	256.12
738.15	255.77
738.48	255.45
738.81	255.13
739.14	254.78
739.47	254.47
739.80	254.13
740.13	253.81
740.46	253.46
740.79	253.14
741.12	252.82
741.45	252.54
741.78	252.15
742.11	251.84
742.44	251.51
742.77	251.20
743.10	250.88
743.43	250.59
743.75	250.19
744.08	250.03
744.41	249.77
744.74	249.47
745.07	249.22
745.40	248.94
745.73	248.70
746.06	248.44
746.39	248.21
746.71	247.94
747.04	247.65
747.37	247.38
747.70	247.13
748.03	246.88
748.36	246.66
748.68	246.45
749.01	246.21
749.34	246.03
749.67	245.81
750.00	245.60
750.33	245.46
750.65	245.32
750.98	244.99
751.31	244.79
751.64	244.64
751.97	244.47
752.29	244.30
752.62	244.09
752.95	243.91
753.28	243.70
753.60	243.54
753.93	243.40
754.26	243.24
754.59	243.01
754.91	242.83
755.24	242.64
755.57	242.44
755.90	242.24
756.22	242.07
756.55	241.91
756.88	241.71
757.20	241.48
757.53	241.25
757.86	241.07
758.19	240.90
758.51	240.69
758.84	240.50
759.17	240.32
759.49	240.16
759.82	240.04
760.15	239.89
760.47	239.73
760.80	239.56
761.13	239.45
761.45	239.31
761.78	239.14
762.11	239.00
762.43	238.84
762.76	238.73
763.08	238.56
763.41	238.40
763.74	238.25
764.06	238.10
764.39	237.96
764.71	237.78
765.04	237.63
765.37	237.49
765.69	237.33
766.02	237.19
766.34	237.04
766.67	236.88
767.00	236.75
767.32	236.65
767.65	236.57
767.97	236.43
768.30	236.30
768.62	236.17
768.95	235.98
769.27	235.88
769.60	235.78
769.92	235.64
770.25	235.51
770.57	235.41
770.90	235.30
771.22	235.18
771.55	235.12
771.87	235.02
772.20	234.89
772.52	234.88
772.85	234.89
773.17	234.77
773.50	234.67
773.82	234.56
774.15	234.41
774.47	234.24
774.80	234.13
775.12	234.02
775.45	233.94
775.77	233.91
776.09	233.80
776.42	233.69
776.74	233.65
777.07	233.57
777.39	233.45
777.72	233.36
778.04	233.31
778.36	233.22
778.69	233.17
779.01	233.11
779.33	232.95
779.66	232.77
779.98	232.72
780.31	232.60
780.63	232.57
780.95	232.53
781.28	232.46
781.60	232.39
781.92	232.34
782.25	232.30
782.57	232.21
782.89	232.15
783.22	232.09
783.54	232.01
783.86	231.98
784.19	231.98
784.51	231.95
784.83	231.90
785.16	231.82
785.48	231.77
785.80	231.75
786.12	231.72
786.45	231.68
786.77	231.65
787.09	231.65
787.42	231.60
787.74	231.54
788.06	231.52
788.38	231.47
788.71	231.43
789.03	231.42
789.35	231.43
789.67	231.41
789.99	231.38
790.32	231.33
790.64	231.29
790.96	231.31
791.28	231.26
791.61	231.21
791.93	231.21
792.25	231.15
792.57	231.16
792.89	231.13
793.21	231.09
793.54	231.05
793.86	231.02
794.18	231.00
794.50	230.97
794.82	230.96
795.14	230.96
795.47	230.98
795.79	230.96
796.11	230.93
796.43	230.92
796.75	230.90
797.07	230.89
797.39	230.88
797.71	230.82
798.04	230.82
798.36	230.82
798.68	230.80
799.00	230.79
799.32	230.74
799.64	230.70
799.96	230.68
800.28	230.68
800.60	230.63
800.92	230.58
801.24	230.56
801.56	230.52
801.89	230.46
802.21	230.40
802.53	230.32
802.85	230.30
803.17	230.31
803.49	230.25
803.81	230.17
804.13	230.11
804.45	230.06
804.77	230.04
805.09	230.00
805.41	229.96
805.73	229.91
806.05	229.83
806.37	229.84
806.69	229.80
807.01	229.76
807.33	229.75
807.65	229.71
807.97	229.72
808.28	229.69
808.60	229.68
808.92	229.67
809.24	229.70
809.56	229.64
809.88	229.56
810.20	229.55
810.52	229.56
810.84	229.53
811.16	229.47
811.48	229.43
811.80	229.44
812.12	229.41
812.43	229.41
812.75	229.41
813.07	229.32
813.39	229.33
813.71	229.28
814.03	229.25
814.35	229.22
814.67	229.17
814.98	229.11
815.30	229.07
815.62	229.02
815.94	228.95
816.26	228.95
816.58	228.88
816.89	228.88
817.21	228.85
817.53	228.82
817.85	228.81
818.17	228.79
818.48	228.72
818.80	228.72
819.12	228.71
819.44	228.70
819.76	228.71
820.07	228.68
820.39	228.64
820.71	228.63
821.03	228.62
821.34	228.58
821.66	228.60
821.98	228.62
822.30	228.57
822.61	228.64
822.93	228.58
823.25	228.58
823.57	228.54
823.88	228.57
824.20	228.57
824.52	228.57
824.83	228.54
825.15	228.52
825.47	228.48
825.79	228.46
826.10	228.45
826.42	228.40
826.74	228.39
827.05	228.40
827.37	228.41
827.69	228.38
828.00	228.35
828.32	228.33
828.64	228.30
828.95	228.38
829.27	228.34
829.58	228.35
829.90	228.37
830.22	228.38
830.53	228.33
830.85	228.32
831.17	228.32
831.48	228.32
831.80	228.30
832.11	228.30
832.43	228.28
832.75	228.25
833.06	228.31
833.38	228.29
833.69	228.29
834.01	228.24
834.32	228.25
834.64	228.24
834.96	228.25
835.27	228.25
835.59	228.20
835.90	228.16
836.22	228.15
836.53	228.13
836.85	228.10
837.16	228.21
837.48	228.21
837.79	228.23
838.11	228.24
838.42	228.29
838.74	228.28
839.05	228.28
839.37	228.27
839.68	228.20
840.00	228.17
840.31	228.15
840.63	228.15
840.94	228.12
841.26	228.11
841.57	228.08
841.88	228.08
842.20	228.06
842.51	228.03
842.83	228.01
843.14	228.11
843.46	228.11
843.77	228.04
844.08	228.05
844.40	228.03
844.71	227.99
845.03	227.96
845.34	227.95
845.65	227.92
845.97	227.90
846.28	227.89
846.60	227.91
846.91	227.91
847.22	227.90
847.54	227.93
847.85	227.92
848.16	227.92
848.48	227.90
848.79	227.91
849.10	227.93
849.42	227.94
849.73	227.80
850.04	227.77
850.36	227.72
850.67	227.71
850.98	227.71
851.30	227.71
851.61	227.69
851.92	227.69
852.23	227.72
852.55	227.76
852.86	227.77
853.17	227.72
853.49	227.71
853.80	227.76
854.11	227.75
854.42	227.78
854.74	227.77
855.05	227.76
855.36	227.70
855.67	227.72
855.99	227.72
856.30	227.82
856.61	227.81
856.92	227.80
857.23	227.77
857.55	227.73
857.86	227.70
858.17	227.71
858.48	227.69
858.79	227.65
859.11	227.66
859.42	227.66
859.73	227.68
860.04	227.68
860.35	227.61
860.66	227.56
860.98	227.56
861.29	227.58
861.60	227.61
861.91	227.63
862.22	227.59
862.53	227.55
862.84	227.47
863.16	227.51
863.47	227.50
863.78	227.48
864.09	227.50
864.40	227.53
864.71	227.53
865.02	227.55
865.33	227.54
865.64	227.50
865.95	227.51
866.27	227.58
866.58	227.58
866.89	227.60
867.20	227.63
867.51	227.62
867.82	227.63
868.13	227.62
868.44	227.61
868.75	227.66
869.06	227.71
869.37	227.73
869.68	227.71
869.99	227.72
870.30	227.76
870.61	227.76
870.92	227.74
871.23	227.73
871.54	227.76
871.85	227.80
872.16	227.84
872.47	227.79
872.78	227.76
873.09	227.76
873.40	227.78
873.71	227.80
874.02	227.80
874.33	227.79
874.64	227.80
874.95	227.82
875.26	227.80
875.56	227.77
875.87	227.78
876.18	227.77
876.49	227.87
876.80	227.86
877.11	227.85
877.42	227.84
877.73	227.83
878.04	227.80
878.35	227.78
878.66	227.72
878.96	227.73
879.27	227.67
879.58	227.65
879.89	227.60
880.20	227.58
880.51	227.61
880.82	227.59
881.12	227.56
881.43	227.55
881.74	227.52
882.05	227.51
882.36	227.53
882.67	227.54
882.97	227.44
883.28	227.40
883.59	227.38
883.90	227.38
884.21	227.42
884.51	227.38
884.82	227.37
885.13	227.39
885.44	227.41
885.74	227.41
886.05	227.39
886.36	227.39
886.67	227.38
886.98	227.40
887.28	227.39
887.59	227.39
887.90	227.37
888.20	227.38
888.51	227.37
888.82	227.32
889.13	227.32
889.43	227.38
889.74	227.36
890.05	227.38
890.35	227.35
890.66	227.31
890.97	227.31
891.28	227.30
891.58	227.29
891.89	227.29
892.20	227.28
892.50	227.30
892.81	227.28
893.12	227.26
893.42	227.20
893.73	227.21
894.04	227.18
894.34	227.19
894.65	227.18
894.95	227.19
895.26	227.17
895.57	227.19
895.87	227.11
896.18	227.16
896.48	227.14
896.79	227.13
897.10	227.16
897.40	227.17
897.71	227.17
898.01	227.18
898.32	227.17
898.63	227.17
898.93	227.14
899.24	227.15
899.54	227.15
899.85	227.13
900.15	227.11
900.46	227.14
900.76	227.16
901.07	227.16
901.38	227.14
901.68	227.17
901.99	227.14
902.29	227.15
902.60	227.12
902.90	227.10
903.21	227.13
903.51	227.13
903.82	227.16
904.12	227.17
904.43	227.18
904.73	227.17
905.03	227.23
905.34	227.35
905.64	227.36
905.95	227.38
906.25	227.42
906.56	227.44
906.86	227.45
907.17	227.46
907.47	227.46
907.77	227.46
908.08	227.43
908.38	227.46
908.69	227.49
908.99	227.54
909.30	227.56
909.60	227.56
909.90	227.57
910.21	227.53
910.51	227.55
910.81	227.55
911.12	227.57
911.42	227.56
911.73	227.48
912.03	227.48
912.33	227.52
912.64	227.51
912.94	227.50
913.24	227.50
913.55	227.47
913.85	227.49
914.15	227.52
914.46	227.55
914.76	227.52
915.06	227.52
915.37	227.49
915.67	227.50
915.97	227.47
916.27	227.42
916.58	227.46
916.88	227.44
917.18	227.42
917.49	227.49
917.79	227.48
918.09	227.48
918.39	227.53
918.70	227.48
919.00	227.48
919.30	227.52
919.60	227.48
919.91	227.47
920.21	227.48
920.51	227.47
920.81	227.45
921.12	227.45
921.42	227.44
921.72	227.44
922.02	227.42
922.32	227.44
922.63	227.46
922.93	227.48
923.23	227.47
923.53	227.44
923.83	227.40
924.13	227.37
924.44	227.38
924.74	227.36
925.04	227.36
925.34	227.35
925.64	227.29
925.94	227.29
926.24	227.32
926.55	227.28
926.85	227.28
927.15	227.28
927.45	227.28
927.75	227.27
928.05	227.29
928.35	227.30
928.65	227.33
928.95	227.34
929.26	227.30
929.56	227.32
929.86	227.34
930.16	227.29
930.46	227.29
930.76	227.27
931.06	227.23
931.36	227.20
931.66	227.21
931.96	227.22
932.26	227.25
932.56	227.23
932.86	227.25
933.16	227.21
933.46	227.22
933.76	227.21
934.06	227.23
934.36	227.22
934.66	227.20
934.96	227.18
935.26	227.17
935.56	227.20
935.86	227.16
936.16	227.16
936.46	227.18
936.76	227.19
937.06	227.17
937.36	227.15
937.66	227.16
937.96	227.16
938.26	227.16
938.56	227.13
938.86	227.13
939.16	227.18
939.46	227.22
939.76	227.22
940.06	227.21
940.35	227.20
940.65	227.15
940.95	227.15
941.25	227.13
941.55	227.12
941.85	227.09
942.15	227.13
942.45	227.15
942.75	227.13
943.04	227.14
943.34	227.16
943.64	227.15
943.94	227.14
944.24	227.14
944.54	227.12
944.84	227.10
945.13	227.13
945.43	227.09
945.73	227.07
946.03	227.05
946.33	227.07
946.62	227.07
946.92	227.06
947.22	227.09
947.52	227.12
947.82	227.13
948.11	227.15
948.41	227.14
948.71	227.12
949.01	227.12
949.31	227.12
949.60	227.12
949.90	227.17
950.20	227.17
950.50	227.18
950.79	227.20
951.09	227.26
951.39	227.25
951.69	227.22
951.98	227.23
952.28	227.26
952.58	227.27
952.87	227.24
953.17	227.29
953.47	227.27
953.76	227.26
954.06	227.24
954.36	227.21
954.66	227.22
954.95	227.23
955.25	227.23
955.55	227.23
955.84	227.21
956.14	227.19
956.44	227.21
956.73	227.19
957.03	227.19
957.32	227.18
957.62	227.17
957.92	227.20
958.21	227.20
958.51	227.29
958.81	227.30
959.10	227.34
959.40	227.35
959.69	227.37
959.99	227.38
960.29	227.37
960.58	227.37
960.88	227.37
961.17	227.37
961.47	227.38
961.76	227.34
962.06	227.36
962.36	227.34
962.65	227.35
962.95	227.37
963.24	227.37
963.54	227.35
963.83	227.36
964.13	227.36
964.42	227.33
964.72	227.23
965.01	227.21
965.31	227.19
965.60	227.15
965.90	227.20
966.19	227.16
966.49	227.18
966.78	227.17
967.08	227.18
967.37	227.16
967.67	227.12
967.96	227.17
968.26	227.16
968.55	227.18
968.85	227.17
969.14	227.16
969.43	227.13
969.73	227.10
970.02	227.11
970.32	227.07
970.61	227.08
970.91	227.06
971.20	227.03
971.49	227.04
971.79	227.07
972.08	226.98
972.38	226.99
972.67	226.94
972.96	226.95
973.26	226.90
973.55	226.94
973.85	226.93
974.14	226.89
974.43	226.91
974.73	226.87
975.02	226.85
975.31	226.83
975.61	226.84
975.90	226.86
976.19	226.82
976.49	226.88
976.78	226.86
977.07	226.85
977.37	226.88
977.66	226.90
977.95	226.87
978.24	226.89
978.54	226.95
978.83	226.98
979.12	226.98
979.42	227.02
979.71	227.00
980.00	227.02
980.29	227.04
980.59	227.02
980.88	227.07
981.17	227.08
981.46	227.09
981.76	227.08
982.05	227.08
982.34	227.09
982.63	227.06
982.93	227.08
983.22	227.11
983.51	227.09
983.80	227.07
984.09	227.11
984.39	227.13
984.68	227.12
984.97	227.11
985.26	227.10
985.55	227.09
985.85	227.09
986.14	227.13
986.43	227.13
986.72	227.13
987.01	227.07
987.30	227.05
987.59	227.04
987.89	227.07
988.18	227.07
988.47	227.04
988.76	227.06
989.05	227.04
989.34	227.03
989.63	227.05
989.92	227.04
990.22	227.00
990.51	226.97
990.80	226.93
991.09	226.93
991.38	226.95
991.67	226.97
991.96	226.94
992.25	226.92
992.54	226.92
992.83	226.91
993.12	226.95
993.41	227.02
993.70	227.04
993.99	227.04
994.28	227.05
994.58	227.07
994.87	227.05
995.16	227.02
995.45	227.00
995.74	226.96
996.03	226.98
996.32	227.02
996.61	227.04
996.90	227.02
997.19	227.05
997.48	227.03
997.77	227.00
998.06	227.02
998.34	226.99
998.63	226.98
998.92	227.00
999.21	226.99
999.50	226.96
999.79	226.94
1000.08	226.92
1000.37	226.94
1000.66	226.96
1000.95	226.99
1001.24	226.98
1001.53	227.00
1001.82	227.00
1002.11	226.96
1002.40	226.92
1002.68	226.94
1002.97	227.04
1003.26	227.00
1003.55	227.00
1003.84	227.02
1004.13	227.04
1004.42	227.03
1004.71	227.03
1004.99	227.03
1005.28	227.07
1005.57	227.06
1005.86	227.06
1006.15	227.04
1006.44	227.01
1006.72	227.01
1007.01	226.98
1007.30	227.02
1007.59	227.03
1007.88	227.06
1008.17	227.05
1008.45	227.02
1008.74	227.00
1009.03	226.91
1009.32	226.93
1009.60	226.90
1009.89	226.88
1010.18	226.85
1010.47	226.86
1010.76	226.85
1011.04	226.88
1011.33	226.88
1011.62	226.90
1011.91	226.90
1012.19	226.91
1012.48	226.92
1012.77	226.89
1013.05	226.96
1013.34	226.95
1013.63	226.93
1013.92	226.94
1014.20	226.95
1014.49	227.01
1014.78	227.00
1015.06	227.03
1015.35	227.07
1015.64	227.14
1015.92	227.16
1016.21	227.18
1016.50	227.19
1016.78	227.20
1017.07	227.20
1017.36	227.15
1017.64	227.15
1017.93	227.18
1018.22	227.22
1018.50	227.23
1018.79	227.28
1019.08	227.22
1019.36	227.26
1019.65	227.26
1019.93	227.29
1020.22	227.36
1020.51	227.36
1020.79	227.38
1021.08	227.56
1021.36	227.16
1021.65	227.52
1021.94	227.06
1022.22	227.81
1022.51	226.92
1022.79	227.80
1023.08	227.83
1023.36	227.78
1023.65	227.35
>>>>>End Processed Spectral Data<<<<<
