SpectraSuite Data File
++++++++++++++++++++++++++++++++++++
Date: Fri Feb 01 15:42:28 EST 2013
User: group
Dark Spectrum Present: No
Reference Spectrum Present: No
Number of Sampled Component Spectra: 1
Spectrometers: USB2E7196
Integration Time (usec): 35000 (USB2E7196)
Spectra Averaged: 100 (USB2E7196)
Boxcar Smoothing: 10 (USB2E7196)
Correct for Electrical Dark: No (USB2E7196)
Strobe/Lamp Enabled: No (USB2E7196)
Correct for Detector Non-linearity: No (USB2E7196)
Correct for Stray Light: No (USB2E7196)
Number of Pixels in Processed Spectrum: 2048
>>>>>Begin Processed Spectral Data<<<<<
339.09	0.00
339.48	214.60
339.86	216.60
340.24	217.66
340.63	218.97
341.01	221.53
341.39	221.95
341.78	223.07
342.16	224.79
342.54	224.72
342.93	213.20
343.31	223.98
343.69	224.53
344.07	224.98
344.46	225.42
344.84	225.78
345.22	226.05
345.60	226.30
345.99	226.51
346.37	226.63
346.75	226.73
347.13	226.80
347.52	226.89
347.90	226.96
348.28	227.02
348.66	227.08
349.05	227.09
349.43	227.10
349.81	227.16
350.19	227.21
350.57	227.27
350.96	227.39
351.34	227.46
351.72	227.54
352.10	227.65
352.48	227.74
352.87	227.84
353.25	227.91
353.63	227.97
354.01	228.03
354.39	228.12
354.77	228.21
355.15	228.33
355.54	228.38
355.92	228.41
356.30	228.47
356.68	228.59
357.06	228.66
357.44	228.72
357.82	228.74
358.20	228.79
358.58	228.87
358.97	228.90
359.35	228.99
359.73	229.08
360.11	229.11
360.49	229.15
360.87	229.18
361.25	229.20
361.63	229.26
362.01	229.28
362.39	229.28
362.77	229.31
363.15	229.32
363.53	229.31
363.91	229.31
364.29	229.33
364.67	229.26
365.05	229.25
365.43	229.25
365.81	229.29
366.19	229.36
366.57	229.34
366.95	229.35
367.33	229.29
367.71	229.25
368.09	229.27
368.47	229.25
368.85	229.24
369.23	229.25
369.61	229.19
369.99	229.18
370.37	229.16
370.75	229.15
371.13	229.09
371.51	229.02
371.89	229.02
372.27	228.99
372.65	228.93
373.03	228.92
373.41	228.86
373.78	228.78
374.16	228.61
374.54	228.54
374.92	228.44
375.30	228.38
375.68	228.31
376.06	228.23
376.44	228.15
376.82	228.09
377.19	227.99
377.57	227.93
377.95	227.83
378.33	227.72
378.71	227.59
379.09	227.53
379.47	227.51
379.84	227.41
380.22	227.30
380.60	227.23
380.98	227.15
381.36	227.07
381.73	227.02
382.11	226.99
382.49	226.95
382.87	226.87
383.25	226.81
383.62	226.87
384.00	226.81
384.38	226.70
384.76	226.64
385.13	226.65
385.51	226.60
385.89	226.55
386.27	226.53
386.64	226.52
387.02	226.45
387.40	226.40
387.78	226.36
388.15	226.35
388.53	226.33
388.91	226.28
389.29	226.24
389.66	226.19
390.04	226.15
390.42	226.15
390.79	226.15
391.17	226.12
391.55	225.99
391.92	225.99
392.30	226.04
392.68	225.99
393.05	225.97
393.43	225.99
393.81	226.00
394.18	226.01
394.56	226.03
394.94	226.11
395.31	226.10
395.69	226.16
396.06	226.21
396.44	226.25
396.82	226.28
397.19	226.39
397.57	226.44
397.95	226.52
398.32	226.53
398.70	226.58
399.07	226.70
399.45	226.76
399.82	226.84
400.20	226.90
400.58	227.02
400.95	227.06
401.33	227.14
401.70	227.32
402.08	227.41
402.45	227.49
402.83	227.62
403.20	227.74
403.58	227.84
403.95	227.97
404.33	228.10
404.71	228.24
405.08	228.40
405.46	228.53
405.83	228.69
406.21	228.85
406.58	229.04
406.96	229.17
407.33	229.37
407.70	229.57
408.08	229.83
408.45	230.05
408.83	230.29
409.20	230.50
409.58	230.63
409.95	230.87
410.33	231.12
410.70	231.31
411.08	231.63
411.45	231.95
411.82	232.25
412.20	232.63
412.57	233.02
412.95	233.32
413.32	233.73
413.69	234.14
414.07	234.55
414.44	235.01
414.82	235.51
415.19	236.03
415.56	236.54
415.94	237.10
416.31	237.70
416.68	238.33
417.06	239.07
417.43	239.80
417.81	240.62
418.18	241.41
418.55	242.28
418.93	243.11
419.30	243.99
419.67	244.90
420.04	245.83
420.42	246.81
420.79	248.00
421.16	249.17
421.54	250.37
421.91	251.62
422.28	252.88
422.66	254.19
423.03	255.53
423.40	256.87
423.77	258.27
424.15	259.70
424.52	261.16
424.89	262.75
425.26	264.29
425.64	265.71
426.01	267.30
426.38	268.99
426.75	270.63
427.13	272.35
427.50	274.19
427.87	276.09
428.24	277.97
428.61	279.73
428.99	281.68
429.36	283.74
429.73	285.78
430.10	287.79
430.47	289.89
430.85	291.99
431.22	294.25
431.59	296.61
431.96	298.91
432.33	301.42
432.70	303.83
433.08	306.65
433.45	309.33
433.82	311.91
434.19	314.81
434.56	317.64
434.93	320.31
435.30	322.96
435.68	325.83
436.05	328.66
436.42	331.47
436.79	334.01
437.16	336.75
437.53	339.59
437.90	342.41
438.27	345.15
438.64	348.02
439.01	350.61
439.38	352.87
439.75	355.00
440.13	357.46
440.50	359.82
440.87	361.68
441.24	363.62
441.61	365.81
441.98	367.26
442.35	369.09
442.72	370.93
443.09	372.73
443.46	373.74
443.83	374.31
444.20	374.75
444.57	375.57
444.94	375.85
445.31	376.17
445.68	376.56
446.05	376.60
446.42	376.16
446.79	375.76
447.16	375.32
447.53	374.96
447.90	373.88
448.27	372.68
448.64	371.09
449.01	369.93
449.37	367.99
449.74	366.12
450.11	363.84
450.48	361.41
450.85	358.87
451.22	356.73
451.59	354.71
451.96	352.79
452.33	350.22
452.70	347.85
453.07	345.03
453.43	342.08
453.80	339.36
454.17	336.69
454.54	334.11
454.91	331.35
455.28	328.70
455.65	326.13
456.02	323.65
456.38	321.48
456.75	318.85
457.12	316.59
457.49	314.34
457.86	312.18
458.23	310.28
458.59	308.17
458.96	306.09
459.33	304.22
459.70	302.37
460.07	300.85
460.43	299.14
460.80	297.50
461.17	296.08
461.54	294.53
461.91	293.11
462.27	291.64
462.64	290.43
463.01	289.07
463.38	287.81
463.74	286.50
464.11	285.28
464.48	284.23
464.85	283.09
465.21	282.21
465.58	281.31
465.95	280.21
466.32	279.33
466.68	278.40
467.05	277.54
467.42	276.64
467.78	275.71
468.15	274.82
468.52	274.21
468.88	273.34
469.25	272.60
469.62	272.03
469.98	271.37
470.35	270.72
470.72	270.13
471.08	269.50
471.45	268.93
471.82	268.39
472.18	267.79
472.55	267.39
472.92	266.88
473.28	266.35
473.65	265.90
474.02	265.48
474.38	265.11
474.75	264.76
475.11	264.40
475.48	264.11
475.85	263.89
476.21	263.65
476.58	263.47
476.94	263.32
477.31	263.11
477.67	262.98
478.04	262.88
478.41	262.83
478.77	262.84
479.14	262.75
479.50	262.80
479.87	262.87
480.23	262.92
480.60	263.03
480.96	263.18
481.33	263.41
481.69	263.61
482.06	263.85
482.42	264.09
482.79	264.40
483.15	264.73
483.52	265.10
483.88	265.45
484.25	265.82
484.61	266.29
484.98	266.74
485.34	267.29
485.71	267.89
486.07	268.51
486.44	269.08
486.80	269.80
487.17	270.54
487.53	271.38
487.90	272.23
488.26	273.17
488.62	274.15
488.99	275.13
489.35	276.13
489.72	277.25
490.08	278.43
490.44	279.66
490.81	280.98
491.17	282.32
491.54	283.78
491.90	285.33
492.26	286.93
492.63	288.65
492.99	290.42
493.36	292.31
493.72	294.34
494.08	296.48
494.45	298.76
494.81	301.09
495.17	303.52
495.54	306.10
495.90	308.78
496.26	311.61
496.63	314.57
496.99	317.71
497.35	320.97
497.72	324.36
498.08	327.85
498.44	331.56
498.80	335.52
499.17	339.59
499.53	343.72
499.89	348.15
500.26	352.69
500.62	357.38
500.98	362.38
501.34	367.47
501.71	372.73
502.07	378.19
502.43	383.84
502.79	389.64
503.16	395.67
503.52	401.90
503.88	408.29
504.24	414.91
504.60	421.79
504.97	428.89
505.33	436.23
505.69	443.98
506.05	451.73
506.41	459.64
506.78	467.79
507.14	476.32
507.50	484.99
507.86	494.00
508.22	503.22
508.59	512.40
508.95	522.00
509.31	531.84
509.67	541.88
510.03	552.14
510.39	562.69
510.75	573.44
511.12	584.38
511.48	595.70
511.84	607.19
512.20	618.71
512.56	630.63
512.92	642.84
513.28	655.13
513.64	667.69
514.00	680.29
514.37	693.24
514.73	706.30
515.09	719.38
515.45	732.71
515.81	746.32
516.17	760.29
516.53	774.32
516.89	788.50
517.25	802.72
517.61	817.09
517.97	831.58
518.33	846.14
518.69	860.98
519.05	875.89
519.41	891.07
519.77	906.67
520.13	922.22
520.49	937.54
520.85	952.96
521.21	968.62
521.57	985.03
521.93	1000.70
522.29	1017.09
522.65	1033.21
523.01	1049.38
523.37	1065.40
523.73	1081.57
524.09	1097.71
524.45	1114.06
524.81	1130.67
525.17	1147.55
525.53	1164.42
525.89	1181.29
526.25	1198.06
526.61	1214.50
526.97	1231.22
527.33	1247.65
527.68	1264.23
528.04	1280.75
528.40	1297.40
528.76	1314.46
529.12	1330.90
529.48	1347.86
529.84	1363.79
530.20	1380.57
530.56	1397.71
530.91	1415.02
531.27	1431.80
531.63	1448.25
531.99	1464.84
532.35	1480.79
532.71	1496.80
533.07	1513.13
533.42	1529.04
533.78	1545.07
534.14	1561.41
534.50	1576.73
534.86	1592.67
535.21	1607.83
535.57	1623.79
535.93	1639.32
536.29	1654.11
536.65	1669.29
537.00	1684.04
537.36	1699.52
537.72	1713.93
538.08	1728.29
538.44	1742.15
538.79	1756.06
539.15	1769.72
539.51	1783.51
539.87	1797.87
540.22	1811.60
540.58	1825.44
540.94	1838.72
541.29	1851.78
541.65	1864.32
542.01	1877.56
542.37	1889.99
542.72	1902.48
543.08	1914.23
543.44	1926.54
543.79	1937.75
544.15	1948.66
544.51	1960.33
544.87	1971.20
545.22	1982.15
545.58	1992.32
545.94	2002.09
546.29	2011.96
546.65	2021.86
547.01	2030.97
547.36	2039.75
547.72	2048.04
548.07	2055.73
548.43	2063.90
548.79	2071.93
549.14	2079.68
549.50	2087.00
549.86	2094.52
550.21	2101.88
550.57	2109.04
550.92	2115.72
551.28	2122.82
551.64	2129.87
551.99	2136.29
552.35	2142.53
552.70	2148.64
553.06	2154.71
553.41	2161.06
553.77	2167.04
554.13	2173.15
554.48	2179.32
554.84	2184.61
555.19	2190.10
555.55	2195.27
555.90	2199.64
556.26	2204.38
556.61	2209.01
556.97	2213.43
557.32	2217.56
557.68	2221.62
558.03	2225.94
558.39	2229.71
558.74	2234.35
559.10	2238.33
559.45	2241.97
559.81	2246.19
560.16	2250.06
560.52	2253.17
560.87	2256.62
561.23	2259.30
561.58	2262.38
561.94	2264.83
562.29	2267.37
562.64	2269.98
563.00	2272.54
563.35	2276.15
563.71	2279.28
564.06	2282.55
564.42	2285.31
564.77	2287.80
565.12	2289.92
565.48	2291.78
565.83	2293.46
566.19	2294.70
566.54	2295.47
566.89	2296.64
567.25	2297.23
567.60	2298.46
567.96	2300.09
568.31	2300.98
568.66	2302.07
569.02	2302.39
569.37	2302.83
569.72	2303.63
570.08	2303.65
570.43	2303.80
570.78	2303.21
571.14	2301.61
571.49	2300.18
571.84	2299.83
572.20	2298.55
572.55	2297.71
572.90	2296.15
573.26	2294.87
573.61	2293.17
573.96	2291.47
574.31	2288.45
574.67	2285.36
575.02	2281.68
575.37	2278.40
575.72	2274.40
576.08	2271.11
576.43	2267.85
576.78	2264.05
577.13	2260.92
577.49	2257.87
577.84	2254.24
578.19	2250.58
578.54	2246.93
578.90	2242.70
579.25	2237.12
579.60	2232.16
579.95	2227.04
580.30	2222.02
580.66	2216.73
581.01	2211.91
581.36	2206.88
581.71	2202.71
582.06	2198.20
582.42	2193.71
582.77	2188.32
583.12	2183.80
583.47	2178.97
583.82	2173.97
584.17	2168.77
584.53	2163.07
584.88	2157.35
585.23	2151.71
585.58	2146.08
585.93	2140.57
586.28	2135.71
586.63	2130.61
586.98	2125.56
587.34	2120.85
587.69	2115.93
588.04	2110.59
588.39	2104.77
588.74	2098.33
589.09	2092.13
589.44	2085.41
589.79	2079.39
590.14	2073.96
590.49	2067.30
590.84	2060.99
591.19	2054.89
591.54	2048.39
591.89	2040.97
592.25	2034.17
592.60	2026.85
592.95	2019.31
593.30	2012.09
593.65	2004.48
594.00	1997.40
594.35	1990.21
594.70	1982.17
595.05	1974.91
595.40	1967.71
595.75	1960.19
596.10	1953.84
596.45	1947.03
596.80	1940.86
597.15	1934.23
597.50	1927.03
597.85	1920.69
598.19	1914.04
598.54	1906.90
598.89	1900.29
599.24	1894.52
599.59	1887.76
599.94	1881.48
600.29	1875.03
600.64	1868.34
600.99	1860.92
601.34	1854.15
601.69	1847.23
602.04	1840.28
602.39	1832.91
602.74	1826.01
603.08	1819.32
603.43	1812.74
603.78	1805.36
604.13	1798.12
604.48	1790.68
604.83	1783.77
605.18	1776.68
605.53	1768.67
605.87	1760.68
606.22	1753.35
606.57	1745.38
606.92	1738.05
607.27	1730.81
607.62	1723.94
607.96	1716.56
608.31	1709.85
608.66	1702.09
609.01	1694.38
609.36	1686.73
609.70	1678.73
610.05	1670.66
610.40	1662.94
610.75	1654.51
611.10	1646.84
611.44	1638.38
611.79	1630.56
612.14	1621.85
612.49	1612.75
612.83	1604.34
613.18	1596.16
613.53	1588.08
613.88	1579.50
614.22	1571.27
614.57	1562.69
614.92	1554.57
615.27	1547.12
615.61	1538.81
615.96	1530.86
616.31	1523.39
616.65	1516.09
617.00	1508.59
617.35	1500.92
617.70	1492.55
618.04	1484.16
618.39	1476.08
618.74	1468.52
619.08	1460.22
619.43	1452.65
619.78	1445.70
620.12	1438.42
620.47	1430.96
620.82	1422.90
621.16	1415.59
621.51	1408.07
621.85	1400.58
622.20	1392.22
622.55	1383.98
622.89	1376.22
623.24	1368.60
623.59	1361.19
623.93	1353.72
624.28	1346.46
624.62	1338.95
624.97	1331.74
625.32	1324.90
625.66	1317.79
626.01	1310.57
626.35	1302.95
626.70	1295.26
627.04	1287.50
627.39	1279.81
627.73	1272.40
628.08	1265.47
628.43	1258.07
628.77	1250.57
629.12	1242.86
629.46	1235.52
629.81	1228.00
630.15	1220.76
630.50	1213.34
630.84	1205.09
631.19	1197.16
631.53	1189.69
631.88	1182.18
632.22	1174.51
632.57	1167.26
632.91	1159.75
633.26	1152.41
633.60	1145.12
633.95	1138.12
634.29	1131.19
634.64	1124.44
634.98	1117.08
635.32	1109.87
635.67	1103.39
636.01	1096.73
636.36	1090.04
636.70	1083.65
637.05	1077.03
637.39	1070.48
637.73	1063.98
638.08	1058.14
638.42	1052.15
638.77	1045.62
639.11	1038.90
639.45	1032.68
639.80	1025.98
640.14	1019.57
640.49	1013.02
640.83	1006.75
641.17	1000.33
641.52	993.96
641.86	987.52
642.20	981.64
642.55	975.29
642.89	968.74
643.23	962.27
643.58	956.37
643.92	950.10
644.26	944.04
644.61	938.03
644.95	931.93
645.29	925.20
645.64	918.32
645.98	912.03
646.32	906.23
646.66	900.14
647.01	894.34
647.35	888.61
647.69	882.69
648.04	877.17
648.38	871.33
648.72	865.26
649.06	859.24
649.41	853.39
649.75	847.45
650.09	841.48
650.43	835.72
650.78	829.65
651.12	823.68
651.46	817.99
651.80	812.25
652.14	806.92
652.49	801.66
652.83	796.57
653.17	790.81
653.51	785.10
653.85	779.65
654.20	773.94
654.54	767.90
654.88	762.20
655.22	756.26
655.56	750.66
655.90	745.23
656.25	740.02
656.59	734.63
656.93	729.55
657.27	724.40
657.61	718.98
657.95	713.91
658.29	708.91
658.64	703.56
658.98	698.32
659.32	692.88
659.66	687.68
660.00	682.41
660.34	677.53
660.68	672.61
661.02	667.58
661.36	662.93
661.70	658.49
662.05	654.18
662.39	649.88
662.73	645.44
663.07	641.12
663.41	636.64
663.75	632.13
664.09	627.61
664.43	623.19
664.77	619.07
665.11	614.80
665.45	610.73
665.79	606.71
666.13	602.56
666.47	598.46
666.81	594.30
667.15	590.16
667.49	586.27
667.83	582.55
668.17	578.68
668.51	574.65
668.85	570.60
669.19	566.77
669.53	562.94
669.87	559.03
670.21	555.28
670.55	551.60
670.89	548.17
671.23	544.68
671.57	541.25
671.91	537.66
672.25	534.17
672.58	530.69
672.92	527.29
673.26	524.12
673.60	520.97
673.94	517.82
674.28	514.94
674.62	511.94
674.96	508.74
675.30	505.82
675.64	502.87
675.97	500.10
676.31	497.21
676.65	494.25
676.99	491.56
677.33	488.74
677.67	485.97
678.01	482.98
678.34	480.04
678.68	477.13
679.02	474.33
679.36	471.56
679.70	468.76
680.04	466.01
680.37	463.13
680.71	460.30
681.05	457.65
681.39	454.91
681.73	452.30
682.06	449.76
682.40	447.17
682.74	444.59
683.08	442.08
683.42	439.47
683.75	436.94
684.09	434.39
684.43	431.92
684.77	429.46
685.10	427.16
685.44	424.83
685.78	422.53
686.12	420.25
686.45	417.97
686.79	415.66
687.13	413.45
687.46	411.28
687.80	409.16
688.14	406.96
688.48	404.91
688.81	402.62
689.15	400.45
689.49	398.31
689.82	396.29
690.16	394.20
690.50	392.26
690.83	390.32
691.17	388.34
691.51	386.44
691.84	384.63
692.18	382.67
692.52	380.72
692.85	378.78
693.19	376.96
693.52	375.13
693.86	373.31
694.20	371.56
694.53	369.80
694.87	367.97
695.21	366.20
695.54	364.34
695.88	362.66
696.21	361.02
696.55	359.38
696.88	357.71
697.22	356.04
697.56	354.42
697.89	352.79
698.23	351.24
698.56	349.61
698.90	347.96
699.23	346.28
699.57	344.73
699.90	343.21
700.24	341.64
700.58	340.10
700.91	338.63
701.25	337.21
701.58	335.85
701.92	334.46
702.25	333.11
702.59	331.81
702.92	330.50
703.26	329.17
703.59	327.90
703.93	326.73
704.26	325.53
704.60	324.23
704.93	322.98
705.26	321.71
705.60	320.57
705.93	319.46
706.27	318.47
706.60	317.37
706.94	316.29
707.27	315.20
707.61	314.19
707.94	313.17
708.27	312.06
708.61	310.95
708.94	309.99
709.28	309.02
709.61	308.06
709.94	307.11
710.28	306.12
710.61	305.13
710.95	304.07
711.28	303.12
711.61	302.21
711.95	301.26
712.28	300.33
712.61	299.34
712.95	298.40
713.28	297.50
713.61	296.65
713.95	295.75
714.28	294.88
714.61	294.02
714.95	293.16
715.28	292.29
715.61	291.42
715.95	290.53
716.28	289.68
716.61	288.81
716.95	287.96
717.28	287.22
717.61	286.42
717.94	285.66
718.28	284.83
718.61	284.07
718.94	283.40
719.27	282.72
719.61	282.09
719.94	281.39
720.27	280.68
720.60	279.99
720.94	279.36
721.27	278.79
721.60	278.20
721.93	277.59
722.27	277.04
722.60	276.48
722.93	275.94
723.26	275.38
723.59	274.84
723.93	274.25
724.26	273.69
724.59	273.12
724.92	272.61
725.25	272.16
725.59	271.63
725.92	271.11
726.25	270.56
726.58	270.04
726.91	269.54
727.24	269.07
727.57	268.61
727.91	268.08
728.24	267.59
728.57	267.06
728.90	266.61
729.23	266.10
729.56	265.63
729.89	265.16
730.22	264.65
730.55	264.16
730.89	263.76
731.22	263.31
731.55	262.89
731.88	262.47
732.21	261.98
732.54	261.56
732.87	261.11
733.20	260.73
733.53	260.36
733.86	259.97
734.19	259.56
734.52	259.16
734.85	258.89
735.18	258.48
735.51	258.14
735.84	257.77
736.17	257.44
736.50	257.05
736.83	256.80
737.16	256.49
737.49	256.18
737.82	255.81
738.15	255.45
738.48	255.12
738.81	254.77
739.14	254.47
739.47	254.15
739.80	253.84
740.13	253.53
740.46	253.21
740.79	252.93
741.12	252.64
741.45	252.33
741.78	251.98
742.11	251.69
742.44	251.36
742.77	251.06
743.10	250.78
743.43	250.47
743.75	250.11
744.08	249.95
744.41	249.70
744.74	249.45
745.07	249.19
745.40	248.96
745.73	248.74
746.06	248.47
746.39	248.21
746.71	247.95
747.04	247.67
747.37	247.40
747.70	247.14
748.03	246.90
748.36	246.70
748.68	246.45
749.01	246.20
749.34	246.01
749.67	245.77
750.00	245.54
750.33	245.43
750.65	245.23
750.98	244.91
751.31	244.67
751.64	244.46
751.97	244.31
752.29	244.09
752.62	243.82
752.95	243.64
753.28	243.44
753.60	243.30
753.93	243.13
754.26	242.92
754.59	242.71
754.91	242.46
755.24	242.27
755.57	242.11
755.90	241.94
756.22	241.72
756.55	241.54
756.88	241.35
757.20	241.12
757.53	240.92
757.86	240.72
758.19	240.62
758.51	240.42
758.84	240.21
759.17	240.05
759.49	239.89
759.82	239.77
760.15	239.65
760.47	239.49
760.80	239.32
761.13	239.22
761.45	239.11
761.78	238.97
762.11	238.82
762.43	238.65
762.76	238.51
763.08	238.41
763.41	238.27
763.74	238.11
764.06	237.95
764.39	237.81
764.71	237.71
765.04	237.52
765.37	237.43
765.69	237.30
766.02	237.16
766.34	237.04
766.67	236.87
767.00	236.72
767.32	236.62
767.65	236.58
767.97	236.46
768.30	236.30
768.62	236.18
768.95	236.06
769.27	235.96
769.60	235.85
769.92	235.70
770.25	235.57
770.57	235.49
770.90	235.37
771.22	235.26
771.55	235.10
771.87	235.01
772.20	234.87
772.52	234.88
772.85	234.87
773.17	234.82
773.50	234.70
773.82	234.61
774.15	234.52
774.47	234.34
774.80	234.20
775.12	234.16
775.45	234.12
775.77	234.02
776.09	233.92
776.42	233.83
776.74	233.77
777.07	233.68
777.39	233.60
777.72	233.54
778.04	233.48
778.36	233.46
778.69	233.38
779.01	233.33
779.33	233.14
779.66	232.96
779.98	232.85
780.31	232.82
780.63	232.79
780.95	232.73
781.28	232.70
781.60	232.63
781.92	232.54
782.25	232.45
782.57	232.43
782.89	232.35
783.22	232.31
783.54	232.24
783.86	232.22
784.19	232.16
784.51	232.14
784.83	232.08
785.16	232.04
785.48	232.02
785.80	231.97
786.12	231.95
786.45	231.94
786.77	231.91
787.09	231.83
787.42	231.77
787.74	231.69
788.06	231.67
788.38	231.65
788.71	231.62
789.03	231.59
789.35	231.52
789.67	231.49
789.99	231.45
790.32	231.44
790.64	231.40
790.96	231.44
791.28	231.37
791.61	231.34
791.93	231.29
792.25	231.23
792.57	231.27
792.89	231.22
793.21	231.15
793.54	231.13
793.86	231.07
794.18	231.01
794.50	230.98
794.82	230.91
795.14	230.88
795.47	230.85
795.79	230.81
796.11	230.77
796.43	230.74
796.75	230.69
797.07	230.62
797.39	230.58
797.71	230.49
798.04	230.45
798.36	230.40
798.68	230.39
799.00	230.37
799.32	230.28
799.64	230.29
799.96	230.27
800.28	230.27
800.60	230.26
800.92	230.25
801.24	230.21
801.56	230.21
801.89	230.20
802.21	230.17
802.53	230.14
802.85	230.11
803.17	230.14
803.49	230.10
803.81	230.07
804.13	230.05
804.45	230.02
804.77	230.02
805.09	230.00
805.41	229.94
805.73	229.89
806.05	229.84
806.37	229.80
806.69	229.78
807.01	229.70
807.33	229.68
807.65	229.65
807.97	229.68
808.28	229.62
808.60	229.58
808.92	229.52
809.24	229.56
809.56	229.54
809.88	229.46
810.20	229.43
810.52	229.41
810.84	229.42
811.16	229.39
811.48	229.35
811.80	229.36
812.12	229.32
812.43	229.33
812.75	229.31
813.07	229.26
813.39	229.25
813.71	229.20
814.03	229.18
814.35	229.10
814.67	229.03
814.98	229.00
815.30	228.96
815.62	228.94
815.94	228.84
816.26	228.84
816.58	228.82
816.89	228.81
817.21	228.78
817.53	228.73
817.85	228.71
818.17	228.68
818.48	228.62
818.80	228.63
819.12	228.59
819.44	228.57
819.76	228.53
820.07	228.49
820.39	228.50
820.71	228.47
821.03	228.47
821.34	228.44
821.66	228.44
821.98	228.42
822.30	228.42
822.61	228.46
822.93	228.45
823.25	228.44
823.57	228.39
823.88	228.40
824.20	228.38
824.52	228.36
824.83	228.37
825.15	228.35
825.47	228.31
825.79	228.30
826.10	228.30
826.42	228.32
826.74	228.31
827.05	228.31
827.37	228.34
827.69	228.35
828.00	228.34
828.32	228.35
828.64	228.31
828.95	228.33
829.27	228.23
829.58	228.22
829.90	228.23
830.22	228.26
830.53	228.21
830.85	228.19
831.17	228.15
831.48	228.13
831.80	228.14
832.11	228.15
832.43	228.11
832.75	228.10
833.06	228.11
833.38	228.08
833.69	228.05
834.01	228.03
834.32	227.99
834.64	227.99
834.96	227.97
835.27	227.98
835.59	227.94
835.90	228.01
836.22	228.02
836.53	227.99
836.85	227.96
837.16	228.04
837.48	228.05
837.79	228.08
838.11	228.05
838.42	228.04
838.74	228.06
839.05	228.07
839.37	228.07
839.68	228.03
840.00	228.02
840.31	228.00
840.63	227.98
840.94	228.00
841.26	227.98
841.57	228.02
841.88	228.01
842.20	227.98
842.51	227.93
842.83	227.93
843.14	227.99
843.46	228.00
843.77	227.96
844.08	227.96
844.40	227.94
844.71	227.94
845.03	227.94
845.34	227.90
845.65	227.91
845.97	227.87
846.28	227.89
846.60	227.87
846.91	227.87
847.22	227.85
847.54	227.87
847.85	227.85
848.16	227.82
848.48	227.81
848.79	227.84
849.10	227.86
849.42	227.86
849.73	227.78
850.04	227.76
850.36	227.75
850.67	227.72
850.98	227.71
851.30	227.72
851.61	227.69
851.92	227.67
852.23	227.66
852.55	227.68
852.86	227.65
853.17	227.67
853.49	227.70
853.80	227.71
854.11	227.69
854.42	227.69
854.74	227.64
855.05	227.64
855.36	227.61
855.67	227.59
855.99	227.55
856.30	227.68
856.61	227.65
856.92	227.62
857.23	227.62
857.55	227.61
857.86	227.59
858.17	227.63
858.48	227.63
858.79	227.61
859.11	227.62
859.42	227.62
859.73	227.61
860.04	227.58
860.35	227.57
860.66	227.54
860.98	227.56
861.29	227.55
861.60	227.55
861.91	227.53
862.22	227.55
862.53	227.53
862.84	227.39
863.16	227.45
863.47	227.42
863.78	227.42
864.09	227.44
864.40	227.45
864.71	227.41
865.02	227.41
865.33	227.40
865.64	227.37
865.95	227.34
866.27	227.39
866.58	227.38
866.89	227.36
867.20	227.38
867.51	227.36
867.82	227.38
868.13	227.40
868.44	227.43
868.75	227.41
869.06	227.42
869.37	227.44
869.68	227.39
869.99	227.42
870.30	227.41
870.61	227.41
870.92	227.38
871.23	227.38
871.54	227.41
871.85	227.45
872.16	227.45
872.47	227.45
872.78	227.41
873.09	227.45
873.40	227.45
873.71	227.45
874.02	227.45
874.33	227.45
874.64	227.44
874.95	227.46
875.26	227.43
875.56	227.43
875.87	227.47
876.18	227.48
876.49	227.54
876.80	227.58
877.11	227.56
877.42	227.58
877.73	227.57
878.04	227.55
878.35	227.52
878.66	227.53
878.96	227.53
879.27	227.51
879.58	227.51
879.89	227.47
880.20	227.49
880.51	227.50
880.82	227.51
881.12	227.52
881.43	227.47
881.74	227.45
882.05	227.45
882.36	227.41
882.67	227.42
882.97	227.35
883.28	227.31
883.59	227.31
883.90	227.26
884.21	227.27
884.51	227.27
884.82	227.27
885.13	227.27
885.44	227.26
885.74	227.22
886.05	227.20
886.36	227.25
886.67	227.22
886.98	227.25
887.28	227.26
887.59	227.25
887.90	227.25
888.20	227.28
888.51	227.28
888.82	227.24
889.13	227.21
889.43	227.27
889.74	227.26
890.05	227.24
890.35	227.25
890.66	227.24
890.97	227.19
891.28	227.19
891.58	227.20
891.89	227.20
892.20	227.23
892.50	227.25
892.81	227.20
893.12	227.18
893.42	227.13
893.73	227.12
894.04	227.12
894.34	227.12
894.65	227.11
894.95	227.08
895.26	227.09
895.57	227.12
895.87	227.06
896.18	227.08
896.48	227.07
896.79	227.07
897.10	227.08
897.40	227.09
897.71	227.10
898.01	227.06
898.32	227.07
898.63	227.04
898.93	227.02
899.24	227.03
899.54	227.04
899.85	227.05
900.15	227.03
900.46	227.01
900.76	227.02
901.07	227.02
901.38	227.00
901.68	227.01
901.99	226.96
902.29	226.95
902.60	226.91
902.90	226.89
903.21	226.93
903.51	226.94
903.82	226.95
904.12	226.93
904.43	226.94
904.73	226.95
905.03	226.95
905.34	227.01
905.64	227.01
905.95	227.00
906.25	226.97
906.56	226.98
906.86	226.99
907.17	226.96
907.47	226.96
907.77	226.97
908.08	226.96
908.38	226.94
908.69	226.94
908.99	226.98
909.30	227.01
909.60	226.99
909.90	226.99
910.21	226.99
910.51	226.99
910.81	227.00
911.12	227.02
911.42	227.04
911.73	226.97
912.03	226.98
912.33	227.03
912.64	227.03
912.94	227.00
913.24	227.00
913.55	227.05
913.85	227.05
914.15	227.08
914.46	227.08
914.76	227.10
915.06	227.13
915.37	227.14
915.67	227.13
915.97	227.12
916.27	227.11
916.58	227.11
916.88	227.09
917.18	227.09
917.49	227.14
917.79	227.11
918.09	227.14
918.39	227.19
918.70	227.20
919.00	227.21
919.30	227.30
919.60	227.30
919.91	227.28
920.21	227.27
920.51	227.24
920.81	227.27
921.12	227.28
921.42	227.25
921.72	227.24
922.02	227.24
922.32	227.25
922.63	227.27
922.93	227.34
923.23	227.35
923.53	227.34
923.83	227.28
924.13	227.30
924.44	227.28
924.74	227.27
925.04	227.26
925.34	227.28
925.64	227.22
925.94	227.22
926.24	227.29
926.55	227.29
926.85	227.33
927.15	227.31
927.45	227.31
927.75	227.32
928.05	227.31
928.35	227.29
928.65	227.31
928.95	227.31
929.26	227.25
929.56	227.28
929.86	227.28
930.16	227.25
930.46	227.23
930.76	227.24
931.06	227.21
931.36	227.17
931.66	227.19
931.96	227.19
932.26	227.18
932.56	227.08
932.86	227.08
933.16	227.05
933.46	227.06
933.76	227.07
934.06	227.08
934.36	227.10
934.66	227.15
934.96	227.16
935.26	227.11
935.56	227.13
935.86	227.10
936.16	227.10
936.46	227.11
936.76	227.10
937.06	227.08
937.36	227.05
937.66	227.06
937.96	227.02
938.26	227.01
938.56	227.01
938.86	227.03
939.16	227.06
939.46	227.08
939.76	227.06
940.06	227.05
940.35	227.04
940.65	227.00
940.95	226.94
941.25	226.91
941.55	226.95
941.85	226.92
942.15	226.93
942.45	226.98
942.75	226.93
943.04	226.94
943.34	226.99
943.64	226.99
943.94	226.98
944.24	227.00
944.54	227.02
944.84	227.03
945.13	227.00
945.43	226.98
945.73	226.99
946.03	226.99
946.33	226.98
946.62	226.97
946.92	226.93
947.22	226.95
947.52	226.97
947.82	226.95
948.11	226.96
948.41	226.95
948.71	226.89
949.01	226.94
949.31	226.94
949.60	226.91
949.90	226.92
950.20	226.94
950.50	226.93
950.79	226.93
951.09	226.94
951.39	226.98
951.69	226.99
951.98	226.98
952.28	226.97
952.58	226.99
952.87	226.97
953.17	227.04
953.47	227.06
953.76	227.04
954.06	227.03
954.36	227.01
954.66	227.01
954.95	227.07
955.25	227.07
955.55	227.08
955.84	227.06
956.14	227.09
956.44	227.08
956.73	227.06
957.03	227.07
957.32	227.06
957.62	227.04
957.92	227.03
958.21	227.03
958.51	227.15
958.81	227.15
959.10	227.19
959.40	227.22
959.69	227.23
959.99	227.23
960.29	227.26
960.58	227.25
960.88	227.31
961.17	227.28
961.47	227.29
961.76	227.30
962.06	227.30
962.36	227.25
962.65	227.24
962.95	227.25
963.24	227.21
963.54	227.21
963.83	227.23
964.13	227.21
964.42	227.17
964.72	227.06
965.01	227.09
965.31	227.05
965.60	226.99
965.90	227.02
966.19	227.02
966.49	227.02
966.78	227.04
967.08	226.98
967.37	226.96
967.67	226.98
967.96	227.00
968.26	227.02
968.55	227.05
968.85	227.06
969.14	227.06
969.43	227.07
969.73	227.04
970.02	227.04
970.32	227.06
970.61	227.09
970.91	227.07
971.20	227.03
971.49	227.04
971.79	227.06
972.08	227.00
972.38	226.99
972.67	226.97
972.96	226.97
973.26	226.97
973.55	227.03
973.85	226.99
974.14	226.99
974.43	227.00
974.73	227.00
975.02	226.96
975.31	226.94
975.61	226.92
975.90	226.91
976.19	226.87
976.49	226.86
976.78	226.87
977.07	226.88
977.37	226.89
977.66	226.90
977.95	226.88
978.24	226.92
978.54	226.98
978.83	226.96
979.12	226.98
979.42	226.94
979.71	226.87
980.00	226.87
980.29	226.90
980.59	226.88
980.88	226.89
981.17	226.93
981.46	226.95
981.76	226.97
982.05	227.05
982.34	227.07
982.63	227.08
982.93	227.08
983.22	227.09
983.51	227.10
983.80	227.09
984.09	227.11
984.39	227.09
984.68	227.07
984.97	227.08
985.26	227.03
985.55	227.10
985.85	227.12
986.14	227.13
986.43	227.09
986.72	227.10
987.01	227.07
987.30	227.09
987.59	227.06
987.89	227.04
988.18	227.00
988.47	226.97
988.76	226.93
989.05	226.92
989.34	226.91
989.63	226.93
989.92	226.93
990.22	226.89
990.51	226.85
990.80	226.79
991.09	226.79
991.38	226.83
991.67	226.79
991.96	226.78
992.25	226.74
992.54	226.69
992.83	226.69
993.12	226.67
993.41	226.64
993.70	226.70
993.99	226.73
994.28	226.72
994.58	226.74
994.87	226.78
995.16	226.77
995.45	226.74
995.74	226.70
996.03	226.68
996.32	226.69
996.61	226.72
996.90	226.75
997.19	226.74
997.48	226.73
997.77	226.72
998.06	226.70
998.34	226.67
998.63	226.71
998.92	226.71
999.21	226.73
999.50	226.76
999.79	226.70
1000.08	226.71
1000.37	226.68
1000.66	226.67
1000.95	226.67
1001.24	226.69
1001.53	226.73
1001.82	226.73
1002.11	226.74
1002.40	226.74
1002.68	226.74
1002.97	226.81
1003.26	226.81
1003.55	226.81
1003.84	226.80
1004.13	226.83
1004.42	226.87
1004.71	226.84
1004.99	226.82
1005.28	226.86
1005.57	226.85
1005.86	226.85
1006.15	226.82
1006.44	226.83
1006.72	226.84
1007.01	226.84
1007.30	226.82
1007.59	226.83
1007.88	226.81
1008.17	226.82
1008.45	226.82
1008.74	226.82
1009.03	226.76
1009.32	226.79
1009.60	226.79
1009.89	226.77
1010.18	226.77
1010.47	226.77
1010.76	226.77
1011.04	226.80
1011.33	226.81
1011.62	226.82
1011.91	226.85
1012.19	226.87
1012.48	226.88
1012.77	226.90
1013.05	226.94
1013.34	226.95
1013.63	226.95
1013.92	227.00
1014.20	226.98
1014.49	227.00
1014.78	226.98
1015.06	227.00
1015.35	226.98
1015.64	226.98
1015.92	227.03
1016.21	226.98
1016.50	226.97
1016.78	226.99
1017.07	226.97
1017.36	226.93
1017.64	226.92
1017.93	226.93
1018.22	226.94
1018.50	226.93
1018.79	226.91
1019.08	226.89
1019.36	226.87
1019.65	226.86
1019.93	226.86
1020.22	226.92
1020.51	226.96
1020.79	226.97
1021.08	227.11
1021.36	226.56
1021.65	226.87
1021.94	227.27
1022.22	226.57
1022.51	226.92
1022.79	227.44
1023.08	227.53
1023.36	228.11
1023.65	226.66
>>>>>End Processed Spectral Data<<<<<
