SpectraSuite Data File
++++++++++++++++++++++++++++++++++++
Date: Fri Feb 01 18:07:49 EST 2013
User: group
Dark Spectrum Present: No
Reference Spectrum Present: No
Number of Sampled Component Spectra: 1
Spectrometers: USB2E7196
Integration Time (usec): 35000 (USB2E7196)
Spectra Averaged: 100 (USB2E7196)
Boxcar Smoothing: 10 (USB2E7196)
Correct for Electrical Dark: No (USB2E7196)
Strobe/Lamp Enabled: No (USB2E7196)
Correct for Detector Non-linearity: No (USB2E7196)
Correct for Stray Light: No (USB2E7196)
Number of Pixels in Processed Spectrum: 2048
>>>>>Begin Processed Spectral Data<<<<<
339.09	0.00
339.48	213.07
339.86	214.48
340.24	215.74
340.63	216.78
341.01	219.74
341.39	220.00
341.78	221.30
342.16	222.26
342.54	222.72
342.93	211.36
343.31	222.05
343.69	222.60
344.07	223.07
344.46	223.52
344.84	223.94
345.22	224.18
345.60	224.45
345.99	224.65
346.37	224.81
346.75	224.89
347.13	224.97
347.52	225.04
347.90	225.15
348.28	225.22
348.66	225.28
349.05	225.29
349.43	225.33
349.81	225.36
350.19	225.43
350.57	225.46
350.96	225.53
351.34	225.64
351.72	225.74
352.10	225.82
352.48	225.88
352.87	225.93
353.25	226.03
353.63	226.07
354.01	226.14
354.39	226.20
354.77	226.30
355.15	226.42
355.54	226.48
355.92	226.51
356.30	226.58
356.68	226.71
357.06	226.78
357.44	226.87
357.82	226.95
358.20	227.02
358.58	227.08
358.97	227.16
359.35	227.24
359.73	227.31
360.11	227.36
360.49	227.42
360.87	227.47
361.25	227.51
361.63	227.60
362.01	227.63
362.39	227.67
362.77	227.73
363.15	227.72
363.53	227.75
363.91	227.77
364.29	227.82
364.67	227.76
365.05	227.79
365.43	227.80
365.81	227.81
366.19	227.87
366.57	227.90
366.95	227.88
367.33	227.82
367.71	227.81
368.09	227.84
368.47	227.84
368.85	227.82
369.23	227.82
369.61	227.74
369.99	227.75
370.37	227.72
370.75	227.75
371.13	227.71
371.51	227.66
371.89	227.63
372.27	227.58
372.65	227.54
373.03	227.50
373.41	227.45
373.78	227.41
374.16	227.30
374.54	227.24
374.92	227.18
375.30	227.13
375.68	227.06
376.06	226.99
376.44	226.90
376.82	226.83
377.19	226.77
377.57	226.73
377.95	226.62
378.33	226.58
378.71	226.44
379.09	226.39
379.47	226.36
379.84	226.29
380.22	226.20
380.60	226.15
380.98	226.07
381.36	226.01
381.73	225.94
382.11	225.92
382.49	225.86
382.87	225.78
383.25	225.72
383.62	225.74
384.00	225.66
384.38	225.62
384.76	225.62
385.13	225.60
385.51	225.55
385.89	225.53
386.27	225.49
386.64	225.45
387.02	225.40
387.40	225.34
387.78	225.33
388.15	225.34
388.53	225.27
388.91	225.22
389.29	225.19
389.66	225.17
390.04	225.11
390.42	225.09
390.79	225.10
391.17	225.07
391.55	224.97
391.92	225.01
392.30	224.99
392.68	224.94
393.05	224.94
393.43	224.94
393.81	224.91
394.18	224.91
394.56	224.94
394.94	224.98
395.31	224.99
395.69	225.02
396.06	225.02
396.44	225.10
396.82	225.14
397.19	225.21
397.57	225.23
397.95	225.28
398.32	225.28
398.70	225.33
399.07	225.43
399.45	225.47
399.82	225.49
400.20	225.55
400.58	225.65
400.95	225.69
401.33	225.77
401.70	225.91
402.08	225.98
402.45	226.08
402.83	226.17
403.20	226.30
403.58	226.40
403.95	226.54
404.33	226.64
404.71	226.77
405.08	226.97
405.46	227.11
405.83	227.29
406.21	227.52
406.58	227.72
406.96	227.90
407.33	228.15
407.70	228.40
408.08	228.73
408.45	228.99
408.83	229.29
409.20	229.59
409.58	229.86
409.95	230.20
410.33	230.51
410.70	230.86
411.08	231.23
411.45	231.63
411.82	232.03
412.20	232.47
412.57	233.01
412.95	233.40
413.32	233.95
413.69	234.49
414.07	235.05
414.44	235.65
414.82	236.28
415.19	237.01
415.56	237.73
415.94	238.47
416.31	239.31
416.68	240.12
417.06	241.09
417.43	241.98
417.81	243.01
418.18	244.10
418.55	245.22
418.93	246.38
419.30	247.58
419.67	248.88
420.04	250.20
420.42	251.56
420.79	253.13
421.16	254.69
421.54	256.28
421.91	257.93
422.28	259.66
422.66	261.45
423.03	263.19
423.40	265.00
423.77	266.91
424.15	268.87
424.52	270.91
424.89	273.08
425.26	275.19
425.64	277.18
426.01	279.31
426.38	281.56
426.75	283.88
427.13	286.25
427.50	288.72
427.87	291.29
428.24	293.83
428.61	296.29
428.99	298.99
429.36	301.89
429.73	304.74
430.10	307.52
430.47	310.36
430.85	313.26
431.22	316.35
431.59	319.56
431.96	322.62
432.33	326.04
432.70	329.30
433.08	333.17
433.45	336.75
433.82	340.34
434.19	344.27
434.56	348.07
434.93	351.72
435.30	355.24
435.68	359.20
436.05	363.10
436.42	366.86
436.79	370.26
437.16	373.94
437.53	377.76
437.90	381.57
438.27	385.29
438.64	389.19
439.01	392.71
439.38	395.80
439.75	398.73
440.13	402.16
440.50	405.37
440.87	407.89
441.24	410.62
441.61	413.62
441.98	415.66
442.35	418.15
442.72	420.65
443.09	423.15
443.46	424.51
443.83	425.25
444.20	425.96
444.57	427.14
444.94	427.58
445.31	428.07
445.68	428.52
446.05	428.69
446.42	428.13
446.79	427.60
447.16	427.00
447.53	426.59
447.90	424.95
448.27	423.36
448.64	421.15
449.01	419.53
449.37	416.79
449.74	414.20
450.11	411.08
450.48	407.68
450.85	404.21
451.22	401.28
451.59	398.53
451.96	395.91
452.33	392.37
452.70	389.12
453.07	385.25
453.43	381.33
453.80	377.50
454.17	373.85
454.54	370.32
454.91	366.62
455.28	362.96
455.65	359.58
456.02	356.14
456.38	353.24
456.75	349.59
457.12	346.51
457.49	343.46
457.86	340.54
458.23	338.02
458.59	335.20
458.96	332.32
459.33	329.75
459.70	327.15
460.07	325.00
460.43	322.64
460.80	320.42
461.17	318.44
461.54	316.35
461.91	314.38
462.27	312.44
462.64	310.67
463.01	308.80
463.38	306.97
463.74	305.15
464.11	303.53
464.48	302.13
464.85	300.62
465.21	299.45
465.58	298.14
465.95	296.63
466.32	295.43
466.68	294.20
467.05	292.98
467.42	291.76
467.78	290.49
468.15	289.28
468.52	288.34
468.88	287.09
469.25	286.05
469.62	285.18
469.98	284.21
470.35	283.36
470.72	282.56
471.08	281.68
471.45	280.93
471.82	280.17
472.18	279.35
472.55	278.73
472.92	277.99
473.28	277.37
473.65	276.75
474.02	276.08
474.38	275.54
474.75	275.04
475.11	274.52
475.48	274.14
475.85	273.75
476.21	273.40
476.58	273.14
476.94	272.90
477.31	272.65
477.67	272.38
478.04	272.18
478.41	272.00
478.77	271.97
479.14	271.81
479.50	271.72
479.87	271.69
480.23	271.68
480.60	271.63
480.96	271.63
481.33	271.80
481.69	271.96
482.06	272.11
482.42	272.29
482.79	272.49
483.15	272.74
483.52	273.13
483.88	273.43
484.25	273.78
484.61	274.19
484.98	274.56
485.34	275.12
485.71	275.69
486.07	276.27
486.44	276.77
486.80	277.48
487.17	278.28
487.53	279.12
487.90	280.01
488.26	281.00
488.62	282.05
488.99	283.02
489.35	284.06
489.72	285.23
490.08	286.46
490.44	287.76
490.81	289.13
491.17	290.48
491.54	292.03
491.90	293.65
492.26	295.41
492.63	297.26
492.99	299.15
493.36	301.13
493.72	303.30
494.08	305.54
494.45	307.94
494.81	310.44
495.17	313.04
495.54	315.76
495.90	318.59
496.26	321.52
496.63	324.65
496.99	328.01
497.35	331.46
497.72	335.05
498.08	338.79
498.44	342.77
498.80	346.99
499.17	351.33
499.53	355.80
499.89	360.40
500.26	365.23
500.62	370.16
500.98	375.40
501.34	380.85
501.71	386.53
502.07	392.35
502.43	398.32
502.79	404.49
503.16	410.97
503.52	417.69
503.88	424.46
504.24	431.54
504.60	438.84
504.97	446.42
505.33	454.27
505.69	462.48
506.05	470.76
506.41	479.21
506.78	487.93
507.14	496.95
507.50	506.32
507.86	515.90
508.22	525.78
508.59	535.70
508.95	545.85
509.31	556.38
509.67	567.21
510.03	578.20
510.39	589.51
510.75	601.05
511.12	612.80
511.48	625.01
511.84	637.41
512.20	649.81
512.56	662.64
512.92	675.72
513.28	689.08
513.64	702.56
514.00	716.23
514.37	730.14
514.73	744.22
515.09	758.25
515.45	772.66
515.81	787.30
516.17	802.42
516.53	817.77
516.89	833.16
517.25	848.54
517.61	864.23
517.97	880.01
518.33	895.72
518.69	911.79
519.05	928.11
519.41	944.66
519.77	961.61
520.13	978.60
520.49	995.44
520.85	1012.26
521.21	1029.34
521.57	1047.15
521.93	1064.47
522.29	1082.41
522.65	1100.30
523.01	1118.10
523.37	1135.85
523.73	1153.68
524.09	1171.36
524.45	1189.28
524.81	1207.49
525.17	1226.00
525.53	1244.60
525.89	1263.35
526.25	1281.89
526.61	1300.14
526.97	1318.56
527.33	1336.93
527.68	1355.32
528.04	1373.64
528.40	1391.98
528.76	1411.05
529.12	1429.49
529.48	1448.44
529.84	1466.47
530.20	1485.03
530.56	1504.07
530.91	1523.70
531.27	1542.54
531.63	1561.15
531.99	1579.83
532.35	1598.03
532.71	1616.07
533.07	1634.51
533.42	1652.52
533.78	1670.82
534.14	1689.21
534.50	1706.72
534.86	1724.75
535.21	1742.08
535.57	1760.22
535.93	1777.89
536.29	1794.92
536.65	1812.24
537.00	1828.98
537.36	1846.51
537.72	1863.27
538.08	1880.05
538.44	1895.94
538.79	1912.05
539.15	1927.94
539.51	1944.04
539.87	1960.48
540.22	1976.40
540.58	1992.46
540.94	2008.03
541.29	2023.29
541.65	2038.25
542.01	2053.94
542.37	2068.53
542.72	2083.16
543.08	2097.30
543.44	2112.31
543.79	2125.84
544.15	2139.09
544.51	2153.17
544.87	2166.44
545.22	2179.53
545.58	2191.92
545.94	2203.84
546.29	2215.89
546.65	2228.04
547.01	2239.50
547.36	2250.43
547.72	2261.19
548.07	2271.21
548.43	2281.60
548.79	2291.57
549.14	2301.17
549.50	2310.46
549.86	2320.28
550.21	2329.67
550.57	2338.94
550.92	2347.52
551.28	2356.60
551.64	2365.85
551.99	2374.38
552.35	2382.68
552.70	2390.82
553.06	2398.87
553.41	2407.44
553.77	2415.42
554.13	2423.50
554.48	2431.76
554.84	2439.42
555.19	2446.53
555.55	2453.61
555.90	2459.79
556.26	2466.59
556.61	2473.14
556.97	2479.43
557.32	2485.30
557.68	2491.17
558.03	2497.18
558.39	2502.47
558.74	2508.94
559.10	2514.38
559.45	2519.58
559.81	2525.26
560.16	2530.67
560.52	2535.45
560.87	2540.23
561.23	2544.28
561.58	2548.64
561.94	2552.36
562.29	2556.01
562.64	2560.23
563.00	2563.97
563.35	2569.01
563.71	2573.69
564.06	2578.37
564.42	2582.37
564.77	2586.24
565.12	2590.05
565.48	2593.16
565.83	2596.39
566.19	2598.67
566.54	2600.46
566.89	2602.83
567.25	2604.52
567.60	2606.97
567.96	2609.80
568.31	2611.70
568.66	2613.92
569.02	2615.41
569.37	2616.59
569.72	2618.41
570.08	2619.28
570.43	2620.24
570.78	2620.51
571.14	2619.26
571.49	2618.30
571.84	2618.66
572.20	2618.26
572.55	2617.67
572.90	2616.52
573.26	2615.59
573.61	2614.39
573.96	2613.30
574.31	2610.53
574.67	2607.87
575.02	2604.38
575.37	2601.20
575.72	2597.47
576.08	2594.28
576.43	2591.10
576.78	2587.54
577.13	2584.41
577.49	2581.42
577.84	2577.90
578.19	2574.06
578.54	2570.61
578.90	2566.68
579.25	2560.86
579.60	2555.47
579.95	2550.31
580.30	2545.16
580.66	2539.64
581.01	2534.33
581.36	2529.03
581.71	2524.66
582.06	2519.84
582.42	2515.05
582.77	2509.28
583.12	2504.54
583.47	2499.39
583.82	2493.96
584.17	2488.34
584.53	2482.26
584.88	2475.98
585.23	2469.70
585.58	2463.64
585.93	2457.60
586.28	2452.16
586.63	2446.57
586.98	2441.01
587.34	2435.80
587.69	2430.36
588.04	2424.65
588.39	2418.39
588.74	2411.22
589.09	2404.30
589.44	2396.86
589.79	2390.19
590.14	2383.84
590.49	2376.21
590.84	2369.08
591.19	2362.33
591.54	2354.99
591.89	2346.85
592.25	2339.34
592.60	2331.25
592.95	2322.61
593.30	2314.29
593.65	2305.63
594.00	2297.79
594.35	2289.57
594.70	2280.25
595.05	2272.09
595.40	2263.59
595.75	2255.02
596.10	2247.99
596.45	2240.34
596.80	2233.26
597.15	2225.74
597.50	2217.64
597.85	2210.28
598.19	2202.56
598.54	2194.44
598.89	2186.85
599.24	2179.99
599.59	2172.29
599.94	2165.14
600.29	2157.98
600.64	2150.48
600.99	2141.98
601.34	2134.00
601.69	2125.87
602.04	2118.00
602.39	2109.40
602.74	2101.40
603.08	2093.52
603.43	2085.42
603.78	2076.84
604.13	2068.39
604.48	2059.77
604.83	2051.80
605.18	2043.72
605.53	2034.43
605.87	2025.03
606.22	2016.52
606.57	2007.18
606.92	1998.44
607.27	1989.90
607.62	1981.55
607.96	1972.90
608.31	1965.17
608.66	1956.23
609.01	1947.42
609.36	1938.44
609.70	1928.97
610.05	1919.65
610.40	1910.63
610.75	1900.91
611.10	1891.97
611.44	1881.93
611.79	1872.52
612.14	1862.25
612.49	1851.40
612.83	1841.53
613.18	1831.86
613.53	1822.20
613.88	1812.01
614.22	1802.30
614.57	1792.14
614.92	1782.69
615.27	1773.77
615.61	1763.76
615.96	1754.16
616.31	1744.98
616.65	1736.25
617.00	1727.35
617.35	1718.23
617.70	1708.47
618.04	1698.45
618.39	1688.66
618.74	1679.69
619.08	1669.93
619.43	1660.80
619.78	1652.64
620.12	1644.18
620.47	1635.37
620.82	1625.73
621.16	1616.97
621.51	1607.85
621.85	1598.87
622.20	1588.83
622.55	1578.88
622.89	1569.64
623.24	1560.66
623.59	1551.91
623.93	1543.02
624.28	1534.53
624.62	1525.55
624.97	1517.01
625.32	1509.03
625.66	1500.63
626.01	1492.25
626.35	1483.45
626.70	1474.41
627.04	1465.19
627.39	1455.94
627.73	1447.14
628.08	1439.07
628.43	1430.46
628.77	1421.96
629.12	1413.08
629.46	1404.64
629.81	1395.79
630.15	1387.18
630.50	1378.50
630.84	1368.96
631.19	1359.65
631.53	1350.69
631.88	1341.84
632.22	1332.93
632.57	1324.30
632.91	1315.36
633.26	1306.61
633.60	1297.88
633.95	1289.42
634.29	1281.12
634.64	1273.23
634.98	1264.53
635.32	1255.95
635.67	1248.18
636.01	1240.31
636.36	1232.30
636.70	1224.56
637.05	1216.95
637.39	1209.33
637.73	1201.54
638.08	1194.44
638.42	1187.32
638.77	1179.80
639.11	1172.01
639.45	1164.32
639.80	1156.49
640.14	1149.09
640.49	1141.41
640.83	1134.05
641.17	1126.81
641.52	1119.26
641.86	1111.67
642.20	1104.82
642.55	1097.41
642.89	1089.84
643.23	1082.03
643.58	1075.26
643.92	1067.99
644.26	1060.88
644.61	1053.79
644.95	1046.80
645.29	1039.09
645.64	1031.18
645.98	1023.64
646.32	1016.82
646.66	1009.79
647.01	1003.05
647.35	996.27
647.69	989.35
648.04	982.81
648.38	976.03
648.72	969.18
649.06	962.12
649.41	955.29
649.75	948.40
650.09	941.48
650.43	934.79
650.78	927.56
651.12	920.60
651.46	913.95
651.80	907.35
652.14	901.02
652.49	894.88
652.83	888.90
653.17	882.33
653.51	875.67
653.85	869.37
654.20	862.81
654.54	855.92
654.88	849.29
655.22	842.43
655.56	835.81
655.90	829.47
656.25	823.41
656.59	817.18
656.93	811.26
657.27	805.24
657.61	798.97
657.95	793.07
658.29	787.22
658.64	781.10
658.98	774.87
659.32	768.50
659.66	762.40
660.00	756.21
660.34	750.50
660.68	744.77
661.02	738.96
661.36	733.48
661.70	728.22
662.05	723.17
662.39	718.17
662.73	712.99
663.07	707.87
663.41	702.65
663.75	697.35
664.09	692.04
664.43	686.93
664.77	682.09
665.11	677.13
665.45	672.30
665.79	667.53
666.13	662.72
666.47	658.08
666.81	653.28
667.15	648.53
667.49	643.96
667.83	639.58
668.17	635.07
668.51	630.34
668.85	625.59
669.19	621.11
669.53	616.66
669.87	612.20
670.21	607.86
670.55	603.64
670.89	599.70
671.23	595.79
671.57	591.68
671.91	587.55
672.25	583.50
672.58	579.38
672.92	575.39
673.26	571.71
673.60	567.98
673.94	564.37
674.28	560.94
674.62	557.59
674.96	553.92
675.30	550.54
675.64	547.14
675.97	543.94
676.31	540.62
676.65	537.21
676.99	534.05
677.33	530.75
677.67	527.47
678.01	523.93
678.34	520.44
678.68	517.12
679.02	513.92
679.36	510.72
679.70	507.63
680.04	504.44
680.37	501.14
680.71	497.91
681.05	494.90
681.39	491.75
681.73	488.64
682.06	485.74
682.40	482.75
682.74	479.79
683.08	476.85
683.42	473.81
683.75	470.91
684.09	467.92
684.43	465.13
684.77	462.26
685.10	459.53
685.44	456.82
685.78	454.17
686.12	451.58
686.45	448.89
686.79	446.21
687.13	443.66
687.46	441.14
687.80	438.66
688.14	436.06
688.48	433.67
688.81	431.03
689.15	428.48
689.49	425.95
689.82	423.49
690.16	421.02
690.50	418.77
690.83	416.54
691.17	414.23
691.51	411.98
691.84	409.88
692.18	407.69
692.52	405.40
692.85	403.11
693.19	400.87
693.52	398.69
693.86	396.58
694.20	394.42
694.53	392.31
694.87	390.09
695.21	387.99
695.54	385.88
695.88	383.88
696.21	381.93
696.55	379.95
696.88	378.02
697.22	376.10
697.56	374.17
697.89	372.23
698.23	370.39
698.56	368.53
698.90	366.66
699.23	364.69
699.57	362.88
699.90	361.06
700.24	359.29
700.58	357.59
700.91	355.78
701.25	354.16
701.58	352.57
701.92	351.03
702.25	349.41
702.59	347.82
702.92	346.32
703.26	344.79
703.59	343.32
703.93	341.95
704.26	340.54
704.60	339.05
704.93	337.55
705.26	336.07
705.60	334.61
705.93	333.23
706.27	332.01
706.60	330.75
706.94	329.51
707.27	328.14
707.61	326.86
707.94	325.69
708.27	324.41
708.61	323.13
708.94	321.93
709.28	320.78
709.61	319.65
709.94	318.52
710.28	317.27
710.61	316.13
710.95	314.81
711.28	313.69
711.61	312.57
711.95	311.49
712.28	310.40
712.61	309.30
712.95	308.22
713.28	307.21
713.61	306.19
713.95	305.17
714.28	304.23
714.61	303.20
714.95	302.23
715.28	301.23
715.61	300.23
715.95	299.23
716.28	298.24
716.61	297.23
716.95	296.27
717.28	295.45
717.61	294.56
717.94	293.73
718.28	292.83
718.61	292.00
718.94	291.16
719.27	290.37
719.61	289.61
719.94	288.80
720.27	287.93
720.60	287.17
720.94	286.44
721.27	285.70
721.60	285.03
721.93	284.30
722.27	283.68
722.60	283.02
722.93	282.37
723.26	281.76
723.59	281.09
723.93	280.44
724.26	279.73
724.59	279.05
724.92	278.43
725.25	277.81
725.59	277.15
725.92	276.62
726.25	276.05
726.58	275.43
726.91	274.88
727.24	274.39
727.57	273.81
727.91	273.21
728.24	272.63
728.57	272.04
728.90	271.48
729.23	270.88
729.56	270.36
729.89	269.81
730.22	269.19
730.55	268.67
730.89	268.15
731.22	267.66
731.55	267.20
731.88	266.68
732.21	266.20
732.54	265.70
732.87	265.16
733.20	264.63
733.53	264.20
733.86	263.77
734.19	263.30
734.52	262.88
734.85	262.51
735.18	262.06
735.51	261.65
735.84	261.26
736.17	260.82
736.50	260.37
736.83	260.06
737.16	259.71
737.49	259.32
737.82	258.87
738.15	258.47
738.48	258.04
738.81	257.66
739.14	257.28
739.47	256.93
739.80	256.57
740.13	256.24
740.46	255.88
740.79	255.49
741.12	255.12
741.45	254.73
741.78	254.29
742.11	253.97
742.44	253.60
742.77	253.28
743.10	252.99
743.43	252.64
743.75	252.21
744.08	252.00
744.41	251.68
744.74	251.40
745.07	251.11
745.40	250.85
745.73	250.58
746.06	250.21
746.39	249.88
746.71	249.54
747.04	249.24
747.37	248.93
747.70	248.65
748.03	248.33
748.36	248.05
748.68	247.82
749.01	247.53
749.34	247.28
749.67	247.00
750.00	246.74
750.33	246.53
750.65	246.28
750.98	245.88
751.31	245.62
751.64	245.37
751.97	245.14
752.29	244.89
752.62	244.62
752.95	244.40
753.28	244.20
753.60	243.96
753.93	243.72
754.26	243.49
754.59	243.23
754.91	242.98
755.24	242.77
755.57	242.53
755.90	242.28
756.22	242.00
756.55	241.73
756.88	241.45
757.20	241.23
757.53	241.02
757.86	240.83
758.19	240.65
758.51	240.47
758.84	240.23
759.17	240.02
759.49	239.84
759.82	239.70
760.15	239.50
760.47	239.34
760.80	239.14
761.13	238.98
761.45	238.78
761.78	238.62
762.11	238.44
762.43	238.29
762.76	238.14
763.08	238.07
763.41	237.95
763.74	237.82
764.06	237.64
764.39	237.47
764.71	237.30
765.04	237.10
765.37	236.93
765.69	236.78
766.02	236.65
766.34	236.49
766.67	236.32
767.00	236.18
767.32	236.13
767.65	236.06
767.97	235.92
768.30	235.84
768.62	235.73
768.95	235.62
769.27	235.49
769.60	235.36
769.92	235.19
770.25	235.03
770.57	234.90
770.90	234.80
771.22	234.69
771.55	234.62
771.87	234.54
772.20	234.43
772.52	234.40
772.85	234.40
773.17	234.35
773.50	234.21
773.82	234.12
774.15	233.95
774.47	233.82
774.80	233.74
775.12	233.62
775.45	233.52
775.77	233.44
776.09	233.36
776.42	233.26
776.74	233.19
777.07	233.14
777.39	233.10
777.72	232.96
778.04	232.89
778.36	232.76
778.69	232.70
779.01	232.63
779.33	232.50
779.66	232.31
779.98	232.22
780.31	232.19
780.63	232.16
780.95	232.13
781.28	232.02
781.60	231.93
781.92	231.87
782.25	231.81
782.57	231.72
782.89	231.66
783.22	231.61
783.54	231.56
783.86	231.49
784.19	231.40
784.51	231.39
784.83	231.32
785.16	231.28
785.48	231.24
785.80	231.22
786.12	231.16
786.45	231.10
786.77	231.04
787.09	230.96
787.42	230.86
787.74	230.82
788.06	230.79
788.38	230.77
788.71	230.71
789.03	230.62
789.35	230.58
789.67	230.52
789.99	230.44
790.32	230.40
790.64	230.36
790.96	230.38
791.28	230.31
791.61	230.28
791.93	230.25
792.25	230.19
792.57	230.16
792.89	230.10
793.21	230.02
793.54	229.96
793.86	229.91
794.18	229.87
794.50	229.78
794.82	229.73
795.14	229.70
795.47	229.67
795.79	229.66
796.11	229.59
796.43	229.56
796.75	229.55
797.07	229.51
797.39	229.43
797.71	229.31
798.04	229.28
798.36	229.23
798.68	229.20
799.00	229.15
799.32	229.06
799.64	229.02
799.96	229.00
800.28	228.98
800.60	228.95
800.92	228.90
801.24	228.84
801.56	228.82
801.89	228.73
802.21	228.65
802.53	228.62
802.85	228.58
803.17	228.57
803.49	228.49
803.81	228.41
804.13	228.37
804.45	228.35
804.77	228.31
805.09	228.26
805.41	228.19
805.73	228.14
806.05	228.08
806.37	228.06
806.69	228.03
807.01	228.01
807.33	227.98
807.65	227.92
807.97	227.95
808.28	227.90
808.60	227.88
808.92	227.84
809.24	227.86
809.56	227.83
809.88	227.75
810.20	227.73
810.52	227.75
810.84	227.71
811.16	227.65
811.48	227.65
811.80	227.64
812.12	227.64
812.43	227.61
812.75	227.60
813.07	227.55
813.39	227.51
813.71	227.47
814.03	227.42
814.35	227.41
814.67	227.34
814.98	227.30
815.30	227.29
815.62	227.26
815.94	227.19
816.26	227.23
816.58	227.21
816.89	227.19
817.21	227.14
817.53	227.13
817.85	227.10
818.17	227.04
818.48	227.01
818.80	226.98
819.12	226.94
819.44	226.93
819.76	226.88
820.07	226.86
820.39	226.84
820.71	226.83
821.03	226.83
821.34	226.81
821.66	226.79
821.98	226.78
822.30	226.77
822.61	226.78
822.93	226.71
823.25	226.65
823.57	226.66
823.88	226.63
824.20	226.60
824.52	226.63
824.83	226.62
825.15	226.62
825.47	226.59
825.79	226.59
826.10	226.55
826.42	226.54
826.74	226.53
827.05	226.50
827.37	226.48
827.69	226.46
828.00	226.45
828.32	226.45
828.64	226.40
828.95	226.44
829.27	226.42
829.58	226.39
829.90	226.43
830.22	226.40
830.53	226.40
830.85	226.42
831.17	226.37
831.48	226.33
831.80	226.27
832.11	226.25
832.43	226.21
832.75	226.20
833.06	226.24
833.38	226.18
833.69	226.14
834.01	226.14
834.32	226.10
834.64	226.06
834.96	226.04
835.27	226.03
835.59	226.01
835.90	225.99
836.22	225.95
836.53	225.92
836.85	225.89
837.16	226.00
837.48	225.97
837.79	226.03
838.11	226.02
838.42	226.05
838.74	226.09
839.05	226.10
839.37	226.07
839.68	226.03
840.00	226.04
840.31	226.07
840.63	226.04
840.94	226.05
841.26	226.08
841.57	226.09
841.88	226.09
842.20	226.06
842.51	226.01
842.83	226.04
843.14	226.12
843.46	226.10
843.77	226.01
844.08	226.00
844.40	225.91
844.71	225.92
845.03	225.88
845.34	225.84
845.65	225.82
845.97	225.85
846.28	225.82
846.60	225.84
846.91	225.81
847.22	225.78
847.54	225.76
847.85	225.75
848.16	225.72
848.48	225.72
848.79	225.73
849.10	225.74
849.42	225.69
849.73	225.62
850.04	225.64
850.36	225.59
850.67	225.60
850.98	225.60
851.30	225.60
851.61	225.60
851.92	225.59
852.23	225.63
852.55	225.62
852.86	225.62
853.17	225.62
853.49	225.59
853.80	225.63
854.11	225.64
854.42	225.65
854.74	225.65
855.05	225.66
855.36	225.61
855.67	225.61
855.99	225.64
856.30	225.73
856.61	225.73
856.92	225.76
857.23	225.73
857.55	225.73
857.86	225.72
858.17	225.73
858.48	225.71
858.79	225.68
859.11	225.68
859.42	225.65
859.73	225.61
860.04	225.62
860.35	225.61
860.66	225.56
860.98	225.53
861.29	225.54
861.60	225.53
861.91	225.56
862.22	225.53
862.53	225.52
862.84	225.40
863.16	225.40
863.47	225.40
863.78	225.40
864.09	225.38
864.40	225.40
864.71	225.42
865.02	225.42
865.33	225.42
865.64	225.40
865.95	225.43
866.27	225.50
866.58	225.47
866.89	225.46
867.20	225.46
867.51	225.46
867.82	225.45
868.13	225.45
868.44	225.41
868.75	225.42
869.06	225.40
869.37	225.41
869.68	225.40
869.99	225.43
870.30	225.41
870.61	225.40
870.92	225.38
871.23	225.39
871.54	225.39
871.85	225.40
872.16	225.43
872.47	225.42
872.78	225.37
873.09	225.39
873.40	225.40
873.71	225.44
874.02	225.45
874.33	225.43
874.64	225.43
874.95	225.46
875.26	225.46
875.56	225.45
875.87	225.46
876.18	225.46
876.49	225.51
876.80	225.51
877.11	225.50
877.42	225.51
877.73	225.46
878.04	225.46
878.35	225.47
878.66	225.45
878.96	225.45
879.27	225.47
879.58	225.47
879.89	225.43
880.20	225.41
880.51	225.41
880.82	225.40
881.12	225.37
881.43	225.37
881.74	225.32
882.05	225.34
882.36	225.31
882.67	225.26
882.97	225.17
883.28	225.15
883.59	225.18
883.90	225.17
884.21	225.19
884.51	225.18
884.82	225.15
885.13	225.13
885.44	225.12
885.74	225.08
886.05	225.06
886.36	225.05
886.67	225.04
886.98	225.08
887.28	225.06
887.59	225.07
887.90	225.06
888.20	225.09
888.51	225.08
888.82	225.06
889.13	225.08
889.43	225.15
889.74	225.18
890.05	225.17
890.35	225.15
890.66	225.12
890.97	225.09
891.28	225.09
891.58	225.09
891.89	225.10
892.20	225.10
892.50	225.10
892.81	225.13
893.12	225.11
893.42	225.06
893.73	225.08
894.04	225.08
894.34	225.06
894.65	225.03
894.95	225.02
895.26	225.05
895.57	225.09
895.87	225.00
896.18	225.01
896.48	225.03
896.79	225.04
897.10	225.06
897.40	225.10
897.71	225.13
898.01	225.14
898.32	225.16
898.63	225.15
898.93	225.17
899.24	225.16
899.54	225.15
899.85	225.15
900.15	225.15
900.46	225.15
900.76	225.17
901.07	225.19
901.38	225.18
901.68	225.15
901.99	225.10
902.29	225.10
902.60	225.08
902.90	225.02
903.21	225.02
903.51	225.02
903.82	225.03
904.12	224.99
904.43	224.99
904.73	224.97
905.03	224.99
905.34	225.09
905.64	225.07
905.95	225.10
906.25	225.12
906.56	225.13
906.86	225.13
907.17	225.11
907.47	225.11
907.77	225.08
908.08	225.09
908.38	225.11
908.69	225.09
908.99	225.10
909.30	225.15
909.60	225.16
909.90	225.15
910.21	225.11
910.51	225.09
910.81	225.09
911.12	225.11
911.42	225.06
911.73	224.96
912.03	224.97
912.33	224.96
912.64	224.94
912.94	224.93
913.24	224.93
913.55	224.93
913.85	224.94
914.15	224.95
914.46	225.00
914.76	224.98
915.06	225.00
915.37	224.96
915.67	224.93
915.97	224.91
916.27	224.90
916.58	224.93
916.88	224.95
917.18	224.95
917.49	224.98
917.79	225.02
918.09	225.02
918.39	225.04
918.70	225.05
919.00	225.02
919.30	225.06
919.60	225.03
919.91	225.01
920.21	225.00
920.51	224.98
920.81	224.97
921.12	224.98
921.42	224.99
921.72	225.01
922.02	225.04
922.32	225.05
922.63	225.06
922.93	225.10
923.23	225.10
923.53	225.06
923.83	225.03
924.13	225.04
924.44	225.03
924.74	225.07
925.04	225.08
925.34	225.09
925.64	225.07
925.94	225.08
926.24	225.16
926.55	225.20
926.85	225.22
927.15	225.22
927.45	225.26
927.75	225.24
928.05	225.28
928.35	225.28
928.65	225.34
928.95	225.32
929.26	225.29
929.56	225.32
929.86	225.36
930.16	225.36
930.46	225.35
930.76	225.37
931.06	225.33
931.36	225.31
931.66	225.37
931.96	225.35
932.26	225.37
932.56	225.32
932.86	225.33
933.16	225.35
933.46	225.34
933.76	225.29
934.06	225.30
934.36	225.31
934.66	225.28
934.96	225.24
935.26	225.29
935.56	225.29
935.86	225.23
936.16	225.21
936.46	225.19
936.76	225.16
937.06	225.16
937.36	225.15
937.66	225.18
937.96	225.16
938.26	225.18
938.56	225.15
938.86	225.16
939.16	225.16
939.46	225.14
939.76	225.14
940.06	225.12
940.35	225.11
940.65	225.06
940.95	225.09
941.25	225.08
941.55	225.06
941.85	225.03
942.15	225.10
942.45	225.12
942.75	225.14
943.04	225.16
943.34	225.16
943.64	225.13
943.94	225.12
944.24	225.11
944.54	225.10
944.84	225.08
945.13	225.05
945.43	225.01
945.73	225.04
946.03	225.05
946.33	225.05
946.62	225.04
946.92	225.06
947.22	225.04
947.52	225.04
947.82	225.07
948.11	225.08
948.41	225.07
948.71	225.05
949.01	225.08
949.31	225.07
949.60	225.07
949.90	225.10
950.20	225.07
950.50	225.06
950.79	225.07
951.09	225.09
951.39	225.09
951.69	225.11
951.98	225.11
952.28	225.12
952.58	225.10
952.87	225.10
953.17	225.11
953.47	225.15
953.76	225.17
954.06	225.10
954.36	225.06
954.66	225.06
954.95	225.07
955.25	225.03
955.55	225.04
955.84	225.03
956.14	225.03
956.44	225.07
956.73	225.04
957.03	225.04
957.32	225.03
957.62	225.07
957.92	225.10
958.21	225.08
958.51	225.16
958.81	225.19
959.10	225.22
959.40	225.22
959.69	225.17
959.99	225.17
960.29	225.20
960.58	225.20
960.88	225.21
961.17	225.19
961.47	225.22
961.76	225.24
962.06	225.23
962.36	225.23
962.65	225.22
962.95	225.19
963.24	225.19
963.54	225.17
963.83	225.16
964.13	225.14
964.42	225.11
964.72	225.03
965.01	225.05
965.31	225.04
965.60	224.98
965.90	225.03
966.19	225.00
966.49	224.99
966.78	225.03
967.08	225.04
967.37	225.07
967.67	225.07
967.96	225.08
968.26	225.12
968.55	225.11
968.85	225.10
969.14	225.14
969.43	225.12
969.73	225.11
970.02	225.09
970.32	225.09
970.61	225.08
970.91	225.04
971.20	225.01
971.49	224.99
971.79	225.06
972.08	225.00
972.38	225.03
972.67	225.03
972.96	224.98
973.26	224.95
973.55	224.97
973.85	224.94
974.14	224.92
974.43	224.90
974.73	224.90
975.02	224.90
975.31	224.88
975.61	224.87
975.90	224.88
976.19	224.87
976.49	224.89
976.78	224.90
977.07	224.94
977.37	224.94
977.66	224.96
977.95	224.91
978.24	224.93
978.54	224.92
978.83	224.92
979.12	224.95
979.42	224.94
979.71	224.90
980.00	224.90
980.29	224.90
980.59	224.90
980.88	224.91
981.17	224.90
981.46	224.91
981.76	224.93
982.05	224.94
982.34	224.93
982.63	224.93
982.93	224.94
983.22	224.95
983.51	224.94
983.80	224.94
984.09	224.96
984.39	224.94
984.68	224.93
984.97	224.95
985.26	224.93
985.55	224.96
985.85	224.94
986.14	224.95
986.43	224.93
986.72	224.92
987.01	224.91
987.30	224.91
987.59	224.89
987.89	224.88
988.18	224.87
988.47	224.89
988.76	224.88
989.05	224.88
989.34	224.85
989.63	224.89
989.92	224.91
990.22	224.90
990.51	224.89
990.80	224.86
991.09	224.83
991.38	224.84
991.67	224.84
991.96	224.80
992.25	224.80
992.54	224.84
992.83	224.84
993.12	224.83
993.41	224.87
993.70	224.93
993.99	224.92
994.28	224.94
994.58	224.94
994.87	224.94
995.16	224.96
995.45	224.97
995.74	224.96
996.03	224.97
996.32	224.98
996.61	225.03
996.90	225.08
997.19	225.10
997.48	225.10
997.77	225.07
998.06	225.10
998.34	225.10
998.63	225.04
998.92	225.02
999.21	225.01
999.50	224.98
999.79	224.95
1000.08	224.96
1000.37	224.94
1000.66	224.91
1000.95	224.92
1001.24	224.91
1001.53	224.92
1001.82	224.88
1002.11	224.86
1002.40	224.85
1002.68	224.86
1002.97	224.92
1003.26	224.89
1003.55	224.90
1003.84	224.90
1004.13	224.93
1004.42	224.91
1004.71	224.94
1004.99	224.94
1005.28	224.95
1005.57	224.96
1005.86	224.93
1006.15	224.96
1006.44	224.98
1006.72	224.99
1007.01	224.97
1007.30	224.97
1007.59	224.97
1007.88	224.97
1008.17	224.98
1008.45	224.97
1008.74	224.93
1009.03	224.85
1009.32	224.85
1009.60	224.83
1009.89	224.84
1010.18	224.83
1010.47	224.83
1010.76	224.81
1011.04	224.80
1011.33	224.84
1011.62	224.85
1011.91	224.85
1012.19	224.84
1012.48	224.83
1012.77	224.88
1013.05	224.92
1013.34	224.91
1013.63	224.90
1013.92	224.93
1014.20	224.93
1014.49	224.96
1014.78	224.97
1015.06	225.00
1015.35	224.99
1015.64	225.00
1015.92	224.98
1016.21	224.97
1016.50	224.96
1016.78	224.98
1017.07	225.01
1017.36	224.96
1017.64	224.95
1017.93	224.98
1018.22	224.96
1018.50	224.94
1018.79	224.89
1019.08	224.86
1019.36	224.86
1019.65	224.83
1019.93	224.85
1020.22	224.85
1020.51	224.88
1020.79	224.88
1021.08	224.64
1021.36	224.39
1021.65	224.30
1021.94	224.98
1022.22	224.90
1022.51	224.57
1022.79	225.19
1023.08	225.26
1023.36	225.98
1023.65	225.11
>>>>>End Processed Spectral Data<<<<<
