SpectraSuite Data File
++++++++++++++++++++++++++++++++++++
Date: Fri Feb 01 16:27:47 EST 2013
User: group
Dark Spectrum Present: No
Reference Spectrum Present: No
Number of Sampled Component Spectra: 1
Spectrometers: USB2E7196
Integration Time (usec): 35000 (USB2E7196)
Spectra Averaged: 100 (USB2E7196)
Boxcar Smoothing: 10 (USB2E7196)
Correct for Electrical Dark: No (USB2E7196)
Strobe/Lamp Enabled: No (USB2E7196)
Correct for Detector Non-linearity: No (USB2E7196)
Correct for Stray Light: No (USB2E7196)
Number of Pixels in Processed Spectrum: 2048
>>>>>Begin Processed Spectral Data<<<<<
339.09	0.00
339.48	214.07
339.86	215.27
340.24	217.37
340.63	218.18
341.01	221.41
341.39	221.80
341.78	222.52
342.16	223.35
342.54	224.52
342.93	212.67
343.31	223.42
343.69	223.98
344.07	224.45
344.46	224.84
344.84	225.23
345.22	225.47
345.60	225.68
345.99	225.90
346.37	226.04
346.75	226.12
347.13	226.21
347.52	226.22
347.90	226.27
348.28	226.32
348.66	226.34
349.05	226.34
349.43	226.37
349.81	226.42
350.19	226.44
350.57	226.51
350.96	226.60
351.34	226.66
351.72	226.71
352.10	226.79
352.48	226.87
352.87	226.92
353.25	226.96
353.63	226.99
354.01	226.98
354.39	227.08
354.77	227.14
355.15	227.23
355.54	227.29
355.92	227.35
356.30	227.43
356.68	227.57
357.06	227.64
357.44	227.66
357.82	227.70
358.20	227.77
358.58	227.82
358.97	227.87
359.35	227.94
359.73	228.01
360.11	228.08
360.49	228.11
360.87	228.15
361.25	228.20
361.63	228.25
362.01	228.32
362.39	228.29
362.77	228.30
363.15	228.30
363.53	228.34
363.91	228.33
364.29	228.31
364.67	228.21
365.05	228.20
365.43	228.22
365.81	228.23
366.19	228.26
366.57	228.27
366.95	228.23
367.33	228.16
367.71	228.16
368.09	228.18
368.47	228.16
368.85	228.11
369.23	228.13
369.61	228.07
369.99	228.04
370.37	228.05
370.75	228.08
371.13	228.01
371.51	227.95
371.89	227.92
372.27	227.90
372.65	227.89
373.03	227.82
373.41	227.80
373.78	227.75
374.16	227.66
374.54	227.59
374.92	227.54
375.30	227.53
375.68	227.44
376.06	227.37
376.44	227.32
376.82	227.29
377.19	227.20
377.57	227.16
377.95	227.07
378.33	226.99
378.71	226.89
379.09	226.88
379.47	226.83
379.84	226.78
380.22	226.72
380.60	226.63
380.98	226.60
381.36	226.52
381.73	226.44
382.11	226.39
382.49	226.35
382.87	226.28
383.25	226.24
383.62	226.32
384.00	226.26
384.38	226.24
384.76	226.24
385.13	226.22
385.51	226.19
385.89	226.20
386.27	226.17
386.64	226.15
387.02	226.07
387.40	226.01
387.78	225.95
388.15	225.93
388.53	225.89
388.91	225.87
389.29	225.84
389.66	225.85
390.04	225.86
390.42	225.86
390.79	225.86
391.17	225.83
391.55	225.73
391.92	225.72
392.30	225.71
392.68	225.66
393.05	225.68
393.43	225.69
393.81	225.69
394.18	225.68
394.56	225.68
394.94	225.76
395.31	225.80
395.69	225.86
396.06	225.88
396.44	225.95
396.82	225.93
397.19	226.00
397.57	226.04
397.95	226.08
398.32	226.09
398.70	226.13
399.07	226.22
399.45	226.25
399.82	226.29
400.20	226.35
400.58	226.42
400.95	226.44
401.33	226.56
401.70	226.70
402.08	226.81
402.45	226.90
402.83	226.98
403.20	227.09
403.58	227.16
403.95	227.24
404.33	227.35
404.71	227.53
405.08	227.71
405.46	227.80
405.83	227.92
406.21	228.05
406.58	228.19
406.96	228.31
407.33	228.47
407.70	228.65
408.08	228.86
408.45	229.05
408.83	229.27
409.20	229.45
409.58	229.62
409.95	229.85
410.33	230.09
410.70	230.32
411.08	230.58
411.45	230.86
411.82	231.17
412.20	231.51
412.57	231.87
412.95	232.13
413.32	232.55
413.69	232.97
414.07	233.39
414.44	233.84
414.82	234.34
415.19	234.87
415.56	235.42
415.94	235.97
416.31	236.64
416.68	237.27
417.06	237.97
417.43	238.66
417.81	239.39
418.18	240.17
418.55	241.01
418.93	241.87
419.30	242.78
419.67	243.72
420.04	244.69
420.42	245.68
420.79	246.84
421.16	248.01
421.54	249.22
421.91	250.45
422.28	251.74
422.66	253.06
423.03	254.39
423.40	255.72
423.77	257.12
424.15	258.52
424.52	260.00
424.89	261.61
425.26	263.15
425.64	264.60
426.01	266.22
426.38	267.88
426.75	269.55
427.13	271.29
427.50	273.08
427.87	274.95
428.24	276.87
428.61	278.61
428.99	280.52
429.36	282.58
429.73	284.65
430.10	286.67
430.47	288.71
430.85	290.79
431.22	293.03
431.59	295.43
431.96	297.68
432.33	300.19
432.70	302.56
433.08	305.34
433.45	308.01
433.82	310.58
434.19	313.42
434.56	316.27
434.93	318.91
435.30	321.53
435.68	324.39
436.05	327.18
436.42	330.00
436.79	332.47
437.16	335.17
437.53	338.00
437.90	340.82
438.27	343.58
438.64	346.41
439.01	349.01
439.38	351.24
439.75	353.38
440.13	355.84
440.50	358.23
440.87	360.05
441.24	362.01
441.61	364.19
441.98	365.69
442.35	367.48
442.72	369.37
443.09	371.17
443.46	372.14
443.83	372.73
444.20	373.17
444.57	374.04
444.94	374.28
445.31	374.63
445.68	374.97
446.05	375.05
446.42	374.69
446.79	374.30
447.16	373.85
447.53	373.54
447.90	372.38
448.27	371.17
448.64	369.64
449.01	368.46
449.37	366.47
449.74	364.58
450.11	362.31
450.48	359.84
450.85	357.32
451.22	355.21
451.59	353.15
451.96	351.26
452.33	348.68
452.70	346.38
453.07	343.48
453.43	340.56
453.80	337.80
454.17	335.13
454.54	332.54
454.91	329.77
455.28	327.11
455.65	324.60
456.02	322.18
456.38	320.03
456.75	317.36
457.12	315.17
457.49	312.96
457.86	310.81
458.23	308.99
458.59	306.95
458.96	304.90
459.33	303.09
459.70	301.25
460.07	299.72
460.43	297.95
460.80	296.39
461.17	294.97
461.54	293.47
461.91	292.08
462.27	290.67
462.64	289.46
463.01	288.09
463.38	286.81
463.74	285.43
464.11	284.28
464.48	283.30
464.85	282.15
465.21	281.29
465.58	280.39
465.95	279.26
466.32	278.37
466.68	277.45
467.05	276.55
467.42	275.64
467.78	274.73
468.15	273.93
468.52	273.28
468.88	272.43
469.25	271.62
469.62	271.00
469.98	270.28
470.35	269.67
470.72	269.11
471.08	268.48
471.45	267.93
471.82	267.42
472.18	266.82
472.55	266.42
472.92	265.90
473.28	265.46
473.65	265.02
474.02	264.56
474.38	264.24
474.75	263.96
475.11	263.64
475.48	263.43
475.85	263.21
476.21	262.98
476.58	262.82
476.94	262.71
477.31	262.53
477.67	262.41
478.04	262.30
478.41	262.27
478.77	262.31
479.14	262.27
479.50	262.30
479.87	262.38
480.23	262.44
480.60	262.53
480.96	262.61
481.33	262.86
481.69	263.10
482.06	263.28
482.42	263.51
482.79	263.79
483.15	264.10
483.52	264.46
483.88	264.85
484.25	265.22
484.61	265.70
484.98	266.16
485.34	266.75
485.71	267.39
486.07	267.98
486.44	268.57
486.80	269.28
487.17	270.01
487.53	270.83
487.90	271.68
488.26	272.63
488.62	273.62
488.99	274.59
489.35	275.62
489.72	276.78
490.08	277.95
490.44	279.18
490.81	280.54
491.17	281.92
491.54	283.40
491.90	284.97
492.26	286.56
492.63	288.31
492.99	290.09
493.36	292.00
493.72	294.03
494.08	296.16
494.45	298.42
494.81	300.73
495.17	303.16
495.54	305.71
495.90	308.41
496.26	311.26
496.63	314.22
496.99	317.34
497.35	320.57
497.72	324.01
498.08	327.52
498.44	331.11
498.80	335.03
499.17	339.05
499.53	343.24
499.89	347.66
500.26	352.17
500.62	356.87
500.98	361.79
501.34	366.85
501.71	372.13
502.07	377.55
502.43	383.24
502.79	389.08
503.16	395.17
503.52	401.43
503.88	407.79
504.24	414.41
504.60	421.27
504.97	428.42
505.33	435.71
505.69	443.44
506.05	451.27
506.41	459.16
506.78	467.35
507.14	475.78
507.50	484.50
507.86	493.49
508.22	502.67
508.59	511.87
508.95	521.47
509.31	531.30
509.67	541.34
510.03	551.56
510.39	562.08
510.75	572.87
511.12	583.79
511.48	595.08
511.84	606.54
512.20	618.06
512.56	629.98
512.92	642.08
513.28	654.40
513.64	666.85
514.00	679.57
514.37	692.49
514.73	705.55
515.09	718.56
515.45	731.88
515.81	745.38
516.17	759.32
516.53	773.47
516.89	787.69
517.25	801.86
517.61	816.28
517.97	830.73
518.33	845.20
518.69	859.87
519.05	874.79
519.41	889.92
519.77	905.49
520.13	920.81
520.49	936.18
520.85	951.50
521.21	967.15
521.57	983.27
521.93	998.90
522.29	1015.22
522.65	1031.35
523.01	1047.54
523.37	1063.53
523.73	1079.70
524.09	1095.61
524.45	1111.70
524.81	1128.32
525.17	1145.08
525.53	1161.85
525.89	1178.62
526.25	1195.43
526.61	1211.82
526.97	1228.45
527.33	1244.69
527.68	1261.30
528.04	1277.74
528.40	1294.39
528.76	1311.36
529.12	1327.90
529.48	1344.80
529.84	1360.69
530.20	1377.22
530.56	1394.08
530.91	1411.48
531.27	1428.15
531.63	1444.64
531.99	1461.23
532.35	1477.00
532.71	1492.92
533.07	1509.07
533.42	1524.79
533.78	1540.67
534.14	1556.82
534.50	1572.15
534.86	1588.11
535.21	1603.20
535.57	1618.97
535.93	1634.30
536.29	1649.10
536.65	1664.05
537.00	1678.56
537.36	1693.72
537.72	1708.17
538.08	1722.56
538.44	1736.20
538.79	1750.07
539.15	1763.44
539.51	1777.08
539.87	1791.35
540.22	1804.96
540.58	1818.72
540.94	1831.99
541.29	1844.87
541.65	1857.47
542.01	1870.62
542.37	1882.91
542.72	1895.26
543.08	1907.03
543.44	1919.35
543.79	1930.41
544.15	1941.32
544.51	1952.88
544.87	1963.74
545.22	1974.52
545.58	1984.73
545.94	1994.43
546.29	2004.15
546.65	2014.17
547.01	2023.47
547.36	2032.07
547.72	2040.30
548.07	2048.00
548.43	2056.07
548.79	2063.99
549.14	2071.43
549.50	2078.58
549.86	2086.04
550.21	2093.26
550.57	2100.33
550.92	2106.73
551.28	2113.73
551.64	2120.67
551.99	2127.17
552.35	2133.41
552.70	2139.65
553.06	2145.56
553.41	2151.88
553.77	2157.88
554.13	2163.83
554.48	2169.88
554.84	2175.49
555.19	2180.83
555.55	2185.91
555.90	2190.42
556.26	2195.36
556.61	2200.07
556.97	2204.36
557.32	2208.46
557.68	2212.49
558.03	2216.89
558.39	2220.65
558.74	2225.39
559.10	2229.33
559.45	2233.01
559.81	2237.42
560.16	2241.15
560.52	2244.22
560.87	2247.58
561.23	2250.27
561.58	2253.25
561.94	2255.64
562.29	2257.94
562.64	2260.65
563.00	2263.36
563.35	2266.92
563.71	2270.19
564.06	2273.49
564.42	2276.36
564.77	2278.95
565.12	2281.37
565.48	2283.21
565.83	2285.16
566.19	2286.37
566.54	2287.22
566.89	2288.39
567.25	2288.89
567.60	2290.10
567.96	2291.87
568.31	2292.88
568.66	2293.98
569.02	2294.57
569.37	2295.07
569.72	2295.96
570.08	2296.06
570.43	2296.24
570.78	2295.73
571.14	2293.94
571.49	2292.76
571.84	2292.55
572.20	2291.47
572.55	2290.59
572.90	2288.99
573.26	2287.60
573.61	2285.87
573.96	2284.34
574.31	2281.34
574.67	2278.33
575.02	2274.92
575.37	2271.59
575.72	2267.71
576.08	2264.43
576.43	2261.23
576.78	2257.46
577.13	2254.39
577.49	2251.36
577.84	2247.83
578.19	2244.10
578.54	2240.73
578.90	2236.39
579.25	2231.01
579.60	2226.10
579.95	2221.02
580.30	2216.19
580.66	2211.19
581.01	2206.40
581.36	2201.55
581.71	2197.52
582.06	2193.29
582.42	2188.71
582.77	2183.61
583.12	2179.28
583.47	2174.60
583.82	2169.65
584.17	2164.63
584.53	2159.36
584.88	2153.89
585.23	2148.22
585.58	2142.85
585.93	2137.40
586.28	2132.65
586.63	2127.57
586.98	2122.65
587.34	2117.86
587.69	2113.04
588.04	2107.80
588.39	2102.24
588.74	2095.71
589.09	2089.58
589.44	2082.74
589.79	2076.86
590.14	2071.19
590.49	2064.67
590.84	2058.36
591.19	2052.41
591.54	2046.00
591.89	2038.55
592.25	2031.68
592.60	2024.54
592.95	2017.03
593.30	2009.70
593.65	2002.22
594.00	1995.26
594.35	1987.97
594.70	1980.16
595.05	1972.93
595.40	1965.81
595.75	1958.30
596.10	1952.34
596.45	1945.68
596.80	1939.70
597.15	1933.19
597.50	1926.31
597.85	1919.81
598.19	1913.24
598.54	1906.17
598.89	1899.60
599.24	1893.72
599.59	1887.06
599.94	1880.85
600.29	1874.54
600.64	1868.07
600.99	1860.68
601.34	1853.85
601.69	1846.93
602.04	1840.11
602.39	1832.80
602.74	1825.92
603.08	1819.20
603.43	1812.35
603.78	1805.12
604.13	1797.81
604.48	1790.47
604.83	1783.61
605.18	1776.65
605.53	1768.60
605.87	1760.47
606.22	1753.23
606.57	1745.34
606.92	1738.14
607.27	1731.00
607.62	1723.96
607.96	1716.71
608.31	1710.12
608.66	1702.52
609.01	1694.97
609.36	1687.39
609.70	1679.39
610.05	1671.25
610.40	1663.68
610.75	1655.40
611.10	1647.73
611.44	1639.43
611.79	1631.45
612.14	1622.75
612.49	1613.60
612.83	1605.26
613.18	1597.26
613.53	1589.18
613.88	1580.52
614.22	1572.30
614.57	1563.74
614.92	1555.77
615.27	1548.16
615.61	1539.90
615.96	1531.87
616.31	1524.20
616.65	1516.85
617.00	1509.48
617.35	1501.92
617.70	1493.51
618.04	1485.12
618.39	1476.82
618.74	1469.10
619.08	1460.85
619.43	1453.26
619.78	1446.30
620.12	1439.21
620.47	1431.71
620.82	1423.43
621.16	1416.14
621.51	1408.59
621.85	1400.97
622.20	1392.55
622.55	1384.23
622.89	1376.33
623.24	1368.71
623.59	1361.41
623.93	1353.94
624.28	1346.62
624.62	1339.05
624.97	1331.89
625.32	1325.02
625.66	1318.07
626.01	1310.82
626.35	1303.35
626.70	1295.57
627.04	1287.87
627.39	1280.13
627.73	1272.76
628.08	1265.92
628.43	1258.61
628.77	1251.16
629.12	1243.57
629.46	1236.45
629.81	1228.93
630.15	1221.71
630.50	1214.28
630.84	1205.97
631.19	1197.92
631.53	1190.37
631.88	1182.78
632.22	1175.14
632.57	1167.83
632.91	1160.23
633.26	1152.93
633.60	1145.49
633.95	1138.39
634.29	1131.41
634.64	1124.57
634.98	1117.12
635.32	1109.90
635.67	1103.24
636.01	1096.55
636.36	1089.74
636.70	1083.07
637.05	1076.50
637.39	1070.02
637.73	1063.47
638.08	1057.65
638.42	1051.63
638.77	1045.20
639.11	1038.55
639.45	1032.16
639.80	1025.47
640.14	1019.09
640.49	1012.55
640.83	1006.33
641.17	1000.10
641.52	993.69
641.86	987.25
642.20	981.48
642.55	975.25
642.89	968.82
643.23	962.33
643.58	956.56
643.92	950.43
644.26	944.34
644.61	938.28
644.95	932.19
645.29	925.56
645.64	918.91
645.98	912.55
646.32	906.78
646.66	900.72
647.01	894.95
647.35	889.17
647.69	883.28
648.04	877.74
648.38	871.95
648.72	866.00
649.06	859.91
649.41	853.97
649.75	848.02
650.09	842.05
650.43	836.24
650.78	830.09
651.12	824.14
651.46	818.49
651.80	812.79
652.14	807.46
652.49	802.12
652.83	796.91
653.17	791.20
653.51	785.47
653.85	780.10
654.20	774.47
654.54	768.54
654.88	762.85
655.22	756.90
655.56	751.20
655.90	745.74
656.25	740.57
656.59	735.24
656.93	730.10
657.27	724.94
657.61	719.48
657.95	714.43
658.29	709.41
658.64	704.18
658.98	698.83
659.32	693.48
659.66	688.30
660.00	682.95
660.34	678.04
660.68	673.22
661.02	668.14
661.36	663.42
661.70	658.93
662.05	654.56
662.39	650.29
662.73	645.79
663.07	641.44
663.41	636.94
663.75	632.38
664.09	627.79
664.43	623.39
664.77	619.29
665.11	614.99
665.45	610.81
665.79	606.68
666.13	602.54
666.47	598.40
666.81	594.16
667.15	590.06
667.49	586.16
667.83	582.28
668.17	578.36
668.51	574.19
668.85	570.15
669.19	566.30
669.53	562.44
669.87	558.59
670.21	554.89
670.55	551.22
670.89	547.76
671.23	544.35
671.57	540.86
671.91	537.35
672.25	533.83
672.58	530.29
672.92	526.89
673.26	523.72
673.60	520.53
673.94	517.43
674.28	514.51
674.62	511.52
674.96	508.38
675.30	505.49
675.64	502.56
675.97	499.78
676.31	496.85
676.65	493.93
676.99	491.24
677.33	488.39
677.67	485.62
678.01	482.62
678.34	479.64
678.68	476.69
679.02	473.85
679.36	471.07
679.70	468.33
680.04	465.57
680.37	462.70
680.71	459.94
681.05	457.33
681.39	454.62
681.73	451.99
682.06	449.43
682.40	446.89
682.74	444.45
683.08	441.93
683.42	439.37
683.75	436.90
684.09	434.34
684.43	431.81
684.77	429.34
685.10	426.99
685.44	424.68
685.78	422.40
686.12	420.12
686.45	417.85
686.79	415.57
687.13	413.35
687.46	411.16
687.80	408.97
688.14	406.74
688.48	404.70
688.81	402.46
689.15	400.37
689.49	398.23
689.82	396.12
690.16	394.04
690.50	392.14
690.83	390.17
691.17	388.19
691.51	386.34
691.84	384.52
692.18	382.59
692.52	380.64
692.85	378.74
693.19	376.88
693.52	375.00
693.86	373.21
694.20	371.48
694.53	369.73
694.87	367.85
695.21	366.09
695.54	364.29
695.88	362.61
696.21	360.90
696.55	359.22
696.88	357.53
697.22	355.84
697.56	354.17
697.89	352.50
698.23	350.86
698.56	349.25
698.90	347.64
699.23	346.02
699.57	344.46
699.90	342.97
700.24	341.44
700.58	339.98
700.91	338.45
701.25	336.98
701.58	335.57
701.92	334.27
702.25	332.88
702.59	331.46
702.92	330.08
703.26	328.72
703.59	327.44
703.93	326.27
704.26	325.04
704.60	323.76
704.93	322.49
705.26	321.26
705.60	320.07
705.93	318.93
706.27	317.90
706.60	316.85
706.94	315.71
707.27	314.54
707.61	313.43
707.94	312.42
708.27	311.29
708.61	310.22
708.94	309.19
709.28	308.17
709.61	307.21
709.94	306.26
710.28	305.27
710.61	304.23
710.95	303.16
711.28	302.22
711.61	301.23
711.95	300.32
712.28	299.36
712.61	298.38
712.95	297.44
713.28	296.52
713.61	295.60
713.95	294.73
714.28	293.91
714.61	293.02
714.95	292.15
715.28	291.31
715.61	290.43
715.95	289.58
716.28	288.73
716.61	287.89
716.95	287.04
717.28	286.24
717.61	285.48
717.94	284.69
718.28	283.89
718.61	283.20
718.94	282.45
719.27	281.83
719.61	281.14
719.94	280.48
720.27	279.75
720.60	279.08
720.94	278.46
721.27	277.82
721.60	277.25
721.93	276.64
722.27	276.09
722.60	275.52
722.93	274.96
723.26	274.42
723.59	273.86
723.93	273.33
724.26	272.78
724.59	272.22
724.92	271.70
725.25	271.19
725.59	270.64
725.92	270.14
726.25	269.61
726.58	269.13
726.91	268.60
727.24	268.14
727.57	267.70
727.91	267.16
728.24	266.71
728.57	266.23
728.90	265.78
729.23	265.31
729.56	264.90
729.89	264.41
730.22	263.93
730.55	263.49
730.89	263.05
731.22	262.63
731.55	262.22
731.88	261.78
732.21	261.39
732.54	260.96
732.87	260.55
733.20	260.16
733.53	259.77
733.86	259.41
734.19	259.03
734.52	258.64
734.85	258.34
735.18	257.95
735.51	257.62
735.84	257.26
736.17	256.90
736.50	256.50
736.83	256.27
737.16	255.97
737.49	255.65
737.82	255.32
738.15	255.00
738.48	254.68
738.81	254.40
739.14	254.05
739.47	253.73
739.80	253.41
740.13	253.10
740.46	252.78
740.79	252.46
741.12	252.16
741.45	251.84
741.78	251.52
742.11	251.22
742.44	250.87
742.77	250.60
743.10	250.29
743.43	249.99
743.75	249.59
744.08	249.45
744.41	249.16
744.74	248.89
745.07	248.57
745.40	248.31
745.73	248.05
746.06	247.76
746.39	247.53
746.71	247.25
747.04	246.99
747.37	246.75
747.70	246.48
748.03	246.19
748.36	245.95
748.68	245.70
749.01	245.46
749.34	245.22
749.67	244.98
750.00	244.77
750.33	244.61
750.65	244.42
750.98	244.03
751.31	243.81
751.64	243.57
751.97	243.39
752.29	243.18
752.62	242.92
752.95	242.75
753.28	242.53
753.60	242.35
753.93	242.18
754.26	241.96
754.59	241.74
754.91	241.54
755.24	241.32
755.57	241.09
755.90	240.90
756.22	240.71
756.55	240.48
756.88	240.29
757.20	240.07
757.53	239.84
757.86	239.67
758.19	239.50
758.51	239.36
758.84	239.18
759.17	238.99
759.49	238.83
759.82	238.70
760.15	238.55
760.47	238.40
760.80	238.18
761.13	238.05
761.45	237.93
761.78	237.79
762.11	237.65
762.43	237.52
762.76	237.39
763.08	237.26
763.41	237.18
763.74	237.06
764.06	236.90
764.39	236.75
764.71	236.60
765.04	236.47
765.37	236.32
765.69	236.17
766.02	236.03
766.34	235.93
766.67	235.76
767.00	235.66
767.32	235.60
767.65	235.56
767.97	235.44
768.30	235.30
768.62	235.17
768.95	235.07
769.27	234.97
769.60	234.87
769.92	234.82
770.25	234.69
770.57	234.55
770.90	234.45
771.22	234.38
771.55	234.32
771.87	234.27
772.20	234.19
772.52	234.20
772.85	234.27
773.17	234.16
773.50	234.08
773.82	233.98
774.15	233.85
774.47	233.72
774.80	233.64
775.12	233.60
775.45	233.54
775.77	233.46
776.09	233.40
776.42	233.33
776.74	233.25
777.07	233.17
777.39	233.12
777.72	233.07
778.04	233.01
778.36	232.94
778.69	232.86
779.01	232.81
779.33	232.65
779.66	232.46
779.98	232.40
780.31	232.31
780.63	232.30
780.95	232.26
781.28	232.18
781.60	232.13
781.92	232.03
782.25	231.97
782.57	231.92
782.89	231.83
783.22	231.75
783.54	231.65
783.86	231.59
784.19	231.56
784.51	231.49
784.83	231.42
785.16	231.37
785.48	231.30
785.80	231.23
786.12	231.18
786.45	231.13
786.77	231.06
787.09	231.04
787.42	230.92
787.74	230.86
788.06	230.83
788.38	230.73
788.71	230.69
789.03	230.66
789.35	230.63
789.67	230.62
789.99	230.56
790.32	230.52
790.64	230.49
790.96	230.48
791.28	230.39
791.61	230.35
791.93	230.29
792.25	230.21
792.57	230.23
792.89	230.18
793.21	230.11
793.54	230.07
793.86	230.02
794.18	229.99
794.50	229.90
794.82	229.83
795.14	229.81
795.47	229.75
795.79	229.68
796.11	229.60
796.43	229.51
796.75	229.49
797.07	229.44
797.39	229.37
797.71	229.27
798.04	229.27
798.36	229.25
798.68	229.24
799.00	229.26
799.32	229.17
799.64	229.16
799.96	229.14
800.28	229.12
800.60	229.10
800.92	229.08
801.24	229.07
801.56	229.06
801.89	229.04
802.21	229.00
802.53	228.97
802.85	228.96
803.17	229.00
803.49	228.95
803.81	228.93
804.13	228.91
804.45	228.90
804.77	228.89
805.09	228.86
805.41	228.80
805.73	228.75
806.05	228.68
806.37	228.64
806.69	228.62
807.01	228.59
807.33	228.54
807.65	228.48
807.97	228.51
808.28	228.48
808.60	228.45
808.92	228.45
809.24	228.50
809.56	228.46
809.88	228.41
810.20	228.40
810.52	228.40
810.84	228.40
811.16	228.33
811.48	228.29
811.80	228.29
812.12	228.27
812.43	228.27
812.75	228.30
813.07	228.28
813.39	228.26
813.71	228.24
814.03	228.21
814.35	228.19
814.67	228.14
814.98	228.10
815.30	228.07
815.62	228.05
815.94	227.99
816.26	228.03
816.58	227.99
816.89	227.96
817.21	227.90
817.53	227.86
817.85	227.86
818.17	227.85
818.48	227.79
818.80	227.83
819.12	227.80
819.44	227.76
819.76	227.74
820.07	227.73
820.39	227.68
820.71	227.68
821.03	227.70
821.34	227.69
821.66	227.70
821.98	227.71
822.30	227.67
822.61	227.71
822.93	227.65
823.25	227.65
823.57	227.64
823.88	227.67
824.20	227.64
824.52	227.65
824.83	227.63
825.15	227.64
825.47	227.58
825.79	227.58
826.10	227.59
826.42	227.56
826.74	227.55
827.05	227.56
827.37	227.56
827.69	227.53
828.00	227.52
828.32	227.47
828.64	227.44
828.95	227.51
829.27	227.44
829.58	227.45
829.90	227.44
830.22	227.42
830.53	227.37
830.85	227.35
831.17	227.30
831.48	227.29
831.80	227.28
832.11	227.27
832.43	227.25
832.75	227.20
833.06	227.27
833.38	227.22
833.69	227.20
834.01	227.16
834.32	227.12
834.64	227.08
834.96	227.06
835.27	227.05
835.59	227.02
835.90	226.99
836.22	226.95
836.53	226.92
836.85	226.91
837.16	226.97
837.48	226.96
837.79	226.95
838.11	226.94
838.42	226.90
838.74	226.91
839.05	226.86
839.37	226.86
839.68	226.79
840.00	226.82
840.31	226.84
840.63	226.86
840.94	226.85
841.26	226.87
841.57	226.89
841.88	226.89
842.20	226.83
842.51	226.81
842.83	226.81
843.14	226.87
843.46	226.89
843.77	226.85
844.08	226.86
844.40	226.87
844.71	226.85
845.03	226.87
845.34	226.86
845.65	226.87
845.97	226.86
846.28	226.84
846.60	226.83
846.91	226.81
847.22	226.80
847.54	226.82
847.85	226.81
848.16	226.78
848.48	226.78
848.79	226.83
849.10	226.85
849.42	226.86
849.73	226.79
850.04	226.78
850.36	226.78
850.67	226.80
850.98	226.78
851.30	226.82
851.61	226.81
851.92	226.78
852.23	226.82
852.55	226.82
852.86	226.86
853.17	226.86
853.49	226.87
853.80	226.90
854.11	226.92
854.42	226.92
854.74	226.93
855.05	226.93
855.36	226.91
855.67	226.89
855.99	226.88
856.30	226.98
856.61	226.97
856.92	226.95
857.23	226.91
857.55	226.92
857.86	226.89
858.17	226.92
858.48	226.91
858.79	226.88
859.11	226.90
859.42	226.87
859.73	226.83
860.04	226.81
860.35	226.75
860.66	226.72
860.98	226.72
861.29	226.73
861.60	226.73
861.91	226.72
862.22	226.75
862.53	226.75
862.84	226.66
863.16	226.66
863.47	226.63
863.78	226.66
864.09	226.65
864.40	226.66
864.71	226.65
865.02	226.64
865.33	226.64
865.64	226.58
865.95	226.58
866.27	226.66
866.58	226.64
866.89	226.68
867.20	226.66
867.51	226.63
867.82	226.60
868.13	226.62
868.44	226.57
868.75	226.54
869.06	226.51
869.37	226.50
869.68	226.49
869.99	226.48
870.30	226.46
870.61	226.46
870.92	226.42
871.23	226.41
871.54	226.41
871.85	226.40
872.16	226.40
872.47	226.41
872.78	226.30
873.09	226.31
873.40	226.27
873.71	226.27
874.02	226.28
874.33	226.30
874.64	226.26
874.95	226.30
875.26	226.28
875.56	226.29
875.87	226.27
876.18	226.24
876.49	226.34
876.80	226.30
877.11	226.25
877.42	226.23
877.73	226.19
878.04	226.15
878.35	226.16
878.66	226.17
878.96	226.13
879.27	226.17
879.58	226.14
879.89	226.14
880.20	226.13
880.51	226.12
880.82	226.10
881.12	226.12
881.43	226.10
881.74	226.05
882.05	226.08
882.36	226.08
882.67	226.10
882.97	226.01
883.28	226.02
883.59	226.04
883.90	226.05
884.21	226.10
884.51	226.12
884.82	226.11
885.13	226.11
885.44	226.13
885.74	226.09
886.05	226.11
886.36	226.13
886.67	226.13
886.98	226.17
887.28	226.18
887.59	226.15
887.90	226.17
888.20	226.20
888.51	226.19
888.82	226.22
889.13	226.21
889.43	226.30
889.74	226.33
890.05	226.35
890.35	226.36
890.66	226.34
890.97	226.33
891.28	226.34
891.58	226.37
891.89	226.38
892.20	226.43
892.50	226.46
892.81	226.45
893.12	226.46
893.42	226.42
893.73	226.40
894.04	226.43
894.34	226.40
894.65	226.43
894.95	226.42
895.26	226.39
895.57	226.42
895.87	226.32
896.18	226.32
896.48	226.34
896.79	226.37
897.10	226.41
897.40	226.44
897.71	226.47
898.01	226.44
898.32	226.47
898.63	226.44
898.93	226.43
899.24	226.45
899.54	226.46
899.85	226.50
900.15	226.51
900.46	226.50
900.76	226.51
901.07	226.53
901.38	226.54
901.68	226.58
901.99	226.56
902.29	226.57
902.60	226.54
902.90	226.54
903.21	226.53
903.51	226.50
903.82	226.48
904.12	226.46
904.43	226.44
904.73	226.42
905.03	226.42
905.34	226.53
905.64	226.51
905.95	226.50
906.25	226.49
906.56	226.46
906.86	226.45
907.17	226.42
907.47	226.41
907.77	226.38
908.08	226.34
908.38	226.34
908.69	226.33
908.99	226.36
909.30	226.33
909.60	226.29
909.90	226.32
910.21	226.30
910.51	226.25
910.81	226.28
911.12	226.25
911.42	226.22
911.73	226.08
912.03	226.10
912.33	226.10
912.64	226.09
912.94	226.11
913.24	226.09
913.55	226.09
913.85	226.06
914.15	226.06
914.46	226.09
914.76	226.06
915.06	226.04
915.37	226.04
915.67	226.03
915.97	226.04
916.27	225.97
916.58	225.97
916.88	225.97
917.18	225.94
917.49	226.02
917.79	226.05
918.09	226.07
918.39	226.07
918.70	226.07
919.00	226.05
919.30	226.08
919.60	226.05
919.91	226.04
920.21	226.03
920.51	226.01
920.81	225.99
921.12	226.00
921.42	226.02
921.72	226.01
922.02	226.00
922.32	226.03
922.63	226.02
922.93	226.07
923.23	226.10
923.53	226.11
923.83	226.00
924.13	225.98
924.44	225.99
924.74	226.02
925.04	226.00
925.34	225.99
925.64	225.97
925.94	226.01
926.24	226.05
926.55	226.09
926.85	226.09
927.15	226.09
927.45	226.10
927.75	226.09
928.05	226.10
928.35	226.13
928.65	226.12
928.95	226.17
929.26	226.11
929.56	226.12
929.86	226.13
930.16	226.14
930.46	226.13
930.76	226.11
931.06	226.04
931.36	226.07
931.66	226.08
931.96	226.08
932.26	226.09
932.56	226.07
932.86	226.03
933.16	226.04
933.46	226.03
933.76	226.00
934.06	226.02
934.36	226.03
934.66	226.02
934.96	226.01
935.26	226.01
935.56	226.05
935.86	225.98
936.16	225.98
936.46	225.97
936.76	225.96
937.06	225.95
937.36	225.99
937.66	225.97
937.96	225.99
938.26	225.98
938.56	225.96
938.86	225.95
939.16	225.95
939.46	225.97
939.76	226.00
940.06	226.02
940.35	225.97
940.65	225.94
940.95	225.93
941.25	225.90
941.55	225.84
941.85	225.82
942.15	225.85
942.45	225.88
942.75	225.90
943.04	225.94
943.34	225.96
943.64	225.94
943.94	225.94
944.24	225.93
944.54	225.89
944.84	225.93
945.13	225.95
945.43	225.95
945.73	225.95
946.03	225.89
946.33	225.87
946.62	225.88
946.92	225.88
947.22	225.91
947.52	225.94
947.82	225.96
948.11	225.96
948.41	225.94
948.71	225.92
949.01	225.90
949.31	225.87
949.60	225.82
949.90	225.84
950.20	225.84
950.50	225.83
950.79	225.85
951.09	225.84
951.39	225.83
951.69	225.85
951.98	225.84
952.28	225.90
952.58	225.90
952.87	225.91
953.17	225.93
953.47	225.91
953.76	225.89
954.06	225.88
954.36	225.85
954.66	225.87
954.95	225.90
955.25	225.92
955.55	225.95
955.84	225.95
956.14	225.96
956.44	225.93
956.73	225.93
957.03	225.94
957.32	225.94
957.62	225.94
957.92	225.95
958.21	225.95
958.51	226.02
958.81	226.03
959.10	226.03
959.40	226.07
959.69	226.05
959.99	226.10
960.29	226.13
960.58	226.14
960.88	226.16
961.17	226.19
961.47	226.19
961.76	226.17
962.06	226.22
962.36	226.19
962.65	226.23
962.95	226.22
963.24	226.22
963.54	226.22
963.83	226.21
964.13	226.18
964.42	226.19
964.72	226.10
965.01	226.12
965.31	226.13
965.60	226.06
965.90	226.15
966.19	226.08
966.49	226.07
966.78	226.09
967.08	226.08
967.37	226.04
967.67	226.03
967.96	226.03
968.26	226.01
968.55	226.05
968.85	226.07
969.14	226.09
969.43	226.10
969.73	226.08
970.02	226.11
970.32	226.11
970.61	226.09
970.91	226.05
971.20	226.02
971.49	226.04
971.79	226.05
972.08	226.00
972.38	226.03
972.67	226.03
972.96	226.07
973.26	226.06
973.55	226.08
973.85	226.07
974.14	226.10
974.43	226.13
974.73	226.09
975.02	226.07
975.31	226.05
975.61	226.04
975.90	226.04
976.19	226.00
976.49	226.01
976.78	226.05
977.07	226.06
977.37	226.09
977.66	226.05
977.95	226.04
978.24	226.04
978.54	226.08
978.83	226.07
979.12	226.07
979.42	226.07
979.71	226.05
980.00	226.09
980.29	226.09
980.59	226.05
980.88	226.05
981.17	226.07
981.46	226.07
981.76	226.07
982.05	226.10
982.34	226.13
982.63	226.12
982.93	226.09
983.22	226.13
983.51	226.10
983.80	226.14
984.09	226.13
984.39	226.12
984.68	226.06
984.97	226.08
985.26	226.02
985.55	226.01
985.85	226.01
986.14	225.99
986.43	226.00
986.72	226.03
987.01	226.02
987.30	226.00
987.59	226.00
987.89	226.00
988.18	225.96
988.47	225.93
988.76	225.92
989.05	225.89
989.34	225.87
989.63	225.92
989.92	225.86
990.22	225.91
990.51	225.93
990.80	225.96
991.09	225.95
991.38	225.99
991.67	225.98
991.96	225.93
992.25	225.94
992.54	225.90
992.83	225.87
993.12	225.88
993.41	225.89
993.70	225.90
993.99	225.92
994.28	225.95
994.58	225.98
994.87	225.97
995.16	225.99
995.45	225.98
995.74	225.94
996.03	225.98
996.32	225.97
996.61	225.96
996.90	225.93
997.19	225.93
997.48	225.89
997.77	225.88
998.06	225.91
998.34	225.90
998.63	225.91
998.92	225.91
999.21	225.93
999.50	225.91
999.79	225.87
1000.08	225.87
1000.37	225.87
1000.66	225.86
1000.95	225.89
1001.24	225.89
1001.53	225.90
1001.82	225.90
1002.11	225.89
1002.40	225.89
1002.68	225.94
1002.97	225.98
1003.26	225.98
1003.55	225.99
1003.84	226.01
1004.13	226.06
1004.42	226.06
1004.71	226.07
1004.99	226.07
1005.28	226.09
1005.57	226.09
1005.86	226.07
1006.15	226.07
1006.44	226.03
1006.72	226.01
1007.01	226.00
1007.30	226.02
1007.59	226.01
1007.88	226.04
1008.17	226.04
1008.45	226.01
1008.74	225.97
1009.03	225.95
1009.32	225.96
1009.60	225.98
1009.89	225.97
1010.18	225.94
1010.47	225.93
1010.76	225.91
1011.04	225.90
1011.33	225.89
1011.62	225.91
1011.91	225.96
1012.19	225.99
1012.48	226.01
1012.77	226.03
1013.05	226.10
1013.34	226.08
1013.63	226.10
1013.92	226.07
1014.20	226.08
1014.49	226.12
1014.78	226.13
1015.06	226.12
1015.35	226.11
1015.64	226.11
1015.92	226.16
1016.21	226.16
1016.50	226.15
1016.78	226.18
1017.07	226.21
1017.36	226.19
1017.64	226.17
1017.93	226.18
1018.22	226.16
1018.50	226.15
1018.79	226.12
1019.08	226.06
1019.36	226.08
1019.65	226.02
1019.93	226.08
1020.22	226.07
1020.51	226.08
1020.79	226.07
1021.08	226.04
1021.36	226.05
1021.65	225.44
1021.94	226.02
1022.22	225.96
1022.51	225.34
1022.79	226.75
1023.08	225.73
1023.36	227.00
1023.65	226.02
>>>>>End Processed Spectral Data<<<<<
