SpectraSuite Data File
++++++++++++++++++++++++++++++++++++
Date: Fri Feb 01 15:45:04 EST 2013
User: group
Dark Spectrum Present: No
Reference Spectrum Present: No
Number of Sampled Component Spectra: 1
Spectrometers: USB2E7196
Integration Time (usec): 35000 (USB2E7196)
Spectra Averaged: 100 (USB2E7196)
Boxcar Smoothing: 10 (USB2E7196)
Correct for Electrical Dark: No (USB2E7196)
Strobe/Lamp Enabled: No (USB2E7196)
Correct for Detector Non-linearity: No (USB2E7196)
Correct for Stray Light: No (USB2E7196)
Number of Pixels in Processed Spectrum: 2048
>>>>>Begin Processed Spectral Data<<<<<
339.09	0.00
339.48	215.14
339.86	216.35
340.24	217.65
340.63	219.35
341.01	222.44
341.39	221.81
341.78	223.78
342.16	224.82
342.54	225.32
342.93	213.35
343.31	224.13
343.69	224.65
344.07	225.15
344.46	225.59
344.84	225.95
345.22	226.18
345.60	226.46
345.99	226.64
346.37	226.78
346.75	226.86
347.13	226.94
347.52	227.00
347.90	227.08
348.28	227.09
348.66	227.15
349.05	227.12
349.43	227.22
349.81	227.24
350.19	227.29
350.57	227.32
350.96	227.36
351.34	227.46
351.72	227.55
352.10	227.61
352.48	227.64
352.87	227.70
353.25	227.76
353.63	227.81
354.01	227.88
354.39	227.94
354.77	228.02
355.15	228.12
355.54	228.18
355.92	228.23
356.30	228.33
356.68	228.46
357.06	228.56
357.44	228.61
357.82	228.68
358.20	228.76
358.58	228.84
358.97	228.89
359.35	228.94
359.73	229.00
360.11	229.02
360.49	229.08
360.87	229.12
361.25	229.19
361.63	229.24
362.01	229.28
362.39	229.26
362.77	229.28
363.15	229.28
363.53	229.29
363.91	229.29
364.29	229.30
364.67	229.18
365.05	229.19
365.43	229.19
365.81	229.23
366.19	229.23
366.57	229.22
366.95	229.21
367.33	229.17
367.71	229.18
368.09	229.21
368.47	229.18
368.85	229.17
369.23	229.14
369.61	229.09
369.99	229.05
370.37	229.06
370.75	229.07
371.13	229.03
371.51	228.98
371.89	228.95
372.27	228.92
372.65	228.90
373.03	228.84
373.41	228.76
373.78	228.68
374.16	228.58
374.54	228.49
374.92	228.45
375.30	228.39
375.68	228.30
376.06	228.25
376.44	228.20
376.82	228.14
377.19	228.07
377.57	228.01
377.95	227.91
378.33	227.82
378.71	227.72
379.09	227.66
379.47	227.60
379.84	227.50
380.22	227.43
380.60	227.34
380.98	227.28
381.36	227.21
381.73	227.15
382.11	227.14
382.49	227.09
382.87	227.00
383.25	226.94
383.62	226.99
384.00	226.91
384.38	226.89
384.76	226.86
385.13	226.84
385.51	226.74
385.89	226.68
386.27	226.63
386.64	226.58
387.02	226.52
387.40	226.49
387.78	226.47
388.15	226.44
388.53	226.40
388.91	226.39
389.29	226.35
389.66	226.33
390.04	226.32
390.42	226.33
390.79	226.36
391.17	226.34
391.55	226.23
391.92	226.23
392.30	226.20
392.68	226.18
393.05	226.20
393.43	226.26
393.81	226.30
394.18	226.33
394.56	226.38
394.94	226.45
395.31	226.45
395.69	226.51
396.06	226.57
396.44	226.63
396.82	226.68
397.19	226.80
397.57	226.81
397.95	226.87
398.32	226.89
398.70	226.96
399.07	227.09
399.45	227.15
399.82	227.21
400.20	227.29
400.58	227.33
400.95	227.32
401.33	227.43
401.70	227.60
402.08	227.70
402.45	227.76
402.83	227.85
403.20	227.95
403.58	228.04
403.95	228.17
404.33	228.29
404.71	228.40
405.08	228.55
405.46	228.71
405.83	228.87
406.21	229.02
406.58	229.17
406.96	229.29
407.33	229.48
407.70	229.65
408.08	229.92
408.45	230.16
408.83	230.40
409.20	230.58
409.58	230.74
409.95	231.03
410.33	231.30
410.70	231.58
411.08	231.87
411.45	232.16
411.82	232.47
412.20	232.84
412.57	233.26
412.95	233.56
413.32	233.98
413.69	234.37
414.07	234.81
414.44	235.30
414.82	235.78
415.19	236.33
415.56	236.91
415.94	237.43
416.31	238.06
416.68	238.68
417.06	239.41
417.43	240.07
417.81	240.80
418.18	241.58
418.55	242.40
418.93	243.29
419.30	244.20
419.67	245.14
420.04	246.03
420.42	246.99
420.79	248.19
421.16	249.33
421.54	250.53
421.91	251.75
422.28	253.00
422.66	254.35
423.03	255.67
423.40	257.01
423.77	258.42
424.15	259.82
424.52	261.35
424.89	262.96
425.26	264.52
425.64	265.96
426.01	267.54
426.38	269.20
426.75	270.86
427.13	272.58
427.50	274.35
427.87	276.26
428.24	278.14
428.61	279.87
428.99	281.79
429.36	283.88
429.73	285.96
430.10	287.97
430.47	290.02
430.85	292.13
431.22	294.33
431.59	296.72
431.96	299.00
432.33	301.48
432.70	303.87
433.08	306.70
433.45	309.36
433.82	311.98
434.19	314.89
434.56	317.75
434.93	320.39
435.30	323.03
435.68	325.95
436.05	328.73
436.42	331.47
436.79	334.03
437.16	336.71
437.53	339.55
437.90	342.36
438.27	345.15
438.64	347.99
439.01	350.59
439.38	352.86
439.75	355.01
440.13	357.52
440.50	359.85
440.87	361.69
441.24	363.61
441.61	365.77
441.98	367.26
442.35	369.00
442.72	370.90
443.09	372.67
443.46	373.64
443.83	374.29
444.20	374.88
444.57	375.72
444.94	376.00
445.31	376.32
445.68	376.64
446.05	376.64
446.42	376.21
446.79	375.78
447.16	375.31
447.53	374.98
447.90	373.79
448.27	372.63
448.64	371.05
449.01	369.92
449.37	367.94
449.74	366.02
450.11	363.78
450.48	361.32
450.85	358.83
451.22	356.72
451.59	354.67
451.96	352.67
452.33	350.04
452.70	347.67
453.07	344.80
453.43	341.93
453.80	339.18
454.17	336.56
454.54	334.01
454.91	331.26
455.28	328.57
455.65	326.05
456.02	323.59
456.38	321.45
456.75	318.76
457.12	316.52
457.49	314.31
457.86	312.14
458.23	310.25
458.59	308.23
458.96	306.13
459.33	304.29
459.70	302.45
460.07	300.95
460.43	299.27
460.80	297.66
461.17	296.22
461.54	294.74
461.91	293.29
462.27	291.90
462.64	290.65
463.01	289.33
463.38	288.05
463.74	286.65
464.11	285.47
464.48	284.49
464.85	283.36
465.21	282.47
465.58	281.55
465.95	280.43
466.32	279.53
466.68	278.64
467.05	277.73
467.42	276.83
467.78	275.91
468.15	275.02
468.52	274.34
468.88	273.50
469.25	272.73
469.62	272.11
469.98	271.41
470.35	270.81
470.72	270.19
471.08	269.59
471.45	269.10
471.82	268.55
472.18	267.91
472.55	267.52
472.92	266.98
473.28	266.53
473.65	266.12
474.02	265.65
474.38	265.33
474.75	264.98
475.11	264.66
475.48	264.37
475.85	264.17
476.21	263.95
476.58	263.77
476.94	263.63
477.31	263.47
477.67	263.30
478.04	263.19
478.41	263.14
478.77	263.14
479.14	263.04
479.50	263.08
479.87	263.17
480.23	263.21
480.60	263.32
480.96	263.42
481.33	263.63
481.69	263.85
482.06	263.99
482.42	264.21
482.79	264.44
483.15	264.76
483.52	265.13
483.88	265.46
484.25	265.84
484.61	266.25
484.98	266.72
485.34	267.31
485.71	267.91
486.07	268.53
486.44	269.12
486.80	269.83
487.17	270.56
487.53	271.39
487.90	272.24
488.26	273.17
488.62	274.14
488.99	275.07
489.35	276.09
489.72	277.22
490.08	278.40
490.44	279.66
490.81	281.01
491.17	282.33
491.54	283.84
491.90	285.39
492.26	286.97
492.63	288.66
492.99	290.41
493.36	292.31
493.72	294.33
494.08	296.41
494.45	298.66
494.81	301.00
495.17	303.40
495.54	305.95
495.90	308.60
496.26	311.42
496.63	314.40
496.99	317.52
497.35	320.76
497.72	324.17
498.08	327.68
498.44	331.32
498.80	335.24
499.17	339.28
499.53	343.45
499.89	347.89
500.26	352.42
500.62	357.09
500.98	362.05
501.34	367.15
501.71	372.50
502.07	377.94
502.43	383.59
502.79	389.42
503.16	395.49
503.52	401.75
503.88	408.11
504.24	414.77
504.60	421.62
504.97	428.76
505.33	436.07
505.69	443.76
506.05	451.61
506.41	459.53
506.78	467.63
507.14	476.05
507.50	484.81
507.86	493.87
508.22	503.07
508.59	512.22
508.95	521.81
509.31	531.53
509.67	541.62
510.03	551.92
510.39	562.51
510.75	573.39
511.12	584.41
511.48	595.80
511.84	607.29
512.20	618.83
512.56	630.82
512.92	643.04
513.28	655.40
513.64	667.79
514.00	680.51
514.37	693.47
514.73	706.56
515.09	719.56
515.45	732.79
515.81	746.37
516.17	760.40
516.53	774.52
516.89	788.80
517.25	803.01
517.61	817.44
517.97	831.97
518.33	846.44
518.69	861.13
519.05	876.10
519.41	891.34
519.77	906.91
520.13	922.38
520.49	937.76
520.85	953.18
521.21	969.00
521.57	985.25
521.93	1001.05
522.29	1017.43
522.65	1033.73
523.01	1050.00
523.37	1066.13
523.73	1082.32
524.09	1098.37
524.45	1114.60
524.81	1131.23
525.17	1148.06
525.53	1164.87
525.89	1181.57
526.25	1198.42
526.61	1214.83
526.97	1231.46
527.33	1247.90
527.68	1264.53
528.04	1281.04
528.40	1297.64
528.76	1314.62
529.12	1331.28
529.48	1348.11
529.84	1364.05
530.20	1380.60
530.56	1397.64
530.91	1414.96
531.27	1431.67
531.63	1448.20
531.99	1464.88
532.35	1480.93
532.71	1496.78
533.07	1513.06
533.42	1529.03
533.78	1544.98
534.14	1561.28
534.50	1576.65
534.86	1592.56
535.21	1607.56
535.57	1623.43
535.93	1638.97
536.29	1653.65
536.65	1668.61
537.00	1683.51
537.36	1698.88
537.72	1713.49
538.08	1727.86
538.44	1741.48
538.79	1755.30
539.15	1768.91
539.51	1782.62
539.87	1796.88
540.22	1810.72
540.58	1824.57
540.94	1837.91
541.29	1850.99
541.65	1863.68
542.01	1876.87
542.37	1889.12
542.72	1901.81
543.08	1913.51
543.44	1925.90
543.79	1937.25
544.15	1948.22
544.51	1959.65
544.87	1970.63
545.22	1981.36
545.58	1991.56
545.94	2001.54
546.29	2011.51
546.65	2021.39
547.01	2030.63
547.36	2039.39
547.72	2047.66
548.07	2055.38
548.43	2063.61
548.79	2071.62
549.14	2078.94
549.50	2086.44
549.86	2094.09
550.21	2101.36
550.57	2108.61
550.92	2115.10
551.28	2122.09
551.64	2129.17
551.99	2135.68
552.35	2141.84
552.70	2147.98
553.06	2153.94
553.41	2160.40
553.77	2166.54
554.13	2172.74
554.48	2178.90
554.84	2184.27
555.19	2189.71
555.55	2194.85
555.90	2199.36
556.26	2204.13
556.61	2209.00
556.97	2213.02
557.32	2217.28
557.68	2221.32
558.03	2225.62
558.39	2229.44
558.74	2234.21
559.10	2238.05
559.45	2241.82
559.81	2246.19
560.16	2250.01
560.52	2253.30
560.87	2256.62
561.23	2259.14
561.58	2261.99
561.94	2264.57
562.29	2266.97
562.64	2269.60
563.00	2272.28
563.35	2275.81
563.71	2279.09
564.06	2282.26
564.42	2285.26
564.77	2287.65
565.12	2289.89
565.48	2291.89
565.83	2293.57
566.19	2294.77
566.54	2295.73
566.89	2296.81
567.25	2297.37
567.60	2298.79
567.96	2300.35
568.31	2301.21
568.66	2302.34
569.02	2302.96
569.37	2303.12
569.72	2304.14
570.08	2304.18
570.43	2304.23
570.78	2303.46
571.14	2301.76
571.49	2300.50
571.84	2300.18
572.20	2299.12
572.55	2298.16
572.90	2296.59
573.26	2295.23
573.61	2293.55
573.96	2291.83
574.31	2288.79
574.67	2285.76
575.02	2282.03
575.37	2278.70
575.72	2274.76
576.08	2271.39
576.43	2268.00
576.78	2264.31
577.13	2260.97
577.49	2257.85
577.84	2254.21
578.19	2250.53
578.54	2246.84
578.90	2242.54
579.25	2237.00
579.60	2231.91
579.95	2226.83
580.30	2221.77
580.66	2216.67
581.01	2211.74
581.36	2206.82
581.71	2202.64
582.06	2198.24
582.42	2193.71
582.77	2188.45
583.12	2183.91
583.47	2179.24
583.82	2174.10
584.17	2168.92
584.53	2163.48
584.88	2157.98
585.23	2152.25
585.58	2146.74
585.93	2141.26
586.28	2136.50
586.63	2131.34
586.98	2126.39
587.34	2121.60
587.69	2116.71
588.04	2111.46
588.39	2105.66
588.74	2099.12
589.09	2092.89
589.44	2086.07
589.79	2080.12
590.14	2074.60
590.49	2068.08
590.84	2061.68
591.19	2055.84
591.54	2049.42
591.89	2041.86
592.25	2034.96
592.60	2027.74
592.95	2020.11
593.30	2012.90
593.65	2005.31
594.00	1998.37
594.35	1991.05
594.70	1983.15
595.05	1975.78
595.40	1968.54
595.75	1961.11
596.10	1954.87
596.45	1948.09
596.80	1941.94
597.15	1935.18
597.50	1927.93
597.85	1921.49
598.19	1914.73
598.54	1907.45
598.89	1900.71
599.24	1894.88
599.59	1888.18
599.94	1881.92
600.29	1875.64
600.64	1869.03
600.99	1861.51
601.34	1854.57
601.69	1847.57
602.04	1840.58
602.39	1833.31
602.74	1826.34
603.08	1819.65
603.43	1812.99
603.78	1805.86
604.13	1798.53
604.48	1791.18
604.83	1784.42
605.18	1777.30
605.53	1769.26
605.87	1761.18
606.22	1753.93
606.57	1745.90
606.92	1738.51
607.27	1731.35
607.62	1724.42
607.96	1716.94
608.31	1710.53
608.66	1702.89
609.01	1695.36
609.36	1687.70
609.70	1679.66
610.05	1671.65
610.40	1663.81
610.75	1655.37
611.10	1647.65
611.44	1639.31
611.79	1631.42
612.14	1622.70
612.49	1613.55
612.83	1605.22
613.18	1597.20
613.53	1589.06
613.88	1580.57
614.22	1572.33
614.57	1563.79
614.92	1555.77
615.27	1548.25
615.61	1539.70
615.96	1531.75
616.31	1524.10
616.65	1516.85
617.00	1509.30
617.35	1501.61
617.70	1493.27
618.04	1484.82
618.39	1476.61
618.74	1468.91
619.08	1460.53
619.43	1452.92
619.78	1446.05
620.12	1438.91
620.47	1431.39
620.82	1423.28
621.16	1415.98
621.51	1408.49
621.85	1400.80
622.20	1392.26
622.55	1383.97
622.89	1376.16
623.24	1368.50
623.59	1361.12
623.93	1353.53
624.28	1346.26
624.62	1338.73
624.97	1331.61
625.32	1324.88
625.66	1317.79
626.01	1310.64
626.35	1303.19
626.70	1295.53
627.04	1287.76
627.39	1279.98
627.73	1272.55
628.08	1265.62
628.43	1258.23
628.77	1250.72
629.12	1243.16
629.46	1235.98
629.81	1228.60
630.15	1221.34
630.50	1213.83
630.84	1205.60
631.19	1197.81
631.53	1190.34
631.88	1182.88
632.22	1175.29
632.57	1167.88
632.91	1160.38
633.26	1153.03
633.60	1145.78
633.95	1138.70
634.29	1131.71
634.64	1125.13
634.98	1117.77
635.32	1110.64
635.67	1104.07
636.01	1097.51
636.36	1090.69
636.70	1084.16
637.05	1077.58
637.39	1071.14
637.73	1064.67
638.08	1058.83
638.42	1052.76
638.77	1046.26
639.11	1039.53
639.45	1033.12
639.80	1026.44
640.14	1020.04
640.49	1013.41
640.83	1007.08
641.17	1000.71
641.52	994.41
641.86	987.92
642.20	982.08
642.55	975.82
642.89	969.26
643.23	962.78
643.58	957.06
643.92	950.88
644.26	944.77
644.61	938.77
644.95	932.74
645.29	926.14
645.64	919.33
645.98	913.04
646.32	907.31
646.66	901.24
647.01	895.47
647.35	889.71
647.69	883.98
648.04	878.36
648.38	872.58
648.72	866.51
649.06	860.41
649.41	854.54
649.75	848.56
650.09	842.64
650.43	836.80
650.78	830.61
651.12	824.63
651.46	818.95
651.80	813.16
652.14	807.77
652.49	802.40
652.83	797.19
653.17	791.50
653.51	785.71
653.85	780.38
654.20	774.71
654.54	768.72
654.88	762.89
655.22	757.05
655.56	751.32
655.90	745.87
656.25	740.66
656.59	735.28
656.93	730.15
657.27	724.97
657.61	719.52
657.95	714.40
658.29	709.32
658.64	704.02
658.98	698.76
659.32	693.28
659.66	688.08
660.00	682.80
660.34	677.85
660.68	672.94
661.02	667.86
661.36	663.21
661.70	658.63
662.05	654.28
662.39	649.94
662.73	645.53
663.07	641.16
663.41	636.70
663.75	632.24
664.09	627.62
664.43	623.29
664.77	619.18
665.11	614.97
665.45	610.86
665.79	606.78
666.13	602.69
666.47	598.57
666.81	594.39
667.15	590.30
667.49	586.41
667.83	582.64
668.17	578.79
668.51	574.67
668.85	570.69
669.19	566.87
669.53	562.98
669.87	559.07
670.21	555.39
670.55	551.68
670.89	548.22
671.23	544.83
671.57	541.29
671.91	537.72
672.25	534.21
672.58	530.70
672.92	527.35
673.26	524.15
673.60	521.02
673.94	517.91
674.28	515.00
674.62	512.04
674.96	508.90
675.30	505.97
675.64	503.05
675.97	500.31
676.31	497.41
676.65	494.50
676.99	491.84
677.33	488.98
677.67	486.20
678.01	483.18
678.34	480.19
678.68	477.33
679.02	474.54
679.36	471.77
679.70	469.03
680.04	466.21
680.37	463.30
680.71	460.50
681.05	457.84
681.39	455.14
681.73	452.46
682.06	449.93
682.40	447.32
682.74	444.79
683.08	442.22
683.42	439.66
683.75	437.15
684.09	434.60
684.43	432.11
684.77	429.63
685.10	427.29
685.44	425.01
685.78	422.68
686.12	420.43
686.45	418.16
686.79	415.87
687.13	413.70
687.46	411.56
687.80	409.45
688.14	407.29
688.48	405.24
688.81	403.00
689.15	400.87
689.49	398.72
689.82	396.66
690.16	394.61
690.50	392.69
690.83	390.80
691.17	388.84
691.51	386.97
691.84	385.14
692.18	383.20
692.52	381.22
692.85	379.36
693.19	377.47
693.52	375.61
693.86	373.77
694.20	372.02
694.53	370.24
694.87	368.38
695.21	366.59
695.54	364.74
695.88	363.06
696.21	361.32
696.55	359.69
696.88	357.96
697.22	356.30
697.56	354.67
697.89	353.02
698.23	351.39
698.56	349.73
698.90	348.17
699.23	346.52
699.57	344.98
699.90	343.42
700.24	341.84
700.58	340.31
700.91	338.82
701.25	337.32
701.58	335.90
701.92	334.55
702.25	333.16
702.59	331.79
702.92	330.43
703.26	329.13
703.59	327.82
703.93	326.69
704.26	325.47
704.60	324.10
704.93	322.79
705.26	321.54
705.60	320.40
705.93	319.19
706.27	318.16
706.60	317.07
706.94	315.97
707.27	314.87
707.61	313.85
707.94	312.81
708.27	311.71
708.61	310.63
708.94	309.60
709.28	308.62
709.61	307.67
709.94	306.72
710.28	305.67
710.61	304.68
710.95	303.59
711.28	302.66
711.61	301.72
711.95	300.82
712.28	299.90
712.61	298.88
712.95	297.93
713.28	297.03
713.61	296.11
713.95	295.22
714.28	294.39
714.61	293.52
714.95	292.68
715.28	291.86
715.61	290.97
715.95	290.10
716.28	289.24
716.61	288.40
716.95	287.57
717.28	286.85
717.61	286.10
717.94	285.35
718.28	284.56
718.61	283.85
718.94	283.16
719.27	282.51
719.61	281.89
719.94	281.26
720.27	280.56
720.60	279.95
720.94	279.32
721.27	278.70
721.60	278.11
721.93	277.53
722.27	276.98
722.60	276.46
722.93	275.92
723.26	275.40
723.59	274.88
723.93	274.37
724.26	273.83
724.59	273.30
724.92	272.79
725.25	272.31
725.59	271.79
725.92	271.29
726.25	270.77
726.58	270.26
726.91	269.77
727.24	269.30
727.57	268.82
727.91	268.34
728.24	267.89
728.57	267.40
728.90	266.96
729.23	266.49
729.56	266.07
729.89	265.59
730.22	265.11
730.55	264.62
730.89	264.17
731.22	263.69
731.55	263.24
731.88	262.82
732.21	262.34
732.54	261.92
732.87	261.53
733.20	261.12
733.53	260.75
733.86	260.38
734.19	259.99
734.52	259.61
734.85	259.30
735.18	258.87
735.51	258.48
735.84	258.08
736.17	257.68
736.50	257.26
736.83	257.05
737.16	256.70
737.49	256.39
737.82	256.07
738.15	255.74
738.48	255.39
738.81	255.08
739.14	254.83
739.47	254.50
739.80	254.17
740.13	253.86
740.46	253.49
740.79	253.12
741.12	252.79
741.45	252.44
741.78	252.05
742.11	251.80
742.44	251.47
742.77	251.17
743.10	250.89
743.43	250.59
743.75	250.16
744.08	250.02
744.41	249.72
744.74	249.40
745.07	249.12
745.40	248.86
745.73	248.60
746.06	248.27
746.39	248.03
746.71	247.75
747.04	247.47
747.37	247.24
747.70	246.98
748.03	246.74
748.36	246.52
748.68	246.27
749.01	245.99
749.34	245.77
749.67	245.57
750.00	245.34
750.33	245.17
750.65	244.99
750.98	244.64
751.31	244.41
751.64	244.21
751.97	244.05
752.29	243.84
752.62	243.59
752.95	243.36
753.28	243.12
753.60	242.90
753.93	242.69
754.26	242.49
754.59	242.29
754.91	242.11
755.24	241.92
755.57	241.73
755.90	241.57
756.22	241.37
756.55	241.16
756.88	240.97
757.20	240.74
757.53	240.54
757.86	240.35
758.19	240.20
758.51	240.04
758.84	239.82
759.17	239.66
759.49	239.50
759.82	239.39
760.15	239.26
760.47	239.12
760.80	238.97
761.13	238.86
761.45	238.70
761.78	238.56
762.11	238.41
762.43	238.31
762.76	238.13
763.08	238.05
763.41	237.91
763.74	237.81
764.06	237.69
764.39	237.53
764.71	237.41
765.04	237.29
765.37	237.16
765.69	237.01
766.02	236.86
766.34	236.72
766.67	236.57
767.00	236.44
767.32	236.39
767.65	236.32
767.97	236.22
768.30	236.13
768.62	235.97
768.95	235.83
769.27	235.73
769.60	235.67
769.92	235.57
770.25	235.47
770.57	235.34
770.90	235.23
771.22	235.16
771.55	235.06
771.87	234.94
772.20	234.83
772.52	234.84
772.85	234.90
773.17	234.82
773.50	234.74
773.82	234.68
774.15	234.52
774.47	234.37
774.80	234.26
775.12	234.14
775.45	234.10
775.77	234.09
776.09	234.03
776.42	233.94
776.74	233.87
777.07	233.79
777.39	233.72
777.72	233.65
778.04	233.56
778.36	233.50
778.69	233.45
779.01	233.40
779.33	233.25
779.66	233.08
779.98	232.99
780.31	232.96
780.63	232.93
780.95	232.88
781.28	232.83
781.60	232.77
781.92	232.71
782.25	232.65
782.57	232.54
782.89	232.44
783.22	232.37
783.54	232.27
783.86	232.21
784.19	232.15
784.51	232.11
784.83	232.06
785.16	231.98
785.48	231.95
785.80	231.91
786.12	231.86
786.45	231.79
786.77	231.72
787.09	231.68
787.42	231.57
787.74	231.54
788.06	231.49
788.38	231.43
788.71	231.41
789.03	231.33
789.35	231.33
789.67	231.30
789.99	231.25
790.32	231.19
790.64	231.13
790.96	231.17
791.28	231.12
791.61	231.09
791.93	231.07
792.25	231.00
792.57	230.99
792.89	230.94
793.21	230.88
793.54	230.85
793.86	230.75
794.18	230.71
794.50	230.64
794.82	230.60
795.14	230.57
795.47	230.53
795.79	230.49
796.11	230.41
796.43	230.36
796.75	230.29
797.07	230.30
797.39	230.28
797.71	230.15
798.04	230.09
798.36	230.02
798.68	229.98
799.00	229.97
799.32	229.89
799.64	229.86
799.96	229.83
800.28	229.84
800.60	229.82
800.92	229.79
801.24	229.75
801.56	229.75
801.89	229.72
802.21	229.69
802.53	229.64
802.85	229.67
803.17	229.71
803.49	229.68
803.81	229.65
804.13	229.63
804.45	229.58
804.77	229.59
805.09	229.59
805.41	229.57
805.73	229.54
806.05	229.52
806.37	229.50
806.69	229.50
807.01	229.45
807.33	229.43
807.65	229.36
807.97	229.40
808.28	229.36
808.60	229.36
808.92	229.32
809.24	229.37
809.56	229.31
809.88	229.24
810.20	229.25
810.52	229.23
810.84	229.17
811.16	229.15
811.48	229.11
811.80	229.10
812.12	229.10
812.43	229.07
812.75	229.04
813.07	229.04
813.39	229.03
813.71	229.02
814.03	229.03
814.35	229.03
814.67	228.98
814.98	228.94
815.30	228.92
815.62	228.91
815.94	228.83
816.26	228.86
816.58	228.82
816.89	228.83
817.21	228.82
817.53	228.82
817.85	228.80
818.17	228.78
818.48	228.75
818.80	228.73
819.12	228.70
819.44	228.69
819.76	228.64
820.07	228.59
820.39	228.55
820.71	228.51
821.03	228.50
821.34	228.47
821.66	228.48
821.98	228.47
822.30	228.46
822.61	228.49
822.93	228.40
823.25	228.38
823.57	228.36
823.88	228.34
824.20	228.32
824.52	228.35
824.83	228.31
825.15	228.24
825.47	228.20
825.79	228.21
826.10	228.18
826.42	228.18
826.74	228.18
827.05	228.19
827.37	228.17
827.69	228.17
828.00	228.16
828.32	228.14
828.64	228.12
828.95	228.15
829.27	228.14
829.58	228.13
829.90	228.12
830.22	228.09
830.53	228.06
830.85	228.04
831.17	228.03
831.48	228.03
831.80	228.07
832.11	228.08
832.43	228.04
832.75	228.01
833.06	228.06
833.38	228.04
833.69	228.01
834.01	228.03
834.32	228.01
834.64	227.99
834.96	227.99
835.27	227.96
835.59	227.90
835.90	227.86
836.22	227.85
836.53	227.85
836.85	227.86
837.16	227.95
837.48	227.92
837.79	227.92
838.11	227.92
838.42	227.92
838.74	227.90
839.05	227.88
839.37	227.90
839.68	227.85
840.00	227.85
840.31	227.88
840.63	227.83
840.94	227.80
841.26	227.79
841.57	227.78
841.88	227.79
842.20	227.80
842.51	227.78
842.83	227.79
843.14	227.88
843.46	227.86
843.77	227.83
844.08	227.83
844.40	227.79
844.71	227.77
845.03	227.73
845.34	227.76
845.65	227.77
845.97	227.75
846.28	227.73
846.60	227.71
846.91	227.65
847.22	227.64
847.54	227.71
847.85	227.73
848.16	227.72
848.48	227.70
848.79	227.74
849.10	227.74
849.42	227.73
849.73	227.64
850.04	227.64
850.36	227.58
850.67	227.62
850.98	227.67
851.30	227.68
851.61	227.67
851.92	227.66
852.23	227.70
852.55	227.71
852.86	227.68
853.17	227.69
853.49	227.72
853.80	227.74
854.11	227.71
854.42	227.70
854.74	227.72
855.05	227.69
855.36	227.61
855.67	227.59
855.99	227.59
856.30	227.68
856.61	227.67
856.92	227.68
857.23	227.64
857.55	227.58
857.86	227.60
858.17	227.60
858.48	227.56
858.79	227.52
859.11	227.55
859.42	227.54
859.73	227.56
860.04	227.54
860.35	227.52
860.66	227.47
860.98	227.47
861.29	227.44
861.60	227.44
861.91	227.47
862.22	227.45
862.53	227.44
862.84	227.35
863.16	227.35
863.47	227.31
863.78	227.30
864.09	227.35
864.40	227.34
864.71	227.37
865.02	227.38
865.33	227.39
865.64	227.36
865.95	227.39
866.27	227.42
866.58	227.42
866.89	227.40
867.20	227.43
867.51	227.40
867.82	227.40
868.13	227.42
868.44	227.41
868.75	227.44
869.06	227.45
869.37	227.46
869.68	227.43
869.99	227.47
870.30	227.50
870.61	227.50
870.92	227.48
871.23	227.45
871.54	227.46
871.85	227.45
872.16	227.45
872.47	227.43
872.78	227.37
873.09	227.35
873.40	227.38
873.71	227.38
874.02	227.41
874.33	227.42
874.64	227.40
874.95	227.41
875.26	227.44
875.56	227.44
875.87	227.44
876.18	227.46
876.49	227.56
876.80	227.51
877.11	227.49
877.42	227.50
877.73	227.52
878.04	227.49
878.35	227.51
878.66	227.51
878.96	227.50
879.27	227.52
879.58	227.54
879.89	227.51
880.20	227.55
880.51	227.54
880.82	227.56
881.12	227.58
881.43	227.56
881.74	227.53
882.05	227.49
882.36	227.49
882.67	227.48
882.97	227.35
883.28	227.34
883.59	227.32
883.90	227.32
884.21	227.30
884.51	227.35
884.82	227.33
885.13	227.31
885.44	227.33
885.74	227.30
886.05	227.32
886.36	227.33
886.67	227.27
886.98	227.32
887.28	227.32
887.59	227.32
887.90	227.31
888.20	227.29
888.51	227.34
888.82	227.30
889.13	227.32
889.43	227.42
889.74	227.41
890.05	227.43
890.35	227.38
890.66	227.39
890.97	227.35
891.28	227.32
891.58	227.33
891.89	227.32
892.20	227.34
892.50	227.30
892.81	227.32
893.12	227.33
893.42	227.25
893.73	227.23
894.04	227.24
894.34	227.24
894.65	227.25
894.95	227.21
895.26	227.21
895.57	227.24
895.87	227.10
896.18	227.13
896.48	227.14
896.79	227.13
897.10	227.15
897.40	227.17
897.71	227.19
898.01	227.17
898.32	227.17
898.63	227.16
898.93	227.19
899.24	227.19
899.54	227.15
899.85	227.13
900.15	227.12
900.46	227.08
900.76	227.07
901.07	227.05
901.38	227.06
901.68	227.08
901.99	227.03
902.29	227.08
902.60	227.09
902.90	227.08
903.21	227.11
903.51	227.10
903.82	227.11
904.12	227.11
904.43	227.14
904.73	227.16
905.03	227.12
905.34	227.18
905.64	227.17
905.95	227.19
906.25	227.20
906.56	227.21
906.86	227.24
907.17	227.24
907.47	227.26
907.77	227.26
908.08	227.25
908.38	227.24
908.69	227.24
908.99	227.24
909.30	227.26
909.60	227.26
909.90	227.27
910.21	227.23
910.51	227.23
910.81	227.23
911.12	227.22
911.42	227.23
911.73	227.14
912.03	227.12
912.33	227.13
912.64	227.16
912.94	227.14
913.24	227.11
913.55	227.10
913.85	227.08
914.15	227.11
914.46	227.10
914.76	227.10
915.06	227.11
915.37	227.07
915.67	227.05
915.97	227.04
916.27	227.02
916.58	227.03
916.88	227.04
917.18	227.01
917.49	227.06
917.79	227.09
918.09	227.07
918.39	227.10
918.70	227.11
919.00	227.11
919.30	227.13
919.60	227.14
919.91	227.14
920.21	227.15
920.51	227.10
920.81	227.14
921.12	227.16
921.42	227.13
921.72	227.14
922.02	227.12
922.32	227.12
922.63	227.13
922.93	227.15
923.23	227.11
923.53	227.10
923.83	227.05
924.13	227.01
924.44	227.04
924.74	227.05
925.04	227.05
925.34	227.03
925.64	227.03
925.94	227.01
926.24	227.07
926.55	227.03
926.85	227.01
927.15	227.00
927.45	226.97
927.75	226.95
928.05	226.98
928.35	226.98
928.65	226.98
928.95	226.98
929.26	226.96
929.56	227.00
929.86	227.00
930.16	226.98
930.46	226.94
930.76	226.96
931.06	226.90
931.36	226.87
931.66	226.90
931.96	226.90
932.26	226.91
932.56	226.87
932.86	226.89
933.16	226.94
933.46	226.90
933.76	226.87
934.06	226.91
934.36	226.91
934.66	226.91
934.96	226.91
935.26	226.89
935.56	226.88
935.86	226.84
936.16	226.80
936.46	226.80
936.76	226.84
937.06	226.78
937.36	226.78
937.66	226.78
937.96	226.73
938.26	226.73
938.56	226.71
938.86	226.72
939.16	226.75
939.46	226.75
939.76	226.79
940.06	226.83
940.35	226.79
940.65	226.72
940.95	226.73
941.25	226.71
941.55	226.71
941.85	226.71
942.15	226.76
942.45	226.82
942.75	226.85
943.04	226.87
943.34	226.91
943.64	226.92
943.94	226.94
944.24	226.94
944.54	226.93
944.84	226.96
945.13	226.92
945.43	226.88
945.73	226.85
946.03	226.83
946.33	226.80
946.62	226.83
946.92	226.84
947.22	226.85
947.52	226.86
947.82	226.88
948.11	226.92
948.41	226.85
948.71	226.80
949.01	226.80
949.31	226.79
949.60	226.77
949.90	226.83
950.20	226.81
950.50	226.83
950.79	226.83
951.09	226.88
951.39	226.88
951.69	226.91
951.98	226.95
952.28	226.96
952.58	226.99
952.87	226.98
953.17	227.00
953.47	226.99
953.76	226.98
954.06	226.97
954.36	226.91
954.66	226.95
954.95	226.98
955.25	226.97
955.55	227.01
955.84	227.00
956.14	226.97
956.44	226.99
956.73	226.97
957.03	226.93
957.32	226.87
957.62	226.87
957.92	226.88
958.21	226.84
958.51	226.94
958.81	226.90
959.10	226.93
959.40	226.96
959.69	226.91
959.99	226.95
960.29	226.95
960.58	227.00
960.88	227.03
961.17	227.02
961.47	227.02
961.76	226.95
962.06	226.99
962.36	226.96
962.65	226.96
962.95	226.93
963.24	226.94
963.54	226.96
963.83	226.95
964.13	226.89
964.42	226.88
964.72	226.81
965.01	226.82
965.31	226.77
965.60	226.71
965.90	226.80
966.19	226.77
966.49	226.75
966.78	226.71
967.08	226.69
967.37	226.68
967.67	226.62
967.96	226.65
968.26	226.64
968.55	226.66
968.85	226.63
969.14	226.64
969.43	226.64
969.73	226.61
970.02	226.59
970.32	226.62
970.61	226.63
970.91	226.56
971.20	226.52
971.49	226.49
971.79	226.51
972.08	226.47
972.38	226.45
972.67	226.43
972.96	226.46
973.26	226.46
973.55	226.49
973.85	226.52
974.14	226.52
974.43	226.50
974.73	226.52
975.02	226.53
975.31	226.56
975.61	226.59
975.90	226.57
976.19	226.61
976.49	226.61
976.78	226.59
977.07	226.60
977.37	226.60
977.66	226.66
977.95	226.64
978.24	226.64
978.54	226.66
978.83	226.65
979.12	226.64
979.42	226.62
979.71	226.60
980.00	226.61
980.29	226.60
980.59	226.57
980.88	226.58
981.17	226.54
981.46	226.52
981.76	226.52
982.05	226.58
982.34	226.61
982.63	226.62
982.93	226.63
983.22	226.70
983.51	226.72
983.80	226.74
984.09	226.79
984.39	226.74
984.68	226.74
984.97	226.78
985.26	226.79
985.55	226.80
985.85	226.78
986.14	226.81
986.43	226.83
986.72	226.82
987.01	226.79
987.30	226.84
987.59	226.84
987.89	226.83
988.18	226.83
988.47	226.78
988.76	226.77
989.05	226.75
989.34	226.72
989.63	226.76
989.92	226.73
990.22	226.71
990.51	226.72
990.80	226.70
991.09	226.70
991.38	226.69
991.67	226.68
991.96	226.72
992.25	226.67
992.54	226.64
992.83	226.68
993.12	226.67
993.41	226.67
993.70	226.70
993.99	226.71
994.28	226.73
994.58	226.74
994.87	226.74
995.16	226.76
995.45	226.75
995.74	226.71
996.03	226.73
996.32	226.75
996.61	226.77
996.90	226.76
997.19	226.75
997.48	226.77
997.77	226.74
998.06	226.70
998.34	226.71
998.63	226.72
998.92	226.70
999.21	226.71
999.50	226.71
999.79	226.68
1000.08	226.69
1000.37	226.62
1000.66	226.60
1000.95	226.59
1001.24	226.59
1001.53	226.63
1001.82	226.61
1002.11	226.59
1002.40	226.60
1002.68	226.60
1002.97	226.67
1003.26	226.66
1003.55	226.64
1003.84	226.64
1004.13	226.71
1004.42	226.70
1004.71	226.69
1004.99	226.69
1005.28	226.72
1005.57	226.71
1005.86	226.70
1006.15	226.67
1006.44	226.67
1006.72	226.72
1007.01	226.73
1007.30	226.75
1007.59	226.70
1007.88	226.70
1008.17	226.72
1008.45	226.69
1008.74	226.66
1009.03	226.64
1009.32	226.60
1009.60	226.61
1009.89	226.61
1010.18	226.58
1010.47	226.58
1010.76	226.58
1011.04	226.59
1011.33	226.60
1011.62	226.61
1011.91	226.60
1012.19	226.62
1012.48	226.66
1012.77	226.61
1013.05	226.65
1013.34	226.65
1013.63	226.68
1013.92	226.67
1014.20	226.64
1014.49	226.65
1014.78	226.69
1015.06	226.65
1015.35	226.68
1015.64	226.69
1015.92	226.70
1016.21	226.70
1016.50	226.68
1016.78	226.72
1017.07	226.72
1017.36	226.68
1017.64	226.69
1017.93	226.76
1018.22	226.72
1018.50	226.73
1018.79	226.76
1019.08	226.73
1019.36	226.70
1019.65	226.67
1019.93	226.72
1020.22	226.78
1020.51	226.83
1020.79	226.79
1021.08	225.99
1021.36	227.00
1021.65	226.88
1021.94	226.90
1022.22	226.50
1022.51	226.36
1022.79	227.35
1023.08	227.33
1023.36	227.94
1023.65	226.20
>>>>>End Processed Spectral Data<<<<<
