SpectraSuite Data File
++++++++++++++++++++++++++++++++++++
Date: Fri Feb 01 17:55:20 EST 2013
User: group
Dark Spectrum Present: No
Reference Spectrum Present: No
Number of Sampled Component Spectra: 1
Spectrometers: USB2E7196
Integration Time (usec): 35000 (USB2E7196)
Spectra Averaged: 100 (USB2E7196)
Boxcar Smoothing: 10 (USB2E7196)
Correct for Electrical Dark: No (USB2E7196)
Strobe/Lamp Enabled: No (USB2E7196)
Correct for Detector Non-linearity: No (USB2E7196)
Correct for Stray Light: No (USB2E7196)
Number of Pixels in Processed Spectrum: 2048
>>>>>Begin Processed Spectral Data<<<<<
339.09	0.00
339.48	212.91
339.86	214.93
340.24	215.79
340.63	217.39
341.01	220.06
341.39	220.58
341.78	220.82
342.16	222.64
342.54	223.05
342.93	211.44
343.31	222.11
343.69	222.64
344.07	223.05
344.46	223.46
344.84	223.84
345.22	224.08
345.60	224.30
345.99	224.53
346.37	224.64
346.75	224.73
347.13	224.81
347.52	224.86
347.90	224.94
348.28	224.97
348.66	225.00
349.05	225.02
349.43	225.08
349.81	225.10
350.19	225.09
350.57	225.14
350.96	225.19
351.34	225.29
351.72	225.37
352.10	225.46
352.48	225.54
352.87	225.59
353.25	225.64
353.63	225.68
354.01	225.70
354.39	225.78
354.77	225.82
355.15	225.90
355.54	225.94
355.92	225.94
356.30	225.98
356.68	226.07
357.06	226.12
357.44	226.15
357.82	226.21
358.20	226.28
358.58	226.31
358.97	226.37
359.35	226.43
359.73	226.50
360.11	226.57
360.49	226.59
360.87	226.62
361.25	226.67
361.63	226.76
362.01	226.82
362.39	226.81
362.77	226.88
363.15	226.86
363.53	226.95
363.91	227.00
364.29	227.04
364.67	227.00
365.05	227.01
365.43	227.05
365.81	227.06
366.19	227.11
366.57	227.18
366.95	227.15
367.33	227.14
367.71	227.08
368.09	227.07
368.47	227.06
368.85	227.04
369.23	227.03
369.61	226.98
369.99	226.96
370.37	227.00
370.75	226.98
371.13	226.98
371.51	226.88
371.89	226.84
372.27	226.84
372.65	226.80
373.03	226.77
373.41	226.72
373.78	226.69
374.16	226.61
374.54	226.53
374.92	226.50
375.30	226.45
375.68	226.42
376.06	226.41
376.44	226.37
376.82	226.32
377.19	226.26
377.57	226.22
377.95	226.18
378.33	226.08
378.71	225.98
379.09	225.95
379.47	225.92
379.84	225.85
380.22	225.75
380.60	225.69
380.98	225.65
381.36	225.59
381.73	225.53
382.11	225.50
382.49	225.45
382.87	225.40
383.25	225.33
383.62	225.42
384.00	225.33
384.38	225.27
384.76	225.26
385.13	225.25
385.51	225.17
385.89	225.08
386.27	225.03
386.64	225.03
387.02	224.97
387.40	224.91
387.78	224.90
388.15	224.88
388.53	224.79
388.91	224.74
389.29	224.68
389.66	224.66
390.04	224.64
390.42	224.63
390.79	224.62
391.17	224.62
391.55	224.50
391.92	224.49
392.30	224.49
392.68	224.43
393.05	224.43
393.43	224.45
393.81	224.49
394.18	224.50
394.56	224.49
394.94	224.53
395.31	224.55
395.69	224.60
396.06	224.63
396.44	224.66
396.82	224.68
397.19	224.78
397.57	224.81
397.95	224.84
398.32	224.87
398.70	224.92
399.07	224.98
399.45	225.01
399.82	225.07
400.20	225.16
400.58	225.23
400.95	225.22
401.33	225.33
401.70	225.46
402.08	225.56
402.45	225.63
402.83	225.75
403.20	225.84
403.58	225.93
403.95	226.06
404.33	226.24
404.71	226.39
405.08	226.55
405.46	226.66
405.83	226.84
406.21	227.00
406.58	227.21
406.96	227.37
407.33	227.60
407.70	227.82
408.08	228.14
408.45	228.39
408.83	228.70
409.20	228.93
409.58	229.17
409.95	229.49
410.33	229.83
410.70	230.13
411.08	230.53
411.45	230.93
411.82	231.32
412.20	231.78
412.57	232.30
412.95	232.74
413.32	233.29
413.69	233.81
414.07	234.42
414.44	235.04
414.82	235.69
415.19	236.41
415.56	237.13
415.94	237.83
416.31	238.69
416.68	239.49
417.06	240.47
417.43	241.39
417.81	242.46
418.18	243.50
418.55	244.63
418.93	245.78
419.30	246.98
419.67	248.24
420.04	249.50
420.42	250.80
420.79	252.33
421.16	253.89
421.54	255.46
421.91	257.06
422.28	258.71
422.66	260.49
423.03	262.21
423.40	264.01
423.77	265.92
424.15	267.82
424.52	269.83
424.89	272.00
425.26	274.07
425.64	275.95
426.01	278.08
426.38	280.32
426.75	282.56
427.13	284.90
427.50	287.31
427.87	289.80
428.24	292.32
428.61	294.65
428.99	297.22
429.36	300.07
429.73	302.86
430.10	305.56
430.47	308.33
430.85	311.14
431.22	314.13
431.59	317.26
431.96	320.27
432.33	323.62
432.70	326.74
433.08	330.50
433.45	334.03
433.82	337.56
434.19	341.39
434.56	345.09
434.93	348.57
435.30	352.04
435.68	355.94
436.05	359.71
436.42	363.50
436.79	366.82
437.16	370.39
437.53	374.10
437.90	377.83
438.27	381.47
438.64	385.27
439.01	388.74
439.38	391.77
439.75	394.64
440.13	397.97
440.50	401.11
440.87	403.58
441.24	406.21
441.61	409.10
441.98	411.11
442.35	413.54
442.72	416.09
443.09	418.59
443.46	419.94
443.83	420.74
444.20	421.37
444.57	422.58
444.94	422.95
445.31	423.43
445.68	423.92
446.05	424.04
446.42	423.55
446.79	422.99
447.16	422.41
447.53	422.02
447.90	420.48
448.27	418.93
448.64	416.77
449.01	415.27
449.37	412.56
449.74	410.04
450.11	407.04
450.48	403.69
450.85	400.30
451.22	397.42
451.59	394.69
451.96	392.13
452.33	388.61
452.70	385.52
453.07	381.74
453.43	377.89
453.80	374.19
454.17	370.63
454.54	367.22
454.91	363.55
455.28	359.97
455.65	356.61
456.02	353.27
456.38	350.41
456.75	346.80
457.12	343.84
457.49	340.88
457.86	338.00
458.23	335.51
458.59	332.72
458.96	329.89
459.33	327.38
459.70	324.85
460.07	322.81
460.43	320.46
460.80	318.29
461.17	316.32
461.54	314.28
461.91	312.33
462.27	310.39
462.64	308.73
463.01	306.85
463.38	305.11
463.74	303.32
464.11	301.79
464.48	300.44
464.85	298.91
465.21	297.72
465.58	296.48
465.95	294.97
466.32	293.73
466.68	292.54
467.05	291.33
467.42	290.14
467.78	288.92
468.15	287.73
468.52	286.84
468.88	285.69
469.25	284.68
469.62	283.79
469.98	282.89
470.35	282.01
470.72	281.21
471.08	280.32
471.45	279.58
471.82	278.81
472.18	277.97
472.55	277.39
472.92	276.65
473.28	276.03
473.65	275.46
474.02	274.88
474.38	274.35
474.75	273.87
475.11	273.38
475.48	273.00
475.85	272.66
476.21	272.32
476.58	272.02
476.94	271.73
477.31	271.48
477.67	271.21
478.04	271.01
478.41	270.90
478.77	270.86
479.14	270.71
479.50	270.66
479.87	270.68
480.23	270.70
480.60	270.67
480.96	270.66
481.33	270.80
481.69	270.93
482.06	271.07
482.42	271.27
482.79	271.46
483.15	271.74
483.52	272.08
483.88	272.39
484.25	272.75
484.61	273.17
484.98	273.60
485.34	274.13
485.71	274.73
486.07	275.30
486.44	275.92
486.80	276.63
487.17	277.37
487.53	278.21
487.90	279.07
488.26	280.07
488.62	281.10
488.99	282.07
489.35	283.16
489.72	284.35
490.08	285.57
490.44	286.84
490.81	288.19
491.17	289.57
491.54	291.14
491.90	292.74
492.26	294.48
492.63	296.27
492.99	298.13
493.36	300.11
493.72	302.27
494.08	304.45
494.45	306.84
494.81	309.32
495.17	311.86
495.54	314.56
495.90	317.35
496.26	320.30
496.63	323.40
496.99	326.70
497.35	330.15
497.72	333.76
498.08	337.49
498.44	341.44
498.80	345.63
499.17	349.83
499.53	354.26
499.89	358.89
500.26	363.67
500.62	368.59
500.98	373.82
501.34	379.20
501.71	384.80
502.07	390.54
502.43	396.50
502.79	402.64
503.16	409.04
503.52	415.73
503.88	422.49
504.24	429.58
504.60	436.81
504.97	444.37
505.33	452.14
505.69	460.31
506.05	468.49
506.41	476.76
506.78	485.46
507.14	494.42
507.50	503.67
507.86	513.19
508.22	522.97
508.59	532.81
508.95	542.97
509.31	553.37
509.67	564.13
510.03	575.03
510.39	586.28
510.75	597.84
511.12	609.53
511.48	621.58
511.84	633.76
512.20	646.08
512.56	658.79
512.92	671.85
513.28	685.15
513.64	698.56
514.00	712.22
514.37	726.14
514.73	740.18
515.09	754.15
515.45	768.43
515.81	783.05
516.17	798.05
516.53	813.30
516.89	828.69
517.25	843.88
517.61	859.51
517.97	875.20
518.33	890.75
518.69	906.67
519.05	922.86
519.41	939.40
519.77	956.23
520.13	973.07
520.49	989.72
520.85	1006.31
521.21	1023.32
521.57	1040.96
521.93	1058.11
522.29	1075.96
522.65	1093.71
523.01	1111.50
523.37	1129.04
523.73	1146.72
524.09	1164.29
524.45	1182.03
524.81	1200.38
525.17	1218.66
525.53	1237.15
525.89	1255.68
526.25	1274.17
526.61	1292.27
526.97	1310.61
527.33	1328.85
527.68	1347.17
528.04	1365.45
528.40	1383.84
528.76	1402.77
529.12	1421.15
529.48	1439.86
529.84	1457.49
530.20	1476.02
530.56	1494.77
530.91	1514.11
531.27	1532.78
531.63	1551.12
531.99	1569.71
532.35	1587.53
532.71	1605.47
533.07	1623.71
533.42	1641.73
533.78	1659.82
534.14	1678.17
534.50	1695.51
534.86	1713.31
535.21	1730.47
535.57	1748.27
535.93	1765.78
536.29	1782.56
536.65	1799.61
537.00	1816.39
537.36	1834.04
537.72	1850.52
538.08	1867.11
538.44	1882.97
538.79	1898.98
539.15	1914.66
539.51	1930.47
539.87	1946.99
540.22	1962.83
540.58	1978.64
540.94	1993.88
541.29	2008.71
541.65	2023.52
542.01	2039.03
542.37	2053.50
542.72	2067.98
543.08	2082.07
543.44	2096.84
543.79	2110.28
544.15	2123.32
544.51	2137.15
544.87	2150.11
545.22	2163.09
545.58	2175.50
545.94	2187.36
546.29	2199.24
546.65	2211.36
547.01	2222.67
547.36	2233.59
547.72	2244.08
548.07	2254.05
548.43	2264.22
548.79	2274.17
549.14	2283.61
549.50	2292.70
549.86	2302.25
550.21	2311.46
550.57	2320.56
550.92	2328.98
551.28	2337.72
551.64	2346.74
551.99	2355.10
552.35	2363.16
552.70	2371.11
553.06	2378.91
553.41	2387.14
553.77	2394.96
554.13	2402.73
554.48	2410.68
554.84	2417.97
555.19	2424.90
555.55	2431.83
555.90	2437.84
556.26	2444.53
556.61	2450.84
556.97	2456.92
557.32	2462.70
557.68	2468.51
558.03	2474.24
558.39	2479.24
558.74	2485.62
559.10	2491.17
559.45	2496.08
559.81	2501.82
560.16	2507.07
560.52	2511.71
560.87	2516.35
561.23	2520.29
561.58	2524.47
561.94	2528.32
562.29	2531.55
562.64	2535.64
563.00	2539.28
563.35	2544.38
563.71	2548.80
564.06	2553.30
564.42	2557.37
564.77	2561.34
565.12	2565.02
565.48	2568.23
565.83	2571.47
566.19	2573.98
566.54	2575.65
566.89	2578.05
567.25	2579.65
567.60	2581.93
567.96	2584.78
568.31	2586.60
568.66	2588.90
569.02	2590.40
569.37	2591.59
569.72	2593.46
570.08	2594.40
570.43	2595.16
570.78	2595.37
571.14	2594.47
571.49	2593.66
571.84	2593.82
572.20	2593.23
572.55	2592.61
572.90	2591.36
573.26	2590.39
573.61	2588.95
573.96	2587.81
574.31	2585.02
574.67	2582.39
575.02	2578.92
575.37	2575.60
575.72	2572.05
576.08	2568.54
576.43	2565.26
576.78	2561.96
577.13	2558.81
577.49	2555.72
577.84	2552.50
578.19	2548.73
578.54	2545.17
578.90	2541.01
579.25	2535.22
579.60	2529.93
579.95	2524.70
580.30	2519.45
580.66	2514.07
581.01	2508.69
581.36	2503.54
581.71	2499.37
582.06	2494.53
582.42	2489.88
582.77	2484.30
583.12	2479.43
583.47	2474.59
583.82	2469.38
584.17	2463.50
584.53	2457.59
584.88	2451.57
585.23	2445.36
585.58	2439.15
585.93	2433.10
586.28	2427.73
586.63	2422.40
586.98	2416.83
587.34	2411.63
587.69	2406.19
588.04	2400.51
588.39	2394.41
588.74	2387.07
589.09	2380.18
589.44	2372.79
589.79	2365.94
590.14	2359.53
590.49	2352.13
590.84	2344.99
591.19	2338.37
591.54	2331.15
591.89	2323.09
592.25	2315.51
592.60	2307.36
592.95	2299.04
593.30	2290.84
593.65	2282.33
594.00	2274.29
594.35	2266.12
594.70	2256.91
595.05	2249.00
595.40	2240.61
595.75	2232.07
596.10	2225.30
596.45	2217.67
596.80	2210.55
597.15	2203.22
597.50	2195.37
597.85	2187.87
598.19	2180.30
598.54	2172.31
598.89	2164.74
599.24	2157.84
599.59	2150.35
599.94	2143.18
600.29	2135.94
600.64	2128.42
600.99	2120.02
601.34	2112.31
601.69	2104.37
602.04	2096.60
602.39	2088.12
602.74	2080.35
603.08	2072.59
603.43	2064.67
603.78	2056.24
604.13	2048.08
604.48	2039.72
604.83	2031.71
605.18	2024.00
605.53	2014.85
605.87	2005.57
606.22	1997.11
606.57	1987.95
606.92	1979.09
607.27	1970.77
607.62	1962.64
607.96	1954.23
608.31	1946.58
608.66	1937.61
609.01	1928.88
609.36	1920.19
609.70	1910.91
610.05	1901.48
610.40	1892.59
610.75	1882.96
611.10	1874.01
611.44	1864.09
611.79	1854.69
612.14	1844.55
612.49	1833.58
612.83	1823.56
613.18	1813.93
613.53	1804.54
613.88	1794.57
614.22	1785.07
614.57	1774.92
614.92	1765.56
615.27	1756.83
615.61	1747.19
615.96	1737.86
616.31	1728.80
616.65	1720.04
617.00	1711.16
617.35	1702.24
617.70	1692.46
618.04	1682.61
618.39	1673.01
618.74	1664.13
619.08	1654.51
619.43	1645.57
619.78	1637.48
620.12	1629.29
620.47	1620.54
620.82	1610.93
621.16	1602.17
621.51	1593.16
621.85	1584.29
622.20	1574.26
622.55	1564.30
622.89	1554.96
623.24	1545.95
623.59	1537.22
623.93	1528.31
624.28	1519.85
624.62	1510.99
624.97	1502.61
625.32	1494.48
625.66	1486.19
626.01	1477.82
626.35	1469.22
626.70	1460.19
627.04	1451.33
627.39	1442.19
627.73	1433.45
628.08	1425.37
628.43	1416.98
628.77	1408.51
629.12	1399.74
629.46	1391.47
629.81	1382.72
630.15	1374.24
630.50	1365.55
630.84	1356.15
631.19	1346.91
631.53	1338.03
631.88	1329.15
632.22	1320.31
632.57	1311.82
632.91	1303.03
633.26	1294.38
633.60	1285.58
633.95	1277.25
634.29	1268.81
634.64	1260.89
634.98	1252.36
635.32	1243.97
635.67	1236.17
636.01	1228.38
636.36	1220.55
636.70	1212.85
637.05	1205.31
637.39	1197.82
637.73	1190.31
638.08	1183.32
638.42	1176.26
638.77	1168.81
639.11	1161.18
639.45	1153.71
639.80	1146.12
640.14	1138.72
640.49	1131.11
640.83	1123.84
641.17	1116.68
641.52	1109.45
641.86	1102.01
642.20	1095.19
642.55	1087.80
642.89	1080.35
643.23	1072.64
643.58	1065.83
643.92	1058.77
644.26	1051.78
644.61	1044.61
644.95	1037.77
645.29	1030.26
645.64	1022.60
645.98	1015.22
646.32	1008.39
646.66	1001.32
647.01	994.49
647.35	987.80
647.69	980.93
648.04	974.47
648.38	967.69
648.72	960.81
649.06	953.81
649.41	947.02
649.75	940.20
650.09	933.38
650.43	926.79
650.78	919.76
651.12	912.83
651.46	906.11
651.80	899.73
652.14	893.31
652.49	887.13
652.83	881.10
653.17	874.66
653.51	868.22
653.85	862.01
654.20	855.53
654.54	848.70
654.88	842.12
655.22	835.29
655.56	828.79
655.90	822.51
656.25	816.61
656.59	810.45
656.93	804.56
657.27	798.66
657.61	792.40
657.95	786.46
658.29	780.60
658.64	774.58
658.98	768.32
659.32	762.06
659.66	755.95
660.00	750.01
660.34	744.27
660.68	738.59
661.02	732.78
661.36	727.35
661.70	722.12
662.05	717.15
662.39	712.22
662.73	707.07
663.07	701.99
663.41	696.84
663.75	691.69
664.09	686.44
664.43	681.33
664.77	676.58
665.11	671.71
665.45	666.91
665.79	662.22
666.13	657.55
666.47	652.89
666.81	648.28
667.15	643.50
667.49	639.03
667.83	634.59
668.17	630.12
668.51	625.53
668.85	620.86
669.19	616.42
669.53	612.04
669.87	607.62
670.21	603.41
670.55	599.11
670.89	595.14
671.23	591.24
671.57	587.18
671.91	583.12
672.25	579.10
672.58	575.11
672.92	571.15
673.26	567.49
673.60	563.81
673.94	560.21
674.28	556.82
674.62	553.41
674.96	549.88
675.30	546.60
675.64	543.25
675.97	540.08
676.31	536.81
676.65	533.42
676.99	530.32
677.33	527.05
677.67	523.86
678.01	520.38
678.34	517.00
678.68	513.72
679.02	510.55
679.36	507.34
679.70	504.20
680.04	501.12
680.37	497.89
680.71	494.69
681.05	491.63
681.39	488.53
681.73	485.48
682.06	482.57
682.40	479.63
682.74	476.66
683.08	473.71
683.42	470.75
683.75	467.93
684.09	464.99
684.43	462.13
684.77	459.32
685.10	456.62
685.44	453.92
685.78	451.27
686.12	448.64
686.45	446.05
686.79	443.41
687.13	440.81
687.46	438.29
687.80	435.85
688.14	433.29
688.48	430.93
688.81	428.33
689.15	425.82
689.49	423.36
689.82	420.96
690.16	418.57
690.50	416.27
690.83	414.05
691.17	411.74
691.51	409.54
691.84	407.41
692.18	405.22
692.52	402.96
692.85	400.69
693.19	398.51
693.52	396.36
693.86	394.24
694.20	392.16
694.53	390.09
694.87	387.92
695.21	385.85
695.54	383.71
695.88	381.67
696.21	379.68
696.55	377.74
696.88	375.79
697.22	373.83
697.56	371.93
697.89	370.04
698.23	368.23
698.56	366.39
698.90	364.58
699.23	362.65
699.57	360.83
699.90	359.09
700.24	357.32
700.58	355.59
700.91	353.90
701.25	352.22
701.58	350.65
701.92	349.08
702.25	347.47
702.59	345.95
702.92	344.45
703.26	342.93
703.59	341.44
703.93	340.08
704.26	338.71
704.60	337.24
704.93	335.75
705.26	334.31
705.60	332.90
705.93	331.51
706.27	330.32
706.60	329.09
706.94	327.83
707.27	326.53
707.61	325.25
707.94	324.04
708.27	322.80
708.61	321.52
708.94	320.34
709.28	319.21
709.61	318.08
709.94	316.98
710.28	315.83
710.61	314.66
710.95	313.40
711.28	312.33
711.61	311.21
711.95	310.14
712.28	309.04
712.61	307.95
712.95	306.91
713.28	305.89
713.61	304.87
713.95	303.84
714.28	302.89
714.61	301.91
714.95	300.98
715.28	300.00
715.61	299.04
715.95	298.07
716.28	297.08
716.61	296.11
716.95	295.14
717.28	294.26
717.61	293.42
717.94	292.61
718.28	291.70
718.61	290.86
718.94	290.05
719.27	289.28
719.61	288.53
719.94	287.77
720.27	286.93
720.60	286.16
720.94	285.46
721.27	284.75
721.60	284.10
721.93	283.40
722.27	282.79
722.60	282.14
722.93	281.50
723.26	280.90
723.59	280.25
723.93	279.63
724.26	279.00
724.59	278.31
724.92	277.66
725.25	277.07
725.59	276.47
725.92	275.91
726.25	275.32
726.58	274.75
726.91	274.14
727.24	273.60
727.57	273.05
727.91	272.45
728.24	271.89
728.57	271.28
728.90	270.79
729.23	270.21
729.56	269.67
729.89	269.16
730.22	268.61
730.55	268.09
730.89	267.58
731.22	267.07
731.55	266.59
731.88	266.09
732.21	265.61
732.54	265.12
732.87	264.63
733.20	264.13
733.53	263.71
733.86	263.32
734.19	262.89
734.52	262.46
734.85	262.09
735.18	261.61
735.51	261.20
735.84	260.74
736.17	260.35
736.50	259.87
736.83	259.58
737.16	259.15
737.49	258.77
737.82	258.37
738.15	257.95
738.48	257.58
738.81	257.23
739.14	256.80
739.47	256.44
739.80	256.06
740.13	255.74
740.46	255.29
740.79	254.90
741.12	254.51
741.45	254.14
741.78	253.73
742.11	253.44
742.44	253.07
742.77	252.72
743.10	252.33
743.43	252.01
743.75	251.57
744.08	251.41
744.41	251.09
744.74	250.78
745.07	250.48
745.40	250.19
745.73	249.88
746.06	249.58
746.39	249.26
746.71	248.95
747.04	248.63
747.37	248.36
747.70	248.05
748.03	247.79
748.36	247.54
748.68	247.27
749.01	246.95
749.34	246.70
749.67	246.41
750.00	246.17
750.33	245.99
750.65	245.70
750.98	245.31
751.31	245.06
751.64	244.77
751.97	244.58
752.29	244.32
752.62	244.02
752.95	243.79
753.28	243.54
753.60	243.29
753.93	243.05
754.26	242.80
754.59	242.55
754.91	242.31
755.24	242.06
755.57	241.79
755.90	241.57
756.22	241.35
756.55	241.13
756.88	240.89
757.20	240.62
757.53	240.39
757.86	240.21
758.19	239.99
758.51	239.84
758.84	239.59
759.17	239.38
759.49	239.21
759.82	239.07
760.15	238.92
760.47	238.77
760.80	238.60
761.13	238.46
761.45	238.26
761.78	238.06
762.11	237.94
762.43	237.80
762.76	237.67
763.08	237.53
763.41	237.39
763.74	237.25
764.06	237.11
764.39	236.99
764.71	236.86
765.04	236.72
765.37	236.57
765.69	236.48
766.02	236.37
766.34	236.23
766.67	236.06
767.00	235.94
767.32	235.84
767.65	235.76
767.97	235.64
768.30	235.54
768.62	235.40
768.95	235.21
769.27	235.10
769.60	234.99
769.92	234.87
770.25	234.76
770.57	234.62
770.90	234.50
771.22	234.38
771.55	234.25
771.87	234.14
772.20	234.05
772.52	234.01
772.85	234.02
773.17	233.90
773.50	233.83
773.82	233.73
774.15	233.59
774.47	233.44
774.80	233.35
775.12	233.25
775.45	233.18
775.77	233.09
776.09	233.01
776.42	232.90
776.74	232.80
777.07	232.68
777.39	232.61
777.72	232.50
778.04	232.40
778.36	232.29
778.69	232.22
779.01	232.10
779.33	231.90
779.66	231.69
779.98	231.63
780.31	231.54
780.63	231.49
780.95	231.44
781.28	231.37
781.60	231.27
781.92	231.22
782.25	231.13
782.57	231.08
782.89	230.99
783.22	230.93
783.54	230.84
783.86	230.79
784.19	230.72
784.51	230.68
784.83	230.64
785.16	230.60
785.48	230.49
785.80	230.42
786.12	230.37
786.45	230.30
786.77	230.25
787.09	230.15
787.42	230.06
787.74	229.97
788.06	229.93
788.38	229.85
788.71	229.75
789.03	229.72
789.35	229.70
789.67	229.63
789.99	229.58
790.32	229.52
790.64	229.49
790.96	229.54
791.28	229.45
791.61	229.36
791.93	229.31
792.25	229.28
792.57	229.30
792.89	229.26
793.21	229.22
793.54	229.17
793.86	229.13
794.18	229.07
794.50	229.03
794.82	228.97
795.14	228.95
795.47	228.93
795.79	228.84
796.11	228.77
796.43	228.75
796.75	228.71
797.07	228.66
797.39	228.60
797.71	228.49
798.04	228.48
798.36	228.48
798.68	228.43
799.00	228.43
799.32	228.36
799.64	228.34
799.96	228.32
800.28	228.29
800.60	228.26
800.92	228.24
801.24	228.17
801.56	228.16
801.89	228.11
802.21	228.09
802.53	228.07
802.85	228.06
803.17	228.08
803.49	228.02
803.81	228.01
804.13	228.01
804.45	227.95
804.77	227.92
805.09	227.87
805.41	227.85
805.73	227.79
806.05	227.74
806.37	227.70
806.69	227.64
807.01	227.61
807.33	227.59
807.65	227.53
807.97	227.56
808.28	227.53
808.60	227.51
808.92	227.48
809.24	227.52
809.56	227.48
809.88	227.40
810.20	227.38
810.52	227.38
810.84	227.30
811.16	227.26
811.48	227.22
811.80	227.24
812.12	227.19
812.43	227.19
812.75	227.15
813.07	227.12
813.39	227.10
813.71	227.07
814.03	227.01
814.35	227.02
814.67	226.97
814.98	226.92
815.30	226.89
815.62	226.87
815.94	226.77
816.26	226.79
816.58	226.78
816.89	226.77
817.21	226.74
817.53	226.74
817.85	226.73
818.17	226.74
818.48	226.67
818.80	226.69
819.12	226.63
819.44	226.61
819.76	226.56
820.07	226.50
820.39	226.48
820.71	226.50
821.03	226.44
821.34	226.38
821.66	226.37
821.98	226.36
822.30	226.29
822.61	226.34
822.93	226.26
823.25	226.21
823.57	226.17
823.88	226.15
824.20	226.13
824.52	226.12
824.83	226.06
825.15	226.02
825.47	225.98
825.79	225.97
826.10	225.92
826.42	225.90
826.74	225.91
827.05	225.89
827.37	225.85
827.69	225.82
828.00	225.82
828.32	225.82
828.64	225.79
828.95	225.88
829.27	225.83
829.58	225.84
829.90	225.83
830.22	225.81
830.53	225.78
830.85	225.78
831.17	225.74
831.48	225.73
831.80	225.72
832.11	225.72
832.43	225.71
832.75	225.72
833.06	225.77
833.38	225.74
833.69	225.73
834.01	225.72
834.32	225.70
834.64	225.69
834.96	225.67
835.27	225.65
835.59	225.57
835.90	225.54
836.22	225.51
836.53	225.49
836.85	225.48
837.16	225.55
837.48	225.51
837.79	225.56
838.11	225.57
838.42	225.57
838.74	225.57
839.05	225.55
839.37	225.53
839.68	225.48
840.00	225.47
840.31	225.50
840.63	225.51
840.94	225.50
841.26	225.48
841.57	225.50
841.88	225.51
842.20	225.48
842.51	225.47
842.83	225.45
843.14	225.54
843.46	225.54
843.77	225.46
844.08	225.47
844.40	225.42
844.71	225.40
845.03	225.37
845.34	225.35
845.65	225.36
845.97	225.39
846.28	225.41
846.60	225.42
846.91	225.39
847.22	225.38
847.54	225.42
847.85	225.44
848.16	225.40
848.48	225.40
848.79	225.45
849.10	225.46
849.42	225.48
849.73	225.38
850.04	225.39
850.36	225.36
850.67	225.39
850.98	225.40
851.30	225.42
851.61	225.44
851.92	225.43
852.23	225.46
852.55	225.46
852.86	225.45
853.17	225.48
853.49	225.51
853.80	225.52
854.11	225.52
854.42	225.54
854.74	225.55
855.05	225.55
855.36	225.50
855.67	225.51
855.99	225.48
856.30	225.56
856.61	225.51
856.92	225.54
857.23	225.50
857.55	225.45
857.86	225.44
858.17	225.46
858.48	225.44
858.79	225.40
859.11	225.39
859.42	225.37
859.73	225.33
860.04	225.30
860.35	225.26
860.66	225.22
860.98	225.20
861.29	225.16
861.60	225.14
861.91	225.16
862.22	225.13
862.53	225.13
862.84	225.06
863.16	225.13
863.47	225.09
863.78	225.08
864.09	225.09
864.40	225.09
864.71	225.06
865.02	225.09
865.33	225.05
865.64	225.03
865.95	225.04
866.27	225.08
866.58	225.07
866.89	225.06
867.20	225.06
867.51	225.06
867.82	225.06
868.13	225.08
868.44	225.06
868.75	225.06
869.06	225.07
869.37	225.06
869.68	225.00
869.99	225.00
870.30	225.03
870.61	225.05
870.92	224.99
871.23	224.97
871.54	224.97
871.85	225.02
872.16	225.04
872.47	224.99
872.78	224.93
873.09	224.93
873.40	224.95
873.71	224.95
874.02	224.91
874.33	224.91
874.64	224.87
874.95	224.88
875.26	224.89
875.56	224.88
875.87	224.87
876.18	224.87
876.49	225.00
876.80	224.96
877.11	224.92
877.42	224.95
877.73	224.98
878.04	224.95
878.35	224.94
878.66	224.93
878.96	224.97
879.27	224.97
879.58	224.99
879.89	224.98
880.20	225.02
880.51	225.02
880.82	225.01
881.12	225.04
881.43	225.01
881.74	225.00
882.05	225.01
882.36	225.03
882.67	225.04
882.97	224.95
883.28	224.95
883.59	224.98
883.90	225.00
884.21	225.01
884.51	225.01
884.82	225.03
885.13	225.00
885.44	225.00
885.74	224.99
886.05	224.97
886.36	224.97
886.67	224.94
886.98	225.01
887.28	225.03
887.59	225.05
887.90	225.02
888.20	225.01
888.51	225.02
888.82	224.99
889.13	224.98
889.43	225.05
889.74	225.05
890.05	225.04
890.35	225.02
890.66	225.01
890.97	225.00
891.28	224.99
891.58	225.02
891.89	225.01
892.20	225.02
892.50	224.97
892.81	224.93
893.12	224.94
893.42	224.90
893.73	224.89
894.04	224.88
894.34	224.92
894.65	224.90
894.95	224.87
895.26	224.89
895.57	224.90
895.87	224.79
896.18	224.79
896.48	224.80
896.79	224.81
897.10	224.81
897.40	224.80
897.71	224.81
898.01	224.80
898.32	224.84
898.63	224.84
898.93	224.87
899.24	224.89
899.54	224.86
899.85	224.83
900.15	224.81
900.46	224.79
900.76	224.79
901.07	224.81
901.38	224.82
901.68	224.85
901.99	224.84
902.29	224.86
902.60	224.86
902.90	224.81
903.21	224.79
903.51	224.76
903.82	224.78
904.12	224.76
904.43	224.72
904.73	224.67
905.03	224.66
905.34	224.76
905.64	224.76
905.95	224.75
906.25	224.77
906.56	224.80
906.86	224.76
907.17	224.75
907.47	224.75
907.77	224.75
908.08	224.72
908.38	224.72
908.69	224.71
908.99	224.72
909.30	224.73
909.60	224.73
909.90	224.76
910.21	224.73
910.51	224.71
910.81	224.72
911.12	224.75
911.42	224.74
911.73	224.64
912.03	224.65
912.33	224.66
912.64	224.67
912.94	224.66
913.24	224.67
913.55	224.64
913.85	224.62
914.15	224.61
914.46	224.61
914.76	224.58
915.06	224.58
915.37	224.55
915.67	224.56
915.97	224.57
916.27	224.53
916.58	224.53
916.88	224.54
917.18	224.54
917.49	224.60
917.79	224.60
918.09	224.61
918.39	224.62
918.70	224.64
919.00	224.61
919.30	224.66
919.60	224.65
919.91	224.67
920.21	224.64
920.51	224.64
920.81	224.62
921.12	224.67
921.42	224.63
921.72	224.67
922.02	224.68
922.32	224.69
922.63	224.69
922.93	224.76
923.23	224.76
923.53	224.76
923.83	224.68
924.13	224.71
924.44	224.72
924.74	224.76
925.04	224.81
925.34	224.81
925.64	224.76
925.94	224.77
926.24	224.82
926.55	224.86
926.85	224.87
927.15	224.88
927.45	224.88
927.75	224.89
928.05	224.88
928.35	224.86
928.65	224.91
928.95	224.92
929.26	224.89
929.56	224.90
929.86	224.91
930.16	224.90
930.46	224.91
930.76	224.91
931.06	224.85
931.36	224.78
931.66	224.80
931.96	224.82
932.26	224.82
932.56	224.79
932.86	224.77
933.16	224.75
933.46	224.73
933.76	224.70
934.06	224.76
934.36	224.78
934.66	224.76
934.96	224.72
935.26	224.76
935.56	224.75
935.86	224.72
936.16	224.68
936.46	224.67
936.76	224.64
937.06	224.63
937.36	224.61
937.66	224.63
937.96	224.61
938.26	224.59
938.56	224.61
938.86	224.60
939.16	224.63
939.46	224.63
939.76	224.63
940.06	224.65
940.35	224.61
940.65	224.55
940.95	224.58
941.25	224.57
941.55	224.53
941.85	224.52
942.15	224.52
942.45	224.57
942.75	224.55
943.04	224.58
943.34	224.61
943.64	224.61
943.94	224.58
944.24	224.56
944.54	224.56
944.84	224.52
945.13	224.52
945.43	224.50
945.73	224.53
946.03	224.51
946.33	224.50
946.62	224.49
946.92	224.49
947.22	224.50
947.52	224.50
947.82	224.51
948.11	224.51
948.41	224.51
948.71	224.48
949.01	224.49
949.31	224.46
949.60	224.43
949.90	224.46
950.20	224.47
950.50	224.46
950.79	224.45
951.09	224.46
951.39	224.47
951.69	224.45
951.98	224.45
952.28	224.48
952.58	224.46
952.87	224.48
953.17	224.49
953.47	224.45
953.76	224.45
954.06	224.42
954.36	224.42
954.66	224.41
954.95	224.42
955.25	224.43
955.55	224.45
955.84	224.45
956.14	224.43
956.44	224.42
956.73	224.41
957.03	224.41
957.32	224.41
957.62	224.41
957.92	224.40
958.21	224.39
958.51	224.48
958.81	224.51
959.10	224.52
959.40	224.52
959.69	224.54
959.99	224.54
960.29	224.55
960.58	224.56
960.88	224.59
961.17	224.58
961.47	224.59
961.76	224.59
962.06	224.60
962.36	224.59
962.65	224.62
962.95	224.65
963.24	224.61
963.54	224.65
963.83	224.65
964.13	224.68
964.42	224.67
964.72	224.63
965.01	224.64
965.31	224.62
965.60	224.64
965.90	224.68
966.19	224.69
966.49	224.69
966.78	224.63
967.08	224.67
967.37	224.68
967.67	224.70
967.96	224.73
968.26	224.70
968.55	224.75
968.85	224.73
969.14	224.73
969.43	224.73
969.73	224.71
970.02	224.71
970.32	224.71
970.61	224.68
970.91	224.64
971.20	224.64
971.49	224.62
971.79	224.63
972.08	224.60
972.38	224.58
972.67	224.57
972.96	224.63
973.26	224.60
973.55	224.60
973.85	224.60
974.14	224.59
974.43	224.61
974.73	224.57
975.02	224.58
975.31	224.59
975.61	224.65
975.90	224.66
976.19	224.63
976.49	224.62
976.78	224.63
977.07	224.62
977.37	224.60
977.66	224.64
977.95	224.61
978.24	224.59
978.54	224.66
978.83	224.65
979.12	224.62
979.42	224.57
979.71	224.58
980.00	224.58
980.29	224.53
980.59	224.51
980.88	224.52
981.17	224.51
981.46	224.51
981.76	224.49
982.05	224.46
982.34	224.45
982.63	224.49
982.93	224.47
983.22	224.51
983.51	224.51
983.80	224.51
984.09	224.51
984.39	224.50
984.68	224.44
984.97	224.45
985.26	224.42
985.55	224.44
985.85	224.40
986.14	224.39
986.43	224.41
986.72	224.38
987.01	224.34
987.30	224.33
987.59	224.29
987.89	224.29
988.18	224.28
988.47	224.27
988.76	224.24
989.05	224.24
989.34	224.19
989.63	224.20
989.92	224.16
990.22	224.16
990.51	224.18
990.80	224.18
991.09	224.20
991.38	224.24
991.67	224.23
991.96	224.25
992.25	224.24
992.54	224.24
992.83	224.26
993.12	224.27
993.41	224.28
993.70	224.33
993.99	224.36
994.28	224.37
994.58	224.41
994.87	224.39
995.16	224.42
995.45	224.41
995.74	224.44
996.03	224.46
996.32	224.43
996.61	224.45
996.90	224.45
997.19	224.41
997.48	224.40
997.77	224.43
998.06	224.42
998.34	224.41
998.63	224.43
998.92	224.46
999.21	224.50
999.50	224.52
999.79	224.48
1000.08	224.45
1000.37	224.47
1000.66	224.43
1000.95	224.48
1001.24	224.45
1001.53	224.48
1001.82	224.45
1002.11	224.45
1002.40	224.50
1002.68	224.51
1002.97	224.58
1003.26	224.58
1003.55	224.56
1003.84	224.57
1004.13	224.60
1004.42	224.59
1004.71	224.59
1004.99	224.58
1005.28	224.57
1005.57	224.59
1005.86	224.59
1006.15	224.60
1006.44	224.59
1006.72	224.61
1007.01	224.55
1007.30	224.57
1007.59	224.58
1007.88	224.56
1008.17	224.55
1008.45	224.51
1008.74	224.45
1009.03	224.42
1009.32	224.41
1009.60	224.45
1009.89	224.42
1010.18	224.38
1010.47	224.37
1010.76	224.36
1011.04	224.34
1011.33	224.34
1011.62	224.33
1011.91	224.33
1012.19	224.35
1012.48	224.32
1012.77	224.32
1013.05	224.39
1013.34	224.38
1013.63	224.38
1013.92	224.37
1014.20	224.36
1014.49	224.38
1014.78	224.35
1015.06	224.30
1015.35	224.31
1015.64	224.29
1015.92	224.29
1016.21	224.29
1016.50	224.30
1016.78	224.29
1017.07	224.32
1017.36	224.30
1017.64	224.26
1017.93	224.28
1018.22	224.27
1018.50	224.32
1018.79	224.31
1019.08	224.25
1019.36	224.23
1019.65	224.21
1019.93	224.25
1020.22	224.24
1020.51	224.32
1020.79	224.37
1021.08	224.50
1021.36	224.73
1021.65	224.11
1021.94	224.10
1022.22	223.70
1022.51	224.14
1022.79	224.94
1023.08	224.15
1023.36	225.96
1023.65	224.33
>>>>>End Processed Spectral Data<<<<<
