SpectraSuite Data File
++++++++++++++++++++++++++++++++++++
Date: Fri Feb 01 15:39:52 EST 2013
User: group
Dark Spectrum Present: No
Reference Spectrum Present: No
Number of Sampled Component Spectra: 1
Spectrometers: USB2E7196
Integration Time (usec): 35000 (USB2E7196)
Spectra Averaged: 100 (USB2E7196)
Boxcar Smoothing: 10 (USB2E7196)
Correct for Electrical Dark: No (USB2E7196)
Strobe/Lamp Enabled: No (USB2E7196)
Correct for Detector Non-linearity: No (USB2E7196)
Correct for Stray Light: No (USB2E7196)
Number of Pixels in Processed Spectrum: 2048
>>>>>Begin Processed Spectral Data<<<<<
339.09	0.00
339.48	215.67
339.86	216.91
340.24	217.25
340.63	219.15
341.01	221.82
341.39	221.49
341.78	222.95
342.16	224.48
342.54	224.78
342.93	213.25
343.31	224.02
343.69	224.53
344.07	224.95
344.46	225.42
344.84	225.81
345.22	226.07
345.60	226.34
345.99	226.54
346.37	226.64
346.75	226.76
347.13	226.84
347.52	226.87
347.90	226.91
348.28	226.95
348.66	227.01
349.05	227.00
349.43	227.06
349.81	227.09
350.19	227.11
350.57	227.19
350.96	227.27
351.34	227.35
351.72	227.42
352.10	227.52
352.48	227.54
352.87	227.57
353.25	227.63
353.63	227.70
354.01	227.78
354.39	227.90
354.77	227.98
355.15	228.07
355.54	228.12
355.92	228.16
356.30	228.22
356.68	228.38
357.06	228.48
357.44	228.53
357.82	228.60
358.20	228.66
358.58	228.71
358.97	228.79
359.35	228.88
359.73	228.98
360.11	229.04
360.49	229.15
360.87	229.21
361.25	229.26
361.63	229.34
362.01	229.35
362.39	229.35
362.77	229.40
363.15	229.43
363.53	229.45
363.91	229.50
364.29	229.53
364.67	229.42
365.05	229.42
365.43	229.46
365.81	229.47
366.19	229.55
366.57	229.58
366.95	229.56
367.33	229.54
367.71	229.51
368.09	229.50
368.47	229.51
368.85	229.50
369.23	229.50
369.61	229.42
369.99	229.44
370.37	229.46
370.75	229.46
371.13	229.43
371.51	229.39
371.89	229.34
372.27	229.29
372.65	229.29
373.03	229.24
373.41	229.20
373.78	229.16
374.16	229.04
374.54	228.94
374.92	228.91
375.30	228.83
375.68	228.75
376.06	228.69
376.44	228.58
376.82	228.51
377.19	228.43
377.57	228.36
377.95	228.24
378.33	228.13
378.71	228.00
379.09	227.94
379.47	227.87
379.84	227.79
380.22	227.73
380.60	227.59
380.98	227.50
381.36	227.43
381.73	227.35
382.11	227.30
382.49	227.26
382.87	227.14
383.25	227.08
383.62	227.14
384.00	227.06
384.38	227.00
384.76	226.94
385.13	226.96
385.51	226.90
385.89	226.88
386.27	226.85
386.64	226.78
387.02	226.73
387.40	226.68
387.78	226.62
388.15	226.59
388.53	226.62
388.91	226.57
389.29	226.50
389.66	226.49
390.04	226.48
390.42	226.46
390.79	226.48
391.17	226.47
391.55	226.34
391.92	226.38
392.30	226.38
392.68	226.36
393.05	226.34
393.43	226.32
393.81	226.32
394.18	226.30
394.56	226.34
394.94	226.37
395.31	226.39
395.69	226.46
396.06	226.46
396.44	226.48
396.82	226.55
397.19	226.66
397.57	226.67
397.95	226.72
398.32	226.76
398.70	226.79
399.07	226.84
399.45	226.91
399.82	226.93
400.20	226.99
400.58	227.07
400.95	227.12
401.33	227.26
401.70	227.40
402.08	227.55
402.45	227.63
402.83	227.76
403.20	227.92
403.58	228.00
403.95	228.15
404.33	228.28
404.71	228.40
405.08	228.58
405.46	228.73
405.83	228.86
406.21	229.03
406.58	229.22
406.96	229.38
407.33	229.55
407.70	229.76
408.08	230.05
408.45	230.29
408.83	230.53
409.20	230.72
409.58	230.91
409.95	231.15
410.33	231.43
410.70	231.70
411.08	231.97
411.45	232.27
411.82	232.61
412.20	232.95
412.57	233.38
412.95	233.67
413.32	234.11
413.69	234.54
414.07	234.98
414.44	235.44
414.82	235.96
415.19	236.54
415.56	237.11
415.94	237.66
416.31	238.31
416.68	238.93
417.06	239.68
417.43	240.35
417.81	241.12
418.18	241.91
418.55	242.73
418.93	243.60
419.30	244.53
419.67	245.44
420.04	246.40
420.42	247.38
420.79	248.54
421.16	249.67
421.54	250.84
421.91	252.07
422.28	253.31
422.66	254.62
423.03	255.93
423.40	257.24
423.77	258.59
424.15	260.00
424.52	261.50
424.89	263.08
425.26	264.66
425.64	266.06
426.01	267.65
426.38	269.30
426.75	270.97
427.13	272.67
427.50	274.47
427.87	276.35
428.24	278.20
428.61	279.96
428.99	281.89
429.36	284.01
429.73	286.06
430.10	288.09
430.47	290.15
430.85	292.26
431.22	294.51
431.59	296.94
431.96	299.16
432.33	301.59
432.70	304.00
433.08	306.80
433.45	309.45
433.82	312.10
434.19	315.01
434.56	317.82
434.93	320.49
435.30	323.13
435.68	326.03
436.05	328.89
436.42	331.67
436.79	334.20
437.16	336.88
437.53	339.66
437.90	342.49
438.27	345.23
438.64	348.02
439.01	350.61
439.38	352.88
439.75	355.03
440.13	357.57
440.50	359.92
440.87	361.76
441.24	363.70
441.61	365.81
441.98	367.22
442.35	369.04
442.72	370.91
443.09	372.76
443.46	373.72
443.83	374.30
444.20	374.77
444.57	375.61
444.94	375.91
445.31	376.30
445.68	376.66
446.05	376.69
446.42	376.34
446.79	375.90
447.16	375.42
447.53	375.14
447.90	373.96
448.27	372.76
448.64	371.18
449.01	370.06
449.37	368.15
449.74	366.33
450.11	364.06
450.48	361.59
450.85	359.02
451.22	356.87
451.59	354.89
451.96	352.99
452.33	350.40
452.70	348.06
453.07	345.20
453.43	342.29
453.80	339.62
454.17	336.94
454.54	334.40
454.91	331.67
455.28	329.01
455.65	326.52
456.02	324.09
456.38	321.94
456.75	319.26
457.12	316.99
457.49	314.78
457.86	312.60
458.23	310.75
458.59	308.72
458.96	306.65
459.33	304.75
459.70	302.91
460.07	301.39
460.43	299.62
460.80	298.03
461.17	296.57
461.54	295.05
461.91	293.63
462.27	292.22
462.64	290.93
463.01	289.53
463.38	288.25
463.74	286.87
464.11	285.67
464.48	284.65
464.85	283.51
465.21	282.60
465.58	281.68
465.95	280.56
466.32	279.66
466.68	278.77
467.05	277.85
467.42	276.91
467.78	275.98
468.15	275.14
468.52	274.46
468.88	273.62
469.25	272.82
469.62	272.18
469.98	271.46
470.35	270.85
470.72	270.25
471.08	269.61
471.45	269.06
471.82	268.49
472.18	267.88
472.55	267.42
472.92	266.93
473.28	266.47
473.65	265.99
474.02	265.50
474.38	265.12
474.75	264.82
475.11	264.50
475.48	264.23
475.85	263.99
476.21	263.75
476.58	263.57
476.94	263.39
477.31	263.22
477.67	263.08
478.04	262.95
478.41	262.90
478.77	262.93
479.14	262.86
479.50	262.90
479.87	262.92
480.23	263.03
480.60	263.05
480.96	263.16
481.33	263.37
481.69	263.60
482.06	263.80
482.42	264.01
482.79	264.28
483.15	264.56
483.52	264.94
483.88	265.27
484.25	265.63
484.61	266.06
484.98	266.50
485.34	267.11
485.71	267.72
486.07	268.34
486.44	268.92
486.80	269.64
487.17	270.39
487.53	271.25
487.90	272.09
488.26	273.05
488.62	274.04
488.99	275.01
489.35	276.02
489.72	277.13
490.08	278.28
490.44	279.52
490.81	280.90
491.17	282.25
491.54	283.72
491.90	285.27
492.26	286.94
492.63	288.69
492.99	290.42
493.36	292.29
493.72	294.33
494.08	296.43
494.45	298.66
494.81	301.03
495.17	303.48
495.54	306.06
495.90	308.72
496.26	311.52
496.63	314.48
496.99	317.61
497.35	320.91
497.72	324.32
498.08	327.86
498.44	331.55
498.80	335.46
499.17	339.49
499.53	343.70
499.89	348.05
500.26	352.51
500.62	357.22
500.98	362.16
501.34	367.26
501.71	372.58
502.07	378.03
502.43	383.66
502.79	389.49
503.16	395.60
503.52	401.89
503.88	408.31
504.24	414.96
504.60	421.89
504.97	428.97
505.33	436.35
505.69	444.09
506.05	451.87
506.41	459.74
506.78	467.96
507.14	476.37
507.50	485.08
507.86	494.09
508.22	503.32
508.59	512.60
508.95	522.16
509.31	532.00
509.67	542.09
510.03	552.33
510.39	562.85
510.75	573.64
511.12	584.56
511.48	595.91
511.84	607.34
512.20	618.83
512.56	630.85
512.92	643.02
513.28	655.29
513.64	667.74
514.00	680.42
514.37	693.27
514.73	706.41
515.09	719.50
515.45	732.80
515.81	746.35
516.17	760.30
516.53	774.44
516.89	788.62
517.25	802.83
517.61	817.30
517.97	831.80
518.33	846.23
518.69	861.03
519.05	875.97
519.41	891.19
519.77	906.78
520.13	922.22
520.49	937.57
520.85	953.03
521.21	968.77
521.57	985.11
521.93	1000.94
522.29	1017.28
522.65	1033.54
523.01	1049.81
523.37	1065.86
523.73	1082.02
524.09	1098.12
524.45	1114.42
524.81	1131.05
525.17	1147.88
525.53	1164.73
525.89	1181.66
526.25	1198.49
526.61	1214.86
526.97	1231.60
527.33	1248.00
527.68	1264.59
528.04	1281.13
528.40	1297.72
528.76	1314.77
529.12	1331.35
529.48	1348.28
529.84	1364.32
530.20	1380.95
530.56	1398.05
530.91	1415.49
531.27	1432.26
531.63	1448.77
531.99	1465.37
532.35	1481.27
532.71	1497.06
533.07	1513.31
533.42	1529.13
533.78	1545.20
534.14	1561.62
534.50	1577.03
534.86	1592.97
535.21	1608.16
535.57	1624.12
535.93	1639.68
536.29	1654.52
536.65	1669.62
537.00	1684.35
537.36	1699.75
537.72	1714.21
538.08	1728.51
538.44	1742.22
538.79	1756.04
539.15	1769.77
539.51	1783.56
539.87	1798.02
540.22	1811.83
540.58	1825.63
540.94	1838.96
541.29	1852.04
541.65	1864.61
542.01	1877.93
542.37	1890.29
542.72	1902.67
543.08	1914.44
543.44	1926.90
543.79	1938.06
544.15	1949.04
544.51	1960.64
544.87	1971.57
545.22	1982.40
545.58	1992.58
545.94	2002.40
546.29	2012.39
546.65	2022.20
547.01	2031.61
547.36	2040.34
547.72	2048.84
548.07	2056.75
548.43	2064.95
548.79	2072.97
549.14	2080.41
549.50	2087.57
549.86	2095.30
550.21	2102.58
550.57	2109.79
550.92	2116.27
551.28	2123.34
551.64	2130.36
551.99	2136.95
552.35	2143.18
552.70	2149.36
553.06	2155.54
553.41	2162.02
553.77	2168.19
554.13	2174.24
554.48	2180.18
554.84	2185.62
555.19	2190.92
555.55	2196.06
555.90	2200.54
556.26	2205.26
556.61	2210.09
556.97	2214.45
557.32	2218.54
557.68	2222.85
558.03	2227.11
558.39	2230.85
558.74	2235.64
559.10	2239.54
559.45	2243.21
559.81	2247.41
560.16	2251.16
560.52	2254.28
560.87	2257.55
561.23	2260.11
561.58	2263.22
561.94	2265.66
562.29	2268.10
562.64	2270.80
563.00	2273.35
563.35	2276.93
563.71	2279.99
564.06	2283.26
564.42	2286.14
564.77	2288.60
565.12	2290.81
565.48	2292.67
565.83	2294.40
566.19	2295.58
566.54	2296.50
566.89	2297.67
567.25	2298.21
567.60	2299.67
567.96	2301.37
568.31	2302.23
568.66	2303.34
569.02	2303.72
569.37	2304.08
569.72	2304.85
570.08	2304.87
570.43	2304.94
570.78	2304.30
571.14	2302.72
571.49	2301.30
571.84	2300.90
572.20	2299.78
572.55	2298.78
572.90	2297.29
573.26	2296.05
573.61	2294.39
573.96	2292.53
574.31	2289.32
574.67	2286.25
575.02	2282.57
575.37	2279.12
575.72	2275.38
576.08	2271.91
576.43	2268.60
576.78	2264.86
577.13	2261.70
577.49	2258.61
577.84	2255.07
578.19	2251.27
578.54	2247.63
578.90	2243.42
579.25	2237.84
579.60	2232.83
579.95	2227.77
580.30	2222.72
580.66	2217.42
581.01	2212.51
581.36	2207.63
581.71	2203.41
582.06	2198.86
582.42	2194.35
582.77	2189.02
583.12	2184.30
583.47	2179.61
583.82	2174.40
584.17	2169.15
584.53	2163.57
584.88	2157.92
585.23	2152.08
585.58	2146.61
585.93	2141.18
586.28	2136.36
586.63	2131.21
586.98	2126.02
587.34	2121.23
587.69	2116.27
588.04	2110.89
588.39	2105.06
588.74	2098.48
589.09	2092.35
589.44	2085.57
589.79	2079.58
590.14	2074.07
590.49	2067.48
590.84	2061.11
591.19	2055.08
591.54	2048.57
591.89	2041.26
592.25	2034.47
592.60	2027.19
592.95	2019.52
593.30	2012.18
593.65	2004.63
594.00	1997.52
594.35	1990.30
594.70	1982.26
595.05	1975.01
595.40	1967.80
595.75	1960.29
596.10	1954.05
596.45	1947.35
596.80	1941.32
597.15	1934.54
597.50	1927.29
597.85	1920.91
598.19	1914.20
598.54	1907.12
598.89	1900.49
599.24	1894.46
599.59	1887.79
599.94	1881.63
600.29	1875.37
600.64	1868.81
600.99	1861.34
601.34	1854.56
601.69	1847.65
602.04	1840.70
602.39	1833.34
602.74	1826.48
603.08	1819.70
603.43	1812.99
603.78	1805.71
604.13	1798.41
604.48	1791.11
604.83	1784.25
605.18	1777.11
605.53	1769.09
605.87	1761.12
606.22	1753.96
606.57	1746.07
606.92	1738.69
607.27	1731.39
607.62	1724.39
607.96	1716.98
608.31	1710.24
608.66	1702.52
609.01	1694.88
609.36	1687.20
609.70	1679.12
610.05	1671.06
610.40	1663.30
610.75	1655.00
611.10	1647.32
611.44	1639.00
611.79	1630.95
612.14	1622.23
612.49	1613.31
612.83	1604.96
613.18	1596.84
613.53	1588.74
613.88	1580.17
614.22	1571.95
614.57	1563.46
614.92	1555.34
615.27	1547.76
615.61	1539.41
615.96	1531.51
616.31	1523.97
616.65	1516.64
617.00	1509.17
617.35	1501.58
617.70	1493.29
618.04	1484.74
618.39	1476.55
618.74	1468.78
619.08	1460.60
619.43	1453.12
619.78	1446.10
620.12	1438.81
620.47	1431.21
620.82	1423.02
621.16	1415.71
621.51	1408.12
621.85	1400.49
622.20	1392.01
622.55	1383.68
622.89	1375.83
623.24	1368.17
623.59	1360.82
623.93	1353.30
624.28	1345.99
624.62	1338.33
624.97	1331.29
625.32	1324.52
625.66	1317.38
626.01	1310.18
626.35	1302.75
626.70	1294.96
627.04	1287.19
627.39	1279.44
627.73	1272.13
628.08	1265.22
628.43	1257.77
628.77	1250.33
629.12	1242.77
629.46	1235.63
629.81	1228.23
630.15	1220.95
630.50	1213.61
630.84	1205.32
631.19	1197.47
631.53	1189.96
631.88	1182.58
632.22	1174.83
632.57	1167.56
632.91	1160.09
633.26	1152.72
633.60	1145.35
633.95	1138.27
634.29	1131.22
634.64	1124.52
634.98	1117.15
635.32	1109.98
635.67	1103.49
636.01	1096.90
636.36	1090.10
636.70	1083.57
637.05	1077.07
637.39	1070.61
637.73	1064.05
638.08	1058.12
638.42	1052.05
638.77	1045.63
639.11	1038.94
639.45	1032.59
639.80	1025.95
640.14	1019.46
640.49	1012.97
640.83	1006.67
641.17	1000.35
641.52	994.03
641.86	987.64
642.20	981.77
642.55	975.54
642.89	969.03
643.23	962.39
643.58	956.61
643.92	950.44
644.26	944.28
644.61	938.40
644.95	932.33
645.29	925.74
645.64	919.05
645.98	912.69
646.32	906.81
646.66	900.76
647.01	894.91
647.35	889.20
647.69	883.33
648.04	877.79
648.38	872.05
648.72	865.98
649.06	859.88
649.41	853.98
649.75	847.91
650.09	841.89
650.43	836.18
650.78	830.02
651.12	824.03
651.46	818.30
651.80	812.49
652.14	807.12
652.49	801.74
652.83	796.58
653.17	790.89
653.51	785.14
653.85	779.74
654.20	774.13
654.54	768.14
654.88	762.48
655.22	756.58
655.56	750.92
655.90	745.56
656.25	740.39
656.59	735.07
656.93	730.02
657.27	724.83
657.61	719.38
657.95	714.25
658.29	709.21
658.64	703.99
658.98	698.73
659.32	693.25
659.66	688.07
660.00	682.73
660.34	677.82
660.68	672.92
661.02	667.90
661.36	663.21
661.70	658.77
662.05	654.41
662.39	650.05
662.73	645.58
663.07	641.21
663.41	636.75
663.75	632.17
664.09	627.61
664.43	623.26
664.77	619.11
665.11	614.84
665.45	610.75
665.79	606.63
666.13	602.46
666.47	598.37
666.81	594.25
667.15	590.16
667.49	586.26
667.83	582.51
668.17	578.55
668.51	574.41
668.85	570.37
669.19	566.43
669.53	562.61
669.87	558.67
670.21	554.95
670.55	551.27
670.89	547.87
671.23	544.45
671.57	540.91
671.91	537.38
672.25	533.87
672.58	530.34
672.92	526.95
673.26	523.81
673.60	520.68
673.94	517.54
674.28	514.64
674.62	511.66
674.96	508.48
675.30	505.58
675.64	502.72
675.97	499.96
676.31	497.14
676.65	494.18
676.99	491.56
677.33	488.69
677.67	485.88
678.01	482.84
678.34	479.81
678.68	476.95
679.02	474.16
679.36	471.43
679.70	468.71
680.04	465.92
680.37	463.02
680.71	460.26
681.05	457.66
681.39	454.89
681.73	452.25
682.06	449.75
682.40	447.21
682.74	444.65
683.08	442.14
683.42	439.58
683.75	437.12
684.09	434.57
684.43	432.08
684.77	429.65
685.10	427.34
685.44	425.08
685.78	422.85
686.12	420.59
686.45	418.36
686.79	416.11
687.13	413.99
687.46	411.81
687.80	409.66
688.14	407.45
688.48	405.43
688.81	403.19
689.15	401.08
689.49	398.94
689.82	396.85
690.16	394.73
690.50	392.79
690.83	390.82
691.17	388.87
691.51	386.98
691.84	385.16
692.18	383.22
692.52	381.22
692.85	379.32
693.19	377.46
693.52	375.61
693.86	373.83
694.20	372.02
694.53	370.24
694.87	368.37
695.21	366.56
695.54	364.75
695.88	363.01
696.21	361.31
696.55	359.64
696.88	357.99
697.22	356.32
697.56	354.71
697.89	353.06
698.23	351.41
698.56	349.82
698.90	348.18
699.23	346.55
699.57	345.05
699.90	343.47
700.24	341.94
700.58	340.39
700.91	338.85
701.25	337.42
701.58	336.07
701.92	334.70
702.25	333.35
702.59	331.96
702.92	330.65
703.26	329.34
703.59	328.04
703.93	326.89
704.26	325.67
704.60	324.33
704.93	323.08
705.26	321.84
705.60	320.66
705.93	319.53
706.27	318.47
706.60	317.39
706.94	316.33
707.27	315.14
707.61	314.03
707.94	312.97
708.27	311.85
708.61	310.72
708.94	309.74
709.28	308.72
709.61	307.75
709.94	306.83
710.28	305.81
710.61	304.83
710.95	303.72
711.28	302.77
711.61	301.81
711.95	300.86
712.28	299.90
712.61	298.91
712.95	297.98
713.28	297.10
713.61	296.23
713.95	295.30
714.28	294.44
714.61	293.61
714.95	292.78
715.28	291.93
715.61	291.07
715.95	290.16
716.28	289.30
716.61	288.48
716.95	287.65
717.28	286.85
717.61	286.11
717.94	285.41
718.28	284.58
718.61	283.86
718.94	283.16
719.27	282.51
719.61	281.87
719.94	281.20
720.27	280.48
720.60	279.79
720.94	279.17
721.27	278.63
721.60	278.05
721.93	277.45
722.27	276.92
722.60	276.39
722.93	275.85
723.26	275.34
723.59	274.80
723.93	274.23
724.26	273.70
724.59	273.10
724.92	272.53
725.25	272.04
725.59	271.56
725.92	271.06
726.25	270.56
726.58	270.10
726.91	269.60
727.24	269.13
727.57	268.67
727.91	268.15
728.24	267.65
728.57	267.16
728.90	266.72
729.23	266.23
729.56	265.80
729.89	265.33
730.22	264.86
730.55	264.35
730.89	263.90
731.22	263.47
731.55	263.05
731.88	262.63
732.21	262.26
732.54	261.80
732.87	261.38
733.20	261.03
733.53	260.59
733.86	260.23
734.19	259.79
734.52	259.43
734.85	259.12
735.18	258.72
735.51	258.39
735.84	258.03
736.17	257.68
736.50	257.30
736.83	257.09
737.16	256.74
737.49	256.43
737.82	256.08
738.15	255.75
738.48	255.46
738.81	255.13
739.14	254.78
739.47	254.47
739.80	254.19
740.13	253.86
740.46	253.54
740.79	253.21
741.12	252.93
741.45	252.60
741.78	252.29
742.11	252.03
742.44	251.71
742.77	251.39
743.10	251.09
743.43	250.78
743.75	250.40
744.08	250.25
744.41	250.01
744.74	249.76
745.07	249.50
745.40	249.26
745.73	249.02
746.06	248.76
746.39	248.48
746.71	248.20
747.04	247.93
747.37	247.68
747.70	247.43
748.03	247.18
748.36	246.97
748.68	246.72
749.01	246.43
749.34	246.21
749.67	245.97
750.00	245.77
750.33	245.59
750.65	245.38
750.98	245.05
751.31	244.84
751.64	244.61
751.97	244.42
752.29	244.15
752.62	243.90
752.95	243.64
753.28	243.44
753.60	243.23
753.93	243.01
754.26	242.81
754.59	242.57
754.91	242.39
755.24	242.19
755.57	241.97
755.90	241.80
756.22	241.59
756.55	241.41
756.88	241.23
757.20	240.98
757.53	240.77
757.86	240.60
758.19	240.43
758.51	240.25
758.84	240.03
759.17	239.86
759.49	239.70
759.82	239.61
760.15	239.46
760.47	239.34
760.80	239.19
761.13	239.07
761.45	238.94
761.78	238.77
762.11	238.61
762.43	238.48
762.76	238.33
763.08	238.21
763.41	238.07
763.74	237.91
764.06	237.79
764.39	237.63
764.71	237.49
765.04	237.33
765.37	237.19
765.69	237.06
766.02	236.98
766.34	236.85
766.67	236.68
767.00	236.59
767.32	236.48
767.65	236.40
767.97	236.28
768.30	236.14
768.62	236.06
768.95	235.93
769.27	235.82
769.60	235.73
769.92	235.59
770.25	235.49
770.57	235.38
770.90	235.26
771.22	235.17
771.55	235.08
771.87	235.01
772.20	234.91
772.52	234.92
772.85	234.94
773.17	234.86
773.50	234.77
773.82	234.67
774.15	234.54
774.47	234.39
774.80	234.30
775.12	234.21
775.45	234.15
775.77	234.07
776.09	233.99
776.42	233.93
776.74	233.91
777.07	233.80
777.39	233.74
777.72	233.66
778.04	233.60
778.36	233.52
778.69	233.47
779.01	233.41
779.33	233.25
779.66	233.04
779.98	232.97
780.31	232.91
780.63	232.89
780.95	232.87
781.28	232.83
781.60	232.75
781.92	232.72
782.25	232.62
782.57	232.59
782.89	232.52
783.22	232.43
783.54	232.33
783.86	232.30
784.19	232.21
784.51	232.23
784.83	232.18
785.16	232.13
785.48	232.06
785.80	232.00
786.12	231.97
786.45	231.95
786.77	231.92
787.09	231.86
787.42	231.75
787.74	231.65
788.06	231.60
788.38	231.53
788.71	231.43
789.03	231.39
789.35	231.38
789.67	231.33
789.99	231.30
790.32	231.21
790.64	231.20
790.96	231.24
791.28	231.17
791.61	231.14
791.93	231.09
792.25	231.04
792.57	231.07
792.89	230.98
793.21	230.94
793.54	230.87
793.86	230.84
794.18	230.79
794.50	230.76
794.82	230.74
795.14	230.74
795.47	230.76
795.79	230.73
796.11	230.62
796.43	230.57
796.75	230.51
797.07	230.52
797.39	230.46
797.71	230.36
798.04	230.32
798.36	230.29
798.68	230.24
799.00	230.22
799.32	230.17
799.64	230.17
799.96	230.15
800.28	230.16
800.60	230.09
800.92	230.09
801.24	230.05
801.56	230.04
801.89	229.99
802.21	229.95
802.53	229.90
802.85	229.93
803.17	229.98
803.49	229.94
803.81	229.89
804.13	229.86
804.45	229.83
804.77	229.81
805.09	229.75
805.41	229.72
805.73	229.66
806.05	229.60
806.37	229.56
806.69	229.51
807.01	229.49
807.33	229.48
807.65	229.44
807.97	229.46
808.28	229.43
808.60	229.40
808.92	229.38
809.24	229.45
809.56	229.40
809.88	229.35
810.20	229.34
810.52	229.35
810.84	229.32
811.16	229.29
811.48	229.26
811.80	229.31
812.12	229.28
812.43	229.31
812.75	229.26
813.07	229.24
813.39	229.22
813.71	229.17
814.03	229.15
814.35	229.13
814.67	229.07
814.98	229.03
815.30	228.99
815.62	228.94
815.94	228.87
816.26	228.89
816.58	228.85
816.89	228.84
817.21	228.79
817.53	228.78
817.85	228.75
818.17	228.73
818.48	228.67
818.80	228.70
819.12	228.65
819.44	228.65
819.76	228.62
820.07	228.60
820.39	228.59
820.71	228.60
821.03	228.59
821.34	228.59
821.66	228.60
821.98	228.61
822.30	228.59
822.61	228.65
822.93	228.60
823.25	228.56
823.57	228.55
823.88	228.60
824.20	228.59
824.52	228.63
824.83	228.59
825.15	228.57
825.47	228.53
825.79	228.52
826.10	228.53
826.42	228.52
826.74	228.54
827.05	228.53
827.37	228.52
827.69	228.51
828.00	228.50
828.32	228.49
828.64	228.47
828.95	228.55
829.27	228.52
829.58	228.50
829.90	228.51
830.22	228.50
830.53	228.43
830.85	228.41
831.17	228.37
831.48	228.39
831.80	228.39
832.11	228.40
832.43	228.38
832.75	228.37
833.06	228.43
833.38	228.37
833.69	228.35
834.01	228.37
834.32	228.32
834.64	228.30
834.96	228.30
835.27	228.31
835.59	228.25
835.90	228.18
836.22	228.17
836.53	228.16
836.85	228.16
837.16	228.30
837.48	228.31
837.79	228.31
838.11	228.28
838.42	228.25
838.74	228.24
839.05	228.25
839.37	228.22
839.68	228.17
840.00	228.17
840.31	228.21
840.63	228.15
840.94	228.14
841.26	228.09
841.57	228.08
841.88	228.06
842.20	228.05
842.51	228.05
842.83	228.05
843.14	228.11
843.46	228.09
843.77	228.02
844.08	228.00
844.40	228.01
844.71	228.03
845.03	228.03
845.34	228.02
845.65	228.01
845.97	228.02
846.28	227.97
846.60	227.93
846.91	227.91
847.22	227.91
847.54	227.93
847.85	227.96
848.16	227.95
848.48	227.93
848.79	227.94
849.10	227.96
849.42	227.94
849.73	227.83
850.04	227.82
850.36	227.76
850.67	227.73
850.98	227.70
851.30	227.64
851.61	227.60
851.92	227.57
852.23	227.58
852.55	227.59
852.86	227.59
853.17	227.62
853.49	227.61
853.80	227.59
854.11	227.60
854.42	227.60
854.74	227.57
855.05	227.57
855.36	227.49
855.67	227.48
855.99	227.48
856.30	227.62
856.61	227.61
856.92	227.56
857.23	227.61
857.55	227.57
857.86	227.57
858.17	227.59
858.48	227.59
858.79	227.55
859.11	227.55
859.42	227.57
859.73	227.54
860.04	227.55
860.35	227.52
860.66	227.48
860.98	227.51
861.29	227.52
861.60	227.50
861.91	227.54
862.22	227.53
862.53	227.51
862.84	227.41
863.16	227.43
863.47	227.46
863.78	227.43
864.09	227.45
864.40	227.47
864.71	227.48
865.02	227.48
865.33	227.49
865.64	227.44
865.95	227.44
866.27	227.52
866.58	227.51
866.89	227.54
867.20	227.55
867.51	227.52
867.82	227.51
868.13	227.59
868.44	227.56
868.75	227.60
869.06	227.60
869.37	227.61
869.68	227.60
869.99	227.61
870.30	227.61
870.61	227.62
870.92	227.62
871.23	227.61
871.54	227.63
871.85	227.67
872.16	227.71
872.47	227.69
872.78	227.63
873.09	227.61
873.40	227.62
873.71	227.63
874.02	227.63
874.33	227.64
874.64	227.61
874.95	227.62
875.26	227.56
875.56	227.58
875.87	227.59
876.18	227.58
876.49	227.68
876.80	227.68
877.11	227.67
877.42	227.68
877.73	227.73
878.04	227.71
878.35	227.69
878.66	227.70
878.96	227.69
879.27	227.71
879.58	227.71
879.89	227.70
880.20	227.73
880.51	227.73
880.82	227.74
881.12	227.72
881.43	227.72
881.74	227.72
882.05	227.72
882.36	227.72
882.67	227.72
882.97	227.61
883.28	227.64
883.59	227.64
883.90	227.65
884.21	227.62
884.51	227.64
884.82	227.63
885.13	227.57
885.44	227.58
885.74	227.51
886.05	227.52
886.36	227.51
886.67	227.45
886.98	227.50
887.28	227.47
887.59	227.49
887.90	227.48
888.20	227.48
888.51	227.50
888.82	227.44
889.13	227.44
889.43	227.52
889.74	227.49
890.05	227.47
890.35	227.45
890.66	227.41
890.97	227.36
891.28	227.35
891.58	227.39
891.89	227.39
892.20	227.39
892.50	227.38
892.81	227.35
893.12	227.33
893.42	227.28
893.73	227.28
894.04	227.25
894.34	227.22
894.65	227.20
894.95	227.15
895.26	227.13
895.57	227.18
895.87	227.09
896.18	227.07
896.48	227.05
896.79	227.04
897.10	227.05
897.40	227.05
897.71	227.06
898.01	227.02
898.32	227.02
898.63	227.03
898.93	227.08
899.24	227.08
899.54	227.10
899.85	227.11
900.15	227.11
900.46	227.13
900.76	227.18
901.07	227.20
901.38	227.21
901.68	227.24
901.99	227.19
902.29	227.19
902.60	227.19
902.90	227.22
903.21	227.22
903.51	227.21
903.82	227.24
904.12	227.24
904.43	227.28
904.73	227.27
905.03	227.27
905.34	227.35
905.64	227.36
905.95	227.36
906.25	227.35
906.56	227.36
906.86	227.32
907.17	227.33
907.47	227.32
907.77	227.31
908.08	227.28
908.38	227.29
908.69	227.28
908.99	227.32
909.30	227.32
909.60	227.31
909.90	227.33
910.21	227.31
910.51	227.30
910.81	227.33
911.12	227.37
911.42	227.38
911.73	227.28
912.03	227.29
912.33	227.34
912.64	227.33
912.94	227.34
913.24	227.32
913.55	227.31
913.85	227.28
914.15	227.33
914.46	227.35
914.76	227.34
915.06	227.37
915.37	227.34
915.67	227.35
915.97	227.36
916.27	227.35
916.58	227.35
916.88	227.35
917.18	227.30
917.49	227.32
917.79	227.30
918.09	227.29
918.39	227.31
918.70	227.28
919.00	227.27
919.30	227.33
919.60	227.34
919.91	227.34
920.21	227.37
920.51	227.31
920.81	227.31
921.12	227.32
921.42	227.28
921.72	227.26
922.02	227.26
922.32	227.30
922.63	227.29
922.93	227.33
923.23	227.32
923.53	227.32
923.83	227.26
924.13	227.25
924.44	227.25
924.74	227.27
925.04	227.30
925.34	227.29
925.64	227.19
925.94	227.21
926.24	227.26
926.55	227.26
926.85	227.29
927.15	227.29
927.45	227.27
927.75	227.29
928.05	227.31
928.35	227.27
928.65	227.24
928.95	227.26
929.26	227.19
929.56	227.18
929.86	227.19
930.16	227.19
930.46	227.19
930.76	227.17
931.06	227.14
931.36	227.10
931.66	227.12
931.96	227.15
932.26	227.16
932.56	227.07
932.86	227.06
933.16	227.07
933.46	227.03
933.76	227.01
934.06	227.02
934.36	227.02
934.66	227.05
934.96	227.04
935.26	227.03
935.56	227.05
935.86	227.05
936.16	227.02
936.46	227.01
936.76	226.98
937.06	227.00
937.36	226.98
937.66	227.00
937.96	226.98
938.26	226.97
938.56	226.91
938.86	226.93
939.16	226.95
939.46	226.91
939.76	226.93
940.06	226.96
940.35	226.93
940.65	226.88
940.95	226.88
941.25	226.87
941.55	226.84
941.85	226.82
942.15	226.84
942.45	226.84
942.75	226.84
943.04	226.88
943.34	226.87
943.64	226.84
943.94	226.80
944.24	226.79
944.54	226.80
944.84	226.81
945.13	226.80
945.43	226.77
945.73	226.75
946.03	226.76
946.33	226.71
946.62	226.72
946.92	226.73
947.22	226.71
947.52	226.71
947.82	226.74
948.11	226.73
948.41	226.75
948.71	226.75
949.01	226.77
949.31	226.75
949.60	226.79
949.90	226.81
950.20	226.83
950.50	226.83
950.79	226.85
951.09	226.87
951.39	226.88
951.69	226.89
951.98	226.94
952.28	226.92
952.58	226.95
952.87	226.91
953.17	226.95
953.47	226.93
953.76	226.93
954.06	226.93
954.36	226.94
954.66	226.93
954.95	226.95
955.25	226.94
955.55	226.93
955.84	226.89
956.14	226.88
956.44	226.88
956.73	226.88
957.03	226.87
957.32	226.88
957.62	226.88
957.92	226.91
958.21	226.88
958.51	226.99
958.81	227.00
959.10	227.03
959.40	227.01
959.69	227.04
959.99	227.04
960.29	227.03
960.58	227.05
960.88	227.03
961.17	227.01
961.47	227.03
961.76	227.06
962.06	227.06
962.36	227.06
962.65	227.06
962.95	227.08
963.24	227.04
963.54	227.02
963.83	227.01
964.13	226.98
964.42	226.97
964.72	226.92
965.01	226.90
965.31	226.90
965.60	226.89
965.90	226.94
966.19	226.94
966.49	226.94
966.78	226.92
967.08	226.93
967.37	226.93
967.67	226.89
967.96	226.89
968.26	226.91
968.55	226.91
968.85	226.89
969.14	226.86
969.43	226.88
969.73	226.87
970.02	226.87
970.32	226.86
970.61	226.86
970.91	226.82
971.20	226.83
971.49	226.83
971.79	226.86
972.08	226.81
972.38	226.83
972.67	226.81
972.96	226.83
973.26	226.84
973.55	226.88
973.85	226.87
974.14	226.86
974.43	226.83
974.73	226.85
975.02	226.85
975.31	226.84
975.61	226.85
975.90	226.86
976.19	226.83
976.49	226.85
976.78	226.83
977.07	226.83
977.37	226.82
977.66	226.82
977.95	226.80
978.24	226.77
978.54	226.80
978.83	226.82
979.12	226.81
979.42	226.77
979.71	226.75
980.00	226.77
980.29	226.77
980.59	226.75
980.88	226.78
981.17	226.77
981.46	226.77
981.76	226.80
982.05	226.80
982.34	226.83
982.63	226.84
982.93	226.85
983.22	226.84
983.51	226.84
983.80	226.86
984.09	226.86
984.39	226.88
984.68	226.81
984.97	226.78
985.26	226.79
985.55	226.82
985.85	226.80
986.14	226.80
986.43	226.82
986.72	226.83
987.01	226.77
987.30	226.80
987.59	226.79
987.89	226.76
988.18	226.76
988.47	226.76
988.76	226.73
989.05	226.73
989.34	226.75
989.63	226.76
989.92	226.74
990.22	226.72
990.51	226.72
990.80	226.74
991.09	226.76
991.38	226.74
991.67	226.74
991.96	226.72
992.25	226.74
992.54	226.72
992.83	226.73
993.12	226.76
993.41	226.76
993.70	226.82
993.99	226.84
994.28	226.83
994.58	226.83
994.87	226.81
995.16	226.83
995.45	226.81
995.74	226.77
996.03	226.77
996.32	226.79
996.61	226.84
996.90	226.84
997.19	226.82
997.48	226.83
997.77	226.78
998.06	226.79
998.34	226.76
998.63	226.74
998.92	226.76
999.21	226.77
999.50	226.76
999.79	226.74
1000.08	226.70
1000.37	226.71
1000.66	226.69
1000.95	226.75
1001.24	226.74
1001.53	226.73
1001.82	226.77
1002.11	226.75
1002.40	226.78
1002.68	226.77
1002.97	226.85
1003.26	226.86
1003.55	226.84
1003.84	226.87
1004.13	226.91
1004.42	226.93
1004.71	226.95
1004.99	226.91
1005.28	226.96
1005.57	226.95
1005.86	226.90
1006.15	226.92
1006.44	226.91
1006.72	226.96
1007.01	226.91
1007.30	226.91
1007.59	226.95
1007.88	226.93
1008.17	226.93
1008.45	226.92
1008.74	226.91
1009.03	226.85
1009.32	226.85
1009.60	226.90
1009.89	226.90
1010.18	226.82
1010.47	226.79
1010.76	226.79
1011.04	226.81
1011.33	226.79
1011.62	226.81
1011.91	226.85
1012.19	226.87
1012.48	226.87
1012.77	226.87
1013.05	226.96
1013.34	226.99
1013.63	226.97
1013.92	227.00
1014.20	227.00
1014.49	226.99
1014.78	226.96
1015.06	226.95
1015.35	226.94
1015.64	226.93
1015.92	226.93
1016.21	227.02
1016.50	227.05
1016.78	227.06
1017.07	227.07
1017.36	227.04
1017.64	227.05
1017.93	227.05
1018.22	227.02
1018.50	227.01
1018.79	227.01
1019.08	226.96
1019.36	226.94
1019.65	226.95
1019.93	226.97
1020.22	226.99
1020.51	227.06
1020.79	227.07
1021.08	226.70
1021.36	226.36
1021.65	227.14
1021.94	227.11
1022.22	226.85
1022.51	227.57
1022.79	227.34
1023.08	227.20
1023.36	228.44
1023.65	226.73
>>>>>End Processed Spectral Data<<<<<
