SpectraSuite Data File
++++++++++++++++++++++++++++++++++++
Date: Fri Feb 01 15:18:05 EST 2013
User: group
Dark Spectrum Present: No
Reference Spectrum Present: No
Number of Sampled Component Spectra: 1
Spectrometers: USB2E7196
Integration Time (usec): 35000 (USB2E7196)
Spectra Averaged: 100 (USB2E7196)
Boxcar Smoothing: 10 (USB2E7196)
Correct for Electrical Dark: No (USB2E7196)
Strobe/Lamp Enabled: No (USB2E7196)
Correct for Detector Non-linearity: No (USB2E7196)
Correct for Stray Light: No (USB2E7196)
Number of Pixels in Processed Spectrum: 2048
>>>>>Begin Processed Spectral Data<<<<<
339.09	0.00
339.48	214.85
339.86	215.78
340.24	217.86
340.63	218.53
341.01	222.14
341.39	222.51
341.78	223.13
342.16	224.84
342.54	224.93
342.93	213.36
343.31	224.14
343.69	224.68
344.07	225.19
344.46	225.61
344.84	226.02
345.22	226.22
345.60	226.43
345.99	226.62
346.37	226.72
346.75	226.80
347.13	226.87
347.52	226.90
347.90	226.96
348.28	226.95
348.66	226.99
349.05	227.00
349.43	226.98
349.81	227.02
350.19	227.08
350.57	227.11
350.96	227.17
351.34	227.22
351.72	227.32
352.10	227.42
352.48	227.47
352.87	227.51
353.25	227.62
353.63	227.71
354.01	227.78
354.39	227.86
354.77	227.97
355.15	228.10
355.54	228.14
355.92	228.20
356.30	228.30
356.68	228.43
357.06	228.52
357.44	228.60
357.82	228.65
358.20	228.72
358.58	228.81
358.97	228.86
359.35	228.96
359.73	229.05
360.11	229.08
360.49	229.17
360.87	229.24
361.25	229.27
361.63	229.36
362.01	229.42
362.39	229.44
362.77	229.49
363.15	229.51
363.53	229.58
363.91	229.61
364.29	229.64
364.67	229.56
365.05	229.58
365.43	229.60
365.81	229.61
366.19	229.67
366.57	229.70
366.95	229.69
367.33	229.69
367.71	229.67
368.09	229.67
368.47	229.65
368.85	229.64
369.23	229.62
369.61	229.54
369.99	229.52
370.37	229.48
370.75	229.48
371.13	229.41
371.51	229.35
371.89	229.33
372.27	229.23
372.65	229.19
373.03	229.14
373.41	229.11
373.78	229.08
374.16	228.95
374.54	228.87
374.92	228.84
375.30	228.75
375.68	228.66
376.06	228.60
376.44	228.52
376.82	228.42
377.19	228.39
377.57	228.33
377.95	228.23
378.33	228.15
378.71	228.02
379.09	227.96
379.47	227.90
379.84	227.82
380.22	227.77
380.60	227.69
380.98	227.61
381.36	227.50
381.73	227.42
382.11	227.35
382.49	227.31
382.87	227.21
383.25	227.14
383.62	227.19
384.00	227.11
384.38	227.09
384.76	227.06
385.13	227.04
385.51	226.98
385.89	226.95
386.27	226.90
386.64	226.87
387.02	226.81
387.40	226.73
387.78	226.67
388.15	226.64
388.53	226.62
388.91	226.60
389.29	226.57
389.66	226.55
390.04	226.53
390.42	226.46
390.79	226.45
391.17	226.44
391.55	226.28
391.92	226.28
392.30	226.26
392.68	226.23
393.05	226.21
393.43	226.22
393.81	226.21
394.18	226.21
394.56	226.23
394.94	226.29
395.31	226.29
395.69	226.33
396.06	226.35
396.44	226.38
396.82	226.38
397.19	226.47
397.57	226.50
397.95	226.54
398.32	226.58
398.70	226.66
399.07	226.74
399.45	226.81
399.82	226.84
400.20	226.88
400.58	226.98
400.95	227.01
401.33	227.09
401.70	227.26
402.08	227.39
402.45	227.49
402.83	227.63
403.20	227.76
403.58	227.88
403.95	228.03
404.33	228.18
404.71	228.31
405.08	228.48
405.46	228.61
405.83	228.80
406.21	228.97
406.58	229.13
406.96	229.31
407.33	229.55
407.70	229.78
408.08	230.06
408.45	230.27
408.83	230.52
409.20	230.72
409.58	230.86
409.95	231.12
410.33	231.41
410.70	231.63
411.08	231.92
411.45	232.25
411.82	232.56
412.20	232.93
412.57	233.36
412.95	233.70
413.32	234.14
413.69	234.54
414.07	234.99
414.44	235.48
414.82	236.00
415.19	236.52
415.56	237.06
415.94	237.62
416.31	238.28
416.68	238.93
417.06	239.70
417.43	240.42
417.81	241.22
418.18	242.01
418.55	242.88
418.93	243.79
419.30	244.66
419.67	245.62
420.04	246.53
420.42	247.52
420.79	248.73
421.16	249.89
421.54	251.10
421.91	252.33
422.28	253.60
422.66	254.88
423.03	256.18
423.40	257.52
423.77	258.95
424.15	260.37
424.52	261.85
424.89	263.43
425.26	265.01
425.64	266.44
426.01	268.02
426.38	269.66
426.75	271.34
427.13	273.05
427.50	274.88
427.87	276.80
428.24	278.67
428.61	280.35
428.99	282.24
429.36	284.33
429.73	286.38
430.10	288.41
430.47	290.48
430.85	292.61
431.22	294.87
431.59	297.27
431.96	299.55
432.33	302.05
432.70	304.45
433.08	307.22
433.45	309.88
433.82	312.51
434.19	315.42
434.56	318.24
434.93	320.89
435.30	323.47
435.68	326.37
436.05	329.23
436.42	332.06
436.79	334.61
437.16	337.33
437.53	340.17
437.90	342.97
438.27	345.73
438.64	348.56
439.01	351.14
439.38	353.36
439.75	355.52
440.13	358.02
440.50	360.33
440.87	362.21
441.24	364.17
441.61	366.33
441.98	367.80
442.35	369.59
442.72	371.48
443.09	373.29
443.46	374.22
443.83	374.80
444.20	375.23
444.57	376.06
444.94	376.32
445.31	376.67
445.68	376.98
446.05	377.02
446.42	376.61
446.79	376.20
447.16	375.74
447.53	375.41
447.90	374.21
448.27	373.05
448.64	371.43
449.01	370.28
449.37	368.27
449.74	366.38
450.11	364.12
450.48	361.61
450.85	359.10
451.22	356.96
451.59	354.89
451.96	352.98
452.33	350.37
452.70	348.02
453.07	345.17
453.43	342.24
453.80	339.48
454.17	336.81
454.54	334.27
454.91	331.52
455.28	328.81
455.65	326.32
456.02	323.86
456.38	321.73
456.75	319.06
457.12	316.82
457.49	314.56
457.86	312.39
458.23	310.56
458.59	308.50
458.96	306.47
459.33	304.64
459.70	302.81
460.07	301.29
460.43	299.57
460.80	297.93
461.17	296.55
461.54	295.07
461.91	293.64
462.27	292.18
462.64	290.95
463.01	289.65
463.38	288.32
463.74	287.01
464.11	285.86
464.48	284.79
464.85	283.68
465.21	282.84
465.58	281.93
465.95	280.83
466.32	279.94
466.68	279.01
467.05	278.12
467.42	277.21
467.78	276.27
468.15	275.43
468.52	274.81
468.88	273.93
469.25	273.18
469.62	272.56
469.98	271.91
470.35	271.25
470.72	270.60
471.08	269.99
471.45	269.42
471.82	268.86
472.18	268.28
472.55	267.86
472.92	267.30
473.28	266.82
473.65	266.38
474.02	265.90
474.38	265.54
474.75	265.20
475.11	264.84
475.48	264.61
475.85	264.33
476.21	264.07
476.58	263.90
476.94	263.71
477.31	263.51
477.67	263.31
478.04	263.20
478.41	263.15
478.77	263.18
479.14	263.10
479.50	263.07
479.87	263.13
480.23	263.20
480.60	263.27
480.96	263.35
481.33	263.51
481.69	263.72
482.06	263.86
482.42	264.02
482.79	264.29
483.15	264.58
483.52	264.95
483.88	265.27
484.25	265.64
484.61	266.07
484.98	266.52
485.34	267.10
485.71	267.66
486.07	268.23
486.44	268.78
486.80	269.48
487.17	270.21
487.53	271.02
487.90	271.85
488.26	272.78
488.62	273.75
488.99	274.69
489.35	275.72
489.72	276.88
490.08	278.12
490.44	279.33
490.81	280.63
491.17	281.96
491.54	283.41
491.90	284.93
492.26	286.56
492.63	288.33
492.99	290.08
493.36	292.00
493.72	294.07
494.08	296.16
494.45	298.39
494.81	300.77
495.17	303.21
495.54	305.77
495.90	308.42
496.26	311.23
496.63	314.19
496.99	317.32
497.35	320.58
497.72	323.95
498.08	327.46
498.44	331.16
498.80	335.10
499.17	339.17
499.53	343.37
499.89	347.77
500.26	352.30
500.62	356.94
500.98	361.87
501.34	366.91
501.71	372.21
502.07	377.63
502.43	383.20
502.79	388.96
503.16	395.03
503.52	401.35
503.88	407.74
504.24	414.42
504.60	421.30
504.97	428.38
505.33	435.76
505.69	443.42
506.05	451.14
506.41	459.01
506.78	467.11
507.14	475.51
507.50	484.20
507.86	493.19
508.22	502.41
508.59	511.63
508.95	521.29
509.31	531.15
509.67	541.34
510.03	551.67
510.39	562.26
510.75	573.04
511.12	583.89
511.48	595.17
511.84	606.63
512.20	618.13
512.56	630.08
512.92	642.23
513.28	654.61
513.64	667.11
514.00	679.90
514.37	692.87
514.73	706.00
515.09	719.05
515.45	732.45
515.81	746.07
516.17	760.11
516.53	774.14
516.89	788.25
517.25	802.41
517.61	816.91
517.97	831.42
518.33	845.89
518.69	860.80
519.05	875.91
519.41	891.13
519.77	906.71
520.13	922.24
520.49	937.63
520.85	953.05
521.21	968.93
521.57	985.21
521.93	1001.12
522.29	1017.55
522.65	1033.89
523.01	1050.03
523.37	1066.19
523.73	1082.35
524.09	1098.51
524.45	1114.94
524.81	1131.61
525.17	1148.49
525.53	1165.50
525.89	1182.44
526.25	1199.20
526.61	1215.64
526.97	1232.40
527.33	1248.89
527.68	1265.63
528.04	1282.21
528.40	1298.95
528.76	1315.96
529.12	1332.55
529.48	1349.43
529.84	1365.49
530.20	1382.15
530.56	1399.17
530.91	1416.52
531.27	1433.42
531.63	1449.95
531.99	1466.58
532.35	1482.62
532.71	1498.47
533.07	1514.75
533.42	1530.69
533.78	1546.83
534.14	1563.06
534.50	1578.45
534.86	1594.43
535.21	1609.54
535.57	1625.61
535.93	1641.08
536.29	1655.95
536.65	1671.11
537.00	1686.03
537.36	1701.53
537.72	1716.11
538.08	1730.67
538.44	1744.64
538.79	1758.40
539.15	1772.19
539.51	1786.01
539.87	1800.44
540.22	1814.24
540.58	1828.06
540.94	1841.47
541.29	1854.51
541.65	1867.43
542.01	1880.73
542.37	1893.08
542.72	1905.48
543.08	1917.35
543.44	1929.77
543.79	1941.05
544.15	1952.04
544.51	1963.43
544.87	1974.34
545.22	1985.13
545.58	1995.27
545.94	2004.92
546.29	2015.04
546.65	2024.85
547.01	2034.16
547.36	2042.90
547.72	2051.41
548.07	2059.24
548.43	2067.49
548.79	2075.53
549.14	2083.08
549.50	2090.48
549.86	2098.39
550.21	2105.76
550.57	2112.86
550.92	2119.58
551.28	2126.73
551.64	2133.88
551.99	2140.54
552.35	2146.67
552.70	2152.71
553.06	2158.73
553.41	2165.06
553.77	2171.07
554.13	2177.28
554.48	2183.45
554.84	2188.70
555.19	2194.13
555.55	2199.27
555.90	2203.66
556.26	2208.44
556.61	2213.08
556.97	2217.21
557.32	2221.23
557.68	2225.37
558.03	2229.69
558.39	2233.43
558.74	2238.03
559.10	2241.80
559.45	2245.47
559.81	2249.96
560.16	2253.87
560.52	2257.19
560.87	2260.80
561.23	2263.38
561.58	2266.34
561.94	2268.79
562.29	2271.32
562.64	2273.92
563.00	2276.79
563.35	2280.44
563.71	2283.57
564.06	2286.85
564.42	2289.76
564.77	2292.22
565.12	2294.56
565.48	2296.31
565.83	2297.98
566.19	2299.21
566.54	2300.37
566.89	2301.45
567.25	2301.85
567.60	2303.20
567.96	2304.72
568.31	2305.46
568.66	2306.52
569.02	2307.01
569.37	2307.34
569.72	2308.10
570.08	2308.17
570.43	2307.92
570.78	2307.03
571.14	2305.34
571.49	2304.00
571.84	2303.67
572.20	2302.44
572.55	2301.34
572.90	2299.68
573.26	2298.31
573.61	2296.57
573.96	2294.47
574.31	2291.37
574.67	2288.11
575.02	2284.36
575.37	2281.00
575.72	2276.97
576.08	2273.53
576.43	2270.10
576.78	2266.16
577.13	2263.01
577.49	2259.74
577.84	2256.13
578.19	2252.48
578.54	2248.78
578.90	2244.36
579.25	2238.75
579.60	2233.58
579.95	2228.53
580.30	2223.46
580.66	2218.10
581.01	2212.96
581.36	2207.94
581.71	2203.75
582.06	2199.28
582.42	2194.84
582.77	2189.48
583.12	2184.89
583.47	2180.00
583.82	2174.72
584.17	2169.41
584.53	2163.66
584.88	2157.90
585.23	2151.88
585.58	2146.30
585.93	2140.75
586.28	2135.92
586.63	2130.66
586.98	2125.61
587.34	2120.68
587.69	2115.87
588.04	2110.54
588.39	2104.84
588.74	2098.34
589.09	2092.01
589.44	2085.15
589.79	2078.99
590.14	2073.29
590.49	2066.79
590.84	2060.45
591.19	2054.44
591.54	2047.97
591.89	2040.57
592.25	2033.67
592.60	2026.62
592.95	2018.92
593.30	2011.60
593.65	2003.86
594.00	1996.85
594.35	1989.55
594.70	1981.59
595.05	1974.11
595.40	1966.66
595.75	1959.04
596.10	1952.70
596.45	1945.94
596.80	1939.75
597.15	1932.97
597.50	1925.80
597.85	1919.28
598.19	1912.47
598.54	1905.41
598.89	1898.76
599.24	1892.90
599.59	1886.23
599.94	1879.85
600.29	1873.50
600.64	1866.88
600.99	1859.44
601.34	1852.42
601.69	1845.27
602.04	1838.18
602.39	1830.82
602.74	1824.08
603.08	1817.36
603.43	1810.55
603.78	1803.26
604.13	1795.98
604.48	1788.60
604.83	1781.74
605.18	1774.66
605.53	1766.60
605.87	1758.56
606.22	1751.34
606.57	1743.28
606.92	1735.98
607.27	1728.85
607.62	1721.82
607.96	1714.48
608.31	1707.69
608.66	1700.02
609.01	1692.56
609.36	1685.03
609.70	1676.97
610.05	1668.81
610.40	1661.08
610.75	1652.76
611.10	1644.94
611.44	1636.56
611.79	1628.63
612.14	1619.92
612.49	1610.71
612.83	1602.37
613.18	1594.20
613.53	1585.98
613.88	1577.53
614.22	1569.21
614.57	1560.66
614.92	1552.68
615.27	1545.07
615.61	1536.82
615.96	1528.91
616.31	1521.29
616.65	1514.02
617.00	1506.59
617.35	1498.97
617.70	1490.50
618.04	1482.04
618.39	1473.94
618.74	1466.37
619.08	1458.19
619.43	1450.65
619.78	1443.79
620.12	1436.70
620.47	1429.15
620.82	1421.05
621.16	1413.66
621.51	1406.12
621.85	1398.52
622.20	1389.89
622.55	1381.62
622.89	1373.76
623.24	1366.14
623.59	1358.72
623.93	1351.15
624.28	1343.78
624.62	1336.23
624.97	1329.24
625.32	1322.56
625.66	1315.49
626.01	1308.13
626.35	1300.53
626.70	1292.66
627.04	1284.83
627.39	1277.00
627.73	1269.61
628.08	1262.64
628.43	1255.20
628.77	1247.69
629.12	1240.02
629.46	1232.93
629.81	1225.46
630.15	1218.40
630.50	1211.05
630.84	1202.83
631.19	1194.93
631.53	1187.53
631.88	1180.12
632.22	1172.50
632.57	1165.16
632.91	1157.73
633.26	1150.42
633.60	1143.12
633.95	1136.16
634.29	1129.36
634.64	1122.77
634.98	1115.46
635.32	1108.36
635.67	1101.82
636.01	1095.30
636.36	1088.55
636.70	1082.07
637.05	1075.49
637.39	1068.89
637.73	1062.42
638.08	1056.65
638.42	1050.61
638.77	1044.09
639.11	1037.37
639.45	1030.95
639.80	1024.23
640.14	1017.71
640.49	1011.22
640.83	1004.93
641.17	998.74
641.52	992.34
641.86	985.95
642.20	980.13
642.55	973.87
642.89	967.47
643.23	961.09
643.58	955.32
643.92	949.08
644.26	943.09
644.61	937.11
644.95	931.02
645.29	924.44
645.64	917.65
645.98	911.34
646.32	905.64
646.66	899.67
647.01	893.94
647.35	888.29
647.69	882.52
648.04	877.06
648.38	871.22
648.72	865.13
649.06	859.00
649.41	853.12
649.75	847.07
650.09	841.11
650.43	835.20
650.78	829.01
651.12	823.08
651.46	817.35
651.80	811.55
652.14	806.16
652.49	800.73
652.83	795.61
653.17	789.96
653.51	784.25
653.85	778.80
654.20	773.02
654.54	767.02
654.88	761.25
655.22	755.33
655.56	749.64
655.90	744.24
656.25	738.90
656.59	733.47
656.93	728.45
657.27	723.24
657.61	717.82
657.95	712.73
658.29	707.69
658.64	702.44
658.98	697.28
659.32	691.81
659.66	686.60
660.00	681.29
660.34	676.42
660.68	671.50
661.02	666.46
661.36	661.84
661.70	657.37
662.05	653.00
662.39	648.73
662.73	644.27
663.07	639.88
663.41	635.50
663.75	631.03
664.09	626.47
664.43	622.15
664.77	618.03
665.11	613.79
665.45	609.67
665.79	605.53
666.13	601.34
666.47	597.29
666.81	593.16
667.15	589.09
667.49	585.09
667.83	581.31
668.17	577.42
668.51	573.41
668.85	569.39
669.19	565.63
669.53	561.78
669.87	557.85
670.21	554.19
670.55	550.60
670.89	547.17
671.23	543.72
671.57	540.21
671.91	536.69
672.25	533.21
672.58	529.74
672.92	526.45
673.26	523.27
673.60	520.13
673.94	516.98
674.28	514.04
674.62	511.15
674.96	508.04
675.30	505.06
675.64	502.16
675.97	499.42
676.31	496.53
676.65	493.61
676.99	490.95
677.33	488.09
677.67	485.27
678.01	482.30
678.34	479.37
678.68	476.48
679.02	473.66
679.36	470.93
679.70	468.17
680.04	465.33
680.37	462.45
680.71	459.66
681.05	457.06
681.39	454.37
681.73	451.79
682.06	449.26
682.40	446.79
682.74	444.27
683.08	441.74
683.42	439.11
683.75	436.59
684.09	434.10
684.43	431.64
684.77	429.15
685.10	426.83
685.44	424.52
685.78	422.23
686.12	420.02
686.45	417.73
686.79	415.42
687.13	413.26
687.46	411.13
687.80	408.98
688.14	406.82
688.48	404.77
688.81	402.47
689.15	400.35
689.49	398.25
689.82	396.16
690.16	394.02
690.50	392.05
690.83	390.11
691.17	388.13
691.51	386.24
691.84	384.41
692.18	382.44
692.52	380.47
692.85	378.58
693.19	376.69
693.52	374.89
693.86	373.12
694.20	371.40
694.53	369.60
694.87	367.77
695.21	365.98
695.54	364.16
695.88	362.44
696.21	360.69
696.55	358.98
696.88	357.30
697.22	355.70
697.56	354.08
697.89	352.45
698.23	350.84
698.56	349.21
698.90	347.65
699.23	346.00
699.57	344.45
699.90	342.92
700.24	341.39
700.58	339.83
700.91	338.33
701.25	336.84
701.58	335.49
701.92	334.13
702.25	332.76
702.59	331.43
702.92	330.14
703.26	328.83
703.59	327.52
703.93	326.38
704.26	325.11
704.60	323.84
704.93	322.57
705.26	321.31
705.60	320.14
705.93	318.97
706.27	317.94
706.60	316.87
706.94	315.75
707.27	314.59
707.61	313.55
707.94	312.54
708.27	311.47
708.61	310.39
708.94	309.39
709.28	308.43
709.61	307.47
709.94	306.55
710.28	305.57
710.61	304.64
710.95	303.55
711.28	302.63
711.61	301.67
711.95	300.78
712.28	299.81
712.61	298.86
712.95	297.95
713.28	297.08
713.61	296.23
713.95	295.37
714.28	294.57
714.61	293.72
714.95	292.90
715.28	292.05
715.61	291.17
715.95	290.35
716.28	289.45
716.61	288.62
716.95	287.80
717.28	287.07
717.61	286.28
717.94	285.54
718.28	284.77
718.61	284.07
718.94	283.37
719.27	282.76
719.61	282.10
719.94	281.43
720.27	280.74
720.60	280.08
720.94	279.44
721.27	278.82
721.60	278.27
721.93	277.65
722.27	277.06
722.60	276.50
722.93	275.90
723.26	275.39
723.59	274.80
723.93	274.25
724.26	273.66
724.59	273.11
724.92	272.61
725.25	272.13
725.59	271.61
725.92	271.11
726.25	270.54
726.58	270.05
726.91	269.57
727.24	269.09
727.57	268.61
727.91	268.11
728.24	267.66
728.57	267.13
728.90	266.72
729.23	266.26
729.56	265.85
729.89	265.38
730.22	264.89
730.55	264.45
730.89	264.01
731.22	263.59
731.55	263.16
731.88	262.72
732.21	262.25
732.54	261.81
732.87	261.36
733.20	261.03
733.53	260.65
733.86	260.26
734.19	259.86
734.52	259.47
734.85	259.15
735.18	258.72
735.51	258.35
735.84	257.94
736.17	257.57
736.50	257.17
736.83	256.96
737.16	256.61
737.49	256.29
737.82	255.92
738.15	255.57
738.48	255.21
738.81	254.87
739.14	254.57
739.47	254.29
739.80	254.01
740.13	253.70
740.46	253.35
740.79	253.02
741.12	252.69
741.45	252.38
741.78	252.05
742.11	251.79
742.44	251.48
742.77	251.22
743.10	250.95
743.43	250.61
743.75	250.19
744.08	250.04
744.41	249.77
744.74	249.52
745.07	249.24
745.40	249.01
745.73	248.77
746.06	248.51
746.39	248.27
746.71	247.99
747.04	247.71
747.37	247.46
747.70	247.24
748.03	247.00
748.36	246.78
748.68	246.51
749.01	246.23
749.34	246.03
749.67	245.77
750.00	245.56
750.33	245.43
750.65	245.22
750.98	244.93
751.31	244.72
751.64	244.52
751.97	244.39
752.29	244.19
752.62	243.98
752.95	243.78
753.28	243.55
753.60	243.33
753.93	243.15
754.26	242.98
754.59	242.74
754.91	242.58
755.24	242.38
755.57	242.24
755.90	242.10
756.22	241.88
756.55	241.71
756.88	241.51
757.20	241.31
757.53	241.14
757.86	240.96
758.19	240.78
758.51	240.60
758.84	240.37
759.17	240.19
759.49	240.07
759.82	239.95
760.15	239.82
760.47	239.67
760.80	239.49
761.13	239.38
761.45	239.24
761.78	239.06
762.11	238.92
762.43	238.74
762.76	238.58
763.08	238.48
763.41	238.35
763.74	238.22
764.06	238.05
764.39	237.92
764.71	237.78
765.04	237.64
765.37	237.53
765.69	237.40
766.02	237.27
766.34	237.08
766.67	236.92
767.00	236.78
767.32	236.69
767.65	236.63
767.97	236.48
768.30	236.38
768.62	236.28
768.95	236.14
769.27	236.05
769.60	235.93
769.92	235.79
770.25	235.67
770.57	235.52
770.90	235.44
771.22	235.29
771.55	235.20
771.87	235.11
772.20	234.99
772.52	234.96
772.85	234.97
773.17	234.89
773.50	234.77
773.82	234.69
774.15	234.58
774.47	234.43
774.80	234.33
775.12	234.23
775.45	234.15
775.77	234.10
776.09	234.02
776.42	233.95
776.74	233.89
777.07	233.81
777.39	233.75
777.72	233.68
778.04	233.67
778.36	233.59
778.69	233.55
779.01	233.52
779.33	233.36
779.66	233.19
779.98	233.09
780.31	233.02
780.63	232.98
780.95	232.92
781.28	232.83
781.60	232.76
781.92	232.69
782.25	232.62
782.57	232.55
782.89	232.49
783.22	232.42
783.54	232.36
783.86	232.29
784.19	232.23
784.51	232.21
784.83	232.11
785.16	232.06
785.48	232.01
785.80	231.92
786.12	231.88
786.45	231.82
786.77	231.80
787.09	231.78
787.42	231.72
787.74	231.71
788.06	231.71
788.38	231.69
788.71	231.65
789.03	231.64
789.35	231.59
789.67	231.53
789.99	231.51
790.32	231.46
790.64	231.46
790.96	231.52
791.28	231.46
791.61	231.41
791.93	231.38
792.25	231.34
792.57	231.38
792.89	231.34
793.21	231.33
793.54	231.29
793.86	231.25
794.18	231.20
794.50	231.13
794.82	231.09
795.14	231.06
795.47	231.04
795.79	231.01
796.11	230.96
796.43	230.93
796.75	230.90
797.07	230.87
797.39	230.81
797.71	230.67
798.04	230.65
798.36	230.64
798.68	230.61
799.00	230.57
799.32	230.48
799.64	230.46
799.96	230.42
800.28	230.40
800.60	230.37
800.92	230.38
801.24	230.33
801.56	230.30
801.89	230.25
802.21	230.20
802.53	230.13
802.85	230.11
803.17	230.12
803.49	230.07
803.81	230.02
804.13	229.98
804.45	229.97
804.77	229.92
805.09	229.86
805.41	229.84
805.73	229.80
806.05	229.72
806.37	229.68
806.69	229.65
807.01	229.62
807.33	229.58
807.65	229.51
807.97	229.54
808.28	229.52
808.60	229.48
808.92	229.46
809.24	229.50
809.56	229.46
809.88	229.41
810.20	229.38
810.52	229.37
810.84	229.35
811.16	229.29
811.48	229.25
811.80	229.24
812.12	229.18
812.43	229.17
812.75	229.13
813.07	229.11
813.39	229.08
813.71	229.02
814.03	229.03
814.35	228.99
814.67	228.90
814.98	228.87
815.30	228.84
815.62	228.77
815.94	228.67
816.26	228.72
816.58	228.67
816.89	228.65
817.21	228.60
817.53	228.58
817.85	228.60
818.17	228.54
818.48	228.49
818.80	228.48
819.12	228.46
819.44	228.47
819.76	228.43
820.07	228.42
820.39	228.40
820.71	228.35
821.03	228.33
821.34	228.33
821.66	228.28
821.98	228.25
822.30	228.26
822.61	228.29
822.93	228.19
823.25	228.16
823.57	228.16
823.88	228.18
824.20	228.15
824.52	228.15
824.83	228.19
825.15	228.20
825.47	228.17
825.79	228.18
826.10	228.18
826.42	228.20
826.74	228.20
827.05	228.18
827.37	228.20
827.69	228.19
828.00	228.19
828.32	228.22
828.64	228.22
828.95	228.31
829.27	228.29
829.58	228.30
829.90	228.35
830.22	228.37
830.53	228.34
830.85	228.33
831.17	228.30
831.48	228.28
831.80	228.27
832.11	228.28
832.43	228.24
832.75	228.21
833.06	228.26
833.38	228.22
833.69	228.24
834.01	228.22
834.32	228.25
834.64	228.25
834.96	228.22
835.27	228.21
835.59	228.14
835.90	228.11
836.22	228.14
836.53	228.12
836.85	228.07
837.16	228.14
837.48	228.13
837.79	228.15
838.11	228.11
838.42	228.10
838.74	228.11
839.05	228.12
839.37	228.11
839.68	228.05
840.00	228.01
840.31	228.01
840.63	228.00
840.94	227.96
841.26	227.94
841.57	227.97
841.88	227.99
842.20	227.96
842.51	227.95
842.83	227.92
843.14	227.98
843.46	227.98
843.77	227.91
844.08	227.92
844.40	227.89
844.71	227.91
845.03	227.87
845.34	227.83
845.65	227.82
845.97	227.82
846.28	227.79
846.60	227.80
846.91	227.78
847.22	227.77
847.54	227.79
847.85	227.77
848.16	227.68
848.48	227.65
848.79	227.67
849.10	227.65
849.42	227.66
849.73	227.58
850.04	227.56
850.36	227.55
850.67	227.55
850.98	227.52
851.30	227.50
851.61	227.55
851.92	227.54
852.23	227.54
852.55	227.53
852.86	227.53
853.17	227.55
853.49	227.57
853.80	227.57
854.11	227.57
854.42	227.53
854.74	227.56
855.05	227.55
855.36	227.50
855.67	227.50
855.99	227.49
856.30	227.55
856.61	227.53
856.92	227.52
857.23	227.52
857.55	227.47
857.86	227.46
858.17	227.44
858.48	227.43
858.79	227.37
859.11	227.37
859.42	227.35
859.73	227.31
860.04	227.31
860.35	227.26
860.66	227.23
860.98	227.27
861.29	227.29
861.60	227.29
861.91	227.32
862.22	227.31
862.53	227.28
862.84	227.21
863.16	227.28
863.47	227.23
863.78	227.23
864.09	227.27
864.40	227.27
864.71	227.28
865.02	227.27
865.33	227.32
865.64	227.29
865.95	227.32
866.27	227.40
866.58	227.38
866.89	227.43
867.20	227.42
867.51	227.36
867.82	227.35
868.13	227.39
868.44	227.38
868.75	227.41
869.06	227.45
869.37	227.43
869.68	227.38
869.99	227.44
870.30	227.42
870.61	227.43
870.92	227.42
871.23	227.41
871.54	227.46
871.85	227.48
872.16	227.47
872.47	227.46
872.78	227.40
873.09	227.44
873.40	227.42
873.71	227.45
874.02	227.47
874.33	227.43
874.64	227.39
874.95	227.40
875.26	227.36
875.56	227.34
875.87	227.37
876.18	227.37
876.49	227.44
876.80	227.44
877.11	227.43
877.42	227.45
877.73	227.43
878.04	227.39
878.35	227.38
878.66	227.41
878.96	227.42
879.27	227.38
879.58	227.36
879.89	227.39
880.20	227.42
880.51	227.44
880.82	227.45
881.12	227.47
881.43	227.45
881.74	227.43
882.05	227.44
882.36	227.41
882.67	227.40
882.97	227.29
883.28	227.30
883.59	227.31
883.90	227.28
884.21	227.30
884.51	227.34
884.82	227.32
885.13	227.30
885.44	227.28
885.74	227.30
886.05	227.31
886.36	227.25
886.67	227.20
886.98	227.26
887.28	227.27
887.59	227.26
887.90	227.24
888.20	227.26
888.51	227.27
888.82	227.27
889.13	227.24
889.43	227.33
889.74	227.32
890.05	227.29
890.35	227.30
890.66	227.27
890.97	227.24
891.28	227.25
891.58	227.28
891.89	227.30
892.20	227.29
892.50	227.28
892.81	227.27
893.12	227.28
893.42	227.22
893.73	227.20
894.04	227.21
894.34	227.25
894.65	227.23
894.95	227.21
895.26	227.21
895.57	227.28
895.87	227.17
896.18	227.19
896.48	227.22
896.79	227.22
897.10	227.25
897.40	227.22
897.71	227.19
898.01	227.17
898.32	227.16
898.63	227.17
898.93	227.15
899.24	227.15
899.54	227.12
899.85	227.10
900.15	227.14
900.46	227.14
900.76	227.13
901.07	227.12
901.38	227.12
901.68	227.14
901.99	227.10
902.29	227.10
902.60	227.08
902.90	227.05
903.21	227.06
903.51	227.06
903.82	227.11
904.12	227.11
904.43	227.12
904.73	227.11
905.03	227.11
905.34	227.22
905.64	227.24
905.95	227.29
906.25	227.33
906.56	227.32
906.86	227.33
907.17	227.36
907.47	227.37
907.77	227.38
908.08	227.37
908.38	227.39
908.69	227.39
908.99	227.43
909.30	227.47
909.60	227.49
909.90	227.49
910.21	227.47
910.51	227.47
910.81	227.48
911.12	227.50
911.42	227.51
911.73	227.41
912.03	227.42
912.33	227.39
912.64	227.34
912.94	227.34
913.24	227.31
913.55	227.29
913.85	227.30
914.15	227.32
914.46	227.33
914.76	227.30
915.06	227.30
915.37	227.27
915.67	227.26
915.97	227.25
916.27	227.22
916.58	227.25
916.88	227.24
917.18	227.21
917.49	227.27
917.79	227.24
918.09	227.26
918.39	227.27
918.70	227.27
919.00	227.27
919.30	227.32
919.60	227.31
919.91	227.29
920.21	227.26
920.51	227.23
920.81	227.22
921.12	227.24
921.42	227.25
921.72	227.25
922.02	227.24
922.32	227.25
922.63	227.27
922.93	227.31
923.23	227.28
923.53	227.28
923.83	227.22
924.13	227.24
924.44	227.26
924.74	227.28
925.04	227.29
925.34	227.30
925.64	227.26
925.94	227.26
926.24	227.30
926.55	227.32
926.85	227.36
927.15	227.34
927.45	227.32
927.75	227.33
928.05	227.36
928.35	227.35
928.65	227.37
928.95	227.37
929.26	227.32
929.56	227.34
929.86	227.37
930.16	227.39
930.46	227.38
930.76	227.34
931.06	227.31
931.36	227.33
931.66	227.35
931.96	227.35
932.26	227.36
932.56	227.30
932.86	227.30
933.16	227.28
933.46	227.27
933.76	227.26
934.06	227.24
934.36	227.23
934.66	227.23
934.96	227.20
935.26	227.20
935.56	227.23
935.86	227.23
936.16	227.19
936.46	227.16
936.76	227.14
937.06	227.15
937.36	227.16
937.66	227.13
937.96	227.13
938.26	227.10
938.56	227.10
938.86	227.13
939.16	227.14
939.46	227.14
939.76	227.14
940.06	227.12
940.35	227.13
940.65	227.12
940.95	227.11
941.25	227.10
941.55	227.06
941.85	227.02
942.15	227.05
942.45	227.08
942.75	227.09
943.04	227.08
943.34	227.10
943.64	227.10
943.94	227.07
944.24	227.07
944.54	227.10
944.84	227.10
945.13	227.10
945.43	227.10
945.73	227.13
946.03	227.10
946.33	227.12
946.62	227.09
946.92	227.08
947.22	227.11
947.52	227.10
947.82	227.13
948.11	227.12
948.41	227.07
948.71	227.02
949.01	227.00
949.31	226.98
949.60	226.96
949.90	226.96
950.20	226.96
950.50	226.96
950.79	226.95
951.09	226.95
951.39	226.92
951.69	226.90
951.98	226.90
952.28	226.92
952.58	226.91
952.87	226.90
953.17	226.92
953.47	226.88
953.76	226.89
954.06	226.89
954.36	226.89
954.66	226.92
954.95	226.96
955.25	226.99
955.55	226.99
955.84	227.01
956.14	227.03
956.44	227.00
956.73	226.95
957.03	226.97
957.32	226.96
957.62	226.97
957.92	226.97
958.21	226.98
958.51	227.05
958.81	227.07
959.10	227.06
959.40	227.09
959.69	227.09
959.99	227.10
960.29	227.09
960.58	227.07
960.88	227.10
961.17	227.10
961.47	227.09
961.76	227.09
962.06	227.09
962.36	227.04
962.65	227.07
962.95	227.09
963.24	227.04
963.54	227.04
963.83	227.03
964.13	227.01
964.42	226.93
964.72	226.89
965.01	226.87
965.31	226.89
965.60	226.84
965.90	226.89
966.19	226.85
966.49	226.87
966.78	226.88
967.08	226.84
967.37	226.81
967.67	226.81
967.96	226.84
968.26	226.85
968.55	226.89
968.85	226.88
969.14	226.89
969.43	226.88
969.73	226.88
970.02	226.91
970.32	226.89
970.61	226.91
970.91	226.88
971.20	226.91
971.49	226.89
971.79	226.92
972.08	226.89
972.38	226.90
972.67	226.89
972.96	226.91
973.26	226.91
973.55	226.95
973.85	226.97
974.14	226.96
974.43	226.93
974.73	226.89
975.02	226.88
975.31	226.88
975.61	226.91
975.90	226.90
976.19	226.90
976.49	226.91
976.78	226.95
977.07	226.94
977.37	226.96
977.66	226.97
977.95	226.96
978.24	226.96
978.54	227.00
978.83	227.00
979.12	226.97
979.42	226.96
979.71	226.96
980.00	226.94
980.29	226.91
980.59	226.91
980.88	226.97
981.17	226.98
981.46	226.98
981.76	226.96
982.05	226.97
982.34	226.98
982.63	227.02
982.93	226.99
983.22	227.05
983.51	227.07
983.80	227.08
984.09	227.09
984.39	227.05
984.68	227.02
984.97	227.01
985.26	227.03
985.55	227.04
985.85	226.99
986.14	227.03
986.43	227.06
986.72	227.06
987.01	226.99
987.30	227.02
987.59	227.02
987.89	227.04
988.18	227.04
988.47	227.00
988.76	227.00
989.05	226.98
989.34	226.94
989.63	226.92
989.92	226.90
990.22	226.87
990.51	226.87
990.80	226.89
991.09	226.90
991.38	226.89
991.67	226.90
991.96	226.93
992.25	226.91
992.54	226.89
992.83	226.85
993.12	226.88
993.41	226.87
993.70	226.89
993.99	226.87
994.28	226.90
994.58	226.95
994.87	226.90
995.16	226.92
995.45	226.92
995.74	226.87
996.03	226.88
996.32	226.93
996.61	226.96
996.90	226.94
997.19	226.96
997.48	226.96
997.77	226.94
998.06	226.93
998.34	226.91
998.63	226.87
998.92	226.87
999.21	226.91
999.50	226.92
999.79	226.90
1000.08	226.89
1000.37	226.86
1000.66	226.83
1000.95	226.87
1001.24	226.87
1001.53	226.88
1001.82	226.90
1002.11	226.89
1002.40	226.84
1002.68	226.86
1002.97	226.95
1003.26	226.94
1003.55	226.93
1003.84	226.88
1004.13	226.93
1004.42	226.94
1004.71	226.97
1004.99	227.00
1005.28	227.00
1005.57	226.98
1005.86	226.98
1006.15	227.01
1006.44	226.98
1006.72	227.00
1007.01	226.95
1007.30	226.94
1007.59	226.92
1007.88	226.93
1008.17	226.92
1008.45	226.94
1008.74	226.92
1009.03	226.86
1009.32	226.87
1009.60	226.90
1009.89	226.91
1010.18	226.86
1010.47	226.85
1010.76	226.86
1011.04	226.85
1011.33	226.85
1011.62	226.85
1011.91	226.86
1012.19	226.87
1012.48	226.85
1012.77	226.84
1013.05	226.88
1013.34	226.89
1013.63	226.89
1013.92	226.91
1014.20	226.90
1014.49	226.88
1014.78	226.89
1015.06	226.86
1015.35	226.87
1015.64	226.88
1015.92	226.92
1016.21	226.90
1016.50	226.90
1016.78	226.90
1017.07	226.95
1017.36	226.94
1017.64	226.95
1017.93	226.96
1018.22	226.95
1018.50	226.96
1018.79	226.99
1019.08	226.95
1019.36	226.96
1019.65	226.98
1019.93	226.99
1020.22	227.02
1020.51	227.08
1020.79	227.05
1021.08	226.81
1021.36	226.31
1021.65	227.51
1021.94	226.31
1022.22	227.21
1022.51	227.30
1022.79	227.16
1023.08	227.33
1023.36	227.73
1023.65	226.65
>>>>>End Processed Spectral Data<<<<<
