SpectraSuite Data File
++++++++++++++++++++++++++++++++++++
Date: Fri Feb 01 18:02:50 EST 2013
User: group
Dark Spectrum Present: No
Reference Spectrum Present: No
Number of Sampled Component Spectra: 1
Spectrometers: USB2E7196
Integration Time (usec): 35000 (USB2E7196)
Spectra Averaged: 100 (USB2E7196)
Boxcar Smoothing: 10 (USB2E7196)
Correct for Electrical Dark: No (USB2E7196)
Strobe/Lamp Enabled: No (USB2E7196)
Correct for Detector Non-linearity: No (USB2E7196)
Correct for Stray Light: No (USB2E7196)
Number of Pixels in Processed Spectrum: 2048
>>>>>Begin Processed Spectral Data<<<<<
339.09	0.00
339.48	212.76
339.86	215.38
340.24	216.05
340.63	216.66
341.01	220.23
341.39	219.74
341.78	221.02
342.16	222.67
342.54	223.25
342.93	211.44
343.31	222.13
343.69	222.67
344.07	223.09
344.46	223.48
344.84	223.89
345.22	224.12
345.60	224.38
345.99	224.57
346.37	224.70
346.75	224.78
347.13	224.87
347.52	224.93
347.90	225.00
348.28	225.04
348.66	225.03
349.05	225.02
349.43	225.05
349.81	225.09
350.19	225.12
350.57	225.16
350.96	225.23
351.34	225.30
351.72	225.39
352.10	225.50
352.48	225.57
352.87	225.60
353.25	225.67
353.63	225.71
354.01	225.78
354.39	225.86
354.77	225.92
355.15	226.00
355.54	226.08
355.92	226.11
356.30	226.19
356.68	226.34
357.06	226.43
357.44	226.49
357.82	226.57
358.20	226.63
358.58	226.72
358.97	226.77
359.35	226.83
359.73	226.92
360.11	226.93
360.49	226.99
360.87	227.04
361.25	227.09
361.63	227.17
362.01	227.20
362.39	227.21
362.77	227.26
363.15	227.31
363.53	227.33
363.91	227.38
364.29	227.42
364.67	227.39
365.05	227.41
365.43	227.46
365.81	227.50
366.19	227.61
366.57	227.62
366.95	227.61
367.33	227.60
367.71	227.56
368.09	227.58
368.47	227.61
368.85	227.60
369.23	227.61
369.61	227.53
369.99	227.58
370.37	227.54
370.75	227.59
371.13	227.54
371.51	227.46
371.89	227.46
372.27	227.40
372.65	227.34
373.03	227.29
373.41	227.20
373.78	227.14
374.16	227.00
374.54	226.93
374.92	226.87
375.30	226.85
375.68	226.79
376.06	226.77
376.44	226.66
376.82	226.65
377.19	226.59
377.57	226.58
377.95	226.49
378.33	226.48
378.71	226.35
379.09	226.32
379.47	226.30
379.84	226.21
380.22	226.13
380.60	226.08
380.98	226.03
381.36	225.97
381.73	225.89
382.11	225.87
382.49	225.84
382.87	225.80
383.25	225.72
383.62	225.79
384.00	225.75
384.38	225.73
384.76	225.68
385.13	225.67
385.51	225.60
385.89	225.53
386.27	225.46
386.64	225.45
387.02	225.39
387.40	225.33
387.78	225.26
388.15	225.26
388.53	225.19
388.91	225.18
389.29	225.17
389.66	225.16
390.04	225.12
390.42	225.10
390.79	225.10
391.17	225.06
391.55	224.93
391.92	224.89
392.30	224.90
392.68	224.87
393.05	224.87
393.43	224.87
393.81	224.87
394.18	224.86
394.56	224.86
394.94	224.90
395.31	224.89
395.69	224.99
396.06	224.99
396.44	224.99
396.82	225.00
397.19	225.06
397.57	225.09
397.95	225.13
398.32	225.14
398.70	225.17
399.07	225.26
399.45	225.33
399.82	225.35
400.20	225.38
400.58	225.45
400.95	225.45
401.33	225.55
401.70	225.72
402.08	225.80
402.45	225.87
402.83	225.99
403.20	226.11
403.58	226.18
403.95	226.32
404.33	226.48
404.71	226.58
405.08	226.77
405.46	226.88
405.83	227.06
406.21	227.22
406.58	227.42
406.96	227.60
407.33	227.76
407.70	228.02
408.08	228.31
408.45	228.55
408.83	228.81
409.20	229.06
409.58	229.27
409.95	229.60
410.33	229.92
410.70	230.21
411.08	230.60
411.45	231.00
411.82	231.38
412.20	231.83
412.57	232.36
412.95	232.73
413.32	233.31
413.69	233.83
414.07	234.45
414.44	235.03
414.82	235.67
415.19	236.42
415.56	237.13
415.94	237.89
416.31	238.74
416.68	239.59
417.06	240.57
417.43	241.50
417.81	242.53
418.18	243.56
418.55	244.68
418.93	245.83
419.30	247.03
419.67	248.32
420.04	249.63
420.42	250.98
420.79	252.58
421.16	254.10
421.54	255.71
421.91	257.32
422.28	259.05
422.66	260.83
423.03	262.56
423.40	264.40
423.77	266.35
424.15	268.30
424.52	270.33
424.89	272.46
425.26	274.55
425.64	276.52
426.01	278.73
426.38	281.01
426.75	283.31
427.13	285.68
427.50	288.11
427.87	290.65
428.24	293.16
428.61	295.57
428.99	298.23
429.36	301.09
429.73	303.90
430.10	306.63
430.47	309.43
430.85	312.37
431.22	315.41
431.59	318.60
431.96	321.66
432.33	325.03
432.70	328.30
433.08	332.12
433.45	335.73
433.82	339.26
434.19	343.18
434.56	346.96
434.93	350.54
435.30	354.11
435.68	358.03
436.05	361.90
436.42	365.70
436.79	369.12
437.16	372.77
437.53	376.63
437.90	380.49
438.27	384.21
438.64	388.04
439.01	391.56
439.38	394.59
439.75	397.56
440.13	400.96
440.50	404.14
440.87	406.68
441.24	409.29
441.61	412.27
441.98	414.31
442.35	416.82
442.72	419.37
443.09	421.85
443.46	423.24
443.83	424.05
444.20	424.74
444.57	425.89
444.94	426.32
445.31	426.83
445.68	427.22
446.05	427.36
446.42	426.83
446.79	426.30
447.16	425.73
447.53	425.20
447.90	423.65
448.27	422.08
448.64	419.90
449.01	418.40
449.37	415.69
449.74	413.04
450.11	409.93
450.48	406.56
450.85	403.12
451.22	400.17
451.59	397.39
451.96	394.72
452.33	391.17
452.70	387.94
453.07	384.06
453.43	380.20
453.80	376.41
454.17	372.76
454.54	369.26
454.91	365.54
455.28	361.97
455.65	358.55
456.02	355.17
456.38	352.28
456.75	348.62
457.12	345.57
457.49	342.58
457.86	339.61
458.23	337.05
458.59	334.28
458.96	331.43
459.33	328.94
459.70	326.43
460.07	324.36
460.43	321.98
460.80	319.74
461.17	317.74
461.54	315.68
461.91	313.75
462.27	311.77
462.64	310.06
463.01	308.18
463.38	306.39
463.74	304.57
464.11	302.91
464.48	301.52
464.85	299.98
465.21	298.78
465.58	297.55
465.95	296.09
466.32	294.85
466.68	293.62
467.05	292.36
467.42	291.13
467.78	289.86
468.15	288.69
468.52	287.75
468.88	286.59
469.25	285.55
469.62	284.71
469.98	283.79
470.35	282.94
470.72	282.14
471.08	281.23
471.45	280.48
471.82	279.74
472.18	278.91
472.55	278.31
472.92	277.60
473.28	276.96
473.65	276.32
474.02	275.67
474.38	275.14
474.75	274.67
475.11	274.13
475.48	273.72
475.85	273.36
476.21	273.03
476.58	272.75
476.94	272.53
477.31	272.22
477.67	271.97
478.04	271.75
478.41	271.59
478.77	271.56
479.14	271.39
479.50	271.34
479.87	271.33
480.23	271.31
480.60	271.30
480.96	271.34
481.33	271.49
481.69	271.68
482.06	271.87
482.42	272.03
482.79	272.30
483.15	272.61
483.52	273.00
483.88	273.31
484.25	273.64
484.61	274.04
484.98	274.47
485.34	275.00
485.71	275.60
486.07	276.24
486.44	276.83
486.80	277.57
487.17	278.31
487.53	279.15
487.90	280.04
488.26	281.02
488.62	282.02
488.99	283.04
489.35	284.11
489.72	285.25
490.08	286.55
490.44	287.82
490.81	289.20
491.17	290.61
491.54	292.17
491.90	293.79
492.26	295.53
492.63	297.34
492.99	299.24
493.36	301.22
493.72	303.38
494.08	305.61
494.45	307.97
494.81	310.46
495.17	313.03
495.54	315.76
495.90	318.60
496.26	321.53
496.63	324.66
496.99	327.91
497.35	331.36
497.72	334.95
498.08	338.64
498.44	342.48
498.80	346.66
499.17	350.92
499.53	355.38
499.89	359.96
500.26	364.75
500.62	369.63
500.98	374.85
501.34	380.19
501.71	385.76
502.07	391.52
502.43	397.52
502.79	403.74
503.16	410.23
503.52	416.92
503.88	423.76
504.24	430.79
504.60	438.13
504.97	445.71
505.33	453.47
505.69	461.70
506.05	470.05
506.41	478.38
506.78	487.09
507.14	496.13
507.50	505.47
507.86	515.15
508.22	525.02
508.59	534.89
508.95	545.15
509.31	555.71
509.67	566.50
510.03	577.42
510.39	588.64
510.75	600.17
511.12	611.84
511.48	623.90
511.84	636.18
512.20	648.54
512.56	661.30
512.92	674.35
513.28	687.69
513.64	701.16
514.00	714.92
514.37	728.86
514.73	742.93
515.09	756.93
515.45	771.19
515.81	785.86
516.17	800.96
516.53	816.33
516.89	831.67
517.25	846.93
517.61	862.53
517.97	878.31
518.33	893.95
518.69	909.95
519.05	926.28
519.41	942.77
519.77	959.70
520.13	976.62
520.49	993.49
520.85	1010.21
521.21	1027.31
521.57	1045.03
521.93	1062.22
522.29	1080.06
522.65	1097.92
523.01	1115.71
523.37	1133.33
523.73	1151.04
524.09	1168.73
524.45	1186.56
524.81	1205.10
525.17	1223.64
525.53	1242.14
525.89	1260.83
526.25	1279.42
526.61	1297.58
526.97	1316.14
527.33	1334.36
527.68	1352.73
528.04	1370.92
528.40	1389.40
528.76	1408.26
529.12	1426.69
529.48	1445.56
529.84	1463.46
530.20	1482.06
530.56	1501.11
530.91	1520.54
531.27	1539.44
531.63	1557.84
531.99	1576.62
532.35	1594.54
532.71	1612.54
533.07	1630.99
533.42	1649.08
533.78	1667.37
534.14	1685.82
534.50	1703.27
534.86	1721.30
535.21	1738.60
535.57	1756.83
535.93	1774.57
536.29	1791.62
536.65	1808.95
537.00	1825.79
537.36	1843.44
537.72	1860.15
538.08	1876.80
538.44	1892.81
538.79	1908.91
539.15	1924.58
539.51	1940.40
539.87	1956.91
540.22	1972.83
540.58	1988.87
540.94	2004.27
541.29	2019.34
541.65	2034.27
542.01	2049.84
542.37	2064.60
542.72	2079.40
543.08	2093.45
543.44	2108.13
543.79	2121.55
544.15	2134.69
544.51	2148.70
544.87	2161.82
545.22	2174.90
545.58	2187.47
545.94	2199.43
546.29	2211.45
546.65	2223.82
547.01	2235.34
547.36	2246.31
547.72	2256.94
548.07	2266.89
548.43	2277.17
548.79	2287.16
549.14	2296.72
549.50	2305.93
549.86	2315.58
550.21	2324.89
550.57	2334.11
550.92	2342.65
551.28	2351.73
551.64	2360.83
551.99	2369.34
552.35	2377.54
552.70	2385.66
553.06	2393.40
553.41	2401.59
553.77	2409.35
554.13	2417.17
554.48	2425.44
554.84	2432.91
555.19	2439.95
555.55	2446.98
555.90	2453.22
556.26	2460.07
556.61	2466.44
556.97	2472.62
557.32	2478.46
557.68	2484.39
558.03	2490.30
558.39	2495.48
558.74	2501.87
559.10	2507.42
559.45	2512.53
559.81	2518.36
560.16	2523.57
560.52	2528.35
560.87	2533.16
561.23	2537.44
561.58	2541.74
561.94	2545.47
562.29	2548.92
562.64	2553.14
563.00	2556.96
563.35	2561.87
563.71	2566.32
564.06	2571.00
564.42	2575.22
564.77	2579.03
565.12	2582.37
565.48	2585.42
565.83	2588.58
566.19	2591.10
566.54	2593.09
566.89	2595.52
567.25	2597.18
567.60	2599.52
567.96	2602.42
568.31	2604.31
568.66	2606.53
569.02	2608.22
569.37	2609.39
569.72	2611.35
570.08	2612.30
570.43	2613.01
570.78	2613.08
571.14	2612.15
571.49	2611.40
571.84	2611.77
572.20	2611.31
572.55	2610.88
572.90	2609.85
573.26	2609.05
573.61	2607.54
573.96	2606.30
574.31	2603.48
574.67	2600.80
575.02	2597.40
575.37	2593.94
575.72	2590.38
576.08	2587.03
576.43	2583.78
576.78	2580.21
577.13	2576.95
577.49	2573.83
577.84	2570.49
578.19	2566.95
578.54	2563.49
578.90	2559.30
579.25	2553.48
579.60	2548.16
579.95	2543.02
580.30	2537.64
580.66	2532.03
581.01	2526.96
581.36	2521.62
581.71	2517.25
582.06	2512.45
582.42	2507.90
582.77	2502.26
583.12	2497.29
583.47	2492.36
583.82	2487.05
584.17	2481.35
584.53	2475.48
584.88	2469.28
585.23	2463.14
585.58	2457.00
585.93	2450.85
586.28	2445.50
586.63	2439.87
586.98	2434.31
587.34	2428.84
587.69	2423.58
588.04	2417.95
588.39	2411.61
588.74	2404.36
589.09	2397.53
589.44	2390.02
589.79	2383.23
590.14	2377.09
590.49	2369.80
590.84	2362.41
591.19	2355.54
591.54	2348.31
591.89	2340.06
592.25	2332.55
592.60	2324.24
592.95	2315.68
593.30	2307.30
593.65	2298.74
594.00	2290.73
594.35	2282.37
594.70	2273.30
595.05	2265.25
595.40	2256.77
595.75	2248.15
596.10	2241.10
596.45	2233.36
596.80	2226.27
597.15	2218.58
597.50	2210.48
597.85	2202.96
598.19	2195.43
598.54	2187.38
598.89	2179.71
599.24	2172.98
599.59	2165.37
599.94	2158.29
600.29	2151.05
600.64	2143.43
600.99	2134.92
601.34	2126.96
601.69	2118.90
602.04	2111.10
602.39	2102.57
602.74	2094.79
603.08	2087.06
603.43	2079.24
603.78	2070.81
604.13	2062.43
604.48	2054.01
604.83	2045.90
605.18	2038.08
605.53	2028.80
605.87	2019.52
606.22	2011.13
606.57	2001.80
606.92	1993.09
607.27	1984.65
607.62	1976.56
607.96	1968.14
608.31	1960.37
608.66	1951.65
609.01	1942.95
609.36	1934.09
609.70	1924.68
610.05	1915.11
610.40	1906.24
610.75	1896.47
611.10	1887.53
611.44	1877.53
611.79	1868.15
612.14	1858.09
612.49	1847.24
612.83	1837.34
613.18	1827.58
613.53	1817.95
613.88	1807.86
614.22	1798.03
614.57	1787.94
614.92	1778.43
615.27	1769.52
615.61	1759.66
615.96	1750.19
616.31	1741.19
616.65	1732.49
617.00	1723.42
617.35	1714.50
617.70	1704.54
618.04	1694.58
618.39	1684.72
618.74	1675.85
619.08	1666.07
619.43	1657.02
619.78	1648.77
620.12	1640.34
620.47	1631.55
620.82	1621.89
621.16	1613.03
621.51	1604.14
621.85	1595.04
622.20	1585.09
622.55	1575.19
622.89	1566.03
623.24	1556.85
623.59	1547.98
623.93	1539.01
624.28	1530.54
624.62	1521.58
624.97	1513.04
625.32	1504.94
625.66	1496.63
626.01	1488.17
626.35	1479.38
626.70	1470.29
627.04	1461.26
627.39	1451.95
627.73	1443.23
628.08	1435.15
628.43	1426.63
628.77	1417.99
629.12	1409.13
629.46	1400.66
629.81	1391.80
630.15	1383.17
630.50	1374.48
630.84	1364.87
631.19	1355.59
631.53	1346.64
631.88	1337.77
632.22	1328.91
632.57	1320.34
632.91	1311.44
633.26	1302.71
633.60	1293.95
633.95	1285.51
634.29	1277.09
634.64	1269.32
634.98	1260.70
635.32	1252.21
635.67	1244.45
636.01	1236.72
636.36	1228.82
636.70	1221.11
637.05	1213.53
637.39	1205.90
637.73	1198.34
638.08	1191.36
638.42	1184.25
638.77	1176.84
639.11	1169.18
639.45	1161.62
639.80	1153.82
640.14	1146.36
640.49	1138.59
640.83	1131.27
641.17	1124.01
641.52	1116.62
641.86	1109.03
642.20	1102.22
642.55	1094.79
642.89	1087.22
643.23	1079.43
643.58	1072.61
643.92	1065.42
644.26	1058.37
644.61	1051.20
644.95	1044.14
645.29	1036.52
645.64	1028.75
645.98	1021.26
646.32	1014.32
646.66	1007.33
647.01	1000.61
647.35	993.96
647.69	987.23
648.04	980.79
648.38	974.09
648.72	967.22
649.06	960.20
649.41	953.24
649.75	946.35
650.09	939.46
650.43	932.72
650.78	925.62
651.12	918.66
651.46	911.98
651.80	905.45
652.14	899.15
652.49	892.96
652.83	886.96
653.17	880.41
653.51	873.83
653.85	867.56
654.20	860.93
654.54	853.96
654.88	847.31
655.22	840.42
655.56	833.76
655.90	827.38
656.25	821.36
656.59	815.15
656.93	809.34
657.27	803.35
657.61	797.17
657.95	791.27
658.29	785.36
658.64	779.22
658.98	773.06
659.32	766.77
659.66	760.71
660.00	754.52
660.34	748.78
660.68	743.08
661.02	737.28
661.36	731.83
661.70	726.58
662.05	721.48
662.39	716.52
662.73	711.35
663.07	706.28
663.41	701.03
663.75	695.88
664.09	690.50
664.43	685.38
664.77	680.55
665.11	675.62
665.45	670.83
665.79	666.12
666.13	661.34
666.47	656.55
666.81	651.78
667.15	646.99
667.49	642.39
667.83	637.92
668.17	633.31
668.51	628.62
668.85	624.04
669.19	619.61
669.53	615.20
669.87	610.80
670.21	606.53
670.55	602.31
670.89	598.28
671.23	594.31
671.57	590.29
671.91	586.18
672.25	582.09
672.58	578.01
672.92	574.06
673.26	570.35
673.60	566.63
673.94	563.04
674.28	559.62
674.62	556.33
674.96	552.69
675.30	549.33
675.64	545.96
675.97	542.67
676.31	539.37
676.65	535.94
676.99	532.75
677.33	529.40
677.67	526.18
678.01	522.71
678.34	519.31
678.68	515.95
679.02	512.74
679.36	509.52
679.70	506.36
680.04	503.15
680.37	499.84
680.71	496.68
681.05	493.64
681.39	490.58
681.73	487.43
682.06	484.59
682.40	481.63
682.74	478.67
683.08	475.65
683.42	472.66
683.75	469.79
684.09	466.82
684.43	463.98
684.77	461.16
685.10	458.39
685.44	455.69
685.78	453.08
686.12	450.42
686.45	447.81
686.79	445.12
687.13	442.55
687.46	440.00
687.80	437.49
688.14	434.82
688.48	432.47
688.81	429.90
689.15	427.37
689.49	424.90
689.82	422.50
690.16	420.16
690.50	417.88
690.83	415.65
691.17	413.43
691.51	411.19
691.84	409.06
692.18	406.89
692.52	404.63
692.85	402.35
693.19	400.20
693.52	398.01
693.86	395.89
694.20	393.84
694.53	391.84
694.87	389.66
695.21	387.66
695.54	385.49
695.88	383.45
696.21	381.48
696.55	379.51
696.88	377.55
697.22	375.58
697.56	373.68
697.89	371.71
698.23	369.78
698.56	367.89
698.90	365.99
699.23	364.07
699.57	362.26
699.90	360.46
700.24	358.69
700.58	356.95
700.91	355.23
701.25	353.54
701.58	351.90
701.92	350.34
702.25	348.73
702.59	347.13
702.92	345.59
703.26	344.10
703.59	342.62
703.93	341.22
704.26	339.81
704.60	338.31
704.93	336.83
705.26	335.38
705.60	334.03
705.93	332.70
706.27	331.51
706.60	330.25
706.94	328.95
707.27	327.59
707.61	326.36
707.94	325.13
708.27	323.86
708.61	322.58
708.94	321.38
709.28	320.23
709.61	319.11
709.94	318.04
710.28	316.81
710.61	315.61
710.95	314.36
711.28	313.30
711.61	312.21
711.95	311.16
712.28	310.05
712.61	308.86
712.95	307.72
713.28	306.67
713.61	305.64
713.95	304.61
714.28	303.61
714.61	302.58
714.95	301.62
715.28	300.64
715.61	299.65
715.95	298.69
716.28	297.66
716.61	296.71
716.95	295.72
717.28	294.86
717.61	294.00
717.94	293.15
718.28	292.21
718.61	291.33
718.94	290.53
719.27	289.75
719.61	289.03
719.94	288.31
720.27	287.47
720.60	286.69
720.94	285.95
721.27	285.30
721.60	284.62
721.93	283.89
722.27	283.28
722.60	282.67
722.93	282.01
723.26	281.44
723.59	280.75
723.93	280.09
724.26	279.43
724.59	278.79
724.92	278.12
725.25	277.53
725.59	276.92
725.92	276.33
726.25	275.76
726.58	275.19
726.91	274.55
727.24	274.02
727.57	273.48
727.91	272.88
728.24	272.33
728.57	271.76
728.90	271.25
729.23	270.65
729.56	270.10
729.89	269.53
730.22	268.94
730.55	268.42
730.89	267.93
731.22	267.45
731.55	266.96
731.88	266.51
732.21	266.01
732.54	265.52
732.87	265.03
733.20	264.56
733.53	264.12
733.86	263.71
734.19	263.22
734.52	262.77
734.85	262.43
735.18	261.93
735.51	261.55
735.84	261.12
736.17	260.75
736.50	260.34
736.83	260.09
737.16	259.73
737.49	259.36
737.82	258.93
738.15	258.55
738.48	258.14
738.81	257.74
739.14	257.39
739.47	257.05
739.80	256.67
740.13	256.30
740.46	255.90
740.79	255.53
741.12	255.18
741.45	254.82
741.78	254.39
742.11	254.08
742.44	253.68
742.77	253.35
743.10	252.97
743.43	252.61
743.75	252.14
744.08	251.93
744.41	251.59
744.74	251.29
745.07	250.97
745.40	250.69
745.73	250.38
746.06	250.03
746.39	249.72
746.71	249.38
747.04	249.05
747.37	248.74
747.70	248.46
748.03	248.21
748.36	247.94
748.68	247.66
749.01	247.36
749.34	247.11
749.67	246.87
750.00	246.61
750.33	246.40
750.65	246.15
750.98	245.73
751.31	245.46
751.64	245.22
751.97	244.98
752.29	244.68
752.62	244.41
752.95	244.20
753.28	243.93
753.60	243.69
753.93	243.53
754.26	243.30
754.59	243.03
754.91	242.74
755.24	242.46
755.57	242.24
755.90	242.05
756.22	241.78
756.55	241.50
756.88	241.25
757.20	240.96
757.53	240.72
757.86	240.55
758.19	240.36
758.51	240.15
758.84	239.92
759.17	239.73
759.49	239.56
759.82	239.38
760.15	239.20
760.47	239.03
760.80	238.81
761.13	238.68
761.45	238.50
761.78	238.35
762.11	238.22
762.43	238.07
762.76	237.87
763.08	237.78
763.41	237.65
763.74	237.50
764.06	237.33
764.39	237.20
764.71	237.04
765.04	236.86
765.37	236.72
765.69	236.57
766.02	236.43
766.34	236.29
766.67	236.13
767.00	236.03
767.32	236.00
767.65	235.91
767.97	235.77
768.30	235.66
768.62	235.52
768.95	235.36
769.27	235.21
769.60	235.11
769.92	234.95
770.25	234.81
770.57	234.71
770.90	234.62
771.22	234.50
771.55	234.42
771.87	234.32
772.20	234.21
772.52	234.18
772.85	234.21
773.17	234.13
773.50	234.01
773.82	233.91
774.15	233.75
774.47	233.63
774.80	233.51
775.12	233.41
775.45	233.31
775.77	233.24
776.09	233.17
776.42	233.08
776.74	233.04
777.07	232.94
777.39	232.85
777.72	232.75
778.04	232.68
778.36	232.61
778.69	232.53
779.01	232.44
779.33	232.29
779.66	232.10
779.98	232.01
780.31	231.98
780.63	231.92
780.95	231.83
781.28	231.71
781.60	231.65
781.92	231.58
782.25	231.51
782.57	231.44
782.89	231.38
783.22	231.32
783.54	231.21
783.86	231.18
784.19	231.07
784.51	231.05
784.83	230.98
785.16	230.91
785.48	230.88
785.80	230.87
786.12	230.82
786.45	230.79
786.77	230.75
787.09	230.66
787.42	230.58
787.74	230.53
788.06	230.54
788.38	230.49
788.71	230.42
789.03	230.38
789.35	230.33
789.67	230.25
789.99	230.24
790.32	230.18
790.64	230.11
790.96	230.18
791.28	230.09
791.61	230.01
791.93	229.94
792.25	229.88
792.57	229.86
792.89	229.82
793.21	229.76
793.54	229.66
793.86	229.57
794.18	229.53
794.50	229.46
794.82	229.37
795.14	229.32
795.47	229.28
795.79	229.24
796.11	229.20
796.43	229.17
796.75	229.10
797.07	229.07
797.39	229.01
797.71	228.91
798.04	228.87
798.36	228.84
798.68	228.80
799.00	228.76
799.32	228.69
799.64	228.63
799.96	228.60
800.28	228.59
800.60	228.57
800.92	228.56
801.24	228.54
801.56	228.53
801.89	228.50
802.21	228.49
802.53	228.41
802.85	228.37
803.17	228.35
803.49	228.31
803.81	228.25
804.13	228.22
804.45	228.17
804.77	228.15
805.09	228.11
805.41	228.10
805.73	228.07
806.05	228.00
806.37	227.94
806.69	227.90
807.01	227.89
807.33	227.86
807.65	227.74
807.97	227.72
808.28	227.68
808.60	227.63
808.92	227.60
809.24	227.68
809.56	227.65
809.88	227.60
810.20	227.57
810.52	227.56
810.84	227.52
811.16	227.47
811.48	227.43
811.80	227.43
812.12	227.40
812.43	227.39
812.75	227.34
813.07	227.31
813.39	227.26
813.71	227.22
814.03	227.17
814.35	227.19
814.67	227.15
814.98	227.13
815.30	227.11
815.62	227.07
815.94	226.94
816.26	226.93
816.58	226.88
816.89	226.88
817.21	226.86
817.53	226.87
817.85	226.86
818.17	226.85
818.48	226.80
818.80	226.80
819.12	226.75
819.44	226.74
819.76	226.72
820.07	226.72
820.39	226.69
820.71	226.71
821.03	226.67
821.34	226.63
821.66	226.62
821.98	226.60
822.30	226.56
822.61	226.63
822.93	226.60
823.25	226.59
823.57	226.54
823.88	226.57
824.20	226.53
824.52	226.51
824.83	226.50
825.15	226.46
825.47	226.41
825.79	226.41
826.10	226.41
826.42	226.45
826.74	226.45
827.05	226.42
827.37	226.41
827.69	226.39
828.00	226.40
828.32	226.37
828.64	226.39
828.95	226.49
829.27	226.44
829.58	226.42
829.90	226.45
830.22	226.47
830.53	226.39
830.85	226.36
831.17	226.36
831.48	226.35
831.80	226.34
832.11	226.36
832.43	226.35
832.75	226.34
833.06	226.35
833.38	226.27
833.69	226.27
834.01	226.28
834.32	226.30
834.64	226.27
834.96	226.27
835.27	226.20
835.59	226.12
835.90	226.09
836.22	226.10
836.53	226.07
836.85	226.04
837.16	226.15
837.48	226.16
837.79	226.16
838.11	226.15
838.42	226.16
838.74	226.15
839.05	226.13
839.37	226.11
839.68	226.04
840.00	226.05
840.31	226.06
840.63	226.03
840.94	226.00
841.26	225.98
841.57	225.97
841.88	226.00
842.20	226.00
842.51	226.00
842.83	225.97
843.14	226.02
843.46	226.01
843.77	225.95
844.08	225.91
844.40	225.89
844.71	225.87
845.03	225.87
845.34	225.85
845.65	225.85
845.97	225.84
846.28	225.82
846.60	225.84
846.91	225.84
847.22	225.83
847.54	225.86
847.85	225.86
848.16	225.89
848.48	225.86
848.79	225.86
849.10	225.89
849.42	225.90
849.73	225.81
850.04	225.81
850.36	225.76
850.67	225.80
850.98	225.81
851.30	225.82
851.61	225.80
851.92	225.79
852.23	225.79
852.55	225.81
852.86	225.82
853.17	225.81
853.49	225.84
853.80	225.85
854.11	225.85
854.42	225.82
854.74	225.74
855.05	225.71
855.36	225.67
855.67	225.64
855.99	225.66
856.30	225.78
856.61	225.78
856.92	225.77
857.23	225.74
857.55	225.71
857.86	225.70
858.17	225.70
858.48	225.70
858.79	225.69
859.11	225.68
859.42	225.64
859.73	225.63
860.04	225.59
860.35	225.52
860.66	225.47
860.98	225.50
861.29	225.52
861.60	225.53
861.91	225.55
862.22	225.52
862.53	225.45
862.84	225.34
863.16	225.36
863.47	225.36
863.78	225.35
864.09	225.39
864.40	225.36
864.71	225.37
865.02	225.34
865.33	225.30
865.64	225.27
865.95	225.28
866.27	225.33
866.58	225.28
866.89	225.32
867.20	225.33
867.51	225.32
867.82	225.31
868.13	225.32
868.44	225.30
868.75	225.31
869.06	225.33
869.37	225.34
869.68	225.27
869.99	225.27
870.30	225.25
870.61	225.23
870.92	225.22
871.23	225.19
871.54	225.22
871.85	225.27
872.16	225.31
872.47	225.31
872.78	225.22
873.09	225.25
873.40	225.25
873.71	225.26
874.02	225.24
874.33	225.21
874.64	225.19
874.95	225.17
875.26	225.16
875.56	225.16
875.87	225.13
876.18	225.16
876.49	225.24
876.80	225.25
877.11	225.23
877.42	225.27
877.73	225.27
878.04	225.23
878.35	225.20
878.66	225.16
878.96	225.14
879.27	225.16
879.58	225.14
879.89	225.13
880.20	225.14
880.51	225.17
880.82	225.18
881.12	225.20
881.43	225.17
881.74	225.15
882.05	225.12
882.36	225.12
882.67	225.10
882.97	225.00
883.28	225.01
883.59	225.02
883.90	225.03
884.21	225.05
884.51	225.03
884.82	225.00
885.13	224.99
885.44	224.99
885.74	225.01
886.05	225.01
886.36	225.01
886.67	225.00
886.98	225.03
887.28	225.06
887.59	225.05
887.90	225.09
888.20	225.08
888.51	225.11
888.82	225.13
889.13	225.15
889.43	225.23
889.74	225.22
890.05	225.22
890.35	225.15
890.66	225.11
890.97	225.12
891.28	225.14
891.58	225.16
891.89	225.18
892.20	225.16
892.50	225.15
892.81	225.15
893.12	225.14
893.42	225.11
893.73	225.12
894.04	225.13
894.34	225.15
894.65	225.15
894.95	225.10
895.26	225.10
895.57	225.15
895.87	225.03
896.18	225.04
896.48	225.03
896.79	225.09
897.10	225.12
897.40	225.11
897.71	225.12
898.01	225.11
898.32	225.09
898.63	225.07
898.93	225.09
899.24	225.06
899.54	225.04
899.85	225.01
900.15	225.00
900.46	224.98
900.76	224.97
901.07	224.99
901.38	225.00
901.68	225.03
901.99	224.96
902.29	224.97
902.60	224.97
902.90	224.97
903.21	224.95
903.51	224.95
903.82	224.98
904.12	225.01
904.43	225.01
904.73	225.01
905.03	225.02
905.34	225.09
905.64	225.12
905.95	225.12
906.25	225.11
906.56	225.11
906.86	225.08
907.17	225.07
907.47	225.07
907.77	225.06
908.08	225.01
908.38	225.05
908.69	225.08
908.99	225.06
909.30	225.06
909.60	225.07
909.90	225.07
910.21	225.05
910.51	225.02
910.81	225.03
911.12	225.03
911.42	225.03
911.73	224.93
912.03	224.93
912.33	224.95
912.64	224.97
912.94	224.92
913.24	224.95
913.55	224.95
913.85	224.93
914.15	224.93
914.46	224.95
914.76	224.92
915.06	224.91
915.37	224.93
915.67	224.92
915.97	224.88
916.27	224.86
916.58	224.88
916.88	224.84
917.18	224.84
917.49	224.90
917.79	224.93
918.09	224.97
918.39	225.02
918.70	225.01
919.00	225.02
919.30	225.09
919.60	225.09
919.91	225.05
920.21	225.05
920.51	225.03
920.81	225.02
921.12	225.02
921.42	225.04
921.72	225.04
922.02	225.04
922.32	225.08
922.63	225.09
922.93	225.14
923.23	225.16
923.53	225.16
923.83	225.08
924.13	225.07
924.44	225.05
924.74	225.04
925.04	225.07
925.34	225.05
925.64	225.00
925.94	224.97
926.24	225.06
926.55	225.07
926.85	225.09
927.15	225.10
927.45	225.14
927.75	225.12
928.05	225.12
928.35	225.10
928.65	225.09
928.95	225.06
929.26	225.02
929.56	225.04
929.86	225.03
930.16	225.03
930.46	225.03
930.76	225.02
931.06	224.97
931.36	224.91
931.66	224.91
931.96	224.91
932.26	224.96
932.56	224.90
932.86	224.91
933.16	224.89
933.46	224.85
933.76	224.82
934.06	224.86
934.36	224.88
934.66	224.89
934.96	224.87
935.26	224.89
935.56	224.89
935.86	224.84
936.16	224.84
936.46	224.81
936.76	224.80
937.06	224.81
937.36	224.84
937.66	224.89
937.96	224.91
938.26	224.89
938.56	224.85
938.86	224.85
939.16	224.86
939.46	224.88
939.76	224.93
940.06	224.90
940.35	224.86
940.65	224.79
940.95	224.75
941.25	224.73
941.55	224.73
941.85	224.74
942.15	224.78
942.45	224.80
942.75	224.82
943.04	224.83
943.34	224.83
943.64	224.78
943.94	224.77
944.24	224.75
944.54	224.76
944.84	224.78
945.13	224.78
945.43	224.77
945.73	224.77
946.03	224.73
946.33	224.73
946.62	224.74
946.92	224.77
947.22	224.81
947.52	224.84
947.82	224.83
948.11	224.80
948.41	224.78
948.71	224.77
949.01	224.77
949.31	224.75
949.60	224.76
949.90	224.80
950.20	224.76
950.50	224.78
950.79	224.78
951.09	224.80
951.39	224.84
951.69	224.86
951.98	224.87
952.28	224.88
952.58	224.89
952.87	224.89
953.17	224.89
953.47	224.89
953.76	224.87
954.06	224.87
954.36	224.88
954.66	224.91
954.95	224.94
955.25	224.96
955.55	225.00
955.84	225.00
956.14	225.02
956.44	225.01
956.73	224.97
957.03	224.96
957.32	224.98
957.62	224.93
957.92	224.92
958.21	224.91
958.51	225.02
958.81	225.05
959.10	225.07
959.40	225.11
959.69	225.10
959.99	225.14
960.29	225.16
960.58	225.18
960.88	225.20
961.17	225.19
961.47	225.19
961.76	225.16
962.06	225.16
962.36	225.15
962.65	225.17
962.95	225.20
963.24	225.20
963.54	225.18
963.83	225.17
964.13	225.18
964.42	225.15
964.72	225.08
965.01	225.06
965.31	225.06
965.60	225.04
965.90	225.10
966.19	225.05
966.49	225.07
966.78	225.02
967.08	224.97
967.37	224.95
967.67	224.95
967.96	224.98
968.26	224.95
968.55	224.97
968.85	224.95
969.14	224.94
969.43	224.94
969.73	224.91
970.02	224.93
970.32	224.90
970.61	224.88
970.91	224.85
971.20	224.83
971.49	224.78
971.79	224.79
972.08	224.72
972.38	224.74
972.67	224.66
972.96	224.68
973.26	224.65
973.55	224.67
973.85	224.65
974.14	224.64
974.43	224.67
974.73	224.68
975.02	224.67
975.31	224.68
975.61	224.68
975.90	224.66
976.19	224.66
976.49	224.67
976.78	224.70
977.07	224.70
977.37	224.73
977.66	224.74
977.95	224.70
978.24	224.71
978.54	224.73
978.83	224.75
979.12	224.73
979.42	224.76
979.71	224.74
980.00	224.72
980.29	224.70
980.59	224.67
980.88	224.64
981.17	224.62
981.46	224.58
981.76	224.60
982.05	224.64
982.34	224.64
982.63	224.65
982.93	224.64
983.22	224.69
983.51	224.65
983.80	224.69
984.09	224.71
984.39	224.71
984.68	224.72
984.97	224.71
985.26	224.75
985.55	224.77
985.85	224.73
986.14	224.74
986.43	224.78
986.72	224.77
987.01	224.74
987.30	224.71
987.59	224.73
987.89	224.70
988.18	224.68
988.47	224.67
988.76	224.66
989.05	224.66
989.34	224.63
989.63	224.70
989.92	224.67
990.22	224.64
990.51	224.61
990.80	224.56
991.09	224.61
991.38	224.59
991.67	224.57
991.96	224.58
992.25	224.60
992.54	224.56
992.83	224.57
993.12	224.57
993.41	224.62
993.70	224.64
993.99	224.65
994.28	224.66
994.58	224.67
994.87	224.64
995.16	224.64
995.45	224.64
995.74	224.57
996.03	224.58
996.32	224.62
996.61	224.61
996.90	224.66
997.19	224.65
997.48	224.66
997.77	224.64
998.06	224.64
998.34	224.64
998.63	224.66
998.92	224.64
999.21	224.69
999.50	224.68
999.79	224.68
1000.08	224.68
1000.37	224.67
1000.66	224.65
1000.95	224.69
1001.24	224.69
1001.53	224.70
1001.82	224.72
1002.11	224.69
1002.40	224.68
1002.68	224.72
1002.97	224.77
1003.26	224.75
1003.55	224.75
1003.84	224.80
1004.13	224.85
1004.42	224.84
1004.71	224.84
1004.99	224.84
1005.28	224.84
1005.57	224.86
1005.86	224.86
1006.15	224.82
1006.44	224.85
1006.72	224.84
1007.01	224.82
1007.30	224.83
1007.59	224.81
1007.88	224.78
1008.17	224.82
1008.45	224.83
1008.74	224.81
1009.03	224.75
1009.32	224.79
1009.60	224.77
1009.89	224.75
1010.18	224.72
1010.47	224.72
1010.76	224.72
1011.04	224.74
1011.33	224.78
1011.62	224.77
1011.91	224.77
1012.19	224.81
1012.48	224.80
1012.77	224.82
1013.05	224.91
1013.34	224.93
1013.63	224.93
1013.92	224.97
1014.20	224.94
1014.49	224.94
1014.78	224.95
1015.06	224.96
1015.35	224.90
1015.64	224.90
1015.92	224.94
1016.21	224.95
1016.50	224.93
1016.78	224.95
1017.07	224.98
1017.36	224.96
1017.64	224.94
1017.93	224.96
1018.22	224.96
1018.50	224.95
1018.79	224.95
1019.08	224.89
1019.36	224.86
1019.65	224.87
1019.93	224.86
1020.22	224.91
1020.51	224.96
1020.79	224.93
1021.08	225.05
1021.36	224.54
1021.65	224.53
1021.94	225.17
1022.22	224.74
1022.51	225.05
1022.79	224.96
1023.08	225.44
1023.36	225.88
1023.65	224.26
>>>>>End Processed Spectral Data<<<<<
