SpectraSuite Data File
++++++++++++++++++++++++++++++++++++
Date: Fri Feb 01 15:51:18 EST 2013
User: group
Dark Spectrum Present: No
Reference Spectrum Present: No
Number of Sampled Component Spectra: 1
Spectrometers: USB2E7196
Integration Time (usec): 35000 (USB2E7196)
Spectra Averaged: 100 (USB2E7196)
Boxcar Smoothing: 10 (USB2E7196)
Correct for Electrical Dark: No (USB2E7196)
Strobe/Lamp Enabled: No (USB2E7196)
Correct for Detector Non-linearity: No (USB2E7196)
Correct for Stray Light: No (USB2E7196)
Number of Pixels in Processed Spectrum: 2048
>>>>>Begin Processed Spectral Data<<<<<
339.09	0.00
339.48	215.28
339.86	216.92
340.24	217.40
340.63	218.90
341.01	222.21
341.39	221.99
341.78	223.53
342.16	224.37
342.54	225.16
342.93	213.30
343.31	224.08
343.69	224.58
344.07	225.04
344.46	225.48
344.84	225.88
345.22	226.13
345.60	226.39
345.99	226.58
346.37	226.69
346.75	226.78
347.13	226.84
347.52	226.86
347.90	226.90
348.28	226.92
348.66	226.94
349.05	226.95
349.43	226.99
349.81	227.01
350.19	227.06
350.57	227.12
350.96	227.17
351.34	227.26
351.72	227.33
352.10	227.39
352.48	227.43
352.87	227.45
353.25	227.48
353.63	227.50
354.01	227.52
354.39	227.60
354.77	227.66
355.15	227.73
355.54	227.75
355.92	227.78
356.30	227.84
356.68	227.97
357.06	228.06
357.44	228.11
357.82	228.16
358.20	228.21
358.58	228.29
358.97	228.35
359.35	228.42
359.73	228.49
360.11	228.55
360.49	228.59
360.87	228.67
361.25	228.72
361.63	228.79
362.01	228.83
362.39	228.85
362.77	228.91
363.15	228.96
363.53	229.00
363.91	229.05
364.29	229.05
364.67	228.97
365.05	228.99
365.43	229.01
365.81	229.07
366.19	229.14
366.57	229.15
366.95	229.13
367.33	229.11
367.71	229.08
368.09	229.05
368.47	229.07
368.85	229.03
369.23	229.02
369.61	228.97
369.99	229.01
370.37	228.99
370.75	229.01
371.13	228.95
371.51	228.89
371.89	228.85
372.27	228.84
372.65	228.80
373.03	228.74
373.41	228.70
373.78	228.64
374.16	228.51
374.54	228.42
374.92	228.40
375.30	228.38
375.68	228.32
376.06	228.26
376.44	228.18
376.82	228.12
377.19	228.06
377.57	227.98
377.95	227.88
378.33	227.83
378.71	227.72
379.09	227.67
379.47	227.66
379.84	227.58
380.22	227.51
380.60	227.45
380.98	227.36
381.36	227.26
381.73	227.16
382.11	227.15
382.49	227.09
382.87	226.98
383.25	226.87
383.62	226.96
384.00	226.91
384.38	226.86
384.76	226.83
385.13	226.82
385.51	226.74
385.89	226.66
386.27	226.62
386.64	226.57
387.02	226.52
387.40	226.47
387.78	226.44
388.15	226.39
388.53	226.36
388.91	226.32
389.29	226.31
389.66	226.32
390.04	226.27
390.42	226.28
390.79	226.29
391.17	226.27
391.55	226.13
391.92	226.09
392.30	226.09
392.68	226.09
393.05	226.08
393.43	226.12
393.81	226.12
394.18	226.10
394.56	226.09
394.94	226.13
395.31	226.13
395.69	226.16
396.06	226.21
396.44	226.24
396.82	226.31
397.19	226.36
397.57	226.41
397.95	226.48
398.32	226.52
398.70	226.58
399.07	226.64
399.45	226.70
399.82	226.75
400.20	226.84
400.58	226.91
400.95	226.95
401.33	227.04
401.70	227.20
402.08	227.28
402.45	227.38
402.83	227.48
403.20	227.60
403.58	227.72
403.95	227.87
404.33	228.00
404.71	228.12
405.08	228.33
405.46	228.45
405.83	228.58
406.21	228.72
406.58	228.88
406.96	229.06
407.33	229.23
407.70	229.43
408.08	229.67
408.45	229.88
408.83	230.10
409.20	230.32
409.58	230.52
409.95	230.82
410.33	231.05
410.70	231.31
411.08	231.60
411.45	231.89
411.82	232.16
412.20	232.50
412.57	232.87
412.95	233.13
413.32	233.51
413.69	233.91
414.07	234.34
414.44	234.81
414.82	235.32
415.19	235.87
415.56	236.42
415.94	236.97
416.31	237.62
416.68	238.25
417.06	238.96
417.43	239.63
417.81	240.38
418.18	241.15
418.55	241.98
418.93	242.83
419.30	243.72
419.67	244.66
420.04	245.66
420.42	246.66
420.79	247.89
421.16	249.06
421.54	250.27
421.91	251.54
422.28	252.78
422.66	254.08
423.03	255.39
423.40	256.77
423.77	258.20
424.15	259.59
424.52	261.08
424.89	262.71
425.26	264.28
425.64	265.69
426.01	267.31
426.38	268.95
426.75	270.66
427.13	272.41
427.50	274.25
427.87	276.12
428.24	277.98
428.61	279.69
428.99	281.61
429.36	283.73
429.73	285.76
430.10	287.80
430.47	289.86
430.85	292.01
431.22	294.22
431.59	296.59
431.96	298.86
432.33	301.35
432.70	303.69
433.08	306.52
433.45	309.24
433.82	311.85
434.19	314.76
434.56	317.59
434.93	320.25
435.30	322.87
435.68	325.75
436.05	328.63
436.42	331.42
436.79	333.94
437.16	336.62
437.53	339.41
437.90	342.25
438.27	345.02
438.64	347.78
439.01	350.36
439.38	352.58
439.75	354.76
440.13	357.28
440.50	359.63
440.87	361.48
441.24	363.38
441.61	365.50
441.98	367.01
442.35	368.79
442.72	370.65
443.09	372.48
443.46	373.49
443.83	374.07
444.20	374.61
444.57	375.46
444.94	375.74
445.31	376.14
445.68	376.44
446.05	376.52
446.42	376.21
446.79	375.85
447.16	375.43
447.53	375.10
447.90	373.90
448.27	372.72
448.64	371.12
449.01	369.98
449.37	368.06
449.74	366.16
450.11	363.87
450.48	361.39
450.85	358.81
451.22	356.67
451.59	354.62
451.96	352.69
452.33	350.11
452.70	347.75
453.07	344.86
453.43	341.97
453.80	339.19
454.17	336.45
454.54	333.86
454.91	331.11
455.28	328.44
455.65	325.98
456.02	323.55
456.38	321.41
456.75	318.78
457.12	316.52
457.49	314.28
457.86	312.14
458.23	310.26
458.59	308.24
458.96	306.13
459.33	304.25
459.70	302.36
460.07	300.85
460.43	299.16
460.80	297.59
461.17	296.19
461.54	294.69
461.91	293.32
462.27	291.87
462.64	290.62
463.01	289.27
463.38	287.94
463.74	286.59
464.11	285.42
464.48	284.37
464.85	283.26
465.21	282.40
465.58	281.50
465.95	280.41
466.32	279.51
466.68	278.63
467.05	277.77
467.42	276.89
467.78	275.97
468.15	275.08
468.52	274.36
468.88	273.47
469.25	272.69
469.62	272.07
469.98	271.43
470.35	270.81
470.72	270.22
471.08	269.60
471.45	269.05
471.82	268.53
472.18	267.96
472.55	267.51
472.92	266.98
473.28	266.51
473.65	266.07
474.02	265.64
474.38	265.22
474.75	264.86
475.11	264.51
475.48	264.26
475.85	264.04
476.21	263.84
476.58	263.68
476.94	263.54
477.31	263.36
477.67	263.21
478.04	263.09
478.41	263.03
478.77	263.06
479.14	262.98
479.50	263.02
479.87	263.08
480.23	263.17
480.60	263.24
480.96	263.29
481.33	263.51
481.69	263.70
482.06	263.89
482.42	264.13
482.79	264.38
483.15	264.66
483.52	265.04
483.88	265.37
484.25	265.75
484.61	266.20
484.98	266.67
485.34	267.23
485.71	267.79
486.07	268.44
486.44	269.03
486.80	269.76
487.17	270.46
487.53	271.31
487.90	272.15
488.26	273.09
488.62	274.14
488.99	275.11
489.35	276.15
489.72	277.33
490.08	278.54
490.44	279.78
490.81	281.10
491.17	282.46
491.54	283.96
491.90	285.47
492.26	287.11
492.63	288.80
492.99	290.58
493.36	292.52
493.72	294.57
494.08	296.64
494.45	298.87
494.81	301.23
495.17	303.63
495.54	306.19
495.90	308.85
496.26	311.66
496.63	314.62
496.99	317.74
497.35	321.03
497.72	324.43
498.08	328.02
498.44	331.70
498.80	335.67
499.17	339.77
499.53	343.96
499.89	348.31
500.26	352.88
500.62	357.57
500.98	362.50
501.34	367.53
501.71	372.84
502.07	378.30
502.43	383.92
502.79	389.73
503.16	395.80
503.52	402.08
503.88	408.51
504.24	415.14
504.60	422.02
504.97	429.12
505.33	436.44
505.69	444.09
506.05	451.86
506.41	459.70
506.78	467.79
507.14	476.23
507.50	484.94
507.86	493.97
508.22	503.13
508.59	512.34
508.95	521.96
509.31	531.81
509.67	541.94
510.03	552.22
510.39	562.80
510.75	573.61
511.12	584.53
511.48	595.83
511.84	607.21
512.20	618.76
512.56	630.68
512.92	642.83
513.28	655.14
513.64	667.63
514.00	680.40
514.37	693.35
514.73	706.46
515.09	719.49
515.45	732.78
515.81	746.37
516.17	760.46
516.53	774.55
516.89	788.76
517.25	802.92
517.61	817.41
517.97	831.93
518.33	846.35
518.69	861.16
519.05	876.13
519.41	891.32
519.77	906.87
520.13	922.32
520.49	937.67
520.85	953.14
521.21	968.75
521.57	984.93
521.93	1000.68
522.29	1017.13
522.65	1033.43
523.01	1049.64
523.37	1065.71
523.73	1081.81
524.09	1097.85
524.45	1114.17
524.81	1130.83
525.17	1147.58
525.53	1164.33
525.89	1181.32
526.25	1198.17
526.61	1214.52
526.97	1231.25
527.33	1247.64
527.68	1264.23
528.04	1280.79
528.40	1297.37
528.76	1314.60
529.12	1331.24
529.48	1348.10
529.84	1363.97
530.20	1380.46
530.56	1397.50
530.91	1414.83
531.27	1431.53
531.63	1447.96
531.99	1464.48
532.35	1480.38
532.71	1496.25
533.07	1512.53
533.42	1528.36
533.78	1544.31
534.14	1560.65
534.50	1576.02
534.86	1591.88
535.21	1607.10
535.57	1622.96
535.93	1638.49
536.29	1653.17
536.65	1668.21
537.00	1682.97
537.36	1698.22
537.72	1712.87
538.08	1727.32
538.44	1741.13
538.79	1754.96
539.15	1768.66
539.51	1782.30
539.87	1796.62
540.22	1810.43
540.58	1824.19
540.94	1837.44
541.29	1850.33
541.65	1862.96
542.01	1876.13
542.37	1888.52
542.72	1900.94
543.08	1912.69
543.44	1925.05
543.79	1936.21
544.15	1947.06
544.51	1958.62
544.87	1969.55
545.22	1980.24
545.58	1990.33
545.94	2000.05
546.29	2009.89
546.65	2019.76
547.01	2029.10
547.36	2037.74
547.72	2046.08
548.07	2054.01
548.43	2062.16
548.79	2070.29
549.14	2077.72
549.50	2085.01
549.86	2092.60
550.21	2099.91
550.57	2107.05
550.92	2113.61
551.28	2120.70
551.64	2127.83
551.99	2134.44
552.35	2140.56
552.70	2146.79
553.06	2152.80
553.41	2159.15
553.77	2165.07
554.13	2171.12
554.48	2177.29
554.84	2182.67
555.19	2188.08
555.55	2192.99
555.90	2197.47
556.26	2202.26
556.61	2207.18
556.97	2211.44
557.32	2215.73
557.68	2219.79
558.03	2224.15
558.39	2227.92
558.74	2232.61
559.10	2236.41
559.45	2239.98
559.81	2244.39
560.16	2248.21
560.52	2251.49
560.87	2254.91
561.23	2257.75
561.58	2260.76
561.94	2263.03
562.29	2265.43
562.64	2267.95
563.00	2270.73
563.35	2274.15
563.71	2277.24
564.06	2280.38
564.42	2283.30
564.77	2285.65
565.12	2287.88
565.48	2289.67
565.83	2291.44
566.19	2292.68
566.54	2293.64
566.89	2294.78
567.25	2295.31
567.60	2296.59
567.96	2298.20
568.31	2299.08
568.66	2300.13
569.02	2300.73
569.37	2301.21
569.72	2302.18
570.08	2302.37
570.43	2302.38
570.78	2301.84
571.14	2300.34
571.49	2298.92
571.84	2298.64
572.20	2297.51
572.55	2296.52
572.90	2294.97
573.26	2293.62
573.61	2292.00
573.96	2290.14
574.31	2287.13
574.67	2284.22
575.02	2280.69
575.37	2277.30
575.72	2273.49
576.08	2270.22
576.43	2266.79
576.78	2263.16
577.13	2259.90
577.49	2256.84
577.84	2253.29
578.19	2249.57
578.54	2245.78
578.90	2241.49
579.25	2235.81
579.60	2230.86
579.95	2225.93
580.30	2221.00
580.66	2215.73
581.01	2210.74
581.36	2205.87
581.71	2201.72
582.06	2197.20
582.42	2192.70
582.77	2187.51
583.12	2182.86
583.47	2177.99
583.82	2173.02
584.17	2167.72
584.53	2162.35
584.88	2156.60
585.23	2150.88
585.58	2145.40
585.93	2139.98
586.28	2135.24
586.63	2130.26
586.98	2125.18
587.34	2120.45
587.69	2115.55
588.04	2110.37
588.39	2104.55
588.74	2098.07
589.09	2091.85
589.44	2085.03
589.79	2078.94
590.14	2073.26
590.49	2066.61
590.84	2060.32
591.19	2054.24
591.54	2047.78
591.89	2040.36
592.25	2033.63
592.60	2026.48
592.95	2019.02
593.30	2011.89
593.65	2004.35
594.00	1997.34
594.35	1990.06
594.70	1981.99
595.05	1974.73
595.40	1967.40
595.75	1959.99
596.10	1953.75
596.45	1947.20
596.80	1941.09
597.15	1934.50
597.50	1927.41
597.85	1921.12
598.19	1914.38
598.54	1907.30
598.89	1900.67
599.24	1894.74
599.59	1887.95
599.94	1881.72
600.29	1875.28
600.64	1868.69
600.99	1861.28
601.34	1854.39
601.69	1847.43
602.04	1840.51
602.39	1833.18
602.74	1826.31
603.08	1819.65
603.43	1813.02
603.78	1805.67
604.13	1798.33
604.48	1791.02
604.83	1784.02
605.18	1776.99
605.53	1769.08
605.87	1761.10
606.22	1753.83
606.57	1745.90
606.92	1738.67
607.27	1731.32
607.62	1724.33
607.96	1716.92
608.31	1710.20
608.66	1702.50
609.01	1695.03
609.36	1687.36
609.70	1679.43
610.05	1671.51
610.40	1663.68
610.75	1655.33
611.10	1647.59
611.44	1639.26
611.79	1631.15
612.14	1622.64
612.49	1613.47
612.83	1605.16
613.18	1596.93
613.53	1588.86
613.88	1580.23
614.22	1571.93
614.57	1563.43
614.92	1555.48
615.27	1547.93
615.61	1539.59
615.96	1531.71
616.31	1524.01
616.65	1516.64
617.00	1508.98
617.35	1501.27
617.70	1493.02
618.04	1484.52
618.39	1476.37
618.74	1468.73
619.08	1460.64
619.43	1453.11
619.78	1446.11
620.12	1438.87
620.47	1431.54
620.82	1423.43
621.16	1416.06
621.51	1408.54
621.85	1400.97
622.20	1392.38
622.55	1383.97
622.89	1376.15
623.24	1368.51
623.59	1361.06
623.93	1353.62
624.28	1346.47
624.62	1338.82
624.97	1331.61
625.32	1324.89
625.66	1317.79
626.01	1310.68
626.35	1303.04
626.70	1295.09
627.04	1287.41
627.39	1279.61
627.73	1272.05
628.08	1265.08
628.43	1257.75
628.77	1250.24
629.12	1242.69
629.46	1235.63
629.81	1228.20
630.15	1221.02
630.50	1213.57
630.84	1205.45
631.19	1197.52
631.53	1189.99
631.88	1182.53
632.22	1174.99
632.57	1167.61
632.91	1160.00
633.26	1152.55
633.60	1145.26
633.95	1138.26
634.29	1131.36
634.64	1124.65
634.98	1117.31
635.32	1110.18
635.67	1103.67
636.01	1097.08
636.36	1090.31
636.70	1083.73
637.05	1077.22
637.39	1070.71
637.73	1064.28
638.08	1058.38
638.42	1052.47
638.77	1046.00
639.11	1039.35
639.45	1032.87
639.80	1026.24
640.14	1019.88
640.49	1013.34
640.83	1007.08
641.17	1000.80
641.52	994.36
641.86	987.91
642.20	982.06
642.55	975.73
642.89	969.27
643.23	962.74
643.58	957.03
643.92	950.86
644.26	944.75
644.61	938.79
644.95	932.67
645.29	926.04
645.64	919.28
645.98	912.91
646.32	907.21
646.66	901.18
647.01	895.36
647.35	889.69
647.69	883.85
648.04	878.31
648.38	872.60
648.72	866.64
649.06	860.63
649.41	854.81
649.75	848.86
650.09	842.86
650.43	837.09
650.78	830.70
651.12	824.72
651.46	819.00
651.80	813.16
652.14	807.74
652.49	802.43
652.83	797.14
653.17	791.45
653.51	785.67
653.85	780.32
654.20	774.71
654.54	768.64
654.88	762.94
655.22	757.04
655.56	751.36
655.90	745.89
656.25	740.63
656.59	735.24
656.93	730.18
657.27	724.99
657.61	719.55
657.95	714.52
658.29	709.41
658.64	704.21
658.98	698.95
659.32	693.53
659.66	688.25
660.00	682.95
660.34	678.00
660.68	673.07
661.02	668.07
661.36	663.35
661.70	658.92
662.05	654.58
662.39	650.22
662.73	645.70
663.07	641.36
663.41	636.89
663.75	632.37
664.09	627.81
664.43	623.44
664.77	619.32
665.11	615.12
665.45	611.10
665.79	606.99
666.13	602.86
666.47	598.76
666.81	594.71
667.15	590.62
667.49	586.68
667.83	582.88
668.17	578.91
668.51	574.80
668.85	570.73
669.19	566.89
669.53	563.06
669.87	559.23
670.21	555.46
670.55	551.81
670.89	548.39
671.23	544.90
671.57	541.42
671.91	537.89
672.25	534.37
672.58	530.81
672.92	527.42
673.26	524.27
673.60	521.13
673.94	517.95
674.28	515.05
674.62	512.12
674.96	509.02
675.30	506.16
675.64	503.27
675.97	500.50
676.31	497.52
676.65	494.53
676.99	491.82
677.33	488.94
677.67	486.11
678.01	483.05
678.34	480.08
678.68	477.20
679.02	474.36
679.36	471.59
679.70	468.88
680.04	466.10
680.37	463.15
680.71	460.36
681.05	457.70
681.39	454.98
681.73	452.37
682.06	449.78
682.40	447.15
682.74	444.54
683.08	442.01
683.42	439.48
683.75	437.04
684.09	434.45
684.43	432.02
684.77	429.56
685.10	427.24
685.44	424.93
685.78	422.62
686.12	420.38
686.45	418.08
686.79	415.74
687.13	413.54
687.46	411.38
687.80	409.20
688.14	407.06
688.48	405.03
688.81	402.76
689.15	400.65
689.49	398.54
689.82	396.52
690.16	394.41
690.50	392.44
690.83	390.49
691.17	388.56
691.51	386.58
691.84	384.75
692.18	382.80
692.52	380.81
692.85	378.87
693.19	377.00
693.52	375.19
693.86	373.38
694.20	371.62
694.53	369.86
694.87	368.01
695.21	366.22
695.54	364.37
695.88	362.64
696.21	360.91
696.55	359.22
696.88	357.50
697.22	355.90
697.56	354.28
697.89	352.60
698.23	350.98
698.56	349.41
698.90	347.82
699.23	346.18
699.57	344.66
699.90	343.15
700.24	341.59
700.58	340.04
700.91	338.53
701.25	337.07
701.58	335.73
701.92	334.42
702.25	333.02
702.59	331.63
702.92	330.33
703.26	329.04
703.59	327.71
703.93	326.55
704.26	325.33
704.60	324.04
704.93	322.78
705.26	321.53
705.60	320.38
705.93	319.22
706.27	318.17
706.60	317.05
706.94	316.00
707.27	314.88
707.61	313.83
707.94	312.78
708.27	311.70
708.61	310.59
708.94	309.56
709.28	308.59
709.61	307.68
709.94	306.71
710.28	305.68
710.61	304.72
710.95	303.66
711.28	302.68
711.61	301.75
711.95	300.80
712.28	299.84
712.61	298.84
712.95	297.90
713.28	297.06
713.61	296.19
713.95	295.29
714.28	294.47
714.61	293.60
714.95	292.80
715.28	291.91
715.61	291.03
715.95	290.18
716.28	289.31
716.61	288.46
716.95	287.65
717.28	286.92
717.61	286.17
717.94	285.42
718.28	284.64
718.61	283.94
718.94	283.28
719.27	282.62
719.61	281.98
719.94	281.35
720.27	280.62
720.60	279.98
720.94	279.34
721.27	278.71
721.60	278.14
721.93	277.52
722.27	276.98
722.60	276.44
722.93	275.89
723.26	275.35
723.59	274.82
723.93	274.28
724.26	273.71
724.59	273.11
724.92	272.58
725.25	272.12
725.59	271.53
725.92	271.04
726.25	270.50
726.58	270.04
726.91	269.51
727.24	269.06
727.57	268.59
727.91	268.07
728.24	267.66
728.57	267.15
728.90	266.71
729.23	266.27
729.56	265.83
729.89	265.36
730.22	264.88
730.55	264.43
730.89	263.98
731.22	263.50
731.55	263.09
731.88	262.68
732.21	262.21
732.54	261.82
732.87	261.38
733.20	261.04
733.53	260.63
733.86	260.27
734.19	259.85
734.52	259.46
734.85	259.16
735.18	258.73
735.51	258.39
735.84	258.02
736.17	257.69
736.50	257.31
736.83	257.08
737.16	256.74
737.49	256.35
737.82	255.95
738.15	255.67
738.48	255.36
738.81	255.02
739.14	254.69
739.47	254.37
739.80	254.06
740.13	253.73
740.46	253.41
740.79	253.08
741.12	252.79
741.45	252.49
741.78	252.13
742.11	251.87
742.44	251.54
742.77	251.25
743.10	250.93
743.43	250.63
743.75	250.19
744.08	250.04
744.41	249.78
744.74	249.53
745.07	249.24
745.40	249.01
745.73	248.76
746.06	248.47
746.39	248.19
746.71	247.93
747.04	247.65
747.37	247.36
747.70	247.12
748.03	246.87
748.36	246.61
748.68	246.40
749.01	246.11
749.34	245.89
749.67	245.67
750.00	245.42
750.33	245.27
750.65	245.09
750.98	244.74
751.31	244.52
751.64	244.30
751.97	244.16
752.29	243.92
752.62	243.65
752.95	243.47
753.28	243.25
753.60	242.98
753.93	242.80
754.26	242.62
754.59	242.39
754.91	242.19
755.24	241.99
755.57	241.77
755.90	241.57
756.22	241.37
756.55	241.11
756.88	240.92
757.20	240.68
757.53	240.51
757.86	240.37
758.19	240.20
758.51	240.04
758.84	239.80
759.17	239.63
759.49	239.49
759.82	239.40
760.15	239.26
760.47	239.15
760.80	238.97
761.13	238.83
761.45	238.67
761.78	238.53
762.11	238.42
762.43	238.29
762.76	238.16
763.08	238.04
763.41	237.97
763.74	237.83
764.06	237.70
764.39	237.56
764.71	237.43
765.04	237.30
765.37	237.17
765.69	237.05
766.02	236.93
766.34	236.81
766.67	236.65
767.00	236.55
767.32	236.49
767.65	236.46
767.97	236.36
768.30	236.25
768.62	236.11
768.95	235.95
769.27	235.83
769.60	235.74
769.92	235.62
770.25	235.46
770.57	235.34
770.90	235.22
771.22	235.11
771.55	234.98
771.87	234.88
772.20	234.78
772.52	234.74
772.85	234.77
773.17	234.68
773.50	234.58
773.82	234.49
774.15	234.36
774.47	234.19
774.80	234.10
775.12	234.02
775.45	233.93
775.77	233.87
776.09	233.83
776.42	233.73
776.74	233.70
777.07	233.66
777.39	233.59
777.72	233.49
778.04	233.43
778.36	233.35
778.69	233.30
779.01	233.23
779.33	233.09
779.66	232.93
779.98	232.83
780.31	232.79
780.63	232.77
780.95	232.68
781.28	232.64
781.60	232.56
781.92	232.48
782.25	232.45
782.57	232.39
782.89	232.28
783.22	232.19
783.54	232.08
783.86	232.00
784.19	231.94
784.51	231.93
784.83	231.80
785.16	231.75
785.48	231.66
785.80	231.62
786.12	231.60
786.45	231.54
786.77	231.49
787.09	231.39
787.42	231.26
787.74	231.23
788.06	231.15
788.38	231.07
788.71	231.04
789.03	230.98
789.35	230.95
789.67	230.93
789.99	230.92
790.32	230.86
790.64	230.81
790.96	230.82
791.28	230.76
791.61	230.74
791.93	230.74
792.25	230.69
792.57	230.68
792.89	230.58
793.21	230.56
793.54	230.50
793.86	230.47
794.18	230.47
794.50	230.38
794.82	230.35
795.14	230.32
795.47	230.28
795.79	230.23
796.11	230.15
796.43	230.11
796.75	230.08
797.07	230.07
797.39	230.05
797.71	229.99
798.04	229.97
798.36	229.96
798.68	229.95
799.00	229.93
799.32	229.85
799.64	229.88
799.96	229.85
800.28	229.84
800.60	229.81
800.92	229.78
801.24	229.77
801.56	229.74
801.89	229.72
802.21	229.73
802.53	229.70
802.85	229.69
803.17	229.69
803.49	229.63
803.81	229.60
804.13	229.57
804.45	229.55
804.77	229.52
805.09	229.49
805.41	229.44
805.73	229.39
806.05	229.37
806.37	229.34
806.69	229.31
807.01	229.31
807.33	229.31
807.65	229.26
807.97	229.31
808.28	229.30
808.60	229.31
808.92	229.24
809.24	229.30
809.56	229.30
809.88	229.27
810.20	229.26
810.52	229.26
810.84	229.24
811.16	229.17
811.48	229.15
811.80	229.18
812.12	229.18
812.43	229.22
812.75	229.25
813.07	229.22
813.39	229.19
813.71	229.17
814.03	229.16
814.35	229.14
814.67	229.09
814.98	229.08
815.30	229.04
815.62	229.05
815.94	228.95
816.26	228.98
816.58	228.93
816.89	228.95
817.21	228.92
817.53	228.90
817.85	228.92
818.17	228.94
818.48	228.88
818.80	228.84
819.12	228.80
819.44	228.73
819.76	228.69
820.07	228.68
820.39	228.66
820.71	228.65
821.03	228.64
821.34	228.61
821.66	228.59
821.98	228.58
822.30	228.55
822.61	228.58
822.93	228.50
823.25	228.49
823.57	228.43
823.88	228.46
824.20	228.42
824.52	228.39
824.83	228.35
825.15	228.30
825.47	228.30
825.79	228.29
826.10	228.26
826.42	228.21
826.74	228.19
827.05	228.18
827.37	228.14
827.69	228.11
828.00	228.07
828.32	228.05
828.64	228.01
828.95	228.06
829.27	228.02
829.58	227.98
829.90	227.96
830.22	227.94
830.53	227.86
830.85	227.83
831.17	227.81
831.48	227.76
831.80	227.75
832.11	227.71
832.43	227.70
832.75	227.70
833.06	227.76
833.38	227.71
833.69	227.67
834.01	227.67
834.32	227.69
834.64	227.68
834.96	227.69
835.27	227.68
835.59	227.64
835.90	227.65
836.22	227.69
836.53	227.70
836.85	227.73
837.16	227.85
837.48	227.87
837.79	227.90
838.11	227.92
838.42	227.92
838.74	227.93
839.05	227.89
839.37	227.90
839.68	227.85
840.00	227.85
840.31	227.87
840.63	227.84
840.94	227.82
841.26	227.82
841.57	227.81
841.88	227.82
842.20	227.81
842.51	227.77
842.83	227.73
843.14	227.80
843.46	227.77
843.77	227.69
844.08	227.69
844.40	227.65
844.71	227.64
845.03	227.63
845.34	227.63
845.65	227.62
845.97	227.62
846.28	227.60
846.60	227.60
846.91	227.56
847.22	227.56
847.54	227.61
847.85	227.60
848.16	227.59
848.48	227.58
848.79	227.59
849.10	227.61
849.42	227.61
849.73	227.51
850.04	227.52
850.36	227.50
850.67	227.49
850.98	227.53
851.30	227.50
851.61	227.51
851.92	227.51
852.23	227.55
852.55	227.54
852.86	227.58
853.17	227.61
853.49	227.64
853.80	227.65
854.11	227.63
854.42	227.67
854.74	227.68
855.05	227.69
855.36	227.62
855.67	227.60
855.99	227.61
856.30	227.72
856.61	227.69
856.92	227.67
857.23	227.63
857.55	227.58
857.86	227.60
858.17	227.60
858.48	227.58
858.79	227.57
859.11	227.56
859.42	227.52
859.73	227.48
860.04	227.46
860.35	227.43
860.66	227.40
860.98	227.36
861.29	227.37
861.60	227.34
861.91	227.35
862.22	227.32
862.53	227.29
862.84	227.17
863.16	227.19
863.47	227.18
863.78	227.18
864.09	227.18
864.40	227.12
864.71	227.12
865.02	227.14
865.33	227.11
865.64	227.10
865.95	227.12
866.27	227.18
866.58	227.15
866.89	227.14
867.20	227.11
867.51	227.09
867.82	227.05
868.13	227.07
868.44	227.04
868.75	227.06
869.06	227.06
869.37	227.05
869.68	227.03
869.99	227.02
870.30	227.01
870.61	227.03
870.92	227.04
871.23	227.01
871.54	226.97
871.85	226.98
872.16	227.01
872.47	226.98
872.78	226.90
873.09	226.89
873.40	226.86
873.71	226.89
874.02	226.93
874.33	226.91
874.64	226.88
874.95	226.93
875.26	226.93
875.56	226.96
875.87	226.98
876.18	226.97
876.49	227.08
876.80	227.07
877.11	227.07
877.42	227.10
877.73	227.15
878.04	227.17
878.35	227.18
878.66	227.16
878.96	227.17
879.27	227.17
879.58	227.20
879.89	227.23
880.20	227.26
880.51	227.24
880.82	227.25
881.12	227.29
881.43	227.30
881.74	227.33
882.05	227.31
882.36	227.32
882.67	227.34
882.97	227.25
883.28	227.28
883.59	227.28
883.90	227.31
884.21	227.32
884.51	227.26
884.82	227.28
885.13	227.29
885.44	227.30
885.74	227.32
886.05	227.33
886.36	227.31
886.67	227.26
886.98	227.30
887.28	227.30
887.59	227.27
887.90	227.25
888.20	227.21
888.51	227.23
888.82	227.21
889.13	227.24
889.43	227.30
889.74	227.27
890.05	227.24
890.35	227.21
890.66	227.17
890.97	227.20
891.28	227.19
891.58	227.15
891.89	227.13
892.20	227.12
892.50	227.12
892.81	227.15
893.12	227.12
893.42	227.11
893.73	227.11
894.04	227.12
894.34	227.11
894.65	227.09
894.95	227.07
895.26	227.08
895.57	227.09
895.87	227.02
896.18	227.02
896.48	227.01
896.79	227.01
897.10	227.01
897.40	227.02
897.71	227.01
898.01	227.01
898.32	227.02
898.63	227.05
898.93	227.04
899.24	227.04
899.54	227.03
899.85	227.02
900.15	227.00
900.46	226.94
900.76	226.96
901.07	226.95
901.38	226.96
901.68	226.94
901.99	226.89
902.29	226.88
902.60	226.88
902.90	226.86
903.21	226.86
903.51	226.85
903.82	226.87
904.12	226.84
904.43	226.87
904.73	226.84
905.03	226.80
905.34	226.88
905.64	226.87
905.95	226.88
906.25	226.87
906.56	226.89
906.86	226.92
907.17	226.93
907.47	226.94
907.77	226.92
908.08	226.90
908.38	226.90
908.69	226.89
908.99	226.93
909.30	226.94
909.60	226.94
909.90	226.95
910.21	226.92
910.51	226.92
910.81	226.90
911.12	226.90
911.42	226.92
911.73	226.83
912.03	226.81
912.33	226.86
912.64	226.84
912.94	226.86
913.24	226.88
913.55	226.89
913.85	226.89
914.15	226.92
914.46	226.94
914.76	226.95
915.06	226.99
915.37	226.97
915.67	226.98
915.97	226.96
916.27	226.95
916.58	227.00
916.88	227.00
917.18	226.98
917.49	227.07
917.79	227.08
918.09	227.09
918.39	227.15
918.70	227.13
919.00	227.14
919.30	227.18
919.60	227.17
919.91	227.13
920.21	227.14
920.51	227.12
920.81	227.12
921.12	227.14
921.42	227.10
921.72	227.08
922.02	227.08
922.32	227.11
922.63	227.11
922.93	227.16
923.23	227.20
923.53	227.18
923.83	227.15
924.13	227.14
924.44	227.13
924.74	227.10
925.04	227.12
925.34	227.12
925.64	227.07
925.94	227.08
926.24	227.15
926.55	227.12
926.85	227.12
927.15	227.12
927.45	227.09
927.75	227.07
928.05	227.06
928.35	227.06
928.65	227.05
928.95	227.09
929.26	227.03
929.56	227.01
929.86	226.99
930.16	226.93
930.46	226.91
930.76	226.93
931.06	226.90
931.36	226.85
931.66	226.86
931.96	226.86
932.26	226.84
932.56	226.75
932.86	226.74
933.16	226.73
933.46	226.69
933.76	226.70
934.06	226.75
934.36	226.81
934.66	226.83
934.96	226.80
935.26	226.76
935.56	226.75
935.86	226.74
936.16	226.76
936.46	226.77
936.76	226.78
937.06	226.77
937.36	226.79
937.66	226.80
937.96	226.76
938.26	226.74
938.56	226.74
938.86	226.75
939.16	226.81
939.46	226.82
939.76	226.87
940.06	226.87
940.35	226.83
940.65	226.76
940.95	226.74
941.25	226.74
941.55	226.76
941.85	226.75
942.15	226.76
942.45	226.77
942.75	226.76
943.04	226.79
943.34	226.78
943.64	226.77
943.94	226.77
944.24	226.80
944.54	226.81
944.84	226.82
945.13	226.86
945.43	226.83
945.73	226.80
946.03	226.76
946.33	226.76
946.62	226.77
946.92	226.78
947.22	226.79
947.52	226.79
947.82	226.81
948.11	226.83
948.41	226.83
948.71	226.81
949.01	226.86
949.31	226.82
949.60	226.83
949.90	226.86
950.20	226.87
950.50	226.87
950.79	226.85
951.09	226.85
951.39	226.84
951.69	226.85
951.98	226.89
952.28	226.93
952.58	226.92
952.87	226.94
953.17	226.96
953.47	226.96
953.76	226.96
954.06	226.96
954.36	226.93
954.66	226.93
954.95	226.96
955.25	226.96
955.55	226.99
955.84	226.97
956.14	226.97
956.44	226.99
956.73	226.97
957.03	226.98
957.32	226.98
957.62	226.95
957.92	226.97
958.21	226.97
958.51	227.04
958.81	227.06
959.10	227.03
959.40	227.02
959.69	227.00
959.99	227.00
960.29	226.97
960.58	227.01
960.88	227.04
961.17	227.03
961.47	227.06
961.76	227.03
962.06	227.06
962.36	227.02
962.65	227.02
962.95	227.02
963.24	227.00
963.54	226.98
963.83	227.00
964.13	226.97
964.42	226.92
964.72	226.83
965.01	226.84
965.31	226.84
965.60	226.85
965.90	226.91
966.19	226.92
966.49	226.90
966.78	226.87
967.08	226.82
967.37	226.79
967.67	226.75
967.96	226.74
968.26	226.73
968.55	226.73
968.85	226.71
969.14	226.68
969.43	226.68
969.73	226.70
970.02	226.68
970.32	226.67
970.61	226.66
970.91	226.66
971.20	226.61
971.49	226.62
971.79	226.60
972.08	226.54
972.38	226.53
972.67	226.51
972.96	226.52
973.26	226.51
973.55	226.55
973.85	226.52
974.14	226.51
974.43	226.51
974.73	226.53
975.02	226.49
975.31	226.52
975.61	226.49
975.90	226.49
976.19	226.48
976.49	226.51
976.78	226.54
977.07	226.54
977.37	226.56
977.66	226.55
977.95	226.54
978.24	226.56
978.54	226.58
978.83	226.60
979.12	226.59
979.42	226.60
979.71	226.59
980.00	226.59
980.29	226.64
980.59	226.61
980.88	226.62
981.17	226.65
981.46	226.67
981.76	226.73
982.05	226.71
982.34	226.71
982.63	226.72
982.93	226.68
983.22	226.72
983.51	226.72
983.80	226.76
984.09	226.75
984.39	226.75
984.68	226.76
984.97	226.77
985.26	226.78
985.55	226.80
985.85	226.79
986.14	226.80
986.43	226.79
986.72	226.80
987.01	226.79
987.30	226.78
987.59	226.76
987.89	226.74
988.18	226.74
988.47	226.75
988.76	226.75
989.05	226.74
989.34	226.74
989.63	226.78
989.92	226.77
990.22	226.77
990.51	226.78
990.80	226.76
991.09	226.76
991.38	226.79
991.67	226.74
991.96	226.77
992.25	226.77
992.54	226.72
992.83	226.74
993.12	226.75
993.41	226.78
993.70	226.83
993.99	226.86
994.28	226.89
994.58	226.89
994.87	226.84
995.16	226.85
995.45	226.83
995.74	226.79
996.03	226.80
996.32	226.83
996.61	226.81
996.90	226.80
997.19	226.81
997.48	226.76
997.77	226.79
998.06	226.74
998.34	226.75
998.63	226.78
998.92	226.74
999.21	226.74
999.50	226.70
999.79	226.63
1000.08	226.60
1000.37	226.58
1000.66	226.55
1000.95	226.58
1001.24	226.59
1001.53	226.61
1001.82	226.59
1002.11	226.54
1002.40	226.55
1002.68	226.58
1002.97	226.64
1003.26	226.64
1003.55	226.61
1003.84	226.59
1004.13	226.62
1004.42	226.61
1004.71	226.60
1004.99	226.60
1005.28	226.64
1005.57	226.65
1005.86	226.65
1006.15	226.65
1006.44	226.59
1006.72	226.59
1007.01	226.59
1007.30	226.59
1007.59	226.55
1007.88	226.55
1008.17	226.56
1008.45	226.52
1008.74	226.50
1009.03	226.42
1009.32	226.37
1009.60	226.40
1009.89	226.38
1010.18	226.34
1010.47	226.35
1010.76	226.34
1011.04	226.35
1011.33	226.31
1011.62	226.27
1011.91	226.28
1012.19	226.29
1012.48	226.31
1012.77	226.34
1013.05	226.40
1013.34	226.36
1013.63	226.36
1013.92	226.38
1014.20	226.38
1014.49	226.36
1014.78	226.36
1015.06	226.35
1015.35	226.37
1015.64	226.39
1015.92	226.41
1016.21	226.43
1016.50	226.44
1016.78	226.46
1017.07	226.46
1017.36	226.46
1017.64	226.49
1017.93	226.53
1018.22	226.52
1018.50	226.53
1018.79	226.53
1019.08	226.50
1019.36	226.54
1019.65	226.53
1019.93	226.56
1020.22	226.57
1020.51	226.62
1020.79	226.60
1021.08	226.26
1021.36	226.30
1021.65	226.79
1021.94	226.87
1022.22	226.76
1022.51	226.21
1022.79	227.21
1023.08	226.49
1023.36	227.33
1023.65	226.22
>>>>>End Processed Spectral Data<<<<<
