SpectraSuite Data File
++++++++++++++++++++++++++++++++++++
Date: Fri Feb 01 14:52:18 EST 2013
User: group
Dark Spectrum Present: No
Reference Spectrum Present: No
Number of Sampled Component Spectra: 1
Spectrometers: USB2E7196
Integration Time (usec): 35000 (USB2E7196)
Spectra Averaged: 100 (USB2E7196)
Boxcar Smoothing: 10 (USB2E7196)
Correct for Electrical Dark: No (USB2E7196)
Strobe/Lamp Enabled: No (USB2E7196)
Correct for Detector Non-linearity: No (USB2E7196)
Correct for Stray Light: No (USB2E7196)
Number of Pixels in Processed Spectrum: 2048
>>>>>Begin Processed Spectral Data<<<<<
339.09	0.00
339.48	215.68
339.86	217.08
340.24	218.40
340.63	220.09
341.01	222.59
341.39	222.80
341.78	224.66
342.16	225.10
342.54	225.62
342.93	214.01
343.31	224.80
343.69	225.34
344.07	225.80
344.46	226.23
344.84	226.60
345.22	226.82
345.60	227.07
345.99	227.23
346.37	227.35
346.75	227.46
347.13	227.52
347.52	227.55
347.90	227.57
348.28	227.60
348.66	227.64
349.05	227.61
349.43	227.62
349.81	227.65
350.19	227.70
350.57	227.77
350.96	227.84
351.34	227.95
351.72	228.04
352.10	228.14
352.48	228.22
352.87	228.29
353.25	228.34
353.63	228.39
354.01	228.46
354.39	228.54
354.77	228.59
355.15	228.71
355.54	228.78
355.92	228.83
356.30	228.89
356.68	229.03
357.06	229.11
357.44	229.15
357.82	229.19
358.20	229.25
358.58	229.34
358.97	229.39
359.35	229.41
359.73	229.49
360.11	229.54
360.49	229.62
360.87	229.66
361.25	229.73
361.63	229.81
362.01	229.83
362.39	229.88
362.77	229.89
363.15	229.89
363.53	229.94
363.91	229.96
364.29	230.00
364.67	229.94
365.05	229.96
365.43	229.99
365.81	230.01
366.19	230.04
366.57	230.02
366.95	230.01
367.33	230.01
367.71	229.98
368.09	229.99
368.47	229.94
368.85	229.93
369.23	229.91
369.61	229.81
369.99	229.83
370.37	229.77
370.75	229.79
371.13	229.72
371.51	229.64
371.89	229.62
372.27	229.56
372.65	229.50
373.03	229.44
373.41	229.39
373.78	229.31
374.16	229.20
374.54	229.11
374.92	229.05
375.30	228.99
375.68	228.88
376.06	228.78
376.44	228.67
376.82	228.58
377.19	228.52
377.57	228.48
377.95	228.33
378.33	228.24
378.71	228.11
379.09	228.09
379.47	228.04
379.84	227.95
380.22	227.88
380.60	227.79
380.98	227.71
381.36	227.61
381.73	227.53
382.11	227.47
382.49	227.41
382.87	227.29
383.25	227.19
383.62	227.27
384.00	227.19
384.38	227.15
384.76	227.11
385.13	227.06
385.51	226.98
385.89	226.97
386.27	226.92
386.64	226.89
387.02	226.80
387.40	226.73
387.78	226.68
388.15	226.63
388.53	226.59
388.91	226.55
389.29	226.52
389.66	226.52
390.04	226.47
390.42	226.49
390.79	226.51
391.17	226.49
391.55	226.35
391.92	226.33
392.30	226.35
392.68	226.32
393.05	226.32
393.43	226.33
393.81	226.33
394.18	226.33
394.56	226.34
394.94	226.43
395.31	226.46
395.69	226.50
396.06	226.53
396.44	226.57
396.82	226.59
397.19	226.68
397.57	226.71
397.95	226.80
398.32	226.83
398.70	226.89
399.07	226.99
399.45	227.08
399.82	227.19
400.20	227.25
400.58	227.33
400.95	227.39
401.33	227.54
401.70	227.70
402.08	227.81
402.45	227.95
402.83	228.07
403.20	228.22
403.58	228.37
403.95	228.52
404.33	228.68
404.71	228.84
405.08	229.04
405.46	229.21
405.83	229.35
406.21	229.52
406.58	229.70
406.96	229.89
407.33	230.11
407.70	230.28
408.08	230.56
408.45	230.79
408.83	231.01
409.20	231.22
409.58	231.41
409.95	231.72
410.33	231.97
410.70	232.20
411.08	232.47
411.45	232.78
411.82	233.08
412.20	233.43
412.57	233.85
412.95	234.16
413.32	234.56
413.69	234.95
414.07	235.39
414.44	235.91
414.82	236.38
415.19	236.94
415.56	237.50
415.94	238.03
416.31	238.69
416.68	239.34
417.06	240.02
417.43	240.73
417.81	241.47
418.18	242.27
418.55	243.14
418.93	244.02
419.30	244.91
419.67	245.87
420.04	246.84
420.42	247.82
420.79	249.01
421.16	250.16
421.54	251.37
421.91	252.56
422.28	253.76
422.66	255.07
423.03	256.33
423.40	257.66
423.77	259.08
424.15	260.48
424.52	261.94
424.89	263.52
425.26	265.02
425.64	266.49
426.01	268.08
426.38	269.72
426.75	271.38
427.13	273.09
427.50	274.87
427.87	276.72
428.24	278.57
428.61	280.31
428.99	282.24
429.36	284.33
429.73	286.38
430.10	288.40
430.47	290.47
430.85	292.59
431.22	294.79
431.59	297.19
431.96	299.43
432.33	301.92
432.70	304.32
433.08	307.13
433.45	309.73
433.82	312.34
434.19	315.20
434.56	318.01
434.93	320.63
435.30	323.26
435.68	326.16
436.05	328.99
436.42	331.76
436.79	334.28
437.16	336.98
437.53	339.84
437.90	342.63
438.27	345.36
438.64	348.19
439.01	350.82
439.38	353.06
439.75	355.22
440.13	357.71
440.50	360.09
440.87	361.93
441.24	363.90
441.61	366.03
441.98	367.50
442.35	369.27
442.72	371.14
443.09	372.96
443.46	373.93
443.83	374.50
444.20	375.01
444.57	375.87
444.94	376.14
445.31	376.43
445.68	376.81
446.05	376.86
446.42	376.47
446.79	376.04
447.16	375.55
447.53	375.25
447.90	374.07
448.27	372.88
448.64	371.33
449.01	370.14
449.37	368.18
449.74	366.29
450.11	364.06
450.48	361.59
450.85	359.05
451.22	356.92
451.59	354.90
451.96	353.00
452.33	350.39
452.70	348.04
453.07	345.23
453.43	342.33
453.80	339.59
454.17	336.92
454.54	334.39
454.91	331.72
455.28	329.01
455.65	326.51
456.02	324.08
456.38	321.88
456.75	319.24
457.12	316.99
457.49	314.82
457.86	312.65
458.23	310.81
458.59	308.74
458.96	306.67
459.33	304.83
459.70	302.94
460.07	301.45
460.43	299.75
460.80	298.12
461.17	296.71
461.54	295.20
461.91	293.77
462.27	292.32
462.64	291.06
463.01	289.74
463.38	288.45
463.74	287.05
464.11	285.91
464.48	284.88
464.85	283.79
465.21	282.87
465.58	281.96
465.95	280.87
466.32	279.98
466.68	279.08
467.05	278.16
467.42	277.31
467.78	276.34
468.15	275.49
468.52	274.81
468.88	273.95
469.25	273.21
469.62	272.58
469.98	271.87
470.35	271.22
470.72	270.61
471.08	269.99
471.45	269.43
471.82	268.86
472.18	268.29
472.55	267.86
472.92	267.33
473.28	266.85
473.65	266.41
474.02	265.97
474.38	265.59
474.75	265.25
475.11	264.88
475.48	264.64
475.85	264.36
476.21	264.14
476.58	263.92
476.94	263.77
477.31	263.61
477.67	263.42
478.04	263.28
478.41	263.19
478.77	263.19
479.14	263.14
479.50	263.16
479.87	263.21
480.23	263.28
480.60	263.36
480.96	263.48
481.33	263.67
481.69	263.84
482.06	264.02
482.42	264.20
482.79	264.42
483.15	264.71
483.52	265.09
483.88	265.44
484.25	265.83
484.61	266.22
484.98	266.64
485.34	267.23
485.71	267.80
486.07	268.39
486.44	268.95
486.80	269.63
487.17	270.35
487.53	271.15
487.90	271.96
488.26	272.86
488.62	273.77
488.99	274.71
489.35	275.74
489.72	276.82
490.08	278.04
490.44	279.26
490.81	280.55
491.17	281.87
491.54	283.33
491.90	284.84
492.26	286.49
492.63	288.21
492.99	289.97
493.36	291.87
493.72	293.88
494.08	295.96
494.45	298.20
494.81	300.52
495.17	302.88
495.54	305.45
495.90	308.11
496.26	310.89
496.63	313.80
496.99	316.92
497.35	320.17
497.72	323.53
498.08	327.03
498.44	330.64
498.80	334.49
499.17	338.51
499.53	342.60
499.89	346.93
500.26	351.39
500.62	356.01
500.98	360.97
501.34	366.02
501.71	371.31
502.07	376.71
502.43	382.27
502.79	388.10
503.16	394.12
503.52	400.34
503.88	406.72
504.24	413.33
504.60	420.15
504.97	427.23
505.33	434.47
505.69	442.12
506.05	449.95
506.41	457.80
506.78	465.90
507.14	474.33
507.50	482.98
507.86	491.97
508.22	501.15
508.59	510.22
508.95	519.76
509.31	529.49
509.67	539.57
510.03	549.82
510.39	560.38
510.75	571.18
511.12	582.05
511.48	593.27
511.84	604.67
512.20	616.23
512.56	628.18
512.92	640.37
513.28	652.65
513.64	665.07
514.00	677.80
514.37	690.68
514.73	703.75
515.09	716.80
515.45	730.13
515.81	743.76
516.17	757.78
516.53	771.94
516.89	786.16
517.25	800.32
517.61	814.70
517.97	829.08
518.33	843.54
518.69	858.42
519.05	873.49
519.41	888.73
519.77	904.26
520.13	919.79
520.49	935.16
520.85	950.63
521.21	966.42
521.57	982.71
521.93	998.55
522.29	1014.91
522.65	1031.23
523.01	1047.38
523.37	1063.43
523.73	1079.76
524.09	1095.93
524.45	1112.23
524.81	1128.92
525.17	1145.81
525.53	1162.77
525.89	1179.59
526.25	1196.38
526.61	1212.76
526.97	1229.53
527.33	1246.05
527.68	1262.65
528.04	1279.24
528.40	1295.96
528.76	1312.98
529.12	1329.62
529.48	1346.48
529.84	1362.50
530.20	1379.10
530.56	1396.21
530.91	1413.60
531.27	1430.33
531.63	1446.84
531.99	1463.56
532.35	1479.59
532.71	1495.49
533.07	1511.77
533.42	1527.70
533.78	1543.79
534.14	1560.03
534.50	1575.40
534.86	1591.33
535.21	1606.35
535.57	1622.41
535.93	1637.88
536.29	1652.73
536.65	1668.01
537.00	1682.98
537.36	1698.40
537.72	1713.07
538.08	1727.59
538.44	1741.38
538.79	1755.36
539.15	1769.25
539.51	1783.13
539.87	1797.58
540.22	1811.44
540.58	1825.21
540.94	1838.73
541.29	1851.84
541.65	1864.69
542.01	1877.96
542.37	1890.32
542.72	1902.93
543.08	1914.70
543.44	1927.17
543.79	1938.51
544.15	1949.39
544.51	1960.80
544.87	1971.77
545.22	1982.52
545.58	1992.70
545.94	2002.64
546.29	2012.50
546.65	2022.26
547.01	2031.36
547.36	2040.07
547.72	2048.58
548.07	2056.59
548.43	2064.65
548.79	2072.50
549.14	2079.99
549.50	2087.41
549.86	2095.10
550.21	2102.44
550.57	2109.59
550.92	2116.17
551.28	2123.19
551.64	2130.19
551.99	2136.82
552.35	2143.14
552.70	2149.27
553.06	2155.18
553.41	2161.38
553.77	2167.35
554.13	2173.28
554.48	2179.34
554.84	2184.60
555.19	2189.91
555.55	2195.00
555.90	2199.44
556.26	2204.34
556.61	2208.98
556.97	2213.16
557.32	2217.26
557.68	2221.32
558.03	2225.45
558.39	2229.11
558.74	2233.61
559.10	2237.31
559.45	2240.89
559.81	2245.07
560.16	2248.77
560.52	2251.85
560.87	2255.33
561.23	2257.79
561.58	2260.66
561.94	2263.11
562.29	2265.43
562.64	2267.91
563.00	2270.39
563.35	2273.82
563.71	2276.86
564.06	2279.92
564.42	2282.62
564.77	2284.95
565.12	2287.16
565.48	2288.93
565.83	2290.58
566.19	2291.74
566.54	2292.70
566.89	2293.76
567.25	2294.12
567.60	2295.38
567.96	2297.26
568.31	2297.68
568.66	2298.59
569.02	2298.95
569.37	2299.08
569.72	2299.70
570.08	2299.64
570.43	2299.38
570.78	2298.36
571.14	2296.59
571.49	2295.15
571.84	2294.67
572.20	2293.07
572.55	2291.78
572.90	2289.96
573.26	2288.33
573.61	2286.29
573.96	2284.14
574.31	2280.87
574.67	2277.68
575.02	2273.63
575.37	2269.73
575.72	2265.79
576.08	2262.25
576.43	2258.81
576.78	2255.00
577.13	2251.70
577.49	2248.26
577.84	2244.63
578.19	2240.82
578.54	2236.80
578.90	2232.40
579.25	2226.69
579.60	2221.78
579.95	2216.42
580.30	2211.18
580.66	2205.83
581.01	2200.77
581.36	2195.88
581.71	2191.46
582.06	2186.73
582.42	2182.27
582.77	2176.88
583.12	2172.06
583.47	2167.13
583.82	2161.94
584.17	2156.60
584.53	2150.92
584.88	2145.26
585.23	2139.31
585.58	2133.87
585.93	2128.26
586.28	2123.20
586.63	2117.85
586.98	2112.51
587.34	2107.71
587.69	2102.77
588.04	2097.40
588.39	2091.48
588.74	2084.73
589.09	2078.50
589.44	2071.68
589.79	2065.27
590.14	2059.36
590.49	2052.73
590.84	2046.07
591.19	2039.76
591.54	2033.01
591.89	2025.37
592.25	2018.31
592.60	2011.00
592.95	2003.10
593.30	1995.78
593.65	1988.02
594.00	1980.77
594.35	1973.33
594.70	1965.23
595.05	1957.97
595.40	1950.51
595.75	1943.06
596.10	1936.65
596.45	1929.67
596.80	1923.25
597.15	1916.61
597.50	1909.66
597.85	1903.22
598.19	1896.71
598.54	1889.63
598.89	1883.05
599.24	1877.12
599.59	1870.57
599.94	1864.26
600.29	1858.01
600.64	1851.35
600.99	1843.91
601.34	1837.19
601.69	1830.34
602.04	1823.41
602.39	1815.93
602.74	1809.21
603.08	1802.49
603.43	1795.90
603.78	1788.80
604.13	1781.64
604.48	1774.52
604.83	1767.58
605.18	1760.70
605.53	1752.64
605.87	1744.57
606.22	1737.38
606.57	1729.43
606.92	1722.10
607.27	1714.89
607.62	1707.92
607.96	1700.73
608.31	1694.25
608.66	1686.54
609.01	1679.02
609.36	1671.61
609.70	1663.69
610.05	1655.70
610.40	1648.11
610.75	1639.77
611.10	1632.05
611.44	1623.81
611.79	1615.84
612.14	1607.18
612.49	1598.06
612.83	1589.95
613.18	1582.04
613.53	1573.86
613.88	1565.60
614.22	1557.36
614.57	1548.78
614.92	1540.98
615.27	1533.57
615.61	1525.30
615.96	1517.53
616.31	1510.03
616.65	1502.67
617.00	1495.26
617.35	1487.59
617.70	1479.28
618.04	1470.89
618.39	1462.85
618.74	1455.30
619.08	1447.12
619.43	1439.71
619.78	1432.96
620.12	1425.79
620.47	1418.23
620.82	1410.27
621.16	1402.89
621.51	1395.37
621.85	1388.05
622.20	1379.65
622.55	1371.34
622.89	1363.62
623.24	1356.08
623.59	1348.80
623.93	1341.39
624.28	1334.18
624.62	1326.73
624.97	1319.62
625.32	1312.91
625.66	1305.89
626.01	1298.76
626.35	1291.45
626.70	1283.83
627.04	1276.08
627.39	1268.31
627.73	1261.05
628.08	1254.14
628.43	1246.92
628.77	1239.62
629.12	1232.05
629.46	1224.69
629.81	1217.24
630.15	1209.95
630.50	1202.58
630.84	1194.39
631.19	1186.42
631.53	1178.99
631.88	1171.53
632.22	1164.02
632.57	1156.76
632.91	1149.30
633.26	1141.96
633.60	1134.58
633.95	1127.58
634.29	1120.61
634.64	1114.06
634.98	1106.74
635.32	1099.71
635.67	1093.22
636.01	1086.68
636.36	1080.04
636.70	1073.78
637.05	1067.37
637.39	1061.09
637.73	1054.73
638.08	1049.07
638.42	1043.24
638.77	1036.90
639.11	1030.43
639.45	1024.14
639.80	1017.61
640.14	1011.24
640.49	1004.78
640.83	998.54
641.17	992.36
641.52	986.09
641.86	979.71
642.20	974.00
642.55	967.81
642.89	961.37
643.23	954.93
643.58	949.20
643.92	942.99
644.26	937.01
644.61	931.03
644.95	925.03
645.29	918.38
645.64	911.74
645.98	905.45
646.32	899.63
646.66	893.61
647.01	887.85
647.35	882.28
647.69	876.56
648.04	871.12
648.38	865.33
648.72	859.43
649.06	853.53
649.41	847.66
649.75	841.71
650.09	835.81
650.43	830.02
650.78	823.90
651.12	818.06
651.46	812.31
651.80	806.66
652.14	801.28
652.49	796.10
652.83	790.96
653.17	785.41
653.51	779.74
653.85	774.36
654.20	768.78
654.54	762.81
654.88	757.06
655.22	751.21
655.56	745.58
655.90	740.12
656.25	734.87
656.59	729.54
656.93	724.57
657.27	719.47
657.61	714.12
657.95	709.10
658.29	704.08
658.64	698.91
658.98	693.67
659.32	688.27
659.66	683.01
660.00	677.75
660.34	672.83
660.68	668.00
661.02	663.04
661.36	658.39
661.70	653.97
662.05	649.70
662.39	645.44
662.73	641.02
663.07	636.74
663.41	632.36
663.75	627.95
664.09	623.38
664.43	619.01
664.77	614.92
665.11	610.72
665.45	606.70
665.79	602.73
666.13	598.64
666.47	594.61
666.81	590.48
667.15	586.50
667.49	582.66
667.83	578.89
668.17	575.03
668.51	571.05
668.85	567.04
669.19	563.24
669.53	559.44
669.87	555.66
670.21	552.02
670.55	548.44
670.89	545.06
671.23	541.69
671.57	538.35
671.91	534.93
672.25	531.48
672.58	527.93
672.92	524.51
673.26	521.41
673.60	518.28
673.94	515.27
674.28	512.35
674.62	509.43
674.96	506.38
675.30	503.48
675.64	500.63
675.97	497.94
676.31	495.12
676.65	492.24
676.99	489.53
677.33	486.67
677.67	483.90
678.01	480.91
678.34	477.99
678.68	475.09
679.02	472.28
679.36	469.52
679.70	466.84
680.04	464.11
680.37	461.25
680.71	458.50
681.05	455.94
681.39	453.20
681.73	450.55
682.06	448.05
682.40	445.59
682.74	443.05
683.08	440.55
683.42	437.98
683.75	435.53
684.09	432.98
684.43	430.60
684.77	428.14
685.10	425.79
685.44	423.46
685.78	421.16
686.12	418.95
686.45	416.73
686.79	414.45
687.13	412.35
687.46	410.22
687.80	408.10
688.14	405.88
688.48	403.93
688.81	401.69
689.15	399.50
689.49	397.36
689.82	395.30
690.16	393.20
690.50	391.26
690.83	389.37
691.17	387.42
691.51	385.47
691.84	383.63
692.18	381.75
692.52	379.83
692.85	377.95
693.19	376.11
693.52	374.30
693.86	372.51
694.20	370.68
694.53	368.94
694.87	367.13
695.21	365.35
695.54	363.55
695.88	361.85
696.21	360.18
696.55	358.55
696.88	356.87
697.22	355.22
697.56	353.59
697.89	351.90
698.23	350.30
698.56	348.70
698.90	347.13
699.23	345.48
699.57	343.88
699.90	342.35
700.24	340.80
700.58	339.30
700.91	337.83
701.25	336.40
701.58	335.01
701.92	333.67
702.25	332.31
702.59	330.99
702.92	329.73
703.26	328.47
703.59	327.19
703.93	326.02
704.26	324.85
704.60	323.57
704.93	322.36
705.26	321.18
705.60	320.06
705.93	318.93
706.27	317.94
706.60	316.95
706.94	315.93
707.27	314.82
707.61	313.76
707.94	312.74
708.27	311.68
708.61	310.62
708.94	309.60
709.28	308.67
709.61	307.70
709.94	306.74
710.28	305.72
710.61	304.74
710.95	303.64
711.28	302.72
711.61	301.81
711.95	300.94
712.28	299.98
712.61	299.00
712.95	298.09
713.28	297.18
713.61	296.32
713.95	295.42
714.28	294.61
714.61	293.76
714.95	292.99
715.28	292.14
715.61	291.27
715.95	290.43
716.28	289.59
716.61	288.71
716.95	287.90
717.28	287.17
717.61	286.43
717.94	285.75
718.28	284.95
718.61	284.23
718.94	283.53
719.27	282.89
719.61	282.26
719.94	281.59
720.27	280.89
720.60	280.21
720.94	279.59
721.27	278.99
721.60	278.38
721.93	277.77
722.27	277.23
722.60	276.68
722.93	276.10
723.26	275.55
723.59	275.01
723.93	274.47
724.26	273.89
724.59	273.33
724.92	272.78
725.25	272.28
725.59	271.76
725.92	271.23
726.25	270.74
726.58	270.25
726.91	269.76
727.24	269.28
727.57	268.85
727.91	268.35
728.24	267.89
728.57	267.41
728.90	266.94
729.23	266.46
729.56	266.05
729.89	265.59
730.22	265.10
730.55	264.62
730.89	264.20
731.22	263.77
731.55	263.33
731.88	262.90
732.21	262.50
732.54	262.06
732.87	261.65
733.20	261.26
733.53	260.87
733.86	260.48
734.19	260.07
734.52	259.63
734.85	259.32
735.18	258.86
735.51	258.51
735.84	258.16
736.17	257.76
736.50	257.35
736.83	257.11
737.16	256.79
737.49	256.47
737.82	256.10
738.15	255.80
738.48	255.41
738.81	255.10
739.14	254.73
739.47	254.44
739.80	254.13
740.13	253.80
740.46	253.47
740.79	253.16
741.12	252.89
741.45	252.58
741.78	252.28
742.11	251.99
742.44	251.67
742.77	251.38
743.10	251.10
743.43	250.80
743.75	250.44
744.08	250.27
744.41	250.04
744.74	249.76
745.07	249.45
745.40	249.24
745.73	249.01
746.06	248.77
746.39	248.47
746.71	248.24
747.04	247.94
747.37	247.68
747.70	247.41
748.03	247.15
748.36	246.95
748.68	246.68
749.01	246.47
749.34	246.25
749.67	246.01
750.00	245.81
750.33	245.69
750.65	245.49
750.98	245.16
751.31	244.91
751.64	244.72
751.97	244.61
752.29	244.41
752.62	244.16
752.95	243.95
753.28	243.77
753.60	243.54
753.93	243.40
754.26	243.21
754.59	243.02
754.91	242.83
755.24	242.62
755.57	242.45
755.90	242.24
756.22	242.03
756.55	241.85
756.88	241.66
757.20	241.41
757.53	241.24
757.86	241.11
758.19	240.93
758.51	240.78
758.84	240.54
759.17	240.35
759.49	240.19
759.82	240.11
760.15	239.95
760.47	239.83
760.80	239.65
761.13	239.52
761.45	239.35
761.78	239.18
762.11	239.08
762.43	238.90
762.76	238.82
763.08	238.69
763.41	238.56
763.74	238.44
764.06	238.30
764.39	238.15
764.71	237.99
765.04	237.88
765.37	237.74
765.69	237.60
766.02	237.51
766.34	237.40
766.67	237.24
767.00	237.13
767.32	237.05
767.65	237.00
767.97	236.90
768.30	236.84
768.62	236.74
768.95	236.60
769.27	236.50
769.60	236.36
769.92	236.27
770.25	236.13
770.57	236.00
770.90	235.91
771.22	235.78
771.55	235.66
771.87	235.59
772.20	235.48
772.52	235.47
772.85	235.48
773.17	235.38
773.50	235.26
773.82	235.18
774.15	235.02
774.47	234.87
774.80	234.75
775.12	234.62
775.45	234.54
775.77	234.47
776.09	234.39
776.42	234.30
776.74	234.23
777.07	234.16
777.39	234.11
777.72	234.01
778.04	233.95
778.36	233.88
778.69	233.82
779.01	233.78
779.33	233.67
779.66	233.49
779.98	233.40
780.31	233.32
780.63	233.28
780.95	233.23
781.28	233.18
781.60	233.14
781.92	233.10
782.25	233.03
782.57	232.95
782.89	232.92
783.22	232.89
783.54	232.79
783.86	232.77
784.19	232.70
784.51	232.67
784.83	232.64
785.16	232.57
785.48	232.48
785.80	232.40
786.12	232.31
786.45	232.25
786.77	232.21
787.09	232.18
787.42	232.09
787.74	232.05
788.06	232.02
788.38	231.96
788.71	231.94
789.03	231.92
789.35	231.91
789.67	231.84
789.99	231.79
790.32	231.75
790.64	231.68
790.96	231.73
791.28	231.69
791.61	231.60
791.93	231.59
792.25	231.60
792.57	231.63
792.89	231.60
793.21	231.56
793.54	231.53
793.86	231.48
794.18	231.45
794.50	231.42
794.82	231.35
795.14	231.34
795.47	231.31
795.79	231.26
796.11	231.24
796.43	231.22
796.75	231.18
797.07	231.20
797.39	231.22
797.71	231.12
798.04	231.09
798.36	231.10
798.68	231.06
799.00	231.00
799.32	230.92
799.64	230.94
799.96	230.95
800.28	230.93
800.60	230.92
800.92	230.92
801.24	230.85
801.56	230.89
801.89	230.86
802.21	230.83
802.53	230.79
802.85	230.74
803.17	230.75
803.49	230.71
803.81	230.62
804.13	230.57
804.45	230.54
804.77	230.49
805.09	230.47
805.41	230.45
805.73	230.41
806.05	230.36
806.37	230.29
806.69	230.25
807.01	230.20
807.33	230.17
807.65	230.09
807.97	230.14
808.28	230.05
808.60	230.01
808.92	229.96
809.24	229.98
809.56	229.94
809.88	229.88
810.20	229.86
810.52	229.86
810.84	229.77
811.16	229.73
811.48	229.72
811.80	229.69
812.12	229.67
812.43	229.67
812.75	229.65
813.07	229.61
813.39	229.59
813.71	229.55
814.03	229.50
814.35	229.49
814.67	229.39
814.98	229.38
815.30	229.32
815.62	229.25
815.94	229.15
816.26	229.15
816.58	229.11
816.89	229.08
817.21	229.03
817.53	229.04
817.85	229.01
818.17	228.96
818.48	228.89
818.80	228.87
819.12	228.83
819.44	228.78
819.76	228.77
820.07	228.75
820.39	228.72
820.71	228.73
821.03	228.71
821.34	228.68
821.66	228.66
821.98	228.67
822.30	228.67
822.61	228.74
822.93	228.69
823.25	228.68
823.57	228.65
823.88	228.66
824.20	228.63
824.52	228.67
824.83	228.67
825.15	228.66
825.47	228.65
825.79	228.65
826.10	228.66
826.42	228.66
826.74	228.63
827.05	228.62
827.37	228.62
827.69	228.59
828.00	228.58
828.32	228.59
828.64	228.58
828.95	228.62
829.27	228.59
829.58	228.56
829.90	228.56
830.22	228.56
830.53	228.54
830.85	228.56
831.17	228.48
831.48	228.49
831.80	228.51
832.11	228.52
832.43	228.50
832.75	228.48
833.06	228.51
833.38	228.51
833.69	228.53
834.01	228.50
834.32	228.50
834.64	228.50
834.96	228.48
835.27	228.48
835.59	228.46
835.90	228.42
836.22	228.45
836.53	228.47
836.85	228.48
837.16	228.58
837.48	228.59
837.79	228.66
838.11	228.65
838.42	228.65
838.74	228.64
839.05	228.63
839.37	228.65
839.68	228.61
840.00	228.59
840.31	228.58
840.63	228.58
840.94	228.59
841.26	228.60
841.57	228.61
841.88	228.61
842.20	228.57
842.51	228.55
842.83	228.56
843.14	228.60
843.46	228.59
843.77	228.51
844.08	228.48
844.40	228.40
844.71	228.39
845.03	228.37
845.34	228.36
845.65	228.36
845.97	228.36
846.28	228.35
846.60	228.37
846.91	228.33
847.22	228.33
847.54	228.33
847.85	228.31
848.16	228.30
848.48	228.29
848.79	228.33
849.10	228.35
849.42	228.32
849.73	228.25
850.04	228.21
850.36	228.18
850.67	228.17
850.98	228.19
851.30	228.18
851.61	228.15
851.92	228.14
852.23	228.12
852.55	228.10
852.86	228.08
853.17	228.03
853.49	228.03
853.80	228.02
854.11	228.00
854.42	228.02
854.74	227.98
855.05	227.95
855.36	227.88
855.67	227.88
855.99	227.88
856.30	227.98
856.61	227.98
856.92	227.96
857.23	227.95
857.55	227.93
857.86	227.91
858.17	227.93
858.48	227.90
858.79	227.92
859.11	227.92
859.42	227.93
859.73	227.94
860.04	227.93
860.35	227.88
860.66	227.84
860.98	227.85
861.29	227.83
861.60	227.82
861.91	227.84
862.22	227.81
862.53	227.79
862.84	227.65
863.16	227.67
863.47	227.66
863.78	227.66
864.09	227.67
864.40	227.69
864.71	227.66
865.02	227.69
865.33	227.64
865.64	227.61
865.95	227.59
866.27	227.67
866.58	227.69
866.89	227.71
867.20	227.72
867.51	227.71
867.82	227.72
868.13	227.79
868.44	227.81
868.75	227.83
869.06	227.84
869.37	227.87
869.68	227.85
869.99	227.88
870.30	227.88
870.61	227.89
870.92	227.88
871.23	227.91
871.54	227.92
871.85	227.97
872.16	228.04
872.47	228.04
872.78	227.99
873.09	228.02
873.40	228.01
873.71	228.03
874.02	228.04
874.33	228.03
874.64	227.99
874.95	228.00
875.26	227.99
875.56	228.00
875.87	228.00
876.18	228.00
876.49	228.10
876.80	228.11
877.11	228.12
877.42	228.12
877.73	228.11
878.04	228.12
878.35	228.10
878.66	228.07
878.96	228.08
879.27	228.08
879.58	228.07
879.89	228.08
880.20	228.11
880.51	228.10
880.82	228.12
881.12	228.11
881.43	228.08
881.74	228.06
882.05	228.07
882.36	228.05
882.67	228.06
882.97	227.97
883.28	227.98
883.59	227.95
883.90	227.96
884.21	227.97
884.51	227.96
884.82	227.96
885.13	227.95
885.44	227.97
885.74	227.96
886.05	227.94
886.36	227.94
886.67	227.89
886.98	227.92
887.28	227.91
887.59	227.93
887.90	227.93
888.20	227.92
888.51	227.93
888.82	227.94
889.13	227.95
889.43	228.00
889.74	227.96
890.05	227.96
890.35	227.95
890.66	227.92
890.97	227.89
891.28	227.84
891.58	227.82
891.89	227.79
892.20	227.76
892.50	227.73
892.81	227.73
893.12	227.73
893.42	227.71
893.73	227.71
894.04	227.68
894.34	227.64
894.65	227.63
894.95	227.58
895.26	227.55
895.57	227.60
895.87	227.52
896.18	227.54
896.48	227.53
896.79	227.48
897.10	227.49
897.40	227.48
897.71	227.47
898.01	227.46
898.32	227.44
898.63	227.43
898.93	227.42
899.24	227.44
899.54	227.41
899.85	227.37
900.15	227.34
900.46	227.34
900.76	227.38
901.07	227.38
901.38	227.39
901.68	227.41
901.99	227.33
902.29	227.32
902.60	227.32
902.90	227.30
903.21	227.35
903.51	227.31
903.82	227.34
904.12	227.38
904.43	227.37
904.73	227.38
905.03	227.41
905.34	227.53
905.64	227.52
905.95	227.53
906.25	227.55
906.56	227.57
906.86	227.61
907.17	227.61
907.47	227.65
907.77	227.66
908.08	227.66
908.38	227.69
908.69	227.69
908.99	227.68
909.30	227.70
909.60	227.69
909.90	227.75
910.21	227.76
910.51	227.73
910.81	227.81
911.12	227.83
911.42	227.86
911.73	227.75
912.03	227.75
912.33	227.81
912.64	227.82
912.94	227.86
913.24	227.83
913.55	227.82
913.85	227.78
914.15	227.80
914.46	227.82
914.76	227.81
915.06	227.82
915.37	227.86
915.67	227.87
915.97	227.87
916.27	227.86
916.58	227.85
916.88	227.84
917.18	227.81
917.49	227.88
917.79	227.86
918.09	227.87
918.39	227.92
918.70	227.88
919.00	227.89
919.30	227.88
919.60	227.88
919.91	227.84
920.21	227.84
920.51	227.84
920.81	227.82
921.12	227.82
921.42	227.84
921.72	227.81
922.02	227.83
922.32	227.84
922.63	227.81
922.93	227.86
923.23	227.89
923.53	227.87
923.83	227.81
924.13	227.84
924.44	227.85
924.74	227.83
925.04	227.87
925.34	227.84
925.64	227.81
925.94	227.82
926.24	227.91
926.55	227.90
926.85	227.88
927.15	227.88
927.45	227.89
927.75	227.86
928.05	227.85
928.35	227.81
928.65	227.79
928.95	227.82
929.26	227.77
929.56	227.79
929.86	227.78
930.16	227.78
930.46	227.74
930.76	227.72
931.06	227.68
931.36	227.61
931.66	227.63
931.96	227.66
932.26	227.62
932.56	227.58
932.86	227.57
933.16	227.54
933.46	227.51
933.76	227.48
934.06	227.48
934.36	227.49
934.66	227.49
934.96	227.49
935.26	227.42
935.56	227.46
935.86	227.43
936.16	227.42
936.46	227.38
936.76	227.36
937.06	227.35
937.36	227.35
937.66	227.34
937.96	227.34
938.26	227.30
938.56	227.29
938.86	227.30
939.16	227.32
939.46	227.32
939.76	227.31
940.06	227.29
940.35	227.23
940.65	227.21
940.95	227.23
941.25	227.19
941.55	227.23
941.85	227.17
942.15	227.19
942.45	227.21
942.75	227.20
943.04	227.20
943.34	227.22
943.64	227.22
943.94	227.25
944.24	227.24
944.54	227.26
944.84	227.29
945.13	227.24
945.43	227.24
945.73	227.26
946.03	227.28
946.33	227.29
946.62	227.33
946.92	227.34
947.22	227.31
947.52	227.36
947.82	227.38
948.11	227.38
948.41	227.37
948.71	227.34
949.01	227.39
949.31	227.41
949.60	227.40
949.90	227.39
950.20	227.38
950.50	227.41
950.79	227.37
951.09	227.41
951.39	227.44
951.69	227.45
951.98	227.48
952.28	227.53
952.58	227.55
952.87	227.56
953.17	227.59
953.47	227.65
953.76	227.63
954.06	227.62
954.36	227.61
954.66	227.61
954.95	227.63
955.25	227.60
955.55	227.63
955.84	227.63
956.14	227.68
956.44	227.66
956.73	227.68
957.03	227.70
957.32	227.68
957.62	227.68
957.92	227.68
958.21	227.66
958.51	227.77
958.81	227.80
959.10	227.83
959.40	227.83
959.69	227.83
959.99	227.87
960.29	227.86
960.58	227.86
960.88	227.88
961.17	227.89
961.47	227.91
961.76	227.90
962.06	227.88
962.36	227.85
962.65	227.88
962.95	227.85
963.24	227.88
963.54	227.86
963.83	227.85
964.13	227.82
964.42	227.79
964.72	227.67
965.01	227.67
965.31	227.62
965.60	227.58
965.90	227.62
966.19	227.57
966.49	227.56
966.78	227.55
967.08	227.52
967.37	227.46
967.67	227.43
967.96	227.45
968.26	227.41
968.55	227.42
968.85	227.41
969.14	227.40
969.43	227.36
969.73	227.35
970.02	227.34
970.32	227.32
970.61	227.32
970.91	227.31
971.20	227.28
971.49	227.26
971.79	227.25
972.08	227.16
972.38	227.18
972.67	227.17
972.96	227.18
973.26	227.18
973.55	227.23
973.85	227.23
974.14	227.19
974.43	227.22
974.73	227.18
975.02	227.16
975.31	227.13
975.61	227.13
975.90	227.13
976.19	227.12
976.49	227.13
976.78	227.10
977.07	227.08
977.37	227.04
977.66	227.05
977.95	227.08
978.24	227.07
978.54	227.08
978.83	227.09
979.12	227.06
979.42	227.03
979.71	227.02
980.00	227.02
980.29	227.01
980.59	226.99
980.88	227.04
981.17	227.02
981.46	227.04
981.76	227.08
982.05	227.09
982.34	227.09
982.63	227.11
982.93	227.16
983.22	227.20
983.51	227.23
983.80	227.25
984.09	227.26
984.39	227.26
984.68	227.26
984.97	227.26
985.26	227.28
985.55	227.32
985.85	227.33
986.14	227.36
986.43	227.41
986.72	227.38
987.01	227.36
987.30	227.36
987.59	227.36
987.89	227.36
988.18	227.37
988.47	227.37
988.76	227.38
989.05	227.36
989.34	227.35
989.63	227.37
989.92	227.37
990.22	227.37
990.51	227.38
990.80	227.37
991.09	227.39
991.38	227.40
991.67	227.41
991.96	227.40
992.25	227.44
992.54	227.38
992.83	227.45
993.12	227.47
993.41	227.52
993.70	227.57
993.99	227.61
994.28	227.61
994.58	227.64
994.87	227.65
995.16	227.64
995.45	227.68
995.74	227.67
996.03	227.70
996.32	227.71
996.61	227.74
996.90	227.74
997.19	227.77
997.48	227.80
997.77	227.78
998.06	227.74
998.34	227.71
998.63	227.74
998.92	227.72
999.21	227.72
999.50	227.69
999.79	227.65
1000.08	227.61
1000.37	227.60
1000.66	227.56
1000.95	227.56
1001.24	227.57
1001.53	227.54
1001.82	227.53
1002.11	227.51
1002.40	227.48
1002.68	227.47
1002.97	227.55
1003.26	227.49
1003.55	227.42
1003.84	227.43
1004.13	227.51
1004.42	227.48
1004.71	227.47
1004.99	227.45
1005.28	227.46
1005.57	227.46
1005.86	227.45
1006.15	227.45
1006.44	227.43
1006.72	227.46
1007.01	227.46
1007.30	227.44
1007.59	227.41
1007.88	227.40
1008.17	227.38
1008.45	227.37
1008.74	227.34
1009.03	227.25
1009.32	227.26
1009.60	227.28
1009.89	227.27
1010.18	227.19
1010.47	227.20
1010.76	227.20
1011.04	227.17
1011.33	227.14
1011.62	227.13
1011.91	227.15
1012.19	227.14
1012.48	227.14
1012.77	227.13
1013.05	227.14
1013.34	227.15
1013.63	227.15
1013.92	227.12
1014.20	227.12
1014.49	227.12
1014.78	227.11
1015.06	227.09
1015.35	227.12
1015.64	227.14
1015.92	227.15
1016.21	227.17
1016.50	227.18
1016.78	227.16
1017.07	227.20
1017.36	227.19
1017.64	227.17
1017.93	227.15
1018.22	227.16
1018.50	227.17
1018.79	227.15
1019.08	227.11
1019.36	227.11
1019.65	227.08
1019.93	227.15
1020.22	227.17
1020.51	227.21
1020.79	227.21
1021.08	227.45
1021.36	227.15
1021.65	226.75
1021.94	227.07
1022.22	227.35
1022.51	226.58
1022.79	227.98
1023.08	227.25
1023.36	228.10
1023.65	226.75
>>>>>End Processed Spectral Data<<<<<
