SpectraSuite Data File
++++++++++++++++++++++++++++++++++++
Date: Fri Feb 01 14:55:38 EST 2013
User: group
Dark Spectrum Present: No
Reference Spectrum Present: No
Number of Sampled Component Spectra: 1
Spectrometers: USB2E7196
Integration Time (usec): 35000 (USB2E7196)
Spectra Averaged: 100 (USB2E7196)
Boxcar Smoothing: 10 (USB2E7196)
Correct for Electrical Dark: No (USB2E7196)
Strobe/Lamp Enabled: No (USB2E7196)
Correct for Detector Non-linearity: No (USB2E7196)
Correct for Stray Light: No (USB2E7196)
Number of Pixels in Processed Spectrum: 2048
>>>>>Begin Processed Spectral Data<<<<<
339.09	0.00
339.48	215.28
339.86	216.74
340.24	218.32
340.63	219.49
341.01	222.26
341.39	222.18
341.78	224.00
342.16	224.65
342.54	225.93
342.93	213.76
343.31	224.54
343.69	225.09
344.07	225.54
344.46	225.99
344.84	226.37
345.22	226.63
345.60	226.88
345.99	227.06
346.37	227.17
346.75	227.27
347.13	227.34
347.52	227.38
347.90	227.47
348.28	227.47
348.66	227.48
349.05	227.48
349.43	227.52
349.81	227.59
350.19	227.62
350.57	227.67
350.96	227.73
351.34	227.84
351.72	227.94
352.10	228.05
352.48	228.10
352.87	228.14
353.25	228.20
353.63	228.24
354.01	228.29
354.39	228.39
354.77	228.44
355.15	228.52
355.54	228.59
355.92	228.60
356.30	228.72
356.68	228.90
357.06	228.98
357.44	229.05
357.82	229.09
358.20	229.19
358.58	229.25
358.97	229.32
359.35	229.39
359.73	229.48
360.11	229.54
360.49	229.57
360.87	229.66
361.25	229.71
361.63	229.81
362.01	229.87
362.39	229.88
362.77	229.92
363.15	229.95
363.53	229.97
363.91	229.99
364.29	229.99
364.67	229.88
365.05	229.89
365.43	229.90
365.81	229.90
366.19	229.91
366.57	229.96
366.95	229.95
367.33	229.91
367.71	229.88
368.09	229.88
368.47	229.86
368.85	229.81
369.23	229.79
369.61	229.69
369.99	229.69
370.37	229.67
370.75	229.66
371.13	229.61
371.51	229.53
371.89	229.50
372.27	229.45
372.65	229.38
373.03	229.31
373.41	229.25
373.78	229.17
374.16	229.07
374.54	228.95
374.92	228.87
375.30	228.77
375.68	228.65
376.06	228.57
376.44	228.46
376.82	228.42
377.19	228.33
377.57	228.29
377.95	228.16
378.33	228.05
378.71	227.93
379.09	227.86
379.47	227.83
379.84	227.77
380.22	227.69
380.60	227.63
380.98	227.55
381.36	227.46
381.73	227.42
382.11	227.32
382.49	227.26
382.87	227.17
383.25	227.10
383.62	227.14
384.00	227.05
384.38	227.01
384.76	226.96
385.13	226.94
385.51	226.87
385.89	226.80
386.27	226.81
386.64	226.77
387.02	226.74
387.40	226.64
387.78	226.58
388.15	226.52
388.53	226.48
388.91	226.47
389.29	226.47
389.66	226.40
390.04	226.39
390.42	226.39
390.79	226.38
391.17	226.40
391.55	226.30
391.92	226.27
392.30	226.30
392.68	226.31
393.05	226.32
393.43	226.30
393.81	226.34
394.18	226.30
394.56	226.31
394.94	226.34
395.31	226.42
395.69	226.47
396.06	226.53
396.44	226.58
396.82	226.60
397.19	226.70
397.57	226.78
397.95	226.88
398.32	226.94
398.70	227.04
399.07	227.12
399.45	227.20
399.82	227.30
400.20	227.36
400.58	227.42
400.95	227.48
401.33	227.64
401.70	227.85
402.08	227.98
402.45	228.09
402.83	228.22
403.20	228.35
403.58	228.48
403.95	228.66
404.33	228.79
404.71	228.94
405.08	229.11
405.46	229.25
405.83	229.43
406.21	229.59
406.58	229.75
406.96	229.93
407.33	230.11
407.70	230.35
408.08	230.65
408.45	230.86
408.83	231.09
409.20	231.29
409.58	231.45
409.95	231.73
410.33	232.02
410.70	232.27
411.08	232.55
411.45	232.85
411.82	233.11
412.20	233.45
412.57	233.89
412.95	234.17
413.32	234.58
413.69	234.95
414.07	235.38
414.44	235.83
414.82	236.33
415.19	236.89
415.56	237.37
415.94	237.91
416.31	238.54
416.68	239.14
417.06	239.86
417.43	240.51
417.81	241.24
418.18	241.99
418.55	242.83
418.93	243.70
419.30	244.59
419.67	245.57
420.04	246.56
420.42	247.53
420.79	248.72
421.16	249.87
421.54	251.07
421.91	252.29
422.28	253.57
422.66	254.87
423.03	256.17
423.40	257.56
423.77	258.94
424.15	260.36
424.52	261.88
424.89	263.43
425.26	265.00
425.64	266.47
426.01	268.09
426.38	269.73
426.75	271.39
427.13	273.11
427.50	274.90
427.87	276.73
428.24	278.62
428.61	280.35
428.99	282.26
429.36	284.34
429.73	286.41
430.10	288.39
430.47	290.42
430.85	292.49
431.22	294.71
431.59	297.08
431.96	299.36
432.33	301.79
432.70	304.24
433.08	307.06
433.45	309.70
433.82	312.28
434.19	315.16
434.56	317.99
434.93	320.62
435.30	323.23
435.68	326.16
436.05	328.98
436.42	331.78
436.79	334.33
437.16	337.04
437.53	339.86
437.90	342.71
438.27	345.50
438.64	348.38
439.01	350.97
439.38	353.22
439.75	355.39
440.13	357.91
440.50	360.23
440.87	362.08
441.24	364.01
441.61	366.18
441.98	367.71
442.35	369.56
442.72	371.46
443.09	373.31
443.46	374.29
443.83	374.85
444.20	375.35
444.57	376.19
444.94	376.49
445.31	376.82
445.68	377.17
446.05	377.24
446.42	376.83
446.79	376.44
447.16	375.99
447.53	375.70
447.90	374.59
448.27	373.43
448.64	371.86
449.01	370.77
449.37	368.82
449.74	366.93
450.11	364.65
450.48	362.15
450.85	359.59
451.22	357.46
451.59	355.46
451.96	353.52
452.33	350.93
452.70	348.52
453.07	345.72
453.43	342.80
453.80	340.03
454.17	337.40
454.54	334.84
454.91	332.15
455.28	329.45
455.65	326.96
456.02	324.53
456.38	322.36
456.75	319.67
457.12	317.45
457.49	315.21
457.86	313.04
458.23	311.21
458.59	309.13
458.96	307.00
459.33	305.15
459.70	303.26
460.07	301.74
460.43	300.05
460.80	298.43
461.17	297.00
461.54	295.52
461.91	294.04
462.27	292.57
462.64	291.30
463.01	289.92
463.38	288.62
463.74	287.19
464.11	286.03
464.48	285.00
464.85	283.84
465.21	282.94
465.58	281.95
465.95	280.85
466.32	279.94
466.68	279.01
467.05	278.11
467.42	277.27
467.78	276.29
468.15	275.38
468.52	274.69
468.88	273.77
469.25	272.95
469.62	272.30
469.98	271.63
470.35	270.97
470.72	270.33
471.08	269.64
471.45	269.06
471.82	268.48
472.18	267.86
472.55	267.38
472.92	266.86
473.28	266.40
473.65	265.88
474.02	265.43
474.38	265.05
474.75	264.67
475.11	264.27
475.48	264.02
475.85	263.80
476.21	263.53
476.58	263.35
476.94	263.22
477.31	263.05
477.67	262.86
478.04	262.72
478.41	262.68
478.77	262.66
479.14	262.64
479.50	262.59
479.87	262.67
480.23	262.74
480.60	262.76
480.96	262.86
481.33	263.08
481.69	263.27
482.06	263.48
482.42	263.72
482.79	263.98
483.15	264.27
483.52	264.66
483.88	265.04
484.25	265.44
484.61	265.86
484.98	266.29
485.34	266.86
485.71	267.49
486.07	268.10
486.44	268.72
486.80	269.40
487.17	270.16
487.53	270.95
487.90	271.79
488.26	272.74
488.62	273.73
488.99	274.69
489.35	275.70
489.72	276.81
490.08	278.00
490.44	279.22
490.81	280.56
491.17	281.89
491.54	283.34
491.90	284.92
492.26	286.52
492.63	288.27
492.99	290.04
493.36	291.91
493.72	293.96
494.08	296.01
494.45	298.24
494.81	300.62
495.17	303.03
495.54	305.62
495.90	308.31
496.26	311.08
496.63	314.02
496.99	317.14
497.35	320.42
497.72	323.80
498.08	327.34
498.44	330.99
498.80	334.90
499.17	338.92
499.53	343.05
499.89	347.47
500.26	351.97
500.62	356.65
500.98	361.55
501.34	366.58
501.71	371.93
502.07	377.34
502.43	382.95
502.79	388.77
503.16	394.82
503.52	401.06
503.88	407.43
504.24	414.11
504.60	420.99
504.97	428.03
505.33	435.31
505.69	442.94
506.05	450.67
506.41	458.49
506.78	466.63
507.14	475.02
507.50	483.65
507.86	492.57
508.22	501.71
508.59	510.89
508.95	520.45
509.31	530.23
509.67	540.30
510.03	550.54
510.39	561.05
510.75	571.81
511.12	582.66
511.48	593.93
511.84	605.29
512.20	616.74
512.56	628.70
512.92	640.87
513.28	653.20
513.64	665.67
514.00	678.41
514.37	691.30
514.73	704.34
515.09	717.46
515.45	730.85
515.81	744.48
516.17	758.42
516.53	772.49
516.89	786.61
517.25	800.82
517.61	815.28
517.97	829.76
518.33	844.21
518.69	859.08
519.05	874.11
519.41	889.37
519.77	904.99
520.13	920.43
520.49	935.83
520.85	951.26
521.21	967.03
521.57	983.23
521.93	999.17
522.29	1015.56
522.65	1031.78
523.01	1048.04
523.37	1064.05
523.73	1080.39
524.09	1096.64
524.45	1113.14
524.81	1129.81
525.17	1146.63
525.53	1163.60
525.89	1180.45
526.25	1197.34
526.61	1213.74
526.97	1230.52
527.33	1246.98
527.68	1263.71
528.04	1280.33
528.40	1296.98
528.76	1314.03
529.12	1330.68
529.48	1347.55
529.84	1363.75
530.20	1380.55
530.56	1397.66
530.91	1415.12
531.27	1431.82
531.63	1448.24
531.99	1464.88
532.35	1480.86
532.71	1496.92
533.07	1513.26
533.42	1529.32
533.78	1545.39
534.14	1561.83
534.50	1577.16
534.86	1593.14
535.21	1608.34
535.57	1624.46
535.93	1640.14
536.29	1655.17
536.65	1670.50
537.00	1685.41
537.36	1700.87
537.72	1715.48
538.08	1729.93
538.44	1744.03
538.79	1758.17
539.15	1771.93
539.51	1785.68
539.87	1800.29
540.22	1814.01
540.58	1827.93
540.94	1841.41
541.29	1854.44
541.65	1867.16
542.01	1880.66
542.37	1893.16
542.72	1905.76
543.08	1917.41
543.44	1929.83
543.79	1941.08
544.15	1952.00
544.51	1963.54
544.87	1974.55
545.22	1985.43
545.58	1995.70
545.94	2005.34
546.29	2015.19
546.65	2025.07
547.01	2034.47
547.36	2043.14
547.72	2051.65
548.07	2059.47
548.43	2067.71
548.79	2075.83
549.14	2083.40
549.50	2090.64
549.86	2098.31
550.21	2105.56
550.57	2112.84
550.92	2119.36
551.28	2126.43
551.64	2133.55
551.99	2140.08
552.35	2146.17
552.70	2152.14
553.06	2157.97
553.41	2164.23
553.77	2170.20
554.13	2176.35
554.48	2182.41
554.84	2187.71
555.19	2193.09
555.55	2198.14
555.90	2202.42
556.26	2207.11
556.61	2211.84
556.97	2215.91
557.32	2219.87
557.68	2223.97
558.03	2228.17
558.39	2231.93
558.74	2236.45
559.10	2240.30
559.45	2243.84
559.81	2248.01
560.16	2251.69
560.52	2254.96
560.87	2258.38
561.23	2260.91
561.58	2263.74
561.94	2266.04
562.29	2268.65
562.64	2271.23
563.00	2273.78
563.35	2277.21
563.71	2280.31
564.06	2283.30
564.42	2286.23
564.77	2288.62
565.12	2290.70
565.48	2292.32
565.83	2293.85
566.19	2294.91
566.54	2295.69
566.89	2296.69
567.25	2297.15
567.60	2298.40
567.96	2299.85
568.31	2300.58
568.66	2301.66
569.02	2302.11
569.37	2302.25
569.72	2302.67
570.08	2302.55
570.43	2302.34
570.78	2301.37
571.14	2299.70
571.49	2298.21
571.84	2297.65
572.20	2296.29
572.55	2295.08
572.90	2293.41
573.26	2291.85
573.61	2290.02
573.96	2287.93
574.31	2284.81
574.67	2281.55
575.02	2277.75
575.37	2274.25
575.72	2270.29
576.08	2266.70
576.43	2263.06
576.78	2259.23
577.13	2255.93
577.49	2252.82
577.84	2249.23
578.19	2245.57
578.54	2241.71
578.90	2237.29
579.25	2231.56
579.60	2226.49
579.95	2221.38
580.30	2216.32
580.66	2211.13
581.01	2206.11
581.36	2201.11
581.71	2196.71
582.06	2192.22
582.42	2187.68
582.77	2182.39
583.12	2177.65
583.47	2172.78
583.82	2167.68
584.17	2162.40
584.53	2156.85
584.88	2150.92
585.23	2144.87
585.58	2139.29
585.93	2133.77
586.28	2129.02
586.63	2123.88
586.98	2118.81
587.34	2114.07
587.69	2109.09
588.04	2103.71
588.39	2097.82
588.74	2091.29
589.09	2085.16
589.44	2078.26
589.79	2072.13
590.14	2066.28
590.49	2059.56
590.84	2053.07
591.19	2047.01
591.54	2040.31
591.89	2032.53
592.25	2025.59
592.60	2018.31
592.95	2010.50
593.30	2003.00
593.65	1995.14
594.00	1987.99
594.35	1980.71
594.70	1972.49
595.05	1965.03
595.40	1957.72
595.75	1950.15
596.10	1943.68
596.45	1936.74
596.80	1930.41
597.15	1923.54
597.50	1916.35
597.85	1909.84
598.19	1903.13
598.54	1895.82
598.89	1889.21
599.24	1883.47
599.59	1876.72
599.94	1870.57
600.29	1864.24
600.64	1857.64
600.99	1850.22
601.34	1843.33
601.69	1836.15
602.04	1829.11
602.39	1821.79
602.74	1814.81
603.08	1808.18
603.43	1801.48
603.78	1794.20
604.13	1786.88
604.48	1779.55
604.83	1772.71
605.18	1765.62
605.53	1757.50
605.87	1749.67
606.22	1742.39
606.57	1734.39
606.92	1727.08
607.27	1719.72
607.62	1712.80
607.96	1705.43
608.31	1698.68
608.66	1691.01
609.01	1683.48
609.36	1675.95
609.70	1668.00
610.05	1659.97
610.40	1652.21
610.75	1643.91
611.10	1636.16
611.44	1627.91
611.79	1620.05
612.14	1611.32
612.49	1602.31
612.83	1594.10
613.18	1585.88
613.53	1577.86
613.88	1569.42
614.22	1561.16
614.57	1552.73
614.92	1544.74
615.27	1537.19
615.61	1528.92
615.96	1521.02
616.31	1513.46
616.65	1506.10
617.00	1498.41
617.35	1490.85
617.70	1482.53
618.04	1473.97
618.39	1465.87
618.74	1458.41
619.08	1450.18
619.43	1442.78
619.78	1435.97
620.12	1428.76
620.47	1421.36
620.82	1413.20
621.16	1405.89
621.51	1398.37
621.85	1390.83
622.20	1382.46
622.55	1374.27
622.89	1366.66
623.24	1359.11
623.59	1351.87
623.93	1344.54
624.28	1337.50
624.62	1330.02
624.97	1322.93
625.32	1316.40
625.66	1309.51
626.01	1302.23
626.35	1294.79
626.70	1287.08
627.04	1279.38
627.39	1271.71
627.73	1264.28
628.08	1257.46
628.43	1250.13
628.77	1242.85
629.12	1235.31
629.46	1228.14
629.81	1220.78
630.15	1213.61
630.50	1206.26
630.84	1198.11
631.19	1190.19
631.53	1182.74
631.88	1175.20
632.22	1167.64
632.57	1160.42
632.91	1152.94
633.26	1145.59
633.60	1138.39
633.95	1131.47
634.29	1124.42
634.64	1117.79
634.98	1110.55
635.32	1103.51
635.67	1097.08
636.01	1090.51
636.36	1083.88
636.70	1077.44
637.05	1070.94
637.39	1064.49
637.73	1058.06
638.08	1052.28
638.42	1046.40
638.77	1040.03
639.11	1033.46
639.45	1027.19
639.80	1020.50
640.14	1014.13
640.49	1007.64
640.83	1001.28
641.17	994.91
641.52	988.64
641.86	982.33
642.20	976.56
642.55	970.36
642.89	963.83
643.23	957.29
643.58	951.49
643.92	945.24
644.26	939.21
644.61	933.24
644.95	927.17
645.29	920.60
645.64	913.84
645.98	907.51
646.32	901.80
646.66	895.74
647.01	889.95
647.35	884.19
647.69	878.47
648.04	873.05
648.38	867.33
648.72	861.39
649.06	855.28
649.41	849.36
649.75	843.30
650.09	837.36
650.43	831.63
650.78	825.45
651.12	819.61
651.46	813.88
651.80	808.05
652.14	802.68
652.49	797.22
652.83	792.04
653.17	786.35
653.51	780.57
653.85	775.18
654.20	769.59
654.54	763.71
654.88	757.98
655.22	752.09
655.56	746.39
655.90	740.87
656.25	735.62
656.59	730.33
656.93	725.31
657.27	720.23
657.61	714.80
657.95	709.79
658.29	704.69
658.64	699.56
658.98	694.35
659.32	688.89
659.66	683.78
660.00	678.55
660.34	673.68
660.68	668.85
661.02	663.90
661.36	659.20
661.70	654.72
662.05	650.41
662.39	646.14
662.73	641.78
663.07	637.54
663.41	633.14
663.75	628.73
664.09	624.20
664.43	619.85
664.77	615.76
665.11	611.54
665.45	607.43
665.79	603.37
666.13	599.33
666.47	595.34
666.81	591.20
667.15	587.11
667.49	583.26
667.83	579.49
668.17	575.57
668.51	571.57
668.85	567.64
669.19	563.88
669.53	560.09
669.87	556.24
670.21	552.59
670.55	549.06
670.89	545.59
671.23	542.25
671.57	538.82
671.91	535.31
672.25	531.90
672.58	528.42
672.92	525.08
673.26	521.94
673.60	518.83
673.94	515.77
674.28	512.93
674.62	510.03
674.96	507.01
675.30	504.11
675.64	501.22
675.97	498.50
676.31	495.63
676.65	492.71
676.99	490.10
677.33	487.29
677.67	484.45
678.01	481.46
678.34	478.50
678.68	475.61
679.02	472.81
679.36	470.03
679.70	467.42
680.04	464.61
680.37	461.71
680.71	458.96
681.05	456.35
681.39	453.63
681.73	451.03
682.06	448.50
682.40	446.01
682.74	443.53
683.08	440.96
683.42	438.37
683.75	435.90
684.09	433.30
684.43	430.87
684.77	428.44
685.10	426.12
685.44	423.87
685.78	421.61
686.12	419.42
686.45	417.18
686.79	414.84
687.13	412.71
687.46	410.59
687.80	408.46
688.14	406.32
688.48	404.27
688.81	401.97
689.15	399.83
689.49	397.67
689.82	395.57
690.16	393.47
690.50	391.54
690.83	389.59
691.17	387.64
691.51	385.70
691.84	383.86
692.18	381.94
692.52	379.89
692.85	377.97
693.19	376.09
693.52	374.27
693.86	372.54
694.20	370.75
694.53	369.00
694.87	367.17
695.21	365.38
695.54	363.57
695.88	361.90
696.21	360.19
696.55	358.52
696.88	356.86
697.22	355.23
697.56	353.62
697.89	351.97
698.23	350.38
698.56	348.77
698.90	347.16
699.23	345.53
699.57	344.01
699.90	342.44
700.24	340.91
700.58	339.32
700.91	337.79
701.25	336.33
701.58	334.94
701.92	333.54
702.25	332.13
702.59	330.79
702.92	329.46
703.26	328.18
703.59	326.91
703.93	325.74
704.26	324.50
704.60	323.24
704.93	321.98
705.26	320.77
705.60	319.64
705.93	318.53
706.27	317.54
706.60	316.51
706.94	315.50
707.27	314.39
707.61	313.40
707.94	312.38
708.27	311.32
708.61	310.25
708.94	309.27
709.28	308.36
709.61	307.46
709.94	306.53
710.28	305.50
710.61	304.59
710.95	303.55
711.28	302.69
711.61	301.72
711.95	300.83
712.28	299.88
712.61	298.94
712.95	298.02
713.28	297.15
713.61	296.28
713.95	295.38
714.28	294.58
714.61	293.72
714.95	292.92
715.28	292.09
715.61	291.28
715.95	290.50
716.28	289.66
716.61	288.82
716.95	288.04
717.28	287.33
717.61	286.60
717.94	285.84
718.28	285.04
718.61	284.35
718.94	283.66
719.27	283.03
719.61	282.41
719.94	281.80
720.27	281.07
720.60	280.43
720.94	279.84
721.27	279.23
721.60	278.68
721.93	278.10
722.27	277.58
722.60	277.06
722.93	276.50
723.26	275.98
723.59	275.43
723.93	274.92
724.26	274.39
724.59	273.84
724.92	273.33
725.25	272.84
725.59	272.33
725.92	271.85
726.25	271.35
726.58	270.84
726.91	270.36
727.24	269.88
727.57	269.42
727.91	268.90
728.24	268.43
728.57	267.93
728.90	267.44
729.23	266.90
729.56	266.41
729.89	265.95
730.22	265.43
730.55	264.94
730.89	264.47
731.22	264.02
731.55	263.57
731.88	263.15
732.21	262.68
732.54	262.23
732.87	261.79
733.20	261.38
733.53	260.95
733.86	260.55
734.19	260.13
734.52	259.75
734.85	259.42
735.18	259.04
735.51	258.67
735.84	258.34
736.17	258.01
736.50	257.59
736.83	257.29
737.16	256.96
737.49	256.63
737.82	256.28
738.15	255.93
738.48	255.55
738.81	255.21
739.14	254.89
739.47	254.57
739.80	254.23
740.13	253.92
740.46	253.60
740.79	253.29
741.12	252.98
741.45	252.62
741.78	252.24
742.11	251.92
742.44	251.61
742.77	251.31
743.10	250.99
743.43	250.70
743.75	250.35
744.08	250.19
744.41	249.92
744.74	249.67
745.07	249.38
745.40	249.13
745.73	248.89
746.06	248.63
746.39	248.40
746.71	248.14
747.04	247.87
747.37	247.62
747.70	247.31
748.03	247.11
748.36	246.94
748.68	246.71
749.01	246.48
749.34	246.26
749.67	246.03
750.00	245.80
750.33	245.66
750.65	245.43
750.98	245.06
751.31	244.85
751.64	244.65
751.97	244.48
752.29	244.30
752.62	244.08
752.95	243.90
753.28	243.69
753.60	243.51
753.93	243.33
754.26	243.17
754.59	243.01
754.91	242.76
755.24	242.54
755.57	242.38
755.90	242.22
756.22	242.02
756.55	241.81
756.88	241.65
757.20	241.46
757.53	241.30
757.86	241.15
758.19	240.99
758.51	240.82
758.84	240.65
759.17	240.46
759.49	240.31
759.82	240.19
760.15	240.06
760.47	239.88
760.80	239.73
761.13	239.58
761.45	239.42
761.78	239.31
762.11	239.19
762.43	239.03
762.76	238.88
763.08	238.78
763.41	238.68
763.74	238.53
764.06	238.36
764.39	238.21
764.71	238.08
765.04	237.97
765.37	237.83
765.69	237.71
766.02	237.61
766.34	237.46
766.67	237.31
767.00	237.18
767.32	237.15
767.65	237.09
767.97	236.98
768.30	236.87
768.62	236.79
768.95	236.66
769.27	236.55
769.60	236.42
769.92	236.28
770.25	236.16
770.57	236.04
770.90	235.94
771.22	235.82
771.55	235.74
771.87	235.59
772.20	235.51
772.52	235.46
772.85	235.43
773.17	235.33
773.50	235.22
773.82	235.09
774.15	234.93
774.47	234.76
774.80	234.65
775.12	234.57
775.45	234.44
775.77	234.35
776.09	234.25
776.42	234.15
776.74	234.08
777.07	233.95
777.39	233.88
777.72	233.77
778.04	233.71
778.36	233.62
778.69	233.56
779.01	233.46
779.33	233.33
779.66	233.16
779.98	233.06
780.31	233.02
780.63	232.97
780.95	232.90
781.28	232.84
781.60	232.76
781.92	232.67
782.25	232.57
782.57	232.51
782.89	232.46
783.22	232.44
783.54	232.36
783.86	232.34
784.19	232.29
784.51	232.29
784.83	232.21
785.16	232.16
785.48	232.12
785.80	232.07
786.12	231.99
786.45	231.96
786.77	231.91
787.09	231.83
787.42	231.78
787.74	231.74
788.06	231.70
788.38	231.64
788.71	231.62
789.03	231.61
789.35	231.57
789.67	231.54
789.99	231.50
790.32	231.45
790.64	231.43
790.96	231.46
791.28	231.36
791.61	231.34
791.93	231.30
792.25	231.25
792.57	231.27
792.89	231.22
793.21	231.19
793.54	231.15
793.86	231.13
794.18	231.11
794.50	231.06
794.82	231.00
795.14	231.00
795.47	230.98
795.79	230.95
796.11	230.90
796.43	230.84
796.75	230.81
797.07	230.79
797.39	230.75
797.71	230.66
798.04	230.66
798.36	230.63
798.68	230.61
799.00	230.62
799.32	230.57
799.64	230.60
799.96	230.60
800.28	230.62
800.60	230.57
800.92	230.55
801.24	230.55
801.56	230.59
801.89	230.55
802.21	230.54
802.53	230.49
802.85	230.52
803.17	230.53
803.49	230.52
803.81	230.47
804.13	230.43
804.45	230.42
804.77	230.40
805.09	230.38
805.41	230.33
805.73	230.27
806.05	230.22
806.37	230.17
806.69	230.16
807.01	230.13
807.33	230.13
807.65	230.07
807.97	230.06
808.28	229.98
808.60	229.98
808.92	229.94
809.24	229.98
809.56	229.90
809.88	229.87
810.20	229.81
810.52	229.81
810.84	229.78
811.16	229.72
811.48	229.71
811.80	229.70
812.12	229.66
812.43	229.67
812.75	229.65
813.07	229.57
813.39	229.53
813.71	229.47
814.03	229.42
814.35	229.37
814.67	229.31
814.98	229.27
815.30	229.25
815.62	229.22
815.94	229.14
816.26	229.16
816.58	229.11
816.89	229.11
817.21	229.08
817.53	229.08
817.85	229.06
818.17	229.02
818.48	228.98
818.80	228.99
819.12	228.91
819.44	228.86
819.76	228.85
820.07	228.82
820.39	228.78
820.71	228.73
821.03	228.74
821.34	228.77
821.66	228.79
821.98	228.76
822.30	228.73
822.61	228.77
822.93	228.70
823.25	228.68
823.57	228.65
823.88	228.68
824.20	228.65
824.52	228.66
824.83	228.61
825.15	228.58
825.47	228.57
825.79	228.59
826.10	228.60
826.42	228.56
826.74	228.56
827.05	228.56
827.37	228.58
827.69	228.58
828.00	228.51
828.32	228.47
828.64	228.42
828.95	228.46
829.27	228.43
829.58	228.44
829.90	228.44
830.22	228.43
830.53	228.38
830.85	228.37
831.17	228.35
831.48	228.37
831.80	228.37
832.11	228.37
832.43	228.33
832.75	228.32
833.06	228.39
833.38	228.33
833.69	228.33
834.01	228.34
834.32	228.37
834.64	228.38
834.96	228.41
835.27	228.39
835.59	228.37
835.90	228.35
836.22	228.34
836.53	228.33
836.85	228.31
837.16	228.41
837.48	228.42
837.79	228.46
838.11	228.41
838.42	228.41
838.74	228.40
839.05	228.43
839.37	228.44
839.68	228.40
840.00	228.41
840.31	228.45
840.63	228.45
840.94	228.40
841.26	228.39
841.57	228.34
841.88	228.39
842.20	228.37
842.51	228.35
842.83	228.34
843.14	228.41
843.46	228.41
843.77	228.35
844.08	228.33
844.40	228.28
844.71	228.31
845.03	228.27
845.34	228.24
845.65	228.20
845.97	228.20
846.28	228.18
846.60	228.19
846.91	228.16
847.22	228.13
847.54	228.13
847.85	228.11
848.16	228.13
848.48	228.11
848.79	228.13
849.10	228.11
849.42	228.11
849.73	227.99
850.04	227.98
850.36	227.96
850.67	227.94
850.98	227.94
851.30	227.95
851.61	227.95
851.92	227.93
852.23	227.94
852.55	227.93
852.86	227.93
853.17	227.97
853.49	227.95
853.80	227.95
854.11	227.95
854.42	227.94
854.74	227.96
855.05	227.93
855.36	227.87
855.67	227.87
855.99	227.87
856.30	227.99
856.61	227.96
856.92	227.93
857.23	227.95
857.55	227.90
857.86	227.90
858.17	227.91
858.48	227.91
858.79	227.91
859.11	227.91
859.42	227.88
859.73	227.80
860.04	227.78
860.35	227.78
860.66	227.78
860.98	227.77
861.29	227.75
861.60	227.74
861.91	227.73
862.22	227.73
862.53	227.72
862.84	227.60
863.16	227.64
863.47	227.64
863.78	227.59
864.09	227.59
864.40	227.58
864.71	227.60
865.02	227.59
865.33	227.58
865.64	227.54
865.95	227.56
866.27	227.66
866.58	227.66
866.89	227.69
867.20	227.69
867.51	227.68
867.82	227.70
868.13	227.75
868.44	227.79
868.75	227.80
869.06	227.82
869.37	227.83
869.68	227.84
869.99	227.85
870.30	227.86
870.61	227.91
870.92	227.88
871.23	227.87
871.54	227.90
871.85	227.94
872.16	227.99
872.47	227.96
872.78	227.90
873.09	227.92
873.40	227.89
873.71	227.88
874.02	227.90
874.33	227.89
874.64	227.87
874.95	227.88
875.26	227.87
875.56	227.86
875.87	227.85
876.18	227.86
876.49	227.97
876.80	227.98
877.11	227.95
877.42	227.97
877.73	227.95
878.04	227.93
878.35	227.89
878.66	227.86
878.96	227.87
879.27	227.90
879.58	227.88
879.89	227.85
880.20	227.91
880.51	227.90
880.82	227.90
881.12	227.91
881.43	227.89
881.74	227.87
882.05	227.89
882.36	227.89
882.67	227.89
882.97	227.77
883.28	227.75
883.59	227.73
883.90	227.74
884.21	227.77
884.51	227.74
884.82	227.75
885.13	227.76
885.44	227.76
885.74	227.71
886.05	227.72
886.36	227.74
886.67	227.67
886.98	227.70
887.28	227.67
887.59	227.65
887.90	227.63
888.20	227.62
888.51	227.60
888.82	227.58
889.13	227.57
889.43	227.64
889.74	227.63
890.05	227.62
890.35	227.58
890.66	227.53
890.97	227.52
891.28	227.49
891.58	227.45
891.89	227.44
892.20	227.43
892.50	227.41
892.81	227.41
893.12	227.37
893.42	227.32
893.73	227.33
894.04	227.33
894.34	227.34
894.65	227.29
894.95	227.28
895.26	227.29
895.57	227.32
895.87	227.22
896.18	227.22
896.48	227.22
896.79	227.24
897.10	227.21
897.40	227.21
897.71	227.24
898.01	227.26
898.32	227.28
898.63	227.27
898.93	227.27
899.24	227.23
899.54	227.28
899.85	227.28
900.15	227.25
900.46	227.23
900.76	227.22
901.07	227.25
901.38	227.22
901.68	227.21
901.99	227.16
902.29	227.16
902.60	227.15
902.90	227.17
903.21	227.17
903.51	227.22
903.82	227.23
904.12	227.23
904.43	227.23
904.73	227.23
905.03	227.26
905.34	227.36
905.64	227.40
905.95	227.41
906.25	227.43
906.56	227.47
906.86	227.45
907.17	227.46
907.47	227.49
907.77	227.53
908.08	227.54
908.38	227.56
908.69	227.58
908.99	227.63
909.30	227.64
909.60	227.62
909.90	227.64
910.21	227.63
910.51	227.64
910.81	227.63
911.12	227.64
911.42	227.63
911.73	227.50
912.03	227.51
912.33	227.54
912.64	227.55
912.94	227.54
913.24	227.56
913.55	227.56
913.85	227.56
914.15	227.56
914.46	227.59
914.76	227.55
915.06	227.55
915.37	227.53
915.67	227.53
915.97	227.54
916.27	227.54
916.58	227.53
916.88	227.52
917.18	227.53
917.49	227.62
917.79	227.62
918.09	227.66
918.39	227.66
918.70	227.65
919.00	227.63
919.30	227.68
919.60	227.68
919.91	227.65
920.21	227.66
920.51	227.65
920.81	227.64
921.12	227.71
921.42	227.70
921.72	227.72
922.02	227.69
922.32	227.70
922.63	227.68
922.93	227.69
923.23	227.69
923.53	227.67
923.83	227.58
924.13	227.57
924.44	227.55
924.74	227.56
925.04	227.58
925.34	227.56
925.64	227.50
925.94	227.53
926.24	227.58
926.55	227.56
926.85	227.53
927.15	227.51
927.45	227.47
927.75	227.47
928.05	227.45
928.35	227.46
928.65	227.45
928.95	227.46
929.26	227.44
929.56	227.45
929.86	227.46
930.16	227.44
930.46	227.43
930.76	227.41
931.06	227.35
931.36	227.30
931.66	227.28
931.96	227.29
932.26	227.23
932.56	227.20
932.86	227.19
933.16	227.18
933.46	227.14
933.76	227.13
934.06	227.13
934.36	227.16
934.66	227.15
934.96	227.12
935.26	227.13
935.56	227.14
935.86	227.11
936.16	227.07
936.46	227.04
936.76	227.02
937.06	227.01
937.36	227.00
937.66	226.99
937.96	227.00
938.26	226.96
938.56	226.97
938.86	226.97
939.16	226.99
939.46	227.02
939.76	227.06
940.06	227.04
940.35	227.02
940.65	226.97
940.95	226.99
941.25	226.99
941.55	226.98
941.85	226.97
942.15	226.99
942.45	227.06
942.75	227.09
943.04	227.15
943.34	227.15
943.64	227.18
943.94	227.18
944.24	227.18
944.54	227.22
944.84	227.25
945.13	227.24
945.43	227.22
945.73	227.22
946.03	227.20
946.33	227.21
946.62	227.19
946.92	227.21
947.22	227.25
947.52	227.25
947.82	227.26
948.11	227.28
948.41	227.26
948.71	227.23
949.01	227.24
949.31	227.22
949.60	227.25
949.90	227.28
950.20	227.26
950.50	227.29
950.79	227.29
951.09	227.26
951.39	227.27
951.69	227.27
951.98	227.28
952.28	227.28
952.58	227.30
952.87	227.34
953.17	227.35
953.47	227.33
953.76	227.32
954.06	227.31
954.36	227.27
954.66	227.26
954.95	227.26
955.25	227.26
955.55	227.26
955.84	227.27
956.14	227.24
956.44	227.26
956.73	227.26
957.03	227.27
957.32	227.30
957.62	227.29
957.92	227.28
958.21	227.26
958.51	227.35
958.81	227.34
959.10	227.35
959.40	227.36
959.69	227.32
959.99	227.35
960.29	227.32
960.58	227.32
960.88	227.35
961.17	227.34
961.47	227.36
961.76	227.35
962.06	227.34
962.36	227.34
962.65	227.36
962.95	227.37
963.24	227.34
963.54	227.30
963.83	227.33
964.13	227.34
964.42	227.32
964.72	227.24
965.01	227.23
965.31	227.21
965.60	227.16
965.90	227.25
966.19	227.22
966.49	227.24
966.78	227.22
967.08	227.22
967.37	227.22
967.67	227.19
967.96	227.21
968.26	227.19
968.55	227.18
968.85	227.13
969.14	227.08
969.43	227.06
969.73	227.06
970.02	227.04
970.32	227.03
970.61	227.02
970.91	226.98
971.20	226.98
971.49	226.95
971.79	226.97
972.08	226.90
972.38	226.90
972.67	226.90
972.96	226.92
973.26	226.88
973.55	226.88
973.85	226.88
974.14	226.82
974.43	226.83
974.73	226.80
975.02	226.82
975.31	226.83
975.61	226.87
975.90	226.86
976.19	226.86
976.49	226.85
976.78	226.88
977.07	226.88
977.37	226.89
977.66	226.94
977.95	226.91
978.24	226.89
978.54	226.89
978.83	226.89
979.12	226.91
979.42	226.92
979.71	226.95
980.00	226.95
980.29	226.99
980.59	226.98
980.88	227.05
981.17	227.06
981.46	227.06
981.76	227.05
982.05	227.08
982.34	227.08
982.63	227.12
982.93	227.13
983.22	227.19
983.51	227.18
983.80	227.16
984.09	227.24
984.39	227.25
984.68	227.26
984.97	227.26
985.26	227.27
985.55	227.28
985.85	227.28
986.14	227.30
986.43	227.32
986.72	227.34
987.01	227.32
987.30	227.34
987.59	227.35
987.89	227.35
988.18	227.32
988.47	227.34
988.76	227.33
989.05	227.34
989.34	227.32
989.63	227.39
989.92	227.40
990.22	227.38
990.51	227.40
990.80	227.42
991.09	227.47
991.38	227.49
991.67	227.49
991.96	227.48
992.25	227.51
992.54	227.49
992.83	227.48
993.12	227.50
993.41	227.52
993.70	227.54
993.99	227.57
994.28	227.61
994.58	227.60
994.87	227.58
995.16	227.55
995.45	227.56
995.74	227.48
996.03	227.49
996.32	227.48
996.61	227.46
996.90	227.45
997.19	227.40
997.48	227.41
997.77	227.40
998.06	227.41
998.34	227.37
998.63	227.37
998.92	227.36
999.21	227.37
999.50	227.34
999.79	227.34
1000.08	227.31
1000.37	227.31
1000.66	227.34
1000.95	227.36
1001.24	227.36
1001.53	227.36
1001.82	227.39
1002.11	227.34
1002.40	227.34
1002.68	227.34
1002.97	227.40
1003.26	227.39
1003.55	227.35
1003.84	227.33
1004.13	227.31
1004.42	227.31
1004.71	227.29
1004.99	227.28
1005.28	227.29
1005.57	227.29
1005.86	227.25
1006.15	227.26
1006.44	227.21
1006.72	227.19
1007.01	227.14
1007.30	227.14
1007.59	227.13
1007.88	227.14
1008.17	227.15
1008.45	227.15
1008.74	227.11
1009.03	227.06
1009.32	227.08
1009.60	227.07
1009.89	227.10
1010.18	227.07
1010.47	227.06
1010.76	227.04
1011.04	227.04
1011.33	227.00
1011.62	227.00
1011.91	227.02
1012.19	227.02
1012.48	227.04
1012.77	227.04
1013.05	227.09
1013.34	227.09
1013.63	227.08
1013.92	227.08
1014.20	227.05
1014.49	227.09
1014.78	227.10
1015.06	227.09
1015.35	227.08
1015.64	227.09
1015.92	227.07
1016.21	227.09
1016.50	227.09
1016.78	227.12
1017.07	227.14
1017.36	227.17
1017.64	227.15
1017.93	227.17
1018.22	227.15
1018.50	227.15
1018.79	227.15
1019.08	227.14
1019.36	227.14
1019.65	227.14
1019.93	227.14
1020.22	227.17
1020.51	227.20
1020.79	227.20
1021.08	226.68
1021.36	227.21
1021.65	227.18
1021.94	227.40
1022.22	227.07
1022.51	226.99
1022.79	227.40
1023.08	227.35
1023.36	228.26
1023.65	227.11
>>>>>End Processed Spectral Data<<<<<
