SpectraSuite Data File
++++++++++++++++++++++++++++++++++++
Date: Fri Feb 01 15:58:23 EST 2013
User: group
Dark Spectrum Present: No
Reference Spectrum Present: No
Number of Sampled Component Spectra: 1
Spectrometers: USB2E7196
Integration Time (usec): 35000 (USB2E7196)
Spectra Averaged: 100 (USB2E7196)
Boxcar Smoothing: 10 (USB2E7196)
Correct for Electrical Dark: No (USB2E7196)
Strobe/Lamp Enabled: No (USB2E7196)
Correct for Detector Non-linearity: No (USB2E7196)
Correct for Stray Light: No (USB2E7196)
Number of Pixels in Processed Spectrum: 2048
>>>>>Begin Processed Spectral Data<<<<<
339.09	0.00
339.48	214.80
339.86	216.76
340.24	218.28
340.63	219.16
341.01	222.64
341.39	221.75
341.78	223.10
342.16	224.71
342.54	225.31
342.93	213.49
343.31	224.26
343.69	224.80
344.07	225.22
344.46	225.63
344.84	226.00
345.22	226.20
345.60	226.45
345.99	226.63
346.37	226.74
346.75	226.80
347.13	226.83
347.52	226.88
347.90	226.90
348.28	226.94
348.66	226.98
349.05	226.96
349.43	226.98
349.81	226.97
350.19	227.04
350.57	227.06
350.96	227.16
351.34	227.22
351.72	227.28
352.10	227.38
352.48	227.42
352.87	227.47
353.25	227.52
353.63	227.59
354.01	227.66
354.39	227.74
354.77	227.83
355.15	227.93
355.54	227.99
355.92	228.03
356.30	228.10
356.68	228.22
357.06	228.27
357.44	228.31
357.82	228.37
358.20	228.44
358.58	228.49
358.97	228.52
359.35	228.62
359.73	228.70
360.11	228.76
360.49	228.83
360.87	228.87
361.25	228.94
361.63	229.00
362.01	229.03
362.39	229.07
362.77	229.11
363.15	229.13
363.53	229.16
363.91	229.18
364.29	229.16
364.67	229.11
365.05	229.14
365.43	229.16
365.81	229.18
366.19	229.20
366.57	229.26
366.95	229.28
367.33	229.24
367.71	229.24
368.09	229.23
368.47	229.22
368.85	229.19
369.23	229.18
369.61	229.14
369.99	229.14
370.37	229.12
370.75	229.12
371.13	229.06
371.51	228.99
371.89	228.94
372.27	228.93
372.65	228.86
373.03	228.80
373.41	228.74
373.78	228.66
374.16	228.56
374.54	228.45
374.92	228.32
375.30	228.27
375.68	228.19
376.06	228.15
376.44	228.07
376.82	228.01
377.19	227.92
377.57	227.87
377.95	227.78
378.33	227.67
378.71	227.53
379.09	227.48
379.47	227.42
379.84	227.34
380.22	227.27
380.60	227.22
380.98	227.17
381.36	227.07
381.73	226.99
382.11	226.95
382.49	226.89
382.87	226.87
383.25	226.81
383.62	226.87
384.00	226.75
384.38	226.71
384.76	226.69
385.13	226.69
385.51	226.59
385.89	226.54
386.27	226.50
386.64	226.50
387.02	226.45
387.40	226.41
387.78	226.41
388.15	226.37
388.53	226.33
388.91	226.26
389.29	226.26
389.66	226.26
390.04	226.26
390.42	226.29
390.79	226.28
391.17	226.27
391.55	226.15
391.92	226.17
392.30	226.17
392.68	226.15
393.05	226.14
393.43	226.16
393.81	226.18
394.18	226.20
394.56	226.18
394.94	226.22
395.31	226.25
395.69	226.31
396.06	226.35
396.44	226.37
396.82	226.45
397.19	226.50
397.57	226.53
397.95	226.57
398.32	226.57
398.70	226.64
399.07	226.70
399.45	226.72
399.82	226.78
400.20	226.85
400.58	226.94
400.95	226.96
401.33	227.05
401.70	227.20
402.08	227.29
402.45	227.41
402.83	227.53
403.20	227.63
403.58	227.68
403.95	227.83
404.33	227.98
404.71	228.06
405.08	228.28
405.46	228.43
405.83	228.58
406.21	228.75
406.58	228.92
406.96	229.11
407.33	229.31
407.70	229.48
408.08	229.74
408.45	229.94
408.83	230.17
409.20	230.37
409.58	230.51
409.95	230.76
410.33	231.03
410.70	231.26
411.08	231.55
411.45	231.88
411.82	232.16
412.20	232.49
412.57	232.92
412.95	233.18
413.32	233.58
413.69	233.97
414.07	234.39
414.44	234.83
414.82	235.30
415.19	235.86
415.56	236.45
415.94	236.98
416.31	237.61
416.68	238.24
417.06	238.98
417.43	239.71
417.81	240.48
418.18	241.25
418.55	242.10
418.93	243.00
419.30	243.88
419.67	244.83
420.04	245.79
420.42	246.81
420.79	248.02
421.16	249.16
421.54	250.36
421.91	251.60
422.28	252.82
422.66	254.14
423.03	255.47
423.40	256.79
423.77	258.19
424.15	259.64
424.52	261.13
424.89	262.72
425.26	264.21
425.64	265.68
426.01	267.29
426.38	268.90
426.75	270.56
427.13	272.31
427.50	274.12
427.87	276.02
428.24	277.84
428.61	279.56
428.99	281.51
429.36	283.64
429.73	285.71
430.10	287.76
430.47	289.84
430.85	291.95
431.22	294.20
431.59	296.60
431.96	298.81
432.33	301.32
432.70	303.74
433.08	306.60
433.45	309.21
433.82	311.82
434.19	314.75
434.56	317.56
434.93	320.18
435.30	322.79
435.68	325.67
436.05	328.51
436.42	331.31
436.79	333.84
437.16	336.50
437.53	339.30
437.90	342.13
438.27	344.83
438.64	347.64
439.01	350.17
439.38	352.37
439.75	354.59
440.13	357.07
440.50	359.39
440.87	361.21
441.24	363.17
441.61	365.30
441.98	366.77
442.35	368.61
442.72	370.48
443.09	372.30
443.46	373.28
443.83	373.90
444.20	374.39
444.57	375.21
444.94	375.49
445.31	375.78
445.68	376.13
446.05	376.18
446.42	375.80
446.79	375.42
447.16	374.96
447.53	374.57
447.90	373.37
448.27	372.18
448.64	370.62
449.01	369.49
449.37	367.54
449.74	365.67
450.11	363.37
450.48	360.90
450.85	358.34
451.22	356.17
451.59	354.11
451.96	352.17
452.33	349.53
452.70	347.19
453.07	344.41
453.43	341.49
453.80	338.78
454.17	336.11
454.54	333.55
454.91	330.89
455.28	328.24
455.65	325.78
456.02	323.32
456.38	321.14
456.75	318.45
457.12	316.15
457.49	313.92
457.86	311.76
458.23	309.88
458.59	307.87
458.96	305.80
459.33	304.00
459.70	302.13
460.07	300.66
460.43	298.90
460.80	297.31
461.17	295.88
461.54	294.35
461.91	292.94
462.27	291.51
462.64	290.25
463.01	288.90
463.38	287.60
463.74	286.23
464.11	285.08
464.48	284.11
464.85	283.01
465.21	282.12
465.58	281.18
465.95	280.12
466.32	279.20
466.68	278.33
467.05	277.38
467.42	276.49
467.78	275.58
468.15	274.71
468.52	274.01
468.88	273.14
469.25	272.41
469.62	271.80
469.98	271.12
470.35	270.47
470.72	269.87
471.08	269.22
471.45	268.72
471.82	268.18
472.18	267.57
472.55	267.17
472.92	266.68
473.28	266.21
473.65	265.77
474.02	265.32
474.38	264.96
474.75	264.66
475.11	264.32
475.48	264.06
475.85	263.85
476.21	263.65
476.58	263.50
476.94	263.30
477.31	263.13
477.67	262.95
478.04	262.86
478.41	262.83
478.77	262.88
479.14	262.81
479.50	262.85
479.87	262.93
480.23	263.00
480.60	263.08
480.96	263.19
481.33	263.37
481.69	263.57
482.06	263.77
482.42	264.00
482.79	264.27
483.15	264.59
483.52	264.97
483.88	265.31
484.25	265.70
484.61	266.16
484.98	266.61
485.34	267.20
485.71	267.80
486.07	268.39
486.44	268.98
486.80	269.72
487.17	270.41
487.53	271.22
487.90	272.12
488.26	273.06
488.62	274.09
488.99	275.08
489.35	276.13
489.72	277.28
490.08	278.47
490.44	279.74
490.81	281.08
491.17	282.43
491.54	283.91
491.90	285.46
492.26	287.11
492.63	288.87
492.99	290.64
493.36	292.58
493.72	294.60
494.08	296.70
494.45	298.92
494.81	301.30
495.17	303.71
495.54	306.26
495.90	308.96
496.26	311.72
496.63	314.68
496.99	317.80
497.35	321.02
497.72	324.41
498.08	327.87
498.44	331.55
498.80	335.50
499.17	339.52
499.53	343.71
499.89	348.10
500.26	352.65
500.62	357.31
500.98	362.27
501.34	367.38
501.71	372.73
502.07	378.18
502.43	383.83
502.79	389.67
503.16	395.73
503.52	401.96
503.88	408.35
504.24	414.95
504.60	421.81
504.97	428.93
505.33	436.25
505.69	444.07
506.05	451.79
506.41	459.68
506.78	467.88
507.14	476.31
507.50	485.02
507.86	493.97
508.22	503.20
508.59	512.38
508.95	521.98
509.31	531.74
509.67	541.82
510.03	552.04
510.39	562.58
510.75	573.36
511.12	584.33
511.48	595.70
511.84	607.18
512.20	618.70
512.56	630.74
512.92	642.97
513.28	655.22
513.64	667.71
514.00	680.44
514.37	693.35
514.73	706.35
515.09	719.39
515.45	732.72
515.81	746.36
516.17	760.34
516.53	774.41
516.89	788.64
517.25	802.79
517.61	817.26
517.97	831.68
518.33	846.08
518.69	860.86
519.05	875.79
519.41	890.97
519.77	906.50
520.13	921.89
520.49	937.20
520.85	952.62
521.21	968.35
521.57	984.54
521.93	1000.32
522.29	1016.70
522.65	1032.84
523.01	1048.94
523.37	1064.72
523.73	1080.90
524.09	1096.89
524.45	1113.09
524.81	1129.78
525.17	1146.63
525.53	1163.54
525.89	1180.51
526.25	1197.23
526.61	1213.60
526.97	1230.28
527.33	1246.68
527.68	1263.21
528.04	1279.70
528.40	1296.19
528.76	1313.14
529.12	1329.76
529.48	1346.57
529.84	1362.63
530.20	1379.34
530.56	1396.42
530.91	1414.04
531.27	1430.64
531.63	1447.12
531.99	1463.69
532.35	1479.48
532.71	1495.26
533.07	1511.43
533.42	1527.22
533.78	1543.31
534.14	1559.54
534.50	1574.96
534.86	1590.92
535.21	1606.26
535.57	1622.20
535.93	1637.79
536.29	1652.60
536.65	1667.62
537.00	1682.35
537.36	1697.66
537.72	1712.08
538.08	1726.47
538.44	1740.10
538.79	1754.03
539.15	1767.67
539.51	1781.36
539.87	1795.76
540.22	1809.46
540.58	1823.16
540.94	1836.43
541.29	1849.24
541.65	1862.00
542.01	1875.01
542.37	1887.26
542.72	1899.36
543.08	1911.09
543.44	1923.53
543.79	1934.71
544.15	1945.71
544.51	1957.25
544.87	1968.11
545.22	1978.89
545.58	1989.00
545.94	1998.69
546.29	2008.52
546.65	2018.40
547.01	2027.75
547.36	2036.44
547.72	2044.97
548.07	2052.87
548.43	2061.08
548.79	2069.27
549.14	2076.66
549.50	2084.13
549.86	2091.78
550.21	2099.28
550.57	2106.44
550.92	2112.85
551.28	2119.99
551.64	2126.91
551.99	2133.39
552.35	2139.61
552.70	2145.75
553.06	2151.73
553.41	2158.13
553.77	2164.12
554.13	2170.11
554.48	2176.29
554.84	2181.72
555.19	2186.96
555.55	2192.06
555.90	2196.55
556.26	2201.21
556.61	2206.06
556.97	2210.17
557.32	2214.38
557.68	2218.34
558.03	2222.59
558.39	2226.29
558.74	2230.95
559.10	2234.74
559.45	2238.51
559.81	2242.77
560.16	2246.63
560.52	2249.87
560.87	2253.28
561.23	2256.03
561.58	2259.11
561.94	2261.55
562.29	2263.89
562.64	2266.43
563.00	2268.99
563.35	2272.43
563.71	2275.62
564.06	2278.86
564.42	2281.72
564.77	2284.08
565.12	2286.42
565.48	2288.28
565.83	2290.21
566.19	2291.29
566.54	2292.31
566.89	2293.28
567.25	2293.79
567.60	2295.19
567.96	2296.89
568.31	2297.80
568.66	2298.78
569.02	2299.21
569.37	2299.49
569.72	2300.38
570.08	2300.58
570.43	2300.61
570.78	2300.04
571.14	2298.52
571.49	2297.01
571.84	2296.79
572.20	2295.67
572.55	2294.72
572.90	2293.09
573.26	2291.67
573.61	2290.11
573.96	2288.39
574.31	2285.50
574.67	2282.68
575.02	2278.92
575.37	2275.51
575.72	2271.68
576.08	2268.55
576.43	2265.50
576.78	2261.78
577.13	2258.69
577.49	2255.73
577.84	2252.42
578.19	2248.81
578.54	2245.11
578.90	2240.94
579.25	2235.39
579.60	2230.33
579.95	2225.27
580.30	2220.31
580.66	2215.12
581.01	2210.11
581.36	2205.19
581.71	2201.02
582.06	2196.42
582.42	2192.06
582.77	2186.76
583.12	2182.19
583.47	2177.32
583.82	2172.13
584.17	2167.02
584.53	2161.33
584.88	2155.56
585.23	2149.69
585.58	2144.15
585.93	2138.87
586.28	2134.03
586.63	2129.02
586.98	2124.00
587.34	2119.30
587.69	2114.56
588.04	2109.35
588.39	2103.79
588.74	2097.27
589.09	2091.17
589.44	2084.39
589.79	2078.38
590.14	2073.00
590.49	2066.42
590.84	2060.11
591.19	2054.09
591.54	2047.54
591.89	2040.24
592.25	2033.48
592.60	2026.30
592.95	2018.67
593.30	2011.18
593.65	2003.70
594.00	1996.60
594.35	1989.52
594.70	1981.54
595.05	1974.31
595.40	1967.02
595.75	1959.54
596.10	1953.33
596.45	1946.57
596.80	1940.41
597.15	1933.79
597.50	1926.51
597.85	1920.11
598.19	1913.44
598.54	1906.16
598.89	1899.56
599.24	1893.74
599.59	1887.06
599.94	1880.96
600.29	1874.74
600.64	1868.29
600.99	1860.87
601.34	1854.08
601.69	1847.22
602.04	1840.30
602.39	1832.98
602.74	1826.06
603.08	1819.28
603.43	1812.52
603.78	1805.20
604.13	1798.09
604.48	1790.70
604.83	1783.97
605.18	1776.99
605.53	1768.85
605.87	1761.11
606.22	1753.84
606.57	1745.92
606.92	1738.59
607.27	1731.34
607.62	1724.38
607.96	1717.00
608.31	1710.25
608.66	1702.73
609.01	1694.94
609.36	1687.36
609.70	1679.17
610.05	1671.20
610.40	1663.48
610.75	1655.19
611.10	1647.47
611.44	1638.94
611.79	1631.07
612.14	1622.27
612.49	1613.10
612.83	1604.79
613.18	1596.47
613.53	1588.43
613.88	1579.92
614.22	1571.65
614.57	1563.04
614.92	1554.96
615.27	1547.27
615.61	1539.03
615.96	1530.93
616.31	1523.52
616.65	1516.15
617.00	1508.71
617.35	1501.12
617.70	1492.82
618.04	1484.33
618.39	1476.19
618.74	1468.67
619.08	1460.30
619.43	1452.75
619.78	1445.84
620.12	1438.68
620.47	1431.27
620.82	1423.14
621.16	1415.70
621.51	1408.16
621.85	1400.52
622.20	1391.86
622.55	1383.70
622.89	1375.78
623.24	1368.19
623.59	1360.69
623.93	1353.18
624.28	1345.89
624.62	1338.29
624.97	1331.15
625.32	1324.35
625.66	1317.37
626.01	1310.15
626.35	1302.66
626.70	1294.94
627.04	1287.17
627.39	1279.47
627.73	1272.06
628.08	1265.11
628.43	1257.87
628.77	1250.49
629.12	1242.98
629.46	1236.01
629.81	1228.53
630.15	1221.34
630.50	1213.90
630.84	1205.64
631.19	1197.73
631.53	1190.28
631.88	1182.78
632.22	1175.07
632.57	1167.76
632.91	1160.25
633.26	1152.86
633.60	1145.66
633.95	1138.59
634.29	1131.68
634.64	1124.97
634.98	1117.55
635.32	1110.47
635.67	1103.84
636.01	1097.16
636.36	1090.37
636.70	1083.78
637.05	1077.24
637.39	1070.77
637.73	1064.16
638.08	1058.35
638.42	1052.35
638.77	1045.86
639.11	1039.20
639.45	1032.94
639.80	1026.34
640.14	1019.87
640.49	1013.28
640.83	1006.82
641.17	1000.56
641.52	994.10
641.86	987.72
642.20	981.85
642.55	975.49
642.89	968.98
643.23	962.46
643.58	956.69
643.92	950.53
644.26	944.41
644.61	938.43
644.95	932.48
645.29	925.89
645.64	919.14
645.98	912.73
646.32	906.90
646.66	900.81
647.01	895.02
647.35	889.29
647.69	883.46
648.04	877.99
648.38	872.17
648.72	866.18
649.06	860.08
649.41	854.24
649.75	848.26
650.09	842.32
650.43	836.48
650.78	830.19
651.12	824.16
651.46	818.44
651.80	812.60
652.14	807.24
652.49	801.83
652.83	796.71
653.17	791.07
653.51	785.35
653.85	779.91
654.20	774.28
654.54	768.23
654.88	762.49
655.22	756.61
655.56	750.92
655.90	745.56
656.25	740.35
656.59	734.98
656.93	729.85
657.27	724.67
657.61	719.22
657.95	714.23
658.29	709.18
658.64	703.99
658.98	698.74
659.32	693.24
659.66	688.02
660.00	682.67
660.34	677.77
660.68	672.85
661.02	667.79
661.36	663.03
661.70	658.57
662.05	654.25
662.39	649.93
662.73	645.43
663.07	641.00
663.41	636.53
663.75	632.09
664.09	627.53
664.43	623.16
664.77	619.08
665.11	614.86
665.45	610.73
665.79	606.59
666.13	602.44
666.47	598.37
666.81	594.21
667.15	590.13
667.49	586.21
667.83	582.45
668.17	578.58
668.51	574.48
668.85	570.44
669.19	566.65
669.53	562.76
669.87	558.90
670.21	555.16
670.55	551.48
670.89	548.04
671.23	544.58
671.57	541.06
671.91	537.53
672.25	534.06
672.58	530.56
672.92	527.19
673.26	524.03
673.60	520.86
673.94	517.75
674.28	514.88
674.62	511.89
674.96	508.73
675.30	505.78
675.64	502.85
675.97	500.07
676.31	497.18
676.65	494.24
676.99	491.53
677.33	488.77
677.67	485.97
678.01	482.92
678.34	480.02
678.68	477.21
679.02	474.38
679.36	471.58
679.70	468.85
680.04	466.11
680.37	463.23
680.71	460.47
681.05	457.85
681.39	455.05
681.73	452.39
682.06	449.91
682.40	447.41
682.74	444.93
683.08	442.39
683.42	439.76
683.75	437.26
684.09	434.70
684.43	432.20
684.77	429.76
685.10	427.44
685.44	425.12
685.78	422.79
686.12	420.56
686.45	418.28
686.79	416.01
687.13	413.80
687.46	411.67
687.80	409.51
688.14	407.34
688.48	405.31
688.81	403.12
689.15	400.93
689.49	398.77
689.82	396.65
690.16	394.56
690.50	392.62
690.83	390.73
691.17	388.78
691.51	386.91
691.84	385.03
692.18	383.09
692.52	381.08
692.85	379.12
693.19	377.24
693.52	375.41
693.86	373.57
694.20	371.81
694.53	369.99
694.87	368.13
695.21	366.35
695.54	364.54
695.88	362.84
696.21	361.17
696.55	359.49
696.88	357.88
697.22	356.29
697.56	354.69
697.89	353.01
698.23	351.35
698.56	349.68
698.90	348.13
699.23	346.50
699.57	345.00
699.90	343.49
700.24	341.99
700.58	340.44
700.91	338.94
701.25	337.48
701.58	336.12
701.92	334.74
702.25	333.34
702.59	331.98
702.92	330.59
703.26	329.22
703.59	327.92
703.93	326.71
704.26	325.42
704.60	324.12
704.93	322.87
705.26	321.67
705.60	320.51
705.93	319.32
706.27	318.28
706.60	317.16
706.94	316.10
707.27	314.93
707.61	313.91
707.94	312.86
708.27	311.74
708.61	310.62
708.94	309.67
709.28	308.68
709.61	307.73
709.94	306.80
710.28	305.80
710.61	304.88
710.95	303.79
711.28	302.91
711.61	301.94
711.95	301.00
712.28	300.05
712.61	299.04
712.95	298.12
713.28	297.22
713.61	296.33
713.95	295.41
714.28	294.55
714.61	293.63
714.95	292.87
715.28	292.02
715.61	291.18
715.95	290.29
716.28	289.40
716.61	288.61
716.95	287.79
717.28	287.08
717.61	286.29
717.94	285.59
718.28	284.77
718.61	284.09
718.94	283.41
719.27	282.78
719.61	282.16
719.94	281.49
720.27	280.79
720.60	280.14
720.94	279.55
721.27	279.00
721.60	278.44
721.93	277.81
722.27	277.28
722.60	276.75
722.93	276.18
723.26	275.65
723.59	275.08
723.93	274.54
724.26	273.95
724.59	273.43
724.92	272.90
725.25	272.41
725.59	271.88
725.92	271.37
726.25	270.87
726.58	270.36
726.91	269.88
727.24	269.39
727.57	268.90
727.91	268.34
728.24	267.88
728.57	267.37
728.90	266.89
729.23	266.39
729.56	265.92
729.89	265.46
730.22	264.99
730.55	264.52
730.89	264.08
731.22	263.61
731.55	263.16
731.88	262.72
732.21	262.27
732.54	261.81
732.87	261.39
733.20	260.97
733.53	260.62
733.86	260.22
734.19	259.83
734.52	259.47
734.85	259.19
735.18	258.74
735.51	258.41
735.84	258.04
736.17	257.70
736.50	257.31
736.83	257.07
737.16	256.75
737.49	256.39
737.82	256.03
738.15	255.69
738.48	255.35
738.81	255.03
739.14	254.72
739.47	254.39
739.80	254.07
740.13	253.74
740.46	253.37
740.79	253.04
741.12	252.74
741.45	252.44
741.78	252.06
742.11	251.78
742.44	251.45
742.77	251.16
743.10	250.84
743.43	250.56
743.75	250.16
744.08	250.02
744.41	249.74
744.74	249.49
745.07	249.22
745.40	248.95
745.73	248.70
746.06	248.38
746.39	248.13
746.71	247.87
747.04	247.61
747.37	247.40
747.70	247.16
748.03	246.89
748.36	246.63
748.68	246.40
749.01	246.18
749.34	245.93
749.67	245.70
750.00	245.49
750.33	245.31
750.65	245.10
750.98	244.71
751.31	244.47
751.64	244.23
751.97	244.07
752.29	243.85
752.62	243.61
752.95	243.41
753.28	243.17
753.60	242.93
753.93	242.74
754.26	242.53
754.59	242.31
754.91	242.12
755.24	241.95
755.57	241.75
755.90	241.54
756.22	241.36
756.55	241.15
756.88	240.95
757.20	240.70
757.53	240.50
757.86	240.35
758.19	240.21
758.51	240.06
758.84	239.83
759.17	239.67
759.49	239.51
759.82	239.38
760.15	239.26
760.47	239.13
760.80	238.98
761.13	238.83
761.45	238.67
761.78	238.51
762.11	238.37
762.43	238.21
762.76	238.08
763.08	237.92
763.41	237.82
763.74	237.70
764.06	237.57
764.39	237.41
764.71	237.28
765.04	237.13
765.37	237.00
765.69	236.89
766.02	236.79
766.34	236.65
766.67	236.51
767.00	236.41
767.32	236.32
767.65	236.26
767.97	236.13
768.30	236.05
768.62	235.93
768.95	235.79
769.27	235.70
769.60	235.62
769.92	235.50
770.25	235.36
770.57	235.26
770.90	235.15
771.22	235.08
771.55	235.02
771.87	234.97
772.20	234.87
772.52	234.86
772.85	234.87
773.17	234.80
773.50	234.70
773.82	234.60
774.15	234.49
774.47	234.37
774.80	234.30
775.12	234.22
775.45	234.16
775.77	234.09
776.09	234.00
776.42	233.91
776.74	233.90
777.07	233.83
777.39	233.76
777.72	233.71
778.04	233.67
778.36	233.57
778.69	233.47
779.01	233.37
779.33	233.21
779.66	233.04
779.98	232.98
780.31	232.93
780.63	232.93
780.95	232.90
781.28	232.84
781.60	232.77
781.92	232.71
782.25	232.65
782.57	232.60
782.89	232.57
783.22	232.51
783.54	232.42
783.86	232.39
784.19	232.34
784.51	232.30
784.83	232.23
785.16	232.16
785.48	232.12
785.80	232.07
786.12	232.04
786.45	231.95
786.77	231.90
787.09	231.85
787.42	231.76
787.74	231.69
788.06	231.63
788.38	231.55
788.71	231.48
789.03	231.45
789.35	231.41
789.67	231.34
789.99	231.28
790.32	231.21
790.64	231.17
790.96	231.18
791.28	231.10
791.61	231.04
791.93	231.03
792.25	230.99
792.57	231.05
792.89	230.97
793.21	230.94
793.54	230.91
793.86	230.87
794.18	230.82
794.50	230.77
794.82	230.69
795.14	230.67
795.47	230.65
795.79	230.61
796.11	230.58
796.43	230.53
796.75	230.51
797.07	230.51
797.39	230.46
797.71	230.36
798.04	230.28
798.36	230.26
798.68	230.20
799.00	230.15
799.32	230.05
799.64	230.05
799.96	230.02
800.28	229.98
800.60	229.93
800.92	229.91
801.24	229.88
801.56	229.86
801.89	229.85
802.21	229.84
802.53	229.80
802.85	229.77
803.17	229.83
803.49	229.75
803.81	229.69
804.13	229.67
804.45	229.66
804.77	229.66
805.09	229.63
805.41	229.61
805.73	229.58
806.05	229.53
806.37	229.50
806.69	229.48
807.01	229.47
807.33	229.47
807.65	229.40
807.97	229.41
808.28	229.40
808.60	229.39
808.92	229.34
809.24	229.37
809.56	229.33
809.88	229.22
810.20	229.23
810.52	229.25
810.84	229.16
811.16	229.15
811.48	229.16
811.80	229.15
812.12	229.13
812.43	229.09
812.75	229.10
813.07	229.08
813.39	229.06
813.71	229.03
814.03	228.98
814.35	228.95
814.67	228.90
814.98	228.89
815.30	228.89
815.62	228.85
815.94	228.79
816.26	228.84
816.58	228.79
816.89	228.81
817.21	228.77
817.53	228.81
817.85	228.77
818.17	228.75
818.48	228.73
818.80	228.73
819.12	228.73
819.44	228.69
819.76	228.67
820.07	228.64
820.39	228.58
820.71	228.62
821.03	228.61
821.34	228.55
821.66	228.53
821.98	228.50
822.30	228.48
822.61	228.51
822.93	228.41
823.25	228.40
823.57	228.38
823.88	228.35
824.20	228.32
824.52	228.29
824.83	228.26
825.15	228.23
825.47	228.18
825.79	228.15
826.10	228.16
826.42	228.12
826.74	228.15
827.05	228.15
827.37	228.11
827.69	228.09
828.00	228.11
828.32	228.10
828.64	228.07
828.95	228.10
829.27	228.05
829.58	228.05
829.90	228.09
830.22	228.05
830.53	228.02
830.85	227.98
831.17	227.94
831.48	227.94
831.80	227.90
832.11	227.88
832.43	227.84
832.75	227.83
833.06	227.88
833.38	227.82
833.69	227.81
834.01	227.81
834.32	227.80
834.64	227.79
834.96	227.77
835.27	227.74
835.59	227.73
835.90	227.71
836.22	227.72
836.53	227.64
836.85	227.63
837.16	227.77
837.48	227.77
837.79	227.82
838.11	227.83
838.42	227.88
838.74	227.90
839.05	227.91
839.37	227.85
839.68	227.79
840.00	227.79
840.31	227.81
840.63	227.79
840.94	227.77
841.26	227.75
841.57	227.78
841.88	227.78
842.20	227.74
842.51	227.71
842.83	227.73
843.14	227.84
843.46	227.82
843.77	227.75
844.08	227.74
844.40	227.72
844.71	227.65
845.03	227.62
845.34	227.60
845.65	227.59
845.97	227.63
846.28	227.63
846.60	227.64
846.91	227.59
847.22	227.60
847.54	227.63
847.85	227.61
848.16	227.56
848.48	227.53
848.79	227.56
849.10	227.59
849.42	227.55
849.73	227.47
850.04	227.46
850.36	227.45
850.67	227.46
850.98	227.43
851.30	227.47
851.61	227.47
851.92	227.46
852.23	227.49
852.55	227.48
852.86	227.50
853.17	227.48
853.49	227.51
853.80	227.53
854.11	227.53
854.42	227.55
854.74	227.55
855.05	227.57
855.36	227.53
855.67	227.52
855.99	227.52
856.30	227.61
856.61	227.61
856.92	227.55
857.23	227.54
857.55	227.55
857.86	227.53
858.17	227.50
858.48	227.50
858.79	227.49
859.11	227.48
859.42	227.44
859.73	227.40
860.04	227.44
860.35	227.39
860.66	227.33
860.98	227.30
861.29	227.33
861.60	227.30
861.91	227.31
862.22	227.27
862.53	227.25
862.84	227.16
863.16	227.15
863.47	227.13
863.78	227.13
864.09	227.11
864.40	227.08
864.71	227.09
865.02	227.11
865.33	227.09
865.64	227.10
865.95	227.12
866.27	227.20
866.58	227.12
866.89	227.14
867.20	227.15
867.51	227.12
867.82	227.10
868.13	227.15
868.44	227.12
868.75	227.14
869.06	227.15
869.37	227.13
869.68	227.11
869.99	227.15
870.30	227.14
870.61	227.15
870.92	227.19
871.23	227.17
871.54	227.16
871.85	227.17
872.16	227.15
872.47	227.12
872.78	227.07
873.09	227.08
873.40	227.07
873.71	227.08
874.02	227.11
874.33	227.10
874.64	227.03
874.95	227.06
875.26	227.05
875.56	227.05
875.87	227.05
876.18	227.04
876.49	227.11
876.80	227.12
877.11	227.09
877.42	227.07
877.73	227.09
878.04	227.06
878.35	227.07
878.66	227.10
878.96	227.12
879.27	227.09
879.58	227.09
879.89	227.07
880.20	227.10
880.51	227.08
880.82	227.09
881.12	227.13
881.43	227.10
881.74	227.09
882.05	227.09
882.36	227.11
882.67	227.14
882.97	227.03
883.28	227.04
883.59	227.06
883.90	227.08
884.21	227.13
884.51	227.13
884.82	227.12
885.13	227.11
885.44	227.11
885.74	227.16
886.05	227.16
886.36	227.20
886.67	227.17
886.98	227.24
887.28	227.23
887.59	227.24
887.90	227.26
888.20	227.25
888.51	227.29
888.82	227.26
889.13	227.27
889.43	227.38
889.74	227.35
890.05	227.34
890.35	227.33
890.66	227.27
890.97	227.29
891.28	227.28
891.58	227.31
891.89	227.30
892.20	227.29
892.50	227.27
892.81	227.24
893.12	227.26
893.42	227.22
893.73	227.22
894.04	227.20
894.34	227.20
894.65	227.24
894.95	227.20
895.26	227.21
895.57	227.22
895.87	227.15
896.18	227.18
896.48	227.19
896.79	227.22
897.10	227.25
897.40	227.23
897.71	227.23
898.01	227.20
898.32	227.18
898.63	227.14
898.93	227.15
899.24	227.14
899.54	227.10
899.85	227.08
900.15	227.07
900.46	227.09
900.76	227.06
901.07	227.04
901.38	227.05
901.68	227.05
901.99	227.01
902.29	227.01
902.60	227.00
902.90	227.00
903.21	226.94
903.51	226.88
903.82	226.93
904.12	226.92
904.43	226.94
904.73	226.95
905.03	226.94
905.34	227.05
905.64	227.04
905.95	227.04
906.25	227.04
906.56	227.06
906.86	227.05
907.17	227.03
907.47	226.99
907.77	226.98
908.08	226.98
908.38	226.96
908.69	226.93
908.99	226.92
909.30	226.91
909.60	226.91
909.90	226.97
910.21	226.92
910.51	226.90
910.81	226.86
911.12	226.85
911.42	226.84
911.73	226.72
912.03	226.75
912.33	226.76
912.64	226.76
912.94	226.75
913.24	226.74
913.55	226.75
913.85	226.77
914.15	226.75
914.46	226.73
914.76	226.74
915.06	226.76
915.37	226.77
915.67	226.74
915.97	226.75
916.27	226.72
916.58	226.71
916.88	226.72
917.18	226.73
917.49	226.80
917.79	226.80
918.09	226.82
918.39	226.84
918.70	226.86
919.00	226.85
919.30	226.90
919.60	226.90
919.91	226.89
920.21	226.91
920.51	226.92
920.81	226.92
921.12	226.92
921.42	226.91
921.72	226.92
922.02	226.98
922.32	226.98
922.63	226.97
922.93	227.04
923.23	227.03
923.53	227.03
923.83	226.98
924.13	227.06
924.44	227.07
924.74	227.09
925.04	227.11
925.34	227.13
925.64	227.08
925.94	227.06
926.24	227.12
926.55	227.09
926.85	227.11
927.15	227.13
927.45	227.16
927.75	227.17
928.05	227.14
928.35	227.11
928.65	227.14
928.95	227.16
929.26	227.14
929.56	227.18
929.86	227.20
930.16	227.15
930.46	227.11
930.76	227.09
931.06	227.05
931.36	226.99
931.66	226.99
931.96	227.02
932.26	227.04
932.56	227.01
932.86	227.04
933.16	227.03
933.46	227.03
933.76	227.00
934.06	227.04
934.36	227.09
934.66	227.07
934.96	227.04
935.26	227.08
935.56	227.09
935.86	227.05
936.16	226.99
936.46	227.01
936.76	226.98
937.06	226.98
937.36	226.96
937.66	226.99
937.96	226.99
938.26	226.95
938.56	226.96
938.86	226.95
939.16	226.97
939.46	227.01
939.76	227.00
940.06	226.99
940.35	226.94
940.65	226.87
940.95	226.91
941.25	226.90
941.55	226.85
941.85	226.82
942.15	226.81
942.45	226.90
942.75	226.91
943.04	226.91
943.34	226.94
943.64	226.94
943.94	226.92
944.24	226.89
944.54	226.91
944.84	226.93
945.13	226.89
945.43	226.84
945.73	226.80
946.03	226.78
946.33	226.77
946.62	226.76
946.92	226.77
947.22	226.75
947.52	226.76
947.82	226.76
948.11	226.73
948.41	226.72
948.71	226.68
949.01	226.69
949.31	226.70
949.60	226.66
949.90	226.69
950.20	226.67
950.50	226.66
950.79	226.66
951.09	226.65
951.39	226.65
951.69	226.64
951.98	226.67
952.28	226.65
952.58	226.63
952.87	226.65
953.17	226.65
953.47	226.65
953.76	226.61
954.06	226.58
954.36	226.59
954.66	226.62
954.95	226.65
955.25	226.62
955.55	226.60
955.84	226.62
956.14	226.62
956.44	226.64
956.73	226.64
957.03	226.61
957.32	226.59
957.62	226.59
957.92	226.62
958.21	226.61
958.51	226.72
958.81	226.77
959.10	226.79
959.40	226.82
959.69	226.85
959.99	226.90
960.29	226.91
960.58	226.88
960.88	226.90
961.17	226.86
961.47	226.89
961.76	226.90
962.06	226.91
962.36	226.91
962.65	226.92
962.95	226.95
963.24	226.97
963.54	226.99
963.83	227.00
964.13	227.02
964.42	227.02
964.72	226.96
965.01	226.92
965.31	226.91
965.60	226.89
965.90	226.93
966.19	226.91
966.49	226.95
966.78	226.96
967.08	226.94
967.37	226.95
967.67	226.94
967.96	226.99
968.26	226.97
968.55	226.99
968.85	227.00
969.14	226.99
969.43	226.96
969.73	226.96
970.02	226.96
970.32	226.91
970.61	226.93
970.91	226.90
971.20	226.92
971.49	226.91
971.79	226.89
972.08	226.84
972.38	226.86
972.67	226.85
972.96	226.87
973.26	226.86
973.55	226.91
973.85	226.92
974.14	226.91
974.43	226.89
974.73	226.85
975.02	226.83
975.31	226.83
975.61	226.83
975.90	226.82
976.19	226.80
976.49	226.84
976.78	226.85
977.07	226.86
977.37	226.86
977.66	226.88
977.95	226.89
978.24	226.88
978.54	226.87
978.83	226.87
979.12	226.86
979.42	226.87
979.71	226.83
980.00	226.79
980.29	226.79
980.59	226.77
980.88	226.80
981.17	226.79
981.46	226.78
981.76	226.80
982.05	226.83
982.34	226.87
982.63	226.86
982.93	226.86
983.22	226.87
983.51	226.87
983.80	226.86
984.09	226.87
984.39	226.89
984.68	226.87
984.97	226.85
985.26	226.83
985.55	226.86
985.85	226.82
986.14	226.84
986.43	226.82
986.72	226.86
987.01	226.82
987.30	226.83
987.59	226.81
987.89	226.82
988.18	226.78
988.47	226.72
988.76	226.69
989.05	226.69
989.34	226.68
989.63	226.67
989.92	226.66
990.22	226.65
990.51	226.61
990.80	226.61
991.09	226.62
991.38	226.64
991.67	226.58
991.96	226.61
992.25	226.60
992.54	226.61
992.83	226.61
993.12	226.61
993.41	226.60
993.70	226.65
993.99	226.64
994.28	226.63
994.58	226.66
994.87	226.64
995.16	226.62
995.45	226.63
995.74	226.57
996.03	226.60
996.32	226.61
996.61	226.62
996.90	226.63
997.19	226.60
997.48	226.59
997.77	226.58
998.06	226.54
998.34	226.54
998.63	226.49
998.92	226.48
999.21	226.48
999.50	226.50
999.79	226.47
1000.08	226.48
1000.37	226.47
1000.66	226.43
1000.95	226.47
1001.24	226.47
1001.53	226.47
1001.82	226.49
1002.11	226.45
1002.40	226.46
1002.68	226.46
1002.97	226.54
1003.26	226.55
1003.55	226.56
1003.84	226.57
1004.13	226.63
1004.42	226.64
1004.71	226.69
1004.99	226.70
1005.28	226.73
1005.57	226.73
1005.86	226.73
1006.15	226.73
1006.44	226.73
1006.72	226.73
1007.01	226.72
1007.30	226.74
1007.59	226.71
1007.88	226.74
1008.17	226.75
1008.45	226.73
1008.74	226.72
1009.03	226.67
1009.32	226.65
1009.60	226.64
1009.89	226.64
1010.18	226.61
1010.47	226.61
1010.76	226.61
1011.04	226.59
1011.33	226.58
1011.62	226.57
1011.91	226.60
1012.19	226.59
1012.48	226.60
1012.77	226.63
1013.05	226.67
1013.34	226.65
1013.63	226.67
1013.92	226.64
1014.20	226.61
1014.49	226.62
1014.78	226.63
1015.06	226.63
1015.35	226.64
1015.64	226.65
1015.92	226.68
1016.21	226.66
1016.50	226.66
1016.78	226.65
1017.07	226.68
1017.36	226.66
1017.64	226.62
1017.93	226.60
1018.22	226.60
1018.50	226.61
1018.79	226.60
1019.08	226.55
1019.36	226.55
1019.65	226.55
1019.93	226.60
1020.22	226.63
1020.51	226.67
1020.79	226.67
1021.08	226.74
1021.36	226.59
1021.65	226.50
1021.94	226.58
1022.22	226.48
1022.51	226.75
1022.79	227.17
1023.08	226.73
1023.36	227.64
1023.65	226.73
>>>>>End Processed Spectral Data<<<<<
