SpectraSuite Data File
++++++++++++++++++++++++++++++++++++
Date: Fri Feb 01 15:53:18 EST 2013
User: group
Dark Spectrum Present: No
Reference Spectrum Present: No
Number of Sampled Component Spectra: 1
Spectrometers: USB2E7196
Integration Time (usec): 35000 (USB2E7196)
Spectra Averaged: 100 (USB2E7196)
Boxcar Smoothing: 10 (USB2E7196)
Correct for Electrical Dark: No (USB2E7196)
Strobe/Lamp Enabled: No (USB2E7196)
Correct for Detector Non-linearity: No (USB2E7196)
Correct for Stray Light: No (USB2E7196)
Number of Pixels in Processed Spectrum: 2048
>>>>>Begin Processed Spectral Data<<<<<
339.09	0.00
339.48	214.08
339.86	216.37
340.24	217.60
340.63	219.08
341.01	222.24
341.39	221.51
341.78	223.09
342.16	224.47
342.54	224.11
342.93	213.16
343.31	223.95
343.69	224.51
344.07	224.99
344.46	225.40
344.84	225.78
345.22	226.02
345.60	226.27
345.99	226.45
346.37	226.58
346.75	226.71
347.13	226.79
347.52	226.87
347.90	226.92
348.28	226.96
348.66	227.02
349.05	227.02
349.43	227.04
349.81	227.09
350.19	227.13
350.57	227.22
350.96	227.28
351.34	227.36
351.72	227.47
352.10	227.55
352.48	227.63
352.87	227.70
353.25	227.75
353.63	227.81
354.01	227.87
354.39	227.94
354.77	228.02
355.15	228.11
355.54	228.16
355.92	228.20
356.30	228.27
356.68	228.40
357.06	228.45
357.44	228.51
357.82	228.56
358.20	228.63
358.58	228.67
358.97	228.73
359.35	228.80
359.73	228.86
360.11	228.92
360.49	229.00
360.87	229.06
361.25	229.11
361.63	229.20
362.01	229.25
362.39	229.27
362.77	229.30
363.15	229.31
363.53	229.32
363.91	229.33
364.29	229.33
364.67	229.23
365.05	229.25
365.43	229.25
365.81	229.28
366.19	229.31
366.57	229.32
366.95	229.30
367.33	229.23
367.71	229.21
368.09	229.19
368.47	229.12
368.85	229.07
369.23	229.05
369.61	228.97
369.99	228.97
370.37	228.92
370.75	228.94
371.13	228.86
371.51	228.80
371.89	228.75
372.27	228.66
372.65	228.61
373.03	228.54
373.41	228.47
373.78	228.38
374.16	228.27
374.54	228.19
374.92	228.10
375.30	228.06
375.68	227.97
376.06	227.91
376.44	227.85
376.82	227.81
377.19	227.74
377.57	227.65
377.95	227.51
378.33	227.43
378.71	227.29
379.09	227.26
379.47	227.21
379.84	227.17
380.22	227.13
380.60	227.06
380.98	226.99
381.36	226.91
381.73	226.84
382.11	226.79
382.49	226.73
382.87	226.66
383.25	226.58
383.62	226.64
384.00	226.55
384.38	226.51
384.76	226.46
385.13	226.42
385.51	226.37
385.89	226.36
386.27	226.32
386.64	226.30
387.02	226.26
387.40	226.22
387.78	226.19
388.15	226.19
388.53	226.15
388.91	226.14
389.29	226.14
389.66	226.14
390.04	226.10
390.42	226.10
390.79	226.10
391.17	226.12
391.55	226.04
391.92	226.04
392.30	226.08
392.68	226.09
393.05	226.10
393.43	226.12
393.81	226.19
394.18	226.23
394.56	226.23
394.94	226.27
395.31	226.27
395.69	226.31
396.06	226.32
396.44	226.38
396.82	226.42
397.19	226.49
397.57	226.55
397.95	226.62
398.32	226.65
398.70	226.74
399.07	226.79
399.45	226.84
399.82	226.90
400.20	226.92
400.58	226.96
400.95	227.02
401.33	227.13
401.70	227.24
402.08	227.31
402.45	227.42
402.83	227.52
403.20	227.67
403.58	227.78
403.95	227.94
404.33	228.04
404.71	228.18
405.08	228.35
405.46	228.48
405.83	228.65
406.21	228.82
406.58	229.00
406.96	229.19
407.33	229.38
407.70	229.58
408.08	229.86
408.45	230.11
408.83	230.36
409.20	230.58
409.58	230.75
409.95	231.04
410.33	231.30
410.70	231.55
411.08	231.80
411.45	232.11
411.82	232.42
412.20	232.82
412.57	233.22
412.95	233.52
413.32	233.92
413.69	234.31
414.07	234.74
414.44	235.19
414.82	235.67
415.19	236.20
415.56	236.75
415.94	237.27
416.31	237.85
416.68	238.44
417.06	239.12
417.43	239.81
417.81	240.56
418.18	241.34
418.55	242.18
418.93	243.08
419.30	243.95
419.67	244.87
420.04	245.78
420.42	246.78
420.79	247.96
421.16	249.12
421.54	250.26
421.91	251.46
422.28	252.70
422.66	254.02
423.03	255.34
423.40	256.66
423.77	258.07
424.15	259.48
424.52	260.96
424.89	262.58
425.26	264.11
425.64	265.57
426.01	267.14
426.38	268.78
426.75	270.45
427.13	272.13
427.50	273.92
427.87	275.78
428.24	277.61
428.61	279.35
428.99	281.30
429.36	283.45
429.73	285.53
430.10	287.54
430.47	289.58
430.85	291.68
431.22	293.90
431.59	296.24
431.96	298.52
432.33	301.03
432.70	303.38
433.08	306.19
433.45	308.82
433.82	311.44
434.19	314.33
434.56	317.13
434.93	319.80
435.30	322.39
435.68	325.31
436.05	328.16
436.42	330.93
436.79	333.46
437.16	336.14
437.53	338.97
437.90	341.83
438.27	344.58
438.64	347.41
439.01	350.07
439.38	352.32
439.75	354.51
440.13	356.98
440.50	359.36
440.87	361.20
441.24	363.15
441.61	365.32
441.98	366.81
442.35	368.61
442.72	370.45
443.09	372.25
443.46	373.26
443.83	373.88
444.20	374.42
444.57	375.23
444.94	375.50
445.31	375.83
445.68	376.15
446.05	376.19
446.42	375.80
446.79	375.36
447.16	374.91
447.53	374.55
447.90	373.41
448.27	372.22
448.64	370.63
449.01	369.51
449.37	367.52
449.74	365.68
450.11	363.45
450.48	361.03
450.85	358.54
451.22	356.38
451.59	354.32
451.96	352.40
452.33	349.84
452.70	347.51
453.07	344.65
453.43	341.74
453.80	338.99
454.17	336.32
454.54	333.78
454.91	331.05
455.28	328.42
455.65	325.95
456.02	323.50
456.38	321.37
456.75	318.71
457.12	316.50
457.49	314.21
457.86	312.02
458.23	310.15
458.59	308.08
458.96	306.00
459.33	304.14
459.70	302.28
460.07	300.75
460.43	299.04
460.80	297.45
461.17	296.00
461.54	294.52
461.91	293.08
462.27	291.63
462.64	290.39
463.01	289.03
463.38	287.71
463.74	286.36
464.11	285.22
464.48	284.18
464.85	283.03
465.21	282.16
465.58	281.23
465.95	280.15
466.32	279.29
466.68	278.38
467.05	277.49
467.42	276.55
467.78	275.59
468.15	274.69
468.52	273.99
468.88	273.15
469.25	272.42
469.62	271.82
469.98	271.15
470.35	270.53
470.72	269.92
471.08	269.29
471.45	268.77
471.82	268.20
472.18	267.57
472.55	267.12
472.92	266.63
473.28	266.21
473.65	265.75
474.02	265.28
474.38	264.90
474.75	264.57
475.11	264.25
475.48	263.98
475.85	263.76
476.21	263.55
476.58	263.38
476.94	263.22
477.31	263.02
477.67	262.86
478.04	262.73
478.41	262.70
478.77	262.70
479.14	262.58
479.50	262.58
479.87	262.66
480.23	262.74
480.60	262.85
480.96	262.92
481.33	263.10
481.69	263.32
482.06	263.53
482.42	263.74
482.79	263.97
483.15	264.34
483.52	264.74
483.88	265.09
484.25	265.44
484.61	265.86
484.98	266.37
485.34	266.95
485.71	267.55
486.07	268.12
486.44	268.72
486.80	269.47
487.17	270.24
487.53	271.08
487.90	271.96
488.26	272.85
488.62	273.85
488.99	274.83
489.35	275.83
489.72	276.99
490.08	278.22
490.44	279.50
490.81	280.78
491.17	282.17
491.54	283.64
491.90	285.21
492.26	286.83
492.63	288.54
492.99	290.34
493.36	292.22
493.72	294.27
494.08	296.37
494.45	298.61
494.81	300.93
495.17	303.35
495.54	305.93
495.90	308.65
496.26	311.46
496.63	314.46
496.99	317.64
497.35	320.84
497.72	324.24
498.08	327.76
498.44	331.51
498.80	335.38
499.17	339.44
499.53	343.59
499.89	347.99
500.26	352.48
500.62	357.15
500.98	362.16
501.34	367.20
501.71	372.56
502.07	378.01
502.43	383.68
502.79	389.53
503.16	395.59
503.52	401.85
503.88	408.27
504.24	414.87
504.60	421.72
504.97	428.92
505.33	436.26
505.69	443.96
506.05	451.74
506.41	459.66
506.78	467.80
507.14	476.32
507.50	485.02
507.86	494.05
508.22	503.22
508.59	512.36
508.95	522.03
509.31	531.82
509.67	541.94
510.03	552.26
510.39	562.77
510.75	573.60
511.12	584.56
511.48	595.86
511.84	607.27
512.20	618.77
512.56	630.68
512.92	642.83
513.28	655.15
513.64	667.66
514.00	680.37
514.37	693.33
514.73	706.37
515.09	719.36
515.45	732.62
515.81	746.25
516.17	760.26
516.53	774.44
516.89	788.66
517.25	802.76
517.61	817.16
517.97	831.57
518.33	845.92
518.69	860.67
519.05	875.70
519.41	890.93
519.77	906.49
520.13	921.94
520.49	937.33
520.85	952.83
521.21	968.51
521.57	984.76
521.93	1000.54
522.29	1016.92
522.65	1033.22
523.01	1049.47
523.37	1065.56
523.73	1081.80
524.09	1097.68
524.45	1113.83
524.81	1130.49
525.17	1147.27
525.53	1164.25
525.89	1181.15
526.25	1197.86
526.61	1214.08
526.97	1230.76
527.33	1247.27
527.68	1263.81
528.04	1280.27
528.40	1296.69
528.76	1313.72
529.12	1330.19
529.48	1347.01
529.84	1363.01
530.20	1379.65
530.56	1396.71
530.91	1413.92
531.27	1430.47
531.63	1446.99
531.99	1463.55
532.35	1479.44
532.71	1495.33
533.07	1511.48
533.42	1527.43
533.78	1543.58
534.14	1559.96
534.50	1575.26
534.86	1591.10
535.21	1606.42
535.57	1622.36
535.93	1637.96
536.29	1652.61
536.65	1667.55
537.00	1682.40
537.36	1697.74
537.72	1712.26
538.08	1726.44
538.44	1740.31
538.79	1754.34
539.15	1768.01
539.51	1781.74
539.87	1796.12
540.22	1809.89
540.58	1823.74
540.94	1837.02
541.29	1849.85
541.65	1862.47
542.01	1875.90
542.37	1887.98
542.72	1900.37
543.08	1912.20
543.44	1924.52
543.79	1935.85
544.15	1946.99
544.51	1958.39
544.87	1969.31
545.22	1980.09
545.58	1990.48
545.94	2000.23
546.29	2009.93
546.65	2019.78
547.01	2029.11
547.36	2037.82
547.72	2046.15
548.07	2053.97
548.43	2062.04
548.79	2070.12
549.14	2077.71
549.50	2084.73
549.86	2092.60
550.21	2099.76
550.57	2106.76
550.92	2113.28
551.28	2120.30
551.64	2127.36
551.99	2133.85
552.35	2139.90
552.70	2145.95
553.06	2151.94
553.41	2158.27
553.77	2164.45
554.13	2170.54
554.48	2176.69
554.84	2182.14
555.19	2187.57
555.55	2192.68
555.90	2197.17
556.26	2202.01
556.61	2206.67
556.97	2210.92
557.32	2214.95
557.68	2219.16
558.03	2223.49
558.39	2227.23
558.74	2231.83
559.10	2235.81
559.45	2239.52
559.81	2243.93
560.16	2247.83
560.52	2250.95
560.87	2254.32
561.23	2256.93
561.58	2259.92
561.94	2262.35
562.29	2264.67
562.64	2267.22
563.00	2269.74
563.35	2273.24
563.71	2276.30
564.06	2279.51
564.42	2282.50
564.77	2284.92
565.12	2287.12
565.48	2289.01
565.83	2290.77
566.19	2292.10
566.54	2292.86
566.89	2294.04
567.25	2294.58
567.60	2295.87
567.96	2297.63
568.31	2298.44
568.66	2299.58
569.02	2300.04
569.37	2300.41
569.72	2301.33
570.08	2301.39
570.43	2301.40
570.78	2300.85
571.14	2299.30
571.49	2298.00
571.84	2297.69
572.20	2296.64
572.55	2295.71
572.90	2294.23
573.26	2292.82
573.61	2291.08
573.96	2289.21
574.31	2286.27
574.67	2283.31
575.02	2279.72
575.37	2276.33
575.72	2272.61
576.08	2269.31
576.43	2265.98
576.78	2262.29
577.13	2259.18
577.49	2256.12
577.84	2252.61
578.19	2248.89
578.54	2245.28
578.90	2241.00
579.25	2235.37
579.60	2230.36
579.95	2225.30
580.30	2220.32
580.66	2215.30
581.01	2210.48
581.36	2205.67
581.71	2201.50
582.06	2196.94
582.42	2192.46
582.77	2187.30
583.12	2182.59
583.47	2177.78
583.82	2172.80
584.17	2167.61
584.53	2162.00
584.88	2156.43
585.23	2150.75
585.58	2145.29
585.93	2139.79
586.28	2135.07
586.63	2130.11
586.98	2125.17
587.34	2120.42
587.69	2115.40
588.04	2110.06
588.39	2104.29
588.74	2097.82
589.09	2091.66
589.44	2084.84
589.79	2078.94
590.14	2073.21
590.49	2066.71
590.84	2060.37
591.19	2054.41
591.54	2047.93
591.89	2040.49
592.25	2033.65
592.60	2026.37
592.95	2018.69
593.30	2011.39
593.65	2003.81
594.00	1996.74
594.35	1989.51
594.70	1981.46
595.05	1974.27
595.40	1967.08
595.75	1959.54
596.10	1953.30
596.45	1946.48
596.80	1940.40
597.15	1933.57
597.50	1926.50
597.85	1920.22
598.19	1913.55
598.54	1906.36
598.89	1899.67
599.24	1893.99
599.59	1887.29
599.94	1881.23
600.29	1874.93
600.64	1868.36
600.99	1860.91
601.34	1854.01
601.69	1847.11
602.04	1840.34
602.39	1832.98
602.74	1826.07
603.08	1819.38
603.43	1812.71
603.78	1805.49
604.13	1798.30
604.48	1790.98
604.83	1784.07
605.18	1776.94
605.53	1768.84
605.87	1760.88
606.22	1753.62
606.57	1745.54
606.92	1738.18
607.27	1730.83
607.62	1723.99
607.96	1716.73
608.31	1710.11
608.66	1702.55
609.01	1694.93
609.36	1687.27
609.70	1679.14
610.05	1671.08
610.40	1663.43
610.75	1654.97
611.10	1647.21
611.44	1638.91
611.79	1631.07
612.14	1622.38
612.49	1613.28
612.83	1604.96
613.18	1596.82
613.53	1588.77
613.88	1580.20
614.22	1572.10
614.57	1563.54
614.92	1555.36
615.27	1547.76
615.61	1539.34
615.96	1531.31
616.31	1523.69
616.65	1516.33
617.00	1508.88
617.35	1501.26
617.70	1492.84
618.04	1484.39
618.39	1476.23
618.74	1468.53
619.08	1460.20
619.43	1452.72
619.78	1445.83
620.12	1438.65
620.47	1431.14
620.82	1422.95
621.16	1415.62
621.51	1407.92
621.85	1400.39
622.20	1392.07
622.55	1383.70
622.89	1375.94
623.24	1368.26
623.59	1360.76
623.93	1353.20
624.28	1345.99
624.62	1338.37
624.97	1331.16
625.32	1324.47
625.66	1317.46
626.01	1310.18
626.35	1302.69
626.70	1294.92
627.04	1287.14
627.39	1279.35
627.73	1272.00
628.08	1265.15
628.43	1257.84
628.77	1250.42
629.12	1242.90
629.46	1235.62
629.81	1228.28
630.15	1221.07
630.50	1213.70
630.84	1205.54
631.19	1197.70
631.53	1190.20
631.88	1182.76
632.22	1175.16
632.57	1167.72
632.91	1160.13
633.26	1152.81
633.60	1145.53
633.95	1138.30
634.29	1131.31
634.64	1124.70
634.98	1117.30
635.32	1110.10
635.67	1103.62
636.01	1097.00
636.36	1090.07
636.70	1083.52
637.05	1076.89
637.39	1070.38
637.73	1063.81
638.08	1058.01
638.42	1051.97
638.77	1045.50
639.11	1038.84
639.45	1032.52
639.80	1025.98
640.14	1019.46
640.49	1012.91
640.83	1006.51
641.17	1000.26
641.52	993.87
641.86	987.31
642.20	981.46
642.55	975.21
642.89	968.61
643.23	962.22
643.58	956.53
643.92	950.38
644.26	944.26
644.61	938.19
644.95	932.20
645.29	925.53
645.64	918.78
645.98	912.48
646.32	906.76
646.66	900.73
647.01	894.87
647.35	889.31
647.69	883.52
648.04	878.00
648.38	872.29
648.72	866.28
649.06	860.38
649.41	854.52
649.75	848.51
650.09	842.59
650.43	836.69
650.78	830.49
651.12	824.47
651.46	818.80
651.80	813.07
652.14	807.72
652.49	802.37
652.83	797.20
653.17	791.48
653.51	785.73
653.85	780.37
654.20	774.80
654.54	768.68
654.88	762.93
655.22	756.99
655.56	751.29
655.90	745.92
656.25	740.63
656.59	735.25
656.93	730.14
657.27	724.93
657.61	719.49
657.95	714.38
658.29	709.33
658.64	704.11
658.98	698.78
659.32	693.28
659.66	688.04
660.00	682.69
660.34	677.76
660.68	672.85
661.02	667.78
661.36	663.02
661.70	658.56
662.05	654.19
662.39	649.86
662.73	645.41
663.07	640.97
663.41	636.45
663.75	631.92
664.09	627.37
664.43	623.00
664.77	618.90
665.11	614.65
665.45	610.56
665.79	606.44
666.13	602.33
666.47	598.29
666.81	594.17
667.15	590.11
667.49	586.13
667.83	582.29
668.17	578.37
668.51	574.30
668.85	570.30
669.19	566.46
669.53	562.69
669.87	558.78
670.21	555.02
670.55	551.39
670.89	547.98
671.23	544.50
671.57	541.00
671.91	537.40
672.25	533.94
672.58	530.40
672.92	527.01
673.26	523.83
673.60	520.59
673.94	517.44
674.28	514.54
674.62	511.66
674.96	508.53
675.30	505.55
675.64	502.61
675.97	499.82
676.31	496.92
676.65	494.01
676.99	491.40
677.33	488.57
677.67	485.75
678.01	482.70
678.34	479.83
678.68	476.94
679.02	474.15
679.36	471.36
679.70	468.67
680.04	465.91
680.37	463.05
680.71	460.33
681.05	457.77
681.39	455.03
681.73	452.33
682.06	449.83
682.40	447.34
682.74	444.87
683.08	442.36
683.42	439.72
683.75	437.20
684.09	434.59
684.43	432.16
684.77	429.73
685.10	427.44
685.44	425.06
685.78	422.79
686.12	420.58
686.45	418.30
686.79	415.97
687.13	413.82
687.46	411.67
687.80	409.51
688.14	407.31
688.48	405.27
688.81	403.04
689.15	400.85
689.49	398.69
689.82	396.60
690.16	394.54
690.50	392.57
690.83	390.63
691.17	388.64
691.51	386.72
691.84	384.91
692.18	382.94
692.52	380.98
692.85	379.09
693.19	377.19
693.52	375.42
693.86	373.66
694.20	371.80
694.53	369.98
694.87	368.15
695.21	366.32
695.54	364.48
695.88	362.80
696.21	361.07
696.55	359.40
696.88	357.68
697.22	356.00
697.56	354.39
697.89	352.74
698.23	351.13
698.56	349.51
698.90	347.87
699.23	346.24
699.57	344.70
699.90	343.13
700.24	341.57
700.58	340.02
700.91	338.46
701.25	337.02
701.58	335.65
701.92	334.27
702.25	332.93
702.59	331.58
702.92	330.22
703.26	328.93
703.59	327.62
703.93	326.46
704.26	325.24
704.60	323.94
704.93	322.67
705.26	321.46
705.60	320.28
705.93	319.11
706.27	318.06
706.60	317.01
706.94	315.90
707.27	314.77
707.61	313.66
707.94	312.68
708.27	311.57
708.61	310.53
708.94	309.52
709.28	308.53
709.61	307.60
709.94	306.69
710.28	305.65
710.61	304.70
710.95	303.60
711.28	302.66
711.61	301.69
711.95	300.76
712.28	299.79
712.61	298.81
712.95	297.86
713.28	296.97
713.61	296.04
713.95	295.18
714.28	294.33
714.61	293.50
714.95	292.66
715.28	291.81
715.61	290.91
715.95	290.03
716.28	289.15
716.61	288.31
716.95	287.45
717.28	286.70
717.61	285.92
717.94	285.20
718.28	284.42
718.61	283.72
718.94	283.05
719.27	282.40
719.61	281.81
719.94	281.19
720.27	280.50
720.60	279.82
720.94	279.18
721.27	278.62
721.60	278.03
721.93	277.43
722.27	276.89
722.60	276.37
722.93	275.84
723.26	275.32
723.59	274.74
723.93	274.20
724.26	273.66
724.59	273.07
724.92	272.57
725.25	272.10
725.59	271.58
725.92	271.09
726.25	270.57
726.58	270.05
726.91	269.57
727.24	269.09
727.57	268.67
727.91	268.15
728.24	267.69
728.57	267.21
728.90	266.79
729.23	266.31
729.56	265.89
729.89	265.41
730.22	264.94
730.55	264.50
730.89	264.06
731.22	263.63
731.55	263.22
731.88	262.75
732.21	262.29
732.54	261.81
732.87	261.38
733.20	260.97
733.53	260.56
733.86	260.18
734.19	259.78
734.52	259.38
734.85	259.10
735.18	258.67
735.51	258.29
735.84	257.87
736.17	257.53
736.50	257.14
736.83	256.91
737.16	256.58
737.49	256.23
737.82	255.89
738.15	255.55
738.48	255.23
738.81	254.94
739.14	254.64
739.47	254.36
739.80	254.07
740.13	253.78
740.46	253.48
740.79	253.11
741.12	252.80
741.45	252.50
741.78	252.13
742.11	251.83
742.44	251.53
742.77	251.24
743.10	250.92
743.43	250.61
743.75	250.22
744.08	250.06
744.41	249.78
744.74	249.50
745.07	249.20
745.40	248.94
745.73	248.69
746.06	248.39
746.39	248.11
746.71	247.78
747.04	247.48
747.37	247.17
747.70	246.94
748.03	246.68
748.36	246.42
748.68	246.19
749.01	245.94
749.34	245.68
749.67	245.41
750.00	245.17
750.33	244.99
750.65	244.80
750.98	244.43
751.31	244.20
751.64	244.01
751.97	243.88
752.29	243.66
752.62	243.40
752.95	243.17
753.28	242.94
753.60	242.76
753.93	242.62
754.26	242.44
754.59	242.20
754.91	241.99
755.24	241.79
755.57	241.58
755.90	241.41
756.22	241.25
756.55	241.06
756.88	240.87
757.20	240.65
757.53	240.44
757.86	240.29
758.19	240.14
758.51	239.93
758.84	239.70
759.17	239.52
759.49	239.38
759.82	239.25
760.15	239.12
760.47	238.99
760.80	238.79
761.13	238.65
761.45	238.49
761.78	238.34
762.11	238.21
762.43	238.08
762.76	237.92
763.08	237.76
763.41	237.62
763.74	237.50
764.06	237.36
764.39	237.21
764.71	237.06
765.04	236.91
765.37	236.79
765.69	236.67
766.02	236.53
766.34	236.40
766.67	236.26
767.00	236.17
767.32	236.09
767.65	236.05
767.97	235.93
768.30	235.85
768.62	235.75
768.95	235.62
769.27	235.51
769.60	235.42
769.92	235.31
770.25	235.22
770.57	235.11
770.90	234.99
771.22	234.90
771.55	234.81
771.87	234.75
772.20	234.67
772.52	234.64
772.85	234.69
773.17	234.59
773.50	234.50
773.82	234.40
774.15	234.29
774.47	234.16
774.80	234.05
775.12	233.98
775.45	233.91
775.77	233.82
776.09	233.75
776.42	233.65
776.74	233.61
777.07	233.54
777.39	233.46
777.72	233.40
778.04	233.33
778.36	233.26
778.69	233.19
779.01	233.11
779.33	232.98
779.66	232.82
779.98	232.77
780.31	232.71
780.63	232.68
780.95	232.59
781.28	232.47
781.60	232.42
781.92	232.31
782.25	232.25
782.57	232.21
782.89	232.13
783.22	232.09
783.54	231.99
783.86	231.92
784.19	231.87
784.51	231.86
784.83	231.78
785.16	231.73
785.48	231.68
785.80	231.61
786.12	231.57
786.45	231.50
786.77	231.47
787.09	231.42
787.42	231.33
787.74	231.31
788.06	231.32
788.38	231.27
788.71	231.22
789.03	231.17
789.35	231.13
789.67	231.09
789.99	231.06
790.32	231.03
790.64	230.98
790.96	230.98
791.28	230.89
791.61	230.87
791.93	230.79
792.25	230.75
792.57	230.80
792.89	230.73
793.21	230.68
793.54	230.60
793.86	230.53
794.18	230.52
794.50	230.43
794.82	230.39
795.14	230.36
795.47	230.34
795.79	230.30
796.11	230.23
796.43	230.19
796.75	230.15
797.07	230.12
797.39	230.10
797.71	230.02
798.04	230.01
798.36	229.98
798.68	230.02
799.00	229.97
799.32	229.90
799.64	229.90
799.96	229.91
800.28	229.88
800.60	229.88
800.92	229.85
801.24	229.79
801.56	229.76
801.89	229.70
802.21	229.71
802.53	229.67
802.85	229.68
803.17	229.69
803.49	229.61
803.81	229.57
804.13	229.52
804.45	229.51
804.77	229.49
805.09	229.45
805.41	229.38
805.73	229.34
806.05	229.28
806.37	229.24
806.69	229.17
807.01	229.17
807.33	229.14
807.65	229.06
807.97	229.12
808.28	229.09
808.60	229.08
808.92	229.04
809.24	229.08
809.56	229.06
809.88	229.01
810.20	229.03
810.52	229.05
810.84	229.02
811.16	228.99
811.48	228.98
811.80	228.96
812.12	228.97
812.43	228.95
812.75	228.92
813.07	228.88
813.39	228.86
813.71	228.86
814.03	228.82
814.35	228.83
814.67	228.75
814.98	228.73
815.30	228.72
815.62	228.67
815.94	228.61
816.26	228.62
816.58	228.60
816.89	228.57
817.21	228.49
817.53	228.50
817.85	228.46
818.17	228.41
818.48	228.35
818.80	228.35
819.12	228.35
819.44	228.32
819.76	228.31
820.07	228.30
820.39	228.24
820.71	228.22
821.03	228.20
821.34	228.21
821.66	228.22
821.98	228.20
822.30	228.20
822.61	228.28
822.93	228.23
823.25	228.18
823.57	228.18
823.88	228.20
824.20	228.20
824.52	228.23
824.83	228.22
825.15	228.22
825.47	228.21
825.79	228.19
826.10	228.19
826.42	228.16
826.74	228.17
827.05	228.18
827.37	228.15
827.69	228.12
828.00	228.11
828.32	228.11
828.64	228.10
828.95	228.13
829.27	228.06
829.58	228.02
829.90	228.09
830.22	228.07
830.53	228.06
830.85	228.02
831.17	227.96
831.48	227.98
831.80	227.98
832.11	227.95
832.43	227.94
832.75	227.93
833.06	228.01
833.38	227.96
833.69	227.94
834.01	227.94
834.32	227.96
834.64	227.96
834.96	227.93
835.27	227.91
835.59	227.88
835.90	227.82
836.22	227.84
836.53	227.80
836.85	227.79
837.16	227.87
837.48	227.88
837.79	227.93
838.11	227.94
838.42	227.95
838.74	227.96
839.05	227.94
839.37	227.91
839.68	227.84
840.00	227.83
840.31	227.85
840.63	227.85
840.94	227.85
841.26	227.81
841.57	227.82
841.88	227.81
842.20	227.80
842.51	227.80
842.83	227.79
843.14	227.87
843.46	227.87
843.77	227.80
844.08	227.78
844.40	227.75
844.71	227.70
845.03	227.67
845.34	227.67
845.65	227.63
845.97	227.66
846.28	227.67
846.60	227.70
846.91	227.69
847.22	227.68
847.54	227.69
847.85	227.69
848.16	227.66
848.48	227.65
848.79	227.67
849.10	227.69
849.42	227.68
849.73	227.60
850.04	227.59
850.36	227.56
850.67	227.57
850.98	227.55
851.30	227.57
851.61	227.55
851.92	227.53
852.23	227.57
852.55	227.57
852.86	227.54
853.17	227.55
853.49	227.58
853.80	227.58
854.11	227.57
854.42	227.59
854.74	227.58
855.05	227.59
855.36	227.54
855.67	227.53
855.99	227.51
856.30	227.61
856.61	227.63
856.92	227.63
857.23	227.58
857.55	227.56
857.86	227.54
858.17	227.56
858.48	227.56
858.79	227.54
859.11	227.53
859.42	227.53
859.73	227.53
860.04	227.49
860.35	227.46
860.66	227.41
860.98	227.40
861.29	227.42
861.60	227.40
861.91	227.44
862.22	227.41
862.53	227.40
862.84	227.26
863.16	227.27
863.47	227.24
863.78	227.27
864.09	227.27
864.40	227.25
864.71	227.26
865.02	227.23
865.33	227.21
865.64	227.19
865.95	227.19
866.27	227.21
866.58	227.21
866.89	227.23
867.20	227.23
867.51	227.21
867.82	227.17
868.13	227.18
868.44	227.16
868.75	227.20
869.06	227.22
869.37	227.25
869.68	227.19
869.99	227.20
870.30	227.20
870.61	227.23
870.92	227.23
871.23	227.20
871.54	227.21
871.85	227.24
872.16	227.30
872.47	227.27
872.78	227.23
873.09	227.22
873.40	227.19
873.71	227.21
874.02	227.22
874.33	227.21
874.64	227.19
874.95	227.19
875.26	227.13
875.56	227.12
875.87	227.10
876.18	227.10
876.49	227.20
876.80	227.20
877.11	227.16
877.42	227.19
877.73	227.17
878.04	227.17
878.35	227.15
878.66	227.13
878.96	227.11
879.27	227.11
879.58	227.11
879.89	227.12
880.20	227.11
880.51	227.10
880.82	227.12
881.12	227.13
881.43	227.11
881.74	227.13
882.05	227.11
882.36	227.12
882.67	227.13
882.97	227.00
883.28	226.99
883.59	226.99
883.90	227.01
884.21	227.04
884.51	227.04
884.82	227.02
885.13	227.01
885.44	227.02
885.74	227.04
886.05	227.03
886.36	227.01
886.67	226.98
886.98	227.02
887.28	226.99
887.59	226.98
887.90	226.98
888.20	226.96
888.51	226.97
888.82	226.92
889.13	226.92
889.43	226.99
889.74	226.97
890.05	227.00
890.35	226.97
890.66	226.93
890.97	226.93
891.28	226.93
891.58	226.91
891.89	226.91
892.20	226.86
892.50	226.84
892.81	226.84
893.12	226.86
893.42	226.84
893.73	226.86
894.04	226.83
894.34	226.81
894.65	226.82
894.95	226.79
895.26	226.80
895.57	226.83
895.87	226.76
896.18	226.76
896.48	226.76
896.79	226.73
897.10	226.78
897.40	226.75
897.71	226.73
898.01	226.72
898.32	226.72
898.63	226.72
898.93	226.74
899.24	226.74
899.54	226.71
899.85	226.67
900.15	226.65
900.46	226.65
900.76	226.70
901.07	226.70
901.38	226.70
901.68	226.73
901.99	226.69
902.29	226.71
902.60	226.69
902.90	226.66
903.21	226.66
903.51	226.64
903.82	226.69
904.12	226.68
904.43	226.70
904.73	226.71
905.03	226.74
905.34	226.83
905.64	226.83
905.95	226.83
906.25	226.83
906.56	226.83
906.86	226.86
907.17	226.82
907.47	226.81
907.77	226.80
908.08	226.82
908.38	226.83
908.69	226.82
908.99	226.86
909.30	226.87
909.60	226.85
909.90	226.88
910.21	226.83
910.51	226.85
910.81	226.83
911.12	226.81
911.42	226.74
911.73	226.63
912.03	226.67
912.33	226.71
912.64	226.70
912.94	226.71
913.24	226.69
913.55	226.70
913.85	226.68
914.15	226.70
914.46	226.68
914.76	226.66
915.06	226.69
915.37	226.67
915.67	226.67
915.97	226.68
916.27	226.64
916.58	226.67
916.88	226.66
917.18	226.65
917.49	226.73
917.79	226.77
918.09	226.82
918.39	226.80
918.70	226.78
919.00	226.77
919.30	226.83
919.60	226.79
919.91	226.77
920.21	226.78
920.51	226.78
920.81	226.74
921.12	226.76
921.42	226.71
921.72	226.71
922.02	226.71
922.32	226.74
922.63	226.73
922.93	226.74
923.23	226.75
923.53	226.77
923.83	226.69
924.13	226.71
924.44	226.68
924.74	226.69
925.04	226.71
925.34	226.72
925.64	226.64
925.94	226.67
926.24	226.71
926.55	226.71
926.85	226.74
927.15	226.75
927.45	226.75
927.75	226.75
928.05	226.74
928.35	226.73
928.65	226.73
928.95	226.78
929.26	226.75
929.56	226.75
929.86	226.75
930.16	226.77
930.46	226.76
930.76	226.76
931.06	226.72
931.36	226.70
931.66	226.71
931.96	226.73
932.26	226.73
932.56	226.69
932.86	226.69
933.16	226.69
933.46	226.71
933.76	226.72
934.06	226.77
934.36	226.81
934.66	226.81
934.96	226.84
935.26	226.82
935.56	226.88
935.86	226.88
936.16	226.91
936.46	226.90
936.76	226.88
937.06	226.90
937.36	226.90
937.66	226.92
937.96	226.94
938.26	226.92
938.56	226.96
938.86	227.01
939.16	227.06
939.46	227.06
939.76	227.07
940.06	227.07
940.35	227.05
940.65	227.04
940.95	227.05
941.25	226.99
941.55	226.98
941.85	226.96
942.15	226.97
942.45	227.00
942.75	227.00
943.04	227.03
943.34	227.06
943.64	227.05
943.94	227.01
944.24	226.99
944.54	227.02
944.84	226.99
945.13	226.93
945.43	226.90
945.73	226.88
946.03	226.86
946.33	226.85
946.62	226.80
946.92	226.77
947.22	226.77
947.52	226.78
947.82	226.81
948.11	226.79
948.41	226.77
948.71	226.70
949.01	226.68
949.31	226.64
949.60	226.60
949.90	226.60
950.20	226.62
950.50	226.62
950.79	226.60
951.09	226.61
951.39	226.63
951.69	226.57
951.98	226.59
952.28	226.62
952.58	226.57
952.87	226.62
953.17	226.61
953.47	226.59
953.76	226.59
954.06	226.56
954.36	226.51
954.66	226.50
954.95	226.51
955.25	226.50
955.55	226.51
955.84	226.50
956.14	226.49
956.44	226.46
956.73	226.41
957.03	226.41
957.32	226.40
957.62	226.36
957.92	226.40
958.21	226.38
958.51	226.45
958.81	226.48
959.10	226.46
959.40	226.51
959.69	226.51
959.99	226.50
960.29	226.49
960.58	226.49
960.88	226.50
961.17	226.53
961.47	226.55
961.76	226.57
962.06	226.57
962.36	226.56
962.65	226.56
962.95	226.58
963.24	226.56
963.54	226.57
963.83	226.62
964.13	226.61
964.42	226.62
964.72	226.56
965.01	226.56
965.31	226.53
965.60	226.48
965.90	226.57
966.19	226.59
966.49	226.61
966.78	226.63
967.08	226.64
967.37	226.62
967.67	226.62
967.96	226.63
968.26	226.66
968.55	226.71
968.85	226.73
969.14	226.74
969.43	226.76
969.73	226.75
970.02	226.74
970.32	226.73
970.61	226.74
970.91	226.70
971.20	226.69
971.49	226.72
971.79	226.75
972.08	226.68
972.38	226.69
972.67	226.68
972.96	226.70
973.26	226.69
973.55	226.73
973.85	226.73
974.14	226.73
974.43	226.75
974.73	226.74
975.02	226.72
975.31	226.76
975.61	226.75
975.90	226.78
976.19	226.79
976.49	226.84
976.78	226.83
977.07	226.84
977.37	226.88
977.66	226.89
977.95	226.90
978.24	226.89
978.54	226.90
978.83	226.91
979.12	226.88
979.42	226.88
979.71	226.88
980.00	226.88
980.29	226.88
980.59	226.87
980.88	226.91
981.17	226.93
981.46	226.93
981.76	226.96
982.05	226.96
982.34	226.97
982.63	226.93
982.93	226.95
983.22	226.98
983.51	227.00
983.80	227.01
984.09	226.98
984.39	226.98
984.68	226.93
984.97	226.93
985.26	226.95
985.55	226.97
985.85	226.93
986.14	226.96
986.43	226.94
986.72	226.90
987.01	226.82
987.30	226.84
987.59	226.83
987.89	226.81
988.18	226.78
988.47	226.75
988.76	226.76
989.05	226.71
989.34	226.65
989.63	226.66
989.92	226.61
990.22	226.60
990.51	226.59
990.80	226.60
991.09	226.59
991.38	226.61
991.67	226.59
991.96	226.55
992.25	226.53
992.54	226.52
992.83	226.55
993.12	226.57
993.41	226.55
993.70	226.58
993.99	226.56
994.28	226.55
994.58	226.54
994.87	226.51
995.16	226.51
995.45	226.53
995.74	226.49
996.03	226.53
996.32	226.58
996.61	226.57
996.90	226.56
997.19	226.59
997.48	226.55
997.77	226.52
998.06	226.52
998.34	226.51
998.63	226.47
998.92	226.45
999.21	226.45
999.50	226.43
999.79	226.40
1000.08	226.42
1000.37	226.43
1000.66	226.42
1000.95	226.43
1001.24	226.44
1001.53	226.45
1001.82	226.42
1002.11	226.41
1002.40	226.41
1002.68	226.45
1002.97	226.53
1003.26	226.52
1003.55	226.51
1003.84	226.50
1004.13	226.55
1004.42	226.57
1004.71	226.62
1004.99	226.61
1005.28	226.65
1005.57	226.66
1005.86	226.67
1006.15	226.67
1006.44	226.70
1006.72	226.73
1007.01	226.73
1007.30	226.77
1007.59	226.77
1007.88	226.78
1008.17	226.78
1008.45	226.76
1008.74	226.74
1009.03	226.71
1009.32	226.72
1009.60	226.74
1009.89	226.81
1010.18	226.78
1010.47	226.75
1010.76	226.75
1011.04	226.76
1011.33	226.77
1011.62	226.77
1011.91	226.77
1012.19	226.76
1012.48	226.72
1012.77	226.73
1013.05	226.79
1013.34	226.80
1013.63	226.78
1013.92	226.79
1014.20	226.81
1014.49	226.82
1014.78	226.84
1015.06	226.80
1015.35	226.79
1015.64	226.80
1015.92	226.78
1016.21	226.79
1016.50	226.78
1016.78	226.75
1017.07	226.77
1017.36	226.75
1017.64	226.74
1017.93	226.76
1018.22	226.77
1018.50	226.75
1018.79	226.72
1019.08	226.68
1019.36	226.65
1019.65	226.66
1019.93	226.67
1020.22	226.64
1020.51	226.68
1020.79	226.64
1021.08	226.84
1021.36	225.76
1021.65	226.35
1021.94	226.85
1022.22	226.42
1022.51	226.53
1022.79	226.97
1023.08	226.30
1023.36	228.03
1023.65	226.11
>>>>>End Processed Spectral Data<<<<<
