SpectraSuite Data File
++++++++++++++++++++++++++++++++++++
Date: Fri Feb 01 17:51:31 EST 2013
User: group
Dark Spectrum Present: No
Reference Spectrum Present: No
Number of Sampled Component Spectra: 1
Spectrometers: USB2E7196
Integration Time (usec): 35000 (USB2E7196)
Spectra Averaged: 100 (USB2E7196)
Boxcar Smoothing: 10 (USB2E7196)
Correct for Electrical Dark: No (USB2E7196)
Strobe/Lamp Enabled: No (USB2E7196)
Correct for Detector Non-linearity: No (USB2E7196)
Correct for Stray Light: No (USB2E7196)
Number of Pixels in Processed Spectrum: 2048
>>>>>Begin Processed Spectral Data<<<<<
339.09	0.00
339.48	212.59
339.86	213.45
340.24	215.20
340.63	216.96
341.01	219.67
341.39	219.68
341.78	221.40
342.16	222.15
342.54	222.34
342.93	210.98
343.31	221.64
343.69	222.17
344.07	222.66
344.46	223.07
344.84	223.44
345.22	223.69
345.60	223.93
345.99	224.05
346.37	224.17
346.75	224.27
347.13	224.35
347.52	224.40
347.90	224.48
348.28	224.50
348.66	224.56
349.05	224.56
349.43	224.57
349.81	224.61
350.19	224.66
350.57	224.73
350.96	224.83
351.34	224.93
351.72	225.05
352.10	225.18
352.48	225.27
352.87	225.36
353.25	225.42
353.63	225.49
354.01	225.60
354.39	225.70
354.77	225.79
355.15	225.89
355.54	225.94
355.92	225.99
356.30	226.09
356.68	226.22
357.06	226.32
357.44	226.40
357.82	226.46
358.20	226.52
358.58	226.58
358.97	226.61
359.35	226.70
359.73	226.79
360.11	226.83
360.49	226.91
360.87	226.94
361.25	227.03
361.63	227.11
362.01	227.18
362.39	227.18
362.77	227.24
363.15	227.27
363.53	227.31
363.91	227.35
364.29	227.39
364.67	227.33
365.05	227.36
365.43	227.42
365.81	227.46
366.19	227.51
366.57	227.55
366.95	227.60
367.33	227.56
367.71	227.57
368.09	227.55
368.47	227.56
368.85	227.55
369.23	227.53
369.61	227.48
369.99	227.47
370.37	227.46
370.75	227.45
371.13	227.40
371.51	227.38
371.89	227.36
372.27	227.35
372.65	227.32
373.03	227.27
373.41	227.21
373.78	227.14
374.16	227.05
374.54	226.98
374.92	226.90
375.30	226.84
375.68	226.73
376.06	226.70
376.44	226.61
376.82	226.55
377.19	226.50
377.57	226.44
377.95	226.35
378.33	226.30
378.71	226.19
379.09	226.14
379.47	226.07
379.84	225.97
380.22	225.89
380.60	225.83
380.98	225.74
381.36	225.65
381.73	225.58
382.11	225.56
382.49	225.50
382.87	225.44
383.25	225.41
383.62	225.47
384.00	225.39
384.38	225.33
384.76	225.29
385.13	225.26
385.51	225.22
385.89	225.14
386.27	225.08
386.64	225.04
387.02	224.99
387.40	224.94
387.78	224.89
388.15	224.81
388.53	224.76
388.91	224.75
389.29	224.73
389.66	224.73
390.04	224.72
390.42	224.73
390.79	224.71
391.17	224.69
391.55	224.55
391.92	224.55
392.30	224.56
392.68	224.54
393.05	224.53
393.43	224.53
393.81	224.58
394.18	224.60
394.56	224.64
394.94	224.67
395.31	224.66
395.69	224.73
396.06	224.78
396.44	224.81
396.82	224.84
397.19	224.91
397.57	224.93
397.95	224.93
398.32	224.93
398.70	224.98
399.07	225.04
399.45	225.12
399.82	225.18
400.20	225.21
400.58	225.28
400.95	225.30
401.33	225.43
401.70	225.57
402.08	225.65
402.45	225.77
402.83	225.89
403.20	226.01
403.58	226.12
403.95	226.28
404.33	226.41
404.71	226.52
405.08	226.73
405.46	226.86
405.83	227.03
406.21	227.22
406.58	227.39
406.96	227.54
407.33	227.75
407.70	227.95
408.08	228.29
408.45	228.54
408.83	228.83
409.20	229.06
409.58	229.28
409.95	229.59
410.33	229.91
410.70	230.20
411.08	230.57
411.45	230.94
411.82	231.28
412.20	231.74
412.57	232.28
412.95	232.68
413.32	233.19
413.69	233.73
414.07	234.29
414.44	234.93
414.82	235.58
415.19	236.30
415.56	237.02
415.94	237.72
416.31	238.55
416.68	239.40
417.06	240.32
417.43	241.18
417.81	242.20
418.18	243.20
418.55	244.32
418.93	245.45
419.30	246.64
419.67	247.91
420.04	249.17
420.42	250.47
420.79	252.00
421.16	253.53
421.54	255.07
421.91	256.64
422.28	258.30
422.66	260.05
423.03	261.72
423.40	263.49
423.77	265.33
424.15	267.19
424.52	269.10
424.89	271.25
425.26	273.32
425.64	275.23
426.01	277.36
426.38	279.49
426.75	281.72
427.13	284.00
427.50	286.34
427.87	288.83
428.24	291.32
428.61	293.62
428.99	296.14
429.36	298.93
429.73	301.68
430.10	304.31
430.47	307.01
430.85	309.80
431.22	312.73
431.59	315.82
431.96	318.78
432.33	322.04
432.70	325.16
433.08	328.89
433.45	332.36
433.82	335.74
434.19	339.55
434.56	343.20
434.93	346.66
435.30	350.14
435.68	353.92
436.05	357.62
436.42	361.33
436.79	364.65
437.16	368.16
437.53	371.88
437.90	375.55
438.27	379.18
438.64	382.91
439.01	386.30
439.38	389.26
439.75	392.14
440.13	395.47
440.50	398.54
440.87	400.97
441.24	403.52
441.61	406.40
441.98	408.36
442.35	410.78
442.72	413.23
443.09	415.59
443.46	416.88
443.83	417.64
444.20	418.29
444.57	419.42
444.94	419.82
445.31	420.25
445.68	420.73
446.05	420.85
446.42	420.37
446.79	419.89
447.16	419.40
447.53	419.01
447.90	417.49
448.27	415.94
448.64	413.86
449.01	412.36
449.37	409.78
449.74	407.30
450.11	404.37
450.48	401.10
450.85	397.79
451.22	394.99
451.59	392.33
451.96	389.80
452.33	386.39
452.70	383.30
453.07	379.60
453.43	375.80
453.80	372.11
454.17	368.61
454.54	365.24
454.91	361.62
455.28	358.05
455.65	354.77
456.02	351.53
456.38	348.67
456.75	345.13
457.12	342.18
457.49	339.28
457.86	336.39
458.23	333.95
458.59	331.23
458.96	328.51
459.33	326.07
459.70	323.54
460.07	321.53
460.43	319.24
460.80	317.06
461.17	315.14
461.54	313.19
461.91	311.27
462.27	309.33
462.64	307.67
463.01	305.87
463.38	304.12
463.74	302.37
464.11	300.83
464.48	299.47
464.85	297.98
465.21	296.79
465.58	295.55
465.95	294.12
466.32	292.92
466.68	291.73
467.05	290.55
467.42	289.37
467.78	288.13
468.15	286.95
468.52	286.09
468.88	284.99
469.25	283.94
469.62	283.12
469.98	282.25
470.35	281.42
470.72	280.61
471.08	279.75
471.45	278.95
471.82	278.20
472.18	277.39
472.55	276.81
472.92	276.11
473.28	275.47
473.65	274.86
474.02	274.27
474.38	273.72
474.75	273.26
475.11	272.82
475.48	272.45
475.85	272.16
476.21	271.79
476.58	271.50
476.94	271.30
477.31	271.02
477.67	270.76
478.04	270.53
478.41	270.40
478.77	270.34
479.14	270.23
479.50	270.19
479.87	270.19
480.23	270.20
480.60	270.22
480.96	270.25
481.33	270.38
481.69	270.57
482.06	270.72
482.42	270.87
482.79	271.07
483.15	271.35
483.52	271.68
483.88	272.00
484.25	272.34
484.61	272.73
484.98	273.14
485.34	273.74
485.71	274.31
486.07	274.92
486.44	275.49
486.80	276.21
487.17	276.92
487.53	277.75
487.90	278.61
488.26	279.55
488.62	280.55
488.99	281.58
489.35	282.61
489.72	283.80
490.08	285.05
490.44	286.33
490.81	287.72
491.17	289.12
491.54	290.67
491.90	292.29
492.26	293.99
492.63	295.79
492.99	297.59
493.36	299.57
493.72	301.69
494.08	303.88
494.45	306.21
494.81	308.72
495.17	311.24
495.54	313.96
495.90	316.78
496.26	319.75
496.63	322.84
496.99	326.11
497.35	329.49
497.72	333.06
498.08	336.77
498.44	340.61
498.80	344.71
499.17	348.96
499.53	353.34
499.89	357.93
500.26	362.72
500.62	367.63
500.98	372.88
501.34	378.27
501.71	383.90
502.07	389.63
502.43	395.53
502.79	401.70
503.16	408.07
503.52	414.71
503.88	421.43
504.24	428.44
504.60	435.76
504.97	443.32
505.33	451.01
505.69	459.17
506.05	467.38
506.41	475.70
506.78	484.28
507.14	493.26
507.50	502.53
507.86	512.10
508.22	521.83
508.59	531.59
508.95	541.72
509.31	552.09
509.67	562.83
510.03	573.77
510.39	584.99
510.75	596.53
511.12	608.12
511.48	620.15
511.84	632.33
512.20	644.47
512.56	657.10
512.92	670.06
513.28	683.17
513.64	696.55
514.00	710.12
514.37	723.99
514.73	737.96
515.09	751.89
515.45	766.06
515.81	780.69
516.17	795.69
516.53	810.84
516.89	826.07
517.25	841.32
517.61	856.81
517.97	872.36
518.33	887.73
518.69	903.63
519.05	919.73
519.41	936.03
519.77	952.84
520.13	969.58
520.49	986.26
520.85	1002.84
521.21	1019.72
521.57	1037.30
521.93	1054.30
522.29	1071.94
522.65	1089.50
523.01	1107.01
523.37	1124.37
523.73	1141.82
524.09	1159.27
524.45	1176.96
524.81	1195.06
525.17	1213.23
525.53	1231.65
525.89	1250.07
526.25	1268.51
526.61	1286.41
526.97	1304.76
527.33	1322.74
527.68	1340.95
528.04	1358.91
528.40	1377.23
528.76	1396.06
529.12	1414.24
529.48	1432.88
529.84	1450.61
530.20	1468.97
530.56	1487.74
530.91	1506.89
531.27	1525.53
531.63	1543.85
531.99	1562.22
532.35	1579.91
532.71	1597.67
533.07	1615.82
533.42	1633.72
533.78	1651.49
534.14	1669.69
534.50	1686.91
534.86	1704.86
535.21	1721.96
535.57	1739.95
535.93	1757.21
536.29	1773.77
536.65	1790.89
537.00	1807.60
537.36	1824.87
537.72	1841.34
538.08	1857.70
538.44	1873.58
538.79	1889.43
539.15	1904.93
539.51	1920.53
539.87	1936.91
540.22	1952.59
540.58	1968.24
540.94	1983.43
541.29	1998.25
541.65	2012.86
542.01	2028.12
542.37	2042.36
542.72	2056.70
543.08	2070.41
543.44	2084.93
543.79	2098.35
544.15	2111.18
544.51	2124.89
544.87	2137.82
545.22	2150.56
545.58	2162.97
545.94	2174.60
546.29	2186.45
546.65	2198.39
547.01	2209.85
547.36	2220.46
547.72	2230.97
548.07	2240.84
548.43	2250.85
548.79	2260.86
549.14	2270.40
549.50	2279.51
549.86	2288.98
550.21	2298.14
550.57	2307.10
550.92	2315.54
551.28	2324.41
551.64	2333.35
551.99	2341.56
552.35	2349.50
552.70	2357.49
553.06	2365.18
553.41	2373.26
553.77	2380.92
554.13	2388.75
554.48	2396.52
554.84	2403.93
555.19	2410.80
555.55	2417.63
555.90	2423.86
556.26	2430.50
556.61	2436.77
556.97	2442.73
557.32	2448.43
557.68	2454.15
558.03	2460.07
558.39	2465.21
558.74	2471.43
559.10	2476.87
559.45	2481.92
559.81	2487.68
560.16	2493.10
560.52	2497.78
560.87	2502.46
561.23	2506.38
561.58	2510.47
561.94	2514.23
562.29	2517.56
562.64	2521.49
563.00	2525.20
563.35	2529.87
563.71	2534.11
564.06	2538.59
564.42	2542.78
564.77	2546.60
565.12	2550.15
565.48	2553.18
565.83	2556.26
566.19	2558.54
566.54	2560.20
566.89	2562.42
567.25	2563.96
567.60	2565.94
567.96	2568.59
568.31	2570.48
568.66	2572.66
569.02	2574.05
569.37	2575.29
569.72	2577.13
570.08	2578.14
570.43	2578.94
570.78	2579.08
571.14	2578.17
571.49	2577.24
571.84	2577.41
572.20	2576.79
572.55	2576.15
572.90	2574.96
573.26	2573.96
573.61	2572.60
573.96	2571.57
574.31	2568.80
574.67	2566.10
575.02	2562.71
575.37	2559.45
575.72	2555.84
576.08	2552.28
576.43	2549.21
576.78	2545.67
577.13	2542.49
577.49	2539.38
577.84	2535.92
578.19	2532.07
578.54	2528.64
578.90	2524.45
579.25	2518.51
579.60	2513.35
579.95	2508.09
580.30	2502.86
580.66	2497.35
581.01	2492.12
581.36	2486.76
581.71	2482.42
582.06	2477.85
582.42	2473.17
582.77	2467.53
583.12	2462.57
583.47	2457.99
583.82	2452.64
584.17	2446.90
584.53	2441.09
584.88	2435.09
585.23	2428.90
585.58	2423.01
585.93	2416.91
586.28	2411.68
586.63	2406.40
586.98	2400.81
587.34	2395.73
587.69	2390.33
588.04	2384.73
588.39	2378.59
588.74	2371.50
589.09	2364.76
589.44	2357.14
589.79	2350.36
590.14	2344.07
590.49	2336.85
590.84	2329.54
591.19	2322.86
591.54	2315.74
591.89	2307.62
592.25	2300.15
592.60	2292.00
592.95	2283.74
593.30	2275.59
593.65	2267.14
594.00	2259.13
594.35	2250.94
594.70	2241.94
595.05	2234.09
595.40	2225.85
595.75	2217.42
596.10	2210.63
596.45	2203.20
596.80	2196.44
597.15	2189.13
597.50	2181.36
597.85	2174.00
598.19	2166.56
598.54	2158.70
598.89	2151.14
599.24	2144.33
599.59	2136.76
599.94	2129.81
600.29	2122.47
600.64	2114.89
600.99	2106.48
601.34	2098.80
601.69	2090.97
602.04	2083.21
602.39	2074.73
602.74	2066.99
603.08	2059.29
603.43	2051.34
603.78	2042.69
604.13	2034.28
604.48	2026.08
604.83	2018.13
605.18	2010.25
605.53	2001.23
605.87	1991.93
606.22	1983.54
606.57	1974.31
606.92	1965.76
607.27	1957.57
607.62	1949.71
607.96	1941.40
608.31	1933.90
608.66	1925.22
609.01	1916.50
609.36	1907.80
609.70	1898.56
610.05	1889.24
610.40	1880.36
610.75	1870.82
611.10	1862.14
611.44	1852.27
611.79	1842.94
612.14	1832.97
612.49	1822.32
612.83	1812.40
613.18	1803.01
613.53	1793.81
613.88	1784.08
614.22	1774.45
614.57	1764.38
614.92	1755.06
615.27	1746.27
615.61	1736.56
615.96	1727.24
616.31	1718.26
616.65	1709.59
617.00	1700.85
617.35	1691.87
617.70	1682.24
618.04	1672.45
618.39	1662.73
618.74	1654.06
619.08	1644.31
619.43	1635.40
619.78	1627.23
620.12	1618.98
620.47	1610.27
620.82	1600.62
621.16	1591.87
621.51	1582.97
621.85	1574.11
622.20	1564.16
622.55	1554.49
622.89	1545.36
623.24	1536.39
623.59	1527.72
623.93	1519.01
624.28	1510.63
624.62	1501.94
624.97	1493.48
625.32	1485.56
625.66	1477.48
626.01	1469.19
626.35	1460.69
626.70	1451.63
627.04	1442.74
627.39	1433.70
627.73	1425.01
628.08	1417.01
628.43	1408.64
628.77	1400.28
629.12	1391.53
629.46	1383.25
629.81	1374.45
630.15	1365.94
630.50	1357.33
630.84	1348.04
631.19	1338.86
631.53	1330.00
631.88	1321.23
632.22	1312.48
632.57	1303.88
632.91	1295.06
633.26	1286.47
633.60	1277.85
633.95	1269.61
634.29	1261.46
634.64	1253.72
634.98	1245.28
635.32	1236.95
635.67	1229.22
636.01	1221.49
636.36	1213.72
636.70	1206.12
637.05	1198.63
637.39	1191.27
637.73	1183.76
638.08	1176.88
638.42	1169.96
638.77	1162.60
639.11	1155.05
639.45	1147.63
639.80	1140.05
640.14	1132.78
640.49	1125.20
640.83	1117.96
641.17	1110.79
641.52	1103.54
641.86	1096.04
642.20	1089.34
642.55	1082.07
642.89	1074.67
643.23	1067.00
643.58	1060.33
643.92	1053.23
644.26	1046.34
644.61	1039.26
644.95	1032.48
645.29	1024.96
645.64	1017.20
645.98	1009.89
646.32	1003.09
646.66	996.25
647.01	989.63
647.35	983.02
647.69	976.32
648.04	969.85
648.38	963.32
648.72	956.54
649.06	949.74
649.41	942.85
649.75	936.20
650.09	929.42
650.43	922.90
650.78	915.81
651.12	909.04
651.46	902.53
651.80	896.01
652.14	889.73
652.49	883.50
652.83	877.56
653.17	871.13
653.51	864.63
653.85	858.35
654.20	851.84
654.54	844.91
654.88	838.34
655.22	831.70
655.56	825.18
655.90	818.82
656.25	812.75
656.59	806.58
656.93	800.69
657.27	794.80
657.61	788.53
657.95	782.73
658.29	776.83
658.64	770.70
658.98	764.65
659.32	758.37
659.66	752.46
660.00	746.45
660.34	740.72
660.68	735.08
661.02	729.35
661.36	724.01
661.70	718.96
662.05	714.04
662.39	709.10
662.73	703.90
663.07	698.96
663.41	693.87
663.75	688.86
664.09	683.57
664.43	678.51
664.77	673.87
665.11	669.09
665.45	664.37
665.79	659.76
666.13	655.05
666.47	650.40
666.81	645.73
667.15	641.02
667.49	636.62
667.83	632.26
668.17	627.79
668.51	623.12
668.85	618.45
669.19	613.95
669.53	609.59
669.87	605.22
670.21	600.98
670.55	596.85
670.89	592.93
671.23	588.99
671.57	585.00
671.91	580.95
672.25	576.85
672.58	572.91
672.92	568.98
673.26	565.33
673.60	561.70
673.94	558.12
674.28	554.75
674.62	551.38
674.96	547.85
675.30	544.57
675.64	541.25
675.97	538.10
676.31	534.90
676.65	531.52
676.99	528.48
677.33	525.20
677.67	521.99
678.01	518.54
678.34	515.24
678.68	511.92
679.02	508.68
679.36	505.52
679.70	502.40
680.04	499.26
680.37	496.05
680.71	492.90
681.05	489.92
681.39	486.89
681.73	483.86
682.06	481.00
682.40	478.07
682.74	475.18
683.08	472.24
683.42	469.24
683.75	466.36
684.09	463.40
684.43	460.57
684.77	457.83
685.10	455.13
685.44	452.45
685.78	449.86
686.12	447.29
686.45	444.69
686.79	442.06
687.13	439.54
687.46	437.03
687.80	434.54
688.14	431.96
688.48	429.58
688.81	427.04
689.15	424.51
689.49	422.07
689.82	419.70
690.16	417.37
690.50	415.06
690.83	412.90
691.17	410.61
691.51	408.42
691.84	406.21
692.18	403.96
692.52	401.73
692.85	399.49
693.19	397.32
693.52	395.20
693.86	393.10
694.20	391.04
694.53	388.96
694.87	386.80
695.21	384.76
695.54	382.62
695.88	380.62
696.21	378.66
696.55	376.75
696.88	374.81
697.22	372.87
697.56	371.06
697.89	369.14
698.23	367.34
698.56	365.51
698.90	363.72
699.23	361.89
699.57	360.13
699.90	358.37
700.24	356.61
700.58	354.92
700.91	353.24
701.25	351.57
701.58	349.98
701.92	348.48
702.25	346.91
702.59	345.37
702.92	343.86
703.26	342.36
703.59	340.88
703.93	339.49
704.26	338.09
704.60	336.62
704.93	335.16
705.26	333.73
705.60	332.37
705.93	330.98
706.27	329.80
706.60	328.54
706.94	327.29
707.27	325.98
707.61	324.69
707.94	323.49
708.27	322.26
708.61	321.06
708.94	319.88
709.28	318.75
709.61	317.61
709.94	316.49
710.28	315.34
710.61	314.18
710.95	312.92
711.28	311.85
711.61	310.75
711.95	309.69
712.28	308.58
712.61	307.43
712.95	306.35
713.28	305.26
713.61	304.26
713.95	303.23
714.28	302.27
714.61	301.31
714.95	300.33
715.28	299.34
715.61	298.33
715.95	297.32
716.28	296.33
716.61	295.38
716.95	294.46
717.28	293.58
717.61	292.69
717.94	291.91
718.28	290.99
718.61	290.17
718.94	289.39
719.27	288.66
719.61	287.94
719.94	287.19
720.27	286.40
720.60	285.63
720.94	284.94
721.27	284.27
721.60	283.59
721.93	282.87
722.27	282.24
722.60	281.62
722.93	280.97
723.26	280.34
723.59	279.70
723.93	279.04
724.26	278.38
724.59	277.73
724.92	277.05
725.25	276.49
725.59	275.84
725.92	275.25
726.25	274.61
726.58	274.04
726.91	273.50
727.24	272.95
727.57	272.43
727.91	271.82
728.24	271.26
728.57	270.72
728.90	270.23
729.23	269.67
729.56	269.16
729.89	268.64
730.22	268.08
730.55	267.56
730.89	267.07
731.22	266.62
731.55	266.14
731.88	265.68
732.21	265.15
732.54	264.71
732.87	264.20
733.20	263.77
733.53	263.31
733.86	262.84
734.19	262.40
734.52	261.94
734.85	261.56
735.18	261.10
735.51	260.65
735.84	260.21
736.17	259.80
736.50	259.30
736.83	259.02
737.16	258.62
737.49	258.21
737.82	257.81
738.15	257.41
738.48	257.05
738.81	256.67
739.14	256.32
739.47	255.94
739.80	255.61
740.13	255.24
740.46	254.90
740.79	254.53
741.12	254.18
741.45	253.84
741.78	253.49
742.11	253.20
742.44	252.82
742.77	252.48
743.10	252.16
743.43	251.84
743.75	251.40
744.08	251.23
744.41	250.96
744.74	250.62
745.07	250.31
745.40	250.02
745.73	249.75
746.06	249.44
746.39	249.16
746.71	248.83
747.04	248.51
747.37	248.21
747.70	247.95
748.03	247.67
748.36	247.40
748.68	247.10
749.01	246.78
749.34	246.60
749.67	246.33
750.00	246.06
750.33	245.88
750.65	245.66
750.98	245.27
751.31	245.01
751.64	244.81
751.97	244.61
752.29	244.34
752.62	244.07
752.95	243.80
753.28	243.53
753.60	243.28
753.93	243.08
754.26	242.84
754.59	242.61
754.91	242.36
755.24	242.14
755.57	241.92
755.90	241.70
756.22	241.46
756.55	241.21
756.88	241.02
757.20	240.75
757.53	240.53
757.86	240.32
758.19	240.14
758.51	239.93
758.84	239.67
759.17	239.45
759.49	239.27
759.82	239.17
760.15	239.03
760.47	238.84
760.80	238.64
761.13	238.49
761.45	238.28
761.78	238.11
762.11	237.89
762.43	237.71
762.76	237.51
763.08	237.39
763.41	237.26
763.74	237.05
764.06	236.90
764.39	236.71
764.71	236.56
765.04	236.38
765.37	236.25
765.69	236.11
766.02	235.97
766.34	235.81
766.67	235.65
767.00	235.49
767.32	235.41
767.65	235.30
767.97	235.17
768.30	235.06
768.62	234.94
768.95	234.83
769.27	234.71
769.60	234.62
769.92	234.44
770.25	234.30
770.57	234.17
770.90	234.05
771.22	233.96
771.55	233.85
771.87	233.75
772.20	233.61
772.52	233.57
772.85	233.57
773.17	233.46
773.50	233.31
773.82	233.21
774.15	233.11
774.47	232.97
774.80	232.85
775.12	232.77
775.45	232.70
775.77	232.61
776.09	232.53
776.42	232.42
776.74	232.36
777.07	232.28
777.39	232.22
777.72	232.11
778.04	232.03
778.36	231.95
778.69	231.88
779.01	231.84
779.33	231.70
779.66	231.51
779.98	231.47
780.31	231.40
780.63	231.37
780.95	231.29
781.28	231.23
781.60	231.15
781.92	231.07
782.25	230.96
782.57	230.90
782.89	230.83
783.22	230.75
783.54	230.69
783.86	230.67
784.19	230.59
784.51	230.59
784.83	230.52
785.16	230.47
785.48	230.43
785.80	230.38
786.12	230.30
786.45	230.30
786.77	230.22
787.09	230.21
787.42	230.16
787.74	230.11
788.06	230.06
788.38	230.01
788.71	229.97
789.03	229.93
789.35	229.93
789.67	229.88
789.99	229.90
790.32	229.83
790.64	229.76
790.96	229.84
791.28	229.78
791.61	229.74
791.93	229.72
792.25	229.64
792.57	229.61
792.89	229.58
793.21	229.51
793.54	229.50
793.86	229.40
794.18	229.33
794.50	229.29
794.82	229.24
795.14	229.21
795.47	229.17
795.79	229.15
796.11	229.06
796.43	229.01
796.75	228.95
797.07	228.92
797.39	228.87
797.71	228.72
798.04	228.67
798.36	228.61
798.68	228.52
799.00	228.52
799.32	228.45
799.64	228.44
799.96	228.39
800.28	228.33
800.60	228.31
800.92	228.29
801.24	228.23
801.56	228.21
801.89	228.18
802.21	228.14
802.53	228.09
802.85	228.12
803.17	228.11
803.49	228.02
803.81	227.98
804.13	227.93
804.45	227.87
804.77	227.86
805.09	227.83
805.41	227.79
805.73	227.72
806.05	227.67
806.37	227.62
806.69	227.59
807.01	227.58
807.33	227.56
807.65	227.51
807.97	227.55
808.28	227.52
808.60	227.46
808.92	227.45
809.24	227.47
809.56	227.40
809.88	227.36
810.20	227.37
810.52	227.36
810.84	227.32
811.16	227.32
811.48	227.27
811.80	227.31
812.12	227.30
812.43	227.31
812.75	227.31
813.07	227.27
813.39	227.23
813.71	227.20
814.03	227.13
814.35	227.08
814.67	227.00
814.98	226.95
815.30	226.94
815.62	226.87
815.94	226.79
816.26	226.83
816.58	226.79
816.89	226.79
817.21	226.77
817.53	226.77
817.85	226.73
818.17	226.70
818.48	226.64
818.80	226.62
819.12	226.57
819.44	226.52
819.76	226.52
820.07	226.51
820.39	226.51
820.71	226.53
821.03	226.56
821.34	226.51
821.66	226.51
821.98	226.52
822.30	226.51
822.61	226.54
822.93	226.48
823.25	226.47
823.57	226.40
823.88	226.39
824.20	226.38
824.52	226.38
824.83	226.40
825.15	226.36
825.47	226.36
825.79	226.38
826.10	226.36
826.42	226.33
826.74	226.34
827.05	226.31
827.37	226.30
827.69	226.26
828.00	226.26
828.32	226.27
828.64	226.20
828.95	226.24
829.27	226.21
829.58	226.19
829.90	226.20
830.22	226.25
830.53	226.20
830.85	226.19
831.17	226.16
831.48	226.13
831.80	226.15
832.11	226.09
832.43	226.03
832.75	226.02
833.06	226.07
833.38	226.02
833.69	225.96
834.01	225.95
834.32	225.92
834.64	225.91
834.96	225.91
835.27	225.90
835.59	225.84
835.90	225.79
836.22	225.76
836.53	225.68
836.85	225.64
837.16	225.75
837.48	225.71
837.79	225.73
838.11	225.71
838.42	225.65
838.74	225.69
839.05	225.67
839.37	225.66
839.68	225.56
840.00	225.56
840.31	225.57
840.63	225.54
840.94	225.51
841.26	225.48
841.57	225.43
841.88	225.47
842.20	225.45
842.51	225.47
842.83	225.48
843.14	225.58
843.46	225.54
843.77	225.46
844.08	225.46
844.40	225.42
844.71	225.40
845.03	225.38
845.34	225.30
845.65	225.30
845.97	225.31
846.28	225.33
846.60	225.30
846.91	225.31
847.22	225.29
847.54	225.29
847.85	225.31
848.16	225.31
848.48	225.24
848.79	225.30
849.10	225.26
849.42	225.26
849.73	225.15
850.04	225.16
850.36	225.14
850.67	225.15
850.98	225.16
851.30	225.17
851.61	225.18
851.92	225.21
852.23	225.26
852.55	225.25
852.86	225.25
853.17	225.30
853.49	225.34
853.80	225.36
854.11	225.40
854.42	225.40
854.74	225.40
855.05	225.43
855.36	225.38
855.67	225.39
855.99	225.37
856.30	225.51
856.61	225.51
856.92	225.49
857.23	225.48
857.55	225.44
857.86	225.41
858.17	225.43
858.48	225.45
858.79	225.39
859.11	225.41
859.42	225.37
859.73	225.34
860.04	225.32
860.35	225.28
860.66	225.25
860.98	225.25
861.29	225.25
861.60	225.23
861.91	225.21
862.22	225.21
862.53	225.18
862.84	225.05
863.16	225.09
863.47	225.10
863.78	225.10
864.09	225.13
864.40	225.18
864.71	225.21
865.02	225.19
865.33	225.21
865.64	225.17
865.95	225.18
866.27	225.25
866.58	225.22
866.89	225.26
867.20	225.22
867.51	225.23
867.82	225.22
868.13	225.29
868.44	225.29
868.75	225.29
869.06	225.31
869.37	225.31
869.68	225.25
869.99	225.25
870.30	225.25
870.61	225.24
870.92	225.23
871.23	225.16
871.54	225.15
871.85	225.16
872.16	225.16
872.47	225.11
872.78	225.06
873.09	225.07
873.40	225.06
873.71	225.10
874.02	225.11
874.33	225.10
874.64	225.06
874.95	225.09
875.26	225.07
875.56	225.06
875.87	225.08
876.18	225.08
876.49	225.19
876.80	225.20
877.11	225.19
877.42	225.19
877.73	225.22
878.04	225.22
878.35	225.21
878.66	225.23
878.96	225.23
879.27	225.19
879.58	225.19
879.89	225.18
880.20	225.20
880.51	225.18
880.82	225.18
881.12	225.15
881.43	225.12
881.74	225.09
882.05	225.10
882.36	225.08
882.67	225.09
882.97	224.93
883.28	224.88
883.59	224.86
883.90	224.84
884.21	224.84
884.51	224.80
884.82	224.77
885.13	224.77
885.44	224.79
885.74	224.79
886.05	224.78
886.36	224.76
886.67	224.73
886.98	224.78
887.28	224.77
887.59	224.77
887.90	224.77
888.20	224.77
888.51	224.77
888.82	224.73
889.13	224.72
889.43	224.83
889.74	224.83
890.05	224.83
890.35	224.83
890.66	224.81
890.97	224.82
891.28	224.80
891.58	224.78
891.89	224.77
892.20	224.74
892.50	224.71
892.81	224.73
893.12	224.70
893.42	224.64
893.73	224.62
894.04	224.64
894.34	224.68
894.65	224.68
894.95	224.68
895.26	224.70
895.57	224.75
895.87	224.65
896.18	224.66
896.48	224.72
896.79	224.72
897.10	224.73
897.40	224.75
897.71	224.77
898.01	224.78
898.32	224.82
898.63	224.84
898.93	224.87
899.24	224.89
899.54	224.87
899.85	224.88
900.15	224.88
900.46	224.87
900.76	224.86
901.07	224.87
901.38	224.86
901.68	224.88
901.99	224.87
902.29	224.90
902.60	224.90
902.90	224.90
903.21	224.92
903.51	224.89
903.82	224.92
904.12	224.95
904.43	224.95
904.73	224.94
905.03	224.96
905.34	225.05
905.64	225.03
905.95	225.09
906.25	225.13
906.56	225.15
906.86	225.19
907.17	225.16
907.47	225.17
907.77	225.18
908.08	225.16
908.38	225.15
908.69	225.13
908.99	225.16
909.30	225.15
909.60	225.13
909.90	225.16
910.21	225.13
910.51	225.13
910.81	225.13
911.12	225.14
911.42	225.14
911.73	225.04
912.03	225.02
912.33	224.99
912.64	224.96
912.94	224.92
913.24	224.88
913.55	224.88
913.85	224.89
914.15	224.90
914.46	224.90
914.76	224.84
915.06	224.85
915.37	224.81
915.67	224.75
915.97	224.77
916.27	224.75
916.58	224.75
916.88	224.73
917.18	224.74
917.49	224.79
917.79	224.77
918.09	224.75
918.39	224.76
918.70	224.77
919.00	224.76
919.30	224.80
919.60	224.80
919.91	224.81
920.21	224.78
920.51	224.73
920.81	224.71
921.12	224.76
921.42	224.74
921.72	224.74
922.02	224.76
922.32	224.73
922.63	224.72
922.93	224.75
923.23	224.73
923.53	224.69
923.83	224.63
924.13	224.66
924.44	224.65
924.74	224.70
925.04	224.68
925.34	224.69
925.64	224.62
925.94	224.60
926.24	224.62
926.55	224.58
926.85	224.63
927.15	224.64
927.45	224.63
927.75	224.65
928.05	224.67
928.35	224.65
928.65	224.69
928.95	224.71
929.26	224.66
929.56	224.68
929.86	224.69
930.16	224.69
930.46	224.66
930.76	224.66
931.06	224.63
931.36	224.61
931.66	224.59
931.96	224.65
932.26	224.69
932.56	224.62
932.86	224.68
933.16	224.64
933.46	224.63
933.76	224.62
934.06	224.62
934.36	224.64
934.66	224.62
934.96	224.58
935.26	224.58
935.56	224.59
935.86	224.55
936.16	224.51
936.46	224.50
936.76	224.48
937.06	224.51
937.36	224.50
937.66	224.52
937.96	224.50
938.26	224.47
938.56	224.47
938.86	224.48
939.16	224.51
939.46	224.53
939.76	224.55
940.06	224.56
940.35	224.52
940.65	224.46
940.95	224.49
941.25	224.48
941.55	224.49
941.85	224.50
942.15	224.48
942.45	224.57
942.75	224.55
943.04	224.54
943.34	224.54
943.64	224.54
943.94	224.50
944.24	224.55
944.54	224.56
944.84	224.52
945.13	224.51
945.43	224.47
945.73	224.45
946.03	224.46
946.33	224.46
946.62	224.43
946.92	224.46
947.22	224.45
947.52	224.43
947.82	224.44
948.11	224.41
948.41	224.43
948.71	224.36
949.01	224.38
949.31	224.39
949.60	224.40
949.90	224.39
950.20	224.40
950.50	224.40
950.79	224.38
951.09	224.44
951.39	224.44
951.69	224.40
951.98	224.45
952.28	224.45
952.58	224.40
952.87	224.44
953.17	224.47
953.47	224.45
953.76	224.47
954.06	224.43
954.36	224.44
954.66	224.45
954.95	224.49
955.25	224.50
955.55	224.51
955.84	224.45
956.14	224.46
956.44	224.48
956.73	224.45
957.03	224.48
957.32	224.46
957.62	224.44
957.92	224.46
958.21	224.44
958.51	224.54
958.81	224.59
959.10	224.60
959.40	224.60
959.69	224.58
959.99	224.59
960.29	224.60
960.58	224.59
960.88	224.64
961.17	224.61
961.47	224.63
961.76	224.61
962.06	224.64
962.36	224.62
962.65	224.63
962.95	224.63
963.24	224.61
963.54	224.62
963.83	224.65
964.13	224.68
964.42	224.65
964.72	224.56
965.01	224.55
965.31	224.53
965.60	224.52
965.90	224.64
966.19	224.63
966.49	224.64
966.78	224.64
967.08	224.64
967.37	224.65
967.67	224.63
967.96	224.68
968.26	224.67
968.55	224.69
968.85	224.66
969.14	224.67
969.43	224.68
969.73	224.64
970.02	224.62
970.32	224.60
970.61	224.59
970.91	224.57
971.20	224.57
971.49	224.57
971.79	224.60
972.08	224.52
972.38	224.54
972.67	224.51
972.96	224.52
973.26	224.46
973.55	224.47
973.85	224.46
974.14	224.43
974.43	224.46
974.73	224.42
975.02	224.42
975.31	224.44
975.61	224.41
975.90	224.42
976.19	224.44
976.49	224.45
976.78	224.46
977.07	224.45
977.37	224.44
977.66	224.44
977.95	224.43
978.24	224.43
978.54	224.40
978.83	224.42
979.12	224.41
979.42	224.43
979.71	224.41
980.00	224.41
980.29	224.40
980.59	224.39
980.88	224.40
981.17	224.42
981.46	224.39
981.76	224.42
982.05	224.47
982.34	224.48
982.63	224.52
982.93	224.56
983.22	224.60
983.51	224.60
983.80	224.62
984.09	224.62
984.39	224.62
984.68	224.63
984.97	224.61
985.26	224.58
985.55	224.60
985.85	224.57
986.14	224.62
986.43	224.64
986.72	224.62
987.01	224.62
987.30	224.59
987.59	224.58
987.89	224.55
988.18	224.53
988.47	224.54
988.76	224.50
989.05	224.46
989.34	224.43
989.63	224.47
989.92	224.46
990.22	224.47
990.51	224.44
990.80	224.43
991.09	224.46
991.38	224.51
991.67	224.47
991.96	224.47
992.25	224.44
992.54	224.46
992.83	224.48
993.12	224.47
993.41	224.49
993.70	224.54
993.99	224.58
994.28	224.55
994.58	224.55
994.87	224.51
995.16	224.51
995.45	224.51
995.74	224.48
996.03	224.50
996.32	224.48
996.61	224.51
996.90	224.51
997.19	224.49
997.48	224.51
997.77	224.53
998.06	224.52
998.34	224.51
998.63	224.48
998.92	224.46
999.21	224.49
999.50	224.51
999.79	224.44
1000.08	224.45
1000.37	224.46
1000.66	224.43
1000.95	224.49
1001.24	224.50
1001.53	224.52
1001.82	224.51
1002.11	224.50
1002.40	224.50
1002.68	224.53
1002.97	224.61
1003.26	224.63
1003.55	224.57
1003.84	224.59
1004.13	224.64
1004.42	224.63
1004.71	224.67
1004.99	224.65
1005.28	224.66
1005.57	224.66
1005.86	224.69
1006.15	224.70
1006.44	224.69
1006.72	224.69
1007.01	224.68
1007.30	224.68
1007.59	224.65
1007.88	224.65
1008.17	224.64
1008.45	224.61
1008.74	224.56
1009.03	224.52
1009.32	224.53
1009.60	224.60
1009.89	224.58
1010.18	224.55
1010.47	224.58
1010.76	224.56
1011.04	224.57
1011.33	224.59
1011.62	224.60
1011.91	224.62
1012.19	224.61
1012.48	224.65
1012.77	224.67
1013.05	224.71
1013.34	224.73
1013.63	224.75
1013.92	224.71
1014.20	224.72
1014.49	224.76
1014.78	224.77
1015.06	224.74
1015.35	224.75
1015.64	224.75
1015.92	224.78
1016.21	224.78
1016.50	224.76
1016.78	224.77
1017.07	224.81
1017.36	224.78
1017.64	224.73
1017.93	224.73
1018.22	224.70
1018.50	224.68
1018.79	224.66
1019.08	224.63
1019.36	224.62
1019.65	224.62
1019.93	224.66
1020.22	224.66
1020.51	224.69
1020.79	224.68
1021.08	224.09
1021.36	224.58
1021.65	224.28
1021.94	224.96
1022.22	224.51
1022.51	224.75
1022.79	224.75
1023.08	224.53
1023.36	225.43
1023.65	224.56
>>>>>End Processed Spectral Data<<<<<
