SpectraSuite Data File
++++++++++++++++++++++++++++++++++++
Date: Fri Feb 01 15:42:06 EST 2013
User: group
Dark Spectrum Present: No
Reference Spectrum Present: No
Number of Sampled Component Spectra: 1
Spectrometers: USB2E7196
Integration Time (usec): 35000 (USB2E7196)
Spectra Averaged: 100 (USB2E7196)
Boxcar Smoothing: 10 (USB2E7196)
Correct for Electrical Dark: No (USB2E7196)
Strobe/Lamp Enabled: No (USB2E7196)
Correct for Detector Non-linearity: No (USB2E7196)
Correct for Stray Light: No (USB2E7196)
Number of Pixels in Processed Spectrum: 2048
>>>>>Begin Processed Spectral Data<<<<<
339.09	0.00
339.48	215.54
339.86	215.94
340.24	217.69
340.63	219.28
341.01	222.02
341.39	222.59
341.78	223.43
342.16	224.72
342.54	224.70
342.93	213.44
343.31	224.25
343.69	224.77
344.07	225.27
344.46	225.73
344.84	226.09
345.22	226.35
345.60	226.56
345.99	226.74
346.37	226.88
346.75	227.00
347.13	227.05
347.52	227.11
347.90	227.18
348.28	227.24
348.66	227.25
349.05	227.19
349.43	227.25
349.81	227.30
350.19	227.35
350.57	227.43
350.96	227.50
351.34	227.56
351.72	227.62
352.10	227.70
352.48	227.75
352.87	227.83
353.25	227.89
353.63	227.96
354.01	228.01
354.39	228.05
354.77	228.10
355.15	228.21
355.54	228.25
355.92	228.29
356.30	228.38
356.68	228.49
357.06	228.60
357.44	228.62
357.82	228.69
358.20	228.73
358.58	228.77
358.97	228.81
359.35	228.87
359.73	228.95
360.11	229.00
360.49	229.01
360.87	229.01
361.25	229.06
361.63	229.16
362.01	229.20
362.39	229.21
362.77	229.23
363.15	229.22
363.53	229.23
363.91	229.25
364.29	229.23
364.67	229.15
365.05	229.14
365.43	229.18
365.81	229.16
366.19	229.20
366.57	229.23
366.95	229.21
367.33	229.14
367.71	229.14
368.09	229.13
368.47	229.13
368.85	229.14
369.23	229.12
369.61	229.00
369.99	228.98
370.37	228.98
370.75	229.01
371.13	228.94
371.51	228.91
371.89	228.85
372.27	228.79
372.65	228.74
373.03	228.68
373.41	228.61
373.78	228.57
374.16	228.48
374.54	228.40
374.92	228.33
375.30	228.32
375.68	228.22
376.06	228.17
376.44	228.11
376.82	228.04
377.19	227.96
377.57	227.94
377.95	227.87
378.33	227.77
378.71	227.67
379.09	227.64
379.47	227.56
379.84	227.47
380.22	227.41
380.60	227.37
380.98	227.32
381.36	227.26
381.73	227.19
382.11	227.13
382.49	227.06
382.87	227.01
383.25	226.94
383.62	227.00
384.00	226.90
384.38	226.85
384.76	226.83
385.13	226.79
385.51	226.73
385.89	226.64
386.27	226.66
386.64	226.60
387.02	226.57
387.40	226.54
387.78	226.51
388.15	226.48
388.53	226.45
388.91	226.40
389.29	226.36
389.66	226.35
390.04	226.34
390.42	226.36
390.79	226.35
391.17	226.34
391.55	226.22
391.92	226.21
392.30	226.22
392.68	226.22
393.05	226.20
393.43	226.22
393.81	226.24
394.18	226.20
394.56	226.24
394.94	226.29
395.31	226.32
395.69	226.43
396.06	226.48
396.44	226.52
396.82	226.56
397.19	226.67
397.57	226.71
397.95	226.76
398.32	226.77
398.70	226.89
399.07	226.98
399.45	227.05
399.82	227.18
400.20	227.24
400.58	227.30
400.95	227.39
401.33	227.50
401.70	227.69
402.08	227.77
402.45	227.89
402.83	228.00
403.20	228.13
403.58	228.24
403.95	228.37
404.33	228.51
404.71	228.64
405.08	228.84
405.46	228.98
405.83	229.15
406.21	229.31
406.58	229.44
406.96	229.57
407.33	229.76
407.70	229.93
408.08	230.21
408.45	230.43
408.83	230.65
409.20	230.83
409.58	231.01
409.95	231.30
410.33	231.51
410.70	231.79
411.08	232.08
411.45	232.32
411.82	232.61
412.20	232.95
412.57	233.37
412.95	233.64
413.32	234.03
413.69	234.43
414.07	234.87
414.44	235.34
414.82	235.83
415.19	236.39
415.56	236.90
415.94	237.43
416.31	238.05
416.68	238.68
417.06	239.41
417.43	240.08
417.81	240.82
418.18	241.61
418.55	242.39
418.93	243.26
419.30	244.13
419.67	245.05
420.04	246.01
420.42	247.00
420.79	248.20
421.16	249.33
421.54	250.49
421.91	251.70
422.28	252.94
422.66	254.25
423.03	255.52
423.40	256.84
423.77	258.25
424.15	259.68
424.52	261.16
424.89	262.77
425.26	264.27
425.64	265.72
426.01	267.31
426.38	268.97
426.75	270.65
427.13	272.37
427.50	274.17
427.87	276.00
428.24	277.83
428.61	279.56
428.99	281.50
429.36	283.57
429.73	285.64
430.10	287.66
430.47	289.72
430.85	291.85
431.22	294.15
431.59	296.51
431.96	298.76
432.33	301.26
432.70	303.62
433.08	306.47
433.45	309.14
433.82	311.75
434.19	314.64
434.56	317.45
434.93	320.16
435.30	322.81
435.68	325.76
436.05	328.58
436.42	331.37
436.79	333.90
437.16	336.67
437.53	339.51
437.90	342.30
438.27	345.04
438.64	347.90
439.01	350.52
439.38	352.76
439.75	354.97
440.13	357.48
440.50	359.81
440.87	361.65
441.24	363.60
441.61	365.74
441.98	367.26
442.35	369.04
442.72	370.85
443.09	372.68
443.46	373.63
443.83	374.25
444.20	374.74
444.57	375.60
444.94	375.87
445.31	376.24
445.68	376.63
446.05	376.69
446.42	376.31
446.79	375.86
447.16	375.46
447.53	375.11
447.90	373.96
448.27	372.79
448.64	371.25
449.01	370.13
449.37	368.19
449.74	366.33
450.11	364.12
450.48	361.70
450.85	359.15
451.22	357.02
451.59	355.01
451.96	353.09
452.33	350.47
452.70	348.09
453.07	345.27
453.43	342.36
453.80	339.63
454.17	336.96
454.54	334.39
454.91	331.65
455.28	328.97
455.65	326.47
456.02	324.09
456.38	321.89
456.75	319.18
457.12	316.93
457.49	314.70
457.86	312.52
458.23	310.69
458.59	308.66
458.96	306.60
459.33	304.71
459.70	302.82
460.07	301.33
460.43	299.62
460.80	297.99
461.17	296.53
461.54	295.03
461.91	293.56
462.27	292.08
462.64	290.81
463.01	289.46
463.38	288.16
463.74	286.70
464.11	285.54
464.48	284.53
464.85	283.40
465.21	282.47
465.58	281.53
465.95	280.41
466.32	279.50
466.68	278.55
467.05	277.66
467.42	276.77
467.78	275.83
468.15	274.95
468.52	274.23
468.88	273.38
469.25	272.58
469.62	271.95
469.98	271.33
470.35	270.70
470.72	270.10
471.08	269.44
471.45	268.89
471.82	268.35
472.18	267.73
472.55	267.28
472.92	266.75
473.28	266.25
473.65	265.77
474.02	265.32
474.38	264.97
474.75	264.64
475.11	264.29
475.48	264.04
475.85	263.79
476.21	263.59
476.58	263.40
476.94	263.28
477.31	263.11
477.67	262.93
478.04	262.78
478.41	262.71
478.77	262.74
479.14	262.71
479.50	262.70
479.87	262.79
480.23	262.88
480.60	262.97
480.96	263.06
481.33	263.27
481.69	263.46
482.06	263.67
482.42	263.88
482.79	264.16
483.15	264.46
483.52	264.86
483.88	265.21
484.25	265.59
484.61	266.03
484.98	266.52
485.34	267.10
485.71	267.73
486.07	268.36
486.44	268.95
486.80	269.67
487.17	270.44
487.53	271.26
487.90	272.14
488.26	273.10
488.62	274.13
488.99	275.10
489.35	276.12
489.72	277.25
490.08	278.44
490.44	279.66
490.81	281.03
491.17	282.36
491.54	283.85
491.90	285.40
492.26	287.00
492.63	288.73
492.99	290.54
493.36	292.44
493.72	294.46
494.08	296.56
494.45	298.84
494.81	301.23
495.17	303.68
495.54	306.25
495.90	308.93
496.26	311.74
496.63	314.72
496.99	317.86
497.35	321.10
497.72	324.55
498.08	328.10
498.44	331.71
498.80	335.66
499.17	339.68
499.53	343.87
499.89	348.33
500.26	352.79
500.62	357.47
500.98	362.46
501.34	367.55
501.71	372.86
502.07	378.29
502.43	383.93
502.79	389.71
503.16	395.78
503.52	402.08
503.88	408.48
504.24	415.15
504.60	422.06
504.97	429.23
505.33	436.55
505.69	444.28
506.05	452.12
506.41	459.96
506.78	468.11
507.14	476.56
507.50	485.25
507.86	494.27
508.22	503.43
508.59	512.58
508.95	522.15
509.31	531.99
509.67	542.06
510.03	552.31
510.39	562.89
510.75	573.68
511.12	584.61
511.48	595.92
511.84	607.27
512.20	618.79
512.56	630.69
512.92	642.83
513.28	655.16
513.64	667.63
514.00	680.36
514.37	693.29
514.73	706.34
515.09	719.42
515.45	732.66
515.81	746.19
516.17	760.20
516.53	774.24
516.89	788.37
517.25	802.52
517.61	816.98
517.97	831.42
518.33	845.87
518.69	860.63
519.05	875.58
519.41	890.76
519.77	906.33
520.13	921.81
520.49	937.26
520.85	952.71
521.21	968.39
521.57	984.63
521.93	1000.48
522.29	1016.89
522.65	1033.09
523.01	1049.39
523.37	1065.50
523.73	1081.64
524.09	1097.77
524.45	1114.10
524.81	1130.85
525.17	1147.72
525.53	1164.66
525.89	1181.54
526.25	1198.27
526.61	1214.68
526.97	1231.47
527.33	1247.88
527.68	1264.47
528.04	1281.02
528.40	1297.61
528.76	1314.79
529.12	1331.37
529.48	1348.21
529.84	1364.26
530.20	1380.97
530.56	1398.15
530.91	1415.52
531.27	1432.45
531.63	1448.89
531.99	1465.53
532.35	1481.32
532.71	1497.08
533.07	1513.42
533.42	1529.34
533.78	1545.42
534.14	1561.74
534.50	1577.12
534.86	1593.17
535.21	1608.28
535.57	1624.24
535.93	1639.75
536.29	1654.41
536.65	1669.52
537.00	1684.32
537.36	1699.54
537.72	1714.04
538.08	1728.18
538.44	1742.14
538.79	1755.91
539.15	1769.68
539.51	1783.37
539.87	1797.91
540.22	1811.69
540.58	1825.33
540.94	1838.64
541.29	1851.64
541.65	1864.33
542.01	1877.54
542.37	1889.69
542.72	1902.26
543.08	1913.91
543.44	1926.28
543.79	1937.60
544.15	1948.50
544.51	1960.03
544.87	1971.11
545.22	1981.94
545.58	1992.27
545.94	2001.99
546.29	2011.94
546.65	2021.65
547.01	2030.89
547.36	2039.56
547.72	2047.99
548.07	2056.00
548.43	2064.25
548.79	2072.25
549.14	2079.87
549.50	2087.23
549.86	2094.98
550.21	2102.25
550.57	2109.44
550.92	2115.91
551.28	2122.95
551.64	2130.11
551.99	2136.66
552.35	2142.84
552.70	2148.77
553.06	2154.77
553.41	2161.11
553.77	2167.18
554.13	2173.53
554.48	2179.72
554.84	2185.07
555.19	2190.54
555.55	2195.64
555.90	2199.98
556.26	2204.79
556.61	2209.41
556.97	2213.67
557.32	2217.74
557.68	2221.80
558.03	2226.07
558.39	2229.88
558.74	2234.47
559.10	2238.29
559.45	2241.91
559.81	2246.19
560.16	2250.25
560.52	2253.43
560.87	2256.86
561.23	2259.40
561.58	2262.27
561.94	2264.73
562.29	2267.22
562.64	2269.67
563.00	2272.21
563.35	2275.81
563.71	2279.08
564.06	2282.35
564.42	2285.14
564.77	2287.63
565.12	2289.96
565.48	2291.87
565.83	2293.79
566.19	2295.02
566.54	2296.05
566.89	2297.24
567.25	2297.63
567.60	2298.86
567.96	2300.51
568.31	2301.26
568.66	2302.20
569.02	2302.73
569.37	2303.08
569.72	2303.96
570.08	2304.12
570.43	2304.27
570.78	2303.64
571.14	2301.99
571.49	2300.54
571.84	2300.26
572.20	2299.00
572.55	2297.95
572.90	2296.35
573.26	2294.85
573.61	2293.21
573.96	2291.32
574.31	2288.31
574.67	2285.47
575.02	2281.84
575.37	2278.38
575.72	2274.62
576.08	2271.45
576.43	2268.18
576.78	2264.38
577.13	2261.15
577.49	2258.10
577.84	2254.47
578.19	2250.73
578.54	2246.99
578.90	2242.76
579.25	2237.23
579.60	2232.29
579.95	2227.20
580.30	2222.21
580.66	2217.05
581.01	2212.20
581.36	2207.11
581.71	2202.82
582.06	2198.32
582.42	2193.84
582.77	2188.55
583.12	2183.72
583.47	2178.85
583.82	2173.79
584.17	2168.56
584.53	2163.13
584.88	2157.40
585.23	2151.65
585.58	2146.13
585.93	2140.68
586.28	2135.88
586.63	2130.67
586.98	2125.70
587.34	2121.05
587.69	2116.03
588.04	2110.70
588.39	2104.90
588.74	2098.58
589.09	2092.53
589.44	2085.72
589.79	2079.77
590.14	2074.24
590.49	2067.87
590.84	2061.61
591.19	2055.38
591.54	2048.95
591.89	2041.44
592.25	2034.63
592.60	2027.28
592.95	2019.69
593.30	2012.39
593.65	2004.88
594.00	1997.79
594.35	1990.53
594.70	1982.41
595.05	1975.29
595.40	1968.03
595.75	1960.52
596.10	1954.33
596.45	1947.52
596.80	1941.27
597.15	1934.44
597.50	1927.38
597.85	1920.91
598.19	1914.06
598.54	1907.04
598.89	1900.48
599.24	1894.60
599.59	1887.89
599.94	1881.78
600.29	1875.38
600.64	1868.74
600.99	1861.19
601.34	1854.39
601.69	1847.32
602.04	1840.46
602.39	1833.05
602.74	1826.14
603.08	1819.36
603.43	1812.57
603.78	1805.15
604.13	1797.90
604.48	1790.57
604.83	1783.65
605.18	1776.56
605.53	1768.58
605.87	1760.52
606.22	1753.23
606.57	1745.30
606.92	1737.97
607.27	1730.68
607.62	1723.75
607.96	1716.47
608.31	1709.87
608.66	1702.27
609.01	1694.81
609.36	1687.22
609.70	1679.19
610.05	1671.15
610.40	1663.40
610.75	1654.99
611.10	1647.50
611.44	1639.09
611.79	1631.17
612.14	1622.50
612.49	1613.35
612.83	1605.13
613.18	1596.99
613.53	1588.87
613.88	1580.25
614.22	1571.99
614.57	1563.47
614.92	1555.33
615.27	1547.77
615.61	1539.40
615.96	1531.37
616.31	1523.71
616.65	1516.40
617.00	1508.83
617.35	1501.13
617.70	1492.87
618.04	1484.41
618.39	1476.08
618.74	1468.46
619.08	1460.13
619.43	1452.59
619.78	1445.71
620.12	1438.39
620.47	1431.00
620.82	1422.77
621.16	1415.46
621.51	1407.87
621.85	1400.26
622.20	1391.87
622.55	1383.52
622.89	1375.71
623.24	1368.10
623.59	1360.75
623.93	1353.17
624.28	1345.89
624.62	1338.40
624.97	1331.22
625.32	1324.50
625.66	1317.43
626.01	1310.21
626.35	1302.77
626.70	1294.98
627.04	1287.25
627.39	1279.47
627.73	1272.00
628.08	1265.14
628.43	1257.73
628.77	1250.33
629.12	1242.74
629.46	1235.50
629.81	1228.11
630.15	1220.78
630.50	1213.36
630.84	1205.08
631.19	1197.23
631.53	1189.84
631.88	1182.32
632.22	1174.74
632.57	1167.37
632.91	1159.80
633.26	1152.43
633.60	1145.06
633.95	1137.99
634.29	1130.90
634.64	1124.32
634.98	1116.98
635.32	1109.76
635.67	1103.20
636.01	1096.51
636.36	1089.68
636.70	1083.21
637.05	1076.56
637.39	1070.18
637.73	1063.65
638.08	1057.80
638.42	1051.67
638.77	1045.16
639.11	1038.53
639.45	1032.09
639.80	1025.43
640.14	1019.08
640.49	1012.53
640.83	1006.16
641.17	999.94
641.52	993.60
641.86	987.07
642.20	981.16
642.55	974.89
642.89	968.39
643.23	961.90
643.58	956.07
643.92	949.88
644.26	943.87
644.61	937.88
644.95	931.78
645.29	925.18
645.64	918.50
645.98	912.19
646.32	906.38
646.66	900.41
647.01	894.67
647.35	889.01
647.69	883.28
648.04	877.83
648.38	871.98
648.72	866.01
649.06	860.03
649.41	854.20
649.75	848.26
650.09	842.31
650.43	836.53
650.78	830.42
651.12	824.45
651.46	818.65
651.80	812.82
652.14	807.51
652.49	802.13
652.83	796.96
653.17	791.23
653.51	785.49
653.85	780.00
654.20	774.27
654.54	768.24
654.88	762.45
655.22	756.58
655.56	750.95
655.90	745.52
656.25	740.25
656.59	734.91
656.93	729.81
657.27	724.66
657.61	719.23
657.95	714.12
658.29	708.98
658.64	703.84
658.98	698.59
659.32	693.07
659.66	687.85
660.00	682.51
660.34	677.58
660.68	672.65
661.02	667.68
661.36	663.01
661.70	658.47
662.05	654.14
662.39	649.80
662.73	645.31
663.07	640.97
663.41	636.43
663.75	631.87
664.09	627.28
664.43	622.82
664.77	618.68
665.11	614.50
665.45	610.42
665.79	606.32
666.13	602.17
666.47	598.10
666.81	594.01
667.15	589.87
667.49	585.96
667.83	582.21
668.17	578.20
668.51	574.11
668.85	570.15
669.19	566.28
669.53	562.41
669.87	558.47
670.21	554.73
670.55	551.20
670.89	547.78
671.23	544.35
671.57	540.89
671.91	537.36
672.25	533.84
672.58	530.36
672.92	526.92
673.26	523.76
673.60	520.61
673.94	517.48
674.28	514.62
674.62	511.67
674.96	508.51
675.30	505.67
675.64	502.80
675.97	500.01
676.31	497.17
676.65	494.25
676.99	491.61
677.33	488.77
677.67	485.91
678.01	482.88
678.34	479.95
678.68	477.09
679.02	474.28
679.36	471.51
679.70	468.76
680.04	466.03
680.37	463.16
680.71	460.39
681.05	457.77
681.39	455.01
681.73	452.37
682.06	449.84
682.40	447.31
682.74	444.75
683.08	442.21
683.42	439.57
683.75	437.15
684.09	434.56
684.43	432.10
684.77	429.63
685.10	427.28
685.44	424.94
685.78	422.69
686.12	420.43
686.45	418.12
686.79	415.85
687.13	413.62
687.46	411.44
687.80	409.27
688.14	407.05
688.48	405.02
688.81	402.79
689.15	400.68
689.49	398.53
689.82	396.47
690.16	394.38
690.50	392.47
690.83	390.44
691.17	388.45
691.51	386.54
691.84	384.72
692.18	382.80
692.52	380.81
692.85	378.80
693.19	376.93
693.52	375.14
693.86	373.37
694.20	371.62
694.53	369.87
694.87	368.04
695.21	366.25
695.54	364.43
695.88	362.69
696.21	360.96
696.55	359.24
696.88	357.55
697.22	355.88
697.56	354.29
697.89	352.67
698.23	351.09
698.56	349.46
698.90	347.88
699.23	346.28
699.57	344.74
699.90	343.21
700.24	341.67
700.58	340.14
700.91	338.56
701.25	337.10
701.58	335.72
701.92	334.38
702.25	333.01
702.59	331.66
702.92	330.37
703.26	329.05
703.59	327.79
703.93	326.61
704.26	325.39
704.60	324.11
704.93	322.85
705.26	321.62
705.60	320.49
705.93	319.34
706.27	318.27
706.60	317.22
706.94	316.20
707.27	315.09
707.61	314.02
707.94	313.05
708.27	311.96
708.61	310.87
708.94	309.87
709.28	308.89
709.61	307.91
709.94	306.94
710.28	305.95
710.61	305.00
710.95	303.90
711.28	303.00
711.61	302.03
711.95	301.12
712.28	300.16
712.61	299.14
712.95	298.21
713.28	297.36
713.61	296.45
713.95	295.56
714.28	294.72
714.61	293.90
714.95	293.05
715.28	292.17
715.61	291.30
715.95	290.45
716.28	289.62
716.61	288.80
716.95	288.00
717.28	287.25
717.61	286.47
717.94	285.74
718.28	284.92
718.61	284.16
718.94	283.47
719.27	282.82
719.61	282.20
719.94	281.52
720.27	280.80
720.60	280.16
720.94	279.53
721.27	278.92
721.60	278.32
721.93	277.72
722.27	277.19
722.60	276.65
722.93	276.06
723.26	275.50
723.59	274.95
723.93	274.41
724.26	273.87
724.59	273.31
724.92	272.79
725.25	272.28
725.59	271.79
725.92	271.23
726.25	270.70
726.58	270.19
726.91	269.69
727.24	269.18
727.57	268.69
727.91	268.18
728.24	267.70
728.57	267.22
728.90	266.79
729.23	266.30
729.56	265.89
729.89	265.42
730.22	264.95
730.55	264.48
730.89	264.03
731.22	263.57
731.55	263.16
731.88	262.76
732.21	262.32
732.54	261.86
732.87	261.46
733.20	261.08
733.53	260.68
733.86	260.33
734.19	259.93
734.52	259.54
734.85	259.21
735.18	258.84
735.51	258.44
735.84	258.07
736.17	257.74
736.50	257.32
736.83	257.06
737.16	256.71
737.49	256.38
737.82	256.02
738.15	255.68
738.48	255.31
738.81	254.95
739.14	254.65
739.47	254.38
739.80	254.07
740.13	253.75
740.46	253.44
740.79	253.12
741.12	252.83
741.45	252.53
741.78	252.19
742.11	251.91
742.44	251.56
742.77	251.26
743.10	250.92
743.43	250.62
743.75	250.26
744.08	250.14
744.41	249.87
744.74	249.61
745.07	249.33
745.40	249.09
745.73	248.89
746.06	248.62
746.39	248.34
746.71	248.09
747.04	247.79
747.37	247.51
747.70	247.22
748.03	246.94
748.36	246.72
748.68	246.50
749.01	246.22
749.34	246.04
749.67	245.83
750.00	245.61
750.33	245.45
750.65	245.25
750.98	244.87
751.31	244.66
751.64	244.43
751.97	244.26
752.29	244.03
752.62	243.79
752.95	243.59
753.28	243.38
753.60	243.17
753.93	243.02
754.26	242.83
754.59	242.68
754.91	242.47
755.24	242.28
755.57	242.06
755.90	241.89
756.22	241.69
756.55	241.47
756.88	241.27
757.20	241.02
757.53	240.82
757.86	240.69
758.19	240.51
758.51	240.35
758.84	240.15
759.17	239.96
759.49	239.82
759.82	239.68
760.15	239.58
760.47	239.42
760.80	239.26
761.13	239.12
761.45	238.93
761.78	238.82
762.11	238.65
762.43	238.54
762.76	238.40
763.08	238.29
763.41	238.17
763.74	238.02
764.06	237.89
764.39	237.74
764.71	237.61
765.04	237.46
765.37	237.34
765.69	237.23
766.02	237.13
766.34	236.99
766.67	236.85
767.00	236.73
767.32	236.69
767.65	236.64
767.97	236.54
768.30	236.46
768.62	236.35
768.95	236.24
769.27	236.13
769.60	236.02
769.92	235.90
770.25	235.81
770.57	235.72
770.90	235.67
771.22	235.57
771.55	235.46
771.87	235.40
772.20	235.27
772.52	235.25
772.85	235.28
773.17	235.17
773.50	235.09
773.82	234.95
774.15	234.79
774.47	234.66
774.80	234.57
775.12	234.47
775.45	234.38
775.77	234.29
776.09	234.24
776.42	234.19
776.74	234.14
777.07	234.02
777.39	233.93
777.72	233.85
778.04	233.79
778.36	233.73
778.69	233.65
779.01	233.62
779.33	233.47
779.66	233.27
779.98	233.21
780.31	233.15
780.63	233.13
780.95	233.07
781.28	232.97
781.60	232.90
781.92	232.85
782.25	232.80
782.57	232.74
782.89	232.67
783.22	232.56
783.54	232.51
783.86	232.44
784.19	232.40
784.51	232.35
784.83	232.31
785.16	232.26
785.48	232.23
785.80	232.17
786.12	232.13
786.45	232.10
786.77	232.03
787.09	231.98
787.42	231.87
787.74	231.82
788.06	231.79
788.38	231.77
788.71	231.72
789.03	231.68
789.35	231.65
789.67	231.57
789.99	231.57
790.32	231.47
790.64	231.47
790.96	231.48
791.28	231.41
791.61	231.32
791.93	231.27
792.25	231.19
792.57	231.19
792.89	231.12
793.21	231.06
793.54	231.03
793.86	230.93
794.18	230.92
794.50	230.86
794.82	230.80
795.14	230.77
795.47	230.73
795.79	230.68
796.11	230.60
796.43	230.57
796.75	230.51
797.07	230.50
797.39	230.45
797.71	230.36
798.04	230.34
798.36	230.33
798.68	230.29
799.00	230.29
799.32	230.24
799.64	230.22
799.96	230.23
800.28	230.21
800.60	230.20
800.92	230.15
801.24	230.12
801.56	230.11
801.89	230.04
802.21	230.01
802.53	229.96
802.85	229.98
803.17	230.01
803.49	229.97
803.81	229.92
804.13	229.91
804.45	229.82
804.77	229.83
805.09	229.79
805.41	229.75
805.73	229.68
806.05	229.59
806.37	229.59
806.69	229.51
807.01	229.47
807.33	229.47
807.65	229.43
807.97	229.46
808.28	229.42
808.60	229.43
808.92	229.39
809.24	229.44
809.56	229.38
809.88	229.29
810.20	229.27
810.52	229.28
810.84	229.25
811.16	229.27
811.48	229.24
811.80	229.29
812.12	229.26
812.43	229.27
812.75	229.25
813.07	229.20
813.39	229.21
813.71	229.19
814.03	229.17
814.35	229.20
814.67	229.13
814.98	229.10
815.30	229.07
815.62	229.07
815.94	228.97
816.26	228.99
816.58	228.99
816.89	228.99
817.21	228.96
817.53	228.94
817.85	228.92
818.17	228.90
818.48	228.84
818.80	228.83
819.12	228.83
819.44	228.82
819.76	228.78
820.07	228.76
820.39	228.76
820.71	228.73
821.03	228.71
821.34	228.67
821.66	228.68
821.98	228.66
822.30	228.59
822.61	228.67
822.93	228.63
823.25	228.63
823.57	228.60
823.88	228.59
824.20	228.57
824.52	228.57
824.83	228.55
825.15	228.52
825.47	228.49
825.79	228.49
826.10	228.46
826.42	228.47
826.74	228.46
827.05	228.43
827.37	228.41
827.69	228.36
828.00	228.37
828.32	228.33
828.64	228.29
828.95	228.34
829.27	228.25
829.58	228.20
829.90	228.18
830.22	228.17
830.53	228.15
830.85	228.12
831.17	228.09
831.48	228.08
831.80	228.07
832.11	228.06
832.43	228.02
832.75	228.01
833.06	228.05
833.38	227.98
833.69	227.94
834.01	227.96
834.32	227.96
834.64	227.92
834.96	227.92
835.27	227.93
835.59	227.94
835.90	227.96
836.22	227.93
836.53	227.91
836.85	227.88
837.16	227.95
837.48	227.97
837.79	227.99
838.11	227.98
838.42	227.96
838.74	227.98
839.05	227.96
839.37	227.96
839.68	227.91
840.00	227.93
840.31	227.95
840.63	227.94
840.94	227.93
841.26	227.90
841.57	227.89
841.88	227.89
842.20	227.82
842.51	227.79
842.83	227.80
843.14	227.86
843.46	227.85
843.77	227.78
844.08	227.77
844.40	227.73
844.71	227.69
845.03	227.72
845.34	227.69
845.65	227.67
845.97	227.66
846.28	227.68
846.60	227.69
846.91	227.68
847.22	227.67
847.54	227.68
847.85	227.72
848.16	227.73
848.48	227.69
848.79	227.79
849.10	227.79
849.42	227.83
849.73	227.80
850.04	227.79
850.36	227.76
850.67	227.80
850.98	227.82
851.30	227.83
851.61	227.82
851.92	227.81
852.23	227.84
852.55	227.85
852.86	227.83
853.17	227.82
853.49	227.87
853.80	227.88
854.11	227.90
854.42	227.91
854.74	227.89
855.05	227.93
855.36	227.85
855.67	227.86
855.99	227.86
856.30	227.93
856.61	227.94
856.92	227.94
857.23	227.87
857.55	227.83
857.86	227.81
858.17	227.81
858.48	227.80
858.79	227.78
859.11	227.78
859.42	227.78
859.73	227.77
860.04	227.74
860.35	227.68
860.66	227.63
860.98	227.65
861.29	227.67
861.60	227.61
861.91	227.64
862.22	227.61
862.53	227.58
862.84	227.44
863.16	227.51
863.47	227.53
863.78	227.55
864.09	227.57
864.40	227.58
864.71	227.61
865.02	227.59
865.33	227.58
865.64	227.54
865.95	227.50
866.27	227.52
866.58	227.51
866.89	227.53
867.20	227.54
867.51	227.49
867.82	227.46
868.13	227.48
868.44	227.47
868.75	227.48
869.06	227.48
869.37	227.51
869.68	227.45
869.99	227.45
870.30	227.44
870.61	227.42
870.92	227.42
871.23	227.38
871.54	227.43
871.85	227.41
872.16	227.43
872.47	227.46
872.78	227.44
873.09	227.44
873.40	227.44
873.71	227.44
874.02	227.44
874.33	227.41
874.64	227.39
874.95	227.36
875.26	227.33
875.56	227.32
875.87	227.28
876.18	227.23
876.49	227.30
876.80	227.29
877.11	227.29
877.42	227.30
877.73	227.31
878.04	227.25
878.35	227.27
878.66	227.27
878.96	227.25
879.27	227.22
879.58	227.26
879.89	227.23
880.20	227.26
880.51	227.25
880.82	227.28
881.12	227.28
881.43	227.28
881.74	227.25
882.05	227.23
882.36	227.27
882.67	227.29
882.97	227.18
883.28	227.18
883.59	227.16
883.90	227.14
884.21	227.12
884.51	227.15
884.82	227.12
885.13	227.13
885.44	227.13
885.74	227.13
886.05	227.08
886.36	227.11
886.67	227.08
886.98	227.11
887.28	227.13
887.59	227.12
887.90	227.11
888.20	227.12
888.51	227.14
888.82	227.09
889.13	227.10
889.43	227.20
889.74	227.21
890.05	227.18
890.35	227.19
890.66	227.22
890.97	227.19
891.28	227.19
891.58	227.20
891.89	227.24
892.20	227.23
892.50	227.23
892.81	227.19
893.12	227.17
893.42	227.16
893.73	227.18
894.04	227.20
894.34	227.21
894.65	227.21
894.95	227.24
895.26	227.29
895.57	227.31
895.87	227.23
896.18	227.22
896.48	227.24
896.79	227.25
897.10	227.23
897.40	227.25
897.71	227.28
898.01	227.26
898.32	227.24
898.63	227.26
898.93	227.30
899.24	227.30
899.54	227.29
899.85	227.30
900.15	227.29
900.46	227.29
900.76	227.28
901.07	227.30
901.38	227.31
901.68	227.33
901.99	227.32
902.29	227.32
902.60	227.30
902.90	227.32
903.21	227.33
903.51	227.35
903.82	227.37
904.12	227.39
904.43	227.38
904.73	227.40
905.03	227.38
905.34	227.45
905.64	227.49
905.95	227.49
906.25	227.49
906.56	227.47
906.86	227.48
907.17	227.50
907.47	227.51
907.77	227.49
908.08	227.45
908.38	227.45
908.69	227.48
908.99	227.54
909.30	227.52
909.60	227.51
909.90	227.51
910.21	227.43
910.51	227.42
910.81	227.41
911.12	227.39
911.42	227.39
911.73	227.32
912.03	227.31
912.33	227.32
912.64	227.30
912.94	227.28
913.24	227.23
913.55	227.21
913.85	227.19
914.15	227.19
914.46	227.19
914.76	227.18
915.06	227.15
915.37	227.11
915.67	227.09
915.97	227.10
916.27	227.04
916.58	227.09
916.88	227.07
917.18	227.11
917.49	227.15
917.79	227.15
918.09	227.14
918.39	227.17
918.70	227.19
919.00	227.17
919.30	227.23
919.60	227.25
919.91	227.23
920.21	227.22
920.51	227.20
920.81	227.18
921.12	227.18
921.42	227.18
921.72	227.16
922.02	227.18
922.32	227.17
922.63	227.17
922.93	227.21
923.23	227.21
923.53	227.17
923.83	227.11
924.13	227.10
924.44	227.13
924.74	227.11
925.04	227.10
925.34	227.09
925.64	227.06
925.94	227.01
926.24	227.05
926.55	227.07
926.85	227.06
927.15	227.05
927.45	227.05
927.75	227.04
928.05	227.03
928.35	226.99
928.65	227.00
928.95	227.04
929.26	227.00
929.56	227.05
929.86	227.06
930.16	227.05
930.46	227.05
930.76	227.03
931.06	227.00
931.36	227.00
931.66	227.04
931.96	227.04
932.26	227.08
932.56	227.07
932.86	227.09
933.16	227.08
933.46	227.08
933.76	227.06
934.06	227.05
934.36	227.11
934.66	227.11
934.96	227.09
935.26	227.07
935.56	227.09
935.86	227.05
936.16	227.06
936.46	227.06
936.76	227.06
937.06	227.05
937.36	227.07
937.66	227.06
937.96	227.08
938.26	227.05
938.56	227.05
938.86	227.08
939.16	227.06
939.46	227.11
939.76	227.14
940.06	227.13
940.35	227.14
940.65	227.08
940.95	227.11
941.25	227.12
941.55	227.11
941.85	227.13
942.15	227.16
942.45	227.18
942.75	227.19
943.04	227.16
943.34	227.18
943.64	227.15
943.94	227.16
944.24	227.10
944.54	227.09
944.84	227.07
945.13	227.04
945.43	227.04
945.73	227.04
946.03	227.02
946.33	227.05
946.62	227.06
946.92	227.07
947.22	227.08
947.52	227.07
947.82	227.08
948.11	227.04
948.41	226.98
948.71	226.93
949.01	226.92
949.31	226.92
949.60	226.93
949.90	226.96
950.20	226.94
950.50	226.95
950.79	226.97
951.09	226.98
951.39	226.96
951.69	226.95
951.98	226.95
952.28	226.94
952.58	226.92
952.87	226.91
953.17	226.92
953.47	226.89
953.76	226.92
954.06	226.92
954.36	226.90
954.66	226.92
954.95	226.96
955.25	226.98
955.55	227.04
955.84	227.01
956.14	226.99
956.44	227.01
956.73	226.97
957.03	226.98
957.32	226.99
957.62	226.99
957.92	227.00
958.21	227.01
958.51	227.09
958.81	227.12
959.10	227.14
959.40	227.17
959.69	227.17
959.99	227.15
960.29	227.15
960.58	227.16
960.88	227.19
961.17	227.16
961.47	227.16
961.76	227.11
962.06	227.11
962.36	227.11
962.65	227.08
962.95	227.13
963.24	227.12
963.54	227.12
963.83	227.13
964.13	227.14
964.42	227.11
964.72	227.01
965.01	226.99
965.31	226.97
965.60	226.93
965.90	227.03
966.19	227.03
966.49	227.03
966.78	227.01
967.08	226.99
967.37	227.02
967.67	226.99
967.96	226.99
968.26	226.99
968.55	227.01
968.85	227.00
969.14	226.99
969.43	226.96
969.73	226.96
970.02	226.91
970.32	226.87
970.61	226.87
970.91	226.87
971.20	226.87
971.49	226.88
971.79	226.87
972.08	226.81
972.38	226.79
972.67	226.77
972.96	226.78
973.26	226.75
973.55	226.79
973.85	226.80
974.14	226.81
974.43	226.81
974.73	226.78
975.02	226.80
975.31	226.82
975.61	226.83
975.90	226.80
976.19	226.86
976.49	226.87
976.78	226.85
977.07	226.81
977.37	226.79
977.66	226.80
977.95	226.79
978.24	226.77
978.54	226.80
978.83	226.80
979.12	226.80
979.42	226.83
979.71	226.76
980.00	226.75
980.29	226.72
980.59	226.70
980.88	226.75
981.17	226.76
981.46	226.75
981.76	226.75
982.05	226.80
982.34	226.78
982.63	226.80
982.93	226.83
983.22	226.89
983.51	226.90
983.80	226.89
984.09	226.90
984.39	226.89
984.68	226.87
984.97	226.86
985.26	226.85
985.55	226.85
985.85	226.86
986.14	226.89
986.43	226.94
986.72	226.96
987.01	226.91
987.30	226.90
987.59	226.89
987.89	226.91
988.18	226.89
988.47	226.90
988.76	226.89
989.05	226.90
989.34	226.88
989.63	226.92
989.92	226.92
990.22	226.95
990.51	226.97
990.80	226.98
991.09	227.02
991.38	227.05
991.67	227.04
991.96	227.03
992.25	227.02
992.54	226.96
992.83	226.96
993.12	226.98
993.41	226.99
993.70	227.04
993.99	227.05
994.28	227.07
994.58	227.07
994.87	227.06
995.16	227.08
995.45	227.07
995.74	227.03
996.03	227.08
996.32	227.08
996.61	227.06
996.90	227.07
997.19	227.07
997.48	227.06
997.77	227.07
998.06	227.08
998.34	227.07
998.63	227.12
998.92	227.12
999.21	227.11
999.50	227.10
999.79	227.08
1000.08	227.07
1000.37	227.07
1000.66	227.06
1000.95	227.08
1001.24	227.06
1001.53	227.05
1001.82	227.04
1002.11	227.00
1002.40	226.99
1002.68	227.04
1002.97	227.08
1003.26	227.06
1003.55	227.05
1003.84	227.04
1004.13	227.08
1004.42	227.07
1004.71	227.06
1004.99	227.03
1005.28	227.06
1005.57	227.07
1005.86	227.06
1006.15	227.06
1006.44	227.06
1006.72	227.04
1007.01	227.00
1007.30	227.00
1007.59	227.02
1007.88	227.02
1008.17	227.01
1008.45	227.00
1008.74	226.95
1009.03	226.92
1009.32	226.88
1009.60	226.90
1009.89	226.87
1010.18	226.80
1010.47	226.82
1010.76	226.81
1011.04	226.81
1011.33	226.82
1011.62	226.85
1011.91	226.87
1012.19	226.84
1012.48	226.83
1012.77	226.85
1013.05	226.91
1013.34	226.92
1013.63	226.89
1013.92	226.92
1014.20	226.90
1014.49	226.88
1014.78	226.87
1015.06	226.85
1015.35	226.87
1015.64	226.86
1015.92	226.88
1016.21	226.88
1016.50	226.85
1016.78	226.85
1017.07	226.88
1017.36	226.83
1017.64	226.76
1017.93	226.77
1018.22	226.79
1018.50	226.81
1018.79	226.82
1019.08	226.76
1019.36	226.77
1019.65	226.78
1019.93	226.78
1020.22	226.81
1020.51	226.86
1020.79	226.88
1021.08	227.08
1021.36	227.11
1021.65	227.37
1021.94	226.48
1022.22	227.21
1022.51	226.85
1022.79	227.00
1023.08	226.72
1023.36	228.00
1023.65	226.82
>>>>>End Processed Spectral Data<<<<<
