SpectraSuite Data File
++++++++++++++++++++++++++++++++++++
Date: Fri Feb 01 17:09:42 EST 2013
User: group
Dark Spectrum Present: No
Reference Spectrum Present: No
Number of Sampled Component Spectra: 1
Spectrometers: USB2E7196
Integration Time (usec): 35000 (USB2E7196)
Spectra Averaged: 100 (USB2E7196)
Boxcar Smoothing: 10 (USB2E7196)
Correct for Electrical Dark: No (USB2E7196)
Strobe/Lamp Enabled: No (USB2E7196)
Correct for Detector Non-linearity: No (USB2E7196)
Correct for Stray Light: No (USB2E7196)
Number of Pixels in Processed Spectrum: 2048
>>>>>Begin Processed Spectral Data<<<<<
339.09	0.00
339.48	213.17
339.86	214.33
340.24	216.22
340.63	217.65
341.01	220.45
341.39	220.39
341.78	221.52
342.16	222.91
342.54	223.41
342.93	211.73
343.31	222.44
343.69	222.97
344.07	223.48
344.46	223.89
344.84	224.28
345.22	224.51
345.60	224.72
345.99	224.92
346.37	225.08
346.75	225.16
347.13	225.23
347.52	225.26
347.90	225.32
348.28	225.33
348.66	225.36
349.05	225.42
349.43	225.47
349.81	225.52
350.19	225.58
350.57	225.61
350.96	225.70
351.34	225.79
351.72	225.92
352.10	226.00
352.48	226.04
352.87	226.07
353.25	226.12
353.63	226.25
354.01	226.30
354.39	226.33
354.77	226.42
355.15	226.52
355.54	226.59
355.92	226.62
356.30	226.70
356.68	226.82
357.06	226.87
357.44	226.91
357.82	226.94
358.20	226.99
358.58	227.07
358.97	227.10
359.35	227.16
359.73	227.19
360.11	227.23
360.49	227.32
360.87	227.37
361.25	227.44
361.63	227.47
362.01	227.52
362.39	227.55
362.77	227.57
363.15	227.58
363.53	227.61
363.91	227.61
364.29	227.63
364.67	227.57
365.05	227.55
365.43	227.58
365.81	227.60
366.19	227.68
366.57	227.72
366.95	227.71
367.33	227.67
367.71	227.67
368.09	227.70
368.47	227.68
368.85	227.66
369.23	227.67
369.61	227.62
369.99	227.62
370.37	227.62
370.75	227.66
371.13	227.63
371.51	227.60
371.89	227.58
372.27	227.58
372.65	227.54
373.03	227.53
373.41	227.48
373.78	227.44
374.16	227.33
374.54	227.25
374.92	227.21
375.30	227.18
375.68	227.12
376.06	227.07
376.44	227.03
376.82	226.98
377.19	226.93
377.57	226.85
377.95	226.77
378.33	226.67
378.71	226.55
379.09	226.51
379.47	226.49
379.84	226.43
380.22	226.34
380.60	226.29
380.98	226.25
381.36	226.20
381.73	226.13
382.11	226.10
382.49	226.03
382.87	225.98
383.25	225.93
383.62	225.99
384.00	225.90
384.38	225.84
384.76	225.83
385.13	225.79
385.51	225.78
385.89	225.73
386.27	225.73
386.64	225.70
387.02	225.66
387.40	225.60
387.78	225.59
388.15	225.56
388.53	225.53
388.91	225.46
389.29	225.45
389.66	225.43
390.04	225.36
390.42	225.37
390.79	225.33
391.17	225.31
391.55	225.19
391.92	225.20
392.30	225.20
392.68	225.17
393.05	225.17
393.43	225.17
393.81	225.17
394.18	225.15
394.56	225.15
394.94	225.21
395.31	225.19
395.69	225.22
396.06	225.26
396.44	225.25
396.82	225.27
397.19	225.34
397.57	225.35
397.95	225.41
398.32	225.41
398.70	225.45
399.07	225.51
399.45	225.55
399.82	225.60
400.20	225.67
400.58	225.72
400.95	225.74
401.33	225.84
401.70	225.96
402.08	226.01
402.45	226.07
402.83	226.13
403.20	226.22
403.58	226.28
403.95	226.39
404.33	226.53
404.71	226.66
405.08	226.79
405.46	226.90
405.83	227.03
406.21	227.17
406.58	227.32
406.96	227.46
407.33	227.61
407.70	227.76
408.08	228.00
408.45	228.17
408.83	228.40
409.20	228.55
409.58	228.69
409.95	228.95
410.33	229.21
410.70	229.45
411.08	229.74
411.45	230.08
411.82	230.35
412.20	230.68
412.57	231.08
412.95	231.34
413.32	231.72
413.69	232.14
414.07	232.55
414.44	233.00
414.82	233.49
415.19	234.05
415.56	234.56
415.94	235.09
416.31	235.75
416.68	236.33
417.06	237.10
417.43	237.81
417.81	238.60
418.18	239.38
418.55	240.17
418.93	241.04
419.30	241.90
419.67	242.82
420.04	243.79
420.42	244.77
420.79	246.00
421.16	247.19
421.54	248.36
421.91	249.58
422.28	250.80
422.66	252.08
423.03	253.38
423.40	254.75
423.77	256.14
424.15	257.57
424.52	259.09
424.89	260.68
425.26	262.25
425.64	263.72
426.01	265.32
426.38	267.05
426.75	268.72
427.13	270.45
427.50	272.32
427.87	274.17
428.24	276.01
428.61	277.76
428.99	279.70
429.36	281.82
429.73	283.86
430.10	285.88
430.47	287.96
430.85	290.08
431.22	292.28
431.59	294.66
431.96	296.88
432.33	299.33
432.70	301.68
433.08	304.44
433.45	307.06
433.82	309.67
434.19	312.51
434.56	315.32
434.93	317.99
435.30	320.55
435.68	323.43
436.05	326.25
436.42	329.04
436.79	331.55
437.16	334.23
437.53	337.09
437.90	339.93
438.27	342.70
438.64	345.50
439.01	348.13
439.38	350.35
439.75	352.48
440.13	354.98
440.50	357.31
440.87	359.17
441.24	361.07
441.61	363.22
441.98	364.71
442.35	366.51
442.72	368.37
443.09	370.17
443.46	371.20
443.83	371.85
444.20	372.37
444.57	373.19
444.94	373.45
445.31	373.77
445.68	374.12
446.05	374.17
446.42	373.78
446.79	373.39
447.16	372.99
447.53	372.70
447.90	371.56
448.27	370.45
448.64	368.88
449.01	367.74
449.37	365.75
449.74	363.82
450.11	361.59
450.48	359.13
450.85	356.62
451.22	354.48
451.59	352.43
451.96	350.48
452.33	347.94
452.70	345.61
453.07	342.79
453.43	339.91
453.80	337.16
454.17	334.52
454.54	331.96
454.91	329.19
455.28	326.55
455.65	324.07
456.02	321.63
456.38	319.48
456.75	316.82
457.12	314.59
457.49	312.40
457.86	310.22
458.23	308.33
458.59	306.26
458.96	304.16
459.33	302.30
459.70	300.41
460.07	298.87
460.43	297.15
460.80	295.58
461.17	294.15
461.54	292.64
461.91	291.16
462.27	289.75
462.64	288.53
463.01	287.17
463.38	285.86
463.74	284.48
464.11	283.29
464.48	282.31
464.85	281.22
465.21	280.32
465.58	279.39
465.95	278.28
466.32	277.41
466.68	276.56
467.05	275.66
467.42	274.77
467.78	273.83
468.15	272.95
468.52	272.27
468.88	271.44
469.25	270.68
469.62	270.10
469.98	269.42
470.35	268.80
470.72	268.20
471.08	267.56
471.45	266.99
471.82	266.51
472.18	265.93
472.55	265.52
472.92	265.06
473.28	264.62
473.65	264.23
474.02	263.79
474.38	263.40
474.75	263.12
475.11	262.81
475.48	262.59
475.85	262.41
476.21	262.21
476.58	262.03
476.94	261.89
477.31	261.75
477.67	261.62
478.04	261.53
478.41	261.49
478.77	261.57
479.14	261.57
479.50	261.62
479.87	261.69
480.23	261.77
480.60	261.84
480.96	261.95
481.33	262.19
481.69	262.38
482.06	262.62
482.42	262.81
482.79	263.06
483.15	263.39
483.52	263.76
483.88	264.13
484.25	264.53
484.61	264.95
484.98	265.43
485.34	265.99
485.71	266.57
486.07	267.21
486.44	267.78
486.80	268.50
487.17	269.19
487.53	270.01
487.90	270.86
488.26	271.80
488.62	272.86
488.99	273.87
489.35	274.93
489.72	276.05
490.08	277.27
490.44	278.57
490.81	279.94
491.17	281.31
491.54	282.79
491.90	284.32
492.26	285.99
492.63	287.72
492.99	289.54
493.36	291.43
493.72	293.45
494.08	295.54
494.45	297.76
494.81	300.12
495.17	302.55
495.54	305.12
495.90	307.79
496.26	310.55
496.63	313.47
496.99	316.56
497.35	319.79
497.72	323.19
498.08	326.62
498.44	330.23
498.80	334.11
499.17	338.14
499.53	342.29
499.89	346.65
500.26	351.08
500.62	355.68
500.98	360.61
501.34	365.66
501.71	370.93
502.07	376.35
502.43	381.92
502.79	387.67
503.16	393.72
503.52	399.97
503.88	406.32
504.24	412.92
504.60	419.78
504.97	426.82
505.33	434.04
505.69	441.68
506.05	449.38
506.41	457.21
506.78	465.25
507.14	473.63
507.50	482.25
507.86	491.23
508.22	500.36
508.59	509.44
508.95	518.86
509.31	528.60
509.67	538.54
510.03	548.69
510.39	559.18
510.75	569.72
511.12	580.46
511.48	591.55
511.84	602.87
512.20	614.16
512.56	625.95
512.92	637.94
513.28	650.14
513.64	662.40
514.00	674.87
514.37	687.65
514.73	700.45
515.09	713.21
515.45	726.25
515.81	739.61
516.17	753.42
516.53	767.37
516.89	781.28
517.25	795.25
517.61	809.42
517.97	823.59
518.33	837.86
518.69	852.35
519.05	867.00
519.41	881.82
519.77	897.07
520.13	912.18
520.49	927.20
520.85	942.18
521.21	957.55
521.57	973.42
521.93	988.87
522.29	1004.92
522.65	1020.82
523.01	1036.62
523.37	1052.27
523.73	1068.05
524.09	1083.76
524.45	1099.70
524.81	1115.88
525.17	1132.15
525.53	1148.55
525.89	1165.02
526.25	1181.48
526.61	1197.48
526.97	1213.80
527.33	1230.01
527.68	1246.16
528.04	1262.31
528.40	1278.50
528.76	1295.16
529.12	1311.39
529.48	1327.83
529.84	1343.46
530.20	1359.72
530.56	1376.37
530.91	1393.42
531.27	1409.81
531.63	1425.79
531.99	1441.90
532.35	1457.56
532.71	1473.23
533.07	1489.28
533.42	1504.79
533.78	1520.48
534.14	1536.37
534.50	1551.38
534.86	1566.80
535.21	1581.73
535.57	1597.29
535.93	1612.51
536.29	1627.04
536.65	1641.58
537.00	1655.96
537.36	1671.03
537.72	1685.12
538.08	1699.14
538.44	1712.54
538.79	1726.06
539.15	1739.44
539.51	1752.85
539.87	1766.79
540.22	1780.00
540.58	1793.24
540.94	1806.14
541.29	1818.59
541.65	1831.02
542.01	1843.73
542.37	1855.74
542.72	1867.82
543.08	1879.34
543.44	1891.53
543.79	1902.43
544.15	1913.31
544.51	1924.70
544.87	1935.22
545.22	1945.90
545.58	1956.05
545.94	1965.50
546.29	1975.16
546.65	1984.90
547.01	1993.98
547.36	2002.58
547.72	2011.11
548.07	2019.03
548.43	2027.06
548.79	2034.94
549.14	2042.40
549.50	2049.85
549.86	2057.21
550.21	2064.32
550.57	2071.25
550.92	2077.68
551.28	2084.68
551.64	2091.64
551.99	2098.10
552.35	2104.23
552.70	2110.33
553.06	2116.15
553.41	2122.49
553.77	2128.35
554.13	2134.26
554.48	2140.46
554.84	2145.96
555.19	2151.09
555.55	2156.18
555.90	2160.72
556.26	2165.71
556.61	2170.42
556.97	2174.74
557.32	2179.08
557.68	2183.36
558.03	2187.83
558.39	2191.56
558.74	2196.11
559.10	2200.09
559.45	2203.83
559.81	2208.07
560.16	2211.92
560.52	2215.29
560.87	2218.80
561.23	2221.71
561.58	2224.92
561.94	2227.44
562.29	2229.68
562.64	2232.71
563.00	2235.22
563.35	2238.88
563.71	2242.07
564.06	2245.29
564.42	2248.24
564.77	2250.86
565.12	2253.38
565.48	2255.43
565.83	2257.56
566.19	2259.13
566.54	2260.09
566.89	2261.44
567.25	2262.49
567.60	2263.93
567.96	2265.86
568.31	2266.84
568.66	2268.16
569.02	2268.82
569.37	2269.40
569.72	2270.56
570.08	2270.91
570.43	2271.32
570.78	2270.92
571.14	2269.67
571.49	2268.55
571.84	2268.33
572.20	2267.49
572.55	2266.54
572.90	2265.01
573.26	2263.74
573.61	2262.10
573.96	2260.75
574.31	2257.85
574.67	2254.90
575.02	2251.60
575.37	2248.35
575.72	2245.04
576.08	2241.75
576.43	2238.61
576.78	2235.23
577.13	2232.16
577.49	2229.08
577.84	2225.79
578.19	2222.29
578.54	2218.96
578.90	2215.12
579.25	2209.84
579.60	2205.15
579.95	2200.51
580.30	2195.98
580.66	2191.13
581.01	2186.43
581.36	2181.65
581.71	2177.82
582.06	2173.79
582.42	2169.55
582.77	2164.62
583.12	2160.08
583.47	2155.75
583.82	2151.12
584.17	2146.06
584.53	2140.98
584.88	2135.62
585.23	2130.26
585.58	2124.92
585.93	2119.63
586.28	2114.96
586.63	2110.23
586.98	2105.34
587.34	2100.78
587.69	2096.10
588.04	2091.02
588.39	2085.66
588.74	2079.42
589.09	2073.44
589.44	2066.81
589.79	2060.82
590.14	2055.38
590.49	2049.03
590.84	2042.78
591.19	2036.92
591.54	2030.67
591.89	2023.60
592.25	2017.15
592.60	2010.06
592.95	2002.87
593.30	1995.78
593.65	1988.59
594.00	1981.81
594.35	1974.74
594.70	1966.75
595.05	1959.90
595.40	1952.85
595.75	1945.69
596.10	1939.73
596.45	1933.23
596.80	1927.32
597.15	1921.09
597.50	1914.23
597.85	1907.95
598.19	1901.43
598.54	1894.48
598.89	1887.96
599.24	1882.15
599.59	1875.64
599.94	1869.43
600.29	1863.17
600.64	1856.67
600.99	1849.35
601.34	1842.73
601.69	1835.75
602.04	1829.24
602.39	1821.80
602.74	1815.12
603.08	1808.43
603.43	1801.76
603.78	1794.63
604.13	1787.55
604.48	1780.40
604.83	1773.59
605.18	1766.84
605.53	1759.00
605.87	1751.04
606.22	1743.96
606.57	1736.16
606.92	1728.87
607.27	1722.01
607.62	1715.23
607.96	1708.24
608.31	1701.75
608.66	1694.09
609.01	1686.92
609.36	1679.42
609.70	1671.51
610.05	1663.53
610.40	1656.01
610.75	1647.81
611.10	1640.19
611.44	1631.71
611.79	1623.84
612.14	1615.33
612.49	1606.22
612.83	1597.91
613.18	1589.97
613.53	1581.95
613.88	1573.49
614.22	1565.26
614.57	1556.58
614.92	1548.65
615.27	1541.12
615.61	1532.73
615.96	1524.70
616.31	1517.05
616.65	1509.78
617.00	1502.34
617.35	1494.61
617.70	1486.31
618.04	1477.87
618.39	1469.62
618.74	1462.11
619.08	1453.73
619.43	1446.11
619.78	1439.26
620.12	1432.21
620.47	1424.70
620.82	1416.54
621.16	1408.97
621.51	1401.47
621.85	1393.87
622.20	1385.41
622.55	1376.90
622.89	1369.16
623.24	1361.60
623.59	1354.12
623.93	1346.64
624.28	1339.47
624.62	1332.13
624.97	1324.97
625.32	1318.18
625.66	1311.15
626.01	1304.10
626.35	1296.72
626.70	1288.97
627.04	1281.29
627.39	1273.49
627.73	1266.25
628.08	1259.45
628.43	1252.39
628.77	1245.03
629.12	1237.56
629.46	1230.45
629.81	1223.03
630.15	1215.85
630.50	1208.52
630.84	1200.49
631.19	1192.42
631.53	1184.75
631.88	1177.15
632.22	1169.60
632.57	1162.34
632.91	1154.90
633.26	1147.46
633.60	1140.09
633.95	1133.08
634.29	1126.05
634.64	1119.38
634.98	1112.00
635.32	1104.89
635.67	1098.25
636.01	1091.65
636.36	1084.94
636.70	1078.42
637.05	1071.91
637.39	1065.55
637.73	1059.03
638.08	1053.03
638.42	1047.13
638.77	1040.87
639.11	1034.38
639.45	1027.99
639.80	1021.38
640.14	1015.08
640.49	1008.63
640.83	1002.37
641.17	996.19
641.52	989.82
641.86	983.34
642.20	977.49
642.55	971.13
642.89	964.71
643.23	958.07
643.58	952.34
643.92	946.14
644.26	940.23
644.61	934.10
644.95	928.17
645.29	921.85
645.64	915.16
645.98	908.84
646.32	902.98
646.66	896.95
647.01	891.26
647.35	885.52
647.69	879.64
648.04	874.17
648.38	868.45
648.72	862.56
649.06	856.63
649.41	850.71
649.75	844.86
650.09	839.05
650.43	833.40
650.78	827.28
651.12	821.44
651.46	815.72
651.80	810.01
652.14	804.65
652.49	799.25
652.83	794.13
653.17	788.47
653.51	782.82
653.85	777.53
654.20	771.92
654.54	765.92
654.88	760.22
655.22	754.33
655.56	748.65
655.90	743.28
656.25	738.07
656.59	732.77
656.93	727.72
657.27	722.50
657.61	717.12
657.95	711.97
658.29	706.93
658.64	701.69
658.98	696.44
659.32	690.99
659.66	685.89
660.00	680.62
660.34	675.73
660.68	670.78
661.02	665.70
661.36	660.97
661.70	656.53
662.05	652.25
662.39	647.96
662.73	643.48
663.07	639.06
663.41	634.65
663.75	630.22
664.09	625.60
664.43	621.24
664.77	617.08
665.11	612.86
665.45	608.70
665.79	604.65
666.13	600.61
666.47	596.52
666.81	592.30
667.15	588.22
667.49	584.28
667.83	580.47
668.17	576.59
668.51	572.57
668.85	568.52
669.19	564.60
669.53	560.82
669.87	557.04
670.21	553.32
670.55	549.69
670.89	546.28
671.23	542.84
671.57	539.30
671.91	535.86
672.25	532.39
672.58	528.88
672.92	525.46
673.26	522.22
673.60	519.06
673.94	515.98
674.28	512.98
674.62	510.13
674.96	507.04
675.30	504.12
675.64	501.19
675.97	498.44
676.31	495.63
676.65	492.69
676.99	489.93
677.33	487.11
677.67	484.32
678.01	481.27
678.34	478.42
678.68	475.61
679.02	472.72
679.36	470.01
679.70	467.22
680.04	464.46
680.37	461.66
680.71	458.84
681.05	456.22
681.39	453.49
681.73	450.79
682.06	448.28
682.40	445.79
682.74	443.25
683.08	440.67
683.42	438.12
683.75	435.65
684.09	433.11
684.43	430.62
684.77	428.15
685.10	425.82
685.44	423.46
685.78	421.15
686.12	418.94
686.45	416.60
686.79	414.33
687.13	412.15
687.46	409.97
687.80	407.87
688.14	405.64
688.48	403.67
688.81	401.46
689.15	399.34
689.49	397.15
689.82	395.04
690.16	392.99
690.50	391.02
690.83	389.11
691.17	387.12
691.51	385.26
691.84	383.38
692.18	381.47
692.52	379.50
692.85	377.57
693.19	375.69
693.52	373.88
693.86	372.14
694.20	370.32
694.53	368.59
694.87	366.73
695.21	364.99
695.54	363.12
695.88	361.33
696.21	359.58
696.55	357.94
696.88	356.30
697.22	354.63
697.56	353.00
697.89	351.31
698.23	349.71
698.56	348.07
698.90	346.55
699.23	344.92
699.57	343.39
699.90	341.86
700.24	340.34
700.58	338.84
700.91	337.32
701.25	335.90
701.58	334.47
701.92	333.12
702.25	331.69
702.59	330.33
702.92	329.03
703.26	327.74
703.59	326.45
703.93	325.23
704.26	323.97
704.60	322.71
704.93	321.43
705.26	320.21
705.60	319.05
705.93	317.90
706.27	316.83
706.60	315.76
706.94	314.69
707.27	313.55
707.61	312.45
707.94	311.38
708.27	310.26
708.61	309.21
708.94	308.20
709.28	307.26
709.61	306.29
709.94	305.37
710.28	304.32
710.61	303.33
710.95	302.27
711.28	301.40
711.61	300.42
711.95	299.51
712.28	298.54
712.61	297.55
712.95	296.60
713.28	295.73
713.61	294.80
713.95	293.91
714.28	293.13
714.61	292.27
714.95	291.46
715.28	290.64
715.61	289.78
715.95	288.90
716.28	288.03
716.61	287.20
716.95	286.37
717.28	285.64
717.61	284.89
717.94	284.17
718.28	283.34
718.61	282.61
718.94	281.92
719.27	281.27
719.61	280.63
719.94	279.95
720.27	279.22
720.60	278.58
720.94	277.94
721.27	277.27
721.60	276.68
721.93	276.12
722.27	275.56
722.60	275.00
722.93	274.48
723.26	273.92
723.59	273.38
723.93	272.82
724.26	272.32
724.59	271.75
724.92	271.23
725.25	270.75
725.59	270.23
725.92	269.71
726.25	269.19
726.58	268.68
726.91	268.13
727.24	267.69
727.57	267.20
727.91	266.71
728.24	266.24
728.57	265.73
728.90	265.26
729.23	264.74
729.56	264.31
729.89	263.80
730.22	263.29
730.55	262.83
730.89	262.36
731.22	261.89
731.55	261.49
731.88	261.06
732.21	260.61
732.54	260.17
732.87	259.74
733.20	259.34
733.53	258.94
733.86	258.59
734.19	258.18
734.52	257.84
734.85	257.53
735.18	257.13
735.51	256.81
735.84	256.41
736.17	256.09
736.50	255.62
736.83	255.44
737.16	255.16
737.49	254.83
737.82	254.50
738.15	254.17
738.48	253.82
738.81	253.47
739.14	253.19
739.47	252.86
739.80	252.56
740.13	252.24
740.46	251.96
740.79	251.64
741.12	251.34
741.45	250.99
741.78	250.63
742.11	250.35
742.44	250.01
742.77	249.76
743.10	249.47
743.43	249.20
743.75	248.79
744.08	248.62
744.41	248.35
744.74	248.08
745.07	247.80
745.40	247.55
745.73	247.34
746.06	247.08
746.39	246.85
746.71	246.56
747.04	246.31
747.37	246.01
747.70	245.79
748.03	245.52
748.36	245.29
748.68	245.07
749.01	244.82
749.34	244.61
749.67	244.33
750.00	244.05
750.33	243.97
750.65	243.74
750.98	243.37
751.31	243.17
751.64	242.96
751.97	242.78
752.29	242.55
752.62	242.28
752.95	242.03
753.28	241.79
753.60	241.60
753.93	241.43
754.26	241.25
754.59	241.03
754.91	240.84
755.24	240.60
755.57	240.40
755.90	240.20
756.22	239.97
756.55	239.79
756.88	239.64
757.20	239.36
757.53	239.19
757.86	239.03
758.19	238.86
758.51	238.67
758.84	238.44
759.17	238.26
759.49	238.12
759.82	238.02
760.15	237.89
760.47	237.73
760.80	237.54
761.13	237.41
761.45	237.25
761.78	237.12
762.11	237.00
762.43	236.87
762.76	236.72
763.08	236.63
763.41	236.49
763.74	236.31
764.06	236.17
764.39	236.00
764.71	235.86
765.04	235.71
765.37	235.58
765.69	235.49
766.02	235.38
766.34	235.27
766.67	235.07
767.00	234.97
767.32	234.93
767.65	234.88
767.97	234.75
768.30	234.65
768.62	234.55
768.95	234.47
769.27	234.34
769.60	234.28
769.92	234.14
770.25	234.03
770.57	233.96
770.90	233.87
771.22	233.77
771.55	233.69
771.87	233.61
772.20	233.55
772.52	233.53
772.85	233.55
773.17	233.44
773.50	233.34
773.82	233.24
774.15	233.10
774.47	232.96
774.80	232.89
775.12	232.75
775.45	232.66
775.77	232.57
776.09	232.52
776.42	232.42
776.74	232.40
777.07	232.34
777.39	232.29
777.72	232.23
778.04	232.18
778.36	232.10
778.69	232.04
779.01	231.96
779.33	231.81
779.66	231.67
779.98	231.59
780.31	231.55
780.63	231.53
780.95	231.46
781.28	231.40
781.60	231.30
781.92	231.26
782.25	231.20
782.57	231.14
782.89	231.04
783.22	230.97
783.54	230.87
783.86	230.80
784.19	230.75
784.51	230.70
784.83	230.62
785.16	230.55
785.48	230.49
785.80	230.45
786.12	230.43
786.45	230.34
786.77	230.30
787.09	230.25
787.42	230.16
787.74	230.12
788.06	230.05
788.38	230.01
788.71	230.00
789.03	229.99
789.35	229.97
789.67	229.96
789.99	229.95
790.32	229.89
790.64	229.88
790.96	229.89
791.28	229.80
791.61	229.81
791.93	229.79
792.25	229.75
792.57	229.74
792.89	229.66
793.21	229.61
793.54	229.59
793.86	229.56
794.18	229.52
794.50	229.44
794.82	229.39
795.14	229.37
795.47	229.31
795.79	229.25
796.11	229.16
796.43	229.11
796.75	229.07
797.07	229.03
797.39	228.96
797.71	228.89
798.04	228.86
798.36	228.81
798.68	228.75
799.00	228.69
799.32	228.61
799.64	228.62
799.96	228.60
800.28	228.57
800.60	228.53
800.92	228.50
801.24	228.50
801.56	228.53
801.89	228.50
802.21	228.48
802.53	228.44
802.85	228.43
803.17	228.45
803.49	228.39
803.81	228.38
804.13	228.33
804.45	228.24
804.77	228.24
805.09	228.19
805.41	228.19
805.73	228.16
806.05	228.11
806.37	228.07
806.69	228.04
807.01	227.99
807.33	227.96
807.65	227.91
807.97	227.94
808.28	227.89
808.60	227.88
808.92	227.85
809.24	227.86
809.56	227.84
809.88	227.77
810.20	227.80
810.52	227.80
810.84	227.78
811.16	227.77
811.48	227.74
811.80	227.77
812.12	227.75
812.43	227.76
812.75	227.75
813.07	227.71
813.39	227.68
813.71	227.66
814.03	227.63
814.35	227.63
814.67	227.56
814.98	227.52
815.30	227.50
815.62	227.43
815.94	227.35
816.26	227.37
816.58	227.34
816.89	227.29
817.21	227.24
817.53	227.22
817.85	227.19
818.17	227.17
818.48	227.09
818.80	227.07
819.12	227.06
819.44	227.04
819.76	226.99
820.07	226.99
820.39	226.96
820.71	226.95
821.03	226.92
821.34	226.88
821.66	226.89
821.98	226.87
822.30	226.87
822.61	226.92
822.93	226.85
823.25	226.84
823.57	226.83
823.88	226.83
824.20	226.81
824.52	226.83
824.83	226.82
825.15	226.85
825.47	226.83
825.79	226.83
826.10	226.79
826.42	226.80
826.74	226.80
827.05	226.77
827.37	226.75
827.69	226.72
828.00	226.73
828.32	226.68
828.64	226.66
828.95	226.69
829.27	226.68
829.58	226.64
829.90	226.63
830.22	226.62
830.53	226.61
830.85	226.60
831.17	226.54
831.48	226.54
831.80	226.51
832.11	226.50
832.43	226.47
832.75	226.49
833.06	226.50
833.38	226.45
833.69	226.49
834.01	226.48
834.32	226.49
834.64	226.47
834.96	226.45
835.27	226.46
835.59	226.46
835.90	226.42
836.22	226.41
836.53	226.42
836.85	226.39
837.16	226.45
837.48	226.42
837.79	226.45
838.11	226.42
838.42	226.40
838.74	226.39
839.05	226.37
839.37	226.29
839.68	226.26
840.00	226.22
840.31	226.24
840.63	226.19
840.94	226.17
841.26	226.16
841.57	226.16
841.88	226.14
842.20	226.09
842.51	226.04
842.83	226.06
843.14	226.08
843.46	226.08
843.77	226.01
844.08	226.02
844.40	225.98
844.71	225.97
845.03	225.95
845.34	225.94
845.65	225.90
845.97	225.93
846.28	225.95
846.60	225.97
846.91	225.96
847.22	226.00
847.54	226.00
847.85	226.00
848.16	226.00
848.48	225.99
848.79	226.05
849.10	226.06
849.42	226.03
849.73	225.99
850.04	225.96
850.36	225.95
850.67	225.97
850.98	225.99
851.30	225.99
851.61	225.98
851.92	226.00
852.23	226.06
852.55	226.09
852.86	226.07
853.17	226.09
853.49	226.05
853.80	226.07
854.11	226.11
854.42	226.14
854.74	226.12
855.05	226.17
855.36	226.10
855.67	226.12
855.99	226.15
856.30	226.23
856.61	226.24
856.92	226.23
857.23	226.20
857.55	226.17
857.86	226.18
858.17	226.19
858.48	226.17
858.79	226.13
859.11	226.11
859.42	226.09
859.73	226.07
860.04	226.09
860.35	226.06
860.66	226.02
860.98	225.99
861.29	225.98
861.60	225.94
861.91	225.94
862.22	225.90
862.53	225.86
862.84	225.78
863.16	225.81
863.47	225.81
863.78	225.81
864.09	225.84
864.40	225.83
864.71	225.85
865.02	225.87
865.33	225.85
865.64	225.81
865.95	225.82
866.27	225.88
866.58	225.82
866.89	225.83
867.20	225.80
867.51	225.76
867.82	225.78
868.13	225.81
868.44	225.79
868.75	225.80
869.06	225.84
869.37	225.81
869.68	225.77
869.99	225.78
870.30	225.78
870.61	225.76
870.92	225.76
871.23	225.72
871.54	225.71
871.85	225.73
872.16	225.74
872.47	225.73
872.78	225.66
873.09	225.71
873.40	225.69
873.71	225.72
874.02	225.74
874.33	225.72
874.64	225.70
874.95	225.74
875.26	225.73
875.56	225.70
875.87	225.70
876.18	225.68
876.49	225.72
876.80	225.70
877.11	225.69
877.42	225.67
877.73	225.68
878.04	225.63
878.35	225.63
878.66	225.62
878.96	225.61
879.27	225.57
879.58	225.52
879.89	225.49
880.20	225.47
880.51	225.44
880.82	225.46
881.12	225.44
881.43	225.40
881.74	225.37
882.05	225.36
882.36	225.36
882.67	225.37
882.97	225.26
883.28	225.23
883.59	225.20
883.90	225.20
884.21	225.22
884.51	225.23
884.82	225.24
885.13	225.26
885.44	225.27
885.74	225.26
886.05	225.28
886.36	225.31
886.67	225.29
886.98	225.35
887.28	225.32
887.59	225.33
887.90	225.32
888.20	225.33
888.51	225.33
888.82	225.33
889.13	225.34
889.43	225.46
889.74	225.50
890.05	225.48
890.35	225.48
890.66	225.46
890.97	225.46
891.28	225.44
891.58	225.44
891.89	225.43
892.20	225.48
892.50	225.46
892.81	225.42
893.12	225.41
893.42	225.37
893.73	225.39
894.04	225.37
894.34	225.38
894.65	225.34
894.95	225.33
895.26	225.30
895.57	225.35
895.87	225.28
896.18	225.29
896.48	225.30
896.79	225.28
897.10	225.27
897.40	225.27
897.71	225.26
898.01	225.23
898.32	225.25
898.63	225.20
898.93	225.23
899.24	225.23
899.54	225.24
899.85	225.24
900.15	225.24
900.46	225.24
900.76	225.25
901.07	225.27
901.38	225.30
901.68	225.30
901.99	225.25
902.29	225.22
902.60	225.23
902.90	225.25
903.21	225.30
903.51	225.27
903.82	225.30
904.12	225.35
904.43	225.39
904.73	225.40
905.03	225.48
905.34	225.58
905.64	225.58
905.95	225.59
906.25	225.60
906.56	225.59
906.86	225.62
907.17	225.63
907.47	225.63
907.77	225.60
908.08	225.62
908.38	225.62
908.69	225.63
908.99	225.65
909.30	225.63
909.60	225.62
909.90	225.64
910.21	225.62
910.51	225.55
910.81	225.55
911.12	225.53
911.42	225.52
911.73	225.42
912.03	225.42
912.33	225.43
912.64	225.44
912.94	225.42
913.24	225.38
913.55	225.34
913.85	225.37
914.15	225.39
914.46	225.40
914.76	225.38
915.06	225.37
915.37	225.33
915.67	225.35
915.97	225.32
916.27	225.32
916.58	225.32
916.88	225.34
917.18	225.31
917.49	225.39
917.79	225.37
918.09	225.36
918.39	225.41
918.70	225.40
919.00	225.41
919.30	225.45
919.60	225.45
919.91	225.47
920.21	225.45
920.51	225.41
920.81	225.41
921.12	225.42
921.42	225.45
921.72	225.43
922.02	225.45
922.32	225.50
922.63	225.49
922.93	225.53
923.23	225.55
923.53	225.55
923.83	225.49
924.13	225.47
924.44	225.47
924.74	225.47
925.04	225.51
925.34	225.48
925.64	225.47
925.94	225.47
926.24	225.50
926.55	225.52
926.85	225.55
927.15	225.55
927.45	225.57
927.75	225.56
928.05	225.62
928.35	225.58
928.65	225.57
928.95	225.55
929.26	225.52
929.56	225.54
929.86	225.55
930.16	225.52
930.46	225.53
930.76	225.52
931.06	225.50
931.36	225.45
931.66	225.50
931.96	225.48
932.26	225.51
932.56	225.46
932.86	225.44
933.16	225.45
933.46	225.44
933.76	225.42
934.06	225.44
934.36	225.44
934.66	225.45
934.96	225.44
935.26	225.46
935.56	225.46
935.86	225.44
936.16	225.45
936.46	225.47
936.76	225.47
937.06	225.43
937.36	225.42
937.66	225.42
937.96	225.40
938.26	225.36
938.56	225.34
938.86	225.38
939.16	225.39
939.46	225.41
939.76	225.43
940.06	225.42
940.35	225.41
940.65	225.38
940.95	225.38
941.25	225.36
941.55	225.36
941.85	225.36
942.15	225.39
942.45	225.39
942.75	225.39
943.04	225.39
943.34	225.45
943.64	225.42
943.94	225.42
944.24	225.41
944.54	225.43
944.84	225.42
945.13	225.40
945.43	225.36
945.73	225.35
946.03	225.33
946.33	225.33
946.62	225.29
946.92	225.29
947.22	225.28
947.52	225.24
947.82	225.26
948.11	225.26
948.41	225.19
948.71	225.17
949.01	225.17
949.31	225.17
949.60	225.17
949.90	225.22
950.20	225.22
950.50	225.25
950.79	225.25
951.09	225.24
951.39	225.24
951.69	225.24
951.98	225.26
952.28	225.27
952.58	225.25
952.87	225.26
953.17	225.28
953.47	225.32
953.76	225.36
954.06	225.36
954.36	225.33
954.66	225.36
954.95	225.37
955.25	225.36
955.55	225.37
955.84	225.34
956.14	225.32
956.44	225.33
956.73	225.33
957.03	225.34
957.32	225.38
957.62	225.37
957.92	225.40
958.21	225.38
958.51	225.47
958.81	225.48
959.10	225.48
959.40	225.48
959.69	225.46
959.99	225.47
960.29	225.47
960.58	225.52
960.88	225.56
961.17	225.55
961.47	225.56
961.76	225.58
962.06	225.60
962.36	225.60
962.65	225.58
962.95	225.60
963.24	225.61
963.54	225.59
963.83	225.59
964.13	225.60
964.42	225.57
964.72	225.49
965.01	225.51
965.31	225.49
965.60	225.45
965.90	225.49
966.19	225.44
966.49	225.43
966.78	225.39
967.08	225.35
967.37	225.35
967.67	225.32
967.96	225.31
968.26	225.31
968.55	225.34
968.85	225.34
969.14	225.32
969.43	225.26
969.73	225.27
970.02	225.27
970.32	225.25
970.61	225.24
970.91	225.22
971.20	225.20
971.49	225.23
971.79	225.27
972.08	225.24
972.38	225.28
972.67	225.29
972.96	225.32
973.26	225.33
973.55	225.34
973.85	225.34
974.14	225.33
974.43	225.31
974.73	225.27
975.02	225.20
975.31	225.19
975.61	225.22
975.90	225.23
976.19	225.22
976.49	225.21
976.78	225.25
977.07	225.23
977.37	225.25
977.66	225.23
977.95	225.21
978.24	225.14
978.54	225.15
978.83	225.12
979.12	225.08
979.42	225.06
979.71	225.04
980.00	225.03
980.29	225.03
980.59	224.99
980.88	225.02
981.17	225.06
981.46	225.02
981.76	225.01
982.05	225.02
982.34	225.03
982.63	225.01
982.93	224.99
983.22	224.98
983.51	224.97
983.80	224.97
984.09	224.96
984.39	224.98
984.68	224.94
984.97	224.95
985.26	224.94
985.55	224.95
985.85	224.93
986.14	224.94
986.43	224.95
986.72	224.96
987.01	224.92
987.30	224.90
987.59	224.87
987.89	224.86
988.18	224.80
988.47	224.78
988.76	224.79
989.05	224.79
989.34	224.78
989.63	224.80
989.92	224.76
990.22	224.79
990.51	224.81
990.80	224.80
991.09	224.82
991.38	224.86
991.67	224.86
991.96	224.85
992.25	224.83
992.54	224.83
992.83	224.85
993.12	224.89
993.41	224.93
993.70	225.01
993.99	225.04
994.28	225.07
994.58	225.08
994.87	225.10
995.16	225.11
995.45	225.12
995.74	225.12
996.03	225.17
996.32	225.16
996.61	225.18
996.90	225.19
997.19	225.16
997.48	225.16
997.77	225.18
998.06	225.20
998.34	225.22
998.63	225.21
998.92	225.21
999.21	225.21
999.50	225.22
999.79	225.24
1000.08	225.23
1000.37	225.23
1000.66	225.24
1000.95	225.27
1001.24	225.28
1001.53	225.31
1001.82	225.30
1002.11	225.29
1002.40	225.31
1002.68	225.30
1002.97	225.39
1003.26	225.39
1003.55	225.38
1003.84	225.38
1004.13	225.41
1004.42	225.42
1004.71	225.45
1004.99	225.43
1005.28	225.44
1005.57	225.45
1005.86	225.42
1006.15	225.42
1006.44	225.41
1006.72	225.43
1007.01	225.39
1007.30	225.39
1007.59	225.36
1007.88	225.37
1008.17	225.36
1008.45	225.34
1008.74	225.32
1009.03	225.29
1009.32	225.32
1009.60	225.30
1009.89	225.30
1010.18	225.26
1010.47	225.26
1010.76	225.24
1011.04	225.23
1011.33	225.24
1011.62	225.24
1011.91	225.27
1012.19	225.27
1012.48	225.30
1012.77	225.28
1013.05	225.33
1013.34	225.34
1013.63	225.34
1013.92	225.32
1014.20	225.28
1014.49	225.28
1014.78	225.29
1015.06	225.22
1015.35	225.20
1015.64	225.20
1015.92	225.20
1016.21	225.19
1016.50	225.16
1016.78	225.18
1017.07	225.17
1017.36	225.14
1017.64	225.11
1017.93	225.12
1018.22	225.10
1018.50	225.09
1018.79	225.09
1019.08	225.00
1019.36	225.00
1019.65	224.98
1019.93	225.02
1020.22	225.03
1020.51	225.08
1020.79	225.06
1021.08	224.99
1021.36	225.03
1021.65	225.27
1021.94	224.32
1022.22	225.27
1022.51	224.82
1022.79	225.58
1023.08	224.47
1023.36	225.94
1023.65	224.75
>>>>>End Processed Spectral Data<<<<<
