SpectraSuite Data File
++++++++++++++++++++++++++++++++++++
Date: Fri Feb 01 15:30:58 EST 2013
User: group
Dark Spectrum Present: No
Reference Spectrum Present: No
Number of Sampled Component Spectra: 1
Spectrometers: USB2E7196
Integration Time (usec): 35000 (USB2E7196)
Spectra Averaged: 100 (USB2E7196)
Boxcar Smoothing: 10 (USB2E7196)
Correct for Electrical Dark: No (USB2E7196)
Strobe/Lamp Enabled: No (USB2E7196)
Correct for Detector Non-linearity: No (USB2E7196)
Correct for Stray Light: No (USB2E7196)
Number of Pixels in Processed Spectrum: 2048
>>>>>Begin Processed Spectral Data<<<<<
339.09	0.00
339.48	215.45
339.86	216.85
340.24	218.21
340.63	219.40
341.01	221.93
341.39	221.73
341.78	223.48
342.16	224.90
342.54	225.10
342.93	213.58
343.31	224.37
343.69	224.90
344.07	225.37
344.46	225.77
344.84	226.15
345.22	226.42
345.60	226.68
345.99	226.89
346.37	226.98
346.75	227.09
347.13	227.18
347.52	227.21
347.90	227.24
348.28	227.25
348.66	227.27
349.05	227.28
349.43	227.29
349.81	227.35
350.19	227.37
350.57	227.44
350.96	227.48
351.34	227.58
351.72	227.64
352.10	227.70
352.48	227.80
352.87	227.83
353.25	227.89
353.63	227.94
354.01	227.97
354.39	228.06
354.77	228.09
355.15	228.18
355.54	228.28
355.92	228.32
356.30	228.41
356.68	228.55
357.06	228.60
357.44	228.66
357.82	228.73
358.20	228.77
358.58	228.77
358.97	228.82
359.35	228.86
359.73	228.95
360.11	229.02
360.49	229.05
360.87	229.08
361.25	229.14
361.63	229.24
362.01	229.28
362.39	229.32
362.77	229.40
363.15	229.39
363.53	229.42
363.91	229.44
364.29	229.46
364.67	229.38
365.05	229.38
365.43	229.39
365.81	229.43
366.19	229.53
366.57	229.58
366.95	229.56
367.33	229.51
367.71	229.47
368.09	229.46
368.47	229.45
368.85	229.45
369.23	229.38
369.61	229.30
369.99	229.31
370.37	229.25
370.75	229.27
371.13	229.21
371.51	229.12
371.89	229.11
372.27	229.06
372.65	228.99
373.03	228.94
373.41	228.87
373.78	228.77
374.16	228.64
374.54	228.56
374.92	228.51
375.30	228.47
375.68	228.41
376.06	228.33
376.44	228.24
376.82	228.19
377.19	228.15
377.57	228.09
377.95	227.95
378.33	227.88
378.71	227.74
379.09	227.70
379.47	227.66
379.84	227.58
380.22	227.51
380.60	227.42
380.98	227.38
381.36	227.33
381.73	227.24
382.11	227.20
382.49	227.13
382.87	227.05
383.25	227.00
383.62	227.05
384.00	226.98
384.38	226.94
384.76	226.88
385.13	226.86
385.51	226.80
385.89	226.76
386.27	226.70
386.64	226.66
387.02	226.61
387.40	226.59
387.78	226.56
388.15	226.53
388.53	226.52
388.91	226.47
389.29	226.45
389.66	226.47
390.04	226.44
390.42	226.44
390.79	226.40
391.17	226.40
391.55	226.28
391.92	226.30
392.30	226.30
392.68	226.30
393.05	226.31
393.43	226.31
393.81	226.34
394.18	226.37
394.56	226.36
394.94	226.39
395.31	226.40
395.69	226.42
396.06	226.49
396.44	226.52
396.82	226.54
397.19	226.60
397.57	226.63
397.95	226.69
398.32	226.75
398.70	226.83
399.07	226.88
399.45	226.94
399.82	226.98
400.20	227.05
400.58	227.13
400.95	227.20
401.33	227.29
401.70	227.41
402.08	227.55
402.45	227.65
402.83	227.81
403.20	227.91
403.58	228.04
403.95	228.12
404.33	228.26
404.71	228.37
405.08	228.59
405.46	228.71
405.83	228.85
406.21	228.98
406.58	229.19
406.96	229.37
407.33	229.56
407.70	229.76
408.08	230.05
408.45	230.27
408.83	230.48
409.20	230.72
409.58	230.92
409.95	231.15
410.33	231.46
410.70	231.70
411.08	231.97
411.45	232.25
411.82	232.58
412.20	232.94
412.57	233.37
412.95	233.64
413.32	234.01
413.69	234.40
414.07	234.83
414.44	235.27
414.82	235.75
415.19	236.32
415.56	236.88
415.94	237.40
416.31	238.02
416.68	238.63
417.06	239.36
417.43	240.04
417.81	240.80
418.18	241.56
418.55	242.40
418.93	243.29
419.30	244.18
419.67	245.14
420.04	246.11
420.42	247.10
420.79	248.30
421.16	249.48
421.54	250.70
421.91	251.91
422.28	253.19
422.66	254.51
423.03	255.80
423.40	257.12
423.77	258.58
424.15	260.00
424.52	261.49
424.89	263.08
425.26	264.66
425.64	266.10
426.01	267.70
426.38	269.34
426.75	271.00
427.13	272.73
427.50	274.54
427.87	276.43
428.24	278.29
428.61	280.01
428.99	281.94
429.36	284.05
429.73	286.15
430.10	288.13
430.47	290.17
430.85	292.30
431.22	294.59
431.59	296.93
431.96	299.21
432.33	301.71
432.70	304.09
433.08	306.89
433.45	309.55
433.82	312.18
434.19	315.11
434.56	317.98
434.93	320.66
435.30	323.28
435.68	326.16
436.05	329.02
436.42	331.85
436.79	334.43
437.16	337.16
437.53	340.01
437.90	342.87
438.27	345.63
438.64	348.46
439.01	351.05
439.38	353.26
439.75	355.44
440.13	357.94
440.50	360.30
440.87	362.17
441.24	364.14
441.61	366.32
441.98	367.75
442.35	369.51
442.72	371.34
443.09	373.17
443.46	374.16
443.83	374.71
444.20	375.25
444.57	376.05
444.94	376.31
445.31	376.62
445.68	376.96
446.05	377.08
446.42	376.68
446.79	376.24
447.16	375.83
447.53	375.48
447.90	374.29
448.27	373.12
448.64	371.50
449.01	370.33
449.37	368.30
449.74	366.41
450.11	364.17
450.48	361.74
450.85	359.18
451.22	357.06
451.59	355.04
451.96	353.07
452.33	350.48
452.70	348.12
453.07	345.28
453.43	342.38
453.80	339.56
454.17	336.91
454.54	334.36
454.91	331.62
455.28	328.96
455.65	326.49
456.02	324.05
456.38	321.89
456.75	319.22
457.12	316.98
457.49	314.74
457.86	312.54
458.23	310.66
458.59	308.62
458.96	306.50
459.33	304.65
459.70	302.76
460.07	301.23
460.43	299.51
460.80	297.89
461.17	296.46
461.54	294.97
461.91	293.50
462.27	292.08
462.64	290.82
463.01	289.46
463.38	288.14
463.74	286.75
464.11	285.59
464.48	284.57
464.85	283.48
465.21	282.62
465.58	281.70
465.95	280.58
466.32	279.64
466.68	278.73
467.05	277.79
467.42	276.90
467.78	276.00
468.15	275.14
468.52	274.45
468.88	273.55
469.25	272.78
469.62	272.13
469.98	271.43
470.35	270.82
470.72	270.19
471.08	269.52
471.45	269.00
471.82	268.46
472.18	267.87
472.55	267.38
472.92	266.87
473.28	266.44
473.65	266.01
474.02	265.61
474.38	265.28
474.75	264.96
475.11	264.62
475.48	264.34
475.85	264.08
476.21	263.85
476.58	263.69
476.94	263.55
477.31	263.38
477.67	263.22
478.04	263.07
478.41	263.02
478.77	263.07
479.14	262.99
479.50	262.98
479.87	263.04
480.23	263.17
480.60	263.24
480.96	263.34
481.33	263.55
481.69	263.73
482.06	263.91
482.42	264.12
482.79	264.36
483.15	264.68
483.52	265.08
483.88	265.46
484.25	265.84
484.61	266.27
484.98	266.75
485.34	267.32
485.71	267.90
486.07	268.52
486.44	269.07
486.80	269.79
487.17	270.51
487.53	271.39
487.90	272.24
488.26	273.16
488.62	274.12
488.99	275.06
489.35	276.11
489.72	277.20
490.08	278.40
490.44	279.68
490.81	280.96
491.17	282.32
491.54	283.76
491.90	285.31
492.26	286.90
492.63	288.64
492.99	290.41
493.36	292.35
493.72	294.39
494.08	296.51
494.45	298.73
494.81	301.10
495.17	303.46
495.54	305.99
495.90	308.69
496.26	311.49
496.63	314.48
496.99	317.58
497.35	320.83
497.72	324.22
498.08	327.70
498.44	331.40
498.80	335.30
499.17	339.34
499.53	343.55
499.89	347.99
500.26	352.43
500.62	357.08
500.98	362.02
501.34	367.14
501.71	372.44
502.07	377.89
502.43	383.55
502.79	389.39
503.16	395.48
503.52	401.77
503.88	408.15
504.24	414.83
504.60	421.76
504.97	428.90
505.33	436.22
505.69	444.01
506.05	451.82
506.41	459.72
506.78	467.90
507.14	476.32
507.50	485.03
507.86	494.11
508.22	503.32
508.59	512.52
508.95	522.10
509.31	531.89
509.67	542.04
510.03	552.29
510.39	562.84
510.75	573.64
511.12	584.61
511.48	595.95
511.84	607.38
512.20	618.93
512.56	630.93
512.92	643.13
513.28	655.43
513.64	667.92
514.00	680.65
514.37	693.65
514.73	706.69
515.09	719.80
515.45	733.07
515.81	746.79
516.17	760.76
516.53	774.86
516.89	789.07
517.25	803.30
517.61	817.80
517.97	832.24
518.33	846.72
518.69	861.51
519.05	876.53
519.41	891.67
519.77	907.19
520.13	922.67
520.49	938.12
520.85	953.59
521.21	969.38
521.57	985.66
521.93	1001.45
522.29	1017.92
522.65	1034.13
523.01	1050.41
523.37	1066.36
523.73	1082.62
524.09	1098.82
524.45	1115.22
524.81	1131.86
525.17	1148.75
525.53	1165.82
525.89	1182.75
526.25	1199.57
526.61	1215.99
526.97	1232.83
527.33	1249.41
527.68	1266.15
528.04	1282.61
528.40	1299.34
528.76	1316.39
529.12	1333.03
529.48	1349.86
529.84	1365.98
530.20	1382.78
530.56	1399.96
530.91	1417.46
531.27	1434.23
531.63	1450.76
531.99	1467.36
532.35	1483.39
532.71	1499.24
533.07	1515.39
533.42	1531.27
533.78	1547.37
534.14	1563.66
534.50	1579.10
534.86	1594.89
535.21	1609.99
535.57	1626.10
535.93	1641.57
536.29	1656.34
536.65	1671.49
537.00	1686.47
537.36	1701.74
537.72	1716.22
538.08	1730.57
538.44	1744.31
538.79	1758.35
539.15	1772.01
539.51	1785.91
539.87	1800.25
540.22	1814.05
540.58	1827.96
540.94	1841.41
541.29	1854.42
541.65	1867.16
542.01	1880.42
542.37	1893.00
542.72	1905.55
543.08	1917.34
543.44	1929.86
543.79	1941.27
544.15	1952.19
544.51	1963.74
544.87	1974.80
545.22	1985.67
545.58	1995.92
545.94	2005.82
546.29	2015.71
546.65	2025.57
547.01	2034.76
547.36	2043.59
547.72	2052.13
548.07	2060.08
548.43	2068.22
548.79	2076.34
549.14	2083.96
549.50	2091.26
549.86	2098.94
550.21	2106.28
550.57	2113.41
550.92	2119.85
551.28	2126.85
551.64	2133.99
551.99	2140.54
552.35	2146.71
552.70	2152.94
553.06	2158.96
553.41	2165.37
553.77	2171.44
554.13	2177.64
554.48	2183.80
554.84	2189.17
555.19	2194.55
555.55	2199.53
555.90	2203.99
556.26	2208.73
556.61	2213.46
556.97	2217.66
557.32	2221.70
557.68	2225.90
558.03	2230.14
558.39	2233.96
558.74	2238.57
559.10	2242.43
559.45	2245.95
559.81	2250.22
560.16	2253.94
560.52	2257.11
560.87	2260.50
561.23	2263.09
561.58	2266.03
561.94	2268.55
562.29	2271.06
562.64	2273.63
563.00	2276.34
563.35	2279.90
563.71	2282.90
564.06	2285.95
564.42	2288.83
564.77	2291.26
565.12	2293.48
565.48	2295.32
565.83	2297.22
566.19	2298.50
566.54	2299.46
566.89	2300.59
567.25	2301.14
567.60	2302.55
567.96	2304.29
568.31	2305.24
568.66	2306.26
569.02	2306.69
569.37	2306.97
569.72	2307.58
570.08	2307.69
570.43	2307.61
570.78	2306.92
571.14	2305.60
571.49	2304.36
571.84	2304.09
572.20	2302.86
572.55	2301.67
572.90	2300.06
573.26	2298.51
573.61	2296.72
573.96	2294.83
574.31	2291.78
574.67	2288.71
575.02	2284.98
575.37	2281.51
575.72	2277.54
576.08	2274.21
576.43	2270.99
576.78	2267.20
577.13	2264.05
577.49	2261.04
577.84	2257.60
578.19	2253.91
578.54	2250.00
578.90	2245.72
579.25	2240.13
579.60	2235.13
579.95	2230.15
580.30	2225.21
580.66	2219.99
581.01	2215.11
581.36	2210.35
581.71	2206.13
582.06	2201.71
582.42	2197.23
582.77	2191.94
583.12	2187.26
583.47	2182.36
583.82	2177.03
584.17	2171.82
584.53	2166.43
584.88	2160.65
585.23	2154.81
585.58	2149.22
585.93	2143.77
586.28	2138.96
586.63	2133.76
586.98	2128.68
587.34	2123.95
587.69	2119.02
588.04	2113.76
588.39	2107.91
588.74	2101.26
589.09	2095.08
589.44	2088.14
589.79	2082.06
590.14	2076.36
590.49	2069.62
590.84	2063.22
591.19	2057.37
591.54	2050.73
591.89	2043.08
592.25	2036.12
592.60	2028.86
592.95	2021.22
593.30	2013.87
593.65	2006.23
594.00	1999.19
594.35	1991.93
594.70	1983.69
595.05	1976.35
595.40	1969.09
595.75	1961.64
596.10	1955.13
596.45	1948.30
596.80	1942.09
597.15	1935.28
597.50	1928.06
597.85	1921.73
598.19	1915.16
598.54	1907.83
598.89	1901.24
599.24	1895.34
599.59	1888.59
599.94	1882.21
600.29	1875.92
600.64	1869.25
600.99	1861.68
601.34	1854.67
601.69	1847.60
602.04	1840.70
602.39	1833.22
602.74	1826.16
603.08	1819.32
603.43	1812.73
603.78	1805.54
604.13	1798.30
604.48	1791.03
604.83	1784.25
605.18	1777.16
605.53	1769.05
605.87	1760.99
606.22	1753.74
606.57	1745.79
606.92	1738.59
607.27	1731.50
607.62	1724.44
607.96	1717.14
608.31	1710.41
608.66	1702.82
609.01	1695.39
609.36	1687.75
609.70	1679.75
610.05	1671.70
610.40	1664.01
610.75	1655.70
611.10	1647.91
611.44	1639.57
611.79	1631.64
612.14	1623.02
612.49	1613.94
612.83	1605.52
613.18	1597.51
613.53	1589.48
613.88	1580.84
614.22	1572.46
614.57	1563.77
614.92	1555.70
615.27	1548.04
615.61	1539.81
615.96	1531.76
616.31	1524.05
616.65	1516.75
617.00	1509.26
617.35	1501.59
617.70	1493.15
618.04	1484.57
618.39	1476.35
618.74	1468.58
619.08	1460.28
619.43	1452.67
619.78	1445.72
620.12	1438.49
620.47	1430.92
620.82	1422.59
621.16	1415.24
621.51	1407.76
621.85	1400.15
622.20	1391.65
622.55	1383.37
622.89	1375.60
623.24	1368.05
623.59	1360.65
623.93	1353.03
624.28	1345.76
624.62	1338.17
624.97	1330.98
625.32	1324.27
625.66	1317.18
626.01	1310.11
626.35	1302.51
626.70	1294.71
627.04	1286.97
627.39	1279.27
627.73	1271.87
628.08	1264.94
628.43	1257.64
628.77	1250.14
629.12	1242.54
629.46	1235.39
629.81	1227.97
630.15	1220.58
630.50	1213.15
630.84	1205.01
631.19	1197.23
631.53	1189.78
631.88	1182.29
632.22	1174.74
632.57	1167.43
632.91	1159.95
633.26	1152.47
633.60	1145.16
633.95	1138.06
634.29	1131.06
634.64	1124.32
634.98	1116.94
635.32	1109.87
635.67	1103.32
636.01	1096.63
636.36	1089.87
636.70	1083.37
637.05	1076.82
637.39	1070.49
637.73	1063.98
638.08	1058.05
638.42	1052.02
638.77	1045.45
639.11	1038.75
639.45	1032.42
639.80	1025.73
640.14	1019.30
640.49	1012.77
640.83	1006.44
641.17	1000.09
641.52	993.76
641.86	987.40
642.20	981.57
642.55	975.21
642.89	968.70
643.23	962.17
643.58	956.41
643.92	950.23
644.26	944.16
644.61	938.14
644.95	932.08
645.29	925.45
645.64	918.66
645.98	912.43
646.32	906.74
646.66	900.77
647.01	894.97
647.35	889.26
647.69	883.50
648.04	878.01
648.38	872.27
648.72	866.21
649.06	860.12
649.41	854.24
649.75	848.20
650.09	842.21
650.43	836.48
650.78	830.34
651.12	824.35
651.46	818.61
651.80	812.81
652.14	807.44
652.49	802.06
652.83	796.90
653.17	791.17
653.51	785.36
653.85	779.83
654.20	774.19
654.54	768.21
654.88	762.43
655.22	756.51
655.56	750.82
655.90	745.35
656.25	740.04
656.59	734.68
656.93	729.66
657.27	724.50
657.61	719.06
657.95	713.92
658.29	708.81
658.64	703.62
658.98	698.31
659.32	692.85
659.66	687.71
660.00	682.34
660.34	677.39
660.68	672.49
661.02	667.52
661.36	662.82
661.70	658.23
662.05	653.86
662.39	649.52
662.73	645.10
663.07	640.74
663.41	636.31
663.75	631.82
664.09	627.29
664.43	622.99
664.77	618.79
665.11	614.52
665.45	610.41
665.79	606.24
666.13	602.10
666.47	597.95
666.81	593.71
667.15	589.64
667.49	585.75
667.83	582.00
668.17	578.02
668.51	574.00
668.85	570.01
669.19	566.19
669.53	562.34
669.87	558.46
670.21	554.81
670.55	551.16
670.89	547.76
671.23	544.31
671.57	540.72
671.91	537.30
672.25	533.83
672.58	530.30
672.92	526.92
673.26	523.83
673.60	520.73
673.94	517.68
674.28	514.77
674.62	511.76
674.96	508.60
675.30	505.69
675.64	502.71
675.97	499.94
676.31	497.06
676.65	494.15
676.99	491.42
677.33	488.56
677.67	485.73
678.01	482.67
678.34	479.69
678.68	476.83
679.02	473.97
679.36	471.25
679.70	468.55
680.04	465.79
680.37	462.88
680.71	460.10
681.05	457.46
681.39	454.75
681.73	452.24
682.06	449.73
682.40	447.19
682.74	444.67
683.08	442.14
683.42	439.55
683.75	437.08
684.09	434.50
684.43	432.00
684.77	429.63
685.10	427.32
685.44	425.03
685.78	422.76
686.12	420.54
686.45	418.25
686.79	415.98
687.13	413.81
687.46	411.65
687.80	409.47
688.14	407.33
688.48	405.30
688.81	403.01
689.15	400.91
689.49	398.79
689.82	396.73
690.16	394.61
690.50	392.66
690.83	390.70
691.17	388.81
691.51	386.91
691.84	385.05
692.18	383.09
692.52	381.13
692.85	379.21
693.19	377.31
693.52	375.48
693.86	373.62
694.20	371.86
694.53	370.09
694.87	368.28
695.21	366.45
695.54	364.62
695.88	362.88
696.21	361.14
696.55	359.40
696.88	357.69
697.22	356.05
697.56	354.42
697.89	352.76
698.23	351.13
698.56	349.50
698.90	347.84
699.23	346.22
699.57	344.68
699.90	343.14
700.24	341.61
700.58	340.13
700.91	338.66
701.25	337.20
701.58	335.79
701.92	334.44
702.25	333.05
702.59	331.70
702.92	330.40
703.26	329.11
703.59	327.86
703.93	326.72
704.26	325.53
704.60	324.24
704.93	323.01
705.26	321.74
705.60	320.58
705.93	319.49
706.27	318.45
706.60	317.38
706.94	316.30
707.27	315.16
707.61	314.07
707.94	313.06
708.27	311.94
708.61	310.86
708.94	309.83
709.28	308.89
709.61	307.92
709.94	306.97
710.28	305.95
710.61	304.99
710.95	303.92
711.28	302.95
711.61	302.01
711.95	301.10
712.28	300.16
712.61	299.16
712.95	298.24
713.28	297.34
713.61	296.46
713.95	295.59
714.28	294.78
714.61	293.89
714.95	293.01
715.28	292.16
715.61	291.30
715.95	290.46
716.28	289.57
716.61	288.71
716.95	287.89
717.28	287.18
717.61	286.40
717.94	285.65
718.28	284.87
718.61	284.17
718.94	283.45
719.27	282.82
719.61	282.17
719.94	281.45
720.27	280.75
720.60	280.06
720.94	279.40
721.27	278.80
721.60	278.26
721.93	277.68
722.27	277.14
722.60	276.56
722.93	275.98
723.26	275.49
723.59	274.94
723.93	274.42
724.26	273.86
724.59	273.30
724.92	272.75
725.25	272.26
725.59	271.72
725.92	271.21
726.25	270.71
726.58	270.21
726.91	269.74
727.24	269.28
727.57	268.83
727.91	268.36
728.24	267.89
728.57	267.38
728.90	266.92
729.23	266.43
729.56	266.02
729.89	265.57
730.22	265.05
730.55	264.60
730.89	264.10
731.22	263.64
731.55	263.20
731.88	262.81
732.21	262.39
732.54	261.94
732.87	261.49
733.20	261.08
733.53	260.68
733.86	260.29
734.19	259.86
734.52	259.50
734.85	259.17
735.18	258.73
735.51	258.34
735.84	258.00
736.17	257.63
736.50	257.23
736.83	256.99
737.16	256.65
737.49	256.29
737.82	255.95
738.15	255.61
738.48	255.27
738.81	254.95
739.14	254.62
739.47	254.33
739.80	254.05
740.13	253.75
740.46	253.44
740.79	253.11
741.12	252.82
741.45	252.50
741.78	252.18
742.11	251.93
742.44	251.64
742.77	251.36
743.10	251.07
743.43	250.78
743.75	250.41
744.08	250.27
744.41	250.02
744.74	249.78
745.07	249.51
745.40	249.29
745.73	249.03
746.06	248.77
746.39	248.51
746.71	248.25
747.04	247.98
747.37	247.73
747.70	247.50
748.03	247.28
748.36	247.01
748.68	246.76
749.01	246.51
749.34	246.28
749.67	246.01
750.00	245.84
750.33	245.71
750.65	245.48
750.98	245.16
751.31	244.95
751.64	244.74
751.97	244.57
752.29	244.35
752.62	244.09
752.95	243.87
753.28	243.68
753.60	243.46
753.93	243.28
754.26	243.06
754.59	242.84
754.91	242.62
755.24	242.45
755.57	242.26
755.90	242.05
756.22	241.84
756.55	241.65
756.88	241.41
757.20	241.16
757.53	240.99
757.86	240.84
758.19	240.66
758.51	240.48
758.84	240.28
759.17	240.13
759.49	239.96
759.82	239.85
760.15	239.69
760.47	239.56
760.80	239.39
761.13	239.28
761.45	239.12
761.78	238.97
762.11	238.84
762.43	238.71
762.76	238.57
763.08	238.49
763.41	238.34
763.74	238.24
764.06	238.09
764.39	237.92
764.71	237.73
765.04	237.59
765.37	237.49
765.69	237.36
766.02	237.17
766.34	237.07
766.67	236.93
767.00	236.80
767.32	236.72
767.65	236.65
767.97	236.51
768.30	236.42
768.62	236.30
768.95	236.17
769.27	236.01
769.60	235.93
769.92	235.80
770.25	235.69
770.57	235.55
770.90	235.47
771.22	235.36
771.55	235.27
771.87	235.19
772.20	235.08
772.52	235.07
772.85	235.13
773.17	235.03
773.50	234.92
773.82	234.82
774.15	234.68
774.47	234.54
774.80	234.45
775.12	234.34
775.45	234.24
775.77	234.17
776.09	234.10
776.42	234.01
776.74	233.94
777.07	233.86
777.39	233.77
777.72	233.69
778.04	233.64
778.36	233.57
778.69	233.50
779.01	233.44
779.33	233.28
779.66	233.09
779.98	233.02
780.31	232.95
780.63	232.92
780.95	232.89
781.28	232.82
781.60	232.74
781.92	232.72
782.25	232.67
782.57	232.61
782.89	232.57
783.22	232.51
783.54	232.44
783.86	232.39
784.19	232.36
784.51	232.34
784.83	232.28
785.16	232.24
785.48	232.21
785.80	232.18
786.12	232.16
786.45	232.14
786.77	232.11
787.09	232.07
787.42	231.98
787.74	231.94
788.06	231.90
788.38	231.85
788.71	231.79
789.03	231.78
789.35	231.77
789.67	231.70
789.99	231.68
790.32	231.63
790.64	231.57
790.96	231.61
791.28	231.55
791.61	231.50
791.93	231.45
792.25	231.40
792.57	231.42
792.89	231.35
793.21	231.33
793.54	231.28
793.86	231.24
794.18	231.22
794.50	231.17
794.82	231.14
795.14	231.13
795.47	231.11
795.79	231.05
796.11	231.00
796.43	230.98
796.75	230.93
797.07	230.90
797.39	230.88
797.71	230.76
798.04	230.74
798.36	230.74
798.68	230.69
799.00	230.64
799.32	230.53
799.64	230.53
799.96	230.46
800.28	230.44
800.60	230.40
800.92	230.36
801.24	230.29
801.56	230.25
801.89	230.20
802.21	230.17
802.53	230.15
802.85	230.10
803.17	230.09
803.49	230.02
803.81	229.97
804.13	229.96
804.45	229.93
804.77	229.88
805.09	229.83
805.41	229.80
805.73	229.77
806.05	229.70
806.37	229.65
806.69	229.60
807.01	229.55
807.33	229.50
807.65	229.48
807.97	229.50
808.28	229.48
808.60	229.43
808.92	229.38
809.24	229.39
809.56	229.31
809.88	229.26
810.20	229.24
810.52	229.22
810.84	229.18
811.16	229.15
811.48	229.13
811.80	229.15
812.12	229.12
812.43	229.09
812.75	229.07
813.07	229.06
813.39	229.03
813.71	229.01
814.03	228.99
814.35	228.95
814.67	228.89
814.98	228.85
815.30	228.83
815.62	228.82
815.94	228.72
816.26	228.76
816.58	228.73
816.89	228.72
817.21	228.69
817.53	228.67
817.85	228.64
818.17	228.62
818.48	228.53
818.80	228.55
819.12	228.53
819.44	228.49
819.76	228.45
820.07	228.45
820.39	228.42
820.71	228.40
821.03	228.37
821.34	228.35
821.66	228.35
821.98	228.37
822.30	228.32
822.61	228.37
822.93	228.35
823.25	228.33
823.57	228.29
823.88	228.31
824.20	228.29
824.52	228.32
824.83	228.26
825.15	228.26
825.47	228.22
825.79	228.20
826.10	228.18
826.42	228.20
826.74	228.20
827.05	228.21
827.37	228.21
827.69	228.18
828.00	228.16
828.32	228.15
828.64	228.14
828.95	228.19
829.27	228.17
829.58	228.14
829.90	228.13
830.22	228.15
830.53	228.11
830.85	228.10
831.17	228.05
831.48	228.08
831.80	228.07
832.11	228.07
832.43	228.05
832.75	228.08
833.06	228.10
833.38	228.06
833.69	228.04
834.01	228.06
834.32	228.05
834.64	228.03
834.96	228.03
835.27	228.01
835.59	227.96
835.90	227.95
836.22	227.95
836.53	227.94
836.85	227.94
837.16	228.01
837.48	227.99
837.79	228.01
838.11	228.01
838.42	228.01
838.74	228.01
839.05	228.02
839.37	228.00
839.68	227.93
840.00	227.92
840.31	227.92
840.63	227.89
840.94	227.88
841.26	227.88
841.57	227.89
841.88	227.87
842.20	227.86
842.51	227.82
842.83	227.79
843.14	227.85
843.46	227.84
843.77	227.77
844.08	227.79
844.40	227.76
844.71	227.72
845.03	227.69
845.34	227.70
845.65	227.66
845.97	227.64
846.28	227.64
846.60	227.63
846.91	227.59
847.22	227.58
847.54	227.60
847.85	227.60
848.16	227.56
848.48	227.53
848.79	227.55
849.10	227.52
849.42	227.54
849.73	227.45
850.04	227.44
850.36	227.39
850.67	227.38
850.98	227.36
851.30	227.38
851.61	227.35
851.92	227.31
852.23	227.33
852.55	227.32
852.86	227.32
853.17	227.34
853.49	227.37
853.80	227.36
854.11	227.37
854.42	227.33
854.74	227.33
855.05	227.35
855.36	227.32
855.67	227.38
855.99	227.37
856.30	227.50
856.61	227.50
856.92	227.52
857.23	227.51
857.55	227.51
857.86	227.50
858.17	227.53
858.48	227.50
858.79	227.53
859.11	227.52
859.42	227.51
859.73	227.52
860.04	227.52
860.35	227.51
860.66	227.49
860.98	227.53
861.29	227.55
861.60	227.58
861.91	227.60
862.22	227.57
862.53	227.57
862.84	227.46
863.16	227.47
863.47	227.45
863.78	227.46
864.09	227.50
864.40	227.50
864.71	227.53
865.02	227.57
865.33	227.56
865.64	227.59
865.95	227.61
866.27	227.66
866.58	227.66
866.89	227.69
867.20	227.72
867.51	227.68
867.82	227.67
868.13	227.70
868.44	227.66
868.75	227.69
869.06	227.70
869.37	227.70
869.68	227.68
869.99	227.74
870.30	227.72
870.61	227.73
870.92	227.70
871.23	227.72
871.54	227.72
871.85	227.73
872.16	227.69
872.47	227.70
872.78	227.66
873.09	227.66
873.40	227.64
873.71	227.64
874.02	227.65
874.33	227.63
874.64	227.59
874.95	227.62
875.26	227.60
875.56	227.57
875.87	227.57
876.18	227.58
876.49	227.64
876.80	227.66
877.11	227.64
877.42	227.62
877.73	227.59
878.04	227.55
878.35	227.54
878.66	227.54
878.96	227.52
879.27	227.50
879.58	227.49
879.89	227.48
880.20	227.47
880.51	227.49
880.82	227.48
881.12	227.48
881.43	227.46
881.74	227.44
882.05	227.45
882.36	227.46
882.67	227.47
882.97	227.36
883.28	227.34
883.59	227.30
883.90	227.32
884.21	227.35
884.51	227.35
884.82	227.30
885.13	227.31
885.44	227.29
885.74	227.29
886.05	227.29
886.36	227.25
886.67	227.21
886.98	227.23
887.28	227.23
887.59	227.21
887.90	227.21
888.20	227.19
888.51	227.18
888.82	227.14
889.13	227.11
889.43	227.15
889.74	227.15
890.05	227.16
890.35	227.14
890.66	227.12
890.97	227.12
891.28	227.13
891.58	227.13
891.89	227.10
892.20	227.06
892.50	227.03
892.81	227.02
893.12	227.03
893.42	226.98
893.73	226.96
894.04	226.98
894.34	226.98
894.65	226.99
894.95	227.00
895.26	227.00
895.57	227.04
895.87	226.97
896.18	226.96
896.48	227.02
896.79	227.03
897.10	227.04
897.40	227.04
897.71	227.06
898.01	227.05
898.32	227.10
898.63	227.13
898.93	227.13
899.24	227.15
899.54	227.16
899.85	227.13
900.15	227.17
900.46	227.15
900.76	227.16
901.07	227.13
901.38	227.13
901.68	227.18
901.99	227.14
902.29	227.19
902.60	227.19
902.90	227.12
903.21	227.12
903.51	227.11
903.82	227.14
904.12	227.13
904.43	227.14
904.73	227.12
905.03	227.13
905.34	227.20
905.64	227.22
905.95	227.24
906.25	227.31
906.56	227.32
906.86	227.32
907.17	227.32
907.47	227.33
907.77	227.32
908.08	227.28
908.38	227.30
908.69	227.26
908.99	227.30
909.30	227.34
909.60	227.31
909.90	227.31
910.21	227.28
910.51	227.26
910.81	227.25
911.12	227.27
911.42	227.28
911.73	227.21
912.03	227.19
912.33	227.17
912.64	227.13
912.94	227.10
913.24	227.08
913.55	227.11
913.85	227.08
914.15	227.11
914.46	227.13
914.76	227.13
915.06	227.14
915.37	227.09
915.67	227.10
915.97	227.13
916.27	227.09
916.58	227.10
916.88	227.11
917.18	227.08
917.49	227.13
917.79	227.11
918.09	227.12
918.39	227.18
918.70	227.18
919.00	227.19
919.30	227.22
919.60	227.21
919.91	227.15
920.21	227.16
920.51	227.14
920.81	227.12
921.12	227.11
921.42	227.08
921.72	227.04
922.02	226.99
922.32	226.99
922.63	226.98
922.93	227.01
923.23	227.02
923.53	227.02
923.83	226.96
924.13	226.96
924.44	226.94
924.74	226.91
925.04	226.91
925.34	226.90
925.64	226.86
925.94	226.84
926.24	226.87
926.55	226.88
926.85	226.88
927.15	226.89
927.45	226.89
927.75	226.91
928.05	226.95
928.35	226.95
928.65	226.96
928.95	226.96
929.26	226.93
929.56	226.94
929.86	226.95
930.16	226.92
930.46	226.91
930.76	226.91
931.06	226.90
931.36	226.91
931.66	226.93
931.96	226.95
932.26	226.97
932.56	226.97
932.86	227.00
933.16	226.96
933.46	226.93
933.76	226.94
934.06	226.93
934.36	226.98
934.66	226.98
934.96	227.01
935.26	227.04
935.56	227.06
935.86	227.03
936.16	227.03
936.46	227.05
936.76	227.04
937.06	227.03
937.36	227.05
937.66	227.05
937.96	227.04
938.26	227.02
938.56	227.01
938.86	227.02
939.16	227.02
939.46	227.09
939.76	227.12
940.06	227.09
940.35	227.10
940.65	227.09
940.95	227.11
941.25	227.08
941.55	227.06
941.85	227.06
942.15	227.09
942.45	227.15
942.75	227.16
943.04	227.21
943.34	227.25
943.64	227.23
943.94	227.18
944.24	227.19
944.54	227.19
944.84	227.21
945.13	227.22
945.43	227.21
945.73	227.20
946.03	227.18
946.33	227.19
946.62	227.17
946.92	227.14
947.22	227.12
947.52	227.11
947.82	227.13
948.11	227.12
948.41	227.09
948.71	227.06
949.01	227.06
949.31	227.02
949.60	227.01
949.90	227.03
950.20	227.04
950.50	227.04
950.79	227.04
951.09	227.07
951.39	227.00
951.69	227.00
951.98	227.01
952.28	227.01
952.58	227.00
952.87	226.98
953.17	227.00
953.47	226.98
953.76	227.00
954.06	226.94
954.36	226.90
954.66	226.89
954.95	226.87
955.25	226.89
955.55	226.90
955.84	226.86
956.14	226.86
956.44	226.86
956.73	226.85
957.03	226.84
957.32	226.80
957.62	226.82
957.92	226.82
958.21	226.81
958.51	226.92
958.81	226.92
959.10	226.96
959.40	226.98
959.69	226.98
959.99	226.99
960.29	226.98
960.58	226.99
960.88	227.04
961.17	227.05
961.47	227.04
961.76	227.04
962.06	227.07
962.36	227.07
962.65	227.10
962.95	227.10
963.24	227.07
963.54	227.08
963.83	227.10
964.13	227.08
964.42	227.02
964.72	226.94
965.01	226.95
965.31	226.91
965.60	226.88
965.90	226.97
966.19	226.95
966.49	226.99
966.78	226.99
967.08	226.98
967.37	226.99
967.67	226.98
967.96	226.97
968.26	226.98
968.55	226.97
968.85	226.94
969.14	226.94
969.43	226.97
969.73	226.96
970.02	226.95
970.32	226.97
970.61	226.96
970.91	226.96
971.20	226.93
971.49	226.94
971.79	226.97
972.08	226.88
972.38	226.88
972.67	226.88
972.96	226.93
973.26	226.95
973.55	226.97
973.85	226.97
974.14	227.01
974.43	227.00
974.73	227.00
975.02	227.00
975.31	226.99
975.61	226.99
975.90	227.04
976.19	227.01
976.49	227.02
976.78	227.06
977.07	227.07
977.37	227.10
977.66	227.10
977.95	227.07
978.24	227.08
978.54	227.11
978.83	227.12
979.12	227.07
979.42	227.06
979.71	227.05
980.00	227.04
980.29	227.01
980.59	226.99
980.88	227.04
981.17	227.05
981.46	227.07
981.76	227.07
982.05	227.10
982.34	227.11
982.63	227.10
982.93	227.07
983.22	227.06
983.51	227.06
983.80	227.08
984.09	227.10
984.39	227.10
984.68	227.06
984.97	227.02
985.26	227.04
985.55	227.00
985.85	227.01
986.14	227.00
986.43	227.00
986.72	227.00
987.01	226.93
987.30	226.89
987.59	226.88
987.89	226.85
988.18	226.78
988.47	226.77
988.76	226.78
989.05	226.78
989.34	226.78
989.63	226.80
989.92	226.80
990.22	226.80
990.51	226.80
990.80	226.78
991.09	226.82
991.38	226.82
991.67	226.84
991.96	226.79
992.25	226.79
992.54	226.76
992.83	226.73
993.12	226.74
993.41	226.78
993.70	226.83
993.99	226.83
994.28	226.84
994.58	226.88
994.87	226.86
995.16	226.87
995.45	226.84
995.74	226.77
996.03	226.72
996.32	226.73
996.61	226.76
996.90	226.76
997.19	226.73
997.48	226.74
997.77	226.73
998.06	226.75
998.34	226.75
998.63	226.76
998.92	226.77
999.21	226.79
999.50	226.76
999.79	226.74
1000.08	226.76
1000.37	226.75
1000.66	226.70
1000.95	226.71
1001.24	226.71
1001.53	226.72
1001.82	226.74
1002.11	226.77
1002.40	226.78
1002.68	226.78
1002.97	226.86
1003.26	226.88
1003.55	226.86
1003.84	226.86
1004.13	226.92
1004.42	226.91
1004.71	226.91
1004.99	226.91
1005.28	226.93
1005.57	226.96
1005.86	226.97
1006.15	226.99
1006.44	227.00
1006.72	227.03
1007.01	227.01
1007.30	227.05
1007.59	227.02
1007.88	227.03
1008.17	227.03
1008.45	227.01
1008.74	226.99
1009.03	226.94
1009.32	226.92
1009.60	226.93
1009.89	226.94
1010.18	226.88
1010.47	226.87
1010.76	226.88
1011.04	226.87
1011.33	226.96
1011.62	226.92
1011.91	226.90
1012.19	226.88
1012.48	226.89
1012.77	226.92
1013.05	226.99
1013.34	226.95
1013.63	226.98
1013.92	227.00
1014.20	227.01
1014.49	227.01
1014.78	227.02
1015.06	226.98
1015.35	227.01
1015.64	227.02
1015.92	227.04
1016.21	227.06
1016.50	227.09
1016.78	227.08
1017.07	227.11
1017.36	227.03
1017.64	227.04
1017.93	227.05
1018.22	227.07
1018.50	227.03
1018.79	226.98
1019.08	226.94
1019.36	226.96
1019.65	226.98
1019.93	226.97
1020.22	226.94
1020.51	226.98
1020.79	226.96
1021.08	227.17
1021.36	226.30
1021.65	226.37
1021.94	227.03
1022.22	227.15
1022.51	227.40
1022.79	226.87
1023.08	226.51
1023.36	227.84
1023.65	226.56
>>>>>End Processed Spectral Data<<<<<
