SpectraSuite Data File
++++++++++++++++++++++++++++++++++++
Date: Fri Feb 01 15:24:27 EST 2013
User: group
Dark Spectrum Present: No
Reference Spectrum Present: No
Number of Sampled Component Spectra: 1
Spectrometers: USB2E7196
Integration Time (usec): 35000 (USB2E7196)
Spectra Averaged: 100 (USB2E7196)
Boxcar Smoothing: 10 (USB2E7196)
Correct for Electrical Dark: No (USB2E7196)
Strobe/Lamp Enabled: No (USB2E7196)
Correct for Detector Non-linearity: No (USB2E7196)
Correct for Stray Light: No (USB2E7196)
Number of Pixels in Processed Spectrum: 2048
>>>>>Begin Processed Spectral Data<<<<<
339.09	0.00
339.48	215.34
339.86	217.55
340.24	218.45
340.63	220.10
341.01	221.90
341.39	222.38
341.78	223.64
342.16	225.29
342.54	225.28
342.93	213.72
343.31	224.53
343.69	225.08
344.07	225.51
344.46	225.89
344.84	226.23
345.22	226.48
345.60	226.72
345.99	226.92
346.37	227.02
346.75	227.12
347.13	227.18
347.52	227.26
347.90	227.34
348.28	227.40
348.66	227.46
349.05	227.44
349.43	227.48
349.81	227.50
350.19	227.53
350.57	227.60
350.96	227.70
351.34	227.78
351.72	227.86
352.10	227.97
352.48	228.08
352.87	228.16
353.25	228.22
353.63	228.30
354.01	228.34
354.39	228.43
354.77	228.50
355.15	228.62
355.54	228.69
355.92	228.72
356.30	228.79
356.68	228.88
357.06	228.95
357.44	229.02
357.82	229.08
358.20	229.18
358.58	229.21
358.97	229.25
359.35	229.33
359.73	229.41
360.11	229.45
360.49	229.49
360.87	229.53
361.25	229.60
361.63	229.65
362.01	229.70
362.39	229.72
362.77	229.77
363.15	229.75
363.53	229.75
363.91	229.77
364.29	229.76
364.67	229.69
365.05	229.70
365.43	229.71
365.81	229.72
366.19	229.74
366.57	229.77
366.95	229.71
367.33	229.63
367.71	229.59
368.09	229.58
368.47	229.53
368.85	229.50
369.23	229.49
369.61	229.45
369.99	229.44
370.37	229.39
370.75	229.40
371.13	229.34
371.51	229.27
371.89	229.22
372.27	229.16
372.65	229.10
373.03	229.04
373.41	228.97
373.78	228.88
374.16	228.78
374.54	228.68
374.92	228.62
375.30	228.58
375.68	228.49
376.06	228.42
376.44	228.34
376.82	228.26
377.19	228.16
377.57	228.05
377.95	227.95
378.33	227.84
378.71	227.72
379.09	227.69
379.47	227.61
379.84	227.52
380.22	227.45
380.60	227.38
380.98	227.32
381.36	227.24
381.73	227.15
382.11	227.10
382.49	227.03
382.87	226.99
383.25	226.94
383.62	226.98
384.00	226.91
384.38	226.84
384.76	226.83
385.13	226.80
385.51	226.77
385.89	226.70
386.27	226.68
386.64	226.66
387.02	226.60
387.40	226.56
387.78	226.53
388.15	226.51
388.53	226.48
388.91	226.46
389.29	226.41
389.66	226.44
390.04	226.41
390.42	226.39
390.79	226.38
391.17	226.36
391.55	226.24
391.92	226.24
392.30	226.28
392.68	226.24
393.05	226.22
393.43	226.22
393.81	226.26
394.18	226.28
394.56	226.28
394.94	226.32
395.31	226.36
395.69	226.43
396.06	226.48
396.44	226.54
396.82	226.54
397.19	226.68
397.57	226.72
397.95	226.79
398.32	226.86
398.70	226.93
399.07	227.02
399.45	227.11
399.82	227.19
400.20	227.26
400.58	227.35
400.95	227.44
401.33	227.55
401.70	227.72
402.08	227.81
402.45	227.94
402.83	228.05
403.20	228.19
403.58	228.29
403.95	228.42
404.33	228.56
404.71	228.70
405.08	228.87
405.46	228.98
405.83	229.12
406.21	229.28
406.58	229.43
406.96	229.62
407.33	229.80
407.70	230.00
408.08	230.28
408.45	230.52
408.83	230.72
409.20	230.93
409.58	231.12
409.95	231.39
410.33	231.64
410.70	231.91
411.08	232.19
411.45	232.49
411.82	232.80
412.20	233.13
412.57	233.58
412.95	233.87
413.32	234.34
413.69	234.72
414.07	235.14
414.44	235.60
414.82	236.04
415.19	236.58
415.56	237.13
415.94	237.67
416.31	238.29
416.68	238.91
417.06	239.63
417.43	240.28
417.81	241.05
418.18	241.82
418.55	242.64
418.93	243.52
419.30	244.44
419.67	245.40
420.04	246.35
420.42	247.34
420.79	248.51
421.16	249.63
421.54	250.86
421.91	252.07
422.28	253.32
422.66	254.68
423.03	256.00
423.40	257.34
423.77	258.73
424.15	260.17
424.52	261.68
424.89	263.29
425.26	264.87
425.64	266.31
426.01	267.87
426.38	269.51
426.75	271.20
427.13	272.92
427.50	274.70
427.87	276.59
428.24	278.44
428.61	280.18
428.99	282.11
429.36	284.21
429.73	286.33
430.10	288.38
430.47	290.41
430.85	292.54
431.22	294.81
431.59	297.19
431.96	299.43
432.33	301.93
432.70	304.30
433.08	307.09
433.45	309.74
433.82	312.38
434.19	315.36
434.56	318.15
434.93	320.82
435.30	323.46
435.68	326.38
436.05	329.20
436.42	332.03
436.79	334.54
437.16	337.25
437.53	340.05
437.90	342.84
438.27	345.56
438.64	348.41
439.01	351.00
439.38	353.23
439.75	355.40
440.13	357.88
440.50	360.24
440.87	362.11
441.24	364.03
441.61	366.23
441.98	367.64
442.35	369.41
442.72	371.27
443.09	373.10
443.46	374.06
443.83	374.69
444.20	375.18
444.57	376.06
444.94	376.30
445.31	376.64
445.68	377.04
446.05	377.17
446.42	376.77
446.79	376.29
447.16	375.87
447.53	375.57
447.90	374.43
448.27	373.26
448.64	371.68
449.01	370.59
449.37	368.57
449.74	366.69
450.11	364.48
450.48	361.99
450.85	359.45
451.22	357.34
451.59	355.29
451.96	353.33
452.33	350.72
452.70	348.41
453.07	345.57
453.43	342.67
453.80	339.87
454.17	337.20
454.54	334.71
454.91	331.95
455.28	329.22
455.65	326.73
456.02	324.29
456.38	322.10
456.75	319.40
457.12	317.15
457.49	314.97
457.86	312.76
458.23	310.90
458.59	308.84
458.96	306.71
459.33	304.86
459.70	303.00
460.07	301.51
460.43	299.76
460.80	298.17
461.17	296.71
461.54	295.21
461.91	293.79
462.27	292.34
462.64	291.14
463.01	289.79
463.38	288.49
463.74	287.12
464.11	285.95
464.48	284.92
464.85	283.82
465.21	282.89
465.58	281.96
465.95	280.84
466.32	279.93
466.68	279.00
467.05	278.11
467.42	277.20
467.78	276.21
468.15	275.35
468.52	274.65
468.88	273.78
469.25	273.02
469.62	272.38
469.98	271.68
470.35	270.97
470.72	270.42
471.08	269.75
471.45	269.19
471.82	268.65
472.18	268.08
472.55	267.64
472.92	267.14
473.28	266.69
473.65	266.27
474.02	265.83
474.38	265.49
474.75	265.13
475.11	264.82
475.48	264.56
475.85	264.34
476.21	264.09
476.58	263.92
476.94	263.76
477.31	263.56
477.67	263.42
478.04	263.31
478.41	263.21
478.77	263.26
479.14	263.19
479.50	263.20
479.87	263.23
480.23	263.31
480.60	263.36
480.96	263.45
481.33	263.65
481.69	263.85
482.06	264.04
482.42	264.28
482.79	264.50
483.15	264.83
483.52	265.21
483.88	265.61
484.25	265.98
484.61	266.42
484.98	266.88
485.34	267.45
485.71	268.09
486.07	268.68
486.44	269.26
486.80	269.99
487.17	270.74
487.53	271.55
487.90	272.39
488.26	273.29
488.62	274.28
488.99	275.26
489.35	276.28
489.72	277.43
490.08	278.61
490.44	279.82
490.81	281.15
491.17	282.48
491.54	283.94
491.90	285.50
492.26	287.11
492.63	288.87
492.99	290.62
493.36	292.50
493.72	294.52
494.08	296.59
494.45	298.80
494.81	301.14
495.17	303.57
495.54	306.17
495.90	308.88
496.26	311.67
496.63	314.62
496.99	317.71
497.35	320.94
497.72	324.31
498.08	327.86
498.44	331.50
498.80	335.43
499.17	339.43
499.53	343.57
499.89	347.94
500.26	352.42
500.62	357.11
500.98	362.08
501.34	367.19
501.71	372.49
502.07	377.95
502.43	383.54
502.79	389.35
503.16	395.37
503.52	401.65
503.88	408.11
504.24	414.75
504.60	421.64
504.97	428.77
505.33	436.10
505.69	443.80
506.05	451.61
506.41	459.47
506.78	467.67
507.14	476.16
507.50	484.88
507.86	493.87
508.22	503.04
508.59	512.19
508.95	521.74
509.31	531.53
509.67	541.65
510.03	551.98
510.39	562.57
510.75	573.43
511.12	584.40
511.48	595.63
511.84	607.07
512.20	618.61
512.56	630.55
512.92	642.79
513.28	655.13
513.64	667.68
514.00	680.43
514.37	693.35
514.73	706.38
515.09	719.44
515.45	732.77
515.81	746.31
516.17	760.32
516.53	774.47
516.89	788.75
517.25	802.98
517.61	817.42
517.97	831.89
518.33	846.39
518.69	861.19
519.05	876.30
519.41	891.51
519.77	907.17
520.13	922.64
520.49	938.04
520.85	953.50
521.21	969.19
521.57	985.52
521.93	1001.32
522.29	1017.74
522.65	1034.04
523.01	1050.32
523.37	1066.43
523.73	1082.69
524.09	1098.83
524.45	1115.12
524.81	1131.77
525.17	1148.55
525.53	1165.49
525.89	1182.25
526.25	1199.04
526.61	1215.41
526.97	1232.17
527.33	1248.69
527.68	1265.38
528.04	1281.95
528.40	1298.67
528.76	1315.84
529.12	1332.46
529.48	1349.46
529.84	1365.70
530.20	1382.42
530.56	1399.50
530.91	1417.10
531.27	1433.98
531.63	1450.65
531.99	1467.32
532.35	1483.37
532.71	1499.45
533.07	1515.64
533.42	1531.62
533.78	1547.86
534.14	1564.19
534.50	1579.56
534.86	1595.43
535.21	1610.62
535.57	1626.66
535.93	1642.16
536.29	1657.00
536.65	1672.09
537.00	1686.91
537.36	1702.29
537.72	1716.98
538.08	1731.44
538.44	1745.24
538.79	1759.17
539.15	1772.89
539.51	1786.84
539.87	1801.31
540.22	1814.98
540.58	1829.04
540.94	1842.63
541.29	1855.51
541.65	1868.32
542.01	1881.70
542.37	1894.02
542.72	1906.61
543.08	1918.43
543.44	1930.87
543.79	1942.08
544.15	1953.20
544.51	1964.79
544.87	1975.67
545.22	1986.52
545.58	1996.78
545.94	2006.48
546.29	2016.45
546.65	2026.21
547.01	2035.25
547.36	2043.91
547.72	2052.52
548.07	2060.31
548.43	2068.46
548.79	2076.58
549.14	2084.07
549.50	2091.47
549.86	2099.21
550.21	2106.40
550.57	2113.54
550.92	2120.20
551.28	2127.29
551.64	2134.25
551.99	2140.66
552.35	2146.84
552.70	2152.85
553.06	2158.87
553.41	2165.22
553.77	2171.20
554.13	2177.44
554.48	2183.60
554.84	2189.06
555.19	2194.46
555.55	2199.58
555.90	2203.86
556.26	2208.59
556.61	2213.27
556.97	2217.37
557.32	2221.51
557.68	2225.72
558.03	2230.12
558.39	2233.83
558.74	2238.55
559.10	2242.47
559.45	2246.24
559.81	2250.55
560.16	2254.22
560.52	2257.46
560.87	2260.91
561.23	2263.47
561.58	2266.41
561.94	2268.99
562.29	2271.44
562.64	2273.97
563.00	2276.70
563.35	2280.38
563.71	2283.55
564.06	2286.83
564.42	2289.81
564.77	2292.40
565.12	2294.63
565.48	2296.33
565.83	2298.11
566.19	2299.29
566.54	2300.13
566.89	2301.22
567.25	2301.74
567.60	2303.22
567.96	2304.82
568.31	2305.65
568.66	2306.83
569.02	2307.21
569.37	2307.53
569.72	2308.18
570.08	2308.19
570.43	2308.04
570.78	2307.31
571.14	2305.76
571.49	2304.35
571.84	2304.03
572.20	2302.54
572.55	2301.48
572.90	2299.93
573.26	2298.45
573.61	2296.76
573.96	2294.97
574.31	2291.88
574.67	2288.73
575.02	2285.02
575.37	2281.62
575.72	2277.73
576.08	2274.29
576.43	2270.98
576.78	2267.14
577.13	2264.03
577.49	2260.91
577.84	2257.33
578.19	2253.58
578.54	2249.72
578.90	2245.35
579.25	2239.60
579.60	2234.73
579.95	2229.64
580.30	2224.44
580.66	2219.26
581.01	2214.17
581.36	2209.20
581.71	2204.91
582.06	2200.34
582.42	2195.84
582.77	2190.53
583.12	2185.86
583.47	2180.93
583.82	2175.76
584.17	2170.54
584.53	2164.90
584.88	2159.24
585.23	2153.38
585.58	2147.77
585.93	2142.36
586.28	2137.66
586.63	2132.53
586.98	2127.43
587.34	2122.67
587.69	2117.81
588.04	2112.48
588.39	2106.66
588.74	2100.07
589.09	2093.98
589.44	2087.21
589.79	2080.96
590.14	2075.14
590.49	2068.46
590.84	2062.09
591.19	2055.96
591.54	2049.40
591.89	2041.81
592.25	2034.91
592.60	2027.62
592.95	2019.95
593.30	2012.39
593.65	2004.65
594.00	1997.56
594.35	1990.19
594.70	1982.02
595.05	1974.58
595.40	1967.19
595.75	1959.67
596.10	1953.37
596.45	1946.40
596.80	1940.08
597.15	1933.33
597.50	1926.11
597.85	1919.81
598.19	1912.99
598.54	1905.94
598.89	1899.19
599.24	1893.32
599.59	1886.47
599.94	1880.32
600.29	1874.04
600.64	1867.54
600.99	1860.01
601.34	1853.12
601.69	1846.15
602.04	1839.09
602.39	1831.73
602.74	1824.82
603.08	1818.11
603.43	1811.42
603.78	1804.15
604.13	1796.95
604.48	1789.73
604.83	1782.97
605.18	1775.73
605.53	1767.82
605.87	1759.72
606.22	1752.58
606.57	1744.64
606.92	1737.35
607.27	1730.04
607.62	1723.03
607.96	1715.68
608.31	1709.09
608.66	1701.27
609.01	1693.75
609.36	1686.39
609.70	1678.40
610.05	1670.23
610.40	1662.48
610.75	1654.11
611.10	1646.41
611.44	1638.21
611.79	1630.26
612.14	1621.57
612.49	1612.53
612.83	1604.05
613.18	1595.91
613.53	1587.76
613.88	1579.21
614.22	1570.92
614.57	1562.42
614.92	1554.42
615.27	1546.82
615.61	1538.44
615.96	1530.64
616.31	1522.95
616.65	1515.57
617.00	1508.06
617.35	1500.46
617.70	1492.05
618.04	1483.43
618.39	1475.22
618.74	1467.57
619.08	1459.20
619.43	1451.58
619.78	1444.73
620.12	1437.63
620.47	1430.12
620.82	1421.91
621.16	1414.59
621.51	1406.93
621.85	1399.32
622.20	1390.77
622.55	1382.57
622.89	1374.78
623.24	1367.23
623.59	1359.89
623.93	1352.27
624.28	1345.00
624.62	1337.52
624.97	1330.47
625.32	1323.84
625.66	1316.81
626.01	1309.48
626.35	1301.98
626.70	1294.37
627.04	1286.53
627.39	1278.79
627.73	1271.35
628.08	1264.39
628.43	1257.01
628.77	1249.68
629.12	1242.02
629.46	1234.86
629.81	1227.42
630.15	1220.16
630.50	1212.62
630.84	1204.38
631.19	1196.48
631.53	1189.05
631.88	1181.46
632.22	1173.82
632.57	1166.52
632.91	1159.00
633.26	1151.68
633.60	1144.39
633.95	1137.19
634.29	1130.19
634.64	1123.48
634.98	1116.15
635.32	1109.06
635.67	1102.51
636.01	1095.90
636.36	1089.21
636.70	1082.68
637.05	1076.06
637.39	1069.56
637.73	1063.00
638.08	1057.10
638.42	1051.18
638.77	1044.73
639.11	1038.10
639.45	1031.71
639.80	1025.10
640.14	1018.69
640.49	1012.13
640.83	1005.82
641.17	999.63
641.52	993.32
641.86	986.93
642.20	981.05
642.55	974.78
642.89	968.27
643.23	961.79
643.58	955.91
643.92	949.66
644.26	943.53
644.61	937.60
644.95	931.60
645.29	925.06
645.64	918.30
645.98	911.94
646.32	906.15
646.66	900.07
647.01	894.13
647.35	888.44
647.69	882.53
648.04	876.99
648.38	871.12
648.72	865.06
649.06	858.98
649.41	853.17
649.75	847.14
650.09	841.19
650.43	835.32
650.78	829.13
651.12	823.20
651.46	817.55
651.80	811.71
652.14	806.33
652.49	800.89
652.83	795.66
653.17	789.96
653.51	784.23
653.85	778.84
654.20	773.22
654.54	767.13
654.88	761.39
655.22	755.52
655.56	749.87
655.90	744.38
656.25	739.07
656.59	733.70
656.93	728.61
657.27	723.47
657.61	718.05
657.95	713.03
658.29	708.00
658.64	702.71
658.98	697.46
659.32	692.04
659.66	686.89
660.00	681.60
660.34	676.66
660.68	671.82
661.02	666.87
661.36	662.14
661.70	657.78
662.05	653.55
662.39	649.26
662.73	644.90
663.07	640.63
663.41	636.20
663.75	631.72
664.09	627.23
664.43	622.87
664.77	618.86
665.11	614.66
665.45	610.56
665.79	606.59
666.13	602.49
666.47	598.44
666.81	594.28
667.15	590.23
667.49	586.35
667.83	582.52
668.17	578.59
668.51	574.61
668.85	570.52
669.19	566.66
669.53	562.81
669.87	558.87
670.21	555.07
670.55	551.51
670.89	548.18
671.23	544.71
671.57	541.21
671.91	537.65
672.25	534.13
672.58	530.66
672.92	527.24
673.26	524.08
673.60	520.95
673.94	517.83
674.28	514.93
674.62	512.01
674.96	508.95
675.30	506.02
675.64	503.11
675.97	500.38
676.31	497.47
676.65	494.50
676.99	491.79
677.33	488.99
677.67	486.11
678.01	482.97
678.34	480.05
678.68	477.14
679.02	474.29
679.36	471.53
679.70	468.76
680.04	465.99
680.37	463.07
680.71	460.24
681.05	457.59
681.39	454.83
681.73	452.15
682.06	449.59
682.40	447.02
682.74	444.46
683.08	441.90
683.42	439.34
683.75	436.83
684.09	434.30
684.43	431.80
684.77	429.38
685.10	427.04
685.44	424.70
685.78	422.44
686.12	420.21
686.45	417.94
686.79	415.66
687.13	413.41
687.46	411.26
687.80	409.10
688.14	406.92
688.48	404.85
688.81	402.57
689.15	400.42
689.49	398.27
689.82	396.19
690.16	394.06
690.50	392.07
690.83	390.17
691.17	388.21
691.51	386.32
691.84	384.44
692.18	382.49
692.52	380.47
692.85	378.56
693.19	376.69
693.52	374.86
693.86	373.03
694.20	371.28
694.53	369.47
694.87	367.64
695.21	365.89
695.54	364.07
695.88	362.34
696.21	360.63
696.55	358.98
696.88	357.33
697.22	355.75
697.56	354.22
697.89	352.55
698.23	350.89
698.56	349.34
698.90	347.79
699.23	346.16
699.57	344.65
699.90	343.13
700.24	341.60
700.58	340.08
700.91	338.59
701.25	337.20
701.58	335.89
701.92	334.55
702.25	333.19
702.59	331.83
702.92	330.57
703.26	329.29
703.59	328.04
703.93	326.86
704.26	325.63
704.60	324.36
704.93	323.10
705.26	321.89
705.60	320.70
705.93	319.54
706.27	318.56
706.60	317.58
706.94	316.48
707.27	315.36
707.61	314.29
707.94	313.32
708.27	312.23
708.61	311.11
708.94	310.13
709.28	309.14
709.61	308.22
709.94	307.30
710.28	306.25
710.61	305.29
710.95	304.22
711.28	303.31
711.61	302.32
711.95	301.42
712.28	300.53
712.61	299.57
712.95	298.62
713.28	297.72
713.61	296.81
713.95	295.93
714.28	295.10
714.61	294.25
714.95	293.39
715.28	292.50
715.61	291.66
715.95	290.79
716.28	289.94
716.61	289.13
716.95	288.30
717.28	287.56
717.61	286.77
717.94	286.02
718.28	285.18
718.61	284.45
718.94	283.75
719.27	283.07
719.61	282.42
719.94	281.79
720.27	281.07
720.60	280.39
720.94	279.78
721.27	279.19
721.60	278.62
721.93	277.98
722.27	277.46
722.60	276.88
722.93	276.30
723.26	275.76
723.59	275.18
723.93	274.59
724.26	274.04
724.59	273.48
724.92	272.98
725.25	272.53
725.59	271.99
725.92	271.46
726.25	270.97
726.58	270.47
726.91	269.93
727.24	269.45
727.57	268.97
727.91	268.43
728.24	267.92
728.57	267.43
728.90	266.97
729.23	266.47
729.56	266.04
729.89	265.56
730.22	265.07
730.55	264.60
730.89	264.18
731.22	263.71
731.55	263.30
731.88	262.83
732.21	262.39
732.54	261.95
732.87	261.53
733.20	261.13
733.53	260.73
733.86	260.33
734.19	259.92
734.52	259.53
734.85	259.24
735.18	258.80
735.51	258.44
735.84	258.08
736.17	257.73
736.50	257.34
736.83	257.11
737.16	256.80
737.49	256.46
737.82	256.11
738.15	255.79
738.48	255.46
738.81	255.16
739.14	254.81
739.47	254.51
739.80	254.17
740.13	253.87
740.46	253.54
740.79	253.25
741.12	252.97
741.45	252.68
741.78	252.33
742.11	252.08
742.44	251.77
742.77	251.48
743.10	251.17
743.43	250.86
743.75	250.48
744.08	250.33
744.41	250.05
744.74	249.78
745.07	249.52
745.40	249.27
745.73	249.02
746.06	248.77
746.39	248.52
746.71	248.29
747.04	248.02
747.37	247.76
747.70	247.52
748.03	247.25
748.36	247.03
748.68	246.77
749.01	246.55
749.34	246.29
749.67	246.05
750.00	245.83
750.33	245.70
750.65	245.48
750.98	245.13
751.31	244.93
751.64	244.73
751.97	244.57
752.29	244.34
752.62	244.07
752.95	243.84
753.28	243.63
753.60	243.41
753.93	243.21
754.26	243.03
754.59	242.83
754.91	242.64
755.24	242.44
755.57	242.27
755.90	242.07
756.22	241.91
756.55	241.72
756.88	241.55
757.20	241.25
757.53	241.07
757.86	240.91
758.19	240.73
758.51	240.56
758.84	240.31
759.17	240.16
759.49	240.05
759.82	239.94
760.15	239.79
760.47	239.63
760.80	239.45
761.13	239.29
761.45	239.12
761.78	238.93
762.11	238.77
762.43	238.61
762.76	238.45
763.08	238.31
763.41	238.18
763.74	238.04
764.06	237.93
764.39	237.76
764.71	237.58
765.04	237.43
765.37	237.27
765.69	237.15
766.02	236.98
766.34	236.81
766.67	236.66
767.00	236.52
767.32	236.44
767.65	236.38
767.97	236.29
768.30	236.17
768.62	236.09
768.95	235.95
769.27	235.87
769.60	235.79
769.92	235.64
770.25	235.51
770.57	235.38
770.90	235.27
771.22	235.21
771.55	235.15
771.87	235.08
772.20	234.98
772.52	234.94
772.85	234.95
773.17	234.90
773.50	234.80
773.82	234.71
774.15	234.56
774.47	234.41
774.80	234.29
775.12	234.22
775.45	234.13
775.77	234.09
776.09	233.96
776.42	233.85
776.74	233.82
777.07	233.77
777.39	233.71
777.72	233.62
778.04	233.57
778.36	233.49
778.69	233.42
779.01	233.37
779.33	233.28
779.66	233.14
779.98	233.06
780.31	233.01
780.63	233.00
780.95	233.02
781.28	232.94
781.60	232.88
781.92	232.83
782.25	232.79
782.57	232.76
782.89	232.70
783.22	232.65
783.54	232.61
783.86	232.55
784.19	232.49
784.51	232.49
784.83	232.41
785.16	232.36
785.48	232.29
785.80	232.27
786.12	232.22
786.45	232.16
786.77	232.11
787.09	232.06
787.42	231.99
787.74	231.95
788.06	231.93
788.38	231.91
788.71	231.86
789.03	231.86
789.35	231.78
789.67	231.75
789.99	231.73
790.32	231.66
790.64	231.63
790.96	231.68
791.28	231.63
791.61	231.59
791.93	231.54
792.25	231.53
792.57	231.57
792.89	231.50
793.21	231.48
793.54	231.46
793.86	231.42
794.18	231.38
794.50	231.29
794.82	231.31
795.14	231.27
795.47	231.25
795.79	231.18
796.11	231.16
796.43	231.13
796.75	231.08
797.07	231.04
797.39	231.02
797.71	230.90
798.04	230.89
798.36	230.84
798.68	230.79
799.00	230.77
799.32	230.65
799.64	230.64
799.96	230.59
800.28	230.57
800.60	230.51
800.92	230.47
801.24	230.44
801.56	230.39
801.89	230.35
802.21	230.30
802.53	230.25
802.85	230.21
803.17	230.18
803.49	230.15
803.81	230.09
804.13	230.05
804.45	230.03
804.77	229.97
805.09	229.97
805.41	229.95
805.73	229.85
806.05	229.81
806.37	229.75
806.69	229.72
807.01	229.69
807.33	229.68
807.65	229.61
807.97	229.66
808.28	229.62
808.60	229.56
808.92	229.49
809.24	229.50
809.56	229.45
809.88	229.39
810.20	229.38
810.52	229.39
810.84	229.33
811.16	229.26
811.48	229.20
811.80	229.19
812.12	229.15
812.43	229.18
812.75	229.16
813.07	229.15
813.39	229.13
813.71	229.07
814.03	229.02
814.35	229.00
814.67	228.90
814.98	228.85
815.30	228.84
815.62	228.82
815.94	228.76
816.26	228.78
816.58	228.76
816.89	228.73
817.21	228.68
817.53	228.68
817.85	228.70
818.17	228.70
818.48	228.68
818.80	228.68
819.12	228.66
819.44	228.63
819.76	228.58
820.07	228.54
820.39	228.54
820.71	228.53
821.03	228.53
821.34	228.51
821.66	228.52
821.98	228.51
822.30	228.49
822.61	228.52
822.93	228.49
823.25	228.47
823.57	228.46
823.88	228.46
824.20	228.47
824.52	228.45
824.83	228.49
825.15	228.44
825.47	228.44
825.79	228.45
826.10	228.44
826.42	228.43
826.74	228.42
827.05	228.43
827.37	228.43
827.69	228.42
828.00	228.45
828.32	228.48
828.64	228.46
828.95	228.55
829.27	228.55
829.58	228.54
829.90	228.57
830.22	228.59
830.53	228.59
830.85	228.58
831.17	228.58
831.48	228.55
831.80	228.59
832.11	228.57
832.43	228.57
832.75	228.58
833.06	228.66
833.38	228.65
833.69	228.63
834.01	228.65
834.32	228.68
834.64	228.65
834.96	228.64
835.27	228.66
835.59	228.60
835.90	228.57
836.22	228.58
836.53	228.57
836.85	228.55
837.16	228.63
837.48	228.61
837.79	228.64
838.11	228.62
838.42	228.60
838.74	228.62
839.05	228.58
839.37	228.54
839.68	228.45
840.00	228.46
840.31	228.49
840.63	228.47
840.94	228.45
841.26	228.48
841.57	228.47
841.88	228.44
842.20	228.46
842.51	228.43
842.83	228.42
843.14	228.48
843.46	228.46
843.77	228.40
844.08	228.41
844.40	228.35
844.71	228.34
845.03	228.30
845.34	228.28
845.65	228.29
845.97	228.30
846.28	228.31
846.60	228.28
846.91	228.24
847.22	228.21
847.54	228.19
847.85	228.14
848.16	228.12
848.48	228.10
848.79	228.08
849.10	228.10
849.42	228.07
849.73	227.97
850.04	227.96
850.36	227.92
850.67	227.86
850.98	227.83
851.30	227.81
851.61	227.87
851.92	227.83
852.23	227.84
852.55	227.84
852.86	227.85
853.17	227.85
853.49	227.87
853.80	227.89
854.11	227.90
854.42	227.92
854.74	227.90
855.05	227.86
855.36	227.84
855.67	227.83
855.99	227.84
856.30	227.92
856.61	227.90
856.92	227.90
857.23	227.95
857.55	227.94
857.86	227.92
858.17	227.87
858.48	227.87
858.79	227.83
859.11	227.82
859.42	227.81
859.73	227.79
860.04	227.76
860.35	227.71
860.66	227.63
860.98	227.58
861.29	227.58
861.60	227.59
861.91	227.58
862.22	227.56
862.53	227.53
862.84	227.41
863.16	227.43
863.47	227.41
863.78	227.36
864.09	227.38
864.40	227.41
864.71	227.43
865.02	227.42
865.33	227.40
865.64	227.36
865.95	227.35
866.27	227.42
866.58	227.42
866.89	227.43
867.20	227.48
867.51	227.48
867.82	227.49
868.13	227.54
868.44	227.53
868.75	227.54
869.06	227.57
869.37	227.60
869.68	227.57
869.99	227.60
870.30	227.62
870.61	227.61
870.92	227.61
871.23	227.61
871.54	227.65
871.85	227.70
872.16	227.74
872.47	227.77
872.78	227.71
873.09	227.77
873.40	227.78
873.71	227.78
874.02	227.84
874.33	227.82
874.64	227.78
874.95	227.80
875.26	227.78
875.56	227.77
875.87	227.80
876.18	227.81
876.49	227.88
876.80	227.89
877.11	227.89
877.42	227.90
877.73	227.85
878.04	227.84
878.35	227.85
878.66	227.84
878.96	227.80
879.27	227.77
879.58	227.75
879.89	227.76
880.20	227.80
880.51	227.78
880.82	227.77
881.12	227.76
881.43	227.75
881.74	227.76
882.05	227.76
882.36	227.74
882.67	227.75
882.97	227.64
883.28	227.64
883.59	227.62
883.90	227.61
884.21	227.65
884.51	227.62
884.82	227.59
885.13	227.58
885.44	227.62
885.74	227.61
886.05	227.58
886.36	227.54
886.67	227.47
886.98	227.48
887.28	227.50
887.59	227.50
887.90	227.49
888.20	227.47
888.51	227.50
888.82	227.48
889.13	227.47
889.43	227.52
889.74	227.50
890.05	227.47
890.35	227.46
890.66	227.42
890.97	227.43
891.28	227.41
891.58	227.43
891.89	227.39
892.20	227.40
892.50	227.37
892.81	227.33
893.12	227.32
893.42	227.27
893.73	227.23
894.04	227.24
894.34	227.23
894.65	227.21
894.95	227.20
895.26	227.19
895.57	227.23
895.87	227.17
896.18	227.18
896.48	227.19
896.79	227.17
897.10	227.19
897.40	227.18
897.71	227.19
898.01	227.13
898.32	227.15
898.63	227.16
898.93	227.15
899.24	227.20
899.54	227.19
899.85	227.21
900.15	227.20
900.46	227.16
900.76	227.17
901.07	227.18
901.38	227.18
901.68	227.19
901.99	227.15
902.29	227.17
902.60	227.15
902.90	227.17
903.21	227.16
903.51	227.16
903.82	227.18
904.12	227.20
904.43	227.22
904.73	227.22
905.03	227.20
905.34	227.31
905.64	227.32
905.95	227.32
906.25	227.33
906.56	227.35
906.86	227.36
907.17	227.36
907.47	227.37
907.77	227.32
908.08	227.32
908.38	227.33
908.69	227.31
908.99	227.36
909.30	227.36
909.60	227.37
909.90	227.38
910.21	227.38
910.51	227.34
910.81	227.33
911.12	227.35
911.42	227.36
911.73	227.28
912.03	227.29
912.33	227.33
912.64	227.30
912.94	227.30
913.24	227.31
913.55	227.31
913.85	227.30
914.15	227.33
914.46	227.31
914.76	227.31
915.06	227.33
915.37	227.28
915.67	227.27
915.97	227.28
916.27	227.26
916.58	227.23
916.88	227.22
917.18	227.22
917.49	227.27
917.79	227.26
918.09	227.27
918.39	227.27
918.70	227.27
919.00	227.27
919.30	227.30
919.60	227.29
919.91	227.26
920.21	227.24
920.51	227.22
920.81	227.20
921.12	227.21
921.42	227.18
921.72	227.19
922.02	227.18
922.32	227.19
922.63	227.20
922.93	227.23
923.23	227.22
923.53	227.21
923.83	227.12
924.13	227.12
924.44	227.09
924.74	227.16
925.04	227.13
925.34	227.11
925.64	227.04
925.94	227.03
926.24	227.09
926.55	227.12
926.85	227.11
927.15	227.12
927.45	227.11
927.75	227.12
928.05	227.11
928.35	227.11
928.65	227.08
928.95	227.06
929.26	227.03
929.56	227.05
929.86	227.04
930.16	227.03
930.46	227.03
930.76	227.02
931.06	226.90
931.36	226.91
931.66	226.96
931.96	227.00
932.26	227.00
932.56	226.95
932.86	226.90
933.16	226.92
933.46	226.91
933.76	226.88
934.06	226.88
934.36	226.90
934.66	226.90
934.96	226.88
935.26	226.90
935.56	226.90
935.86	226.90
936.16	226.92
936.46	226.92
936.76	226.89
937.06	226.92
937.36	226.92
937.66	226.90
937.96	226.89
938.26	226.85
938.56	226.83
938.86	226.84
939.16	226.91
939.46	226.89
939.76	226.90
940.06	226.90
940.35	226.91
940.65	226.88
940.95	226.86
941.25	226.87
941.55	226.86
941.85	226.87
942.15	226.89
942.45	226.92
942.75	226.91
943.04	226.95
943.34	226.96
943.64	226.96
943.94	226.98
944.24	226.96
944.54	227.01
944.84	227.05
945.13	227.05
945.43	227.02
945.73	227.06
946.03	227.07
946.33	227.08
946.62	227.08
946.92	227.05
947.22	227.08
947.52	227.08
947.82	227.08
948.11	227.07
948.41	227.06
948.71	226.99
949.01	227.04
949.31	227.05
949.60	227.02
949.90	227.06
950.20	227.08
950.50	227.11
950.79	227.11
951.09	227.13
951.39	227.15
951.69	227.16
951.98	227.18
952.28	227.19
952.58	227.20
952.87	227.20
953.17	227.25
953.47	227.28
953.76	227.32
954.06	227.34
954.36	227.33
954.66	227.35
954.95	227.38
955.25	227.38
955.55	227.42
955.84	227.43
956.14	227.44
956.44	227.44
956.73	227.43
957.03	227.42
957.32	227.40
957.62	227.41
957.92	227.42
958.21	227.41
958.51	227.50
958.81	227.55
959.10	227.54
959.40	227.57
959.69	227.57
959.99	227.54
960.29	227.57
960.58	227.59
960.88	227.62
961.17	227.63
961.47	227.64
961.76	227.55
962.06	227.57
962.36	227.55
962.65	227.54
962.95	227.52
963.24	227.50
963.54	227.50
963.83	227.44
964.13	227.40
964.42	227.38
964.72	227.26
965.01	227.21
965.31	227.21
965.60	227.16
965.90	227.21
966.19	227.20
966.49	227.17
966.78	227.16
967.08	227.14
967.37	227.12
967.67	227.10
967.96	227.13
968.26	227.13
968.55	227.14
968.85	227.11
969.14	227.11
969.43	227.11
969.73	227.10
970.02	227.07
970.32	227.09
970.61	227.09
970.91	227.09
971.20	227.07
971.49	227.05
971.79	227.06
972.08	226.98
972.38	226.96
972.67	226.96
972.96	226.96
973.26	226.91
973.55	226.99
973.85	226.98
974.14	226.99
974.43	226.97
974.73	226.94
975.02	226.94
975.31	226.94
975.61	226.95
975.90	226.94
976.19	226.99
976.49	226.99
976.78	226.98
977.07	226.96
977.37	226.99
977.66	227.01
977.95	226.97
978.24	227.01
978.54	227.03
978.83	226.99
979.12	226.97
979.42	227.02
979.71	226.95
980.00	226.92
980.29	226.93
980.59	226.94
980.88	226.98
981.17	226.98
981.46	226.98
981.76	227.00
982.05	227.07
982.34	227.06
982.63	227.06
982.93	227.08
983.22	227.13
983.51	227.16
983.80	227.18
984.09	227.22
984.39	227.19
984.68	227.21
984.97	227.25
985.26	227.26
985.55	227.25
985.85	227.26
986.14	227.26
986.43	227.27
986.72	227.25
987.01	227.22
987.30	227.22
987.59	227.20
987.89	227.20
988.18	227.17
988.47	227.15
988.76	227.15
989.05	227.14
989.34	227.12
989.63	227.16
989.92	227.12
990.22	227.11
990.51	227.14
990.80	227.12
991.09	227.11
991.38	227.12
991.67	227.11
991.96	227.10
992.25	227.13
992.54	227.10
992.83	227.11
993.12	227.11
993.41	227.10
993.70	227.17
993.99	227.16
994.28	227.19
994.58	227.21
994.87	227.20
995.16	227.21
995.45	227.21
995.74	227.16
996.03	227.20
996.32	227.23
996.61	227.26
996.90	227.25
997.19	227.26
997.48	227.21
997.77	227.21
998.06	227.21
998.34	227.21
998.63	227.20
998.92	227.21
999.21	227.21
999.50	227.22
999.79	227.18
1000.08	227.16
1000.37	227.12
1000.66	227.12
1000.95	227.15
1001.24	227.15
1001.53	227.15
1001.82	227.13
1002.11	227.10
1002.40	227.10
1002.68	227.09
1002.97	227.16
1003.26	227.13
1003.55	227.13
1003.84	227.11
1004.13	227.15
1004.42	227.13
1004.71	227.14
1004.99	227.13
1005.28	227.14
1005.57	227.13
1005.86	227.11
1006.15	227.10
1006.44	227.09
1006.72	227.06
1007.01	227.02
1007.30	227.00
1007.59	226.99
1007.88	227.00
1008.17	226.99
1008.45	226.95
1008.74	226.91
1009.03	226.87
1009.32	226.89
1009.60	226.88
1009.89	226.89
1010.18	226.85
1010.47	226.84
1010.76	226.84
1011.04	226.82
1011.33	226.85
1011.62	226.86
1011.91	226.86
1012.19	226.87
1012.48	226.89
1012.77	226.92
1013.05	226.97
1013.34	226.95
1013.63	226.94
1013.92	226.95
1014.20	226.92
1014.49	226.92
1014.78	226.93
1015.06	226.91
1015.35	226.94
1015.64	226.98
1015.92	227.01
1016.21	227.02
1016.50	227.03
1016.78	227.07
1017.07	227.08
1017.36	227.06
1017.64	227.06
1017.93	227.11
1018.22	227.10
1018.50	227.06
1018.79	227.06
1019.08	227.04
1019.36	227.01
1019.65	227.03
1019.93	227.10
1020.22	227.16
1020.51	227.21
1020.79	227.21
1021.08	226.65
1021.36	226.41
1021.65	227.16
1021.94	227.28
1022.22	226.37
1022.51	227.22
1022.79	228.16
1023.08	227.61
1023.36	228.21
1023.65	226.98
>>>>>End Processed Spectral Data<<<<<
