SpectraSuite Data File
++++++++++++++++++++++++++++++++++++
Date: Fri Feb 01 14:50:46 EST 2013
User: group
Dark Spectrum Present: No
Reference Spectrum Present: No
Number of Sampled Component Spectra: 1
Spectrometers: USB2E7196
Integration Time (usec): 35000 (USB2E7196)
Spectra Averaged: 100 (USB2E7196)
Boxcar Smoothing: 10 (USB2E7196)
Correct for Electrical Dark: No (USB2E7196)
Strobe/Lamp Enabled: No (USB2E7196)
Correct for Detector Non-linearity: No (USB2E7196)
Correct for Stray Light: No (USB2E7196)
Number of Pixels in Processed Spectrum: 2048
>>>>>Begin Processed Spectral Data<<<<<
339.09	0.00
339.48	215.80
339.86	216.68
340.24	218.92
340.63	220.35
341.01	222.65
341.39	223.36
341.78	223.60
342.16	225.33
342.54	225.39
342.93	214.19
343.31	225.00
343.69	225.55
344.07	226.05
344.46	226.44
344.84	226.81
345.22	227.05
345.60	227.28
345.99	227.49
346.37	227.61
346.75	227.73
347.13	227.78
347.52	227.84
347.90	227.91
348.28	227.93
348.66	227.97
349.05	227.91
349.43	227.96
349.81	227.98
350.19	228.01
350.57	228.08
350.96	228.17
351.34	228.28
351.72	228.35
352.10	228.44
352.48	228.53
352.87	228.59
353.25	228.67
353.63	228.74
354.01	228.78
354.39	228.85
354.77	228.91
355.15	229.04
355.54	229.10
355.92	229.15
356.30	229.21
356.68	229.33
357.06	229.43
357.44	229.45
357.82	229.51
358.20	229.62
358.58	229.67
358.97	229.72
359.35	229.75
359.73	229.84
360.11	229.87
360.49	229.90
360.87	229.90
361.25	229.92
361.63	229.97
362.01	230.04
362.39	230.06
362.77	230.08
363.15	230.04
363.53	230.05
363.91	230.04
364.29	230.03
364.67	229.93
365.05	229.92
365.43	229.93
365.81	229.93
366.19	229.95
366.57	229.94
366.95	229.93
367.33	229.90
367.71	229.84
368.09	229.83
368.47	229.81
368.85	229.80
369.23	229.80
369.61	229.71
369.99	229.66
370.37	229.64
370.75	229.66
371.13	229.63
371.51	229.55
371.89	229.51
372.27	229.47
372.65	229.42
373.03	229.33
373.41	229.26
373.78	229.17
374.16	229.02
374.54	228.93
374.92	228.83
375.30	228.76
375.68	228.65
376.06	228.57
376.44	228.48
376.82	228.43
377.19	228.35
377.57	228.28
377.95	228.21
378.33	228.14
378.71	228.01
379.09	227.93
379.47	227.83
379.84	227.75
380.22	227.65
380.60	227.59
380.98	227.56
381.36	227.47
381.73	227.41
382.11	227.37
382.49	227.30
382.87	227.21
383.25	227.17
383.62	227.21
384.00	227.17
384.38	227.13
384.76	227.06
385.13	227.03
385.51	226.94
385.89	226.84
386.27	226.77
386.64	226.70
387.02	226.65
387.40	226.65
387.78	226.64
388.15	226.61
388.53	226.55
388.91	226.49
389.29	226.49
389.66	226.46
390.04	226.43
390.42	226.45
390.79	226.45
391.17	226.43
391.55	226.32
391.92	226.30
392.30	226.30
392.68	226.29
393.05	226.28
393.43	226.33
393.81	226.39
394.18	226.40
394.56	226.43
394.94	226.50
395.31	226.50
395.69	226.56
396.06	226.60
396.44	226.65
396.82	226.72
397.19	226.84
397.57	226.92
397.95	227.01
398.32	227.05
398.70	227.16
399.07	227.24
399.45	227.34
399.82	227.41
400.20	227.48
400.58	227.57
400.95	227.64
401.33	227.76
401.70	227.92
402.08	228.05
402.45	228.18
402.83	228.31
403.20	228.44
403.58	228.58
403.95	228.75
404.33	228.95
404.71	229.08
405.08	229.22
405.46	229.37
405.83	229.49
406.21	229.67
406.58	229.84
406.96	230.04
407.33	230.25
407.70	230.50
408.08	230.80
408.45	231.02
408.83	231.28
409.20	231.51
409.58	231.69
409.95	231.95
410.33	232.21
410.70	232.44
411.08	232.73
411.45	233.01
411.82	233.29
412.20	233.62
412.57	234.04
412.95	234.34
413.32	234.75
413.69	235.20
414.07	235.63
414.44	236.11
414.82	236.56
415.19	237.11
415.56	237.64
415.94	238.18
416.31	238.82
416.68	239.46
417.06	240.18
417.43	240.86
417.81	241.63
418.18	242.43
418.55	243.26
418.93	244.16
419.30	245.05
419.67	245.98
420.04	246.94
420.42	247.91
420.79	249.10
421.16	250.26
421.54	251.41
421.91	252.63
422.28	253.88
422.66	255.22
423.03	256.51
423.40	257.84
423.77	259.20
424.15	260.62
424.52	262.06
424.89	263.65
425.26	265.22
425.64	266.60
426.01	268.17
426.38	269.80
426.75	271.41
427.13	273.13
427.50	274.91
427.87	276.76
428.24	278.60
428.61	280.34
428.99	282.28
429.36	284.39
429.73	286.42
430.10	288.43
430.47	290.50
430.85	292.60
431.22	294.82
431.59	297.23
431.96	299.46
432.33	301.95
432.70	304.33
433.08	307.07
433.45	309.76
433.82	312.40
434.19	315.36
434.56	318.16
434.93	320.81
435.30	323.43
435.68	326.35
436.05	329.22
436.42	332.00
436.79	334.49
437.16	337.14
437.53	339.97
437.90	342.75
438.27	345.44
438.64	348.25
439.01	350.82
439.38	353.01
439.75	355.18
440.13	357.67
440.50	360.00
440.87	361.85
441.24	363.81
441.61	365.91
441.98	367.39
442.35	369.23
442.72	371.10
443.09	372.95
443.46	373.90
443.83	374.48
444.20	375.01
444.57	375.86
444.94	376.16
445.31	376.47
445.68	376.88
446.05	376.97
446.42	376.59
446.79	376.21
447.16	375.81
447.53	375.50
447.90	374.36
448.27	373.17
448.64	371.62
449.01	370.47
449.37	368.53
449.74	366.62
450.11	364.40
450.48	361.92
450.85	359.37
451.22	357.29
451.59	355.23
451.96	353.25
452.33	350.65
452.70	348.32
453.07	345.52
453.43	342.60
453.80	339.85
454.17	337.22
454.54	334.67
454.91	331.94
455.28	329.28
455.65	326.76
456.02	324.37
456.38	322.26
456.75	319.60
457.12	317.36
457.49	315.15
457.86	312.97
458.23	311.09
458.59	309.05
458.96	306.94
459.33	305.14
459.70	303.29
460.07	301.77
460.43	300.07
460.80	298.50
461.17	297.06
461.54	295.56
461.91	294.16
462.27	292.74
462.64	291.53
463.01	290.21
463.38	288.93
463.74	287.57
464.11	286.38
464.48	285.37
464.85	284.27
465.21	283.40
465.58	282.47
465.95	281.41
466.32	280.53
466.68	279.61
467.05	278.72
467.42	277.81
467.78	276.90
468.15	275.99
468.52	275.27
468.88	274.42
469.25	273.62
469.62	272.98
469.98	272.27
470.35	271.60
470.72	270.96
471.08	270.29
471.45	269.73
471.82	269.18
472.18	268.52
472.55	268.09
472.92	267.53
473.28	267.05
473.65	266.59
474.02	266.11
474.38	265.75
474.75	265.41
475.11	265.04
475.48	264.75
475.85	264.49
476.21	264.28
476.58	264.08
476.94	263.93
477.31	263.70
477.67	263.51
478.04	263.41
478.41	263.32
478.77	263.35
479.14	263.24
479.50	263.22
479.87	263.29
480.23	263.32
480.60	263.38
480.96	263.44
481.33	263.63
481.69	263.80
482.06	263.94
482.42	264.11
482.79	264.39
483.15	264.69
483.52	265.10
483.88	265.40
484.25	265.74
484.61	266.13
484.98	266.61
485.34	267.18
485.71	267.72
486.07	268.29
486.44	268.82
486.80	269.55
487.17	270.25
487.53	271.07
487.90	271.89
488.26	272.79
488.62	273.75
488.99	274.70
489.35	275.72
489.72	276.85
490.08	278.00
490.44	279.20
490.81	280.49
491.17	281.81
491.54	283.30
491.90	284.82
492.26	286.41
492.63	288.09
492.99	289.83
493.36	291.69
493.72	293.74
494.08	295.85
494.45	298.02
494.81	300.36
495.17	302.73
495.54	305.29
495.90	307.98
496.26	310.76
496.63	313.71
496.99	316.79
497.35	320.02
497.72	323.46
498.08	326.93
498.44	330.61
498.80	334.54
499.17	338.49
499.53	342.65
499.89	347.01
500.26	351.47
500.62	356.09
500.98	361.09
501.34	366.16
501.71	371.45
502.07	376.87
502.43	382.44
502.79	388.27
503.16	394.34
503.52	400.57
503.88	406.98
504.24	413.53
504.60	420.39
504.97	427.49
505.33	434.76
505.69	442.51
506.05	450.26
506.41	458.09
506.78	466.27
507.14	474.68
507.50	483.36
507.86	492.34
508.22	501.54
508.59	510.68
508.95	520.20
509.31	529.97
509.67	540.04
510.03	550.29
510.39	560.81
510.75	571.55
511.12	582.42
511.48	593.64
511.84	605.05
512.20	616.57
512.56	628.48
512.92	640.61
513.28	652.86
513.64	665.34
514.00	677.97
514.37	690.88
514.73	703.88
515.09	716.91
515.45	730.20
515.81	743.82
516.17	757.76
516.53	771.83
516.89	785.96
517.25	800.10
517.61	814.54
517.97	828.95
518.33	843.47
518.69	858.32
519.05	873.40
519.41	888.57
519.77	904.04
520.13	919.44
520.49	934.85
520.85	950.19
521.21	965.88
521.57	982.18
521.93	997.96
522.29	1014.48
522.65	1030.66
523.01	1046.92
523.37	1062.96
523.73	1079.23
524.09	1095.39
524.45	1111.75
524.81	1128.50
525.17	1145.33
525.53	1162.31
525.89	1179.14
526.25	1195.99
526.61	1212.39
526.97	1229.21
527.33	1245.67
527.68	1262.41
528.04	1278.89
528.40	1295.69
528.76	1312.80
529.12	1329.36
529.48	1346.27
529.84	1362.36
530.20	1379.17
530.56	1396.28
530.91	1413.76
531.27	1430.54
531.63	1447.12
531.99	1463.64
532.35	1479.66
532.71	1495.56
533.07	1511.82
533.42	1527.81
533.78	1543.79
534.14	1560.03
534.50	1575.41
534.86	1591.33
535.21	1606.45
535.57	1622.39
535.93	1637.85
536.29	1652.77
536.65	1668.01
537.00	1682.82
537.36	1698.13
537.72	1712.79
538.08	1727.23
538.44	1741.05
538.79	1754.95
539.15	1768.69
539.51	1782.67
539.87	1797.00
540.22	1810.88
540.58	1824.78
540.94	1838.16
541.29	1851.16
541.65	1863.85
542.01	1877.17
542.37	1889.52
542.72	1902.06
543.08	1913.94
543.44	1926.46
543.79	1937.69
544.15	1948.64
544.51	1960.27
544.87	1971.21
545.22	1981.94
545.58	1992.22
545.94	2001.96
546.29	2011.93
546.65	2021.70
547.01	2030.81
547.36	2039.54
547.72	2047.98
548.07	2055.74
548.43	2063.83
548.79	2071.94
549.14	2079.56
549.50	2086.89
549.86	2094.69
550.21	2101.83
550.57	2109.05
550.92	2115.46
551.28	2122.45
551.64	2129.52
551.99	2136.01
552.35	2142.20
552.70	2148.24
553.06	2154.10
553.41	2160.44
553.77	2166.45
554.13	2172.43
554.48	2178.57
554.84	2183.90
555.19	2189.16
555.55	2194.24
555.90	2198.73
556.26	2203.46
556.61	2208.18
556.97	2212.20
557.32	2216.38
557.68	2220.48
558.03	2224.50
558.39	2228.22
558.74	2232.64
559.10	2236.32
559.45	2239.75
559.81	2243.88
560.16	2247.54
560.52	2250.52
560.87	2253.79
561.23	2256.16
561.58	2258.96
561.94	2261.38
562.29	2263.70
562.64	2266.07
563.00	2268.66
563.35	2271.97
563.71	2274.87
564.06	2277.68
564.42	2280.55
564.77	2282.64
565.12	2284.78
565.48	2286.61
565.83	2288.25
566.19	2289.29
566.54	2290.11
566.89	2291.08
567.25	2291.48
567.60	2292.71
567.96	2294.31
568.31	2294.90
568.66	2295.70
569.02	2296.13
569.37	2296.17
569.72	2296.83
570.08	2296.87
570.43	2296.49
570.78	2295.54
571.14	2293.77
571.49	2292.27
571.84	2291.70
572.20	2290.34
572.55	2289.02
572.90	2287.20
573.26	2285.54
573.61	2283.80
573.96	2281.76
574.31	2278.60
574.67	2275.30
575.02	2271.40
575.37	2267.74
575.72	2263.72
576.08	2260.37
576.43	2256.86
576.78	2253.02
577.13	2249.51
577.49	2246.15
577.84	2242.57
578.19	2238.70
578.54	2234.79
578.90	2230.31
579.25	2224.56
579.60	2219.51
579.95	2214.34
580.30	2209.16
580.66	2203.74
581.01	2198.55
581.36	2193.46
581.71	2189.04
582.06	2184.49
582.42	2179.86
582.77	2174.47
583.12	2169.76
583.47	2164.70
583.82	2159.45
584.17	2154.03
584.53	2148.46
584.88	2142.63
585.23	2136.67
585.58	2131.08
585.93	2125.55
586.28	2120.72
586.63	2115.39
586.98	2110.12
587.34	2105.27
587.69	2100.22
588.04	2094.90
588.39	2089.06
588.74	2082.44
589.09	2076.27
589.44	2069.25
589.79	2062.96
590.14	2057.08
590.49	2050.33
590.84	2043.73
591.19	2037.49
591.54	2030.80
591.89	2023.17
592.25	2016.27
592.60	2009.09
592.95	2001.35
593.30	1993.89
593.65	1986.17
594.00	1979.09
594.35	1971.69
594.70	1963.57
595.05	1956.33
595.40	1949.00
595.75	1941.45
596.10	1935.12
596.45	1928.22
596.80	1921.97
597.15	1915.36
597.50	1908.28
597.85	1901.75
598.19	1895.29
598.54	1888.34
598.89	1881.83
599.24	1875.96
599.59	1869.18
599.94	1862.76
600.29	1856.37
600.64	1849.80
600.99	1842.39
601.34	1835.59
601.69	1828.63
602.04	1821.69
602.39	1814.31
602.74	1807.46
603.08	1800.69
603.43	1793.95
603.78	1786.68
604.13	1779.53
604.48	1772.21
604.83	1765.41
605.18	1758.50
605.53	1750.35
605.87	1742.34
606.22	1735.12
606.57	1727.30
606.92	1719.96
607.27	1712.72
607.62	1705.95
607.96	1698.70
608.31	1692.05
608.66	1684.43
609.01	1676.92
609.36	1669.57
609.70	1661.59
610.05	1653.57
610.40	1646.03
610.75	1637.86
611.10	1630.30
611.44	1622.08
611.79	1614.06
612.14	1605.46
612.49	1596.34
612.83	1588.18
613.18	1580.10
613.53	1571.97
613.88	1563.39
614.22	1555.32
614.57	1546.88
614.92	1538.89
615.27	1531.39
615.61	1523.21
615.96	1515.31
616.31	1507.75
616.65	1500.32
617.00	1492.79
617.35	1485.26
617.70	1476.99
618.04	1468.42
618.39	1460.30
618.74	1452.76
619.08	1444.80
619.43	1437.29
619.78	1430.53
620.12	1423.45
620.47	1415.91
620.82	1407.90
621.16	1400.62
621.51	1393.17
621.85	1385.63
622.20	1377.32
622.55	1369.18
622.89	1361.40
623.24	1353.84
623.59	1346.58
623.93	1339.22
624.28	1332.07
624.62	1324.71
624.97	1317.52
625.32	1310.84
625.66	1303.92
626.01	1296.77
626.35	1289.45
626.70	1281.84
627.04	1274.21
627.39	1266.46
627.73	1259.20
628.08	1252.32
628.43	1245.20
628.77	1237.91
629.12	1230.55
629.46	1223.30
629.81	1215.92
630.15	1208.86
630.50	1201.56
630.84	1193.46
631.19	1185.59
631.53	1178.24
631.88	1170.65
632.22	1163.17
632.57	1156.02
632.91	1148.54
633.26	1141.17
633.60	1133.74
633.95	1126.76
634.29	1119.81
634.64	1113.23
634.98	1106.01
635.32	1099.00
635.67	1092.52
636.01	1085.96
636.36	1079.19
636.70	1072.79
637.05	1066.29
637.39	1059.91
637.73	1053.56
638.08	1047.80
638.42	1041.91
638.77	1035.58
639.11	1029.11
639.45	1022.92
639.80	1016.36
640.14	1010.10
640.49	1003.66
640.83	997.54
641.17	991.33
641.52	985.09
641.86	978.81
642.20	973.07
642.55	966.89
642.89	960.43
643.23	953.90
643.58	948.20
643.92	942.13
644.26	936.14
644.61	930.25
644.95	924.26
645.29	917.79
645.64	911.20
645.98	904.91
646.32	899.19
646.66	893.17
647.01	887.44
647.35	881.75
647.69	876.00
648.04	870.52
648.38	864.86
648.72	858.89
649.06	852.89
649.41	847.02
649.75	841.04
650.09	835.25
650.43	829.60
650.78	823.52
651.12	817.61
651.46	811.96
651.80	806.24
652.14	800.90
652.49	795.57
652.83	790.39
653.17	784.79
653.51	779.08
653.85	773.77
654.20	768.23
654.54	762.29
654.88	756.63
655.22	750.79
655.56	745.11
655.90	739.76
656.25	734.51
656.59	729.22
656.93	724.24
657.27	719.08
657.61	713.69
657.95	708.67
658.29	703.68
658.64	698.49
658.98	693.21
659.32	687.85
659.66	682.72
660.00	677.52
660.34	672.59
660.68	667.77
661.02	662.80
661.36	658.09
661.70	653.70
662.05	649.36
662.39	645.11
662.73	640.78
663.07	636.46
663.41	632.07
663.75	627.62
664.09	623.10
664.43	618.84
664.77	614.78
665.11	610.55
665.45	606.49
665.79	602.49
666.13	598.44
666.47	594.34
666.81	590.21
667.15	586.07
667.49	582.22
667.83	578.45
668.17	574.53
668.51	570.53
668.85	566.48
669.19	562.70
669.53	558.92
669.87	555.04
670.21	551.35
670.55	547.79
670.89	544.44
671.23	541.07
671.57	537.58
671.91	534.02
672.25	530.59
672.58	527.10
672.92	523.71
673.26	520.57
673.60	517.49
673.94	514.35
674.28	511.54
674.62	508.70
674.96	505.64
675.30	502.84
675.64	500.01
675.97	497.31
676.31	494.50
676.65	491.57
676.99	488.92
677.33	486.12
677.67	483.35
678.01	480.37
678.34	477.43
678.68	474.56
679.02	471.83
679.36	469.11
679.70	466.41
680.04	463.71
680.37	460.89
680.71	458.12
681.05	455.62
681.39	452.96
681.73	450.26
682.06	447.79
682.40	445.25
682.74	442.70
683.08	440.16
683.42	437.62
683.75	435.20
684.09	432.66
684.43	430.23
684.77	427.82
685.10	425.43
685.44	423.15
685.78	420.90
686.12	418.73
686.45	416.48
686.79	414.21
687.13	412.03
687.46	409.90
687.80	407.79
688.14	405.63
688.48	403.68
688.81	401.56
689.15	399.42
689.49	397.31
689.82	395.28
690.16	393.22
690.50	391.32
690.83	389.39
691.17	387.48
691.51	385.61
691.84	383.75
692.18	381.89
692.52	379.91
692.85	378.01
693.19	376.12
693.52	374.33
693.86	372.57
694.20	370.80
694.53	368.99
694.87	367.17
695.21	365.40
695.54	363.53
695.88	361.77
696.21	360.08
696.55	358.42
696.88	356.76
697.22	355.15
697.56	353.51
697.89	351.86
698.23	350.25
698.56	348.66
698.90	347.13
699.23	345.45
699.57	343.99
699.90	342.48
700.24	340.97
700.58	339.45
700.91	337.99
701.25	336.61
701.58	335.25
701.92	333.90
702.25	332.52
702.59	331.17
702.92	329.92
703.26	328.60
703.59	327.32
703.93	326.16
704.26	324.96
704.60	323.75
704.93	322.52
705.26	321.31
705.60	320.18
705.93	319.01
706.27	318.03
706.60	316.99
706.94	315.89
707.27	314.76
707.61	313.72
707.94	312.69
708.27	311.57
708.61	310.52
708.94	309.51
709.28	308.52
709.61	307.57
709.94	306.61
710.28	305.59
710.61	304.66
710.95	303.57
711.28	302.71
711.61	301.74
711.95	300.83
712.28	299.89
712.61	298.89
712.95	297.96
713.28	297.09
713.61	296.18
713.95	295.32
714.28	294.52
714.61	293.63
714.95	292.81
715.28	291.96
715.61	291.10
715.95	290.29
716.28	289.45
716.61	288.65
716.95	287.83
717.28	287.11
717.61	286.31
717.94	285.59
718.28	284.73
718.61	284.00
718.94	283.29
719.27	282.64
719.61	282.03
719.94	281.43
720.27	280.71
720.60	280.06
720.94	279.45
721.27	278.82
721.60	278.27
721.93	277.67
722.27	277.13
722.60	276.58
722.93	276.01
723.26	275.51
723.59	274.94
723.93	274.38
724.26	273.86
724.59	273.32
724.92	272.80
725.25	272.37
725.59	271.85
725.92	271.39
726.25	270.87
726.58	270.35
726.91	269.85
727.24	269.38
727.57	268.93
727.91	268.44
728.24	268.01
728.57	267.54
728.90	267.10
729.23	266.62
729.56	266.22
729.89	265.76
730.22	265.25
730.55	264.78
730.89	264.36
731.22	263.89
731.55	263.50
731.88	263.08
732.21	262.62
732.54	262.19
732.87	261.75
733.20	261.37
733.53	260.99
733.86	260.63
734.19	260.23
734.52	259.86
734.85	259.55
735.18	259.11
735.51	258.74
735.84	258.36
736.17	258.04
736.50	257.62
736.83	257.37
737.16	257.08
737.49	256.75
737.82	256.39
738.15	256.10
738.48	255.74
738.81	255.42
739.14	255.08
739.47	254.77
739.80	254.45
740.13	254.15
740.46	253.79
740.79	253.45
741.12	253.16
741.45	252.83
741.78	252.46
742.11	252.21
742.44	251.87
742.77	251.60
743.10	251.29
743.43	251.01
743.75	250.66
744.08	250.49
744.41	250.24
744.74	250.00
745.07	249.67
745.40	249.43
745.73	249.19
746.06	248.95
746.39	248.71
746.71	248.44
747.04	248.22
747.37	247.98
747.70	247.77
748.03	247.52
748.36	247.34
748.68	247.13
749.01	246.87
749.34	246.69
749.67	246.44
750.00	246.26
750.33	246.07
750.65	245.85
750.98	245.55
751.31	245.33
751.64	245.13
751.97	244.97
752.29	244.77
752.62	244.54
752.95	244.35
753.28	244.11
753.60	243.92
753.93	243.75
754.26	243.58
754.59	243.35
754.91	243.12
755.24	242.89
755.57	242.70
755.90	242.54
756.22	242.34
756.55	242.15
756.88	241.96
757.20	241.78
757.53	241.57
757.86	241.39
758.19	241.23
758.51	241.06
758.84	240.89
759.17	240.70
759.49	240.54
759.82	240.43
760.15	240.31
760.47	240.20
760.80	239.99
761.13	239.85
761.45	239.71
761.78	239.61
762.11	239.49
762.43	239.36
762.76	239.20
763.08	239.10
763.41	238.97
763.74	238.83
764.06	238.68
764.39	238.56
764.71	238.42
765.04	238.26
765.37	238.11
765.69	237.95
766.02	237.82
766.34	237.70
766.67	237.53
767.00	237.43
767.32	237.35
767.65	237.28
767.97	237.13
768.30	237.02
768.62	236.90
768.95	236.79
769.27	236.68
769.60	236.61
769.92	236.45
770.25	236.36
770.57	236.22
770.90	236.15
771.22	236.04
771.55	235.91
771.87	235.85
772.20	235.72
772.52	235.69
772.85	235.70
773.17	235.60
773.50	235.50
773.82	235.38
774.15	235.21
774.47	235.09
774.80	234.99
775.12	234.88
775.45	234.80
775.77	234.68
776.09	234.58
776.42	234.50
776.74	234.45
777.07	234.33
777.39	234.26
777.72	234.15
778.04	234.06
778.36	233.94
778.69	233.84
779.01	233.81
779.33	233.68
779.66	233.50
779.98	233.44
780.31	233.39
780.63	233.33
780.95	233.30
781.28	233.18
781.60	233.13
781.92	233.08
782.25	233.00
782.57	232.99
782.89	232.92
783.22	232.84
783.54	232.81
783.86	232.78
784.19	232.72
784.51	232.68
784.83	232.60
785.16	232.62
785.48	232.58
785.80	232.53
786.12	232.49
786.45	232.44
786.77	232.41
787.09	232.31
787.42	232.22
787.74	232.20
788.06	232.15
788.38	232.15
788.71	232.10
789.03	232.09
789.35	232.05
789.67	232.03
789.99	232.01
790.32	231.92
790.64	231.90
790.96	231.95
791.28	231.87
791.61	231.86
791.93	231.82
792.25	231.80
792.57	231.83
792.89	231.79
793.21	231.80
793.54	231.74
793.86	231.72
794.18	231.71
794.50	231.66
794.82	231.63
795.14	231.59
795.47	231.57
795.79	231.52
796.11	231.45
796.43	231.37
796.75	231.32
797.07	231.30
797.39	231.28
797.71	231.18
798.04	231.17
798.36	231.18
798.68	231.15
799.00	231.13
799.32	231.06
799.64	231.03
799.96	231.02
800.28	231.00
800.60	230.98
800.92	230.97
801.24	230.93
801.56	230.94
801.89	230.91
802.21	230.84
802.53	230.80
802.85	230.81
803.17	230.83
803.49	230.80
803.81	230.80
804.13	230.75
804.45	230.72
804.77	230.68
805.09	230.65
805.41	230.63
805.73	230.55
806.05	230.53
806.37	230.52
806.69	230.44
807.01	230.44
807.33	230.43
807.65	230.36
807.97	230.41
808.28	230.34
808.60	230.31
808.92	230.29
809.24	230.35
809.56	230.30
809.88	230.27
810.20	230.22
810.52	230.16
810.84	230.11
811.16	230.06
811.48	230.07
811.80	230.05
812.12	230.01
812.43	230.00
812.75	229.95
813.07	229.91
813.39	229.88
813.71	229.82
814.03	229.76
814.35	229.72
814.67	229.62
814.98	229.59
815.30	229.58
815.62	229.58
815.94	229.46
816.26	229.46
816.58	229.40
816.89	229.37
817.21	229.35
817.53	229.33
817.85	229.30
818.17	229.25
818.48	229.20
818.80	229.20
819.12	229.18
819.44	229.14
819.76	229.09
820.07	229.09
820.39	229.04
820.71	229.05
821.03	229.03
821.34	229.01
821.66	229.00
821.98	228.97
822.30	228.92
822.61	228.96
822.93	228.92
823.25	228.89
823.57	228.90
823.88	228.89
824.20	228.88
824.52	228.90
824.83	228.88
825.15	228.85
825.47	228.81
825.79	228.82
826.10	228.80
826.42	228.84
826.74	228.83
827.05	228.88
827.37	228.87
827.69	228.88
828.00	228.88
828.32	228.90
828.64	228.88
828.95	228.92
829.27	228.91
829.58	228.90
829.90	228.91
830.22	228.92
830.53	228.86
830.85	228.89
831.17	228.87
831.48	228.87
831.80	228.86
832.11	228.85
832.43	228.85
832.75	228.87
833.06	228.88
833.38	228.84
833.69	228.82
834.01	228.84
834.32	228.83
834.64	228.82
834.96	228.82
835.27	228.82
835.59	228.80
835.90	228.78
836.22	228.78
836.53	228.79
836.85	228.79
837.16	228.90
837.48	228.86
837.79	228.89
838.11	228.93
838.42	228.93
838.74	228.95
839.05	228.93
839.37	228.90
839.68	228.88
840.00	228.90
840.31	228.91
840.63	228.86
840.94	228.82
841.26	228.78
841.57	228.74
841.88	228.75
842.20	228.73
842.51	228.69
842.83	228.66
843.14	228.71
843.46	228.69
843.77	228.60
844.08	228.60
844.40	228.53
844.71	228.48
845.03	228.48
845.34	228.45
845.65	228.44
845.97	228.44
846.28	228.39
846.60	228.37
846.91	228.34
847.22	228.35
847.54	228.39
847.85	228.40
848.16	228.43
848.48	228.40
848.79	228.40
849.10	228.43
849.42	228.41
849.73	228.30
850.04	228.26
850.36	228.24
850.67	228.24
850.98	228.23
851.30	228.22
851.61	228.20
851.92	228.18
852.23	228.20
852.55	228.17
852.86	228.20
853.17	228.15
853.49	228.18
853.80	228.18
854.11	228.17
854.42	228.15
854.74	228.13
855.05	228.11
855.36	228.07
855.67	228.06
855.99	228.07
856.30	228.18
856.61	228.17
856.92	228.18
857.23	228.15
857.55	228.15
857.86	228.13
858.17	228.15
858.48	228.15
858.79	228.09
859.11	228.13
859.42	228.11
859.73	228.13
860.04	228.11
860.35	228.10
860.66	228.07
860.98	228.11
861.29	228.13
861.60	228.12
861.91	228.17
862.22	228.13
862.53	228.11
862.84	228.03
863.16	228.07
863.47	228.05
863.78	228.09
864.09	228.10
864.40	228.11
864.71	228.08
865.02	228.09
865.33	228.05
865.64	228.04
865.95	228.04
866.27	228.10
866.58	228.10
866.89	228.11
867.20	228.11
867.51	228.07
867.82	228.04
868.13	228.10
868.44	228.08
868.75	228.11
869.06	228.15
869.37	228.15
869.68	228.12
869.99	228.15
870.30	228.14
870.61	228.16
870.92	228.16
871.23	228.14
871.54	228.15
871.85	228.22
872.16	228.24
872.47	228.23
872.78	228.17
873.09	228.20
873.40	228.19
873.71	228.20
874.02	228.23
874.33	228.24
874.64	228.19
874.95	228.21
875.26	228.21
875.56	228.18
875.87	228.15
876.18	228.17
876.49	228.25
876.80	228.23
877.11	228.21
877.42	228.21
877.73	228.25
878.04	228.23
878.35	228.18
878.66	228.16
878.96	228.16
879.27	228.16
879.58	228.11
879.89	228.09
880.20	228.08
880.51	228.08
880.82	228.03
881.12	228.05
881.43	227.98
881.74	227.92
882.05	227.92
882.36	227.94
882.67	227.91
882.97	227.79
883.28	227.76
883.59	227.77
883.90	227.77
884.21	227.79
884.51	227.78
884.82	227.81
885.13	227.81
885.44	227.81
885.74	227.81
886.05	227.79
886.36	227.77
886.67	227.73
886.98	227.75
887.28	227.78
887.59	227.78
887.90	227.80
888.20	227.82
888.51	227.79
888.82	227.77
889.13	227.79
889.43	227.88
889.74	227.91
890.05	227.90
890.35	227.88
890.66	227.81
890.97	227.78
891.28	227.76
891.58	227.74
891.89	227.70
892.20	227.68
892.50	227.69
892.81	227.73
893.12	227.74
893.42	227.69
893.73	227.68
894.04	227.64
894.34	227.64
894.65	227.64
894.95	227.67
895.26	227.68
895.57	227.73
895.87	227.64
896.18	227.66
896.48	227.66
896.79	227.67
897.10	227.69
897.40	227.73
897.71	227.77
898.01	227.79
898.32	227.81
898.63	227.82
898.93	227.82
899.24	227.83
899.54	227.85
899.85	227.86
900.15	227.86
900.46	227.89
900.76	227.92
901.07	227.91
901.38	227.92
901.68	227.94
901.99	227.90
902.29	227.92
902.60	227.89
902.90	227.90
903.21	227.88
903.51	227.91
903.82	227.92
904.12	227.94
904.43	227.95
904.73	227.97
905.03	228.00
905.34	228.09
905.64	228.05
905.95	228.03
906.25	228.05
906.56	228.05
906.86	228.05
907.17	228.03
907.47	228.06
907.77	228.05
908.08	228.01
908.38	228.01
908.69	228.00
908.99	228.04
909.30	228.08
909.60	228.08
909.90	228.07
910.21	228.07
910.51	228.04
910.81	228.04
911.12	228.07
911.42	228.05
911.73	227.98
912.03	228.03
912.33	228.04
912.64	228.00
912.94	227.99
913.24	228.00
913.55	228.02
913.85	228.01
914.15	228.01
914.46	228.02
914.76	227.97
915.06	227.99
915.37	227.96
915.67	227.89
915.97	227.89
916.27	227.87
916.58	227.87
916.88	227.88
917.18	227.84
917.49	227.89
917.79	227.88
918.09	227.85
918.39	227.86
918.70	227.87
919.00	227.88
919.30	227.92
919.60	227.87
919.91	227.84
920.21	227.83
920.51	227.83
920.81	227.81
921.12	227.86
921.42	227.83
921.72	227.81
922.02	227.81
922.32	227.81
922.63	227.81
922.93	227.83
923.23	227.79
923.53	227.78
923.83	227.72
924.13	227.70
924.44	227.71
924.74	227.69
925.04	227.71
925.34	227.69
925.64	227.64
925.94	227.62
926.24	227.65
926.55	227.63
926.85	227.64
927.15	227.65
927.45	227.65
927.75	227.64
928.05	227.66
928.35	227.66
928.65	227.70
928.95	227.70
929.26	227.68
929.56	227.66
929.86	227.67
930.16	227.61
930.46	227.59
930.76	227.59
931.06	227.55
931.36	227.49
931.66	227.51
931.96	227.56
932.26	227.58
932.56	227.57
932.86	227.55
933.16	227.56
933.46	227.54
933.76	227.53
934.06	227.54
934.36	227.54
934.66	227.52
934.96	227.49
935.26	227.50
935.56	227.51
935.86	227.54
936.16	227.53
936.46	227.53
936.76	227.54
937.06	227.53
937.36	227.51
937.66	227.54
937.96	227.55
938.26	227.51
938.56	227.54
938.86	227.55
939.16	227.56
939.46	227.57
939.76	227.57
940.06	227.59
940.35	227.60
940.65	227.58
940.95	227.59
941.25	227.59
941.55	227.60
941.85	227.61
942.15	227.63
942.45	227.67
942.75	227.71
943.04	227.71
943.34	227.74
943.64	227.78
943.94	227.79
944.24	227.80
944.54	227.79
944.84	227.79
945.13	227.78
945.43	227.79
945.73	227.77
946.03	227.76
946.33	227.74
946.62	227.73
946.92	227.70
947.22	227.71
947.52	227.68
947.82	227.69
948.11	227.67
948.41	227.63
948.71	227.61
949.01	227.59
949.31	227.61
949.60	227.62
949.90	227.62
950.20	227.58
950.50	227.56
950.79	227.57
951.09	227.56
951.39	227.54
951.69	227.52
951.98	227.53
952.28	227.55
952.58	227.54
952.87	227.50
953.17	227.55
953.47	227.57
953.76	227.59
954.06	227.54
954.36	227.53
954.66	227.53
954.95	227.53
955.25	227.53
955.55	227.53
955.84	227.51
956.14	227.51
956.44	227.51
956.73	227.48
957.03	227.47
957.32	227.47
957.62	227.46
957.92	227.51
958.21	227.50
958.51	227.61
958.81	227.63
959.10	227.65
959.40	227.65
959.69	227.62
959.99	227.62
960.29	227.65
960.58	227.65
960.88	227.67
961.17	227.68
961.47	227.70
961.76	227.67
962.06	227.68
962.36	227.66
962.65	227.68
962.95	227.71
963.24	227.72
963.54	227.75
963.83	227.76
964.13	227.73
964.42	227.72
964.72	227.63
965.01	227.63
965.31	227.63
965.60	227.59
965.90	227.65
966.19	227.62
966.49	227.61
966.78	227.60
967.08	227.61
967.37	227.63
967.67	227.58
967.96	227.60
968.26	227.62
968.55	227.65
968.85	227.65
969.14	227.66
969.43	227.66
969.73	227.64
970.02	227.64
970.32	227.63
970.61	227.61
970.91	227.62
971.20	227.60
971.49	227.59
971.79	227.63
972.08	227.58
972.38	227.62
972.67	227.61
972.96	227.64
973.26	227.63
973.55	227.66
973.85	227.66
974.14	227.65
974.43	227.65
974.73	227.68
975.02	227.68
975.31	227.66
975.61	227.65
975.90	227.65
976.19	227.66
976.49	227.66
976.78	227.68
977.07	227.65
977.37	227.69
977.66	227.69
977.95	227.69
978.24	227.71
978.54	227.75
978.83	227.75
979.12	227.72
979.42	227.73
979.71	227.71
980.00	227.72
980.29	227.75
980.59	227.75
980.88	227.75
981.17	227.74
981.46	227.75
981.76	227.74
982.05	227.77
982.34	227.77
982.63	227.78
982.93	227.81
983.22	227.82
983.51	227.85
983.80	227.87
984.09	227.87
984.39	227.85
984.68	227.81
984.97	227.82
985.26	227.84
985.55	227.85
985.85	227.83
986.14	227.86
986.43	227.85
986.72	227.82
987.01	227.76
987.30	227.73
987.59	227.73
987.89	227.75
988.18	227.70
988.47	227.69
988.76	227.69
989.05	227.65
989.34	227.63
989.63	227.64
989.92	227.63
990.22	227.60
990.51	227.61
990.80	227.64
991.09	227.64
991.38	227.65
991.67	227.60
991.96	227.60
992.25	227.59
992.54	227.56
992.83	227.58
993.12	227.60
993.41	227.66
993.70	227.68
993.99	227.67
994.28	227.72
994.58	227.71
994.87	227.70
995.16	227.69
995.45	227.68
995.74	227.64
996.03	227.66
996.32	227.69
996.61	227.70
996.90	227.68
997.19	227.67
997.48	227.64
997.77	227.64
998.06	227.63
998.34	227.59
998.63	227.61
998.92	227.57
999.21	227.58
999.50	227.55
999.79	227.52
1000.08	227.50
1000.37	227.48
1000.66	227.47
1000.95	227.49
1001.24	227.50
1001.53	227.51
1001.82	227.48
1002.11	227.45
1002.40	227.40
1002.68	227.42
1002.97	227.46
1003.26	227.45
1003.55	227.44
1003.84	227.48
1004.13	227.52
1004.42	227.51
1004.71	227.50
1004.99	227.51
1005.28	227.55
1005.57	227.55
1005.86	227.56
1006.15	227.60
1006.44	227.57
1006.72	227.61
1007.01	227.61
1007.30	227.63
1007.59	227.63
1007.88	227.63
1008.17	227.62
1008.45	227.66
1008.74	227.63
1009.03	227.60
1009.32	227.60
1009.60	227.63
1009.89	227.62
1010.18	227.58
1010.47	227.60
1010.76	227.62
1011.04	227.63
1011.33	227.63
1011.62	227.63
1011.91	227.65
1012.19	227.68
1012.48	227.68
1012.77	227.66
1013.05	227.71
1013.34	227.73
1013.63	227.74
1013.92	227.78
1014.20	227.81
1014.49	227.79
1014.78	227.78
1015.06	227.78
1015.35	227.78
1015.64	227.82
1015.92	227.80
1016.21	227.83
1016.50	227.86
1016.78	227.89
1017.07	227.90
1017.36	227.88
1017.64	227.87
1017.93	227.86
1018.22	227.83
1018.50	227.85
1018.79	227.84
1019.08	227.78
1019.36	227.77
1019.65	227.77
1019.93	227.81
1020.22	227.81
1020.51	227.88
1020.79	227.91
1021.08	227.95
1021.36	227.48
1021.65	227.53
1021.94	227.41
1022.22	227.88
1022.51	227.90
1022.79	228.44
1023.08	227.76
1023.36	229.00
1023.65	228.12
>>>>>End Processed Spectral Data<<<<<
