SpectraSuite Data File
++++++++++++++++++++++++++++++++++++
Date: Fri Feb 01 16:15:41 EST 2013
User: group
Dark Spectrum Present: No
Reference Spectrum Present: No
Number of Sampled Component Spectra: 1
Spectrometers: USB2E7196
Integration Time (usec): 35000 (USB2E7196)
Spectra Averaged: 100 (USB2E7196)
Boxcar Smoothing: 10 (USB2E7196)
Correct for Electrical Dark: No (USB2E7196)
Strobe/Lamp Enabled: No (USB2E7196)
Correct for Detector Non-linearity: No (USB2E7196)
Correct for Stray Light: No (USB2E7196)
Number of Pixels in Processed Spectrum: 2048
>>>>>Begin Processed Spectral Data<<<<<
339.09	0.00
339.48	214.32
339.86	216.10
340.24	217.15
340.63	219.08
341.01	221.12
341.39	221.48
341.78	222.80
342.16	223.33
342.54	223.86
342.93	212.69
343.31	223.44
343.69	223.99
344.07	224.44
344.46	224.86
344.84	225.19
345.22	225.45
345.60	225.69
345.99	225.87
346.37	226.02
346.75	226.11
347.13	226.18
347.52	226.25
347.90	226.30
348.28	226.26
348.66	226.30
349.05	226.25
349.43	226.30
349.81	226.36
350.19	226.37
350.57	226.43
350.96	226.52
351.34	226.57
351.72	226.64
352.10	226.73
352.48	226.81
352.87	226.85
353.25	226.91
353.63	226.94
354.01	227.01
354.39	227.08
354.77	227.16
355.15	227.23
355.54	227.26
355.92	227.33
356.30	227.41
356.68	227.54
357.06	227.63
357.44	227.68
357.82	227.71
358.20	227.80
358.58	227.86
358.97	227.92
359.35	228.01
359.73	228.08
360.11	228.11
360.49	228.16
360.87	228.21
361.25	228.23
361.63	228.32
362.01	228.36
362.39	228.39
362.77	228.43
363.15	228.47
363.53	228.48
363.91	228.50
364.29	228.51
364.67	228.41
365.05	228.43
365.43	228.44
365.81	228.49
366.19	228.51
366.57	228.53
366.95	228.52
367.33	228.48
367.71	228.46
368.09	228.48
368.47	228.45
368.85	228.45
369.23	228.45
369.61	228.42
369.99	228.41
370.37	228.41
370.75	228.44
371.13	228.39
371.51	228.38
371.89	228.36
372.27	228.35
372.65	228.33
373.03	228.26
373.41	228.23
373.78	228.14
374.16	228.01
374.54	227.95
374.92	227.88
375.30	227.84
375.68	227.74
376.06	227.67
376.44	227.60
376.82	227.52
377.19	227.47
377.57	227.38
377.95	227.28
378.33	227.17
378.71	227.07
379.09	227.01
379.47	226.95
379.84	226.83
380.22	226.76
380.60	226.67
380.98	226.62
381.36	226.53
381.73	226.49
382.11	226.46
382.49	226.43
382.87	226.37
383.25	226.31
383.62	226.42
384.00	226.32
384.38	226.29
384.76	226.29
385.13	226.25
385.51	226.19
385.89	226.13
386.27	226.11
386.64	226.07
387.02	226.05
387.40	226.00
387.78	225.97
388.15	225.95
388.53	225.95
388.91	225.91
389.29	225.89
389.66	225.85
390.04	225.85
390.42	225.83
390.79	225.81
391.17	225.82
391.55	225.66
391.92	225.70
392.30	225.69
392.68	225.64
393.05	225.65
393.43	225.65
393.81	225.67
394.18	225.66
394.56	225.65
394.94	225.68
395.31	225.68
395.69	225.73
396.06	225.72
396.44	225.74
396.82	225.80
397.19	225.87
397.57	225.91
397.95	225.96
398.32	225.99
398.70	226.04
399.07	226.06
399.45	226.12
399.82	226.17
400.20	226.21
400.58	226.30
400.95	226.31
401.33	226.40
401.70	226.53
402.08	226.63
402.45	226.73
402.83	226.82
403.20	226.92
403.58	227.01
403.95	227.13
404.33	227.23
404.71	227.32
405.08	227.48
405.46	227.62
405.83	227.78
406.21	227.90
406.58	228.06
406.96	228.25
407.33	228.44
407.70	228.64
408.08	228.92
408.45	229.14
408.83	229.39
409.20	229.64
409.58	229.84
409.95	230.08
410.33	230.35
410.70	230.60
411.08	230.93
411.45	231.28
411.82	231.57
412.20	231.95
412.57	232.41
412.95	232.71
413.32	233.10
413.69	233.48
414.07	233.93
414.44	234.41
414.82	234.87
415.19	235.42
415.56	235.98
415.94	236.52
416.31	237.15
416.68	237.77
417.06	238.47
417.43	239.12
417.81	239.91
418.18	240.68
418.55	241.52
418.93	242.39
419.30	243.27
419.67	244.24
420.04	245.19
420.42	246.16
420.79	247.37
421.16	248.54
421.54	249.76
421.91	250.96
422.28	252.20
422.66	253.54
423.03	254.86
423.40	256.16
423.77	257.56
424.15	259.00
424.52	260.48
424.89	262.11
425.26	263.70
425.64	265.12
426.01	266.72
426.38	268.40
426.75	270.07
427.13	271.77
427.50	273.58
427.87	275.41
428.24	277.27
428.61	279.05
428.99	280.97
429.36	283.05
429.73	285.10
430.10	287.08
430.47	289.09
430.85	291.14
431.22	293.41
431.59	295.79
431.96	298.04
432.33	300.53
432.70	302.87
433.08	305.67
433.45	308.29
433.82	310.88
434.19	313.74
434.56	316.54
434.93	319.19
435.30	321.78
435.68	324.69
436.05	327.49
436.42	330.25
436.79	332.74
437.16	335.41
437.53	338.23
437.90	341.03
438.27	343.80
438.64	346.63
439.01	349.17
439.38	351.38
439.75	353.49
440.13	355.98
440.50	358.31
440.87	360.13
441.24	362.10
441.61	364.24
441.98	365.73
442.35	367.50
442.72	369.34
443.09	371.13
443.46	372.20
443.83	372.76
444.20	373.24
444.57	374.08
444.94	374.38
445.31	374.75
445.68	375.13
446.05	375.20
446.42	374.79
446.79	374.39
447.16	373.92
447.53	373.60
447.90	372.45
448.27	371.26
448.64	369.67
449.01	368.50
449.37	366.54
449.74	364.64
450.11	362.42
450.48	359.95
450.85	357.44
451.22	355.22
451.59	353.22
451.96	351.29
452.33	348.68
452.70	346.32
453.07	343.49
453.43	340.60
453.80	337.85
454.17	335.25
454.54	332.69
454.91	330.06
455.28	327.43
455.65	324.94
456.02	322.48
456.38	320.38
456.75	317.78
457.12	315.52
457.49	313.32
457.86	311.16
458.23	309.33
458.59	307.32
458.96	305.26
459.33	303.41
459.70	301.56
460.07	300.09
460.43	298.42
460.80	296.80
461.17	295.38
461.54	293.89
461.91	292.41
462.27	291.01
462.64	289.75
463.01	288.41
463.38	287.14
463.74	285.80
464.11	284.65
464.48	283.59
464.85	282.50
465.21	281.60
465.58	280.68
465.95	279.61
466.32	278.69
466.68	277.79
467.05	276.91
467.42	275.99
467.78	275.08
468.15	274.19
468.52	273.50
468.88	272.64
469.25	271.84
469.62	271.25
469.98	270.57
470.35	269.90
470.72	269.29
471.08	268.62
471.45	268.12
471.82	267.59
472.18	267.03
472.55	266.59
472.92	266.06
473.28	265.59
473.65	265.13
474.02	264.70
474.38	264.30
474.75	263.95
475.11	263.61
475.48	263.35
475.85	263.12
476.21	262.90
476.58	262.73
476.94	262.62
477.31	262.43
477.67	262.32
478.04	262.24
478.41	262.20
478.77	262.27
479.14	262.20
479.50	262.16
479.87	262.20
480.23	262.31
480.60	262.42
480.96	262.53
481.33	262.75
481.69	262.95
482.06	263.19
482.42	263.42
482.79	263.71
483.15	264.02
483.52	264.43
483.88	264.82
484.25	265.19
484.61	265.61
484.98	266.07
485.34	266.64
485.71	267.21
486.07	267.78
486.44	268.33
486.80	269.04
487.17	269.79
487.53	270.64
487.90	271.49
488.26	272.41
488.62	273.39
488.99	274.37
489.35	275.41
489.72	276.47
490.08	277.67
490.44	278.95
490.81	280.26
491.17	281.59
491.54	283.03
491.90	284.59
492.26	286.24
492.63	287.96
492.99	289.72
493.36	291.67
493.72	293.71
494.08	295.82
494.45	298.07
494.81	300.44
495.17	302.87
495.54	305.40
495.90	308.11
496.26	310.89
496.63	313.88
496.99	317.02
497.35	320.31
497.72	323.72
498.08	327.21
498.44	330.88
498.80	334.84
499.17	338.93
499.53	343.15
499.89	347.55
500.26	352.12
500.62	356.77
500.98	361.74
501.34	366.87
501.71	372.21
502.07	377.67
502.43	383.31
502.79	389.11
503.16	395.21
503.52	401.48
503.88	407.95
504.24	414.55
504.60	421.49
504.97	428.65
505.33	436.00
505.69	443.71
506.05	451.53
506.41	459.37
506.78	467.53
507.14	475.97
507.50	484.73
507.86	493.75
508.22	502.98
508.59	512.17
508.95	521.74
509.31	531.61
509.67	541.69
510.03	551.98
510.39	562.53
510.75	573.36
511.12	584.26
511.48	595.52
511.84	606.92
512.20	618.38
512.56	630.31
512.92	642.56
513.28	654.90
513.64	667.38
514.00	680.13
514.37	693.05
514.73	706.19
515.09	719.17
515.45	732.48
515.81	746.00
516.17	760.02
516.53	774.13
516.89	788.29
517.25	802.41
517.61	816.79
517.97	831.22
518.33	845.54
518.69	860.38
519.05	875.37
519.41	890.61
519.77	906.10
520.13	921.57
520.49	936.84
520.85	952.21
521.21	967.89
521.57	984.11
521.93	999.83
522.29	1016.05
522.65	1032.26
523.01	1048.38
523.37	1064.47
523.73	1080.58
524.09	1096.59
524.45	1112.87
524.81	1129.55
525.17	1146.27
525.53	1163.14
525.89	1180.01
526.25	1196.75
526.61	1213.04
526.97	1229.66
527.33	1246.14
527.68	1262.72
528.04	1279.21
528.40	1295.71
528.76	1312.70
529.12	1329.19
529.48	1345.99
529.84	1362.05
530.20	1378.62
530.56	1395.54
530.91	1412.86
531.27	1429.47
531.63	1445.86
531.99	1462.42
532.35	1478.20
532.71	1494.06
533.07	1510.38
533.42	1526.24
533.78	1542.24
534.14	1558.47
534.50	1573.78
534.86	1589.55
535.21	1604.68
535.57	1620.47
535.93	1635.91
536.29	1650.56
536.65	1665.54
537.00	1680.29
537.36	1695.41
537.72	1709.78
538.08	1724.12
538.44	1737.94
538.79	1751.87
539.15	1765.50
539.51	1778.99
539.87	1793.33
540.22	1806.97
540.58	1820.44
540.94	1833.64
541.29	1846.55
541.65	1859.22
542.01	1872.40
542.37	1884.50
542.72	1896.75
543.08	1908.50
543.44	1920.93
543.79	1932.16
544.15	1943.20
544.51	1954.70
544.87	1965.73
545.22	1976.52
545.58	1986.77
545.94	1996.42
546.29	2006.13
546.65	2016.04
547.01	2025.39
547.36	2034.04
547.72	2042.46
548.07	2050.21
548.43	2058.34
548.79	2066.27
549.14	2073.75
549.50	2080.90
549.86	2088.62
550.21	2095.93
550.57	2103.05
550.92	2109.48
551.28	2116.57
551.64	2123.53
551.99	2130.01
552.35	2136.15
552.70	2142.26
553.06	2148.34
553.41	2154.69
553.77	2160.77
554.13	2166.67
554.48	2172.82
554.84	2178.31
555.19	2183.58
555.55	2188.84
555.90	2193.36
556.26	2198.20
556.61	2202.89
556.97	2207.28
557.32	2211.30
557.68	2215.62
558.03	2219.87
558.39	2223.62
558.74	2228.24
559.10	2232.07
559.45	2235.74
559.81	2239.98
560.16	2243.91
560.52	2247.05
560.87	2250.40
561.23	2252.99
561.58	2255.96
561.94	2258.42
562.29	2260.75
562.64	2263.54
563.00	2266.06
563.35	2269.73
563.71	2272.76
564.06	2275.98
564.42	2278.92
564.77	2281.63
565.12	2283.90
565.48	2285.90
565.83	2287.84
566.19	2289.08
566.54	2289.94
566.89	2291.07
567.25	2291.65
567.60	2292.92
567.96	2294.58
568.31	2295.56
568.66	2296.77
569.02	2297.40
569.37	2297.69
569.72	2298.76
570.08	2298.91
570.43	2299.12
570.78	2298.44
571.14	2296.90
571.49	2295.56
571.84	2295.24
572.20	2294.17
572.55	2292.92
572.90	2291.37
573.26	2289.89
573.61	2288.25
573.96	2286.62
574.31	2283.68
574.67	2280.77
575.02	2277.21
575.37	2273.80
575.72	2269.91
576.08	2266.62
576.43	2263.38
576.78	2259.81
577.13	2256.55
577.49	2253.44
577.84	2249.96
578.19	2246.33
578.54	2242.92
578.90	2238.73
579.25	2233.18
579.60	2228.28
579.95	2223.38
580.30	2218.44
580.66	2213.40
581.01	2208.43
581.36	2203.55
581.71	2199.48
582.06	2195.12
582.42	2190.76
582.77	2185.64
583.12	2181.04
583.47	2176.42
583.82	2171.43
584.17	2166.25
584.53	2160.79
584.88	2155.19
585.23	2149.47
585.58	2143.96
585.93	2138.48
586.28	2133.79
586.63	2128.82
586.98	2123.80
587.34	2119.15
587.69	2114.32
588.04	2108.99
588.39	2103.45
588.74	2096.98
589.09	2090.79
589.44	2084.05
589.79	2078.05
590.14	2072.55
590.49	2066.07
590.84	2059.52
591.19	2053.58
591.54	2047.12
591.89	2039.85
592.25	2033.16
592.60	2026.02
592.95	2018.61
593.30	2011.38
593.65	2003.87
594.00	1996.84
594.35	1989.60
594.70	1981.50
595.05	1974.28
595.40	1967.07
595.75	1959.57
596.10	1953.51
596.45	1946.99
596.80	1940.81
597.15	1934.14
597.50	1926.88
597.85	1920.49
598.19	1913.88
598.54	1906.78
598.89	1900.07
599.24	1894.12
599.59	1887.53
599.94	1881.37
600.29	1874.90
600.64	1868.20
600.99	1860.70
601.34	1853.88
601.69	1846.88
602.04	1840.10
602.39	1832.78
602.74	1826.10
603.08	1819.45
603.43	1812.72
603.78	1805.27
604.13	1798.10
604.48	1790.90
604.83	1784.16
605.18	1777.24
605.53	1769.33
605.87	1761.33
606.22	1754.19
606.57	1746.30
606.92	1738.89
607.27	1731.71
607.62	1724.89
607.96	1717.68
608.31	1711.16
608.66	1703.57
609.01	1696.04
609.36	1688.47
609.70	1680.37
610.05	1672.28
610.40	1664.60
610.75	1656.17
611.10	1648.59
611.44	1640.20
611.79	1632.24
612.14	1623.52
612.49	1614.25
612.83	1605.86
613.18	1597.73
613.53	1589.62
613.88	1581.09
614.22	1572.74
614.57	1564.12
614.92	1556.05
615.27	1548.43
615.61	1540.09
615.96	1532.07
616.31	1524.42
616.65	1517.11
617.00	1509.62
617.35	1501.91
617.70	1493.55
618.04	1485.10
618.39	1476.86
618.74	1469.12
619.08	1460.74
619.43	1453.19
619.78	1446.31
620.12	1439.19
620.47	1431.69
620.82	1423.52
621.16	1416.00
621.51	1408.56
621.85	1400.98
622.20	1392.40
622.55	1384.00
622.89	1376.10
623.24	1368.52
623.59	1361.19
623.93	1353.66
624.28	1346.48
624.62	1338.95
624.97	1331.72
625.32	1324.88
625.66	1317.79
626.01	1310.65
626.35	1303.20
626.70	1295.40
627.04	1287.75
627.39	1280.00
627.73	1272.59
628.08	1265.70
628.43	1258.51
628.77	1250.94
629.12	1243.31
629.46	1236.21
629.81	1228.90
630.15	1221.71
630.50	1214.14
630.84	1205.87
631.19	1197.95
631.53	1190.37
631.88	1182.80
632.22	1175.25
632.57	1167.90
632.91	1160.29
633.26	1152.86
633.60	1145.45
633.95	1138.33
634.29	1131.20
634.64	1124.47
634.98	1117.01
635.32	1109.86
635.67	1103.17
636.01	1096.64
636.36	1089.84
636.70	1083.34
637.05	1076.66
637.39	1070.16
637.73	1063.75
638.08	1057.88
638.42	1051.80
638.77	1045.31
639.11	1038.74
639.45	1032.33
639.80	1025.72
640.14	1019.36
640.49	1012.82
640.83	1006.53
641.17	1000.34
641.52	994.00
641.86	987.51
642.20	981.64
642.55	975.23
642.89	968.79
643.23	962.26
643.58	956.44
643.92	950.13
644.26	944.12
644.61	938.00
644.95	931.97
645.29	925.36
645.64	918.64
645.98	912.39
646.32	906.55
646.66	900.53
647.01	894.78
647.35	889.08
647.69	883.26
648.04	877.71
648.38	871.85
648.72	865.95
649.06	859.89
649.41	854.04
649.75	848.17
650.09	842.26
650.43	836.46
650.78	830.32
651.12	824.43
651.46	818.76
651.80	813.19
652.14	807.81
652.49	802.45
652.83	797.25
653.17	791.52
653.51	785.85
653.85	780.42
654.20	774.77
654.54	768.77
654.88	763.01
655.22	757.12
655.56	751.46
655.90	745.94
656.25	740.72
656.59	735.39
656.93	730.25
657.27	725.04
657.61	719.60
657.95	714.52
658.29	709.44
658.64	704.10
658.98	698.72
659.32	693.19
659.66	688.00
660.00	682.74
660.34	677.80
660.68	672.78
661.02	667.73
661.36	663.05
661.70	658.55
662.05	654.21
662.39	649.88
662.73	645.41
663.07	641.05
663.41	636.59
663.75	632.04
664.09	627.52
664.43	623.15
664.77	619.00
665.11	614.79
665.45	610.62
665.79	606.56
666.13	602.40
666.47	598.34
666.81	594.20
667.15	590.01
667.49	586.14
667.83	582.35
668.17	578.46
668.51	574.33
668.85	570.30
669.19	566.41
669.53	562.58
669.87	558.74
670.21	555.09
670.55	551.44
670.89	548.07
671.23	544.60
671.57	541.07
671.91	537.47
672.25	533.91
672.58	530.43
672.92	527.03
673.26	523.87
673.60	520.75
673.94	517.59
674.28	514.68
674.62	511.69
674.96	508.63
675.30	505.60
675.64	502.72
675.97	499.87
676.31	497.05
676.65	494.11
676.99	491.35
677.33	488.48
677.67	485.69
678.01	482.63
678.34	479.69
678.68	476.85
679.02	474.06
679.36	471.30
679.70	468.54
680.04	465.78
680.37	462.95
680.71	460.13
681.05	457.53
681.39	454.84
681.73	452.19
682.06	449.61
682.40	447.14
682.74	444.58
683.08	442.06
683.42	439.45
683.75	436.99
684.09	434.50
684.43	431.99
684.77	429.49
685.10	427.13
685.44	424.81
685.78	422.46
686.12	420.24
686.45	417.93
686.79	415.69
687.13	413.51
687.46	411.33
687.80	409.16
688.14	406.94
688.48	404.88
688.81	402.66
689.15	400.50
689.49	398.34
689.82	396.24
690.16	394.17
690.50	392.23
690.83	390.26
691.17	388.24
691.51	386.34
691.84	384.49
692.18	382.57
692.52	380.56
692.85	378.62
693.19	376.74
693.52	374.90
693.86	373.05
694.20	371.20
694.53	369.42
694.87	367.56
695.21	365.78
695.54	363.96
695.88	362.20
696.21	360.47
696.55	358.80
696.88	357.14
697.22	355.47
697.56	353.83
697.89	352.18
698.23	350.55
698.56	348.92
698.90	347.36
699.23	345.70
699.57	344.12
699.90	342.61
700.24	341.05
700.58	339.53
700.91	338.02
701.25	336.62
701.58	335.23
701.92	333.88
702.25	332.49
702.59	331.10
702.92	329.84
703.26	328.54
703.59	327.23
703.93	326.01
704.26	324.73
704.60	323.43
704.93	322.14
705.26	320.92
705.60	319.78
705.93	318.59
706.27	317.58
706.60	316.54
706.94	315.47
707.27	314.34
707.61	313.29
707.94	312.26
708.27	311.14
708.61	310.03
708.94	309.03
709.28	308.05
709.61	307.10
709.94	306.11
710.28	305.11
710.61	304.12
710.95	303.07
711.28	302.19
711.61	301.25
711.95	300.31
712.28	299.38
712.61	298.34
712.95	297.40
713.28	296.53
713.61	295.64
713.95	294.73
714.28	293.90
714.61	293.02
714.95	292.16
715.28	291.33
715.61	290.47
715.95	289.62
716.28	288.79
716.61	287.91
716.95	287.05
717.28	286.31
717.61	285.56
717.94	284.81
718.28	283.96
718.61	283.21
718.94	282.52
719.27	281.88
719.61	281.22
719.94	280.58
720.27	279.87
720.60	279.20
720.94	278.57
721.27	277.96
721.60	277.41
721.93	276.83
722.27	276.25
722.60	275.70
722.93	275.11
723.26	274.56
723.59	274.02
723.93	273.51
724.26	272.92
724.59	272.33
724.92	271.83
725.25	271.39
725.59	270.89
725.92	270.42
726.25	269.92
726.58	269.47
726.91	268.94
727.24	268.45
727.57	267.98
727.91	267.49
728.24	267.00
728.57	266.49
728.90	266.03
729.23	265.55
729.56	265.13
729.89	264.67
730.22	264.17
730.55	263.71
730.89	263.27
731.22	262.82
731.55	262.41
731.88	261.98
732.21	261.53
732.54	261.11
732.87	260.64
733.20	260.25
733.53	259.87
733.86	259.54
734.19	259.14
734.52	258.76
734.85	258.44
735.18	258.05
735.51	257.71
735.84	257.34
736.17	257.02
736.50	256.61
736.83	256.38
737.16	256.06
737.49	255.73
737.82	255.37
738.15	255.07
738.48	254.74
738.81	254.39
739.14	254.08
739.47	253.75
739.80	253.43
740.13	253.15
740.46	252.80
740.79	252.46
741.12	252.13
741.45	251.82
741.78	251.46
742.11	251.20
742.44	250.89
742.77	250.61
743.10	250.31
743.43	250.04
743.75	249.60
744.08	249.48
744.41	249.19
744.74	248.95
745.07	248.68
745.40	248.46
745.73	248.23
746.06	247.94
746.39	247.70
746.71	247.43
747.04	247.11
747.37	246.83
747.70	246.57
748.03	246.32
748.36	246.06
748.68	245.81
749.01	245.55
749.34	245.30
749.67	245.07
750.00	244.85
750.33	244.67
750.65	244.51
750.98	244.14
751.31	243.93
751.64	243.68
751.97	243.50
752.29	243.26
752.62	242.99
752.95	242.80
753.28	242.58
753.60	242.38
753.93	242.22
754.26	242.06
754.59	241.87
754.91	241.68
755.24	241.49
755.57	241.29
755.90	241.09
756.22	240.91
756.55	240.70
756.88	240.45
757.20	240.23
757.53	240.01
757.86	239.84
758.19	239.67
758.51	239.51
758.84	239.29
759.17	239.14
759.49	239.00
759.82	238.86
760.15	238.71
760.47	238.58
760.80	238.41
761.13	238.27
761.45	238.11
761.78	237.95
762.11	237.81
762.43	237.68
762.76	237.52
763.08	237.39
763.41	237.26
763.74	237.14
764.06	236.98
764.39	236.84
764.71	236.69
765.04	236.58
765.37	236.46
765.69	236.32
766.02	236.17
766.34	236.03
766.67	235.88
767.00	235.79
767.32	235.68
767.65	235.62
767.97	235.49
768.30	235.41
768.62	235.34
768.95	235.22
769.27	235.12
769.60	235.06
769.92	234.95
770.25	234.85
770.57	234.76
770.90	234.66
771.22	234.57
771.55	234.49
771.87	234.39
772.20	234.30
772.52	234.29
772.85	234.32
773.17	234.27
773.50	234.18
773.82	234.06
774.15	233.96
774.47	233.83
774.80	233.74
775.12	233.64
775.45	233.54
775.77	233.48
776.09	233.39
776.42	233.28
776.74	233.24
777.07	233.18
777.39	233.07
777.72	233.00
778.04	232.97
778.36	232.89
778.69	232.84
779.01	232.75
779.33	232.64
779.66	232.45
779.98	232.38
780.31	232.33
780.63	232.29
780.95	232.25
781.28	232.14
781.60	232.06
781.92	231.97
782.25	231.93
782.57	231.87
782.89	231.79
783.22	231.75
783.54	231.66
783.86	231.58
784.19	231.54
784.51	231.53
784.83	231.44
785.16	231.38
785.48	231.33
785.80	231.30
786.12	231.24
786.45	231.18
786.77	231.12
787.09	231.07
787.42	231.01
787.74	230.95
788.06	230.89
788.38	230.86
788.71	230.83
789.03	230.76
789.35	230.72
789.67	230.69
789.99	230.65
790.32	230.58
790.64	230.55
790.96	230.60
791.28	230.48
791.61	230.43
791.93	230.40
792.25	230.35
792.57	230.32
792.89	230.23
793.21	230.20
793.54	230.12
793.86	230.07
794.18	230.01
794.50	229.95
794.82	229.92
795.14	229.87
795.47	229.83
795.79	229.80
796.11	229.73
796.43	229.70
796.75	229.66
797.07	229.65
797.39	229.61
797.71	229.47
798.04	229.44
798.36	229.40
798.68	229.35
799.00	229.30
799.32	229.29
799.64	229.28
799.96	229.23
800.28	229.22
800.60	229.17
800.92	229.17
801.24	229.12
801.56	229.09
801.89	229.03
802.21	229.00
802.53	228.95
802.85	228.92
803.17	228.92
803.49	228.86
803.81	228.82
804.13	228.79
804.45	228.74
804.77	228.73
805.09	228.71
805.41	228.69
805.73	228.64
806.05	228.60
806.37	228.58
806.69	228.53
807.01	228.51
807.33	228.50
807.65	228.43
807.97	228.47
808.28	228.47
808.60	228.46
808.92	228.43
809.24	228.48
809.56	228.47
809.88	228.42
810.20	228.41
810.52	228.39
810.84	228.35
811.16	228.34
811.48	228.32
811.80	228.32
812.12	228.26
812.43	228.30
812.75	228.25
813.07	228.24
813.39	228.25
813.71	228.22
814.03	228.20
814.35	228.18
814.67	228.14
814.98	228.10
815.30	228.11
815.62	228.13
815.94	228.05
816.26	228.07
816.58	228.04
816.89	228.06
817.21	228.05
817.53	228.04
817.85	228.04
818.17	228.01
818.48	227.99
818.80	228.03
819.12	227.95
819.44	227.94
819.76	227.89
820.07	227.90
820.39	227.88
820.71	227.92
821.03	227.90
821.34	227.91
821.66	227.93
821.98	227.93
822.30	227.88
822.61	227.92
822.93	227.88
823.25	227.84
823.57	227.82
823.88	227.84
824.20	227.85
824.52	227.86
824.83	227.86
825.15	227.84
825.47	227.81
825.79	227.84
826.10	227.81
826.42	227.82
826.74	227.80
827.05	227.78
827.37	227.75
827.69	227.73
828.00	227.69
828.32	227.66
828.64	227.62
828.95	227.64
829.27	227.60
829.58	227.56
829.90	227.61
830.22	227.59
830.53	227.51
830.85	227.50
831.17	227.45
831.48	227.45
831.80	227.41
832.11	227.40
832.43	227.36
832.75	227.34
833.06	227.37
833.38	227.32
833.69	227.34
834.01	227.30
834.32	227.30
834.64	227.27
834.96	227.24
835.27	227.23
835.59	227.22
835.90	227.16
836.22	227.14
836.53	227.07
836.85	227.06
837.16	227.19
837.48	227.16
837.79	227.18
838.11	227.18
838.42	227.18
838.74	227.20
839.05	227.22
839.37	227.22
839.68	227.15
840.00	227.15
840.31	227.12
840.63	227.12
840.94	227.14
841.26	227.13
841.57	227.12
841.88	227.16
842.20	227.12
842.51	227.13
842.83	227.11
843.14	227.18
843.46	227.16
843.77	227.06
844.08	227.04
844.40	227.04
844.71	226.99
845.03	226.96
845.34	226.93
845.65	226.89
845.97	226.87
846.28	226.87
846.60	226.88
846.91	226.84
847.22	226.84
847.54	226.80
847.85	226.79
848.16	226.78
848.48	226.70
848.79	226.73
849.10	226.71
849.42	226.73
849.73	226.67
850.04	226.66
850.36	226.63
850.67	226.66
850.98	226.61
851.30	226.62
851.61	226.62
851.92	226.62
852.23	226.64
852.55	226.66
852.86	226.66
853.17	226.65
853.49	226.71
853.80	226.73
854.11	226.73
854.42	226.71
854.74	226.72
855.05	226.74
855.36	226.68
855.67	226.70
855.99	226.71
856.30	226.82
856.61	226.78
856.92	226.77
857.23	226.76
857.55	226.78
857.86	226.76
858.17	226.80
858.48	226.77
858.79	226.76
859.11	226.79
859.42	226.78
859.73	226.80
860.04	226.74
860.35	226.72
860.66	226.70
860.98	226.72
861.29	226.74
861.60	226.73
861.91	226.76
862.22	226.73
862.53	226.68
862.84	226.57
863.16	226.65
863.47	226.64
863.78	226.63
864.09	226.63
864.40	226.64
864.71	226.61
865.02	226.62
865.33	226.59
865.64	226.55
865.95	226.53
866.27	226.55
866.58	226.58
866.89	226.59
867.20	226.57
867.51	226.53
867.82	226.52
868.13	226.55
868.44	226.55
868.75	226.57
869.06	226.60
869.37	226.58
869.68	226.52
869.99	226.50
870.30	226.48
870.61	226.48
870.92	226.46
871.23	226.47
871.54	226.47
871.85	226.50
872.16	226.50
872.47	226.49
872.78	226.43
873.09	226.44
873.40	226.42
873.71	226.41
874.02	226.41
874.33	226.37
874.64	226.35
874.95	226.36
875.26	226.34
875.56	226.32
875.87	226.34
876.18	226.31
876.49	226.44
876.80	226.44
877.11	226.44
877.42	226.44
877.73	226.42
878.04	226.40
878.35	226.38
878.66	226.39
878.96	226.37
879.27	226.37
879.58	226.37
879.89	226.35
880.20	226.39
880.51	226.40
880.82	226.43
881.12	226.42
881.43	226.40
881.74	226.41
882.05	226.40
882.36	226.38
882.67	226.41
882.97	226.29
883.28	226.27
883.59	226.24
883.90	226.25
884.21	226.26
884.51	226.27
884.82	226.27
885.13	226.26
885.44	226.25
885.74	226.24
886.05	226.22
886.36	226.24
886.67	226.22
886.98	226.27
887.28	226.27
887.59	226.25
887.90	226.26
888.20	226.23
888.51	226.25
888.82	226.26
889.13	226.28
889.43	226.36
889.74	226.37
890.05	226.39
890.35	226.37
890.66	226.38
890.97	226.37
891.28	226.35
891.58	226.34
891.89	226.39
892.20	226.40
892.50	226.38
892.81	226.41
893.12	226.41
893.42	226.34
893.73	226.36
894.04	226.36
894.34	226.34
894.65	226.35
894.95	226.35
895.26	226.32
895.57	226.36
895.87	226.28
896.18	226.27
896.48	226.27
896.79	226.30
897.10	226.31
897.40	226.34
897.71	226.36
898.01	226.39
898.32	226.38
898.63	226.39
898.93	226.43
899.24	226.40
899.54	226.38
899.85	226.39
900.15	226.36
900.46	226.37
900.76	226.41
901.07	226.43
901.38	226.43
901.68	226.47
901.99	226.42
902.29	226.44
902.60	226.45
902.90	226.43
903.21	226.42
903.51	226.43
903.82	226.46
904.12	226.46
904.43	226.47
904.73	226.44
905.03	226.46
905.34	226.55
905.64	226.55
905.95	226.54
906.25	226.54
906.56	226.55
906.86	226.58
907.17	226.56
907.47	226.55
907.77	226.54
908.08	226.53
908.38	226.54
908.69	226.56
908.99	226.60
909.30	226.61
909.60	226.59
909.90	226.58
910.21	226.54
910.51	226.50
910.81	226.48
911.12	226.52
911.42	226.52
911.73	226.40
912.03	226.42
912.33	226.47
912.64	226.47
912.94	226.45
913.24	226.43
913.55	226.44
913.85	226.48
914.15	226.48
914.46	226.49
914.76	226.45
915.06	226.42
915.37	226.38
915.67	226.37
915.97	226.39
916.27	226.34
916.58	226.31
916.88	226.34
917.18	226.33
917.49	226.38
917.79	226.36
918.09	226.35
918.39	226.36
918.70	226.34
919.00	226.36
919.30	226.40
919.60	226.36
919.91	226.32
920.21	226.28
920.51	226.26
920.81	226.27
921.12	226.31
921.42	226.29
921.72	226.28
922.02	226.29
922.32	226.30
922.63	226.30
922.93	226.37
923.23	226.35
923.53	226.35
923.83	226.24
924.13	226.25
924.44	226.25
924.74	226.27
925.04	226.25
925.34	226.23
925.64	226.18
925.94	226.21
926.24	226.24
926.55	226.26
926.85	226.27
927.15	226.26
927.45	226.26
927.75	226.27
928.05	226.29
928.35	226.27
928.65	226.26
928.95	226.26
929.26	226.24
929.56	226.27
929.86	226.25
930.16	226.27
930.46	226.25
930.76	226.25
931.06	226.21
931.36	226.19
931.66	226.20
931.96	226.22
932.26	226.20
932.56	226.14
932.86	226.10
933.16	226.09
933.46	226.05
933.76	226.03
934.06	226.07
934.36	226.08
934.66	226.04
934.96	226.01
935.26	226.01
935.56	226.00
935.86	225.96
936.16	225.97
936.46	225.94
936.76	225.94
937.06	225.92
937.36	225.90
937.66	225.92
937.96	225.92
938.26	225.88
938.56	225.89
938.86	225.92
939.16	225.96
939.46	225.95
939.76	225.98
940.06	225.99
940.35	225.92
940.65	225.89
940.95	225.94
941.25	225.96
941.55	225.97
941.85	225.97
942.15	226.02
942.45	226.04
942.75	226.07
943.04	226.05
943.34	226.09
943.64	226.09
943.94	226.05
944.24	226.05
944.54	226.08
944.84	226.05
945.13	226.04
945.43	226.02
945.73	226.02
946.03	226.02
946.33	225.97
946.62	225.99
946.92	225.99
947.22	225.98
947.52	225.98
947.82	225.99
948.11	226.02
948.41	225.99
948.71	225.97
949.01	225.98
949.31	226.01
949.60	226.01
949.90	226.02
950.20	226.04
950.50	226.04
950.79	226.04
951.09	226.08
951.39	226.07
951.69	226.07
951.98	226.10
952.28	226.13
952.58	226.13
952.87	226.13
953.17	226.15
953.47	226.14
953.76	226.14
954.06	226.10
954.36	226.02
954.66	226.02
954.95	226.07
955.25	226.08
955.55	226.07
955.84	226.04
956.14	226.09
956.44	226.09
956.73	226.07
957.03	226.08
957.32	226.08
957.62	226.09
957.92	226.11
958.21	226.10
958.51	226.16
958.81	226.21
959.10	226.22
959.40	226.23
959.69	226.24
959.99	226.25
960.29	226.27
960.58	226.29
960.88	226.36
961.17	226.33
961.47	226.35
961.76	226.31
962.06	226.34
962.36	226.33
962.65	226.33
962.95	226.36
963.24	226.33
963.54	226.34
963.83	226.33
964.13	226.34
964.42	226.35
964.72	226.27
965.01	226.25
965.31	226.26
965.60	226.25
965.90	226.31
966.19	226.29
966.49	226.30
966.78	226.28
967.08	226.22
967.37	226.22
967.67	226.19
967.96	226.23
968.26	226.24
968.55	226.21
968.85	226.21
969.14	226.21
969.43	226.24
969.73	226.23
970.02	226.22
970.32	226.20
970.61	226.21
970.91	226.20
971.20	226.21
971.49	226.18
971.79	226.20
972.08	226.10
972.38	226.11
972.67	226.09
972.96	226.11
973.26	226.11
973.55	226.16
973.85	226.15
974.14	226.15
974.43	226.14
974.73	226.14
975.02	226.13
975.31	226.11
975.61	226.08
975.90	226.09
976.19	226.09
976.49	226.07
976.78	226.04
977.07	226.04
977.37	226.04
977.66	226.03
977.95	225.99
978.24	226.02
978.54	226.05
978.83	226.05
979.12	226.06
979.42	226.05
979.71	226.01
980.00	225.97
980.29	225.95
980.59	225.91
980.88	225.94
981.17	225.95
981.46	225.93
981.76	225.91
982.05	225.89
982.34	225.86
982.63	225.89
982.93	225.89
983.22	225.91
983.51	225.92
983.80	225.92
984.09	225.94
984.39	225.94
984.68	225.93
984.97	225.92
985.26	225.88
985.55	225.89
985.85	225.86
986.14	225.88
986.43	225.89
986.72	225.90
987.01	225.86
987.30	225.86
987.59	225.87
987.89	225.88
988.18	225.88
988.47	225.91
988.76	225.89
989.05	225.84
989.34	225.83
989.63	225.83
989.92	225.85
990.22	225.84
990.51	225.82
990.80	225.82
991.09	225.83
991.38	225.85
991.67	225.83
991.96	225.82
992.25	225.83
992.54	225.86
992.83	225.88
993.12	225.90
993.41	225.91
993.70	225.96
993.99	225.98
994.28	226.00
994.58	226.00
994.87	225.95
995.16	225.99
995.45	225.97
995.74	225.97
996.03	225.98
996.32	225.99
996.61	226.04
996.90	226.05
997.19	226.05
997.48	226.08
997.77	226.10
998.06	226.16
998.34	226.18
998.63	226.13
998.92	226.14
999.21	226.14
999.50	226.14
999.79	226.11
1000.08	226.15
1000.37	226.12
1000.66	226.14
1000.95	226.20
1001.24	226.22
1001.53	226.25
1001.82	226.23
1002.11	226.20
1002.40	226.20
1002.68	226.21
1002.97	226.26
1003.26	226.25
1003.55	226.25
1003.84	226.25
1004.13	226.27
1004.42	226.25
1004.71	226.28
1004.99	226.25
1005.28	226.28
1005.57	226.28
1005.86	226.27
1006.15	226.24
1006.44	226.27
1006.72	226.30
1007.01	226.28
1007.30	226.27
1007.59	226.24
1007.88	226.27
1008.17	226.31
1008.45	226.30
1008.74	226.24
1009.03	226.21
1009.32	226.20
1009.60	226.17
1009.89	226.12
1010.18	226.05
1010.47	226.04
1010.76	226.01
1011.04	225.99
1011.33	225.96
1011.62	225.93
1011.91	225.92
1012.19	225.90
1012.48	225.88
1012.77	225.85
1013.05	225.86
1013.34	225.84
1013.63	225.83
1013.92	225.79
1014.20	225.71
1014.49	225.68
1014.78	225.70
1015.06	225.64
1015.35	225.63
1015.64	225.66
1015.92	225.72
1016.21	225.70
1016.50	225.70
1016.78	225.69
1017.07	225.70
1017.36	225.70
1017.64	225.70
1017.93	225.71
1018.22	225.69
1018.50	225.69
1018.79	225.67
1019.08	225.65
1019.36	225.67
1019.65	225.66
1019.93	225.72
1020.22	225.78
1020.51	225.84
1020.79	225.84
1021.08	225.37
1021.36	225.72
1021.65	226.01
1021.94	225.78
1022.22	226.00
1022.51	225.46
1022.79	226.51
1023.08	226.26
1023.36	226.79
1023.65	225.56
>>>>>End Processed Spectral Data<<<<<
