SpectraSuite Data File
++++++++++++++++++++++++++++++++++++
Date: Fri Feb 01 18:06:55 EST 2013
User: group
Dark Spectrum Present: No
Reference Spectrum Present: No
Number of Sampled Component Spectra: 1
Spectrometers: USB2E7196
Integration Time (usec): 35000 (USB2E7196)
Spectra Averaged: 100 (USB2E7196)
Boxcar Smoothing: 10 (USB2E7196)
Correct for Electrical Dark: No (USB2E7196)
Strobe/Lamp Enabled: No (USB2E7196)
Correct for Detector Non-linearity: No (USB2E7196)
Correct for Stray Light: No (USB2E7196)
Number of Pixels in Processed Spectrum: 2048
>>>>>Begin Processed Spectral Data<<<<<
339.09	0.00
339.48	213.26
339.86	214.18
340.24	215.23
340.63	216.67
341.01	219.71
341.39	220.38
341.78	221.03
342.16	222.79
342.54	222.99
342.93	211.41
343.31	222.10
343.69	222.62
344.07	223.11
344.46	223.56
344.84	223.96
345.22	224.21
345.60	224.47
345.99	224.67
346.37	224.78
346.75	224.89
347.13	224.98
347.52	225.07
347.90	225.15
348.28	225.18
348.66	225.21
349.05	225.17
349.43	225.23
349.81	225.28
350.19	225.33
350.57	225.34
350.96	225.40
351.34	225.45
351.72	225.54
352.10	225.62
352.48	225.70
352.87	225.75
353.25	225.84
353.63	225.89
354.01	225.97
354.39	226.05
354.77	226.11
355.15	226.21
355.54	226.24
355.92	226.27
356.30	226.36
356.68	226.52
357.06	226.63
357.44	226.67
357.82	226.72
358.20	226.81
358.58	226.89
358.97	227.00
359.35	227.10
359.73	227.17
360.11	227.23
360.49	227.29
360.87	227.36
361.25	227.43
361.63	227.47
362.01	227.52
362.39	227.55
362.77	227.61
363.15	227.63
363.53	227.68
363.91	227.71
364.29	227.72
364.67	227.65
365.05	227.65
365.43	227.70
365.81	227.75
366.19	227.78
366.57	227.82
366.95	227.81
367.33	227.81
367.71	227.82
368.09	227.82
368.47	227.78
368.85	227.74
369.23	227.74
369.61	227.73
369.99	227.73
370.37	227.71
370.75	227.71
371.13	227.70
371.51	227.64
371.89	227.63
372.27	227.62
372.65	227.57
373.03	227.54
373.41	227.47
373.78	227.40
374.16	227.30
374.54	227.21
374.92	227.12
375.30	227.06
375.68	226.99
376.06	226.94
376.44	226.92
376.82	226.89
377.19	226.84
377.57	226.76
377.95	226.66
378.33	226.61
378.71	226.51
379.09	226.45
379.47	226.41
379.84	226.32
380.22	226.25
380.60	226.19
380.98	226.11
381.36	226.04
381.73	225.99
382.11	225.95
382.49	225.88
382.87	225.83
383.25	225.79
383.62	225.83
384.00	225.77
384.38	225.70
384.76	225.69
385.13	225.65
385.51	225.60
385.89	225.56
386.27	225.53
386.64	225.51
387.02	225.44
387.40	225.41
387.78	225.42
388.15	225.38
388.53	225.31
388.91	225.31
389.29	225.30
389.66	225.29
390.04	225.25
390.42	225.27
390.79	225.28
391.17	225.26
391.55	225.15
391.92	225.13
392.30	225.12
392.68	225.08
393.05	225.08
393.43	225.06
393.81	225.07
394.18	225.05
394.56	225.02
394.94	225.03
395.31	225.07
395.69	225.09
396.06	225.13
396.44	225.19
396.82	225.17
397.19	225.26
397.57	225.29
397.95	225.34
398.32	225.36
398.70	225.39
399.07	225.47
399.45	225.52
399.82	225.61
400.20	225.66
400.58	225.71
400.95	225.71
401.33	225.80
401.70	225.92
402.08	226.01
402.45	226.13
402.83	226.25
403.20	226.33
403.58	226.43
403.95	226.56
404.33	226.72
404.71	226.89
405.08	227.06
405.46	227.23
405.83	227.41
406.21	227.57
406.58	227.75
406.96	227.88
407.33	228.08
407.70	228.32
408.08	228.63
408.45	228.91
408.83	229.23
409.20	229.50
409.58	229.79
409.95	230.12
410.33	230.43
410.70	230.78
411.08	231.13
411.45	231.54
411.82	231.94
412.20	232.39
412.57	232.91
412.95	233.31
413.32	233.82
413.69	234.36
414.07	234.98
414.44	235.60
414.82	236.27
415.19	236.99
415.56	237.74
415.94	238.51
416.31	239.35
416.68	240.16
417.06	241.15
417.43	242.04
417.81	243.10
418.18	244.16
418.55	245.28
418.93	246.47
419.30	247.66
419.67	248.91
420.04	250.21
420.42	251.55
420.79	253.16
421.16	254.69
421.54	256.29
421.91	257.94
422.28	259.65
422.66	261.46
423.03	263.25
423.40	265.04
423.77	266.93
424.15	268.89
424.52	270.92
424.89	273.10
425.26	275.25
425.64	277.18
426.01	279.34
426.38	281.57
426.75	283.84
427.13	286.19
427.50	288.70
427.87	291.24
428.24	293.76
428.61	296.15
428.99	298.84
429.36	301.76
429.73	304.56
430.10	307.33
430.47	310.16
430.85	313.07
431.22	316.07
431.59	319.33
431.96	322.39
432.33	325.78
432.70	329.02
433.08	332.83
433.45	336.43
433.82	339.94
434.19	343.85
434.56	347.67
434.93	351.31
435.30	354.88
435.68	358.83
436.05	362.75
436.42	366.56
436.79	369.93
437.16	373.56
437.53	377.43
437.90	381.26
438.27	384.96
438.64	388.82
439.01	392.38
439.38	395.41
439.75	398.38
440.13	401.80
440.50	405.00
440.87	407.56
441.24	410.27
441.61	413.26
441.98	415.31
442.35	417.76
442.72	420.32
443.09	422.74
443.46	424.11
443.83	424.87
444.20	425.59
444.57	426.77
444.94	427.19
445.31	427.64
445.68	428.09
446.05	428.24
446.42	427.75
446.79	427.19
447.16	426.64
447.53	426.16
447.90	424.59
448.27	422.99
448.64	420.78
449.01	419.22
449.37	416.55
449.74	413.98
450.11	410.92
450.48	407.53
450.85	404.11
451.22	401.18
451.59	398.38
451.96	395.72
452.33	392.16
452.70	388.94
453.07	385.09
453.43	381.18
453.80	377.41
454.17	373.72
454.54	370.26
454.91	366.52
455.28	362.90
455.65	359.51
456.02	356.11
456.38	353.13
456.75	349.45
457.12	346.37
457.49	343.37
457.86	340.43
458.23	337.89
458.59	335.05
458.96	332.16
459.33	329.66
459.70	327.08
460.07	324.99
460.43	322.61
460.80	320.39
461.17	318.42
461.54	316.29
461.91	314.34
462.27	312.34
462.64	310.60
463.01	308.72
463.38	306.92
463.74	305.10
464.11	303.53
464.48	302.07
464.85	300.57
465.21	299.32
465.58	298.02
465.95	296.49
466.32	295.27
466.68	294.06
467.05	292.84
467.42	291.65
467.78	290.39
468.15	289.17
468.52	288.28
468.88	287.05
469.25	286.03
469.62	285.16
469.98	284.21
470.35	283.35
470.72	282.55
471.08	281.66
471.45	280.93
471.82	280.19
472.18	279.41
472.55	278.79
472.92	278.12
473.28	277.52
473.65	276.88
474.02	276.25
474.38	275.71
474.75	275.23
475.11	274.68
475.48	274.29
475.85	273.98
476.21	273.60
476.58	273.33
476.94	273.08
477.31	272.77
477.67	272.55
478.04	272.36
478.41	272.18
478.77	272.11
479.14	271.95
479.50	271.92
479.87	271.91
480.23	271.93
480.60	271.92
480.96	271.91
481.33	272.11
481.69	272.29
482.06	272.44
482.42	272.57
482.79	272.81
483.15	273.08
483.52	273.42
483.88	273.77
484.25	274.12
484.61	274.50
484.98	274.93
485.34	275.46
485.71	276.05
486.07	276.66
486.44	277.25
486.80	277.98
487.17	278.67
487.53	279.52
487.90	280.38
488.26	281.33
488.62	282.38
488.99	283.37
489.35	284.41
489.72	285.59
490.08	286.86
490.44	288.15
490.81	289.54
491.17	290.93
491.54	292.50
491.90	294.11
492.26	295.88
492.63	297.72
492.99	299.62
493.36	301.60
493.72	303.70
494.08	305.89
494.45	308.21
494.81	310.73
495.17	313.28
495.54	315.93
495.90	318.72
496.26	321.63
496.63	324.76
496.99	328.10
497.35	331.54
497.72	335.11
498.08	338.84
498.44	342.74
498.80	346.88
499.17	351.14
499.53	355.57
499.89	360.19
500.26	364.93
500.62	369.87
500.98	375.13
501.34	380.60
501.71	386.26
502.07	392.06
502.43	398.04
502.79	404.19
503.16	410.66
503.52	417.36
503.88	424.20
504.24	431.24
504.60	438.53
504.97	446.09
505.33	453.92
505.69	462.14
506.05	470.44
506.41	478.88
506.78	487.56
507.14	496.54
507.50	505.80
507.86	515.43
508.22	525.27
508.59	535.15
508.95	545.31
509.31	555.86
509.67	566.62
510.03	577.58
510.39	588.88
510.75	600.48
511.12	612.18
511.48	624.30
511.84	636.63
512.20	649.00
512.56	661.80
512.92	674.90
513.28	688.19
513.64	701.60
514.00	715.28
514.37	729.26
514.73	743.39
515.09	757.48
515.45	771.91
515.81	786.56
516.17	801.65
516.53	816.94
516.89	832.31
517.25	847.76
517.61	863.40
517.97	879.06
518.33	894.71
518.69	910.74
519.05	927.08
519.41	943.68
519.77	960.57
520.13	977.47
520.49	994.21
520.85	1010.98
521.21	1028.17
521.57	1045.95
521.93	1063.06
522.29	1081.02
522.65	1098.83
523.01	1116.59
523.37	1134.23
523.73	1152.10
524.09	1169.94
524.45	1187.77
524.81	1206.12
525.17	1224.67
525.53	1243.43
525.89	1262.19
526.25	1280.89
526.61	1299.10
526.97	1317.58
527.33	1335.93
527.68	1354.37
528.04	1372.82
528.40	1391.35
528.76	1410.37
529.12	1428.86
529.48	1447.83
529.84	1465.73
530.20	1484.39
530.56	1503.28
530.91	1522.82
531.27	1541.63
531.63	1560.13
531.99	1578.84
532.35	1596.88
532.71	1614.85
533.07	1633.22
533.42	1651.26
533.78	1669.56
534.14	1687.98
534.50	1705.50
534.86	1723.56
535.21	1741.04
535.57	1759.22
535.93	1776.91
536.29	1793.84
536.65	1811.07
537.00	1828.10
537.36	1845.68
537.72	1862.45
538.08	1879.37
538.44	1895.35
538.79	1911.48
539.15	1927.38
539.51	1943.34
539.87	1960.06
540.22	1976.06
540.58	1992.14
540.94	2007.67
541.29	2022.68
541.65	2037.62
542.01	2053.05
542.37	2067.70
542.72	2082.26
543.08	2096.37
543.44	2111.14
543.79	2124.71
544.15	2137.88
544.51	2151.78
544.87	2165.07
545.22	2178.15
545.58	2190.53
545.94	2202.56
546.29	2214.70
546.65	2226.90
547.01	2238.53
547.36	2249.24
547.72	2259.95
548.07	2269.89
548.43	2280.23
548.79	2290.46
549.14	2300.10
549.50	2309.52
549.86	2319.35
550.21	2328.88
550.57	2338.08
550.92	2346.57
551.28	2355.65
551.64	2364.93
551.99	2373.41
552.35	2381.54
552.70	2389.57
553.06	2397.68
553.41	2406.08
553.77	2413.94
554.13	2421.88
554.48	2430.14
554.84	2437.70
555.19	2444.77
555.55	2451.82
555.90	2458.07
556.26	2464.92
556.61	2471.45
556.97	2477.60
557.32	2483.33
557.68	2489.09
558.03	2495.03
558.39	2500.44
558.74	2506.76
559.10	2512.36
559.45	2517.58
559.81	2523.34
560.16	2528.93
560.52	2533.61
560.87	2538.40
561.23	2542.38
561.58	2546.74
561.94	2550.51
562.29	2554.12
562.64	2558.33
563.00	2562.23
563.35	2567.20
563.71	2571.46
564.06	2576.09
564.42	2580.36
564.77	2584.14
565.12	2587.88
565.48	2590.91
565.83	2593.96
566.19	2596.45
566.54	2598.35
566.89	2600.79
567.25	2602.64
567.60	2604.91
567.96	2607.81
568.31	2609.70
568.66	2612.16
569.02	2613.65
569.37	2614.79
569.72	2616.76
570.08	2617.66
570.43	2618.52
570.78	2618.77
571.14	2617.93
571.49	2616.95
571.84	2617.35
572.20	2617.08
572.55	2616.47
572.90	2615.50
573.26	2614.73
573.61	2613.49
573.96	2612.28
574.31	2609.38
574.67	2606.62
575.02	2603.21
575.37	2599.74
575.72	2595.90
576.08	2592.35
576.43	2589.04
576.78	2585.58
577.13	2582.39
577.49	2579.40
577.84	2575.98
578.19	2572.12
578.54	2568.69
578.90	2564.64
579.25	2558.71
579.60	2553.38
579.95	2548.01
580.30	2542.73
580.66	2537.26
581.01	2531.92
581.36	2526.64
581.71	2522.46
582.06	2517.69
582.42	2512.80
582.77	2507.27
583.12	2502.48
583.47	2497.62
583.82	2492.36
584.17	2486.52
584.53	2480.49
584.88	2474.38
585.23	2468.07
585.58	2461.95
585.93	2455.73
586.28	2450.36
586.63	2444.83
586.98	2439.25
587.34	2434.18
587.69	2428.65
588.04	2422.92
588.39	2416.68
588.74	2409.34
589.09	2402.36
589.44	2394.85
589.79	2388.25
590.14	2381.86
590.49	2374.64
590.84	2367.45
591.19	2360.71
591.54	2353.52
591.89	2345.29
592.25	2337.62
592.60	2329.39
592.95	2321.01
593.30	2312.74
593.65	2304.19
594.00	2296.24
594.35	2287.88
594.70	2278.57
595.05	2270.56
595.40	2262.19
595.75	2253.64
596.10	2246.64
596.45	2239.02
596.80	2232.12
597.15	2224.54
597.50	2216.52
597.85	2209.05
598.19	2201.36
598.54	2193.29
598.89	2185.63
599.24	2178.72
599.59	2171.29
599.94	2164.13
600.29	2156.84
600.64	2149.10
600.99	2140.59
601.34	2132.61
601.69	2124.49
602.04	2116.70
602.39	2108.10
602.74	2100.00
603.08	2092.15
603.43	2084.25
603.78	2075.59
604.13	2067.02
604.48	2058.59
604.83	2050.60
605.18	2042.49
605.53	2033.22
605.87	2023.76
606.22	2015.23
606.57	2005.94
606.92	1997.04
607.27	1988.83
607.62	1980.64
607.96	1972.23
608.31	1964.40
608.66	1955.45
609.01	1946.77
609.36	1937.76
609.70	1928.32
610.05	1918.98
610.40	1910.00
610.75	1900.25
611.10	1891.41
611.44	1881.34
611.79	1871.85
612.14	1861.60
612.49	1850.73
612.83	1840.79
613.18	1831.20
613.53	1821.61
613.88	1811.54
614.22	1801.67
614.57	1791.29
614.92	1781.70
615.27	1772.86
615.61	1763.00
615.96	1753.52
616.31	1744.43
616.65	1735.85
617.00	1727.01
617.35	1717.94
617.70	1708.12
618.04	1698.04
618.39	1688.23
618.74	1679.32
619.08	1669.47
619.43	1660.53
619.78	1652.41
620.12	1643.95
620.47	1634.98
620.82	1625.32
621.16	1616.50
621.51	1607.63
621.85	1598.63
622.20	1588.69
622.55	1578.66
622.89	1569.29
623.24	1560.32
623.59	1551.49
623.93	1542.48
624.28	1533.87
624.62	1524.91
624.97	1516.31
625.32	1508.30
625.66	1499.94
626.01	1491.53
626.35	1482.81
626.70	1473.62
627.04	1464.37
627.39	1455.15
627.73	1446.40
628.08	1438.23
628.43	1429.76
628.77	1421.09
629.12	1412.12
629.46	1403.65
629.81	1394.80
630.15	1386.31
630.50	1377.44
630.84	1367.87
631.19	1358.50
631.53	1349.68
631.88	1340.86
632.22	1331.94
632.57	1323.27
632.91	1314.34
633.26	1305.64
633.60	1296.88
633.95	1288.38
634.29	1280.09
634.64	1272.26
634.98	1263.67
635.32	1255.19
635.67	1247.29
636.01	1239.44
636.36	1231.41
636.70	1223.71
637.05	1216.01
637.39	1208.43
637.73	1200.80
638.08	1193.74
638.42	1186.66
638.77	1179.07
639.11	1171.29
639.45	1163.68
639.80	1155.88
640.14	1148.40
640.49	1140.60
640.83	1133.12
641.17	1125.87
641.52	1118.45
641.86	1110.77
642.20	1103.93
642.55	1096.57
642.89	1088.95
643.23	1081.23
643.58	1074.48
643.92	1067.14
644.26	1060.13
644.61	1052.98
644.95	1045.85
645.29	1038.23
645.64	1030.43
645.98	1022.90
646.32	1015.99
646.66	1008.98
647.01	1002.23
647.35	995.52
647.69	988.70
648.04	982.23
648.38	975.49
648.72	968.56
649.06	961.58
649.41	954.61
649.75	947.71
650.09	940.88
650.43	934.18
650.78	927.10
651.12	920.16
651.46	913.46
651.80	906.87
652.14	900.65
652.49	894.45
652.83	888.37
653.17	881.84
653.51	875.24
653.85	868.91
654.20	862.40
654.54	855.42
654.88	848.73
655.22	841.91
655.56	835.26
655.90	828.90
656.25	822.77
656.59	816.51
656.93	810.50
657.27	804.50
657.61	798.13
657.95	792.12
658.29	786.30
658.64	780.25
658.98	774.03
659.32	767.76
659.66	761.67
660.00	755.57
660.34	749.79
660.68	744.03
661.02	738.21
661.36	732.64
661.70	727.44
662.05	722.48
662.39	717.48
662.73	712.25
663.07	707.20
663.41	702.05
663.75	696.92
664.09	691.67
664.43	686.54
664.77	681.84
665.11	677.00
665.45	672.11
665.79	667.34
666.13	662.56
666.47	657.81
666.81	652.99
667.15	648.23
667.49	643.69
667.83	639.34
668.17	634.80
668.51	630.16
668.85	625.44
669.19	620.92
669.53	616.49
669.87	612.00
670.21	607.64
670.55	603.39
670.89	599.40
671.23	595.44
671.57	591.35
671.91	587.22
672.25	583.12
672.58	579.07
672.92	575.09
673.26	571.40
673.60	567.67
673.94	564.06
674.28	560.58
674.62	557.20
674.96	553.58
675.30	550.25
675.64	546.82
675.97	543.58
676.31	540.22
676.65	536.82
676.99	533.79
677.33	530.47
677.67	527.19
678.01	523.65
678.34	520.14
678.68	516.84
679.02	513.56
679.36	510.33
679.70	507.19
680.04	504.01
680.37	500.73
680.71	497.51
681.05	494.46
681.39	491.36
681.73	488.29
682.06	485.38
682.40	482.46
682.74	479.48
683.08	476.53
683.42	473.54
683.75	470.60
684.09	467.58
684.43	464.78
684.77	461.96
685.10	459.27
685.44	456.61
685.78	453.90
686.12	451.30
686.45	448.64
686.79	445.96
687.13	443.38
687.46	440.84
687.80	438.32
688.14	435.72
688.48	433.26
688.81	430.59
689.15	428.06
689.49	425.45
689.82	423.07
690.16	420.61
690.50	418.32
690.83	416.10
691.17	413.76
691.51	411.47
691.84	409.25
692.18	406.97
692.52	404.66
692.85	402.44
693.19	400.21
693.52	398.06
693.86	395.91
694.20	393.81
694.53	391.69
694.87	389.49
695.21	387.40
695.54	385.27
695.88	383.28
696.21	381.26
696.55	379.33
696.88	377.33
697.22	375.42
697.56	373.52
697.89	371.59
698.23	369.78
698.56	367.96
698.90	366.15
699.23	364.25
699.57	362.51
699.90	360.72
700.24	358.89
700.58	357.11
700.91	355.34
701.25	353.67
701.58	352.10
701.92	350.57
702.25	349.00
702.59	347.44
702.92	345.91
703.26	344.41
703.59	342.89
703.93	341.56
704.26	340.16
704.60	338.63
704.93	337.11
705.26	335.63
705.60	334.20
705.93	332.84
706.27	331.62
706.60	330.36
706.94	329.09
707.27	327.80
707.61	326.61
707.94	325.48
708.27	324.21
708.61	322.92
708.94	321.69
709.28	320.59
709.61	319.49
709.94	318.37
710.28	317.13
710.61	316.02
710.95	314.72
711.28	313.65
711.61	312.58
711.95	311.60
712.28	310.50
712.61	309.35
712.95	308.26
713.28	307.27
713.61	306.23
713.95	305.22
714.28	304.24
714.61	303.23
714.95	302.24
715.28	301.22
715.61	300.19
715.95	299.22
716.28	298.19
716.61	297.23
716.95	296.26
717.28	295.43
717.61	294.54
717.94	293.72
718.28	292.78
718.61	291.95
718.94	291.09
719.27	290.34
719.61	289.59
719.94	288.84
720.27	287.97
720.60	287.18
720.94	286.44
721.27	285.77
721.60	285.06
721.93	284.32
722.27	283.71
722.60	283.09
722.93	282.44
723.26	281.86
723.59	281.19
723.93	280.53
724.26	279.84
724.59	279.20
724.92	278.58
725.25	277.98
725.59	277.33
725.92	276.76
726.25	276.15
726.58	275.61
726.91	275.00
727.24	274.46
727.57	273.91
727.91	273.31
728.24	272.72
728.57	272.13
728.90	271.58
729.23	271.01
729.56	270.50
729.89	269.93
730.22	269.33
730.55	268.78
730.89	268.27
731.22	267.78
731.55	267.28
731.88	266.78
732.21	266.26
732.54	265.80
732.87	265.29
733.20	264.80
733.53	264.32
733.86	263.89
734.19	263.41
734.52	262.97
734.85	262.60
735.18	262.11
735.51	261.69
735.84	261.30
736.17	260.91
736.50	260.43
736.83	260.16
737.16	259.76
737.49	259.42
737.82	259.00
738.15	258.59
738.48	258.15
738.81	257.77
739.14	257.38
739.47	256.97
739.80	256.55
740.13	256.21
740.46	255.83
740.79	255.44
741.12	255.10
741.45	254.70
741.78	254.35
742.11	254.02
742.44	253.65
742.77	253.32
743.10	252.94
743.43	252.61
743.75	252.16
744.08	251.95
744.41	251.60
744.74	251.30
745.07	250.99
745.40	250.72
745.73	250.41
746.06	250.11
746.39	249.80
746.71	249.52
747.04	249.20
747.37	248.89
747.70	248.59
748.03	248.24
748.36	247.99
748.68	247.67
749.01	247.38
749.34	247.14
749.67	246.83
750.00	246.56
750.33	246.40
750.65	246.13
750.98	245.77
751.31	245.50
751.64	245.23
751.97	245.02
752.29	244.75
752.62	244.47
752.95	244.22
753.28	243.97
753.60	243.75
753.93	243.54
754.26	243.31
754.59	243.06
754.91	242.85
755.24	242.64
755.57	242.43
755.90	242.22
756.22	242.00
756.55	241.82
756.88	241.57
757.20	241.30
757.53	241.09
757.86	240.90
758.19	240.73
758.51	240.55
758.84	240.31
759.17	240.12
759.49	239.95
759.82	239.78
760.15	239.63
760.47	239.44
760.80	239.28
761.13	239.15
761.45	238.97
761.78	238.79
762.11	238.62
762.43	238.45
762.76	238.28
763.08	238.11
763.41	237.92
763.74	237.77
764.06	237.59
764.39	237.42
764.71	237.23
765.04	237.06
765.37	236.90
765.69	236.80
766.02	236.66
766.34	236.52
766.67	236.35
767.00	236.25
767.32	236.16
767.65	236.06
767.97	235.92
768.30	235.83
768.62	235.73
768.95	235.56
769.27	235.45
769.60	235.37
769.92	235.24
770.25	235.11
770.57	234.99
770.90	234.91
771.22	234.78
771.55	234.71
771.87	234.60
772.20	234.49
772.52	234.41
772.85	234.43
773.17	234.37
773.50	234.30
773.82	234.18
774.15	234.04
774.47	233.86
774.80	233.75
775.12	233.64
775.45	233.56
775.77	233.48
776.09	233.39
776.42	233.28
776.74	233.19
777.07	233.12
777.39	233.05
777.72	232.92
778.04	232.86
778.36	232.74
778.69	232.63
779.01	232.53
779.33	232.40
779.66	232.19
779.98	232.04
780.31	231.95
780.63	231.89
780.95	231.82
781.28	231.76
781.60	231.67
781.92	231.60
782.25	231.49
782.57	231.43
782.89	231.34
783.22	231.24
783.54	231.21
783.86	231.13
784.19	231.08
784.51	231.04
784.83	230.97
785.16	230.94
785.48	230.87
785.80	230.84
786.12	230.78
786.45	230.71
786.77	230.65
787.09	230.61
787.42	230.51
787.74	230.43
788.06	230.40
788.38	230.33
788.71	230.26
789.03	230.25
789.35	230.17
789.67	230.09
789.99	230.06
790.32	229.97
790.64	229.94
790.96	229.98
791.28	229.91
791.61	229.83
791.93	229.79
792.25	229.75
792.57	229.83
792.89	229.74
793.21	229.72
793.54	229.67
793.86	229.64
794.18	229.61
794.50	229.57
794.82	229.49
795.14	229.46
795.47	229.41
795.79	229.30
796.11	229.25
796.43	229.21
796.75	229.18
797.07	229.13
797.39	229.07
797.71	228.94
798.04	228.93
798.36	228.91
798.68	228.86
799.00	228.83
799.32	228.72
799.64	228.70
799.96	228.66
800.28	228.66
800.60	228.59
800.92	228.58
801.24	228.56
801.56	228.54
801.89	228.48
802.21	228.47
802.53	228.45
802.85	228.43
803.17	228.49
803.49	228.42
803.81	228.37
804.13	228.32
804.45	228.24
804.77	228.17
805.09	228.12
805.41	228.08
805.73	228.04
806.05	227.94
806.37	227.93
806.69	227.87
807.01	227.86
807.33	227.84
807.65	227.78
807.97	227.76
808.28	227.72
808.60	227.71
808.92	227.66
809.24	227.72
809.56	227.68
809.88	227.57
810.20	227.56
810.52	227.60
810.84	227.61
811.16	227.58
811.48	227.58
811.80	227.59
812.12	227.57
812.43	227.55
812.75	227.53
813.07	227.49
813.39	227.48
813.71	227.39
814.03	227.33
814.35	227.29
814.67	227.22
814.98	227.22
815.30	227.17
815.62	227.15
815.94	227.02
816.26	227.06
816.58	227.05
816.89	227.04
817.21	226.97
817.53	226.94
817.85	226.95
818.17	226.91
818.48	226.85
818.80	226.87
819.12	226.82
819.44	226.82
819.76	226.78
820.07	226.79
820.39	226.79
820.71	226.79
821.03	226.79
821.34	226.77
821.66	226.79
821.98	226.83
822.30	226.82
822.61	226.88
822.93	226.82
823.25	226.79
823.57	226.76
823.88	226.79
824.20	226.77
824.52	226.78
824.83	226.80
825.15	226.80
825.47	226.76
825.79	226.81
826.10	226.77
826.42	226.76
826.74	226.74
827.05	226.74
827.37	226.69
827.69	226.73
828.00	226.73
828.32	226.72
828.64	226.68
828.95	226.71
829.27	226.66
829.58	226.67
829.90	226.68
830.22	226.69
830.53	226.66
830.85	226.67
831.17	226.64
831.48	226.60
831.80	226.62
832.11	226.63
832.43	226.58
832.75	226.57
833.06	226.64
833.38	226.60
833.69	226.61
834.01	226.65
834.32	226.59
834.64	226.55
834.96	226.54
835.27	226.53
835.59	226.49
835.90	226.49
836.22	226.47
836.53	226.44
836.85	226.41
837.16	226.50
837.48	226.51
837.79	226.53
838.11	226.57
838.42	226.56
838.74	226.52
839.05	226.51
839.37	226.50
839.68	226.43
840.00	226.41
840.31	226.40
840.63	226.36
840.94	226.35
841.26	226.36
841.57	226.33
841.88	226.32
842.20	226.31
842.51	226.30
842.83	226.28
843.14	226.38
843.46	226.37
843.77	226.28
844.08	226.26
844.40	226.20
844.71	226.18
845.03	226.13
845.34	226.16
845.65	226.17
845.97	226.18
846.28	226.18
846.60	226.18
846.91	226.14
847.22	226.11
847.54	226.11
847.85	226.11
848.16	226.11
848.48	226.10
848.79	226.11
849.10	226.10
849.42	226.07
849.73	225.97
850.04	225.95
850.36	225.92
850.67	225.91
850.98	225.90
851.30	225.87
851.61	225.87
851.92	225.81
852.23	225.83
852.55	225.80
852.86	225.82
853.17	225.82
853.49	225.83
853.80	225.89
854.11	225.93
854.42	225.95
854.74	225.91
855.05	225.89
855.36	225.83
855.67	225.82
855.99	225.84
856.30	225.96
856.61	225.97
856.92	225.97
857.23	225.95
857.55	225.92
857.86	225.92
858.17	225.92
858.48	225.93
858.79	225.88
859.11	225.88
859.42	225.84
859.73	225.80
860.04	225.81
860.35	225.76
860.66	225.70
860.98	225.69
861.29	225.73
861.60	225.72
861.91	225.74
862.22	225.72
862.53	225.68
862.84	225.53
863.16	225.51
863.47	225.47
863.78	225.44
864.09	225.45
864.40	225.44
864.71	225.42
865.02	225.44
865.33	225.45
865.64	225.42
865.95	225.43
866.27	225.53
866.58	225.52
866.89	225.51
867.20	225.50
867.51	225.46
867.82	225.44
868.13	225.47
868.44	225.44
868.75	225.44
869.06	225.48
869.37	225.50
869.68	225.48
869.99	225.52
870.30	225.55
870.61	225.56
870.92	225.52
871.23	225.53
871.54	225.52
871.85	225.49
872.16	225.54
872.47	225.51
872.78	225.40
873.09	225.36
873.40	225.35
873.71	225.39
874.02	225.36
874.33	225.32
874.64	225.28
874.95	225.29
875.26	225.27
875.56	225.22
875.87	225.20
876.18	225.16
876.49	225.23
876.80	225.20
877.11	225.17
877.42	225.20
877.73	225.22
878.04	225.22
878.35	225.24
878.66	225.19
878.96	225.17
879.27	225.20
879.58	225.25
879.89	225.25
880.20	225.24
880.51	225.28
880.82	225.31
881.12	225.31
881.43	225.29
881.74	225.32
882.05	225.32
882.36	225.32
882.67	225.39
882.97	225.30
883.28	225.32
883.59	225.35
883.90	225.36
884.21	225.36
884.51	225.33
884.82	225.31
885.13	225.35
885.44	225.37
885.74	225.36
886.05	225.32
886.36	225.34
886.67	225.30
886.98	225.33
887.28	225.34
887.59	225.35
887.90	225.33
888.20	225.29
888.51	225.35
888.82	225.33
889.13	225.32
889.43	225.41
889.74	225.41
890.05	225.38
890.35	225.35
890.66	225.32
890.97	225.30
891.28	225.29
891.58	225.27
891.89	225.30
892.20	225.30
892.50	225.30
892.81	225.28
893.12	225.28
893.42	225.26
893.73	225.24
894.04	225.27
894.34	225.34
894.65	225.33
894.95	225.31
895.26	225.31
895.57	225.34
895.87	225.25
896.18	225.23
896.48	225.24
896.79	225.22
897.10	225.28
897.40	225.29
897.71	225.30
898.01	225.31
898.32	225.30
898.63	225.30
898.93	225.28
899.24	225.26
899.54	225.26
899.85	225.25
900.15	225.24
900.46	225.23
900.76	225.20
901.07	225.20
901.38	225.18
901.68	225.19
901.99	225.13
902.29	225.11
902.60	225.12
902.90	225.09
903.21	225.08
903.51	225.05
903.82	225.06
904.12	225.07
904.43	225.06
904.73	225.04
905.03	225.04
905.34	225.14
905.64	225.13
905.95	225.13
906.25	225.10
906.56	225.10
906.86	225.11
907.17	225.11
907.47	225.12
907.77	225.12
908.08	225.12
908.38	225.13
908.69	225.16
908.99	225.17
909.30	225.21
909.60	225.20
909.90	225.18
910.21	225.17
910.51	225.13
910.81	225.12
911.12	225.15
911.42	225.15
911.73	225.04
912.03	225.09
912.33	225.11
912.64	225.12
912.94	225.09
913.24	225.04
913.55	225.02
913.85	225.02
914.15	225.02
914.46	225.05
914.76	225.03
915.06	225.03
915.37	225.01
915.67	224.98
915.97	225.01
916.27	224.99
916.58	225.01
916.88	224.98
917.18	224.99
917.49	225.03
917.79	225.02
918.09	225.02
918.39	225.05
918.70	225.06
919.00	225.08
919.30	225.16
919.60	225.18
919.91	225.19
920.21	225.20
920.51	225.18
920.81	225.18
921.12	225.20
921.42	225.21
921.72	225.25
922.02	225.27
922.32	225.26
922.63	225.27
922.93	225.31
923.23	225.34
923.53	225.33
923.83	225.29
924.13	225.30
924.44	225.34
924.74	225.33
925.04	225.34
925.34	225.31
925.64	225.28
925.94	225.28
926.24	225.34
926.55	225.29
926.85	225.33
927.15	225.30
927.45	225.30
927.75	225.29
928.05	225.27
928.35	225.29
928.65	225.35
928.95	225.36
929.26	225.30
929.56	225.32
929.86	225.35
930.16	225.34
930.46	225.34
930.76	225.34
931.06	225.29
931.36	225.28
931.66	225.29
931.96	225.31
932.26	225.32
932.56	225.24
932.86	225.31
933.16	225.27
933.46	225.25
933.76	225.25
934.06	225.28
934.36	225.29
934.66	225.24
934.96	225.22
935.26	225.21
935.56	225.24
935.86	225.20
936.16	225.17
936.46	225.15
936.76	225.14
937.06	225.09
937.36	225.10
937.66	225.09
937.96	225.07
938.26	225.02
938.56	225.01
938.86	225.05
939.16	225.02
939.46	225.06
939.76	225.09
940.06	225.08
940.35	225.06
940.65	225.02
940.95	225.02
941.25	224.99
941.55	225.00
941.85	224.97
942.15	224.99
942.45	225.02
942.75	225.02
943.04	225.02
943.34	225.06
943.64	225.07
943.94	225.05
944.24	225.09
944.54	225.13
944.84	225.09
945.13	225.07
945.43	225.08
945.73	225.07
946.03	225.02
946.33	225.01
946.62	224.99
946.92	224.98
947.22	224.99
947.52	224.97
947.82	224.99
948.11	224.99
948.41	224.96
948.71	224.94
949.01	224.94
949.31	224.94
949.60	224.94
949.90	224.93
950.20	224.94
950.50	224.88
950.79	224.83
951.09	224.90
951.39	224.90
951.69	224.85
951.98	224.87
952.28	224.87
952.58	224.87
952.87	224.88
953.17	224.89
953.47	224.88
953.76	224.88
954.06	224.87
954.36	224.86
954.66	224.90
954.95	224.90
955.25	224.93
955.55	224.93
955.84	224.90
956.14	224.90
956.44	224.92
956.73	224.94
957.03	224.96
957.32	224.92
957.62	224.91
957.92	224.97
958.21	224.96
958.51	225.10
958.81	225.09
959.10	225.08
959.40	225.15
959.69	225.18
959.99	225.23
960.29	225.21
960.58	225.24
960.88	225.26
961.17	225.28
961.47	225.26
961.76	225.26
962.06	225.31
962.36	225.30
962.65	225.31
962.95	225.32
963.24	225.30
963.54	225.31
963.83	225.33
964.13	225.33
964.42	225.29
964.72	225.23
965.01	225.26
965.31	225.28
965.60	225.23
965.90	225.27
966.19	225.21
966.49	225.23
966.78	225.23
967.08	225.23
967.37	225.24
967.67	225.21
967.96	225.23
968.26	225.22
968.55	225.25
968.85	225.26
969.14	225.28
969.43	225.26
969.73	225.24
970.02	225.24
970.32	225.23
970.61	225.25
970.91	225.20
971.20	225.16
971.49	225.16
971.79	225.17
972.08	225.09
972.38	225.13
972.67	225.12
972.96	225.10
973.26	225.08
973.55	225.14
973.85	225.14
974.14	225.13
974.43	225.15
974.73	225.13
975.02	225.10
975.31	225.10
975.61	225.15
975.90	225.17
976.19	225.16
976.49	225.19
976.78	225.19
977.07	225.20
977.37	225.20
977.66	225.21
977.95	225.20
978.24	225.20
978.54	225.18
978.83	225.17
979.12	225.17
979.42	225.14
979.71	225.07
980.00	225.07
980.29	225.05
980.59	225.03
980.88	225.05
981.17	225.02
981.46	224.98
981.76	224.95
982.05	224.97
982.34	224.95
982.63	224.89
982.93	224.88
983.22	224.91
983.51	224.93
983.80	224.90
984.09	224.88
984.39	224.87
984.68	224.86
984.97	224.87
985.26	224.85
985.55	224.86
985.85	224.81
986.14	224.82
986.43	224.83
986.72	224.81
987.01	224.77
987.30	224.74
987.59	224.75
987.89	224.76
988.18	224.73
988.47	224.74
988.76	224.73
989.05	224.74
989.34	224.69
989.63	224.71
989.92	224.70
990.22	224.70
990.51	224.70
990.80	224.69
991.09	224.68
991.38	224.71
991.67	224.70
991.96	224.72
992.25	224.71
992.54	224.70
992.83	224.68
993.12	224.70
993.41	224.74
993.70	224.77
993.99	224.77
994.28	224.78
994.58	224.79
994.87	224.79
995.16	224.77
995.45	224.78
995.74	224.72
996.03	224.74
996.32	224.75
996.61	224.78
996.90	224.78
997.19	224.77
997.48	224.77
997.77	224.73
998.06	224.74
998.34	224.72
998.63	224.72
998.92	224.74
999.21	224.72
999.50	224.73
999.79	224.70
1000.08	224.71
1000.37	224.67
1000.66	224.66
1000.95	224.70
1001.24	224.68
1001.53	224.69
1001.82	224.69
1002.11	224.65
1002.40	224.63
1002.68	224.63
1002.97	224.70
1003.26	224.70
1003.55	224.67
1003.84	224.74
1004.13	224.79
1004.42	224.84
1004.71	224.86
1004.99	224.85
1005.28	224.90
1005.57	224.90
1005.86	224.87
1006.15	224.88
1006.44	224.92
1006.72	224.91
1007.01	224.86
1007.30	224.91
1007.59	224.91
1007.88	224.94
1008.17	224.97
1008.45	224.98
1008.74	224.97
1009.03	224.94
1009.32	224.96
1009.60	224.99
1009.89	224.94
1010.18	224.90
1010.47	224.84
1010.76	224.81
1011.04	224.82
1011.33	224.78
1011.62	224.78
1011.91	224.83
1012.19	224.83
1012.48	224.82
1012.77	224.81
1013.05	224.88
1013.34	224.88
1013.63	224.86
1013.92	224.87
1014.20	224.86
1014.49	224.89
1014.78	224.90
1015.06	224.86
1015.35	224.86
1015.64	224.86
1015.92	224.87
1016.21	224.89
1016.50	224.93
1016.78	224.98
1017.07	225.00
1017.36	224.99
1017.64	224.99
1017.93	224.99
1018.22	224.95
1018.50	224.95
1018.79	224.97
1019.08	224.93
1019.36	224.91
1019.65	224.92
1019.93	224.95
1020.22	225.00
1020.51	225.04
1020.79	225.03
1021.08	224.31
1021.36	224.92
1021.65	224.92
1021.94	224.95
1022.22	224.44
1022.51	225.04
1022.79	225.51
1023.08	225.49
1023.36	226.30
1023.65	224.75
>>>>>End Processed Spectral Data<<<<<
