SpectraSuite Data File
++++++++++++++++++++++++++++++++++++
Date: Fri Feb 01 16:05:50 EST 2013
User: group
Dark Spectrum Present: No
Reference Spectrum Present: No
Number of Sampled Component Spectra: 1
Spectrometers: USB2E7196
Integration Time (usec): 35000 (USB2E7196)
Spectra Averaged: 100 (USB2E7196)
Boxcar Smoothing: 10 (USB2E7196)
Correct for Electrical Dark: No (USB2E7196)
Strobe/Lamp Enabled: No (USB2E7196)
Correct for Detector Non-linearity: No (USB2E7196)
Correct for Stray Light: No (USB2E7196)
Number of Pixels in Processed Spectrum: 2048
>>>>>Begin Processed Spectral Data<<<<<
339.09	0.00
339.48	215.13
339.86	217.08
340.24	217.99
340.63	218.89
341.01	221.86
341.39	221.60
341.78	223.51
342.16	224.38
342.54	225.10
342.93	213.32
343.31	224.10
343.69	224.61
344.07	225.03
344.46	225.43
344.84	225.81
345.22	226.04
345.60	226.30
345.99	226.48
346.37	226.62
346.75	226.70
347.13	226.73
347.52	226.77
347.90	226.81
348.28	226.82
348.66	226.86
349.05	226.85
349.43	226.89
349.81	226.94
350.19	226.97
350.57	227.02
350.96	227.07
351.34	227.15
351.72	227.22
352.10	227.32
352.48	227.39
352.87	227.45
353.25	227.53
353.63	227.60
354.01	227.65
354.39	227.71
354.77	227.79
355.15	227.92
355.54	227.98
355.92	228.03
356.30	228.12
356.68	228.24
357.06	228.31
357.44	228.37
357.82	228.41
358.20	228.49
358.58	228.57
358.97	228.63
359.35	228.68
359.73	228.76
360.11	228.80
360.49	228.85
360.87	228.87
361.25	228.91
361.63	228.96
362.01	229.00
362.39	229.04
362.77	229.07
363.15	229.06
363.53	229.10
363.91	229.12
364.29	229.11
364.67	229.06
365.05	229.09
365.43	229.08
365.81	229.11
366.19	229.14
366.57	229.17
366.95	229.16
367.33	229.14
367.71	229.13
368.09	229.14
368.47	229.13
368.85	229.11
369.23	229.11
369.61	229.04
369.99	229.06
370.37	229.03
370.75	229.04
371.13	229.02
371.51	228.96
371.89	228.88
372.27	228.86
372.65	228.79
373.03	228.75
373.41	228.70
373.78	228.64
374.16	228.53
374.54	228.42
374.92	228.38
375.30	228.32
375.68	228.24
376.06	228.17
376.44	228.12
376.82	228.08
377.19	227.99
377.57	227.93
377.95	227.83
378.33	227.73
378.71	227.61
379.09	227.54
379.47	227.49
379.84	227.46
380.22	227.37
380.60	227.32
380.98	227.25
381.36	227.17
381.73	227.10
382.11	227.07
382.49	227.02
382.87	226.95
383.25	226.91
383.62	226.97
384.00	226.91
384.38	226.86
384.76	226.80
385.13	226.80
385.51	226.74
385.89	226.63
386.27	226.57
386.64	226.55
387.02	226.49
387.40	226.46
387.78	226.41
388.15	226.37
388.53	226.32
388.91	226.25
389.29	226.25
389.66	226.25
390.04	226.18
390.42	226.17
390.79	226.16
391.17	226.11
391.55	226.00
391.92	225.99
392.30	225.99
392.68	225.95
393.05	225.95
393.43	225.97
393.81	226.03
394.18	226.08
394.56	226.09
394.94	226.11
395.31	226.10
395.69	226.15
396.06	226.20
396.44	226.26
396.82	226.31
397.19	226.37
397.57	226.38
397.95	226.44
398.32	226.45
398.70	226.53
399.07	226.64
399.45	226.70
399.82	226.75
400.20	226.80
400.58	226.92
400.95	226.93
401.33	227.01
401.70	227.17
402.08	227.24
402.45	227.31
402.83	227.41
403.20	227.55
403.58	227.67
403.95	227.80
404.33	227.88
404.71	227.99
405.08	228.17
405.46	228.32
405.83	228.48
406.21	228.66
406.58	228.80
406.96	228.95
407.33	229.10
407.70	229.30
408.08	229.57
408.45	229.79
408.83	230.06
409.20	230.27
409.58	230.45
409.95	230.73
410.33	231.03
410.70	231.29
411.08	231.58
411.45	231.85
411.82	232.15
412.20	232.54
412.57	233.00
412.95	233.29
413.32	233.70
413.69	234.12
414.07	234.53
414.44	235.02
414.82	235.47
415.19	236.00
415.56	236.56
415.94	237.08
416.31	237.72
416.68	238.30
417.06	239.02
417.43	239.72
417.81	240.48
418.18	241.27
418.55	242.13
418.93	242.98
419.30	243.90
419.67	244.81
420.04	245.78
420.42	246.75
420.79	247.96
421.16	249.08
421.54	250.28
421.91	251.50
422.28	252.73
422.66	254.08
423.03	255.42
423.40	256.74
423.77	258.17
424.15	259.58
424.52	261.08
424.89	262.71
425.26	264.26
425.64	265.71
426.01	267.29
426.38	268.94
426.75	270.65
427.13	272.37
427.50	274.21
427.87	276.07
428.24	277.90
428.61	279.64
428.99	281.61
429.36	283.70
429.73	285.76
430.10	287.78
430.47	289.83
430.85	291.94
431.22	294.21
431.59	296.57
431.96	298.79
432.33	301.30
432.70	303.63
433.08	306.44
433.45	309.05
433.82	311.68
434.19	314.52
434.56	317.30
434.93	319.94
435.30	322.54
435.68	325.39
436.05	328.24
436.42	331.04
436.79	333.55
437.16	336.27
437.53	339.10
437.90	341.91
438.27	344.65
438.64	347.48
439.01	350.10
439.38	352.33
439.75	354.51
440.13	357.04
440.50	359.38
440.87	361.19
441.24	363.12
441.61	365.27
441.98	366.77
442.35	368.57
442.72	370.45
443.09	372.20
443.46	373.22
443.83	373.80
444.20	374.30
444.57	375.14
444.94	375.37
445.31	375.71
445.68	376.07
446.05	376.15
446.42	375.73
446.79	375.26
447.16	374.81
447.53	374.49
447.90	373.24
448.27	372.09
448.64	370.50
449.01	369.34
449.37	367.34
449.74	365.46
450.11	363.20
450.48	360.72
450.85	358.24
451.22	356.10
451.59	354.08
451.96	352.13
452.33	349.49
452.70	347.16
453.07	344.30
453.43	341.44
453.80	338.66
454.17	336.01
454.54	333.49
454.91	330.73
455.28	328.03
455.65	325.56
456.02	323.11
456.38	321.01
456.75	318.35
457.12	316.11
457.49	313.89
457.86	311.71
458.23	309.81
458.59	307.75
458.96	305.65
459.33	303.76
459.70	301.91
460.07	300.39
460.43	298.66
460.80	297.07
461.17	295.58
461.54	294.10
461.91	292.65
462.27	291.20
462.64	289.98
463.01	288.66
463.38	287.36
463.74	285.96
464.11	284.80
464.48	283.80
464.85	282.69
465.21	281.81
465.58	280.89
465.95	279.84
466.32	278.96
466.68	278.05
467.05	277.18
467.42	276.30
467.78	275.39
468.15	274.56
468.52	273.89
468.88	273.08
469.25	272.32
469.62	271.74
469.98	271.07
470.35	270.46
470.72	269.88
471.08	269.26
471.45	268.75
471.82	268.19
472.18	267.61
472.55	267.17
472.92	266.68
473.28	266.24
473.65	265.78
474.02	265.36
474.38	265.03
474.75	264.73
475.11	264.37
475.48	264.14
475.85	263.92
476.21	263.65
476.58	263.47
476.94	263.31
477.31	263.15
477.67	263.03
478.04	262.92
478.41	262.85
478.77	262.89
479.14	262.85
479.50	262.92
479.87	263.03
480.23	263.12
480.60	263.18
480.96	263.31
481.33	263.56
481.69	263.76
482.06	263.94
482.42	264.15
482.79	264.45
483.15	264.74
483.52	265.09
483.88	265.48
484.25	265.87
484.61	266.31
484.98	266.78
485.34	267.33
485.71	267.92
486.07	268.54
486.44	269.11
486.80	269.81
487.17	270.49
487.53	271.28
487.90	272.16
488.26	273.10
488.62	274.06
488.99	275.03
489.35	276.05
489.72	277.18
490.08	278.37
490.44	279.61
490.81	280.97
491.17	282.34
491.54	283.82
491.90	285.36
492.26	287.03
492.63	288.74
492.99	290.54
493.36	292.46
493.72	294.50
494.08	296.62
494.45	298.87
494.81	301.25
495.17	303.65
495.54	306.20
495.90	308.87
496.26	311.65
496.63	314.62
496.99	317.75
497.35	320.97
497.72	324.38
498.08	327.92
498.44	331.58
498.80	335.53
499.17	339.54
499.53	343.73
499.89	348.09
500.26	352.60
500.62	357.23
500.98	362.19
501.34	367.25
501.71	372.52
502.07	378.00
502.43	383.58
502.79	389.39
503.16	395.47
503.52	401.76
503.88	408.19
504.24	414.82
504.60	421.69
504.97	428.92
505.33	436.29
505.69	443.97
506.05	451.75
506.41	459.62
506.78	467.80
507.14	476.23
507.50	484.96
507.86	493.98
508.22	503.23
508.59	512.46
508.95	522.08
509.31	531.90
509.67	541.99
510.03	552.32
510.39	562.99
510.75	573.79
511.12	584.81
511.48	596.10
511.84	607.53
512.20	619.10
512.56	630.99
512.92	643.18
513.28	655.54
513.64	668.04
514.00	680.73
514.37	693.67
514.73	706.69
515.09	719.76
515.45	733.00
515.81	746.60
516.17	760.50
516.53	774.59
516.89	788.78
517.25	803.02
517.61	817.40
517.97	831.74
518.33	846.20
518.69	860.95
519.05	875.99
519.41	891.18
519.77	906.74
520.13	922.20
520.49	937.60
520.85	952.99
521.21	968.67
521.57	984.89
521.93	1000.65
522.29	1017.05
522.65	1033.21
523.01	1049.47
523.37	1065.45
523.73	1081.60
524.09	1097.74
524.45	1113.93
524.81	1130.44
525.17	1147.27
525.53	1164.20
525.89	1181.06
526.25	1197.88
526.61	1214.16
526.97	1230.84
527.33	1247.29
527.68	1263.82
528.04	1280.32
528.40	1296.87
528.76	1313.91
529.12	1330.52
529.48	1347.47
529.84	1363.37
530.20	1379.92
530.56	1396.90
530.91	1414.27
531.27	1431.11
531.63	1447.49
531.99	1464.14
532.35	1480.21
532.71	1496.11
533.07	1512.28
533.42	1528.05
533.78	1544.00
534.14	1560.22
534.50	1575.50
534.86	1591.15
535.21	1606.38
535.57	1622.18
535.93	1637.52
536.29	1652.26
536.65	1667.20
537.00	1681.79
537.36	1697.10
537.72	1711.54
538.08	1725.80
538.44	1739.53
538.79	1753.28
539.15	1766.92
539.51	1780.54
539.87	1794.75
540.22	1808.44
540.58	1822.18
540.94	1835.46
541.29	1848.24
541.65	1860.83
542.01	1874.02
542.37	1886.36
542.72	1898.67
543.08	1910.26
543.44	1922.79
543.79	1934.03
544.15	1944.84
544.51	1956.40
544.87	1967.44
545.22	1978.40
545.58	1988.66
545.94	1998.35
546.29	2008.13
546.65	2017.84
547.01	2027.16
547.36	2035.72
547.72	2044.12
548.07	2051.95
548.43	2060.09
548.79	2068.12
549.14	2075.70
549.50	2083.09
549.86	2090.74
550.21	2097.94
550.57	2105.15
550.92	2111.62
551.28	2118.69
551.64	2125.97
551.99	2132.54
552.35	2138.54
552.70	2144.52
553.06	2150.49
553.41	2156.90
553.77	2162.94
554.13	2169.07
554.48	2175.22
554.84	2180.76
555.19	2185.90
555.55	2191.04
555.90	2195.56
556.26	2200.48
556.61	2205.14
556.97	2209.53
557.32	2213.66
557.68	2217.86
558.03	2222.09
558.39	2225.66
558.74	2230.25
559.10	2234.03
559.45	2237.67
559.81	2241.96
560.16	2245.95
560.52	2249.18
560.87	2252.54
561.23	2255.24
561.58	2258.18
561.94	2260.74
562.29	2263.06
562.64	2265.86
563.00	2268.49
563.35	2271.98
563.71	2274.97
564.06	2278.27
564.42	2281.03
564.77	2283.68
565.12	2286.08
565.48	2288.12
565.83	2290.11
566.19	2291.31
566.54	2292.17
566.89	2293.21
567.25	2293.83
567.60	2294.95
567.96	2296.75
568.31	2297.51
568.66	2298.70
569.02	2299.40
569.37	2299.71
569.72	2300.69
570.08	2300.87
570.43	2300.83
570.78	2300.21
571.14	2298.75
571.49	2297.37
571.84	2296.98
572.20	2295.80
572.55	2294.68
572.90	2293.00
573.26	2291.66
573.61	2290.04
573.96	2288.37
574.31	2285.44
574.67	2282.49
575.02	2279.03
575.37	2275.63
575.72	2271.94
576.08	2268.57
576.43	2265.15
576.78	2261.42
577.13	2258.28
577.49	2255.13
577.84	2251.67
578.19	2247.91
578.54	2244.39
578.90	2240.14
579.25	2234.63
579.60	2229.70
579.95	2224.64
580.30	2219.66
580.66	2214.51
581.01	2209.62
581.36	2204.78
581.71	2200.64
582.06	2196.31
582.42	2191.82
582.77	2186.44
583.12	2181.95
583.47	2177.30
583.82	2172.45
584.17	2167.36
584.53	2161.75
584.88	2156.21
585.23	2150.52
585.58	2145.13
585.93	2139.72
586.28	2134.98
586.63	2129.97
586.98	2124.88
587.34	2120.38
587.69	2115.55
588.04	2110.47
588.39	2104.84
588.74	2098.33
589.09	2092.19
589.44	2085.46
589.79	2079.44
590.14	2073.96
590.49	2067.30
590.84	2060.87
591.19	2054.93
591.54	2048.36
591.89	2041.09
592.25	2034.28
592.60	2027.08
592.95	2019.59
593.30	2012.16
593.65	2004.63
594.00	1997.47
594.35	1990.17
594.70	1981.95
595.05	1974.79
595.40	1967.50
595.75	1959.95
596.10	1953.80
596.45	1947.12
596.80	1940.79
597.15	1934.10
597.50	1927.04
597.85	1920.65
598.19	1914.08
598.54	1906.93
598.89	1900.23
599.24	1894.35
599.59	1887.57
599.94	1881.31
600.29	1874.83
600.64	1868.39
600.99	1861.00
601.34	1854.33
601.69	1847.45
602.04	1840.72
602.39	1833.29
602.74	1826.45
603.08	1819.66
603.43	1812.93
603.78	1805.66
604.13	1798.54
604.48	1791.34
604.83	1784.49
605.18	1777.54
605.53	1769.52
605.87	1761.39
606.22	1754.37
606.57	1746.45
606.92	1739.27
607.27	1732.13
607.62	1725.30
607.96	1717.92
608.31	1711.41
608.66	1703.64
609.01	1696.14
609.36	1688.53
609.70	1680.56
610.05	1672.42
610.40	1664.74
610.75	1656.31
611.10	1648.59
611.44	1640.15
611.79	1632.18
612.14	1623.50
612.49	1614.31
612.83	1605.94
613.18	1597.85
613.53	1589.74
613.88	1581.21
614.22	1572.93
614.57	1564.39
614.92	1556.28
615.27	1548.71
615.61	1540.23
615.96	1532.25
616.31	1524.67
616.65	1517.35
617.00	1509.82
617.35	1502.09
617.70	1493.95
618.04	1485.47
618.39	1477.32
618.74	1469.82
619.08	1461.46
619.43	1453.88
619.78	1447.00
620.12	1439.85
620.47	1432.39
620.82	1424.10
621.16	1416.63
621.51	1409.04
621.85	1401.31
622.20	1392.90
622.55	1384.71
622.89	1376.86
623.24	1369.36
623.59	1361.88
623.93	1354.33
624.28	1347.15
624.62	1339.73
624.97	1332.33
625.32	1325.56
625.66	1318.50
626.01	1311.36
626.35	1303.93
626.70	1296.12
627.04	1288.41
627.39	1280.60
627.73	1273.14
628.08	1266.18
628.43	1258.93
628.77	1251.48
629.12	1243.94
629.46	1236.84
629.81	1229.25
630.15	1222.02
630.50	1214.51
630.84	1206.27
631.19	1198.28
631.53	1190.67
631.88	1183.13
632.22	1175.60
632.57	1168.30
632.91	1160.72
633.26	1153.21
633.60	1145.90
633.95	1138.85
634.29	1131.84
634.64	1125.10
634.98	1117.74
635.32	1110.59
635.67	1103.88
636.01	1097.31
636.36	1090.51
636.70	1083.92
637.05	1077.33
637.39	1070.91
637.73	1064.46
638.08	1058.60
638.42	1052.69
638.77	1046.35
639.11	1039.74
639.45	1033.40
639.80	1026.80
640.14	1020.41
640.49	1013.84
640.83	1007.46
641.17	1001.19
641.52	994.75
641.86	988.31
642.20	982.46
642.55	976.20
642.89	969.81
643.23	963.18
643.58	957.44
643.92	951.28
644.26	945.27
644.61	939.17
644.95	933.10
645.29	926.44
645.64	919.64
645.98	913.19
646.32	907.30
646.66	901.22
647.01	895.45
647.35	889.71
647.69	883.86
648.04	878.30
648.38	872.52
648.72	866.57
649.06	860.40
649.41	854.54
649.75	848.56
650.09	842.58
650.43	836.78
650.78	830.55
651.12	824.56
651.46	818.77
651.80	813.03
652.14	807.68
652.49	802.40
652.83	797.22
653.17	791.60
653.51	785.87
653.85	780.48
654.20	774.74
654.54	768.68
654.88	762.95
655.22	757.16
655.56	751.50
655.90	746.01
656.25	740.84
656.59	735.34
656.93	730.22
657.27	725.06
657.61	719.69
657.95	714.66
658.29	709.61
658.64	704.47
658.98	699.22
659.32	693.72
659.66	688.47
660.00	683.19
660.34	678.28
660.68	673.36
661.02	668.27
661.36	663.53
661.70	659.05
662.05	654.69
662.39	650.30
662.73	645.79
663.07	641.41
663.41	636.99
663.75	632.60
664.09	628.03
664.43	623.61
664.77	619.48
665.11	615.23
665.45	611.05
665.79	606.87
666.13	602.69
666.47	598.52
666.81	594.34
667.15	590.22
667.49	586.26
667.83	582.45
668.17	578.57
668.51	574.56
668.85	570.65
669.19	566.79
669.53	562.93
669.87	559.04
670.21	555.40
670.55	551.77
670.89	548.30
671.23	544.91
671.57	541.44
671.91	537.84
672.25	534.32
672.58	530.76
672.92	527.39
673.26	524.21
673.60	521.14
673.94	518.03
674.28	515.13
674.62	512.20
674.96	509.04
675.30	506.12
675.64	503.23
675.97	500.38
676.31	497.50
676.65	494.59
676.99	491.91
677.33	488.98
677.67	486.10
678.01	483.12
678.34	480.14
678.68	477.22
679.02	474.45
679.36	471.71
679.70	469.07
680.04	466.27
680.37	463.43
680.71	460.63
681.05	458.06
681.39	455.32
681.73	452.59
682.06	450.12
682.40	447.59
682.74	445.06
683.08	442.50
683.42	439.91
683.75	437.39
684.09	434.79
684.43	432.34
684.77	429.90
685.10	427.55
685.44	425.20
685.78	422.89
686.12	420.59
686.45	418.27
686.79	415.94
687.13	413.76
687.46	411.58
687.80	409.38
688.14	407.15
688.48	405.11
688.81	402.87
689.15	400.68
689.49	398.56
689.82	396.45
690.16	394.35
690.50	392.39
690.83	390.46
691.17	388.51
691.51	386.60
691.84	384.71
692.18	382.79
692.52	380.81
692.85	378.85
693.19	377.01
693.52	375.19
693.86	373.38
694.20	371.63
694.53	369.82
694.87	368.04
695.21	366.20
695.54	364.35
695.88	362.64
696.21	360.91
696.55	359.18
696.88	357.49
697.22	355.82
697.56	354.17
697.89	352.50
698.23	350.88
698.56	349.29
698.90	347.74
699.23	346.07
699.57	344.50
699.90	343.00
700.24	341.45
700.58	339.93
700.91	338.44
701.25	336.95
701.58	335.53
701.92	334.14
702.25	332.75
702.59	331.37
702.92	330.07
703.26	328.76
703.59	327.48
703.93	326.31
704.26	325.06
704.60	323.78
704.93	322.52
705.26	321.27
705.60	320.07
705.93	318.88
706.27	317.86
706.60	316.83
706.94	315.73
707.27	314.60
707.61	313.55
707.94	312.52
708.27	311.42
708.61	310.40
708.94	309.38
709.28	308.43
709.61	307.47
709.94	306.48
710.28	305.40
710.61	304.44
710.95	303.36
711.28	302.47
711.61	301.52
711.95	300.59
712.28	299.64
712.61	298.69
712.95	297.75
713.28	296.86
713.61	295.95
713.95	295.07
714.28	294.26
714.61	293.37
714.95	292.49
715.28	291.61
715.61	290.73
715.95	289.88
716.28	289.04
716.61	288.24
716.95	287.45
717.28	286.78
717.61	286.00
717.94	285.26
718.28	284.46
718.61	283.76
718.94	283.06
719.27	282.45
719.61	281.80
719.94	281.17
720.27	280.43
720.60	279.77
720.94	279.15
721.27	278.54
721.60	277.97
721.93	277.38
722.27	276.85
722.60	276.33
722.93	275.75
723.26	275.23
723.59	274.63
723.93	274.09
724.26	273.55
724.59	272.99
724.92	272.43
725.25	271.94
725.59	271.39
725.92	270.89
726.25	270.35
726.58	269.86
726.91	269.35
727.24	268.87
727.57	268.39
727.91	267.88
728.24	267.42
728.57	266.94
728.90	266.48
729.23	266.00
729.56	265.56
729.89	265.11
730.22	264.60
730.55	264.14
730.89	263.68
731.22	263.22
731.55	262.83
731.88	262.40
732.21	261.96
732.54	261.55
732.87	261.12
733.20	260.73
733.53	260.34
733.86	260.00
734.19	259.59
734.52	259.24
734.85	258.93
735.18	258.49
735.51	258.12
735.84	257.79
736.17	257.49
736.50	257.07
736.83	256.84
737.16	256.53
737.49	256.22
737.82	255.87
738.15	255.53
738.48	255.15
738.81	254.87
739.14	254.56
739.47	254.25
739.80	253.93
740.13	253.58
740.46	253.25
740.79	252.90
741.12	252.61
741.45	252.30
741.78	251.96
742.11	251.71
742.44	251.38
742.77	251.12
743.10	250.76
743.43	250.50
743.75	250.09
744.08	249.94
744.41	249.67
744.74	249.42
745.07	249.12
745.40	248.91
745.73	248.68
746.06	248.41
746.39	248.17
746.71	247.91
747.04	247.66
747.37	247.38
747.70	247.10
748.03	246.87
748.36	246.65
748.68	246.43
749.01	246.15
749.34	245.91
749.67	245.65
750.00	245.45
750.33	245.29
750.65	245.10
750.98	244.73
751.31	244.53
751.64	244.31
751.97	244.21
752.29	243.96
752.62	243.72
752.95	243.49
753.28	243.26
753.60	243.08
753.93	242.92
754.26	242.76
754.59	242.58
754.91	242.34
755.24	242.12
755.57	241.91
755.90	241.71
756.22	241.54
756.55	241.33
756.88	241.12
757.20	240.85
757.53	240.65
757.86	240.48
758.19	240.31
758.51	240.12
758.84	239.88
759.17	239.72
759.49	239.54
759.82	239.42
760.15	239.25
760.47	239.10
760.80	238.90
761.13	238.76
761.45	238.60
761.78	238.48
762.11	238.35
762.43	238.24
762.76	238.10
763.08	237.96
763.41	237.84
763.74	237.72
764.06	237.62
764.39	237.52
764.71	237.39
765.04	237.21
765.37	237.09
765.69	236.97
766.02	236.82
766.34	236.69
766.67	236.53
767.00	236.44
767.32	236.36
767.65	236.30
767.97	236.15
768.30	236.06
768.62	235.94
768.95	235.80
769.27	235.63
769.60	235.55
769.92	235.42
770.25	235.27
770.57	235.17
770.90	235.06
771.22	234.91
771.55	234.80
771.87	234.74
772.20	234.62
772.52	234.59
772.85	234.65
773.17	234.59
773.50	234.53
773.82	234.41
774.15	234.25
774.47	234.09
774.80	234.00
775.12	233.90
775.45	233.80
775.77	233.73
776.09	233.69
776.42	233.62
776.74	233.56
777.07	233.50
777.39	233.42
777.72	233.34
778.04	233.27
778.36	233.21
778.69	233.15
779.01	233.12
779.33	232.95
779.66	232.73
779.98	232.61
780.31	232.53
780.63	232.47
780.95	232.44
781.28	232.41
781.60	232.33
781.92	232.24
782.25	232.18
782.57	232.11
782.89	232.04
783.22	231.95
783.54	231.91
783.86	231.85
784.19	231.78
784.51	231.74
784.83	231.72
785.16	231.66
785.48	231.60
785.80	231.54
786.12	231.53
786.45	231.47
786.77	231.43
787.09	231.37
787.42	231.34
787.74	231.29
788.06	231.22
788.38	231.21
788.71	231.16
789.03	231.13
789.35	231.10
789.67	231.05
789.99	230.98
790.32	230.94
790.64	230.90
790.96	230.95
791.28	230.87
791.61	230.83
791.93	230.80
792.25	230.74
792.57	230.77
792.89	230.72
793.21	230.73
793.54	230.73
793.86	230.69
794.18	230.62
794.50	230.57
794.82	230.56
795.14	230.54
795.47	230.56
795.79	230.55
796.11	230.50
796.43	230.47
796.75	230.47
797.07	230.44
797.39	230.42
797.71	230.30
798.04	230.27
798.36	230.21
798.68	230.20
799.00	230.21
799.32	230.14
799.64	230.10
799.96	230.05
800.28	230.00
800.60	229.99
800.92	229.97
801.24	229.96
801.56	229.97
801.89	229.91
802.21	229.87
802.53	229.82
802.85	229.83
803.17	229.83
803.49	229.80
803.81	229.76
804.13	229.73
804.45	229.69
804.77	229.67
805.09	229.65
805.41	229.56
805.73	229.48
806.05	229.42
806.37	229.40
806.69	229.36
807.01	229.34
807.33	229.29
807.65	229.21
807.97	229.19
808.28	229.12
808.60	229.12
808.92	229.05
809.24	229.06
809.56	229.00
809.88	228.97
810.20	228.95
810.52	228.89
810.84	228.83
811.16	228.80
811.48	228.78
811.80	228.77
812.12	228.77
812.43	228.75
812.75	228.73
813.07	228.66
813.39	228.67
813.71	228.65
814.03	228.64
814.35	228.65
814.67	228.62
814.98	228.59
815.30	228.54
815.62	228.52
815.94	228.43
816.26	228.42
816.58	228.34
816.89	228.33
817.21	228.30
817.53	228.30
817.85	228.31
818.17	228.31
818.48	228.26
818.80	228.26
819.12	228.24
819.44	228.18
819.76	228.21
820.07	228.18
820.39	228.12
820.71	228.11
821.03	228.08
821.34	228.01
821.66	228.04
821.98	228.04
822.30	228.02
822.61	228.06
822.93	228.07
823.25	228.06
823.57	228.06
823.88	228.09
824.20	228.04
824.52	228.04
824.83	228.03
825.15	228.04
825.47	228.01
825.79	227.98
826.10	227.97
826.42	227.94
826.74	227.93
827.05	227.94
827.37	227.93
827.69	227.90
828.00	227.95
828.32	227.89
828.64	227.84
828.95	227.90
829.27	227.87
829.58	227.81
829.90	227.84
830.22	227.80
830.53	227.77
830.85	227.77
831.17	227.76
831.48	227.73
831.80	227.69
832.11	227.68
832.43	227.70
832.75	227.73
833.06	227.78
833.38	227.73
833.69	227.72
834.01	227.71
834.32	227.75
834.64	227.73
834.96	227.75
835.27	227.79
835.59	227.76
835.90	227.76
836.22	227.76
836.53	227.74
836.85	227.77
837.16	227.85
837.48	227.86
837.79	227.87
838.11	227.91
838.42	227.93
838.74	227.93
839.05	227.94
839.37	227.90
839.68	227.85
840.00	227.86
840.31	227.88
840.63	227.87
840.94	227.86
841.26	227.84
841.57	227.84
841.88	227.84
842.20	227.81
842.51	227.79
842.83	227.81
843.14	227.88
843.46	227.86
843.77	227.80
844.08	227.80
844.40	227.77
844.71	227.73
845.03	227.68
845.34	227.70
845.65	227.67
845.97	227.70
846.28	227.70
846.60	227.72
846.91	227.70
847.22	227.67
847.54	227.65
847.85	227.65
848.16	227.63
848.48	227.61
848.79	227.66
849.10	227.69
849.42	227.70
849.73	227.62
850.04	227.59
850.36	227.56
850.67	227.54
850.98	227.55
851.30	227.54
851.61	227.55
851.92	227.51
852.23	227.55
852.55	227.52
852.86	227.51
853.17	227.48
853.49	227.50
853.80	227.50
854.11	227.53
854.42	227.53
854.74	227.51
855.05	227.49
855.36	227.42
855.67	227.37
855.99	227.34
856.30	227.44
856.61	227.41
856.92	227.41
857.23	227.35
857.55	227.32
857.86	227.32
858.17	227.34
858.48	227.31
858.79	227.28
859.11	227.29
859.42	227.24
859.73	227.22
860.04	227.20
860.35	227.20
860.66	227.15
860.98	227.11
861.29	227.09
861.60	227.08
861.91	227.13
862.22	227.09
862.53	227.10
862.84	226.98
863.16	227.02
863.47	227.01
863.78	227.03
864.09	227.00
864.40	227.02
864.71	227.01
865.02	227.03
865.33	226.99
865.64	226.96
865.95	226.97
866.27	227.01
866.58	226.98
866.89	226.98
867.20	226.97
867.51	226.97
867.82	227.01
868.13	227.03
868.44	226.98
868.75	227.00
869.06	227.00
869.37	227.01
869.68	226.98
869.99	226.98
870.30	227.01
870.61	227.03
870.92	226.99
871.23	226.96
871.54	226.98
871.85	227.01
872.16	227.04
872.47	227.04
872.78	227.02
873.09	227.05
873.40	227.04
873.71	227.05
874.02	227.05
874.33	227.05
874.64	227.03
874.95	227.07
875.26	227.05
875.56	227.04
875.87	227.03
876.18	227.05
876.49	227.18
876.80	227.17
877.11	227.16
877.42	227.20
877.73	227.23
878.04	227.25
878.35	227.27
878.66	227.24
878.96	227.25
879.27	227.25
879.58	227.24
879.89	227.25
880.20	227.31
880.51	227.33
880.82	227.32
881.12	227.36
881.43	227.33
881.74	227.34
882.05	227.35
882.36	227.38
882.67	227.36
882.97	227.23
883.28	227.24
883.59	227.29
883.90	227.28
884.21	227.29
884.51	227.28
884.82	227.27
885.13	227.28
885.44	227.29
885.74	227.29
886.05	227.30
886.36	227.31
886.67	227.27
886.98	227.34
887.28	227.32
887.59	227.31
887.90	227.33
888.20	227.33
888.51	227.33
888.82	227.28
889.13	227.30
889.43	227.39
889.74	227.40
890.05	227.39
890.35	227.36
890.66	227.35
890.97	227.30
891.28	227.25
891.58	227.25
891.89	227.25
892.20	227.19
892.50	227.18
892.81	227.17
893.12	227.16
893.42	227.06
893.73	227.06
894.04	227.01
894.34	227.00
894.65	226.97
894.95	226.95
895.26	226.94
895.57	226.97
895.87	226.86
896.18	226.82
896.48	226.84
896.79	226.84
897.10	226.82
897.40	226.83
897.71	226.84
898.01	226.82
898.32	226.79
898.63	226.80
898.93	226.77
899.24	226.76
899.54	226.75
899.85	226.77
900.15	226.77
900.46	226.77
900.76	226.75
901.07	226.74
901.38	226.70
901.68	226.73
901.99	226.64
902.29	226.64
902.60	226.62
902.90	226.59
903.21	226.56
903.51	226.56
903.82	226.57
904.12	226.58
904.43	226.55
904.73	226.54
905.03	226.57
905.34	226.67
905.64	226.65
905.95	226.62
906.25	226.62
906.56	226.62
906.86	226.67
907.17	226.67
907.47	226.71
907.77	226.70
908.08	226.68
908.38	226.73
908.69	226.78
908.99	226.81
909.30	226.80
909.60	226.80
909.90	226.80
910.21	226.77
910.51	226.76
910.81	226.80
911.12	226.81
911.42	226.81
911.73	226.71
912.03	226.72
912.33	226.78
912.64	226.77
912.94	226.76
913.24	226.70
913.55	226.69
913.85	226.68
914.15	226.77
914.46	226.82
914.76	226.82
915.06	226.81
915.37	226.81
915.67	226.86
915.97	226.87
916.27	226.85
916.58	226.91
916.88	226.92
917.18	226.92
917.49	226.98
917.79	227.00
918.09	227.05
918.39	227.03
918.70	227.01
919.00	227.01
919.30	227.08
919.60	227.10
919.91	227.12
920.21	227.13
920.51	227.05
920.81	227.03
921.12	227.05
921.42	227.05
921.72	227.07
922.02	227.07
922.32	227.08
922.63	227.11
922.93	227.14
923.23	227.16
923.53	227.13
923.83	227.12
924.13	227.09
924.44	227.06
924.74	227.12
925.04	227.11
925.34	227.14
925.64	227.08
925.94	227.06
926.24	227.08
926.55	227.06
926.85	227.09
927.15	227.08
927.45	227.07
927.75	227.05
928.05	227.02
928.35	226.97
928.65	226.99
928.95	226.98
929.26	226.94
929.56	226.93
929.86	226.93
930.16	226.88
930.46	226.89
930.76	226.88
931.06	226.85
931.36	226.85
931.66	226.85
931.96	226.85
932.26	226.88
932.56	226.85
932.86	226.86
933.16	226.87
933.46	226.84
933.76	226.84
934.06	226.87
934.36	226.86
934.66	226.88
934.96	226.85
935.26	226.85
935.56	226.86
935.86	226.82
936.16	226.82
936.46	226.85
936.76	226.84
937.06	226.85
937.36	226.82
937.66	226.83
937.96	226.78
938.26	226.75
938.56	226.73
938.86	226.76
939.16	226.80
939.46	226.79
939.76	226.82
940.06	226.77
940.35	226.72
940.65	226.70
940.95	226.72
941.25	226.73
941.55	226.72
941.85	226.71
942.15	226.76
942.45	226.80
942.75	226.77
943.04	226.76
943.34	226.76
943.64	226.76
943.94	226.69
944.24	226.74
944.54	226.75
944.84	226.76
945.13	226.72
945.43	226.70
945.73	226.71
946.03	226.70
946.33	226.70
946.62	226.72
946.92	226.70
947.22	226.69
947.52	226.69
947.82	226.70
948.11	226.71
948.41	226.67
948.71	226.63
949.01	226.65
949.31	226.61
949.60	226.61
949.90	226.63
950.20	226.67
950.50	226.65
950.79	226.64
951.09	226.64
951.39	226.65
951.69	226.63
951.98	226.65
952.28	226.65
952.58	226.66
952.87	226.65
953.17	226.70
953.47	226.67
953.76	226.65
954.06	226.61
954.36	226.58
954.66	226.61
954.95	226.62
955.25	226.60
955.55	226.65
955.84	226.64
956.14	226.67
956.44	226.71
956.73	226.69
957.03	226.69
957.32	226.70
957.62	226.71
957.92	226.75
958.21	226.73
958.51	226.84
958.81	226.84
959.10	226.87
959.40	226.88
959.69	226.90
959.99	226.94
960.29	226.93
960.58	226.92
960.88	226.93
961.17	226.92
961.47	226.93
961.76	226.94
962.06	226.95
962.36	226.91
962.65	226.92
962.95	226.91
963.24	226.92
963.54	226.94
963.83	226.93
964.13	226.90
964.42	226.86
964.72	226.74
965.01	226.73
965.31	226.68
965.60	226.64
965.90	226.70
966.19	226.66
966.49	226.69
966.78	226.68
967.08	226.67
967.37	226.67
967.67	226.66
967.96	226.65
968.26	226.64
968.55	226.64
968.85	226.59
969.14	226.64
969.43	226.62
969.73	226.56
970.02	226.55
970.32	226.53
970.61	226.53
970.91	226.52
971.20	226.49
971.49	226.51
971.79	226.53
972.08	226.45
972.38	226.46
972.67	226.47
972.96	226.50
973.26	226.45
973.55	226.49
973.85	226.47
974.14	226.47
974.43	226.46
974.73	226.43
975.02	226.44
975.31	226.41
975.61	226.44
975.90	226.45
976.19	226.45
976.49	226.46
976.78	226.46
977.07	226.46
977.37	226.47
977.66	226.47
977.95	226.42
978.24	226.45
978.54	226.43
978.83	226.39
979.12	226.38
979.42	226.40
979.71	226.37
980.00	226.39
980.29	226.39
980.59	226.38
980.88	226.42
981.17	226.44
981.46	226.43
981.76	226.37
982.05	226.41
982.34	226.42
982.63	226.45
982.93	226.46
983.22	226.49
983.51	226.49
983.80	226.53
984.09	226.56
984.39	226.54
984.68	226.55
984.97	226.58
985.26	226.57
985.55	226.59
985.85	226.60
986.14	226.63
986.43	226.61
986.72	226.62
987.01	226.61
987.30	226.60
987.59	226.60
987.89	226.66
988.18	226.66
988.47	226.63
988.76	226.62
989.05	226.61
989.34	226.65
989.63	226.66
989.92	226.61
990.22	226.62
990.51	226.62
990.80	226.60
991.09	226.58
991.38	226.61
991.67	226.62
991.96	226.62
992.25	226.63
992.54	226.66
992.83	226.67
993.12	226.64
993.41	226.67
993.70	226.72
993.99	226.73
994.28	226.74
994.58	226.76
994.87	226.76
995.16	226.77
995.45	226.70
995.74	226.71
996.03	226.76
996.32	226.76
996.61	226.78
996.90	226.80
997.19	226.82
997.48	226.82
997.77	226.79
998.06	226.78
998.34	226.74
998.63	226.72
998.92	226.72
999.21	226.72
999.50	226.73
999.79	226.68
1000.08	226.66
1000.37	226.68
1000.66	226.64
1000.95	226.64
1001.24	226.65
1001.53	226.70
1001.82	226.71
1002.11	226.65
1002.40	226.67
1002.68	226.68
1002.97	226.74
1003.26	226.72
1003.55	226.70
1003.84	226.67
1004.13	226.68
1004.42	226.67
1004.71	226.69
1004.99	226.66
1005.28	226.70
1005.57	226.65
1005.86	226.64
1006.15	226.63
1006.44	226.56
1006.72	226.57
1007.01	226.54
1007.30	226.54
1007.59	226.51
1007.88	226.49
1008.17	226.52
1008.45	226.46
1008.74	226.42
1009.03	226.38
1009.32	226.38
1009.60	226.36
1009.89	226.40
1010.18	226.35
1010.47	226.31
1010.76	226.27
1011.04	226.28
1011.33	226.28
1011.62	226.28
1011.91	226.27
1012.19	226.25
1012.48	226.26
1012.77	226.26
1013.05	226.32
1013.34	226.30
1013.63	226.30
1013.92	226.30
1014.20	226.28
1014.49	226.32
1014.78	226.35
1015.06	226.32
1015.35	226.31
1015.64	226.32
1015.92	226.31
1016.21	226.38
1016.50	226.38
1016.78	226.40
1017.07	226.41
1017.36	226.41
1017.64	226.38
1017.93	226.44
1018.22	226.44
1018.50	226.45
1018.79	226.48
1019.08	226.43
1019.36	226.44
1019.65	226.38
1019.93	226.41
1020.22	226.44
1020.51	226.47
1020.79	226.48
1021.08	226.23
1021.36	226.28
1021.65	226.91
1021.94	226.47
1022.22	226.51
1022.51	225.42
1022.79	226.98
1023.08	226.67
1023.36	227.68
1023.65	226.63
>>>>>End Processed Spectral Data<<<<<
