SpectraSuite Data File
++++++++++++++++++++++++++++++++++++
Date: Fri Feb 01 15:49:37 EST 2013
User: group
Dark Spectrum Present: No
Reference Spectrum Present: No
Number of Sampled Component Spectra: 1
Spectrometers: USB2E7196
Integration Time (usec): 35000 (USB2E7196)
Spectra Averaged: 100 (USB2E7196)
Boxcar Smoothing: 10 (USB2E7196)
Correct for Electrical Dark: No (USB2E7196)
Strobe/Lamp Enabled: No (USB2E7196)
Correct for Detector Non-linearity: No (USB2E7196)
Correct for Stray Light: No (USB2E7196)
Number of Pixels in Processed Spectrum: 2048
>>>>>Begin Processed Spectral Data<<<<<
339.09	0.00
339.48	215.02
339.86	216.21
340.24	217.76
340.63	219.31
341.01	221.74
341.39	221.93
341.78	222.62
342.16	223.83
342.54	224.70
342.93	213.12
343.31	223.88
343.69	224.41
344.07	224.91
344.46	225.32
344.84	225.70
345.22	225.97
345.60	226.21
345.99	226.43
346.37	226.58
346.75	226.66
347.13	226.73
347.52	226.78
347.90	226.84
348.28	226.88
348.66	226.94
349.05	226.96
349.43	226.97
349.81	227.01
350.19	227.06
350.57	227.14
350.96	227.19
351.34	227.28
351.72	227.36
352.10	227.42
352.48	227.49
352.87	227.52
353.25	227.54
353.63	227.60
354.01	227.65
354.39	227.75
354.77	227.83
355.15	227.91
355.54	227.98
355.92	228.02
356.30	228.09
356.68	228.20
357.06	228.27
357.44	228.33
357.82	228.40
358.20	228.46
358.58	228.51
358.97	228.56
359.35	228.63
359.73	228.71
360.11	228.77
360.49	228.84
360.87	228.88
361.25	228.98
361.63	229.03
362.01	229.11
362.39	229.13
362.77	229.21
363.15	229.24
363.53	229.28
363.91	229.28
364.29	229.28
364.67	229.20
365.05	229.20
365.43	229.20
365.81	229.23
366.19	229.28
366.57	229.33
366.95	229.37
367.33	229.34
367.71	229.34
368.09	229.30
368.47	229.26
368.85	229.25
369.23	229.21
369.61	229.17
369.99	229.11
370.37	229.07
370.75	229.04
371.13	228.97
371.51	228.91
371.89	228.90
372.27	228.88
372.65	228.83
373.03	228.79
373.41	228.73
373.78	228.64
374.16	228.52
374.54	228.43
374.92	228.32
375.30	228.26
375.68	228.15
376.06	228.12
376.44	228.07
376.82	228.01
377.19	227.96
377.57	227.91
377.95	227.84
378.33	227.79
378.71	227.68
379.09	227.64
379.47	227.58
379.84	227.50
380.22	227.42
380.60	227.36
380.98	227.29
381.36	227.25
381.73	227.20
382.11	227.14
382.49	227.09
382.87	227.02
383.25	226.99
383.62	227.05
384.00	226.98
384.38	226.90
384.76	226.87
385.13	226.86
385.51	226.77
385.89	226.72
386.27	226.65
386.64	226.64
387.02	226.58
387.40	226.52
387.78	226.48
388.15	226.43
388.53	226.36
388.91	226.32
389.29	226.30
389.66	226.26
390.04	226.20
390.42	226.21
390.79	226.20
391.17	226.17
391.55	226.02
391.92	226.02
392.30	226.04
392.68	226.03
393.05	226.03
393.43	226.03
393.81	226.03
394.18	226.03
394.56	226.03
394.94	226.07
395.31	226.11
395.69	226.15
396.06	226.19
396.44	226.24
396.82	226.26
397.19	226.32
397.57	226.34
397.95	226.45
398.32	226.44
398.70	226.49
399.07	226.55
399.45	226.64
399.82	226.71
400.20	226.77
400.58	226.80
400.95	226.82
401.33	226.92
401.70	227.08
402.08	227.18
402.45	227.28
402.83	227.39
403.20	227.49
403.58	227.60
403.95	227.74
404.33	227.85
404.71	227.96
405.08	228.15
405.46	228.30
405.83	228.45
406.21	228.61
406.58	228.81
406.96	228.97
407.33	229.16
407.70	229.34
408.08	229.62
408.45	229.89
408.83	230.09
409.20	230.32
409.58	230.52
409.95	230.81
410.33	231.11
410.70	231.36
411.08	231.67
411.45	232.00
411.82	232.32
412.20	232.68
412.57	233.14
412.95	233.45
413.32	233.91
413.69	234.32
414.07	234.77
414.44	235.24
414.82	235.74
415.19	236.30
415.56	236.87
415.94	237.38
416.31	238.02
416.68	238.68
417.06	239.43
417.43	240.10
417.81	240.87
418.18	241.65
418.55	242.52
418.93	243.38
419.30	244.27
419.67	245.20
420.04	246.18
420.42	247.17
420.79	248.34
421.16	249.46
421.54	250.65
421.91	251.88
422.28	253.15
422.66	254.47
423.03	255.75
423.40	257.07
423.77	258.50
424.15	259.92
424.52	261.39
424.89	262.97
425.26	264.52
425.64	265.97
426.01	267.57
426.38	269.18
426.75	270.86
427.13	272.59
427.50	274.41
427.87	276.30
428.24	278.15
428.61	279.88
428.99	281.78
429.36	283.88
429.73	285.93
430.10	287.96
430.47	290.04
430.85	292.17
431.22	294.41
431.59	296.80
431.96	299.05
432.33	301.51
432.70	303.89
433.08	306.70
433.45	309.28
433.82	311.88
434.19	314.81
434.56	317.61
434.93	320.25
435.30	322.87
435.68	325.75
436.05	328.58
436.42	331.36
436.79	333.91
437.16	336.60
437.53	339.42
437.90	342.21
438.27	344.94
438.64	347.79
439.01	350.36
439.38	352.61
439.75	354.75
440.13	357.27
440.50	359.60
440.87	361.43
441.24	363.40
441.61	365.50
441.98	366.99
442.35	368.76
442.72	370.61
443.09	372.43
443.46	373.40
443.83	374.00
444.20	374.52
444.57	375.38
444.94	375.65
445.31	375.96
445.68	376.32
446.05	376.41
446.42	376.04
446.79	375.65
447.16	375.17
447.53	374.82
447.90	373.64
448.27	372.45
448.64	370.87
449.01	369.72
449.37	367.80
449.74	365.87
450.11	363.66
450.48	361.20
450.85	358.63
451.22	356.47
451.59	354.42
451.96	352.49
452.33	349.84
452.70	347.50
453.07	344.69
453.43	341.76
453.80	338.96
454.17	336.25
454.54	333.71
454.91	331.00
455.28	328.38
455.65	325.86
456.02	323.42
456.38	321.28
456.75	318.66
457.12	316.41
457.49	314.22
457.86	312.05
458.23	310.23
458.59	308.22
458.96	306.19
459.33	304.33
459.70	302.46
460.07	300.98
460.43	299.27
460.80	297.66
461.17	296.26
461.54	294.79
461.91	293.38
462.27	291.90
462.64	290.67
463.01	289.32
463.38	288.07
463.74	286.71
464.11	285.55
464.48	284.49
464.85	283.38
465.21	282.46
465.58	281.56
465.95	280.44
466.32	279.55
466.68	278.65
467.05	277.76
467.42	276.91
467.78	275.99
468.15	275.07
468.52	274.44
468.88	273.58
469.25	272.80
469.62	272.16
469.98	271.51
470.35	270.87
470.72	270.26
471.08	269.62
471.45	269.10
471.82	268.56
472.18	267.97
472.55	267.49
472.92	267.00
473.28	266.51
473.65	266.05
474.02	265.62
474.38	265.27
474.75	264.95
475.11	264.56
475.48	264.30
475.85	264.10
476.21	263.82
476.58	263.60
476.94	263.46
477.31	263.29
477.67	263.15
478.04	263.02
478.41	262.97
478.77	262.99
479.14	262.90
479.50	262.91
479.87	263.02
480.23	263.14
480.60	263.21
480.96	263.33
481.33	263.52
481.69	263.65
482.06	263.82
482.42	264.04
482.79	264.34
483.15	264.65
483.52	265.03
483.88	265.39
484.25	265.84
484.61	266.23
484.98	266.72
485.34	267.28
485.71	267.89
486.07	268.50
486.44	269.07
486.80	269.78
487.17	270.46
487.53	271.23
487.90	272.09
488.26	273.04
488.62	274.01
488.99	274.95
489.35	276.02
489.72	277.14
490.08	278.33
490.44	279.56
490.81	280.89
491.17	282.23
491.54	283.71
491.90	285.21
492.26	286.90
492.63	288.63
492.99	290.37
493.36	292.27
493.72	294.29
494.08	296.41
494.45	298.64
494.81	301.05
495.17	303.49
495.54	306.06
495.90	308.70
496.26	311.51
496.63	314.54
496.99	317.67
497.35	320.92
497.72	324.33
498.08	327.84
498.44	331.46
498.80	335.44
499.17	339.47
499.53	343.66
499.89	348.00
500.26	352.46
500.62	357.14
500.98	362.06
501.34	367.14
501.71	372.51
502.07	378.00
502.43	383.60
502.79	389.44
503.16	395.46
503.52	401.80
503.88	408.18
504.24	414.82
504.60	421.69
504.97	428.82
505.33	436.12
505.69	443.83
506.05	451.69
506.41	459.45
506.78	467.68
507.14	476.06
507.50	484.76
507.86	493.82
508.22	503.00
508.59	512.24
508.95	521.83
509.31	531.61
509.67	541.77
510.03	552.07
510.39	562.64
510.75	573.47
511.12	584.36
511.48	595.70
511.84	607.11
512.20	618.61
512.56	630.50
512.92	642.71
513.28	655.00
513.64	667.48
514.00	680.28
514.37	693.17
514.73	706.30
515.09	719.39
515.45	732.65
515.81	746.23
516.17	760.20
516.53	774.24
516.89	788.35
517.25	802.43
517.61	816.89
517.97	831.31
518.33	845.66
518.69	860.39
519.05	875.34
519.41	890.55
519.77	906.04
520.13	921.56
520.49	936.92
520.85	952.32
521.21	968.09
521.57	984.30
521.93	1000.06
522.29	1016.46
522.65	1032.68
523.01	1048.90
523.37	1064.99
523.73	1081.16
524.09	1097.36
524.45	1113.74
524.81	1130.42
525.17	1147.24
525.53	1164.16
525.89	1181.16
526.25	1198.02
526.61	1214.34
526.97	1231.01
527.33	1247.57
527.68	1264.15
528.04	1280.51
528.40	1297.07
528.76	1314.04
529.12	1330.56
529.48	1347.40
529.84	1363.36
530.20	1379.91
530.56	1396.97
530.91	1414.39
531.27	1431.17
531.63	1447.59
531.99	1464.08
532.35	1480.03
532.71	1495.81
533.07	1512.03
533.42	1527.79
533.78	1543.82
534.14	1560.18
534.50	1575.55
534.86	1591.34
535.21	1606.53
535.57	1622.48
535.93	1637.96
536.29	1652.66
536.65	1667.72
537.00	1682.57
537.36	1697.88
537.72	1712.51
538.08	1726.83
538.44	1740.58
538.79	1754.39
539.15	1768.01
539.51	1781.83
539.87	1796.15
540.22	1809.94
540.58	1823.73
540.94	1837.08
541.29	1850.01
541.65	1862.66
542.01	1875.89
542.37	1888.16
542.72	1900.55
543.08	1912.35
543.44	1924.92
543.79	1936.15
544.15	1947.19
544.51	1958.63
544.87	1969.84
545.22	1980.59
545.58	1990.67
545.94	2000.46
546.29	2010.29
546.65	2020.17
547.01	2029.34
547.36	2038.04
547.72	2046.44
548.07	2054.17
548.43	2062.39
548.79	2070.26
549.14	2077.66
549.50	2084.86
549.86	2092.50
550.21	2099.85
550.57	2106.95
550.92	2113.40
551.28	2120.52
551.64	2127.52
551.99	2134.02
552.35	2139.94
552.70	2146.11
553.06	2152.21
553.41	2158.57
553.77	2164.53
554.13	2170.44
554.48	2176.52
554.84	2181.88
555.19	2187.21
555.55	2192.33
555.90	2196.75
556.26	2201.72
556.61	2206.48
556.97	2210.89
557.32	2215.13
557.68	2219.25
558.03	2223.68
558.39	2227.37
558.74	2231.96
559.10	2235.89
559.45	2239.54
559.81	2243.80
560.16	2247.58
560.52	2250.68
560.87	2254.01
561.23	2256.78
561.58	2259.90
561.94	2262.46
562.29	2264.95
562.64	2267.43
563.00	2270.25
563.35	2273.82
563.71	2276.89
564.06	2280.32
564.42	2283.15
564.77	2285.58
565.12	2287.88
565.48	2289.68
565.83	2291.57
566.19	2292.71
566.54	2293.61
566.89	2294.75
567.25	2295.33
567.60	2296.52
567.96	2298.38
568.31	2299.18
568.66	2300.19
569.02	2300.76
569.37	2301.11
569.72	2301.99
570.08	2302.29
570.43	2302.27
570.78	2301.52
571.14	2299.99
571.49	2298.55
571.84	2298.28
572.20	2297.15
572.55	2296.02
572.90	2294.46
573.26	2293.02
573.61	2291.52
573.96	2289.62
574.31	2286.67
574.67	2283.60
575.02	2280.11
575.37	2276.70
575.72	2272.98
576.08	2269.75
576.43	2266.45
576.78	2262.77
577.13	2259.63
577.49	2256.51
577.84	2252.86
578.19	2249.31
578.54	2245.73
578.90	2241.38
579.25	2235.78
579.60	2230.87
579.95	2225.83
580.30	2220.92
580.66	2215.83
581.01	2210.92
581.36	2206.15
581.71	2201.97
582.06	2197.63
582.42	2193.17
582.77	2187.95
583.12	2183.23
583.47	2178.45
583.82	2173.32
584.17	2167.95
584.53	2162.28
584.88	2156.76
585.23	2151.08
585.58	2145.48
585.93	2139.92
586.28	2135.29
586.63	2130.17
586.98	2125.09
587.34	2120.38
587.69	2115.38
588.04	2110.05
588.39	2104.28
588.74	2097.70
589.09	2091.53
589.44	2084.69
589.79	2078.77
590.14	2073.14
590.49	2066.61
590.84	2060.26
591.19	2054.33
591.54	2047.89
591.89	2040.53
592.25	2033.48
592.60	2026.22
592.95	2018.73
593.30	2011.41
593.65	2003.80
594.00	1996.75
594.35	1989.51
594.70	1981.48
595.05	1974.33
595.40	1966.99
595.75	1959.53
596.10	1953.31
596.45	1946.61
596.80	1940.43
597.15	1933.74
597.50	1926.63
597.85	1920.20
598.19	1913.46
598.54	1906.25
598.89	1899.64
599.24	1893.82
599.59	1887.17
599.94	1881.03
600.29	1874.61
600.64	1868.19
600.99	1860.78
601.34	1853.98
601.69	1847.04
602.04	1840.16
602.39	1832.76
602.74	1825.92
603.08	1819.17
603.43	1812.47
603.78	1805.24
604.13	1797.93
604.48	1790.53
604.83	1783.67
605.18	1776.67
605.53	1768.64
605.87	1760.72
606.22	1753.61
606.57	1745.64
606.92	1738.43
607.27	1731.18
607.62	1724.28
607.96	1716.91
608.31	1710.17
608.66	1702.53
609.01	1694.88
609.36	1687.37
609.70	1679.39
610.05	1671.55
610.40	1663.86
610.75	1655.40
611.10	1647.60
611.44	1639.28
611.79	1631.36
612.14	1622.67
612.49	1613.61
612.83	1605.34
613.18	1597.14
613.53	1588.95
613.88	1580.31
614.22	1572.05
614.57	1563.44
614.92	1555.34
615.27	1547.81
615.61	1539.50
615.96	1531.51
616.31	1523.88
616.65	1516.46
617.00	1508.89
617.35	1501.16
617.70	1492.77
618.04	1484.34
618.39	1476.16
618.74	1468.55
619.08	1460.19
619.43	1452.65
619.78	1445.72
620.12	1438.57
620.47	1431.13
620.82	1422.99
621.16	1415.68
621.51	1408.13
621.85	1400.51
622.20	1392.06
622.55	1383.61
622.89	1375.77
623.24	1368.25
623.59	1360.84
623.93	1353.26
624.28	1345.93
624.62	1338.26
624.97	1331.14
625.32	1324.53
625.66	1317.60
626.01	1310.47
626.35	1302.99
626.70	1295.16
627.04	1287.36
627.39	1279.51
627.73	1272.10
628.08	1265.29
628.43	1257.95
628.77	1250.44
629.12	1242.97
629.46	1235.78
629.81	1228.35
630.15	1221.10
630.50	1213.63
630.84	1205.56
631.19	1197.76
631.53	1190.43
631.88	1182.99
632.22	1175.35
632.57	1167.96
632.91	1160.28
633.26	1152.86
633.60	1145.60
633.95	1138.55
634.29	1131.59
634.64	1124.93
634.98	1117.57
635.32	1110.36
635.67	1103.76
636.01	1097.18
636.36	1090.34
636.70	1083.73
637.05	1077.17
637.39	1070.66
637.73	1064.17
638.08	1058.26
638.42	1052.25
638.77	1045.61
639.11	1038.97
639.45	1032.67
639.80	1026.03
640.14	1019.67
640.49	1013.08
640.83	1006.76
641.17	1000.47
641.52	994.14
641.86	987.67
642.20	981.83
642.55	975.45
642.89	968.94
643.23	962.43
643.58	956.63
643.92	950.49
644.26	944.46
644.61	938.45
644.95	932.34
645.29	925.69
645.64	918.94
645.98	912.65
646.32	906.83
646.66	900.70
647.01	894.89
647.35	889.11
647.69	883.31
648.04	877.80
648.38	872.01
648.72	865.89
649.06	859.87
649.41	853.97
649.75	847.98
650.09	842.13
650.43	836.33
650.78	830.19
651.12	824.27
651.46	818.50
651.80	812.76
652.14	807.39
652.49	802.05
652.83	796.87
653.17	791.23
653.51	785.51
653.85	780.17
654.20	774.56
654.54	768.54
654.88	762.83
655.22	756.88
655.56	751.21
655.90	745.82
656.25	740.58
656.59	735.25
656.93	730.16
657.27	724.92
657.61	719.55
657.95	714.50
658.29	709.45
658.64	704.28
658.98	698.97
659.32	693.57
659.66	688.32
660.00	682.92
660.34	678.03
660.68	673.13
661.02	668.06
661.36	663.29
661.70	658.85
662.05	654.50
662.39	650.16
662.73	645.68
663.07	641.36
663.41	636.88
663.75	632.34
664.09	627.84
664.43	623.49
664.77	619.30
665.11	614.99
665.45	610.84
665.79	606.69
666.13	602.53
666.47	598.36
666.81	594.18
667.15	590.03
667.49	586.05
667.83	582.18
668.17	578.24
668.51	574.18
668.85	570.18
669.19	566.36
669.53	562.50
669.87	558.67
670.21	554.98
670.55	551.37
670.89	547.95
671.23	544.47
671.57	540.99
671.91	537.43
672.25	533.95
672.58	530.46
672.92	527.04
673.26	523.88
673.60	520.74
673.94	517.67
674.28	514.89
674.62	511.90
674.96	508.75
675.30	505.84
675.64	502.91
675.97	500.11
676.31	497.17
676.65	494.24
676.99	491.51
677.33	488.55
677.67	485.71
678.01	482.65
678.34	479.68
678.68	476.75
679.02	473.92
679.36	471.19
679.70	468.49
680.04	465.80
680.37	462.94
680.71	460.13
681.05	457.49
681.39	454.72
681.73	452.08
682.06	449.58
682.40	447.03
682.74	444.51
683.08	441.95
683.42	439.37
683.75	436.87
684.09	434.30
684.43	431.82
684.77	429.37
685.10	427.03
685.44	424.69
685.78	422.40
686.12	420.12
686.45	417.82
686.79	415.47
687.13	413.26
687.46	411.09
687.80	408.97
688.14	406.78
688.48	404.75
688.81	402.55
689.15	400.43
689.49	398.30
689.82	396.23
690.16	394.17
690.50	392.23
690.83	390.32
691.17	388.39
691.51	386.53
691.84	384.64
692.18	382.69
692.52	380.77
692.85	378.85
693.19	376.99
693.52	375.18
693.86	373.36
694.20	371.57
694.53	369.86
694.87	368.00
695.21	366.25
695.54	364.43
695.88	362.75
696.21	361.04
696.55	359.37
696.88	357.69
697.22	356.03
697.56	354.44
697.89	352.74
698.23	351.14
698.56	349.57
698.90	348.00
699.23	346.39
699.57	344.83
699.90	343.33
700.24	341.79
700.58	340.33
700.91	338.84
701.25	337.44
701.58	336.01
701.92	334.69
702.25	333.31
702.59	331.91
702.92	330.59
703.26	329.32
703.59	328.03
703.93	326.85
704.26	325.60
704.60	324.26
704.93	323.01
705.26	321.79
705.60	320.60
705.93	319.47
706.27	318.48
706.60	317.43
706.94	316.34
707.27	315.25
707.61	314.10
707.94	313.10
708.27	312.02
708.61	310.96
708.94	309.93
709.28	308.95
709.61	307.97
709.94	306.99
710.28	305.94
710.61	304.96
710.95	303.86
711.28	302.95
711.61	302.00
711.95	301.08
712.28	300.09
712.61	299.05
712.95	298.08
713.28	297.14
713.61	296.21
713.95	295.31
714.28	294.46
714.61	293.62
714.95	292.75
715.28	291.86
715.61	290.96
715.95	290.11
716.28	289.22
716.61	288.42
716.95	287.58
717.28	286.84
717.61	286.08
717.94	285.34
718.28	284.52
718.61	283.80
718.94	283.13
719.27	282.49
719.61	281.85
719.94	281.21
720.27	280.47
720.60	279.79
720.94	279.18
721.27	278.58
721.60	277.99
721.93	277.39
722.27	276.85
722.60	276.31
722.93	275.73
723.26	275.16
723.59	274.61
723.93	274.07
724.26	273.49
724.59	272.92
724.92	272.38
725.25	271.88
725.59	271.36
725.92	270.83
726.25	270.31
726.58	269.83
726.91	269.33
727.24	268.89
727.57	268.45
727.91	267.93
728.24	267.44
728.57	266.92
728.90	266.49
729.23	265.99
729.56	265.57
729.89	265.12
730.22	264.66
730.55	264.23
730.89	263.80
731.22	263.37
731.55	262.94
731.88	262.51
732.21	262.10
732.54	261.68
732.87	261.27
733.20	260.88
733.53	260.51
733.86	260.14
734.19	259.71
734.52	259.32
734.85	259.00
735.18	258.61
735.51	258.29
735.84	257.92
736.17	257.56
736.50	257.13
736.83	256.90
737.16	256.58
737.49	256.21
737.82	255.87
738.15	255.55
738.48	255.21
738.81	254.92
739.14	254.59
739.47	254.27
739.80	253.98
740.13	253.67
740.46	253.35
740.79	253.04
741.12	252.77
741.45	252.47
741.78	252.13
742.11	251.85
742.44	251.52
742.77	251.22
743.10	250.96
743.43	250.67
743.75	250.31
744.08	250.17
744.41	249.92
744.74	249.64
745.07	249.36
745.40	249.14
745.73	248.89
746.06	248.62
746.39	248.37
746.71	248.10
747.04	247.82
747.37	247.57
747.70	247.33
748.03	247.09
748.36	246.82
748.68	246.57
749.01	246.31
749.34	246.12
749.67	245.90
750.00	245.69
750.33	245.57
750.65	245.34
750.98	244.97
751.31	244.76
751.64	244.59
751.97	244.43
752.29	244.21
752.62	243.98
752.95	243.80
753.28	243.59
753.60	243.38
753.93	243.20
754.26	242.99
754.59	242.77
754.91	242.53
755.24	242.36
755.57	242.17
755.90	241.94
756.22	241.74
756.55	241.53
756.88	241.30
757.20	241.00
757.53	240.81
757.86	240.66
758.19	240.48
758.51	240.26
758.84	240.04
759.17	239.87
759.49	239.70
759.82	239.55
760.15	239.42
760.47	239.24
760.80	239.09
761.13	238.92
761.45	238.75
761.78	238.61
762.11	238.48
762.43	238.34
762.76	238.21
763.08	238.05
763.41	237.89
763.74	237.74
764.06	237.57
764.39	237.44
764.71	237.25
765.04	237.09
765.37	236.98
765.69	236.81
766.02	236.70
766.34	236.57
766.67	236.40
767.00	236.22
767.32	236.17
767.65	236.10
767.97	235.99
768.30	235.89
768.62	235.78
768.95	235.64
769.27	235.51
769.60	235.41
769.92	235.28
770.25	235.21
770.57	235.09
770.90	235.02
771.22	234.90
771.55	234.81
771.87	234.72
772.20	234.60
772.52	234.62
772.85	234.63
773.17	234.54
773.50	234.47
773.82	234.39
774.15	234.23
774.47	234.09
774.80	234.03
775.12	233.95
775.45	233.89
775.77	233.85
776.09	233.80
776.42	233.78
776.74	233.74
777.07	233.63
777.39	233.59
777.72	233.52
778.04	233.46
778.36	233.42
778.69	233.37
779.01	233.33
779.33	233.21
779.66	233.02
779.98	232.93
780.31	232.87
780.63	232.88
780.95	232.85
781.28	232.79
781.60	232.71
781.92	232.67
782.25	232.60
782.57	232.52
782.89	232.45
783.22	232.40
783.54	232.33
783.86	232.31
784.19	232.29
784.51	232.26
784.83	232.20
785.16	232.16
785.48	232.12
785.80	232.08
786.12	231.99
786.45	231.95
786.77	231.90
787.09	231.83
787.42	231.74
787.74	231.70
788.06	231.65
788.38	231.58
788.71	231.53
789.03	231.50
789.35	231.43
789.67	231.37
789.99	231.29
790.32	231.25
790.64	231.20
790.96	231.23
791.28	231.16
791.61	231.12
791.93	231.09
792.25	231.02
792.57	231.02
792.89	230.98
793.21	230.94
793.54	230.89
793.86	230.84
794.18	230.80
794.50	230.76
794.82	230.72
795.14	230.70
795.47	230.65
795.79	230.58
796.11	230.54
796.43	230.48
796.75	230.44
797.07	230.41
797.39	230.33
797.71	230.15
798.04	230.11
798.36	230.08
798.68	230.03
799.00	229.99
799.32	229.92
799.64	229.91
799.96	229.88
800.28	229.88
800.60	229.86
800.92	229.81
801.24	229.77
801.56	229.73
801.89	229.69
802.21	229.67
802.53	229.64
802.85	229.64
803.17	229.68
803.49	229.64
803.81	229.60
804.13	229.60
804.45	229.59
804.77	229.55
805.09	229.49
805.41	229.41
805.73	229.34
806.05	229.27
806.37	229.21
806.69	229.18
807.01	229.12
807.33	229.12
807.65	229.06
807.97	229.03
808.28	228.99
808.60	228.95
808.92	228.90
809.24	228.91
809.56	228.88
809.88	228.83
810.20	228.78
810.52	228.77
810.84	228.71
811.16	228.68
811.48	228.66
811.80	228.70
812.12	228.71
812.43	228.74
812.75	228.74
813.07	228.73
813.39	228.69
813.71	228.65
814.03	228.60
814.35	228.60
814.67	228.56
814.98	228.54
815.30	228.54
815.62	228.51
815.94	228.42
816.26	228.42
816.58	228.39
816.89	228.42
817.21	228.35
817.53	228.35
817.85	228.37
818.17	228.34
818.48	228.28
818.80	228.24
819.12	228.22
819.44	228.16
819.76	228.13
820.07	228.12
820.39	228.11
820.71	228.12
821.03	228.09
821.34	228.09
821.66	228.07
821.98	228.06
822.30	228.07
822.61	228.14
822.93	228.13
823.25	228.13
823.57	228.09
823.88	228.14
824.20	228.17
824.52	228.15
824.83	228.15
825.15	228.12
825.47	228.15
825.79	228.14
826.10	228.17
826.42	228.17
826.74	228.19
827.05	228.19
827.37	228.20
827.69	228.22
828.00	228.23
828.32	228.24
828.64	228.21
828.95	228.25
829.27	228.18
829.58	228.14
829.90	228.11
830.22	228.13
830.53	228.10
830.85	228.10
831.17	228.06
831.48	228.08
831.80	228.08
832.11	228.07
832.43	228.02
832.75	228.03
833.06	228.08
833.38	228.07
833.69	228.10
834.01	228.10
834.32	228.06
834.64	228.01
834.96	228.03
835.27	228.04
835.59	228.03
835.90	228.02
836.22	228.02
836.53	228.00
836.85	227.99
837.16	228.07
837.48	228.04
837.79	228.07
838.11	228.05
838.42	228.07
838.74	228.06
839.05	228.05
839.37	228.01
839.68	227.94
840.00	227.91
840.31	227.88
840.63	227.83
840.94	227.82
841.26	227.83
841.57	227.77
841.88	227.75
842.20	227.71
842.51	227.70
842.83	227.69
843.14	227.77
843.46	227.75
843.77	227.68
844.08	227.64
844.40	227.59
844.71	227.58
845.03	227.55
845.34	227.53
845.65	227.55
845.97	227.54
846.28	227.51
846.60	227.52
846.91	227.48
847.22	227.50
847.54	227.54
847.85	227.51
848.16	227.51
848.48	227.48
848.79	227.47
849.10	227.47
849.42	227.46
849.73	227.36
850.04	227.33
850.36	227.28
850.67	227.30
850.98	227.33
851.30	227.29
851.61	227.27
851.92	227.24
852.23	227.24
852.55	227.21
852.86	227.21
853.17	227.20
853.49	227.24
853.80	227.24
854.11	227.20
854.42	227.21
854.74	227.17
855.05	227.18
855.36	227.15
855.67	227.15
855.99	227.14
856.30	227.27
856.61	227.27
856.92	227.27
857.23	227.27
857.55	227.28
857.86	227.27
858.17	227.27
858.48	227.27
858.79	227.25
859.11	227.30
859.42	227.32
859.73	227.29
860.04	227.28
860.35	227.24
860.66	227.27
860.98	227.28
861.29	227.33
861.60	227.36
861.91	227.40
862.22	227.35
862.53	227.37
862.84	227.24
863.16	227.27
863.47	227.25
863.78	227.29
864.09	227.26
864.40	227.28
864.71	227.31
865.02	227.33
865.33	227.36
865.64	227.32
865.95	227.32
866.27	227.43
866.58	227.42
866.89	227.44
867.20	227.41
867.51	227.41
867.82	227.41
868.13	227.41
868.44	227.39
868.75	227.44
869.06	227.44
869.37	227.48
869.68	227.44
869.99	227.49
870.30	227.48
870.61	227.52
870.92	227.50
871.23	227.51
871.54	227.51
871.85	227.51
872.16	227.53
872.47	227.54
872.78	227.47
873.09	227.47
873.40	227.43
873.71	227.44
874.02	227.45
874.33	227.45
874.64	227.46
874.95	227.46
875.26	227.44
875.56	227.44
875.87	227.42
876.18	227.45
876.49	227.55
876.80	227.54
877.11	227.50
877.42	227.56
877.73	227.53
878.04	227.53
878.35	227.52
878.66	227.55
878.96	227.54
879.27	227.52
879.58	227.52
879.89	227.53
880.20	227.55
880.51	227.52
880.82	227.51
881.12	227.48
881.43	227.47
881.74	227.44
882.05	227.42
882.36	227.39
882.67	227.36
882.97	227.23
883.28	227.21
883.59	227.21
883.90	227.18
884.21	227.17
884.51	227.15
884.82	227.13
885.13	227.11
885.44	227.11
885.74	227.11
886.05	227.09
886.36	227.07
886.67	227.03
886.98	227.07
887.28	227.05
887.59	227.07
887.90	227.05
888.20	227.03
888.51	227.02
888.82	227.02
889.13	227.02
889.43	227.09
889.74	227.09
890.05	227.06
890.35	227.03
890.66	227.02
890.97	226.97
891.28	226.96
891.58	226.96
891.89	226.93
892.20	226.88
892.50	226.87
892.81	226.87
893.12	226.87
893.42	226.82
893.73	226.84
894.04	226.83
894.34	226.83
894.65	226.83
894.95	226.84
895.26	226.81
895.57	226.88
895.87	226.78
896.18	226.78
896.48	226.79
896.79	226.77
897.10	226.78
897.40	226.79
897.71	226.79
898.01	226.77
898.32	226.81
898.63	226.82
898.93	226.81
899.24	226.83
899.54	226.84
899.85	226.82
900.15	226.81
900.46	226.79
900.76	226.81
901.07	226.83
901.38	226.82
901.68	226.88
901.99	226.81
902.29	226.83
902.60	226.83
902.90	226.87
903.21	226.89
903.51	226.90
903.82	226.98
904.12	226.96
904.43	226.98
904.73	226.97
905.03	227.00
905.34	227.10
905.64	227.07
905.95	227.07
906.25	227.09
906.56	227.13
906.86	227.13
907.17	227.12
907.47	227.14
907.77	227.14
908.08	227.08
908.38	227.09
908.69	227.10
908.99	227.11
909.30	227.09
909.60	227.10
909.90	227.09
910.21	227.03
910.51	227.01
910.81	227.04
911.12	227.02
911.42	227.02
911.73	226.92
912.03	226.95
912.33	226.98
912.64	226.99
912.94	226.97
913.24	226.99
913.55	227.01
913.85	227.00
914.15	226.97
914.46	226.99
914.76	226.98
915.06	226.98
915.37	226.96
915.67	226.94
915.97	226.92
916.27	226.92
916.58	226.91
916.88	226.92
917.18	226.89
917.49	226.95
917.79	226.93
918.09	226.94
918.39	226.97
918.70	226.98
919.00	226.96
919.30	226.94
919.60	226.91
919.91	226.88
920.21	226.86
920.51	226.83
920.81	226.85
921.12	226.88
921.42	226.87
921.72	226.90
922.02	226.90
922.32	226.91
922.63	226.92
922.93	226.95
923.23	226.94
923.53	226.95
923.83	226.90
924.13	226.92
924.44	226.92
924.74	226.94
925.04	226.92
925.34	226.91
925.64	226.91
925.94	226.93
926.24	226.96
926.55	226.97
926.85	227.00
927.15	226.98
927.45	226.95
927.75	226.93
928.05	226.92
928.35	226.92
928.65	226.95
928.95	226.96
929.26	226.92
929.56	226.91
929.86	226.90
930.16	226.87
930.46	226.87
930.76	226.87
931.06	226.78
931.36	226.76
931.66	226.77
931.96	226.78
932.26	226.77
932.56	226.76
932.86	226.76
933.16	226.77
933.46	226.78
933.76	226.78
934.06	226.83
934.36	226.85
934.66	226.84
934.96	226.82
935.26	226.80
935.56	226.83
935.86	226.85
936.16	226.81
936.46	226.82
936.76	226.80
937.06	226.76
937.36	226.78
937.66	226.78
937.96	226.78
938.26	226.78
938.56	226.79
938.86	226.78
939.16	226.79
939.46	226.81
939.76	226.80
940.06	226.82
940.35	226.78
940.65	226.74
940.95	226.74
941.25	226.74
941.55	226.74
941.85	226.72
942.15	226.72
942.45	226.79
942.75	226.78
943.04	226.81
943.34	226.83
943.64	226.82
943.94	226.84
944.24	226.84
944.54	226.84
944.84	226.82
945.13	226.80
945.43	226.78
945.73	226.79
946.03	226.77
946.33	226.73
946.62	226.74
946.92	226.74
947.22	226.78
947.52	226.76
947.82	226.77
948.11	226.77
948.41	226.73
948.71	226.69
949.01	226.70
949.31	226.68
949.60	226.68
949.90	226.73
950.20	226.70
950.50	226.70
950.79	226.71
951.09	226.77
951.39	226.75
951.69	226.77
951.98	226.78
952.28	226.80
952.58	226.80
952.87	226.78
953.17	226.80
953.47	226.76
953.76	226.77
954.06	226.75
954.36	226.74
954.66	226.74
954.95	226.77
955.25	226.78
955.55	226.81
955.84	226.80
956.14	226.79
956.44	226.81
956.73	226.77
957.03	226.75
957.32	226.72
957.62	226.74
957.92	226.75
958.21	226.76
958.51	226.81
958.81	226.86
959.10	226.85
959.40	226.86
959.69	226.86
959.99	226.86
960.29	226.87
960.58	226.88
960.88	226.94
961.17	226.93
961.47	226.93
961.76	226.92
962.06	226.94
962.36	226.92
962.65	226.92
962.95	226.96
963.24	226.95
963.54	226.92
963.83	226.92
964.13	226.90
964.42	226.86
964.72	226.78
965.01	226.80
965.31	226.80
965.60	226.77
965.90	226.84
966.19	226.82
966.49	226.78
966.78	226.78
967.08	226.74
967.37	226.74
967.67	226.69
967.96	226.71
968.26	226.68
968.55	226.69
968.85	226.67
969.14	226.63
969.43	226.62
969.73	226.62
970.02	226.60
970.32	226.58
970.61	226.52
970.91	226.52
971.20	226.48
971.49	226.49
971.79	226.50
972.08	226.43
972.38	226.43
972.67	226.43
972.96	226.44
973.26	226.42
973.55	226.44
973.85	226.45
974.14	226.41
974.43	226.41
974.73	226.39
975.02	226.40
975.31	226.42
975.61	226.42
975.90	226.44
976.19	226.42
976.49	226.42
976.78	226.47
977.07	226.46
977.37	226.47
977.66	226.47
977.95	226.45
978.24	226.47
978.54	226.48
978.83	226.49
979.12	226.48
979.42	226.49
979.71	226.51
980.00	226.50
980.29	226.51
980.59	226.50
980.88	226.54
981.17	226.55
981.46	226.52
981.76	226.53
982.05	226.53
982.34	226.58
982.63	226.57
982.93	226.56
983.22	226.62
983.51	226.64
983.80	226.63
984.09	226.64
984.39	226.64
984.68	226.61
984.97	226.64
985.26	226.65
985.55	226.67
985.85	226.62
986.14	226.62
986.43	226.64
986.72	226.66
987.01	226.64
987.30	226.65
987.59	226.66
987.89	226.69
988.18	226.69
988.47	226.66
988.76	226.69
989.05	226.71
989.34	226.67
989.63	226.67
989.92	226.67
990.22	226.68
990.51	226.65
990.80	226.68
991.09	226.68
991.38	226.70
991.67	226.70
991.96	226.69
992.25	226.68
992.54	226.64
992.83	226.64
993.12	226.61
993.41	226.63
993.70	226.67
993.99	226.66
994.28	226.66
994.58	226.67
994.87	226.64
995.16	226.64
995.45	226.61
995.74	226.57
996.03	226.60
996.32	226.58
996.61	226.62
996.90	226.60
997.19	226.61
997.48	226.58
997.77	226.55
998.06	226.60
998.34	226.59
998.63	226.59
998.92	226.57
999.21	226.63
999.50	226.60
999.79	226.56
1000.08	226.53
1000.37	226.54
1000.66	226.55
1000.95	226.56
1001.24	226.56
1001.53	226.58
1001.82	226.60
1002.11	226.58
1002.40	226.60
1002.68	226.63
1002.97	226.73
1003.26	226.70
1003.55	226.70
1003.84	226.72
1004.13	226.70
1004.42	226.69
1004.71	226.68
1004.99	226.68
1005.28	226.68
1005.57	226.70
1005.86	226.65
1006.15	226.66
1006.44	226.62
1006.72	226.61
1007.01	226.60
1007.30	226.59
1007.59	226.58
1007.88	226.58
1008.17	226.57
1008.45	226.56
1008.74	226.48
1009.03	226.42
1009.32	226.42
1009.60	226.40
1009.89	226.39
1010.18	226.37
1010.47	226.41
1010.76	226.44
1011.04	226.46
1011.33	226.42
1011.62	226.40
1011.91	226.47
1012.19	226.47
1012.48	226.49
1012.77	226.51
1013.05	226.55
1013.34	226.55
1013.63	226.57
1013.92	226.58
1014.20	226.58
1014.49	226.56
1014.78	226.57
1015.06	226.52
1015.35	226.50
1015.64	226.53
1015.92	226.54
1016.21	226.56
1016.50	226.56
1016.78	226.54
1017.07	226.55
1017.36	226.59
1017.64	226.60
1017.93	226.57
1018.22	226.57
1018.50	226.57
1018.79	226.57
1019.08	226.54
1019.36	226.54
1019.65	226.52
1019.93	226.54
1020.22	226.53
1020.51	226.61
1020.79	226.62
1021.08	226.36
1021.36	226.50
1021.65	226.63
1021.94	226.52
1022.22	226.49
1022.51	226.31
1022.79	227.34
1023.08	226.27
1023.36	228.07
1023.65	226.25
>>>>>End Processed Spectral Data<<<<<
