SpectraSuite Data File
++++++++++++++++++++++++++++++++++++
Date: Fri Feb 01 16:01:02 EST 2013
User: group
Dark Spectrum Present: No
Reference Spectrum Present: No
Number of Sampled Component Spectra: 1
Spectrometers: USB2E7196
Integration Time (usec): 35000 (USB2E7196)
Spectra Averaged: 100 (USB2E7196)
Boxcar Smoothing: 10 (USB2E7196)
Correct for Electrical Dark: No (USB2E7196)
Strobe/Lamp Enabled: No (USB2E7196)
Correct for Detector Non-linearity: No (USB2E7196)
Correct for Stray Light: No (USB2E7196)
Number of Pixels in Processed Spectrum: 2048
>>>>>Begin Processed Spectral Data<<<<<
339.09	0.00
339.48	215.10
339.86	216.32
340.24	217.16
340.63	218.87
341.01	221.77
341.39	222.20
341.78	223.48
342.16	224.24
342.54	224.97
342.93	213.17
343.31	223.93
343.69	224.45
344.07	224.90
344.46	225.32
344.84	225.70
345.22	225.95
345.60	226.14
345.99	226.30
346.37	226.40
346.75	226.46
347.13	226.52
347.52	226.58
347.90	226.62
348.28	226.61
348.66	226.67
349.05	226.66
349.43	226.71
349.81	226.73
350.19	226.76
350.57	226.81
350.96	226.89
351.34	226.94
351.72	227.03
352.10	227.12
352.48	227.22
352.87	227.26
353.25	227.31
353.63	227.42
354.01	227.48
354.39	227.58
354.77	227.68
355.15	227.78
355.54	227.85
355.92	227.91
356.30	228.05
356.68	228.15
357.06	228.26
357.44	228.33
357.82	228.38
358.20	228.48
358.58	228.53
358.97	228.60
359.35	228.75
359.73	228.82
360.11	228.87
360.49	228.92
360.87	228.98
361.25	229.06
361.63	229.13
362.01	229.17
362.39	229.20
362.77	229.22
363.15	229.22
363.53	229.26
363.91	229.30
364.29	229.29
364.67	229.21
365.05	229.20
365.43	229.20
365.81	229.24
366.19	229.28
366.57	229.35
366.95	229.36
367.33	229.33
367.71	229.30
368.09	229.31
368.47	229.32
368.85	229.28
369.23	229.25
369.61	229.19
369.99	229.20
370.37	229.20
370.75	229.25
371.13	229.23
371.51	229.16
371.89	229.13
372.27	229.09
372.65	229.07
373.03	229.02
373.41	228.95
373.78	228.88
374.16	228.75
374.54	228.67
374.92	228.55
375.30	228.45
375.68	228.39
376.06	228.32
376.44	228.26
376.82	228.22
377.19	228.17
377.57	228.10
377.95	227.99
378.33	227.91
378.71	227.78
379.09	227.72
379.47	227.69
379.84	227.61
380.22	227.53
380.60	227.46
380.98	227.38
381.36	227.29
381.73	227.22
382.11	227.20
382.49	227.10
382.87	227.07
383.25	227.04
383.62	227.11
384.00	227.01
384.38	226.95
384.76	226.90
385.13	226.85
385.51	226.80
385.89	226.74
386.27	226.70
386.64	226.61
387.02	226.55
387.40	226.50
387.78	226.44
388.15	226.41
388.53	226.37
388.91	226.34
389.29	226.32
389.66	226.31
390.04	226.26
390.42	226.28
390.79	226.27
391.17	226.26
391.55	226.13
391.92	226.12
392.30	226.14
392.68	226.11
393.05	226.11
393.43	226.13
393.81	226.17
394.18	226.16
394.56	226.22
394.94	226.25
395.31	226.27
395.69	226.35
396.06	226.40
396.44	226.45
396.82	226.48
397.19	226.56
397.57	226.61
397.95	226.70
398.32	226.71
398.70	226.75
399.07	226.81
399.45	226.87
399.82	226.95
400.20	226.98
400.58	227.09
400.95	227.12
401.33	227.23
401.70	227.37
402.08	227.46
402.45	227.52
402.83	227.63
403.20	227.73
403.58	227.78
403.95	227.88
404.33	228.01
404.71	228.12
405.08	228.28
405.46	228.39
405.83	228.55
406.21	228.72
406.58	228.89
406.96	229.09
407.33	229.22
407.70	229.42
408.08	229.71
408.45	229.93
408.83	230.18
409.20	230.33
409.58	230.48
409.95	230.76
410.33	231.05
410.70	231.31
411.08	231.60
411.45	231.94
411.82	232.25
412.20	232.64
412.57	233.06
412.95	233.36
413.32	233.79
413.69	234.18
414.07	234.61
414.44	235.06
414.82	235.51
415.19	236.10
415.56	236.64
415.94	237.19
416.31	237.84
416.68	238.48
417.06	239.25
417.43	239.99
417.81	240.72
418.18	241.50
418.55	242.33
418.93	243.19
419.30	244.09
419.67	245.04
420.04	245.94
420.42	246.95
420.79	248.12
421.16	249.30
421.54	250.48
421.91	251.69
422.28	252.95
422.66	254.32
423.03	255.59
423.40	256.94
423.77	258.33
424.15	259.72
424.52	261.19
424.89	262.76
425.26	264.27
425.64	265.74
426.01	267.31
426.38	268.95
426.75	270.64
427.13	272.36
427.50	274.13
427.87	276.02
428.24	277.89
428.61	279.69
428.99	281.55
429.36	283.63
429.73	285.68
430.10	287.67
430.47	289.71
430.85	291.85
431.22	294.05
431.59	296.41
431.96	298.67
432.33	301.15
432.70	303.56
433.08	306.37
433.45	309.00
433.82	311.59
434.19	314.50
434.56	317.31
434.93	319.94
435.30	322.54
435.68	325.43
436.05	328.24
436.42	331.01
436.79	333.54
437.16	336.29
437.53	339.14
437.90	342.01
438.27	344.75
438.64	347.55
439.01	350.13
439.38	352.37
439.75	354.52
440.13	357.02
440.50	359.35
440.87	361.19
441.24	363.12
441.61	365.33
441.98	366.84
442.35	368.66
442.72	370.49
443.09	372.35
443.46	373.32
443.83	373.94
444.20	374.43
444.57	375.27
444.94	375.51
445.31	375.82
445.68	376.09
446.05	376.16
446.42	375.77
446.79	375.39
447.16	374.94
447.53	374.64
447.90	373.47
448.27	372.24
448.64	370.71
449.01	369.58
449.37	367.58
449.74	365.68
450.11	363.42
450.48	361.00
450.85	358.43
451.22	356.33
451.59	354.29
451.96	352.32
452.33	349.71
452.70	347.39
453.07	344.58
453.43	341.73
453.80	338.97
454.17	336.32
454.54	333.79
454.91	331.09
455.28	328.37
455.65	325.88
456.02	323.50
456.38	321.33
456.75	318.67
457.12	316.43
457.49	314.20
457.86	312.04
458.23	310.18
458.59	308.16
458.96	306.01
459.33	304.16
459.70	302.32
460.07	300.87
460.43	299.14
460.80	297.49
461.17	296.05
461.54	294.54
461.91	293.11
462.27	291.66
462.64	290.40
463.01	289.04
463.38	287.74
463.74	286.39
464.11	285.15
464.48	284.17
464.85	283.05
465.21	282.20
465.58	281.29
465.95	280.15
466.32	279.24
466.68	278.37
467.05	277.45
467.42	276.58
467.78	275.59
468.15	274.73
468.52	274.10
468.88	273.24
469.25	272.47
469.62	271.85
469.98	271.17
470.35	270.55
470.72	269.99
471.08	269.34
471.45	268.76
471.82	268.26
472.18	267.65
472.55	267.26
472.92	266.69
473.28	266.23
473.65	265.82
474.02	265.39
474.38	265.01
474.75	264.70
475.11	264.36
475.48	264.13
475.85	263.89
476.21	263.68
476.58	263.50
476.94	263.37
477.31	263.18
477.67	263.03
478.04	262.87
478.41	262.77
478.77	262.82
479.14	262.75
479.50	262.75
479.87	262.81
480.23	262.85
480.60	262.94
480.96	263.00
481.33	263.20
481.69	263.44
482.06	263.63
482.42	263.81
482.79	264.07
483.15	264.37
483.52	264.75
483.88	265.08
484.25	265.47
484.61	265.88
484.98	266.37
485.34	266.99
485.71	267.64
486.07	268.29
486.44	268.87
486.80	269.61
487.17	270.41
487.53	271.24
487.90	272.07
488.26	273.02
488.62	274.03
488.99	274.98
489.35	276.01
489.72	277.15
490.08	278.40
490.44	279.63
490.81	280.96
491.17	282.32
491.54	283.84
491.90	285.39
492.26	287.09
492.63	288.85
492.99	290.58
493.36	292.45
493.72	294.45
494.08	296.54
494.45	298.79
494.81	301.13
495.17	303.54
495.54	306.15
495.90	308.84
496.26	311.66
496.63	314.67
496.99	317.79
497.35	321.07
497.72	324.49
498.08	328.00
498.44	331.69
498.80	335.59
499.17	339.61
499.53	343.80
499.89	348.18
500.26	352.66
500.62	357.35
500.98	362.37
501.34	367.48
501.71	372.81
502.07	378.24
502.43	383.91
502.79	389.77
503.16	395.81
503.52	402.09
503.88	408.49
504.24	415.12
504.60	422.01
504.97	429.16
505.33	436.46
505.69	444.22
506.05	452.02
506.41	459.95
506.78	468.10
507.14	476.53
507.50	485.23
507.86	494.20
508.22	503.36
508.59	512.53
508.95	522.15
509.31	532.03
509.67	542.12
510.03	552.30
510.39	562.84
510.75	573.71
511.12	584.64
511.48	595.90
511.84	607.36
512.20	618.86
512.56	630.78
512.92	643.03
513.28	655.30
513.64	667.75
514.00	680.44
514.37	693.43
514.73	706.54
515.09	719.54
515.45	732.91
515.81	746.61
516.17	760.62
516.53	774.69
516.89	788.89
517.25	803.07
517.61	817.57
517.97	831.96
518.33	846.35
518.69	861.10
519.05	876.16
519.41	891.28
519.77	906.95
520.13	922.36
520.49	937.66
520.85	953.18
521.21	968.89
521.57	985.16
521.93	1000.85
522.29	1017.23
522.65	1033.51
523.01	1049.72
523.37	1065.63
523.73	1081.70
524.09	1097.72
524.45	1113.97
524.81	1130.55
525.17	1147.34
525.53	1164.28
525.89	1181.12
526.25	1197.98
526.61	1214.28
526.97	1230.97
527.33	1247.33
527.68	1263.98
528.04	1280.43
528.40	1296.89
528.76	1313.99
529.12	1330.47
529.48	1347.24
529.84	1363.13
530.20	1379.68
530.56	1396.65
530.91	1414.05
531.27	1430.82
531.63	1447.35
531.99	1463.88
532.35	1479.80
532.71	1495.74
533.07	1512.07
533.42	1527.97
533.78	1544.07
534.14	1560.30
534.50	1575.66
534.86	1591.43
535.21	1606.54
535.57	1622.42
535.93	1637.99
536.29	1652.70
536.65	1667.70
537.00	1682.46
537.36	1697.77
537.72	1712.32
538.08	1726.64
538.44	1740.35
538.79	1754.19
539.15	1767.92
539.51	1781.72
539.87	1796.06
540.22	1809.64
540.58	1823.35
540.94	1836.65
541.29	1849.37
541.65	1862.06
542.01	1875.22
542.37	1887.50
542.72	1899.86
543.08	1911.55
543.44	1923.85
543.79	1935.06
544.15	1946.07
544.51	1957.57
544.87	1968.50
545.22	1979.13
545.58	1989.43
545.94	1999.26
546.29	2009.22
546.65	2018.99
547.01	2028.23
547.36	2036.84
547.72	2045.29
548.07	2053.01
548.43	2061.14
548.79	2069.28
549.14	2076.80
549.50	2084.17
549.86	2091.99
550.21	2099.35
550.57	2106.58
550.92	2113.15
551.28	2120.12
551.64	2127.15
551.99	2133.87
552.35	2139.98
552.70	2146.22
553.06	2152.16
553.41	2158.47
553.77	2164.54
554.13	2170.54
554.48	2176.52
554.84	2181.88
555.19	2187.14
555.55	2192.30
555.90	2196.76
556.26	2201.38
556.61	2206.00
556.97	2210.07
557.32	2214.07
557.68	2218.07
558.03	2222.16
558.39	2225.98
558.74	2230.66
559.10	2234.48
559.45	2238.00
559.81	2242.37
560.16	2246.32
560.52	2249.40
560.87	2252.78
561.23	2255.45
561.58	2258.38
561.94	2260.93
562.29	2263.47
562.64	2266.04
563.00	2268.56
563.35	2272.09
563.71	2275.33
564.06	2278.67
564.42	2281.72
564.77	2284.17
565.12	2286.54
565.48	2288.61
565.83	2290.40
566.19	2291.59
566.54	2292.59
566.89	2293.69
567.25	2294.15
567.60	2295.24
567.96	2296.97
568.31	2297.74
568.66	2298.71
569.02	2299.31
569.37	2299.67
569.72	2300.58
570.08	2300.93
570.43	2301.06
570.78	2300.52
571.14	2299.00
571.49	2297.73
571.84	2297.46
572.20	2296.47
572.55	2295.45
572.90	2293.96
573.26	2292.47
573.61	2290.96
573.96	2289.15
574.31	2286.25
574.67	2283.45
575.02	2279.96
575.37	2276.66
575.72	2273.02
576.08	2269.80
576.43	2266.58
576.78	2262.82
577.13	2259.70
577.49	2256.59
577.84	2253.00
578.19	2249.31
578.54	2245.78
578.90	2241.46
579.25	2235.90
579.60	2230.88
579.95	2225.88
580.30	2220.92
580.66	2215.84
581.01	2210.91
581.36	2206.12
581.71	2202.11
582.06	2197.53
582.42	2192.98
582.77	2187.70
583.12	2183.04
583.47	2178.13
583.82	2173.12
584.17	2167.98
584.53	2162.27
584.88	2156.63
585.23	2151.01
585.58	2145.52
585.93	2140.07
586.28	2135.33
586.63	2130.33
586.98	2125.36
587.34	2120.61
587.69	2115.80
588.04	2110.46
588.39	2104.78
588.74	2098.39
589.09	2092.20
589.44	2085.42
589.79	2079.51
590.14	2074.15
590.49	2067.61
590.84	2061.29
591.19	2055.23
591.54	2048.80
591.89	2041.59
592.25	2034.79
592.60	2027.48
592.95	2019.88
593.30	2012.32
593.65	2004.65
594.00	1997.66
594.35	1990.49
594.70	1982.43
595.05	1975.07
595.40	1968.02
595.75	1960.50
596.10	1954.19
596.45	1947.45
596.80	1941.37
597.15	1934.82
597.50	1927.56
597.85	1921.17
598.19	1914.47
598.54	1907.20
598.89	1900.55
599.24	1894.64
599.59	1887.97
599.94	1881.90
600.29	1875.61
600.64	1869.19
600.99	1861.92
601.34	1854.90
601.69	1847.93
602.04	1841.16
602.39	1833.77
602.74	1826.74
603.08	1819.94
603.43	1813.09
603.78	1805.59
604.13	1798.29
604.48	1790.84
604.83	1784.02
605.18	1776.97
605.53	1769.12
605.87	1761.24
606.22	1754.01
606.57	1746.03
606.92	1738.78
607.27	1731.51
607.62	1724.50
607.96	1717.15
608.31	1710.44
608.66	1702.93
609.01	1695.31
609.36	1687.74
609.70	1679.80
610.05	1671.87
610.40	1664.22
610.75	1656.00
611.10	1648.35
611.44	1640.01
611.79	1632.12
612.14	1623.48
612.49	1614.38
612.83	1605.99
613.18	1597.98
613.53	1589.88
613.88	1581.41
614.22	1573.07
614.57	1564.46
614.92	1556.53
615.27	1548.97
615.61	1540.62
615.96	1532.56
616.31	1524.98
616.65	1517.52
617.00	1509.90
617.35	1502.11
617.70	1493.79
618.04	1485.22
618.39	1477.16
618.74	1469.57
619.08	1461.27
619.43	1453.55
619.78	1446.65
620.12	1439.39
620.47	1431.80
620.82	1423.59
621.16	1416.20
621.51	1408.66
621.85	1401.03
622.20	1392.43
622.55	1384.08
622.89	1376.29
623.24	1368.69
623.59	1361.27
623.93	1353.69
624.28	1346.51
624.62	1338.92
624.97	1331.80
625.32	1325.10
625.66	1318.01
626.01	1310.78
626.35	1303.21
626.70	1295.64
627.04	1287.94
627.39	1280.21
627.73	1272.81
628.08	1265.89
628.43	1258.45
628.77	1251.00
629.12	1243.39
629.46	1236.25
629.81	1228.96
630.15	1221.66
630.50	1214.22
630.84	1206.00
631.19	1198.14
631.53	1190.66
631.88	1183.20
632.22	1175.44
632.57	1168.02
632.91	1160.49
633.26	1153.07
633.60	1145.92
633.95	1138.73
634.29	1131.70
634.64	1124.99
634.98	1117.61
635.32	1110.45
635.67	1103.82
636.01	1097.16
636.36	1090.35
636.70	1083.82
637.05	1077.21
637.39	1070.80
637.73	1064.29
638.08	1058.41
638.42	1052.44
638.77	1045.98
639.11	1039.36
639.45	1032.98
639.80	1026.44
640.14	1020.04
640.49	1013.48
640.83	1007.01
641.17	1000.74
641.52	994.33
641.86	987.89
642.20	982.05
642.55	975.80
642.89	969.42
643.23	962.94
643.58	957.21
643.92	951.05
644.26	944.83
644.61	938.79
644.95	932.75
645.29	926.09
645.64	919.32
645.98	912.97
646.32	907.14
646.66	901.13
647.01	895.32
647.35	889.60
647.69	883.82
648.04	878.29
648.38	872.46
648.72	866.58
649.06	860.48
649.41	854.58
649.75	848.62
650.09	842.66
650.43	836.82
650.78	830.68
651.12	824.67
651.46	819.04
651.80	813.27
652.14	807.85
652.49	802.56
652.83	797.39
653.17	791.63
653.51	785.87
653.85	780.56
654.20	774.92
654.54	768.92
654.88	763.18
655.22	757.29
655.56	751.66
655.90	746.16
656.25	740.95
656.59	735.58
656.93	730.46
657.27	725.30
657.61	719.86
657.95	714.74
658.29	709.67
658.64	704.44
658.98	699.09
659.32	693.55
659.66	688.31
660.00	682.95
660.34	678.08
660.68	673.17
661.02	668.05
661.36	663.30
661.70	658.74
662.05	654.40
662.39	650.11
662.73	645.64
663.07	641.24
663.41	636.71
663.75	632.22
664.09	627.65
664.43	623.31
664.77	619.21
665.11	615.00
665.45	610.91
665.79	606.77
666.13	602.72
666.47	598.71
666.81	594.61
667.15	590.53
667.49	586.60
667.83	582.82
668.17	578.92
668.51	574.86
668.85	570.90
669.19	567.03
669.53	563.15
669.87	559.21
670.21	555.47
670.55	551.90
670.89	548.45
671.23	544.93
671.57	541.40
671.91	537.91
672.25	534.41
672.58	530.89
672.92	527.51
673.26	524.33
673.60	521.18
673.94	517.96
674.28	515.13
674.62	512.15
674.96	509.02
675.30	506.09
675.64	503.14
675.97	500.31
676.31	497.43
676.65	494.50
676.99	491.80
677.33	488.92
677.67	486.05
678.01	483.04
678.34	480.15
678.68	477.25
679.02	474.33
679.36	471.62
679.70	468.83
680.04	466.10
680.37	463.21
680.71	460.42
681.05	457.82
681.39	455.05
681.73	452.41
682.06	449.87
682.40	447.31
682.74	444.80
683.08	442.25
683.42	439.68
683.75	437.19
684.09	434.65
684.43	432.20
684.77	429.78
685.10	427.47
685.44	425.15
685.78	422.89
686.12	420.67
686.45	418.33
686.79	416.06
687.13	413.85
687.46	411.68
687.80	409.53
688.14	407.30
688.48	405.27
688.81	403.04
689.15	400.88
689.49	398.74
689.82	396.69
690.16	394.65
690.50	392.68
690.83	390.73
691.17	388.77
691.51	386.86
691.84	385.01
692.18	383.08
692.52	381.05
692.85	379.09
693.19	377.26
693.52	375.42
693.86	373.64
694.20	371.83
694.53	370.01
694.87	368.17
695.21	366.44
695.54	364.56
695.88	362.82
696.21	361.16
696.55	359.49
696.88	357.77
697.22	356.08
697.56	354.48
697.89	352.85
698.23	351.24
698.56	349.63
698.90	348.02
699.23	346.35
699.57	344.82
699.90	343.29
700.24	341.70
700.58	340.18
700.91	338.67
701.25	337.22
701.58	335.86
701.92	334.47
702.25	333.04
702.59	331.66
702.92	330.34
703.26	328.99
703.59	327.74
703.93	326.57
704.26	325.33
704.60	324.00
704.93	322.71
705.26	321.43
705.60	320.32
705.93	319.10
706.27	318.06
706.60	316.98
706.94	315.92
707.27	314.78
707.61	313.71
707.94	312.69
708.27	311.57
708.61	310.51
708.94	309.49
709.28	308.50
709.61	307.54
709.94	306.58
710.28	305.57
710.61	304.57
710.95	303.49
711.28	302.58
711.61	301.67
711.95	300.78
712.28	299.81
712.61	298.80
712.95	297.87
713.28	297.00
713.61	296.12
713.95	295.20
714.28	294.37
714.61	293.46
714.95	292.57
715.28	291.72
715.61	290.83
715.95	290.00
716.28	289.17
716.61	288.35
716.95	287.52
717.28	286.76
717.61	285.97
717.94	285.20
718.28	284.39
718.61	283.65
718.94	282.91
719.27	282.27
719.61	281.61
719.94	281.00
720.27	280.26
720.60	279.63
720.94	279.00
721.27	278.39
721.60	277.83
721.93	277.28
722.27	276.74
722.60	276.19
722.93	275.60
723.26	275.05
723.59	274.48
723.93	273.95
724.26	273.41
724.59	272.85
724.92	272.32
725.25	271.84
725.59	271.33
725.92	270.82
726.25	270.29
726.58	269.80
726.91	269.30
727.24	268.85
727.57	268.35
727.91	267.86
728.24	267.40
728.57	266.94
728.90	266.46
729.23	265.98
729.56	265.55
729.89	265.10
730.22	264.60
730.55	264.16
730.89	263.75
731.22	263.28
731.55	262.88
731.88	262.50
732.21	262.07
732.54	261.62
732.87	261.20
733.20	260.79
733.53	260.42
733.86	260.05
734.19	259.64
734.52	259.27
734.85	258.95
735.18	258.52
735.51	258.16
735.84	257.78
736.17	257.44
736.50	257.04
736.83	256.79
737.16	256.50
737.49	256.14
737.82	255.75
738.15	255.45
738.48	255.12
738.81	254.77
739.14	254.41
739.47	254.13
739.80	253.86
740.13	253.58
740.46	253.25
740.79	252.94
741.12	252.62
741.45	252.33
741.78	251.98
742.11	251.71
742.44	251.39
742.77	251.13
743.10	250.81
743.43	250.53
743.75	250.18
744.08	250.05
744.41	249.77
744.74	249.54
745.07	249.26
745.40	249.03
745.73	248.79
746.06	248.55
746.39	248.30
746.71	247.99
747.04	247.71
747.37	247.44
747.70	247.19
748.03	246.94
748.36	246.70
748.68	246.51
749.01	246.28
749.34	246.06
749.67	245.83
750.00	245.61
750.33	245.43
750.65	245.19
750.98	244.82
751.31	244.61
751.64	244.39
751.97	244.21
752.29	243.94
752.62	243.71
752.95	243.48
753.28	243.24
753.60	243.03
753.93	242.84
754.26	242.65
754.59	242.39
754.91	242.17
755.24	241.95
755.57	241.73
755.90	241.54
756.22	241.33
756.55	241.11
756.88	240.87
757.20	240.64
757.53	240.45
757.86	240.29
758.19	240.10
758.51	239.92
758.84	239.72
759.17	239.57
759.49	239.37
759.82	239.25
760.15	239.08
760.47	238.93
760.80	238.75
761.13	238.61
761.45	238.44
761.78	238.30
762.11	238.17
762.43	238.00
762.76	237.86
763.08	237.74
763.41	237.64
763.74	237.51
764.06	237.35
764.39	237.20
764.71	237.08
765.04	236.94
765.37	236.83
765.69	236.65
766.02	236.53
766.34	236.42
766.67	236.27
767.00	236.18
767.32	236.11
767.65	236.07
767.97	235.95
768.30	235.87
768.62	235.78
768.95	235.67
769.27	235.57
769.60	235.47
769.92	235.37
770.25	235.23
770.57	235.15
770.90	235.06
771.22	234.94
771.55	234.85
771.87	234.78
772.20	234.67
772.52	234.71
772.85	234.73
773.17	234.66
773.50	234.59
773.82	234.49
774.15	234.37
774.47	234.22
774.80	234.13
775.12	234.04
775.45	233.91
775.77	233.81
776.09	233.74
776.42	233.65
776.74	233.61
777.07	233.56
777.39	233.52
777.72	233.43
778.04	233.39
778.36	233.30
778.69	233.22
779.01	233.19
779.33	233.06
779.66	232.90
779.98	232.81
780.31	232.73
780.63	232.73
780.95	232.68
781.28	232.65
781.60	232.57
781.92	232.55
782.25	232.53
782.57	232.49
782.89	232.43
783.22	232.37
783.54	232.25
783.86	232.20
784.19	232.11
784.51	232.11
784.83	232.08
785.16	232.03
785.48	232.01
785.80	231.94
786.12	231.90
786.45	231.85
786.77	231.81
787.09	231.78
787.42	231.66
787.74	231.61
788.06	231.56
788.38	231.54
788.71	231.44
789.03	231.39
789.35	231.36
789.67	231.31
789.99	231.28
790.32	231.25
790.64	231.21
790.96	231.26
791.28	231.18
791.61	231.09
791.93	231.06
792.25	230.99
792.57	231.02
792.89	230.96
793.21	230.91
793.54	230.85
793.86	230.80
794.18	230.79
794.50	230.73
794.82	230.70
795.14	230.67
795.47	230.68
795.79	230.64
796.11	230.58
796.43	230.51
796.75	230.43
797.07	230.40
797.39	230.35
797.71	230.25
798.04	230.20
798.36	230.20
798.68	230.16
799.00	230.12
799.32	230.06
799.64	230.01
799.96	229.96
800.28	229.96
800.60	229.93
800.92	229.86
801.24	229.82
801.56	229.78
801.89	229.74
802.21	229.70
802.53	229.67
802.85	229.67
803.17	229.69
803.49	229.67
803.81	229.61
804.13	229.56
804.45	229.50
804.77	229.48
805.09	229.42
805.41	229.39
805.73	229.37
806.05	229.29
806.37	229.30
806.69	229.29
807.01	229.24
807.33	229.23
807.65	229.18
807.97	229.22
808.28	229.17
808.60	229.16
808.92	229.09
809.24	229.14
809.56	229.08
809.88	229.03
810.20	229.02
810.52	229.05
810.84	229.01
811.16	229.01
811.48	229.04
811.80	229.08
812.12	229.05
812.43	229.04
812.75	229.03
813.07	228.99
813.39	228.98
813.71	228.96
814.03	228.92
814.35	228.92
814.67	228.86
814.98	228.87
815.30	228.82
815.62	228.83
815.94	228.76
816.26	228.79
816.58	228.78
816.89	228.78
817.21	228.74
817.53	228.76
817.85	228.76
818.17	228.69
818.48	228.66
818.80	228.67
819.12	228.65
819.44	228.63
819.76	228.60
820.07	228.58
820.39	228.58
820.71	228.58
821.03	228.59
821.34	228.59
821.66	228.57
821.98	228.60
822.30	228.57
822.61	228.59
822.93	228.54
823.25	228.52
823.57	228.52
823.88	228.54
824.20	228.54
824.52	228.52
824.83	228.53
825.15	228.50
825.47	228.48
825.79	228.46
826.10	228.47
826.42	228.47
826.74	228.48
827.05	228.44
827.37	228.43
827.69	228.38
828.00	228.37
828.32	228.32
828.64	228.31
828.95	228.36
829.27	228.34
829.58	228.35
829.90	228.35
830.22	228.33
830.53	228.27
830.85	228.25
831.17	228.21
831.48	228.22
831.80	228.20
832.11	228.18
832.43	228.17
832.75	228.12
833.06	228.15
833.38	228.15
833.69	228.11
834.01	228.12
834.32	228.11
834.64	228.08
834.96	228.11
835.27	228.05
835.59	227.98
835.90	227.94
836.22	227.93
836.53	227.89
836.85	227.81
837.16	227.91
837.48	227.88
837.79	227.90
838.11	227.87
838.42	227.85
838.74	227.84
839.05	227.83
839.37	227.84
839.68	227.78
840.00	227.73
840.31	227.74
840.63	227.69
840.94	227.66
841.26	227.66
841.57	227.65
841.88	227.67
842.20	227.67
842.51	227.64
842.83	227.57
843.14	227.66
843.46	227.69
843.77	227.61
844.08	227.57
844.40	227.54
844.71	227.49
845.03	227.45
845.34	227.41
845.65	227.37
845.97	227.33
846.28	227.30
846.60	227.29
846.91	227.27
847.22	227.25
847.54	227.27
847.85	227.25
848.16	227.23
848.48	227.22
848.79	227.22
849.10	227.23
849.42	227.27
849.73	227.17
850.04	227.15
850.36	227.11
850.67	227.13
850.98	227.13
851.30	227.16
851.61	227.19
851.92	227.22
852.23	227.27
852.55	227.29
852.86	227.31
853.17	227.34
853.49	227.35
853.80	227.40
854.11	227.40
854.42	227.40
854.74	227.39
855.05	227.38
855.36	227.34
855.67	227.35
855.99	227.36
856.30	227.48
856.61	227.50
856.92	227.50
857.23	227.51
857.55	227.48
857.86	227.49
858.17	227.51
858.48	227.50
858.79	227.49
859.11	227.49
859.42	227.48
859.73	227.45
860.04	227.47
860.35	227.43
860.66	227.43
860.98	227.43
861.29	227.46
861.60	227.47
861.91	227.51
862.22	227.49
862.53	227.47
862.84	227.35
863.16	227.38
863.47	227.36
863.78	227.35
864.09	227.38
864.40	227.39
864.71	227.38
865.02	227.40
865.33	227.36
865.64	227.37
865.95	227.39
866.27	227.46
866.58	227.42
866.89	227.42
867.20	227.40
867.51	227.41
867.82	227.38
868.13	227.38
868.44	227.38
868.75	227.42
869.06	227.45
869.37	227.45
869.68	227.42
869.99	227.46
870.30	227.47
870.61	227.48
870.92	227.45
871.23	227.45
871.54	227.44
871.85	227.47
872.16	227.47
872.47	227.44
872.78	227.38
873.09	227.42
873.40	227.41
873.71	227.40
874.02	227.37
874.33	227.34
874.64	227.31
874.95	227.28
875.26	227.23
875.56	227.18
875.87	227.17
876.18	227.14
876.49	227.20
876.80	227.19
877.11	227.15
877.42	227.13
877.73	227.12
878.04	227.10
878.35	227.08
878.66	227.06
878.96	227.04
879.27	227.02
879.58	226.99
879.89	226.98
880.20	227.03
880.51	227.01
880.82	227.02
881.12	227.02
881.43	226.99
881.74	226.97
882.05	226.97
882.36	226.93
882.67	226.92
882.97	226.83
883.28	226.79
883.59	226.78
883.90	226.79
884.21	226.77
884.51	226.73
884.82	226.73
885.13	226.74
885.44	226.76
885.74	226.75
886.05	226.72
886.36	226.71
886.67	226.64
886.98	226.72
887.28	226.73
887.59	226.72
887.90	226.71
888.20	226.69
888.51	226.71
888.82	226.71
889.13	226.74
889.43	226.83
889.74	226.83
890.05	226.84
890.35	226.81
890.66	226.80
890.97	226.81
891.28	226.76
891.58	226.75
891.89	226.73
892.20	226.73
892.50	226.77
892.81	226.76
893.12	226.79
893.42	226.76
893.73	226.76
894.04	226.78
894.34	226.82
894.65	226.85
894.95	226.87
895.26	226.89
895.57	226.93
895.87	226.87
896.18	226.92
896.48	226.95
896.79	226.97
897.10	227.01
897.40	227.03
897.71	227.08
898.01	227.06
898.32	227.10
898.63	227.13
898.93	227.12
899.24	227.16
899.54	227.18
899.85	227.16
900.15	227.17
900.46	227.18
900.76	227.18
901.07	227.19
901.38	227.18
901.68	227.18
901.99	227.15
902.29	227.15
902.60	227.17
902.90	227.16
903.21	227.17
903.51	227.20
903.82	227.24
904.12	227.24
904.43	227.27
904.73	227.23
905.03	227.27
905.34	227.37
905.64	227.40
905.95	227.40
906.25	227.40
906.56	227.40
906.86	227.39
907.17	227.41
907.47	227.41
907.77	227.40
908.08	227.40
908.38	227.41
908.69	227.42
908.99	227.43
909.30	227.44
909.60	227.43
909.90	227.41
910.21	227.40
910.51	227.37
910.81	227.40
911.12	227.38
911.42	227.33
911.73	227.27
912.03	227.24
912.33	227.23
912.64	227.21
912.94	227.20
913.24	227.19
913.55	227.17
913.85	227.13
914.15	227.15
914.46	227.16
914.76	227.11
915.06	227.09
915.37	227.01
915.67	226.98
915.97	226.96
916.27	226.90
916.58	226.89
916.88	226.87
917.18	226.86
917.49	226.93
917.79	226.91
918.09	226.87
918.39	226.83
918.70	226.81
919.00	226.81
919.30	226.82
919.60	226.80
919.91	226.77
920.21	226.79
920.51	226.75
920.81	226.72
921.12	226.73
921.42	226.71
921.72	226.75
922.02	226.72
922.32	226.70
922.63	226.68
922.93	226.71
923.23	226.71
923.53	226.68
923.83	226.64
924.13	226.66
924.44	226.64
924.74	226.65
925.04	226.67
925.34	226.69
925.64	226.64
925.94	226.61
926.24	226.66
926.55	226.62
926.85	226.64
927.15	226.64
927.45	226.63
927.75	226.63
928.05	226.64
928.35	226.66
928.65	226.70
928.95	226.72
929.26	226.67
929.56	226.70
929.86	226.68
930.16	226.66
930.46	226.64
930.76	226.67
931.06	226.63
931.36	226.61
931.66	226.61
931.96	226.66
932.26	226.72
932.56	226.70
932.86	226.75
933.16	226.75
933.46	226.76
933.76	226.80
934.06	226.83
934.36	226.86
934.66	226.84
934.96	226.84
935.26	226.85
935.56	226.89
935.86	226.89
936.16	226.89
936.46	226.88
936.76	226.91
937.06	226.90
937.36	226.93
937.66	226.97
937.96	226.98
938.26	226.95
938.56	226.94
938.86	226.94
939.16	226.94
939.46	226.91
939.76	226.92
940.06	226.88
940.35	226.84
940.65	226.80
940.95	226.82
941.25	226.84
941.55	226.86
941.85	226.85
942.15	226.83
942.45	226.89
942.75	226.91
943.04	226.91
943.34	226.93
943.64	226.93
943.94	226.89
944.24	226.87
944.54	226.90
944.84	226.88
945.13	226.88
945.43	226.87
945.73	226.92
946.03	226.90
946.33	226.90
946.62	226.89
946.92	226.89
947.22	226.88
947.52	226.86
947.82	226.84
948.11	226.81
948.41	226.81
948.71	226.75
949.01	226.74
949.31	226.72
949.60	226.71
949.90	226.72
950.20	226.71
950.50	226.74
950.79	226.72
951.09	226.75
951.39	226.71
951.69	226.73
951.98	226.72
952.28	226.74
952.58	226.70
952.87	226.71
953.17	226.71
953.47	226.71
953.76	226.69
954.06	226.70
954.36	226.68
954.66	226.67
954.95	226.69
955.25	226.72
955.55	226.73
955.84	226.71
956.14	226.70
956.44	226.70
956.73	226.64
957.03	226.63
957.32	226.60
957.62	226.60
957.92	226.57
958.21	226.57
958.51	226.65
958.81	226.70
959.10	226.68
959.40	226.71
959.69	226.71
959.99	226.71
960.29	226.69
960.58	226.66
960.88	226.71
961.17	226.68
961.47	226.67
961.76	226.63
962.06	226.65
962.36	226.64
962.65	226.65
962.95	226.66
963.24	226.69
963.54	226.67
963.83	226.66
964.13	226.64
964.42	226.59
964.72	226.50
965.01	226.50
965.31	226.50
965.60	226.47
965.90	226.53
966.19	226.54
966.49	226.56
966.78	226.57
967.08	226.54
967.37	226.58
967.67	226.58
967.96	226.63
968.26	226.63
968.55	226.62
968.85	226.65
969.14	226.67
969.43	226.64
969.73	226.63
970.02	226.66
970.32	226.69
970.61	226.72
970.91	226.71
971.20	226.68
971.49	226.68
971.79	226.69
972.08	226.63
972.38	226.64
972.67	226.64
972.96	226.65
973.26	226.69
973.55	226.70
973.85	226.66
974.14	226.67
974.43	226.70
974.73	226.73
975.02	226.72
975.31	226.72
975.61	226.74
975.90	226.81
976.19	226.81
976.49	226.82
976.78	226.86
977.07	226.89
977.37	226.91
977.66	226.96
977.95	226.97
978.24	227.02
978.54	227.02
978.83	227.02
979.12	227.03
979.42	227.00
979.71	226.97
980.00	227.01
980.29	227.01
980.59	226.96
980.88	226.99
981.17	226.99
981.46	226.98
981.76	226.95
982.05	226.96
982.34	226.97
982.63	226.96
982.93	226.95
983.22	226.94
983.51	226.95
983.80	226.94
984.09	226.95
984.39	226.92
984.68	226.91
984.97	226.89
985.26	226.91
985.55	226.93
985.85	226.92
986.14	226.90
986.43	226.90
986.72	226.89
987.01	226.82
987.30	226.80
987.59	226.79
987.89	226.75
988.18	226.69
988.47	226.66
988.76	226.65
989.05	226.62
989.34	226.63
989.63	226.65
989.92	226.62
990.22	226.59
990.51	226.56
990.80	226.54
991.09	226.54
991.38	226.49
991.67	226.48
991.96	226.44
992.25	226.44
992.54	226.41
992.83	226.40
993.12	226.41
993.41	226.39
993.70	226.40
993.99	226.46
994.28	226.47
994.58	226.48
994.87	226.48
995.16	226.46
995.45	226.40
995.74	226.35
996.03	226.35
996.32	226.36
996.61	226.38
996.90	226.40
997.19	226.39
997.48	226.44
997.77	226.43
998.06	226.47
998.34	226.42
998.63	226.43
998.92	226.42
999.21	226.40
999.50	226.43
999.79	226.40
1000.08	226.38
1000.37	226.37
1000.66	226.35
1000.95	226.34
1001.24	226.35
1001.53	226.40
1001.82	226.39
1002.11	226.36
1002.40	226.36
1002.68	226.39
1002.97	226.44
1003.26	226.43
1003.55	226.41
1003.84	226.38
1004.13	226.40
1004.42	226.43
1004.71	226.41
1004.99	226.40
1005.28	226.49
1005.57	226.48
1005.86	226.50
1006.15	226.52
1006.44	226.52
1006.72	226.54
1007.01	226.53
1007.30	226.53
1007.59	226.50
1007.88	226.51
1008.17	226.52
1008.45	226.53
1008.74	226.49
1009.03	226.46
1009.32	226.48
1009.60	226.49
1009.89	226.50
1010.18	226.48
1010.47	226.50
1010.76	226.55
1011.04	226.57
1011.33	226.56
1011.62	226.57
1011.91	226.56
1012.19	226.57
1012.48	226.60
1012.77	226.62
1013.05	226.68
1013.34	226.72
1013.63	226.73
1013.92	226.76
1014.20	226.75
1014.49	226.74
1014.78	226.76
1015.06	226.74
1015.35	226.76
1015.64	226.76
1015.92	226.81
1016.21	226.80
1016.50	226.80
1016.78	226.81
1017.07	226.83
1017.36	226.80
1017.64	226.81
1017.93	226.84
1018.22	226.83
1018.50	226.82
1018.79	226.81
1019.08	226.78
1019.36	226.75
1019.65	226.73
1019.93	226.75
1020.22	226.78
1020.51	226.84
1020.79	226.85
1021.08	226.98
1021.36	226.61
1021.65	226.65
1021.94	226.89
1022.22	226.34
1022.51	226.23
1022.79	227.15
1023.08	226.69
1023.36	227.97
1023.65	226.91
>>>>>End Processed Spectral Data<<<<<
