SpectraSuite Data File
++++++++++++++++++++++++++++++++++++
Date: Fri Feb 01 16:09:58 EST 2013
User: group
Dark Spectrum Present: No
Reference Spectrum Present: No
Number of Sampled Component Spectra: 1
Spectrometers: USB2E7196
Integration Time (usec): 35000 (USB2E7196)
Spectra Averaged: 100 (USB2E7196)
Boxcar Smoothing: 10 (USB2E7196)
Correct for Electrical Dark: No (USB2E7196)
Strobe/Lamp Enabled: No (USB2E7196)
Correct for Detector Non-linearity: No (USB2E7196)
Correct for Stray Light: No (USB2E7196)
Number of Pixels in Processed Spectrum: 2048
>>>>>Begin Processed Spectral Data<<<<<
339.09	0.00
339.48	214.46
339.86	216.23
340.24	217.81
340.63	219.19
341.01	221.59
341.39	221.46
341.78	223.48
342.16	223.44
342.54	224.77
342.93	212.99
343.31	223.74
343.69	224.27
344.07	224.72
344.46	225.12
344.84	225.49
345.22	225.72
345.60	225.97
345.99	226.09
346.37	226.24
346.75	226.34
347.13	226.43
347.52	226.44
347.90	226.51
348.28	226.52
348.66	226.53
349.05	226.51
349.43	226.59
349.81	226.58
350.19	226.61
350.57	226.66
350.96	226.76
351.34	226.85
351.72	226.92
352.10	226.96
352.48	227.01
352.87	227.03
353.25	227.09
353.63	227.15
354.01	227.24
354.39	227.32
354.77	227.35
355.15	227.43
355.54	227.50
355.92	227.53
356.30	227.60
356.68	227.75
357.06	227.83
357.44	227.83
357.82	227.92
358.20	227.99
358.58	228.00
358.97	228.02
359.35	228.06
359.73	228.12
360.11	228.20
360.49	228.23
360.87	228.29
361.25	228.34
361.63	228.38
362.01	228.42
362.39	228.44
362.77	228.47
363.15	228.46
363.53	228.48
363.91	228.50
364.29	228.52
364.67	228.43
365.05	228.43
365.43	228.44
365.81	228.43
366.19	228.49
366.57	228.54
366.95	228.53
367.33	228.49
367.71	228.48
368.09	228.51
368.47	228.52
368.85	228.50
369.23	228.53
369.61	228.48
369.99	228.47
370.37	228.46
370.75	228.47
371.13	228.42
371.51	228.37
371.89	228.36
372.27	228.32
372.65	228.29
373.03	228.25
373.41	228.19
373.78	228.15
374.16	228.01
374.54	227.92
374.92	227.90
375.30	227.86
375.68	227.82
376.06	227.77
376.44	227.72
376.82	227.67
377.19	227.57
377.57	227.51
377.95	227.42
378.33	227.36
378.71	227.26
379.09	227.22
379.47	227.17
379.84	227.09
380.22	226.98
380.60	226.89
380.98	226.81
381.36	226.80
381.73	226.70
382.11	226.66
382.49	226.62
382.87	226.52
383.25	226.50
383.62	226.53
384.00	226.46
384.38	226.40
384.76	226.37
385.13	226.34
385.51	226.31
385.89	226.28
386.27	226.23
386.64	226.18
387.02	226.15
387.40	226.09
387.78	226.06
388.15	226.06
388.53	226.04
388.91	226.04
389.29	225.99
389.66	226.02
390.04	226.01
390.42	226.00
390.79	225.99
391.17	225.94
391.55	225.84
391.92	225.81
392.30	225.80
392.68	225.77
393.05	225.80
393.43	225.79
393.81	225.78
394.18	225.78
394.56	225.80
394.94	225.86
395.31	225.88
395.69	225.96
396.06	226.02
396.44	226.06
396.82	226.09
397.19	226.14
397.57	226.15
397.95	226.22
398.32	226.25
398.70	226.33
399.07	226.42
399.45	226.51
399.82	226.57
400.20	226.65
400.58	226.70
400.95	226.74
401.33	226.84
401.70	227.01
402.08	227.11
402.45	227.21
402.83	227.32
403.20	227.44
403.58	227.51
403.95	227.61
404.33	227.76
404.71	227.87
405.08	228.06
405.46	228.22
405.83	228.35
406.21	228.48
406.58	228.64
406.96	228.79
407.33	228.93
407.70	229.16
408.08	229.40
408.45	229.63
408.83	229.86
409.20	230.09
409.58	230.25
409.95	230.48
410.33	230.78
410.70	231.01
411.08	231.29
411.45	231.61
411.82	231.92
412.20	232.27
412.57	232.69
412.95	233.01
413.32	233.42
413.69	233.85
414.07	234.30
414.44	234.75
414.82	235.22
415.19	235.77
415.56	236.30
415.94	236.85
416.31	237.50
416.68	238.11
417.06	238.81
417.43	239.49
417.81	240.28
418.18	241.01
418.55	241.85
418.93	242.71
419.30	243.58
419.67	244.53
420.04	245.48
420.42	246.44
420.79	247.62
421.16	248.79
421.54	249.97
421.91	251.19
422.28	252.44
422.66	253.79
423.03	255.11
423.40	256.45
423.77	257.87
424.15	259.28
424.52	260.74
424.89	262.37
425.26	263.90
425.64	265.31
426.01	266.96
426.38	268.60
426.75	270.31
427.13	272.09
427.50	273.84
427.87	275.69
428.24	277.55
428.61	279.26
428.99	281.16
429.36	283.26
429.73	285.31
430.10	287.33
430.47	289.36
430.85	291.44
431.22	293.66
431.59	296.04
431.96	298.29
432.33	300.81
432.70	303.17
433.08	306.01
433.45	308.67
433.82	311.26
434.19	314.14
434.56	316.92
434.93	319.52
435.30	322.17
435.68	325.09
436.05	327.93
436.42	330.69
436.79	333.21
437.16	335.85
437.53	338.66
437.90	341.45
438.27	344.16
438.64	347.02
439.01	349.62
439.38	351.81
439.75	353.97
440.13	356.48
440.50	358.82
440.87	360.65
441.24	362.59
441.61	364.71
441.98	366.20
442.35	368.02
442.72	369.89
443.09	371.72
443.46	372.68
443.83	373.26
444.20	373.81
444.57	374.67
444.94	374.98
445.31	375.38
445.68	375.76
446.05	375.85
446.42	375.45
446.79	375.03
447.16	374.58
447.53	374.24
447.90	373.01
448.27	371.84
448.64	370.25
449.01	369.12
449.37	367.16
449.74	365.27
450.11	362.99
450.48	360.53
450.85	358.01
451.22	355.88
451.59	353.89
451.96	351.95
452.33	349.33
452.70	346.97
453.07	344.12
453.43	341.23
453.80	338.49
454.17	335.83
454.54	333.29
454.91	330.61
455.28	327.93
455.65	325.48
456.02	323.01
456.38	320.89
456.75	318.21
457.12	315.97
457.49	313.77
457.86	311.62
458.23	309.75
458.59	307.72
458.96	305.64
459.33	303.76
459.70	301.88
460.07	300.37
460.43	298.67
460.80	297.05
461.17	295.58
461.54	294.08
461.91	292.66
462.27	291.21
462.64	289.98
463.01	288.65
463.38	287.35
463.74	286.01
464.11	284.84
464.48	283.84
464.85	282.73
465.21	281.87
465.58	280.96
465.95	279.89
466.32	278.95
466.68	278.04
467.05	277.18
467.42	276.31
467.78	275.38
468.15	274.51
468.52	273.83
468.88	273.01
469.25	272.24
469.62	271.62
469.98	270.92
470.35	270.29
470.72	269.68
471.08	269.04
471.45	268.48
471.82	267.94
472.18	267.32
472.55	266.89
472.92	266.38
473.28	265.92
473.65	265.45
474.02	265.03
474.38	264.68
474.75	264.35
475.11	264.01
475.48	263.78
475.85	263.56
476.21	263.36
476.58	263.16
476.94	263.04
477.31	262.83
477.67	262.73
478.04	262.58
478.41	262.54
478.77	262.56
479.14	262.48
479.50	262.50
479.87	262.61
480.23	262.65
480.60	262.71
480.96	262.80
481.33	263.02
481.69	263.21
482.06	263.42
482.42	263.59
482.79	263.85
483.15	264.11
483.52	264.46
483.88	264.79
484.25	265.17
484.61	265.60
484.98	266.07
485.34	266.61
485.71	267.25
486.07	267.83
486.44	268.41
486.80	269.15
487.17	269.87
487.53	270.66
487.90	271.57
488.26	272.51
488.62	273.53
488.99	274.55
489.35	275.57
489.72	276.69
490.08	277.91
490.44	279.12
490.81	280.48
491.17	281.83
491.54	283.34
491.90	284.92
492.26	286.56
492.63	288.35
492.99	290.15
493.36	292.03
493.72	294.11
494.08	296.25
494.45	298.48
494.81	300.87
495.17	303.32
495.54	305.87
495.90	308.56
496.26	311.34
496.63	314.26
496.99	317.42
497.35	320.68
497.72	324.07
498.08	327.61
498.44	331.30
498.80	335.25
499.17	339.30
499.53	343.50
499.89	347.87
500.26	352.35
500.62	357.03
500.98	362.02
501.34	367.10
501.71	372.42
502.07	377.86
502.43	383.47
502.79	389.32
503.16	395.41
503.52	401.65
503.88	408.09
504.24	414.70
504.60	421.60
504.97	428.75
505.33	436.11
505.69	443.91
506.05	451.68
506.41	459.54
506.78	467.69
507.14	476.12
507.50	484.90
507.86	493.90
508.22	503.11
508.59	512.32
508.95	521.88
509.31	531.71
509.67	541.80
510.03	552.18
510.39	562.68
510.75	573.53
511.12	584.52
511.48	595.80
511.84	607.34
512.20	618.86
512.56	630.80
512.92	643.01
513.28	655.28
513.64	667.72
514.00	680.46
514.37	693.38
514.73	706.46
515.09	719.40
515.45	732.66
515.81	746.34
516.17	760.28
516.53	774.44
516.89	788.65
517.25	802.87
517.61	817.27
517.97	831.74
518.33	846.05
518.69	860.83
519.05	875.83
519.41	890.90
519.77	906.51
520.13	921.93
520.49	937.26
520.85	952.67
521.21	968.43
521.57	984.68
521.93	1000.39
522.29	1016.75
522.65	1033.04
523.01	1049.25
523.37	1065.12
523.73	1081.30
524.09	1097.35
524.45	1113.63
524.81	1130.19
525.17	1146.89
525.53	1163.72
525.89	1180.74
526.25	1197.58
526.61	1213.91
526.97	1230.60
527.33	1246.99
527.68	1263.50
528.04	1279.99
528.40	1296.59
528.76	1313.55
529.12	1330.08
529.48	1346.97
529.84	1362.91
530.20	1379.54
530.56	1396.44
530.91	1413.79
531.27	1430.46
531.63	1446.84
531.99	1463.24
532.35	1479.19
532.71	1495.04
533.07	1511.24
533.42	1526.96
533.78	1542.84
534.14	1558.94
534.50	1574.39
534.86	1590.04
535.21	1605.31
535.57	1621.08
535.93	1636.37
536.29	1651.05
536.65	1666.04
537.00	1680.71
537.36	1695.90
537.72	1710.24
538.08	1724.68
538.44	1738.38
538.79	1752.09
539.15	1765.62
539.51	1779.37
539.87	1793.71
540.22	1807.36
540.58	1821.07
540.94	1834.30
541.29	1847.23
541.65	1859.88
542.01	1872.87
542.37	1885.24
542.72	1897.49
543.08	1909.33
543.44	1921.63
543.79	1932.85
544.15	1943.88
544.51	1955.35
544.87	1966.34
545.22	1977.25
545.58	1987.48
545.94	1997.20
546.29	2007.22
546.65	2017.16
547.01	2026.36
547.36	2035.02
547.72	2043.50
548.07	2051.25
548.43	2059.33
548.79	2067.14
549.14	2074.76
549.50	2082.17
549.86	2089.84
550.21	2097.13
550.57	2104.31
550.92	2111.04
551.28	2118.11
551.64	2124.95
551.99	2131.51
552.35	2137.64
552.70	2143.75
553.06	2149.70
553.41	2156.12
553.77	2161.98
554.13	2167.87
554.48	2174.00
554.84	2179.49
555.19	2184.59
555.55	2189.89
555.90	2194.43
556.26	2199.40
556.61	2204.13
556.97	2208.40
557.32	2212.35
557.68	2216.52
558.03	2220.63
558.39	2224.24
558.74	2228.76
559.10	2232.81
559.45	2236.45
559.81	2240.69
560.16	2244.38
560.52	2247.47
560.87	2250.81
561.23	2253.48
561.58	2256.42
561.94	2258.94
562.29	2261.21
562.64	2264.13
563.00	2266.60
563.35	2270.07
563.71	2273.10
564.06	2276.20
564.42	2279.11
564.77	2281.69
565.12	2284.13
565.48	2286.13
565.83	2288.10
566.19	2289.59
566.54	2290.43
566.89	2291.67
567.25	2292.23
567.60	2293.64
567.96	2295.42
568.31	2296.32
568.66	2297.65
569.02	2298.47
569.37	2298.80
569.72	2299.80
570.08	2299.90
570.43	2300.02
570.78	2299.57
571.14	2298.09
571.49	2296.85
571.84	2296.48
572.20	2295.50
572.55	2294.23
572.90	2292.57
573.26	2291.20
573.61	2289.47
573.96	2287.76
574.31	2284.74
574.67	2281.85
575.02	2278.23
575.37	2274.90
575.72	2271.24
576.08	2267.84
576.43	2264.36
576.78	2260.75
577.13	2257.60
577.49	2254.37
577.84	2250.97
578.19	2247.24
578.54	2243.68
578.90	2239.46
579.25	2233.95
579.60	2229.12
579.95	2224.21
580.30	2219.30
580.66	2214.13
581.01	2209.24
581.36	2204.29
581.71	2200.23
582.06	2195.94
582.42	2191.47
582.77	2186.31
583.12	2181.65
583.47	2176.92
583.82	2172.22
584.17	2167.04
584.53	2161.52
584.88	2156.10
585.23	2150.29
585.58	2144.84
585.93	2139.40
586.28	2134.63
586.63	2129.63
586.98	2124.50
587.34	2119.85
587.69	2114.94
588.04	2109.77
588.39	2104.06
588.74	2097.68
589.09	2091.42
589.44	2084.57
589.79	2078.54
590.14	2072.93
590.49	2066.41
590.84	2060.07
591.19	2053.94
591.54	2047.49
591.89	2040.17
592.25	2033.28
592.60	2026.02
592.95	2018.42
593.30	2011.21
593.65	2003.61
594.00	1996.51
594.35	1989.26
594.70	1981.30
595.05	1974.40
595.40	1967.21
595.75	1959.74
596.10	1953.56
596.45	1946.97
596.80	1940.82
597.15	1934.34
597.50	1927.38
597.85	1920.98
598.19	1914.38
598.54	1907.31
598.89	1900.70
599.24	1894.76
599.59	1888.26
599.94	1882.14
600.29	1875.87
600.64	1869.20
600.99	1861.91
601.34	1855.13
601.69	1848.13
602.04	1841.33
602.39	1833.88
602.74	1826.91
603.08	1820.24
603.43	1813.41
603.78	1806.05
604.13	1798.78
604.48	1791.49
604.83	1784.59
605.18	1777.78
605.53	1769.73
605.87	1761.67
606.22	1754.52
606.57	1746.51
606.92	1739.06
607.27	1731.91
607.62	1725.10
607.96	1717.82
608.31	1711.25
608.66	1703.73
609.01	1696.19
609.36	1688.57
609.70	1680.47
610.05	1672.52
610.40	1664.77
610.75	1656.53
611.10	1648.93
611.44	1640.59
611.79	1632.56
612.14	1623.85
612.49	1614.57
612.83	1606.25
613.18	1598.12
613.53	1589.92
613.88	1581.58
614.22	1573.36
614.57	1564.68
614.92	1556.56
615.27	1549.14
615.61	1540.79
615.96	1532.72
616.31	1525.12
616.65	1517.73
617.00	1510.15
617.35	1502.33
617.70	1494.04
618.04	1485.56
618.39	1477.35
618.74	1469.73
619.08	1461.42
619.43	1453.88
619.78	1447.00
620.12	1439.87
620.47	1432.40
620.82	1424.20
621.16	1416.64
621.51	1409.00
621.85	1401.42
622.20	1392.89
622.55	1384.50
622.89	1376.56
623.24	1368.91
623.59	1361.49
623.93	1353.87
624.28	1346.68
624.62	1339.29
624.97	1332.03
625.32	1325.19
625.66	1318.05
626.01	1310.87
626.35	1303.46
626.70	1295.55
627.04	1287.76
627.39	1279.86
627.73	1272.42
628.08	1265.53
628.43	1258.29
628.77	1250.89
629.12	1243.38
629.46	1236.20
629.81	1228.73
630.15	1221.46
630.50	1213.94
630.84	1205.72
631.19	1197.81
631.53	1190.27
631.88	1182.63
632.22	1175.15
632.57	1167.79
632.91	1160.31
633.26	1152.91
633.60	1145.47
633.95	1138.41
634.29	1131.33
634.64	1124.61
634.98	1117.24
635.32	1110.05
635.67	1103.37
636.01	1096.77
636.36	1089.94
636.70	1083.39
637.05	1076.85
637.39	1070.43
637.73	1064.06
638.08	1058.22
638.42	1052.16
638.77	1045.69
639.11	1039.08
639.45	1032.65
639.80	1026.09
640.14	1019.70
640.49	1013.19
640.83	1006.93
641.17	1000.73
641.52	994.34
641.86	987.88
642.20	982.05
642.55	975.75
642.89	969.33
643.23	962.81
643.58	957.08
643.92	950.89
644.26	944.82
644.61	938.79
644.95	932.67
645.29	926.14
645.64	919.47
645.98	913.13
646.32	907.29
646.66	901.21
647.01	895.40
647.35	889.66
647.69	883.75
648.04	878.14
648.38	872.36
648.72	866.50
649.06	860.55
649.41	854.59
649.75	848.65
650.09	842.72
650.43	836.91
650.78	830.72
651.12	824.77
651.46	819.00
651.80	813.27
652.14	807.91
652.49	802.51
652.83	797.31
653.17	791.74
653.51	786.01
653.85	780.59
654.20	774.91
654.54	768.90
654.88	763.21
655.22	757.33
655.56	751.60
655.90	746.07
656.25	740.81
656.59	735.48
656.93	730.36
657.27	725.17
657.61	719.68
657.95	714.59
658.29	709.55
658.64	704.36
658.98	699.04
659.32	693.58
659.66	688.33
660.00	683.04
660.34	678.06
660.68	673.19
661.02	668.17
661.36	663.52
661.70	659.06
662.05	654.72
662.39	650.47
662.73	646.06
663.07	641.68
663.41	637.19
663.75	632.77
664.09	628.22
664.43	623.83
664.77	619.73
665.11	615.54
665.45	611.41
665.79	607.25
666.13	603.11
666.47	599.05
666.81	594.92
667.15	590.83
667.49	586.88
667.83	582.97
668.17	578.98
668.51	574.92
668.85	570.88
669.19	566.94
669.53	563.02
669.87	559.05
670.21	555.31
670.55	551.72
670.89	548.27
671.23	544.86
671.57	541.29
671.91	537.71
672.25	534.12
672.58	530.51
672.92	527.12
673.26	523.95
673.60	520.74
673.94	517.59
674.28	514.67
674.62	511.67
674.96	508.57
675.30	505.72
675.64	502.80
675.97	500.01
676.31	497.16
676.65	494.23
676.99	491.54
677.33	488.72
677.67	485.91
678.01	482.80
678.34	479.75
678.68	476.93
679.02	474.17
679.36	471.41
679.70	468.70
680.04	465.90
680.37	463.03
680.71	460.21
681.05	457.60
681.39	454.86
681.73	452.24
682.06	449.75
682.40	447.20
682.74	444.59
683.08	442.02
683.42	439.39
683.75	436.91
684.09	434.32
684.43	431.85
684.77	429.35
685.10	427.03
685.44	424.74
685.78	422.44
686.12	420.19
686.45	417.90
686.79	415.61
687.13	413.47
687.46	411.33
687.80	409.23
688.14	406.97
688.48	404.95
688.81	402.71
689.15	400.53
689.49	398.34
689.82	396.30
690.16	394.27
690.50	392.34
690.83	390.40
691.17	388.44
691.51	386.52
691.84	384.65
692.18	382.73
692.52	380.75
692.85	378.80
693.19	376.91
693.52	375.07
693.86	373.28
694.20	371.49
694.53	369.67
694.87	367.79
695.21	366.06
695.54	364.24
695.88	362.51
696.21	360.80
696.55	359.18
696.88	357.49
697.22	355.76
697.56	354.14
697.89	352.48
698.23	350.85
698.56	349.27
698.90	347.73
699.23	346.13
699.57	344.61
699.90	343.05
700.24	341.51
700.58	339.97
700.91	338.45
701.25	336.97
701.58	335.61
701.92	334.27
702.25	332.89
702.59	331.49
702.92	330.18
703.26	328.88
703.59	327.60
703.93	326.45
704.26	325.28
704.60	324.02
704.93	322.75
705.26	321.52
705.60	320.31
705.93	319.13
706.27	318.06
706.60	316.96
706.94	315.94
707.27	314.76
707.61	313.70
707.94	312.68
708.27	311.62
708.61	310.54
708.94	309.50
709.28	308.50
709.61	307.53
709.94	306.59
710.28	305.56
710.61	304.56
710.95	303.48
711.28	302.55
711.61	301.59
711.95	300.71
712.28	299.75
712.61	298.77
712.95	297.84
713.28	296.96
713.61	296.06
713.95	295.14
714.28	294.29
714.61	293.46
714.95	292.61
715.28	291.73
715.61	290.89
715.95	290.05
716.28	289.17
716.61	288.34
716.95	287.47
717.28	286.75
717.61	285.96
717.94	285.19
718.28	284.36
718.61	283.58
718.94	282.85
719.27	282.21
719.61	281.59
719.94	280.93
720.27	280.19
720.60	279.53
720.94	278.88
721.27	278.32
721.60	277.75
721.93	277.15
722.27	276.64
722.60	276.04
722.93	275.43
723.26	274.87
723.59	274.29
723.93	273.74
724.26	273.15
724.59	272.55
724.92	272.04
725.25	271.55
725.59	271.03
725.92	270.53
726.25	269.99
726.58	269.46
726.91	268.93
727.24	268.45
727.57	267.99
727.91	267.47
728.24	267.02
728.57	266.52
728.90	266.09
729.23	265.57
729.56	265.11
729.89	264.66
730.22	264.19
730.55	263.74
730.89	263.32
731.22	262.89
731.55	262.50
731.88	262.02
732.21	261.57
732.54	261.11
732.87	260.67
733.20	260.29
733.53	259.90
733.86	259.52
734.19	259.14
734.52	258.73
734.85	258.39
735.18	257.97
735.51	257.61
735.84	257.22
736.17	256.88
736.50	256.51
736.83	256.30
737.16	255.99
737.49	255.66
737.82	255.28
738.15	254.96
738.48	254.64
738.81	254.34
739.14	254.02
739.47	253.75
739.80	253.44
740.13	253.17
740.46	252.87
740.79	252.57
741.12	252.30
741.45	252.01
741.78	251.69
742.11	251.39
742.44	251.05
742.77	250.75
743.10	250.46
743.43	250.18
743.75	249.78
744.08	249.66
744.41	249.40
744.74	249.14
745.07	248.90
745.40	248.64
745.73	248.42
746.06	248.15
746.39	247.91
746.71	247.68
747.04	247.37
747.37	247.13
747.70	246.89
748.03	246.61
748.36	246.41
748.68	246.23
749.01	246.02
749.34	245.83
749.67	245.57
750.00	245.34
750.33	245.22
750.65	244.97
750.98	244.63
751.31	244.42
751.64	244.24
751.97	244.08
752.29	243.85
752.62	243.62
752.95	243.45
753.28	243.22
753.60	243.03
753.93	242.89
754.26	242.68
754.59	242.45
754.91	242.25
755.24	242.01
755.57	241.78
755.90	241.60
756.22	241.40
756.55	241.20
756.88	241.02
757.20	240.74
757.53	240.58
757.86	240.38
758.19	240.22
758.51	240.06
758.84	239.78
759.17	239.66
759.49	239.49
759.82	239.33
760.15	239.17
760.47	238.99
760.80	238.80
761.13	238.68
761.45	238.52
761.78	238.35
762.11	238.23
762.43	238.07
762.76	237.87
763.08	237.73
763.41	237.63
763.74	237.48
764.06	237.34
764.39	237.20
764.71	237.05
765.04	236.90
765.37	236.76
765.69	236.66
766.02	236.49
766.34	236.37
766.67	236.22
767.00	236.12
767.32	236.08
767.65	236.02
767.97	235.89
768.30	235.76
768.62	235.70
768.95	235.56
769.27	235.45
769.60	235.37
769.92	235.26
770.25	235.14
770.57	235.00
770.90	234.94
771.22	234.82
771.55	234.76
771.87	234.66
772.20	234.57
772.52	234.54
772.85	234.57
773.17	234.48
773.50	234.38
773.82	234.27
774.15	234.10
774.47	233.94
774.80	233.85
775.12	233.77
775.45	233.67
775.77	233.59
776.09	233.49
776.42	233.40
776.74	233.36
777.07	233.26
777.39	233.19
777.72	233.11
778.04	233.04
778.36	232.95
778.69	232.89
779.01	232.81
779.33	232.65
779.66	232.48
779.98	232.41
780.31	232.34
780.63	232.30
780.95	232.25
781.28	232.18
781.60	232.10
781.92	232.07
782.25	231.99
782.57	231.96
782.89	231.92
783.22	231.88
783.54	231.76
783.86	231.70
784.19	231.66
784.51	231.59
784.83	231.55
785.16	231.47
785.48	231.37
785.80	231.31
786.12	231.27
786.45	231.17
786.77	231.12
787.09	231.11
787.42	231.02
787.74	231.00
788.06	230.96
788.38	230.93
788.71	230.85
789.03	230.80
789.35	230.75
789.67	230.69
789.99	230.65
790.32	230.62
790.64	230.61
790.96	230.67
791.28	230.62
791.61	230.57
791.93	230.58
792.25	230.58
792.57	230.62
792.89	230.60
793.21	230.60
793.54	230.53
793.86	230.48
794.18	230.47
794.50	230.42
794.82	230.39
795.14	230.37
795.47	230.32
795.79	230.30
796.11	230.25
796.43	230.23
796.75	230.19
797.07	230.13
797.39	230.10
797.71	229.96
798.04	229.88
798.36	229.85
798.68	229.79
799.00	229.76
799.32	229.65
799.64	229.61
799.96	229.61
800.28	229.61
800.60	229.56
800.92	229.56
801.24	229.51
801.56	229.51
801.89	229.46
802.21	229.43
802.53	229.40
802.85	229.38
803.17	229.40
803.49	229.35
803.81	229.33
804.13	229.30
804.45	229.26
804.77	229.27
805.09	229.25
805.41	229.23
805.73	229.18
806.05	229.14
806.37	229.10
806.69	229.05
807.01	229.00
807.33	229.03
807.65	228.91
807.97	228.93
808.28	228.89
808.60	228.85
808.92	228.84
809.24	228.88
809.56	228.86
809.88	228.81
810.20	228.78
810.52	228.81
810.84	228.77
811.16	228.75
811.48	228.72
811.80	228.73
812.12	228.68
812.43	228.67
812.75	228.65
813.07	228.62
813.39	228.59
813.71	228.56
814.03	228.51
814.35	228.54
814.67	228.48
814.98	228.45
815.30	228.44
815.62	228.40
815.94	228.30
816.26	228.33
816.58	228.28
816.89	228.28
817.21	228.25
817.53	228.25
817.85	228.25
818.17	228.24
818.48	228.15
818.80	228.20
819.12	228.16
819.44	228.15
819.76	228.13
820.07	228.12
820.39	228.10
820.71	228.09
821.03	228.04
821.34	228.03
821.66	228.03
821.98	228.02
822.30	228.02
822.61	228.11
822.93	228.03
823.25	228.02
823.57	228.01
823.88	228.02
824.20	228.02
824.52	228.03
824.83	228.03
825.15	228.02
825.47	228.00
825.79	228.00
826.10	228.00
826.42	228.02
826.74	228.01
827.05	228.00
827.37	228.00
827.69	228.02
828.00	228.03
828.32	228.00
828.64	227.97
828.95	228.00
829.27	227.95
829.58	227.97
829.90	227.96
830.22	227.97
830.53	227.94
830.85	227.86
831.17	227.85
831.48	227.82
831.80	227.81
832.11	227.77
832.43	227.79
832.75	227.79
833.06	227.82
833.38	227.79
833.69	227.79
834.01	227.78
834.32	227.74
834.64	227.69
834.96	227.69
835.27	227.70
835.59	227.66
835.90	227.60
836.22	227.60
836.53	227.55
836.85	227.51
837.16	227.58
837.48	227.61
837.79	227.63
838.11	227.66
838.42	227.66
838.74	227.68
839.05	227.63
839.37	227.61
839.68	227.54
840.00	227.54
840.31	227.52
840.63	227.46
840.94	227.46
841.26	227.46
841.57	227.43
841.88	227.44
842.20	227.42
842.51	227.41
842.83	227.37
843.14	227.46
843.46	227.44
843.77	227.38
844.08	227.37
844.40	227.31
844.71	227.28
845.03	227.27
845.34	227.24
845.65	227.20
845.97	227.22
846.28	227.21
846.60	227.21
846.91	227.19
847.22	227.21
847.54	227.21
847.85	227.21
848.16	227.19
848.48	227.13
848.79	227.13
849.10	227.13
849.42	227.12
849.73	227.03
850.04	227.03
850.36	227.00
850.67	226.97
850.98	226.94
851.30	226.94
851.61	226.93
851.92	226.91
852.23	226.96
852.55	226.92
852.86	226.92
853.17	226.89
853.49	226.94
853.80	226.95
854.11	226.95
854.42	226.94
854.74	226.92
855.05	226.94
855.36	226.88
855.67	226.88
855.99	226.87
856.30	226.98
856.61	226.93
856.92	226.93
857.23	226.96
857.55	226.96
857.86	226.92
858.17	226.89
858.48	226.86
858.79	226.82
859.11	226.82
859.42	226.79
859.73	226.81
860.04	226.78
860.35	226.74
860.66	226.71
860.98	226.71
861.29	226.75
861.60	226.73
861.91	226.78
862.22	226.76
862.53	226.76
862.84	226.64
863.16	226.69
863.47	226.64
863.78	226.59
864.09	226.60
864.40	226.60
864.71	226.65
865.02	226.67
865.33	226.68
865.64	226.67
865.95	226.69
866.27	226.76
866.58	226.73
866.89	226.79
867.20	226.78
867.51	226.74
867.82	226.72
868.13	226.76
868.44	226.78
868.75	226.82
869.06	226.82
869.37	226.85
869.68	226.82
869.99	226.82
870.30	226.87
870.61	226.88
870.92	226.90
871.23	226.88
871.54	226.92
871.85	226.93
872.16	226.96
872.47	226.93
872.78	226.87
873.09	226.89
873.40	226.85
873.71	226.89
874.02	226.93
874.33	226.92
874.64	226.91
874.95	226.91
875.26	226.88
875.56	226.87
875.87	226.88
876.18	226.90
876.49	227.02
876.80	227.01
877.11	226.99
877.42	227.00
877.73	227.01
878.04	226.98
878.35	226.99
878.66	226.99
878.96	227.04
879.27	226.99
879.58	227.01
879.89	227.01
880.20	227.01
880.51	226.99
880.82	227.01
881.12	226.98
881.43	226.94
881.74	226.90
882.05	226.91
882.36	226.92
882.67	226.91
882.97	226.79
883.28	226.76
883.59	226.78
883.90	226.77
884.21	226.75
884.51	226.75
884.82	226.73
885.13	226.71
885.44	226.70
885.74	226.74
886.05	226.72
886.36	226.67
886.67	226.67
886.98	226.69
887.28	226.70
887.59	226.71
887.90	226.69
888.20	226.70
888.51	226.71
888.82	226.67
889.13	226.69
889.43	226.76
889.74	226.76
890.05	226.74
890.35	226.72
890.66	226.70
890.97	226.67
891.28	226.62
891.58	226.61
891.89	226.58
892.20	226.56
892.50	226.54
892.81	226.56
893.12	226.52
893.42	226.47
893.73	226.44
894.04	226.46
894.34	226.47
894.65	226.48
894.95	226.45
895.26	226.44
895.57	226.45
895.87	226.34
896.18	226.34
896.48	226.35
896.79	226.35
897.10	226.35
897.40	226.36
897.71	226.40
898.01	226.42
898.32	226.41
898.63	226.42
898.93	226.47
899.24	226.47
899.54	226.47
899.85	226.49
900.15	226.48
900.46	226.46
900.76	226.46
901.07	226.44
901.38	226.45
901.68	226.48
901.99	226.46
902.29	226.51
902.60	226.49
902.90	226.49
903.21	226.47
903.51	226.48
903.82	226.50
904.12	226.52
904.43	226.49
904.73	226.51
905.03	226.51
905.34	226.55
905.64	226.58
905.95	226.57
906.25	226.58
906.56	226.59
906.86	226.61
907.17	226.64
907.47	226.67
907.77	226.64
908.08	226.62
908.38	226.64
908.69	226.65
908.99	226.69
909.30	226.68
909.60	226.71
909.90	226.71
910.21	226.68
910.51	226.64
910.81	226.65
911.12	226.67
911.42	226.67
911.73	226.57
912.03	226.56
912.33	226.59
912.64	226.58
912.94	226.60
913.24	226.57
913.55	226.51
913.85	226.49
914.15	226.55
914.46	226.56
914.76	226.55
915.06	226.53
915.37	226.51
915.67	226.49
915.97	226.49
916.27	226.48
916.58	226.45
916.88	226.46
917.18	226.44
917.49	226.51
917.79	226.50
918.09	226.54
918.39	226.55
918.70	226.53
919.00	226.51
919.30	226.53
919.60	226.55
919.91	226.54
920.21	226.54
920.51	226.51
920.81	226.50
921.12	226.49
921.42	226.50
921.72	226.52
922.02	226.53
922.32	226.56
922.63	226.56
922.93	226.63
923.23	226.63
923.53	226.65
923.83	226.58
924.13	226.58
924.44	226.56
924.74	226.56
925.04	226.58
925.34	226.55
925.64	226.51
925.94	226.48
926.24	226.54
926.55	226.53
926.85	226.54
927.15	226.53
927.45	226.54
927.75	226.51
928.05	226.49
928.35	226.49
928.65	226.49
928.95	226.49
929.26	226.49
929.56	226.50
929.86	226.50
930.16	226.48
930.46	226.49
930.76	226.47
931.06	226.42
931.36	226.42
931.66	226.45
931.96	226.45
932.26	226.47
932.56	226.46
932.86	226.47
933.16	226.44
933.46	226.43
933.76	226.39
934.06	226.40
934.36	226.42
934.66	226.40
934.96	226.38
935.26	226.38
935.56	226.36
935.86	226.33
936.16	226.29
936.46	226.27
936.76	226.24
937.06	226.25
937.36	226.28
937.66	226.27
937.96	226.27
938.26	226.29
938.56	226.28
938.86	226.25
939.16	226.26
939.46	226.28
939.76	226.29
940.06	226.29
940.35	226.27
940.65	226.20
940.95	226.23
941.25	226.18
941.55	226.17
941.85	226.18
942.15	226.21
942.45	226.25
942.75	226.28
943.04	226.28
943.34	226.29
943.64	226.26
943.94	226.26
944.24	226.26
944.54	226.24
944.84	226.25
945.13	226.28
945.43	226.24
945.73	226.25
946.03	226.26
946.33	226.26
946.62	226.25
946.92	226.27
947.22	226.25
947.52	226.30
947.82	226.30
948.11	226.27
948.41	226.25
948.71	226.22
949.01	226.21
949.31	226.24
949.60	226.24
949.90	226.27
950.20	226.26
950.50	226.26
950.79	226.27
951.09	226.27
951.39	226.26
951.69	226.26
951.98	226.28
952.28	226.29
952.58	226.31
952.87	226.36
953.17	226.38
953.47	226.36
953.76	226.35
954.06	226.37
954.36	226.35
954.66	226.36
954.95	226.37
955.25	226.38
955.55	226.39
955.84	226.36
956.14	226.37
956.44	226.38
956.73	226.37
957.03	226.35
957.32	226.36
957.62	226.32
957.92	226.32
958.21	226.30
958.51	226.40
958.81	226.41
959.10	226.40
959.40	226.45
959.69	226.48
959.99	226.50
960.29	226.47
960.58	226.48
960.88	226.51
961.17	226.53
961.47	226.52
961.76	226.49
962.06	226.50
962.36	226.49
962.65	226.49
962.95	226.50
963.24	226.52
963.54	226.52
963.83	226.53
964.13	226.55
964.42	226.49
964.72	226.41
965.01	226.39
965.31	226.39
965.60	226.34
965.90	226.41
966.19	226.37
966.49	226.39
966.78	226.39
967.08	226.41
967.37	226.39
967.67	226.35
967.96	226.38
968.26	226.37
968.55	226.35
968.85	226.31
969.14	226.27
969.43	226.25
969.73	226.23
970.02	226.26
970.32	226.25
970.61	226.28
970.91	226.24
971.20	226.23
971.49	226.20
971.79	226.24
972.08	226.15
972.38	226.18
972.67	226.19
972.96	226.23
973.26	226.18
973.55	226.22
973.85	226.24
974.14	226.25
974.43	226.26
974.73	226.27
975.02	226.29
975.31	226.33
975.61	226.34
975.90	226.36
976.19	226.33
976.49	226.31
976.78	226.30
977.07	226.33
977.37	226.35
977.66	226.36
977.95	226.34
978.24	226.36
978.54	226.36
978.83	226.35
979.12	226.30
979.42	226.32
979.71	226.31
980.00	226.27
980.29	226.28
980.59	226.27
980.88	226.30
981.17	226.33
981.46	226.32
981.76	226.32
982.05	226.35
982.34	226.38
982.63	226.43
982.93	226.43
983.22	226.43
983.51	226.42
983.80	226.42
984.09	226.43
984.39	226.39
984.68	226.40
984.97	226.37
985.26	226.39
985.55	226.38
985.85	226.33
986.14	226.41
986.43	226.39
986.72	226.38
987.01	226.35
987.30	226.33
987.59	226.33
987.89	226.34
988.18	226.30
988.47	226.28
988.76	226.24
989.05	226.24
989.34	226.22
989.63	226.24
989.92	226.23
990.22	226.21
990.51	226.23
990.80	226.22
991.09	226.23
991.38	226.22
991.67	226.22
991.96	226.22
992.25	226.18
992.54	226.15
992.83	226.16
993.12	226.14
993.41	226.17
993.70	226.20
993.99	226.21
994.28	226.22
994.58	226.21
994.87	226.22
995.16	226.22
995.45	226.22
995.74	226.18
996.03	226.19
996.32	226.20
996.61	226.23
996.90	226.21
997.19	226.22
997.48	226.22
997.77	226.22
998.06	226.21
998.34	226.21
998.63	226.23
998.92	226.23
999.21	226.27
999.50	226.27
999.79	226.25
1000.08	226.25
1000.37	226.27
1000.66	226.29
1000.95	226.32
1001.24	226.33
1001.53	226.36
1001.82	226.37
1002.11	226.37
1002.40	226.41
1002.68	226.45
1002.97	226.53
1003.26	226.52
1003.55	226.51
1003.84	226.52
1004.13	226.57
1004.42	226.59
1004.71	226.58
1004.99	226.56
1005.28	226.58
1005.57	226.55
1005.86	226.51
1006.15	226.49
1006.44	226.43
1006.72	226.44
1007.01	226.43
1007.30	226.42
1007.59	226.42
1007.88	226.41
1008.17	226.40
1008.45	226.38
1008.74	226.33
1009.03	226.31
1009.32	226.33
1009.60	226.33
1009.89	226.32
1010.18	226.29
1010.47	226.28
1010.76	226.29
1011.04	226.30
1011.33	226.35
1011.62	226.38
1011.91	226.40
1012.19	226.40
1012.48	226.43
1012.77	226.38
1013.05	226.44
1013.34	226.45
1013.63	226.43
1013.92	226.44
1014.20	226.44
1014.49	226.43
1014.78	226.42
1015.06	226.37
1015.35	226.37
1015.64	226.41
1015.92	226.40
1016.21	226.40
1016.50	226.40
1016.78	226.42
1017.07	226.43
1017.36	226.34
1017.64	226.32
1017.93	226.34
1018.22	226.35
1018.50	226.37
1018.79	226.40
1019.08	226.33
1019.36	226.34
1019.65	226.34
1019.93	226.37
1020.22	226.37
1020.51	226.45
1020.79	226.43
1021.08	226.29
1021.36	226.42
1021.65	226.23
1021.94	226.39
1022.22	226.56
1022.51	226.08
1022.79	226.80
1023.08	226.25
1023.36	228.25
1023.65	225.87
>>>>>End Processed Spectral Data<<<<<
