SpectraSuite Data File
++++++++++++++++++++++++++++++++++++
Date: Fri Feb 01 16:08:38 EST 2013
User: group
Dark Spectrum Present: No
Reference Spectrum Present: No
Number of Sampled Component Spectra: 1
Spectrometers: USB2E7196
Integration Time (usec): 35000 (USB2E7196)
Spectra Averaged: 100 (USB2E7196)
Boxcar Smoothing: 10 (USB2E7196)
Correct for Electrical Dark: No (USB2E7196)
Strobe/Lamp Enabled: No (USB2E7196)
Correct for Detector Non-linearity: No (USB2E7196)
Correct for Stray Light: No (USB2E7196)
Number of Pixels in Processed Spectrum: 2048
>>>>>Begin Processed Spectral Data<<<<<
339.09	0.00
339.48	214.76
339.86	216.67
340.24	217.36
340.63	218.89
341.01	221.47
341.39	221.49
341.78	222.96
342.16	223.45
342.54	224.72
342.93	212.95
343.31	223.68
343.69	224.21
344.07	224.65
344.46	225.08
344.84	225.47
345.22	225.68
345.60	225.92
345.99	226.08
346.37	226.24
346.75	226.32
347.13	226.36
347.52	226.41
347.90	226.47
348.28	226.50
348.66	226.53
349.05	226.49
349.43	226.51
349.81	226.55
350.19	226.61
350.57	226.66
350.96	226.75
351.34	226.84
351.72	226.90
352.10	226.99
352.48	227.04
352.87	227.06
353.25	227.12
353.63	227.19
354.01	227.25
354.39	227.31
354.77	227.39
355.15	227.49
355.54	227.54
355.92	227.59
356.30	227.67
356.68	227.81
357.06	227.88
357.44	227.93
357.82	227.99
358.20	228.04
358.58	228.10
358.97	228.16
359.35	228.25
359.73	228.33
360.11	228.37
360.49	228.45
360.87	228.49
361.25	228.56
361.63	228.63
362.01	228.68
362.39	228.72
362.77	228.76
363.15	228.77
363.53	228.78
363.91	228.79
364.29	228.80
364.67	228.74
365.05	228.75
365.43	228.77
365.81	228.80
366.19	228.86
366.57	228.88
366.95	228.86
367.33	228.84
367.71	228.82
368.09	228.83
368.47	228.79
368.85	228.80
369.23	228.81
369.61	228.75
369.99	228.76
370.37	228.73
370.75	228.70
371.13	228.67
371.51	228.60
371.89	228.60
372.27	228.55
372.65	228.50
373.03	228.47
373.41	228.40
373.78	228.34
374.16	228.24
374.54	228.16
374.92	228.11
375.30	228.03
375.68	227.96
376.06	227.91
376.44	227.85
376.82	227.77
377.19	227.72
377.57	227.64
377.95	227.56
378.33	227.51
378.71	227.41
379.09	227.34
379.47	227.29
379.84	227.18
380.22	227.13
380.60	227.07
380.98	226.97
381.36	226.89
381.73	226.81
382.11	226.78
382.49	226.73
382.87	226.67
383.25	226.62
383.62	226.68
384.00	226.60
384.38	226.54
384.76	226.51
385.13	226.47
385.51	226.44
385.89	226.37
386.27	226.32
386.64	226.32
387.02	226.30
387.40	226.29
387.78	226.28
388.15	226.27
388.53	226.21
388.91	226.22
389.29	226.20
389.66	226.19
390.04	226.16
390.42	226.17
390.79	226.15
391.17	226.16
391.55	226.04
391.92	226.06
392.30	226.06
392.68	226.07
393.05	226.06
393.43	226.08
393.81	226.11
394.18	226.12
394.56	226.11
394.94	226.17
395.31	226.16
395.69	226.20
396.06	226.21
396.44	226.29
396.82	226.28
397.19	226.38
397.57	226.43
397.95	226.47
398.32	226.48
398.70	226.52
399.07	226.59
399.45	226.62
399.82	226.66
400.20	226.74
400.58	226.80
400.95	226.85
401.33	226.93
401.70	227.05
402.08	227.13
402.45	227.24
402.83	227.34
403.20	227.47
403.58	227.56
403.95	227.73
404.33	227.81
404.71	227.94
405.08	228.11
405.46	228.24
405.83	228.42
406.21	228.57
406.58	228.74
406.96	228.88
407.33	229.07
407.70	229.30
408.08	229.56
408.45	229.77
408.83	229.98
409.20	230.17
409.58	230.36
409.95	230.62
410.33	230.88
410.70	231.13
411.08	231.41
411.45	231.72
411.82	232.00
412.20	232.38
412.57	232.80
412.95	233.08
413.32	233.49
413.69	233.87
414.07	234.30
414.44	234.80
414.82	235.24
415.19	235.79
415.56	236.32
415.94	236.84
416.31	237.47
416.68	238.08
417.06	238.80
417.43	239.47
417.81	240.21
418.18	240.98
418.55	241.82
418.93	242.71
419.30	243.62
419.67	244.53
420.04	245.43
420.42	246.39
420.79	247.59
421.16	248.68
421.54	249.87
421.91	251.10
422.28	252.33
422.66	253.67
423.03	254.96
423.40	256.29
423.77	257.67
424.15	259.09
424.52	260.60
424.89	262.19
425.26	263.75
425.64	265.18
426.01	266.78
426.38	268.40
426.75	270.06
427.13	271.79
427.50	273.62
427.87	275.52
428.24	277.41
428.61	279.14
428.99	281.12
429.36	283.21
429.73	285.27
430.10	287.26
430.47	289.34
430.85	291.43
431.22	293.65
431.59	296.09
431.96	298.35
432.33	300.86
432.70	303.26
433.08	306.09
433.45	308.74
433.82	311.32
434.19	314.22
434.56	317.01
434.93	319.67
435.30	322.27
435.68	325.19
436.05	328.02
436.42	330.80
436.79	333.31
437.16	335.97
437.53	338.80
437.90	341.61
438.27	344.36
438.64	347.19
439.01	349.80
439.38	351.98
439.75	354.14
440.13	356.62
440.50	358.91
440.87	360.71
441.24	362.63
441.61	364.79
441.98	366.26
442.35	368.03
442.72	369.84
443.09	371.67
443.46	372.63
443.83	373.20
444.20	373.71
444.57	374.50
444.94	374.78
445.31	375.10
445.68	375.48
446.05	375.53
446.42	375.18
446.79	374.77
447.16	374.33
447.53	373.99
447.90	372.83
448.27	371.67
448.64	370.13
449.01	369.02
449.37	367.06
449.74	365.18
450.11	362.97
450.48	360.47
450.85	357.93
451.22	355.78
451.59	353.74
451.96	351.78
452.33	349.25
452.70	346.94
453.07	344.12
453.43	341.22
453.80	338.50
454.17	335.80
454.54	333.23
454.91	330.49
455.28	327.80
455.65	325.31
456.02	322.91
456.38	320.76
456.75	318.10
457.12	315.88
457.49	313.68
457.86	311.53
458.23	309.70
458.59	307.68
458.96	305.60
459.33	303.77
459.70	301.96
460.07	300.47
460.43	298.76
460.80	297.13
461.17	295.67
461.54	294.17
461.91	292.74
462.27	291.35
462.64	290.11
463.01	288.79
463.38	287.48
463.74	286.13
464.11	284.97
464.48	283.97
464.85	282.86
465.21	282.03
465.58	281.12
465.95	280.06
466.32	279.15
466.68	278.25
467.05	277.34
467.42	276.45
467.78	275.48
468.15	274.60
468.52	273.97
468.88	273.14
469.25	272.36
469.62	271.73
469.98	271.02
470.35	270.42
470.72	269.82
471.08	269.18
471.45	268.60
471.82	268.02
472.18	267.42
472.55	266.99
472.92	266.44
473.28	265.98
473.65	265.52
474.02	265.06
474.38	264.68
474.75	264.41
475.11	264.05
475.48	263.81
475.85	263.58
476.21	263.34
476.58	263.17
476.94	263.03
477.31	262.89
477.67	262.77
478.04	262.66
478.41	262.59
478.77	262.65
479.14	262.62
479.50	262.66
479.87	262.73
480.23	262.78
480.60	262.83
480.96	262.93
481.33	263.17
481.69	263.40
482.06	263.62
482.42	263.82
482.79	264.11
483.15	264.42
483.52	264.83
483.88	265.18
484.25	265.59
484.61	266.04
484.98	266.47
485.34	267.02
485.71	267.60
486.07	268.23
486.44	268.76
486.80	269.41
487.17	270.14
487.53	270.96
487.90	271.82
488.26	272.76
488.62	273.71
488.99	274.68
489.35	275.70
489.72	276.86
490.08	278.04
490.44	279.26
490.81	280.61
491.17	281.99
491.54	283.51
491.90	285.05
492.26	286.70
492.63	288.45
492.99	290.23
493.36	292.14
493.72	294.17
494.08	296.32
494.45	298.61
494.81	300.98
495.17	303.46
495.54	306.06
495.90	308.74
496.26	311.59
496.63	314.53
496.99	317.64
497.35	320.86
497.72	324.24
498.08	327.78
498.44	331.46
498.80	335.32
499.17	339.32
499.53	343.48
499.89	347.80
500.26	352.26
500.62	356.94
500.98	361.86
501.34	366.94
501.71	372.27
502.07	377.74
502.43	383.37
502.79	389.17
503.16	395.23
503.52	401.48
503.88	407.88
504.24	414.56
504.60	421.47
504.97	428.58
505.33	435.88
505.69	443.60
506.05	451.38
506.41	459.27
506.78	467.39
507.14	475.82
507.50	484.61
507.86	493.65
508.22	502.88
508.59	512.13
508.95	521.73
509.31	531.52
509.67	541.59
510.03	551.81
510.39	562.31
510.75	573.08
511.12	584.08
511.48	595.40
511.84	606.79
512.20	618.26
512.56	630.18
512.92	642.46
513.28	654.75
513.64	667.20
514.00	679.87
514.37	692.85
514.73	705.89
515.09	718.86
515.45	732.19
515.81	745.75
516.17	759.65
516.53	773.67
516.89	787.83
517.25	801.97
517.61	816.44
517.97	830.92
518.33	845.40
518.69	860.16
519.05	875.07
519.41	890.27
519.77	905.75
520.13	921.20
520.49	936.59
520.85	951.98
521.21	967.68
521.57	983.96
521.93	999.65
522.29	1015.99
522.65	1032.21
523.01	1048.36
523.37	1064.28
523.73	1080.49
524.09	1096.61
524.45	1112.88
524.81	1129.52
525.17	1146.21
525.53	1163.12
525.89	1179.87
526.25	1196.64
526.61	1212.99
526.97	1229.59
527.33	1246.14
527.68	1262.68
528.04	1279.01
528.40	1295.66
528.76	1312.64
529.12	1329.11
529.48	1345.88
529.84	1361.88
530.20	1378.46
530.56	1395.36
530.91	1412.83
531.27	1429.57
531.63	1446.01
531.99	1462.51
532.35	1478.40
532.71	1494.32
533.07	1510.47
533.42	1526.41
533.78	1542.36
534.14	1558.61
534.50	1573.98
534.86	1589.72
535.21	1604.85
535.57	1620.74
535.93	1636.11
536.29	1650.91
536.65	1665.97
537.00	1680.61
537.36	1695.85
537.72	1710.45
538.08	1724.84
538.44	1738.45
538.79	1752.26
539.15	1765.82
539.51	1779.51
539.87	1793.83
540.22	1807.38
540.58	1821.07
540.94	1834.25
541.29	1847.12
541.65	1859.65
542.01	1872.78
542.37	1885.17
542.72	1897.58
543.08	1909.25
543.44	1921.50
543.79	1932.62
544.15	1943.57
544.51	1955.19
544.87	1966.05
545.22	1976.58
545.58	1986.79
545.94	1996.54
546.29	2006.28
546.65	2016.14
547.01	2025.39
547.36	2033.95
547.72	2042.43
548.07	2050.21
548.43	2058.32
548.79	2066.21
549.14	2073.73
549.50	2081.06
549.86	2088.60
550.21	2095.89
550.57	2103.02
550.92	2109.57
551.28	2116.59
551.64	2123.55
551.99	2130.08
552.35	2136.26
552.70	2142.49
553.06	2148.42
553.41	2154.70
553.77	2160.80
554.13	2166.88
554.48	2172.94
554.84	2178.52
555.19	2183.80
555.55	2189.02
555.90	2193.53
556.26	2198.53
556.61	2203.25
556.97	2207.57
557.32	2211.70
557.68	2215.77
558.03	2220.12
558.39	2223.82
558.74	2228.34
559.10	2232.28
559.45	2235.93
559.81	2240.23
560.16	2243.99
560.52	2247.30
560.87	2250.77
561.23	2253.38
561.58	2256.23
561.94	2258.61
562.29	2260.87
562.64	2263.64
563.00	2266.09
563.35	2269.56
563.71	2272.65
564.06	2275.96
564.42	2278.87
564.77	2281.35
565.12	2283.76
565.48	2285.71
565.83	2287.64
566.19	2289.13
566.54	2289.94
566.89	2291.19
567.25	2291.75
567.60	2293.12
567.96	2294.83
568.31	2295.59
568.66	2296.78
569.02	2297.33
569.37	2297.86
569.72	2298.74
570.08	2298.89
570.43	2298.92
570.78	2298.38
571.14	2296.90
571.49	2295.52
571.84	2295.09
572.20	2294.09
572.55	2292.92
572.90	2291.36
573.26	2289.95
573.61	2288.12
573.96	2286.42
574.31	2283.44
574.67	2280.47
575.02	2276.92
575.37	2273.53
575.72	2269.95
576.08	2266.50
576.43	2263.26
576.78	2259.51
577.13	2256.39
577.49	2253.26
577.84	2249.83
578.19	2246.14
578.54	2242.44
578.90	2238.28
579.25	2232.75
579.60	2227.85
579.95	2222.94
580.30	2217.82
580.66	2212.68
581.01	2207.73
581.36	2202.91
581.71	2198.71
582.06	2194.43
582.42	2190.07
582.77	2184.75
583.12	2180.27
583.47	2175.77
583.82	2170.77
584.17	2165.78
584.53	2160.35
584.88	2154.70
585.23	2149.14
585.58	2143.65
585.93	2138.24
586.28	2133.38
586.63	2128.50
586.98	2123.34
587.34	2118.66
587.69	2113.95
588.04	2108.77
588.39	2103.31
588.74	2096.86
589.09	2090.77
589.44	2083.94
589.79	2077.86
590.14	2072.30
590.49	2065.58
590.84	2059.07
591.19	2053.20
591.54	2046.67
591.89	2039.41
592.25	2032.86
592.60	2025.66
592.95	2018.01
593.30	2010.67
593.65	2003.08
594.00	1995.95
594.35	1988.76
594.70	1980.73
595.05	1973.50
595.40	1966.23
595.75	1958.66
596.10	1952.51
596.45	1945.77
596.80	1939.51
597.15	1932.79
597.50	1925.84
597.85	1919.40
598.19	1912.86
598.54	1905.82
598.89	1899.17
599.24	1893.24
599.59	1886.45
599.94	1880.22
600.29	1874.03
600.64	1867.40
600.99	1860.06
601.34	1853.11
601.69	1846.15
602.04	1839.36
602.39	1832.01
602.74	1825.22
603.08	1818.64
603.43	1811.78
603.78	1804.51
604.13	1797.38
604.48	1790.25
604.83	1783.34
605.18	1776.57
605.53	1768.58
605.87	1760.45
606.22	1753.24
606.57	1745.24
606.92	1737.95
607.27	1730.78
607.62	1723.92
607.96	1716.81
608.31	1710.38
608.66	1703.00
609.01	1695.52
609.36	1687.94
609.70	1679.99
610.05	1672.00
610.40	1664.24
610.75	1655.96
611.10	1648.29
611.44	1639.96
611.79	1631.95
612.14	1623.23
612.49	1613.96
612.83	1605.55
613.18	1597.60
613.53	1589.51
613.88	1580.89
614.22	1572.56
614.57	1563.97
614.92	1555.88
615.27	1548.35
615.61	1539.88
615.96	1531.72
616.31	1524.09
616.65	1516.71
617.00	1509.08
617.35	1501.32
617.70	1492.92
618.04	1484.48
618.39	1476.32
618.74	1468.73
619.08	1460.40
619.43	1452.82
619.78	1445.95
620.12	1438.84
620.47	1431.20
620.82	1423.02
621.16	1415.68
621.51	1408.10
621.85	1400.41
622.20	1391.97
622.55	1383.54
622.89	1375.62
623.24	1368.10
623.59	1360.68
623.93	1353.10
624.28	1345.92
624.62	1338.39
624.97	1331.24
625.32	1324.46
625.66	1317.38
626.01	1310.16
626.35	1302.77
626.70	1295.08
627.04	1287.29
627.39	1279.41
627.73	1271.97
628.08	1265.08
628.43	1257.86
628.77	1250.49
629.12	1243.06
629.46	1235.84
629.81	1228.43
630.15	1221.37
630.50	1213.84
630.84	1205.72
631.19	1197.77
631.53	1190.29
631.88	1182.82
632.22	1175.26
632.57	1168.06
632.91	1160.46
633.26	1153.04
633.60	1145.52
633.95	1138.38
634.29	1131.36
634.64	1124.74
634.98	1117.46
635.32	1110.21
635.67	1103.52
636.01	1096.91
636.36	1090.03
636.70	1083.43
637.05	1076.85
637.39	1070.33
637.73	1063.90
638.08	1057.87
638.42	1051.89
638.77	1045.44
639.11	1038.73
639.45	1032.33
639.80	1025.55
640.14	1019.14
640.49	1012.58
640.83	1006.41
641.17	1000.10
641.52	993.82
641.86	987.27
642.20	981.36
642.55	975.12
642.89	968.73
643.23	962.15
643.58	956.44
643.92	950.26
644.26	944.22
644.61	938.09
644.95	932.04
645.29	925.52
645.64	918.81
645.98	912.47
646.32	906.75
646.66	900.71
647.01	894.90
647.35	889.32
647.69	883.56
648.04	877.96
648.38	872.25
648.72	866.23
649.06	860.21
649.41	854.40
649.75	848.47
650.09	842.51
650.43	836.67
650.78	830.46
651.12	824.52
651.46	818.75
651.80	813.12
652.14	807.75
652.49	802.43
652.83	797.31
653.17	791.60
653.51	785.81
653.85	780.34
654.20	774.72
654.54	768.66
654.88	762.85
655.22	757.04
655.56	751.36
655.90	745.86
656.25	740.63
656.59	735.20
656.93	730.16
657.27	724.98
657.61	719.58
657.95	714.53
658.29	709.43
658.64	704.22
658.98	698.90
659.32	693.46
659.66	688.27
660.00	682.87
660.34	677.89
660.68	672.96
661.02	668.03
661.36	663.28
661.70	658.81
662.05	654.52
662.39	650.15
662.73	645.70
663.07	641.34
663.41	636.93
663.75	632.43
664.09	627.82
664.43	623.45
664.77	619.35
665.11	615.10
665.45	610.96
665.79	606.82
666.13	602.67
666.47	598.51
666.81	594.25
667.15	590.16
667.49	586.34
667.83	582.53
668.17	578.52
668.51	574.44
668.85	570.41
669.19	566.52
669.53	562.70
669.87	558.79
670.21	555.08
670.55	551.34
670.89	547.89
671.23	544.43
671.57	540.90
671.91	537.28
672.25	533.74
672.58	530.24
672.92	526.86
673.26	523.70
673.60	520.59
673.94	517.49
674.28	514.54
674.62	511.54
674.96	508.44
675.30	505.57
675.64	502.65
675.97	499.86
676.31	496.99
676.65	494.01
676.99	491.31
677.33	488.47
677.67	485.73
678.01	482.73
678.34	479.77
678.68	476.89
679.02	474.17
679.36	471.39
679.70	468.68
680.04	465.90
680.37	463.04
680.71	460.26
681.05	457.71
681.39	454.99
681.73	452.33
682.06	449.82
682.40	447.29
682.74	444.79
683.08	442.22
683.42	439.59
683.75	437.13
684.09	434.63
684.43	432.19
684.77	429.73
685.10	427.38
685.44	425.08
685.78	422.74
686.12	420.44
686.45	418.18
686.79	415.90
687.13	413.73
687.46	411.54
687.80	409.30
688.14	407.03
688.48	405.02
688.81	402.80
689.15	400.64
689.49	398.51
689.82	396.48
690.16	394.41
690.50	392.49
690.83	390.60
691.17	388.57
691.51	386.62
691.84	384.72
692.18	382.79
692.52	380.79
692.85	378.88
693.19	377.02
693.52	375.19
693.86	373.36
694.20	371.60
694.53	369.80
694.87	367.98
695.21	366.21
695.54	364.39
695.88	362.64
696.21	360.88
696.55	359.18
696.88	357.44
697.22	355.79
697.56	354.16
697.89	352.48
698.23	350.89
698.56	349.28
698.90	347.72
699.23	346.10
699.57	344.54
699.90	343.05
700.24	341.51
700.58	339.96
700.91	338.48
701.25	337.01
701.58	335.68
701.92	334.33
702.25	332.97
702.59	331.61
702.92	330.27
703.26	328.96
703.59	327.69
703.93	326.50
704.26	325.23
704.60	323.90
704.93	322.63
705.26	321.37
705.60	320.20
705.93	319.01
706.27	317.95
706.60	316.91
706.94	315.79
707.27	314.64
707.61	313.60
707.94	312.56
708.27	311.47
708.61	310.34
708.94	309.34
709.28	308.37
709.61	307.38
709.94	306.45
710.28	305.49
710.61	304.47
710.95	303.40
711.28	302.49
711.61	301.55
711.95	300.63
712.28	299.71
712.61	298.74
712.95	297.83
713.28	296.93
713.61	296.05
713.95	295.15
714.28	294.32
714.61	293.44
714.95	292.56
715.28	291.73
715.61	290.86
715.95	289.99
716.28	289.11
716.61	288.28
716.95	287.49
717.28	286.75
717.61	286.00
717.94	285.24
718.28	284.42
718.61	283.71
718.94	283.01
719.27	282.34
719.61	281.67
719.94	281.03
720.27	280.34
720.60	279.65
720.94	278.98
721.27	278.38
721.60	277.81
721.93	277.26
722.27	276.67
722.60	276.14
722.93	275.59
723.26	275.05
723.59	274.46
723.93	273.90
724.26	273.29
724.59	272.74
724.92	272.26
725.25	271.76
725.59	271.27
725.92	270.72
726.25	270.18
726.58	269.68
726.91	269.19
727.24	268.67
727.57	268.22
727.91	267.76
728.24	267.31
728.57	266.84
728.90	266.37
729.23	265.90
729.56	265.48
729.89	265.02
730.22	264.53
730.55	264.10
730.89	263.64
731.22	263.22
731.55	262.78
731.88	262.34
732.21	261.94
732.54	261.48
732.87	261.08
733.20	260.72
733.53	260.35
733.86	259.95
734.19	259.61
734.52	259.23
734.85	258.91
735.18	258.50
735.51	258.11
735.84	257.74
736.17	257.37
736.50	256.96
736.83	256.71
737.16	256.34
737.49	255.99
737.82	255.64
738.15	255.32
738.48	254.97
738.81	254.63
739.14	254.28
739.47	253.99
739.80	253.70
740.13	253.39
740.46	253.05
740.79	252.72
741.12	252.41
741.45	252.12
741.78	251.77
742.11	251.45
742.44	251.14
742.77	250.85
743.10	250.60
743.43	250.33
743.75	249.92
744.08	249.77
744.41	249.49
744.74	249.22
745.07	248.92
745.40	248.68
745.73	248.45
746.06	248.17
746.39	247.88
746.71	247.61
747.04	247.31
747.37	247.07
747.70	246.82
748.03	246.52
748.36	246.28
748.68	246.02
749.01	245.77
749.34	245.55
749.67	245.29
750.00	245.03
750.33	244.87
750.65	244.65
750.98	244.31
751.31	244.12
751.64	243.91
751.97	243.77
752.29	243.59
752.62	243.34
752.95	243.15
753.28	242.91
753.60	242.69
753.93	242.51
754.26	242.30
754.59	242.09
754.91	241.95
755.24	241.74
755.57	241.60
755.90	241.40
756.22	241.22
756.55	241.03
756.88	240.84
757.20	240.59
757.53	240.38
757.86	240.22
758.19	240.06
758.51	239.90
758.84	239.69
759.17	239.48
759.49	239.34
759.82	239.18
760.15	239.05
760.47	238.92
760.80	238.76
761.13	238.63
761.45	238.48
761.78	238.28
762.11	238.12
762.43	237.97
762.76	237.84
763.08	237.71
763.41	237.63
763.74	237.50
764.06	237.37
764.39	237.26
764.71	237.14
765.04	236.99
765.37	236.86
765.69	236.77
766.02	236.65
766.34	236.47
766.67	236.34
767.00	236.24
767.32	236.17
767.65	236.10
767.97	235.97
768.30	235.90
768.62	235.83
768.95	235.73
769.27	235.59
769.60	235.49
769.92	235.36
770.25	235.21
770.57	235.10
770.90	235.02
771.22	234.91
771.55	234.83
771.87	234.71
772.20	234.60
772.52	234.55
772.85	234.60
773.17	234.54
773.50	234.44
773.82	234.36
774.15	234.25
774.47	234.13
774.80	234.03
775.12	233.93
775.45	233.84
775.77	233.76
776.09	233.69
776.42	233.61
776.74	233.55
777.07	233.46
777.39	233.38
777.72	233.27
778.04	233.20
778.36	233.13
778.69	233.09
779.01	233.06
779.33	232.92
779.66	232.72
779.98	232.64
780.31	232.61
780.63	232.58
780.95	232.51
781.28	232.42
781.60	232.38
781.92	232.30
782.25	232.24
782.57	232.17
782.89	232.13
783.22	232.06
783.54	232.00
783.86	231.97
784.19	231.90
784.51	231.88
784.83	231.79
785.16	231.73
785.48	231.66
785.80	231.60
786.12	231.55
786.45	231.49
786.77	231.47
787.09	231.37
787.42	231.29
787.74	231.26
788.06	231.24
788.38	231.18
788.71	231.14
789.03	231.09
789.35	231.08
789.67	231.01
789.99	230.99
790.32	230.96
790.64	230.92
790.96	230.95
791.28	230.89
791.61	230.88
791.93	230.83
792.25	230.79
792.57	230.77
792.89	230.71
793.21	230.69
793.54	230.66
793.86	230.62
794.18	230.57
794.50	230.50
794.82	230.45
795.14	230.40
795.47	230.35
795.79	230.32
796.11	230.25
796.43	230.21
796.75	230.18
797.07	230.11
797.39	230.10
797.71	230.00
798.04	229.96
798.36	229.95
798.68	229.92
799.00	229.89
799.32	229.84
799.64	229.82
799.96	229.79
800.28	229.73
800.60	229.74
800.92	229.71
801.24	229.70
801.56	229.64
801.89	229.62
802.21	229.62
802.53	229.55
802.85	229.55
803.17	229.56
803.49	229.52
803.81	229.48
804.13	229.42
804.45	229.38
804.77	229.39
805.09	229.38
805.41	229.36
805.73	229.34
806.05	229.27
806.37	229.23
806.69	229.19
807.01	229.18
807.33	229.12
807.65	229.06
807.97	229.07
808.28	229.04
808.60	229.00
808.92	228.96
809.24	229.03
809.56	229.00
809.88	228.96
810.20	228.91
810.52	228.94
810.84	228.94
811.16	228.90
811.48	228.85
811.80	228.83
812.12	228.83
812.43	228.81
812.75	228.78
813.07	228.80
813.39	228.78
813.71	228.75
814.03	228.75
814.35	228.76
814.67	228.69
814.98	228.68
815.30	228.66
815.62	228.65
815.94	228.56
816.26	228.58
816.58	228.56
816.89	228.54
817.21	228.52
817.53	228.47
817.85	228.47
818.17	228.50
818.48	228.44
818.80	228.43
819.12	228.40
819.44	228.40
819.76	228.35
820.07	228.41
820.39	228.38
820.71	228.36
821.03	228.35
821.34	228.33
821.66	228.33
821.98	228.34
822.30	228.30
822.61	228.35
822.93	228.30
823.25	228.29
823.57	228.30
823.88	228.26
824.20	228.28
824.52	228.29
824.83	228.24
825.15	228.23
825.47	228.20
825.79	228.19
826.10	228.20
826.42	228.19
826.74	228.16
827.05	228.14
827.37	228.13
827.69	228.07
828.00	228.07
828.32	228.07
828.64	228.03
828.95	228.08
829.27	228.03
829.58	227.99
829.90	227.98
830.22	227.96
830.53	227.90
830.85	227.88
831.17	227.84
831.48	227.81
831.80	227.83
832.11	227.79
832.43	227.78
832.75	227.73
833.06	227.76
833.38	227.69
833.69	227.69
834.01	227.70
834.32	227.66
834.64	227.63
834.96	227.62
835.27	227.62
835.59	227.55
835.90	227.54
836.22	227.53
836.53	227.50
836.85	227.46
837.16	227.57
837.48	227.55
837.79	227.54
838.11	227.52
838.42	227.47
838.74	227.46
839.05	227.43
839.37	227.44
839.68	227.37
840.00	227.35
840.31	227.35
840.63	227.31
840.94	227.30
841.26	227.30
841.57	227.28
841.88	227.29
842.20	227.27
842.51	227.24
842.83	227.24
843.14	227.31
843.46	227.31
843.77	227.23
844.08	227.23
844.40	227.22
844.71	227.23
845.03	227.23
845.34	227.22
845.65	227.20
845.97	227.15
846.28	227.16
846.60	227.16
846.91	227.13
847.22	227.10
847.54	227.11
847.85	227.12
848.16	227.11
848.48	227.06
848.79	227.13
849.10	227.15
849.42	227.14
849.73	227.04
850.04	227.00
850.36	226.97
850.67	226.99
850.98	226.97
851.30	226.96
851.61	226.94
851.92	226.96
852.23	227.02
852.55	227.04
852.86	227.05
853.17	227.06
853.49	227.08
853.80	227.14
854.11	227.14
854.42	227.13
854.74	227.11
855.05	227.13
855.36	227.06
855.67	227.03
855.99	227.04
856.30	227.20
856.61	227.22
856.92	227.22
857.23	227.19
857.55	227.21
857.86	227.20
858.17	227.24
858.48	227.23
858.79	227.18
859.11	227.20
859.42	227.19
859.73	227.19
860.04	227.15
860.35	227.07
860.66	227.05
860.98	227.06
861.29	227.10
861.60	227.10
861.91	227.12
862.22	227.09
862.53	227.05
862.84	226.91
863.16	226.95
863.47	226.96
863.78	226.92
864.09	226.88
864.40	226.87
864.71	226.88
865.02	226.88
865.33	226.87
865.64	226.84
865.95	226.80
866.27	226.87
866.58	226.87
866.89	226.90
867.20	226.92
867.51	226.90
867.82	226.86
868.13	226.88
868.44	226.86
868.75	226.88
869.06	226.91
869.37	226.93
869.68	226.89
869.99	226.87
870.30	226.90
870.61	226.96
870.92	226.94
871.23	226.93
871.54	226.94
871.85	226.95
872.16	226.96
872.47	226.98
872.78	226.89
873.09	226.92
873.40	226.92
873.71	226.92
874.02	226.95
874.33	226.96
874.64	226.94
874.95	226.92
875.26	226.89
875.56	226.89
875.87	226.85
876.18	226.85
876.49	226.93
876.80	226.93
877.11	226.88
877.42	226.91
877.73	226.89
878.04	226.87
878.35	226.90
878.66	226.93
878.96	226.92
879.27	226.92
879.58	226.91
879.89	226.90
880.20	226.92
880.51	226.88
880.82	226.88
881.12	226.86
881.43	226.84
881.74	226.83
882.05	226.81
882.36	226.83
882.67	226.85
882.97	226.75
883.28	226.75
883.59	226.74
883.90	226.74
884.21	226.76
884.51	226.74
884.82	226.68
885.13	226.64
885.44	226.63
885.74	226.60
886.05	226.60
886.36	226.61
886.67	226.58
886.98	226.64
887.28	226.65
887.59	226.65
887.90	226.67
888.20	226.67
888.51	226.68
888.82	226.68
889.13	226.68
889.43	226.78
889.74	226.77
890.05	226.78
890.35	226.75
890.66	226.71
890.97	226.69
891.28	226.70
891.58	226.72
891.89	226.75
892.20	226.78
892.50	226.75
892.81	226.73
893.12	226.75
893.42	226.70
893.73	226.66
894.04	226.70
894.34	226.71
894.65	226.72
894.95	226.74
895.26	226.72
895.57	226.73
895.87	226.65
896.18	226.67
896.48	226.67
896.79	226.71
897.10	226.75
897.40	226.79
897.71	226.78
898.01	226.77
898.32	226.74
898.63	226.71
898.93	226.71
899.24	226.73
899.54	226.70
899.85	226.68
900.15	226.68
900.46	226.68
900.76	226.67
901.07	226.62
901.38	226.60
901.68	226.59
901.99	226.57
902.29	226.56
902.60	226.53
902.90	226.52
903.21	226.48
903.51	226.46
903.82	226.49
904.12	226.51
904.43	226.49
904.73	226.50
905.03	226.52
905.34	226.65
905.64	226.66
905.95	226.66
906.25	226.68
906.56	226.71
906.86	226.71
907.17	226.70
907.47	226.77
907.77	226.80
908.08	226.81
908.38	226.80
908.69	226.82
908.99	226.86
909.30	226.88
909.60	226.91
909.90	226.93
910.21	226.90
910.51	226.90
910.81	226.92
911.12	226.95
911.42	226.95
911.73	226.83
912.03	226.83
912.33	226.88
912.64	226.88
912.94	226.87
913.24	226.87
913.55	226.88
913.85	226.85
914.15	226.82
914.46	226.83
914.76	226.81
915.06	226.78
915.37	226.74
915.67	226.74
915.97	226.74
916.27	226.71
916.58	226.73
916.88	226.72
917.18	226.71
917.49	226.78
917.79	226.76
918.09	226.77
918.39	226.76
918.70	226.74
919.00	226.74
919.30	226.77
919.60	226.73
919.91	226.71
920.21	226.74
920.51	226.76
920.81	226.79
921.12	226.81
921.42	226.82
921.72	226.82
922.02	226.82
922.32	226.81
922.63	226.78
922.93	226.80
923.23	226.79
923.53	226.77
923.83	226.69
924.13	226.70
924.44	226.71
924.74	226.73
925.04	226.74
925.34	226.72
925.64	226.70
925.94	226.70
926.24	226.72
926.55	226.68
926.85	226.66
927.15	226.61
927.45	226.59
927.75	226.59
928.05	226.59
928.35	226.57
928.65	226.55
928.95	226.57
929.26	226.53
929.56	226.53
929.86	226.56
930.16	226.53
930.46	226.50
930.76	226.46
931.06	226.43
931.36	226.40
931.66	226.38
931.96	226.37
932.26	226.39
932.56	226.38
932.86	226.39
933.16	226.37
933.46	226.38
933.76	226.36
934.06	226.36
934.36	226.39
934.66	226.39
934.96	226.41
935.26	226.41
935.56	226.42
935.86	226.41
936.16	226.40
936.46	226.38
936.76	226.41
937.06	226.44
937.36	226.43
937.66	226.45
937.96	226.47
938.26	226.45
938.56	226.45
938.86	226.47
939.16	226.50
939.46	226.52
939.76	226.53
940.06	226.56
940.35	226.58
940.65	226.55
940.95	226.58
941.25	226.58
941.55	226.58
941.85	226.56
942.15	226.60
942.45	226.59
942.75	226.61
943.04	226.65
943.34	226.68
943.64	226.69
943.94	226.68
944.24	226.70
944.54	226.71
944.84	226.72
945.13	226.72
945.43	226.69
945.73	226.67
946.03	226.68
946.33	226.70
946.62	226.68
946.92	226.64
947.22	226.64
947.52	226.66
947.82	226.68
948.11	226.68
948.41	226.65
948.71	226.69
949.01	226.69
949.31	226.64
949.60	226.66
949.90	226.64
950.20	226.67
950.50	226.67
950.79	226.67
951.09	226.68
951.39	226.68
951.69	226.70
951.98	226.73
952.28	226.75
952.58	226.76
952.87	226.77
953.17	226.81
953.47	226.82
953.76	226.79
954.06	226.77
954.36	226.75
954.66	226.73
954.95	226.75
955.25	226.78
955.55	226.79
955.84	226.76
956.14	226.78
956.44	226.76
956.73	226.73
957.03	226.73
957.32	226.73
957.62	226.72
957.92	226.69
958.21	226.68
958.51	226.72
958.81	226.72
959.10	226.73
959.40	226.73
959.69	226.69
959.99	226.70
960.29	226.70
960.58	226.71
960.88	226.75
961.17	226.71
961.47	226.69
961.76	226.66
962.06	226.63
962.36	226.58
962.65	226.58
962.95	226.59
963.24	226.57
963.54	226.54
963.83	226.53
964.13	226.52
964.42	226.48
964.72	226.40
965.01	226.35
965.31	226.30
965.60	226.23
965.90	226.29
966.19	226.21
966.49	226.19
966.78	226.18
967.08	226.16
967.37	226.15
967.67	226.10
967.96	226.13
968.26	226.12
968.55	226.15
968.85	226.11
969.14	226.08
969.43	226.05
969.73	226.02
970.02	226.00
970.32	225.99
970.61	225.99
970.91	225.93
971.20	225.90
971.49	225.90
971.79	225.91
972.08	225.84
972.38	225.90
972.67	225.93
972.96	225.93
973.26	225.91
973.55	225.92
973.85	225.92
974.14	225.89
974.43	225.92
974.73	225.91
975.02	225.93
975.31	225.93
975.61	225.97
975.90	225.99
976.19	225.99
976.49	226.01
976.78	226.03
977.07	226.12
977.37	226.19
977.66	226.21
977.95	226.22
978.24	226.27
978.54	226.30
978.83	226.29
979.12	226.30
979.42	226.32
979.71	226.33
980.00	226.36
980.29	226.39
980.59	226.38
980.88	226.44
981.17	226.44
981.46	226.49
981.76	226.48
982.05	226.53
982.34	226.56
982.63	226.60
982.93	226.62
983.22	226.62
983.51	226.64
983.80	226.63
984.09	226.67
984.39	226.67
984.68	226.65
984.97	226.68
985.26	226.67
985.55	226.70
985.85	226.72
986.14	226.74
986.43	226.76
986.72	226.74
987.01	226.69
987.30	226.68
987.59	226.70
987.89	226.73
988.18	226.68
988.47	226.68
988.76	226.68
989.05	226.69
989.34	226.71
989.63	226.71
989.92	226.74
990.22	226.73
990.51	226.74
990.80	226.72
991.09	226.73
991.38	226.74
991.67	226.71
991.96	226.68
992.25	226.70
992.54	226.65
992.83	226.67
993.12	226.65
993.41	226.65
993.70	226.66
993.99	226.63
994.28	226.63
994.58	226.64
994.87	226.59
995.16	226.56
995.45	226.51
995.74	226.45
996.03	226.43
996.32	226.41
996.61	226.39
996.90	226.39
997.19	226.38
997.48	226.35
997.77	226.34
998.06	226.33
998.34	226.27
998.63	226.30
998.92	226.28
999.21	226.30
999.50	226.28
999.79	226.23
1000.08	226.23
1000.37	226.25
1000.66	226.22
1000.95	226.25
1001.24	226.23
1001.53	226.24
1001.82	226.23
1002.11	226.23
1002.40	226.22
1002.68	226.23
1002.97	226.31
1003.26	226.28
1003.55	226.26
1003.84	226.27
1004.13	226.28
1004.42	226.28
1004.71	226.24
1004.99	226.24
1005.28	226.24
1005.57	226.24
1005.86	226.17
1006.15	226.15
1006.44	226.10
1006.72	226.11
1007.01	226.09
1007.30	226.07
1007.59	226.07
1007.88	226.08
1008.17	226.04
1008.45	226.01
1008.74	225.98
1009.03	225.90
1009.32	225.91
1009.60	225.92
1009.89	225.91
1010.18	225.90
1010.47	225.88
1010.76	225.91
1011.04	225.90
1011.33	225.92
1011.62	225.97
1011.91	226.01
1012.19	226.03
1012.48	226.06
1012.77	226.07
1013.05	226.13
1013.34	226.15
1013.63	226.14
1013.92	226.18
1014.20	226.20
1014.49	226.22
1014.78	226.25
1015.06	226.23
1015.35	226.26
1015.64	226.28
1015.92	226.31
1016.21	226.33
1016.50	226.37
1016.78	226.40
1017.07	226.45
1017.36	226.44
1017.64	226.43
1017.93	226.49
1018.22	226.51
1018.50	226.53
1018.79	226.54
1019.08	226.48
1019.36	226.49
1019.65	226.51
1019.93	226.53
1020.22	226.56
1020.51	226.65
1020.79	226.67
1021.08	226.78
1021.36	226.56
1021.65	226.50
1021.94	226.25
1022.22	226.22
1022.51	226.72
1022.79	227.04
1023.08	226.77
1023.36	227.91
1023.65	226.67
>>>>>End Processed Spectral Data<<<<<
