SpectraSuite Data File
++++++++++++++++++++++++++++++++++++
Date: Fri Feb 01 16:08:08 EST 2013
User: group
Dark Spectrum Present: No
Reference Spectrum Present: No
Number of Sampled Component Spectra: 1
Spectrometers: USB2E7196
Integration Time (usec): 35000 (USB2E7196)
Spectra Averaged: 100 (USB2E7196)
Boxcar Smoothing: 10 (USB2E7196)
Correct for Electrical Dark: No (USB2E7196)
Strobe/Lamp Enabled: No (USB2E7196)
Correct for Detector Non-linearity: No (USB2E7196)
Correct for Stray Light: No (USB2E7196)
Number of Pixels in Processed Spectrum: 2048
>>>>>Begin Processed Spectral Data<<<<<
339.09	0.00
339.48	215.23
339.86	216.14
340.24	217.72
340.63	218.96
341.01	221.88
341.39	221.68
341.78	223.28
342.16	223.77
342.54	224.54
342.93	213.19
343.31	223.97
343.69	224.50
344.07	224.96
344.46	225.39
344.84	225.82
345.22	226.05
345.60	226.32
345.99	226.49
346.37	226.64
346.75	226.73
347.13	226.78
347.52	226.83
347.90	226.89
348.28	226.90
348.66	226.98
349.05	226.99
349.43	227.01
349.81	227.04
350.19	227.07
350.57	227.15
350.96	227.23
351.34	227.33
351.72	227.38
352.10	227.49
352.48	227.54
352.87	227.58
353.25	227.65
353.63	227.69
354.01	227.78
354.39	227.86
354.77	227.96
355.15	228.06
355.54	228.13
355.92	228.17
356.30	228.26
356.68	228.35
357.06	228.42
357.44	228.51
357.82	228.58
358.20	228.66
358.58	228.73
358.97	228.78
359.35	228.85
359.73	228.95
360.11	228.98
360.49	229.03
360.87	229.05
361.25	229.08
361.63	229.15
362.01	229.19
362.39	229.23
362.77	229.25
363.15	229.23
363.53	229.23
363.91	229.26
364.29	229.25
364.67	229.15
365.05	229.15
365.43	229.16
365.81	229.15
366.19	229.19
366.57	229.20
366.95	229.16
367.33	229.12
367.71	229.07
368.09	229.07
368.47	229.04
368.85	229.00
369.23	229.01
369.61	228.94
369.99	228.90
370.37	228.84
370.75	228.84
371.13	228.81
371.51	228.81
371.89	228.74
372.27	228.71
372.65	228.67
373.03	228.63
373.41	228.54
373.78	228.44
374.16	228.34
374.54	228.25
374.92	228.19
375.30	228.13
375.68	228.04
376.06	227.95
376.44	227.88
376.82	227.81
377.19	227.72
377.57	227.66
377.95	227.56
378.33	227.50
378.71	227.39
379.09	227.34
379.47	227.26
379.84	227.18
380.22	227.14
380.60	227.08
380.98	226.97
381.36	226.91
381.73	226.86
382.11	226.81
382.49	226.73
382.87	226.65
383.25	226.60
383.62	226.67
384.00	226.60
384.38	226.54
384.76	226.51
385.13	226.52
385.51	226.49
385.89	226.44
386.27	226.41
386.64	226.40
387.02	226.36
387.40	226.33
387.78	226.30
388.15	226.26
388.53	226.20
388.91	226.20
389.29	226.18
389.66	226.18
390.04	226.17
390.42	226.19
390.79	226.16
391.17	226.16
391.55	226.06
391.92	226.13
392.30	226.15
392.68	226.13
393.05	226.13
393.43	226.14
393.81	226.18
394.18	226.14
394.56	226.17
394.94	226.18
395.31	226.20
395.69	226.26
396.06	226.30
396.44	226.34
396.82	226.37
397.19	226.47
397.57	226.53
397.95	226.59
398.32	226.59
398.70	226.65
399.07	226.73
399.45	226.76
399.82	226.76
400.20	226.82
400.58	226.88
400.95	226.93
401.33	226.98
401.70	227.11
402.08	227.21
402.45	227.28
402.83	227.43
403.20	227.51
403.58	227.62
403.95	227.75
404.33	227.88
404.71	227.97
405.08	228.16
405.46	228.29
405.83	228.40
406.21	228.56
406.58	228.74
406.96	228.88
407.33	229.09
407.70	229.27
408.08	229.55
408.45	229.77
408.83	229.97
409.20	230.22
409.58	230.41
409.95	230.71
410.33	230.98
410.70	231.20
411.08	231.47
411.45	231.77
411.82	232.07
412.20	232.43
412.57	232.88
412.95	233.15
413.32	233.53
413.69	233.95
414.07	234.39
414.44	234.89
414.82	235.38
415.19	235.91
415.56	236.47
415.94	236.99
416.31	237.63
416.68	238.29
417.06	238.98
417.43	239.64
417.81	240.38
418.18	241.15
418.55	241.99
418.93	242.88
419.30	243.75
419.67	244.68
420.04	245.65
420.42	246.60
420.79	247.78
421.16	248.92
421.54	250.09
421.91	251.29
422.28	252.53
422.66	253.86
423.03	255.15
423.40	256.48
423.77	257.89
424.15	259.31
424.52	260.78
424.89	262.37
425.26	263.93
425.64	265.38
426.01	266.96
426.38	268.62
426.75	270.27
427.13	271.98
427.50	273.78
427.87	275.64
428.24	277.52
428.61	279.24
428.99	281.20
429.36	283.28
429.73	285.33
430.10	287.34
430.47	289.39
430.85	291.51
431.22	293.76
431.59	296.16
431.96	298.42
432.33	300.89
432.70	303.27
433.08	306.04
433.45	308.65
433.82	311.23
434.19	314.09
434.56	316.90
434.93	319.55
435.30	322.14
435.68	325.00
436.05	327.81
436.42	330.61
436.79	333.17
437.16	335.88
437.53	338.69
437.90	341.50
438.27	344.23
438.64	347.04
439.01	349.59
439.38	351.75
439.75	353.91
440.13	356.44
440.50	358.74
440.87	360.60
441.24	362.54
441.61	364.66
441.98	366.14
442.35	367.93
442.72	369.76
443.09	371.59
443.46	372.58
443.83	373.16
444.20	373.66
444.57	374.43
444.94	374.73
445.31	375.10
445.68	375.44
446.05	375.50
446.42	375.13
446.79	374.77
447.16	374.40
447.53	374.06
447.90	372.85
448.27	371.70
448.64	370.14
449.01	369.03
449.37	367.12
449.74	365.26
450.11	363.03
450.48	360.60
450.85	358.11
451.22	355.98
451.59	354.00
451.96	352.05
452.33	349.46
452.70	347.14
453.07	344.32
453.43	341.45
453.80	338.65
454.17	336.01
454.54	333.44
454.91	330.71
455.28	328.04
455.65	325.58
456.02	323.14
456.38	321.00
456.75	318.33
457.12	316.09
457.49	313.87
457.86	311.71
458.23	309.85
458.59	307.74
458.96	305.69
459.33	303.81
459.70	301.96
460.07	300.48
460.43	298.71
460.80	297.09
461.17	295.63
461.54	294.16
461.91	292.72
462.27	291.29
462.64	290.00
463.01	288.66
463.38	287.36
463.74	286.03
464.11	284.88
464.48	283.85
464.85	282.74
465.21	281.85
465.58	280.93
465.95	279.85
466.32	278.99
466.68	278.07
467.05	277.20
467.42	276.33
467.78	275.39
468.15	274.55
468.52	273.89
468.88	273.07
469.25	272.30
469.62	271.68
469.98	271.02
470.35	270.43
470.72	269.84
471.08	269.19
471.45	268.67
471.82	268.13
472.18	267.59
472.55	267.20
472.92	266.70
473.28	266.23
473.65	265.82
474.02	265.40
474.38	265.03
474.75	264.68
475.11	264.35
475.48	264.10
475.85	263.88
476.21	263.65
476.58	263.42
476.94	263.28
477.31	263.12
477.67	262.94
478.04	262.85
478.41	262.80
478.77	262.84
479.14	262.76
479.50	262.77
479.87	262.84
480.23	262.88
480.60	262.96
480.96	263.07
481.33	263.28
481.69	263.51
482.06	263.74
482.42	263.97
482.79	264.25
483.15	264.57
483.52	264.96
483.88	265.33
484.25	265.77
484.61	266.22
484.98	266.70
485.34	267.29
485.71	267.85
486.07	268.47
486.44	269.07
486.80	269.82
487.17	270.53
487.53	271.35
487.90	272.23
488.26	273.16
488.62	274.18
488.99	275.14
489.35	276.14
489.72	277.26
490.08	278.48
490.44	279.72
490.81	281.03
491.17	282.37
491.54	283.84
491.90	285.42
492.26	287.08
492.63	288.84
492.99	290.64
493.36	292.55
493.72	294.61
494.08	296.69
494.45	298.92
494.81	301.28
495.17	303.69
495.54	306.22
495.90	308.97
496.26	311.76
496.63	314.75
496.99	317.87
497.35	321.18
497.72	324.54
498.08	328.03
498.44	331.73
498.80	335.60
499.17	339.63
499.53	343.74
499.89	348.08
500.26	352.54
500.62	357.21
500.98	362.19
501.34	367.24
501.71	372.55
502.07	378.04
502.43	383.67
502.79	389.51
503.16	395.61
503.52	401.84
503.88	408.26
504.24	414.90
504.60	421.78
504.97	428.91
505.33	436.28
505.69	443.98
506.05	451.76
506.41	459.67
506.78	467.85
507.14	476.30
507.50	485.04
507.86	494.07
508.22	503.28
508.59	512.54
508.95	522.09
509.31	531.97
509.67	541.98
510.03	552.25
510.39	562.76
510.75	573.62
511.12	584.51
511.48	595.79
511.84	607.16
512.20	618.68
512.56	630.60
512.92	642.73
513.28	655.14
513.64	667.67
514.00	680.43
514.37	693.33
514.73	706.40
515.09	719.40
515.45	732.66
515.81	746.19
516.17	760.05
516.53	774.21
516.89	788.29
517.25	802.44
517.61	816.91
517.97	831.43
518.33	845.71
518.69	860.52
519.05	875.41
519.41	890.58
519.77	906.11
520.13	921.59
520.49	936.96
520.85	952.20
521.21	967.86
521.57	983.97
521.93	999.77
522.29	1016.08
522.65	1032.36
523.01	1048.51
523.37	1064.58
523.73	1080.75
524.09	1096.81
524.45	1113.09
524.81	1129.76
525.17	1146.34
525.53	1163.16
525.89	1180.10
526.25	1196.82
526.61	1213.21
526.97	1229.96
527.33	1246.39
527.68	1262.91
528.04	1279.31
528.40	1295.89
528.76	1312.85
529.12	1329.41
529.48	1346.25
529.84	1362.20
530.20	1378.74
530.56	1395.67
530.91	1413.01
531.27	1429.69
531.63	1446.07
531.99	1462.64
532.35	1478.47
532.71	1494.34
533.07	1510.50
533.42	1526.38
533.78	1542.38
534.14	1558.65
534.50	1573.95
534.86	1589.81
535.21	1604.91
535.57	1620.73
535.93	1636.20
536.29	1651.03
536.65	1666.06
537.00	1680.73
537.36	1696.05
537.72	1710.50
538.08	1724.92
538.44	1738.56
538.79	1752.38
539.15	1765.98
539.51	1779.62
539.87	1794.04
540.22	1807.84
540.58	1821.50
540.94	1834.60
541.29	1847.47
541.65	1860.11
542.01	1873.18
542.37	1885.36
542.72	1897.68
543.08	1909.51
543.44	1921.80
543.79	1932.89
544.15	1943.82
544.51	1955.41
544.87	1966.16
545.22	1976.95
545.58	1987.03
545.94	1996.81
546.29	2006.70
546.65	2016.51
547.01	2025.79
547.36	2034.34
547.72	2042.79
548.07	2050.65
548.43	2058.77
548.79	2066.69
549.14	2074.08
549.50	2081.28
549.86	2088.91
550.21	2096.15
550.57	2103.20
550.92	2109.70
551.28	2116.65
551.64	2123.74
551.99	2130.19
552.35	2136.47
552.70	2142.61
553.06	2148.70
553.41	2155.04
553.77	2161.07
554.13	2167.13
554.48	2173.28
554.84	2178.91
555.19	2184.07
555.55	2189.22
555.90	2193.80
556.26	2198.73
556.61	2203.58
556.97	2207.95
557.32	2212.16
557.68	2216.33
558.03	2220.68
558.39	2224.39
558.74	2229.18
559.10	2232.99
559.45	2236.58
559.81	2240.84
560.16	2244.71
560.52	2247.91
560.87	2251.29
561.23	2253.81
561.58	2256.72
561.94	2259.15
562.29	2261.42
562.64	2264.21
563.00	2266.72
563.35	2270.30
563.71	2273.44
564.06	2276.60
564.42	2279.47
564.77	2282.04
565.12	2284.35
565.48	2286.29
565.83	2288.27
566.19	2289.60
566.54	2290.55
566.89	2291.76
567.25	2292.43
567.60	2293.69
567.96	2295.36
568.31	2296.34
568.66	2297.66
569.02	2298.26
569.37	2298.56
569.72	2299.49
570.08	2299.61
570.43	2299.74
570.78	2299.12
571.14	2297.56
571.49	2296.26
571.84	2296.09
572.20	2294.95
572.55	2293.92
572.90	2292.20
573.26	2290.72
573.61	2288.96
573.96	2287.30
574.31	2284.33
574.67	2281.25
575.02	2277.57
575.37	2274.32
575.72	2270.43
576.08	2266.87
576.43	2263.50
576.78	2260.02
577.13	2256.68
577.49	2253.63
577.84	2250.26
578.19	2246.52
578.54	2243.04
578.90	2238.80
579.25	2233.24
579.60	2228.32
579.95	2223.34
580.30	2218.49
580.66	2213.46
581.01	2208.56
581.36	2203.58
581.71	2199.48
582.06	2195.16
582.42	2190.90
582.77	2185.64
583.12	2181.27
583.47	2176.82
583.82	2172.07
584.17	2166.85
584.53	2161.43
584.88	2155.75
585.23	2149.92
585.58	2144.34
585.93	2138.84
586.28	2134.04
586.63	2128.94
586.98	2123.90
587.34	2119.29
587.69	2114.45
588.04	2109.18
588.39	2103.62
588.74	2097.16
589.09	2091.00
589.44	2084.24
589.79	2078.17
590.14	2072.56
590.49	2065.89
590.84	2059.41
591.19	2053.30
591.54	2046.78
591.89	2039.56
592.25	2032.98
592.60	2025.79
592.95	2018.41
593.30	2011.02
593.65	2003.57
594.00	1996.47
594.35	1989.16
594.70	1981.00
595.05	1973.69
595.40	1966.39
595.75	1958.75
596.10	1952.61
596.45	1946.03
596.80	1939.85
597.15	1933.25
597.50	1926.05
597.85	1919.53
598.19	1912.91
598.54	1905.72
598.89	1899.09
599.24	1893.13
599.59	1886.33
599.94	1880.12
600.29	1873.78
600.64	1867.22
600.99	1859.66
601.34	1852.99
601.69	1846.06
602.04	1839.32
602.39	1832.07
602.74	1825.37
603.08	1818.75
603.43	1811.95
603.78	1804.48
604.13	1797.29
604.48	1790.04
604.83	1783.22
605.18	1776.37
605.53	1768.41
605.87	1760.55
606.22	1753.25
606.57	1745.33
606.92	1737.98
607.27	1730.87
607.62	1724.00
607.96	1716.95
608.31	1710.42
608.66	1702.89
609.01	1695.34
609.36	1687.71
609.70	1679.75
610.05	1671.84
610.40	1664.08
610.75	1655.81
611.10	1648.08
611.44	1639.64
611.79	1631.56
612.14	1622.96
612.49	1613.85
612.83	1605.43
613.18	1597.29
613.53	1589.26
613.88	1580.77
614.22	1572.50
614.57	1563.88
614.92	1555.76
615.27	1548.08
615.61	1539.73
615.96	1531.54
616.31	1523.89
616.65	1516.56
617.00	1508.91
617.35	1500.96
617.70	1492.60
618.04	1484.12
618.39	1475.90
618.74	1468.28
619.08	1460.02
619.43	1452.45
619.78	1445.49
620.12	1438.28
620.47	1430.74
620.82	1422.57
621.16	1415.13
621.51	1407.62
621.85	1399.97
622.20	1391.54
622.55	1383.17
622.89	1375.35
623.24	1367.65
623.59	1360.26
623.93	1352.84
624.28	1345.63
624.62	1338.22
624.97	1331.06
625.32	1324.29
625.66	1317.33
626.01	1310.27
626.35	1302.85
626.70	1295.04
627.04	1287.35
627.39	1279.58
627.73	1272.14
628.08	1265.29
628.43	1257.97
628.77	1250.50
629.12	1243.01
629.46	1235.88
629.81	1228.34
630.15	1221.08
630.50	1213.79
630.84	1205.58
631.19	1197.58
631.53	1190.10
631.88	1182.57
632.22	1175.01
632.57	1167.66
632.91	1160.14
633.26	1152.70
633.60	1145.28
633.95	1138.16
634.29	1131.04
634.64	1124.39
634.98	1117.14
635.32	1109.91
635.67	1103.35
636.01	1096.76
636.36	1089.85
636.70	1083.28
637.05	1076.82
637.39	1070.36
637.73	1063.86
638.08	1058.05
638.42	1052.05
638.77	1045.66
639.11	1039.08
639.45	1032.67
639.80	1026.05
640.14	1019.61
640.49	1013.07
640.83	1006.78
641.17	1000.60
641.52	994.25
641.86	987.83
642.20	981.83
642.55	975.54
642.89	968.98
643.23	962.44
643.58	956.73
643.92	950.58
644.26	944.53
644.61	938.53
644.95	932.47
645.29	925.86
645.64	919.10
645.98	912.73
646.32	906.83
646.66	900.75
647.01	895.00
647.35	889.26
647.69	883.44
648.04	877.91
648.38	872.15
648.72	866.21
649.06	860.09
649.41	854.24
649.75	848.25
650.09	842.31
650.43	836.51
650.78	830.35
651.12	824.36
651.46	818.63
651.80	812.91
652.14	807.53
652.49	802.12
652.83	796.97
653.17	791.32
653.51	785.69
653.85	780.38
654.20	774.71
654.54	768.80
654.88	763.06
655.22	757.15
655.56	751.41
655.90	745.92
656.25	740.81
656.59	735.43
656.93	730.38
657.27	725.19
657.61	719.77
657.95	714.66
658.29	709.56
658.64	704.26
658.98	698.93
659.32	693.49
659.66	688.32
660.00	683.00
660.34	677.99
660.68	672.99
661.02	667.95
661.36	663.20
661.70	658.67
662.05	654.25
662.39	649.97
662.73	645.59
663.07	641.23
663.41	636.69
663.75	632.23
664.09	627.67
664.43	623.34
664.77	619.21
665.11	614.98
665.45	610.81
665.79	606.74
666.13	602.61
666.47	598.46
666.81	594.26
667.15	590.19
667.49	586.29
667.83	582.51
668.17	578.52
668.51	574.46
668.85	570.39
669.19	566.59
669.53	562.71
669.87	558.81
670.21	555.07
670.55	551.46
670.89	548.03
671.23	544.62
671.57	541.10
671.91	537.55
672.25	534.00
672.58	530.52
672.92	527.17
673.26	523.99
673.60	520.85
673.94	517.80
674.28	514.80
674.62	511.82
674.96	508.64
675.30	505.71
675.64	502.79
675.97	500.08
676.31	497.20
676.65	494.24
676.99	491.54
677.33	488.65
677.67	485.85
678.01	482.85
678.34	479.83
678.68	476.98
679.02	474.14
679.36	471.43
679.70	468.74
680.04	465.94
680.37	463.07
680.71	460.27
681.05	457.62
681.39	454.94
681.73	452.27
682.06	449.80
682.40	447.34
682.74	444.82
683.08	442.25
683.42	439.68
683.75	437.21
684.09	434.64
684.43	432.20
684.77	429.68
685.10	427.31
685.44	425.01
685.78	422.72
686.12	420.50
686.45	418.17
686.79	415.85
687.13	413.67
687.46	411.52
687.80	409.40
688.14	407.22
688.48	405.23
688.81	403.02
689.15	400.88
689.49	398.71
689.82	396.61
690.16	394.52
690.50	392.55
690.83	390.58
691.17	388.62
691.51	386.76
691.84	384.96
692.18	383.01
692.52	381.08
692.85	379.13
693.19	377.25
693.52	375.48
693.86	373.68
694.20	371.89
694.53	370.04
694.87	368.18
695.21	366.33
695.54	364.46
695.88	362.76
696.21	361.06
696.55	359.37
696.88	357.69
697.22	356.03
697.56	354.40
697.89	352.72
698.23	351.10
698.56	349.43
698.90	347.86
699.23	346.23
699.57	344.66
699.90	343.13
700.24	341.55
700.58	339.99
700.91	338.50
701.25	337.06
701.58	335.74
701.92	334.42
702.25	333.07
702.59	331.70
702.92	330.39
703.26	329.04
703.59	327.77
703.93	326.58
704.26	325.33
704.60	324.02
704.93	322.78
705.26	321.56
705.60	320.40
705.93	319.21
706.27	318.17
706.60	317.12
706.94	316.01
707.27	314.88
707.61	313.84
707.94	312.77
708.27	311.66
708.61	310.57
708.94	309.52
709.28	308.54
709.61	307.56
709.94	306.58
710.28	305.55
710.61	304.59
710.95	303.50
711.28	302.58
711.61	301.66
711.95	300.72
712.28	299.75
712.61	298.77
712.95	297.82
713.28	296.93
713.61	296.05
713.95	295.20
714.28	294.38
714.61	293.48
714.95	292.66
715.28	291.82
715.61	290.96
715.95	290.08
716.28	289.19
716.61	288.38
716.95	287.54
717.28	286.78
717.61	286.02
717.94	285.29
718.28	284.48
718.61	283.75
718.94	283.08
719.27	282.43
719.61	281.76
719.94	281.14
720.27	280.43
720.60	279.77
720.94	279.13
721.27	278.50
721.60	277.92
721.93	277.33
722.27	276.75
722.60	276.19
722.93	275.66
723.26	275.17
723.59	274.62
723.93	274.10
724.26	273.59
724.59	272.99
724.92	272.47
725.25	272.04
725.59	271.51
725.92	270.98
726.25	270.45
726.58	269.97
726.91	269.47
727.24	268.99
727.57	268.53
727.91	268.04
728.24	267.61
728.57	267.11
728.90	266.66
729.23	266.18
729.56	265.72
729.89	265.25
730.22	264.79
730.55	264.32
730.89	263.87
731.22	263.42
731.55	263.04
731.88	262.61
732.21	262.15
732.54	261.75
732.87	261.33
733.20	260.95
733.53	260.56
733.86	260.18
734.19	259.79
734.52	259.40
734.85	259.06
735.18	258.63
735.51	258.31
735.84	257.93
736.17	257.58
736.50	257.18
736.83	256.93
737.16	256.58
737.49	256.24
737.82	255.90
738.15	255.57
738.48	255.17
738.81	254.85
739.14	254.51
739.47	254.17
739.80	253.88
740.13	253.57
740.46	253.24
740.79	252.89
741.12	252.59
741.45	252.30
741.78	251.98
742.11	251.74
742.44	251.37
742.77	251.08
743.10	250.76
743.43	250.48
743.75	250.10
744.08	249.95
744.41	249.67
744.74	249.40
745.07	249.10
745.40	248.88
745.73	248.63
746.06	248.35
746.39	248.08
746.71	247.80
747.04	247.54
747.37	247.29
747.70	247.05
748.03	246.78
748.36	246.53
748.68	246.27
749.01	245.99
749.34	245.83
749.67	245.61
750.00	245.40
750.33	245.24
750.65	245.03
750.98	244.67
751.31	244.50
751.64	244.27
751.97	244.10
752.29	243.89
752.62	243.66
752.95	243.45
753.28	243.26
753.60	243.06
753.93	242.87
754.26	242.69
754.59	242.49
754.91	242.26
755.24	242.02
755.57	241.84
755.90	241.65
756.22	241.40
756.55	241.17
756.88	241.00
757.20	240.76
757.53	240.58
757.86	240.40
758.19	240.21
758.51	240.06
758.84	239.84
759.17	239.66
759.49	239.52
759.82	239.43
760.15	239.28
760.47	239.14
760.80	239.00
761.13	238.83
761.45	238.69
761.78	238.56
762.11	238.47
762.43	238.32
762.76	238.16
763.08	238.09
763.41	238.01
763.74	237.85
764.06	237.73
764.39	237.59
764.71	237.48
765.04	237.36
765.37	237.20
765.69	237.13
766.02	236.98
766.34	236.83
766.67	236.66
767.00	236.56
767.32	236.47
767.65	236.42
767.97	236.32
768.30	236.22
768.62	236.12
768.95	235.99
769.27	235.90
769.60	235.83
769.92	235.68
770.25	235.51
770.57	235.43
770.90	235.32
771.22	235.23
771.55	235.13
771.87	235.00
772.20	234.92
772.52	234.89
772.85	234.92
773.17	234.85
773.50	234.76
773.82	234.64
774.15	234.53
774.47	234.35
774.80	234.26
775.12	234.13
775.45	234.04
775.77	233.96
776.09	233.85
776.42	233.79
776.74	233.73
777.07	233.66
777.39	233.56
777.72	233.50
778.04	233.42
778.36	233.31
778.69	233.26
779.01	233.20
779.33	233.03
779.66	232.87
779.98	232.76
780.31	232.68
780.63	232.65
780.95	232.59
781.28	232.54
781.60	232.46
781.92	232.40
782.25	232.29
782.57	232.21
782.89	232.12
783.22	232.02
783.54	231.93
783.86	231.90
784.19	231.84
784.51	231.77
784.83	231.70
785.16	231.65
785.48	231.57
785.80	231.50
786.12	231.41
786.45	231.33
786.77	231.30
787.09	231.28
787.42	231.21
787.74	231.13
788.06	231.07
788.38	231.03
788.71	230.99
789.03	231.01
789.35	231.00
789.67	230.96
789.99	230.94
790.32	230.90
790.64	230.87
790.96	230.89
791.28	230.87
791.61	230.82
791.93	230.79
792.25	230.74
792.57	230.78
792.89	230.78
793.21	230.74
793.54	230.70
793.86	230.64
794.18	230.60
794.50	230.57
794.82	230.53
795.14	230.48
795.47	230.47
795.79	230.42
796.11	230.38
796.43	230.36
796.75	230.34
797.07	230.32
797.39	230.25
797.71	230.19
798.04	230.16
798.36	230.16
798.68	230.15
799.00	230.17
799.32	230.13
799.64	230.08
799.96	230.04
800.28	230.06
800.60	230.02
800.92	230.01
801.24	229.98
801.56	229.97
801.89	229.97
802.21	229.94
802.53	229.89
802.85	229.87
803.17	229.91
803.49	229.87
803.81	229.84
804.13	229.87
804.45	229.80
804.77	229.77
805.09	229.72
805.41	229.69
805.73	229.67
806.05	229.57
806.37	229.55
806.69	229.52
807.01	229.42
807.33	229.39
807.65	229.33
807.97	229.35
808.28	229.29
808.60	229.24
808.92	229.19
809.24	229.24
809.56	229.21
809.88	229.12
810.20	229.06
810.52	229.03
810.84	228.95
811.16	228.93
811.48	228.88
811.80	228.87
812.12	228.82
812.43	228.75
812.75	228.74
813.07	228.70
813.39	228.68
813.71	228.69
814.03	228.67
814.35	228.66
814.67	228.60
814.98	228.57
815.30	228.55
815.62	228.54
815.94	228.40
816.26	228.39
816.58	228.35
816.89	228.35
817.21	228.31
817.53	228.29
817.85	228.25
818.17	228.24
818.48	228.20
818.80	228.18
819.12	228.15
819.44	228.12
819.76	228.09
820.07	228.09
820.39	228.05
820.71	228.03
821.03	227.99
821.34	227.96
821.66	227.96
821.98	227.95
822.30	227.90
822.61	227.99
822.93	227.91
823.25	227.87
823.57	227.84
823.88	227.83
824.20	227.80
824.52	227.81
824.83	227.77
825.15	227.74
825.47	227.72
825.79	227.73
826.10	227.69
826.42	227.69
826.74	227.70
827.05	227.69
827.37	227.71
827.69	227.71
828.00	227.71
828.32	227.68
828.64	227.65
828.95	227.70
829.27	227.66
829.58	227.64
829.90	227.69
830.22	227.69
830.53	227.68
830.85	227.66
831.17	227.65
831.48	227.67
831.80	227.67
832.11	227.70
832.43	227.67
832.75	227.69
833.06	227.74
833.38	227.71
833.69	227.72
834.01	227.69
834.32	227.70
834.64	227.71
834.96	227.74
835.27	227.77
835.59	227.73
835.90	227.71
836.22	227.73
836.53	227.73
836.85	227.74
837.16	227.84
837.48	227.86
837.79	227.86
838.11	227.86
838.42	227.91
838.74	227.91
839.05	227.94
839.37	227.93
839.68	227.86
840.00	227.85
840.31	227.89
840.63	227.88
840.94	227.84
841.26	227.83
841.57	227.82
841.88	227.79
842.20	227.78
842.51	227.78
842.83	227.78
843.14	227.85
843.46	227.85
843.77	227.78
844.08	227.80
844.40	227.78
844.71	227.76
845.03	227.72
845.34	227.69
845.65	227.66
845.97	227.66
846.28	227.69
846.60	227.68
846.91	227.63
847.22	227.64
847.54	227.68
847.85	227.65
848.16	227.61
848.48	227.59
848.79	227.62
849.10	227.61
849.42	227.63
849.73	227.52
850.04	227.49
850.36	227.44
850.67	227.40
850.98	227.40
851.30	227.39
851.61	227.34
851.92	227.32
852.23	227.36
852.55	227.36
852.86	227.32
853.17	227.32
853.49	227.31
853.80	227.32
854.11	227.29
854.42	227.32
854.74	227.30
855.05	227.30
855.36	227.26
855.67	227.22
855.99	227.16
856.30	227.29
856.61	227.25
856.92	227.25
857.23	227.22
857.55	227.19
857.86	227.18
858.17	227.21
858.48	227.18
858.79	227.11
859.11	227.12
859.42	227.11
859.73	227.05
860.04	227.05
860.35	227.01
860.66	226.96
860.98	226.94
861.29	226.97
861.60	226.94
861.91	226.94
862.22	226.94
862.53	226.94
862.84	226.78
863.16	226.86
863.47	226.83
863.78	226.86
864.09	226.85
864.40	226.84
864.71	226.83
865.02	226.85
865.33	226.85
865.64	226.81
865.95	226.81
866.27	226.90
866.58	226.91
866.89	226.89
867.20	226.89
867.51	226.87
867.82	226.84
868.13	226.88
868.44	226.89
868.75	226.90
869.06	226.91
869.37	226.92
869.68	226.87
869.99	226.91
870.30	226.90
870.61	226.89
870.92	226.91
871.23	226.91
871.54	226.92
871.85	226.95
872.16	226.98
872.47	227.00
872.78	226.93
873.09	226.94
873.40	226.95
873.71	226.97
874.02	227.02
874.33	227.05
874.64	227.03
874.95	227.05
875.26	227.05
875.56	227.05
875.87	227.08
876.18	227.10
876.49	227.20
876.80	227.19
877.11	227.19
877.42	227.21
877.73	227.22
878.04	227.20
878.35	227.24
878.66	227.28
878.96	227.28
879.27	227.30
879.58	227.29
879.89	227.26
880.20	227.30
880.51	227.29
880.82	227.27
881.12	227.26
881.43	227.24
881.74	227.28
882.05	227.28
882.36	227.32
882.67	227.30
882.97	227.17
883.28	227.19
883.59	227.20
883.90	227.19
884.21	227.18
884.51	227.20
884.82	227.15
885.13	227.11
885.44	227.10
885.74	227.07
886.05	227.06
886.36	227.07
886.67	227.03
886.98	227.06
887.28	227.08
887.59	227.07
887.90	227.08
888.20	227.05
888.51	227.04
888.82	226.97
889.13	226.96
889.43	227.05
889.74	227.03
890.05	227.05
890.35	227.03
890.66	227.02
890.97	226.97
891.28	227.00
891.58	227.00
891.89	226.98
892.20	226.95
892.50	226.93
892.81	226.93
893.12	226.92
893.42	226.86
893.73	226.85
894.04	226.83
894.34	226.78
894.65	226.75
894.95	226.74
895.26	226.74
895.57	226.78
895.87	226.69
896.18	226.67
896.48	226.64
896.79	226.64
897.10	226.64
897.40	226.64
897.71	226.62
898.01	226.60
898.32	226.60
898.63	226.59
898.93	226.59
899.24	226.59
899.54	226.59
899.85	226.61
900.15	226.58
900.46	226.58
900.76	226.60
901.07	226.61
901.38	226.61
901.68	226.60
901.99	226.56
902.29	226.54
902.60	226.54
902.90	226.54
903.21	226.48
903.51	226.47
903.82	226.52
904.12	226.51
904.43	226.50
904.73	226.50
905.03	226.53
905.34	226.62
905.64	226.60
905.95	226.59
906.25	226.57
906.56	226.57
906.86	226.59
907.17	226.55
907.47	226.54
907.77	226.52
908.08	226.54
908.38	226.53
908.69	226.59
908.99	226.57
909.30	226.61
909.60	226.66
909.90	226.68
910.21	226.64
910.51	226.67
910.81	226.67
911.12	226.70
911.42	226.68
911.73	226.62
912.03	226.65
912.33	226.67
912.64	226.67
912.94	226.66
913.24	226.64
913.55	226.69
913.85	226.68
914.15	226.68
914.46	226.69
914.76	226.73
915.06	226.68
915.37	226.72
915.67	226.68
915.97	226.71
916.27	226.69
916.58	226.70
916.88	226.69
917.18	226.71
917.49	226.76
917.79	226.78
918.09	226.81
918.39	226.83
918.70	226.82
919.00	226.83
919.30	226.88
919.60	226.88
919.91	226.86
920.21	226.89
920.51	226.90
920.81	226.89
921.12	226.86
921.42	226.88
921.72	226.86
922.02	226.87
922.32	226.86
922.63	226.85
922.93	226.90
923.23	226.89
923.53	226.86
923.83	226.79
924.13	226.81
924.44	226.81
924.74	226.82
925.04	226.86
925.34	226.86
925.64	226.81
925.94	226.84
926.24	226.87
926.55	226.84
926.85	226.87
927.15	226.87
927.45	226.89
927.75	226.88
928.05	226.90
928.35	226.89
928.65	226.92
928.95	226.92
929.26	226.87
929.56	226.87
929.86	226.87
930.16	226.86
930.46	226.82
930.76	226.79
931.06	226.71
931.36	226.64
931.66	226.63
931.96	226.67
932.26	226.62
932.56	226.56
932.86	226.54
933.16	226.53
933.46	226.52
933.76	226.47
934.06	226.47
934.36	226.46
934.66	226.44
934.96	226.38
935.26	226.39
935.56	226.40
935.86	226.36
936.16	226.31
936.46	226.30
936.76	226.30
937.06	226.28
937.36	226.28
937.66	226.28
937.96	226.27
938.26	226.19
938.56	226.17
938.86	226.20
939.16	226.21
939.46	226.17
939.76	226.18
940.06	226.18
940.35	226.16
940.65	226.12
940.95	226.13
941.25	226.15
941.55	226.14
941.85	226.13
942.15	226.15
942.45	226.22
942.75	226.22
943.04	226.20
943.34	226.19
943.64	226.19
943.94	226.20
944.24	226.20
944.54	226.23
944.84	226.22
945.13	226.21
945.43	226.21
945.73	226.23
946.03	226.22
946.33	226.21
946.62	226.22
946.92	226.22
947.22	226.24
947.52	226.26
947.82	226.27
948.11	226.28
948.41	226.25
948.71	226.25
949.01	226.28
949.31	226.30
949.60	226.33
949.90	226.36
950.20	226.35
950.50	226.37
950.79	226.40
951.09	226.45
951.39	226.47
951.69	226.47
951.98	226.53
952.28	226.54
952.58	226.55
952.87	226.54
953.17	226.57
953.47	226.56
953.76	226.57
954.06	226.52
954.36	226.51
954.66	226.54
954.95	226.53
955.25	226.53
955.55	226.52
955.84	226.52
956.14	226.53
956.44	226.56
956.73	226.55
957.03	226.56
957.32	226.55
957.62	226.54
957.92	226.57
958.21	226.51
958.51	226.62
958.81	226.68
959.10	226.71
959.40	226.74
959.69	226.74
959.99	226.74
960.29	226.78
960.58	226.79
960.88	226.81
961.17	226.80
961.47	226.83
961.76	226.85
962.06	226.86
962.36	226.86
962.65	226.86
962.95	226.86
963.24	226.85
963.54	226.84
963.83	226.83
964.13	226.78
964.42	226.78
964.72	226.72
965.01	226.69
965.31	226.67
965.60	226.62
965.90	226.73
966.19	226.69
966.49	226.70
966.78	226.68
967.08	226.69
967.37	226.70
967.67	226.69
967.96	226.70
968.26	226.72
968.55	226.72
968.85	226.70
969.14	226.69
969.43	226.67
969.73	226.66
970.02	226.67
970.32	226.69
970.61	226.68
970.91	226.64
971.20	226.60
971.49	226.59
971.79	226.59
972.08	226.48
972.38	226.50
972.67	226.47
972.96	226.50
973.26	226.47
973.55	226.46
973.85	226.40
974.14	226.34
974.43	226.33
974.73	226.30
975.02	226.30
975.31	226.32
975.61	226.31
975.90	226.32
976.19	226.29
976.49	226.31
976.78	226.33
977.07	226.32
977.37	226.33
977.66	226.34
977.95	226.34
978.24	226.35
978.54	226.37
978.83	226.35
979.12	226.34
979.42	226.33
979.71	226.35
980.00	226.37
980.29	226.40
980.59	226.39
980.88	226.42
981.17	226.44
981.46	226.43
981.76	226.46
982.05	226.49
982.34	226.54
982.63	226.53
982.93	226.55
983.22	226.59
983.51	226.62
983.80	226.63
984.09	226.66
984.39	226.65
984.68	226.64
984.97	226.65
985.26	226.66
985.55	226.68
985.85	226.63
986.14	226.65
986.43	226.66
986.72	226.65
987.01	226.62
987.30	226.59
987.59	226.60
987.89	226.58
988.18	226.54
988.47	226.48
988.76	226.48
989.05	226.47
989.34	226.44
989.63	226.47
989.92	226.46
990.22	226.43
990.51	226.44
990.80	226.43
991.09	226.46
991.38	226.44
991.67	226.47
991.96	226.48
992.25	226.48
992.54	226.49
992.83	226.48
993.12	226.47
993.41	226.52
993.70	226.55
993.99	226.58
994.28	226.61
994.58	226.66
994.87	226.63
995.16	226.63
995.45	226.62
995.74	226.55
996.03	226.57
996.32	226.58
996.61	226.61
996.90	226.63
997.19	226.61
997.48	226.63
997.77	226.56
998.06	226.56
998.34	226.53
998.63	226.51
998.92	226.54
999.21	226.57
999.50	226.55
999.79	226.49
1000.08	226.48
1000.37	226.48
1000.66	226.43
1000.95	226.46
1001.24	226.47
1001.53	226.47
1001.82	226.46
1002.11	226.42
1002.40	226.45
1002.68	226.43
1002.97	226.48
1003.26	226.47
1003.55	226.43
1003.84	226.45
1004.13	226.51
1004.42	226.54
1004.71	226.54
1004.99	226.53
1005.28	226.57
1005.57	226.55
1005.86	226.56
1006.15	226.57
1006.44	226.54
1006.72	226.57
1007.01	226.54
1007.30	226.51
1007.59	226.53
1007.88	226.56
1008.17	226.57
1008.45	226.54
1008.74	226.52
1009.03	226.48
1009.32	226.46
1009.60	226.48
1009.89	226.48
1010.18	226.41
1010.47	226.37
1010.76	226.37
1011.04	226.38
1011.33	226.36
1011.62	226.36
1011.91	226.39
1012.19	226.41
1012.48	226.43
1012.77	226.42
1013.05	226.48
1013.34	226.50
1013.63	226.49
1013.92	226.51
1014.20	226.50
1014.49	226.50
1014.78	226.50
1015.06	226.50
1015.35	226.52
1015.64	226.52
1015.92	226.55
1016.21	226.55
1016.50	226.59
1016.78	226.63
1017.07	226.65
1017.36	226.62
1017.64	226.61
1017.93	226.61
1018.22	226.60
1018.50	226.64
1018.79	226.65
1019.08	226.61
1019.36	226.64
1019.65	226.62
1019.93	226.64
1020.22	226.66
1020.51	226.72
1020.79	226.72
1021.08	226.88
1021.36	227.10
1021.65	226.45
1021.94	226.45
1022.22	227.11
1022.51	226.09
1022.79	227.35
1023.08	226.78
1023.36	227.61
1023.65	226.29
>>>>>End Processed Spectral Data<<<<<
