SpectraSuite Data File
++++++++++++++++++++++++++++++++++++
Date: Fri Feb 01 16:21:10 EST 2013
User: group
Dark Spectrum Present: No
Reference Spectrum Present: No
Number of Sampled Component Spectra: 1
Spectrometers: USB2E7196
Integration Time (usec): 35000 (USB2E7196)
Spectra Averaged: 100 (USB2E7196)
Boxcar Smoothing: 10 (USB2E7196)
Correct for Electrical Dark: No (USB2E7196)
Strobe/Lamp Enabled: No (USB2E7196)
Correct for Detector Non-linearity: No (USB2E7196)
Correct for Stray Light: No (USB2E7196)
Number of Pixels in Processed Spectrum: 2048
>>>>>Begin Processed Spectral Data<<<<<
339.09	0.00
339.48	214.07
339.86	215.26
340.24	216.48
340.63	217.96
341.01	220.91
341.39	220.72
341.78	221.77
342.16	223.56
342.54	224.11
342.93	212.22
343.31	222.94
343.69	223.47
344.07	223.96
344.46	224.39
344.84	224.77
345.22	225.00
345.60	225.26
345.99	225.47
346.37	225.55
346.75	225.63
347.13	225.72
347.52	225.80
347.90	225.88
348.28	225.91
348.66	225.96
349.05	225.96
349.43	226.00
349.81	226.05
350.19	226.06
350.57	226.16
350.96	226.23
351.34	226.30
351.72	226.39
352.10	226.47
352.48	226.54
352.87	226.60
353.25	226.67
353.63	226.71
354.01	226.76
354.39	226.89
354.77	226.98
355.15	227.08
355.54	227.12
355.92	227.16
356.30	227.25
356.68	227.40
357.06	227.48
357.44	227.52
357.82	227.53
358.20	227.63
358.58	227.65
358.97	227.69
359.35	227.79
359.73	227.87
360.11	227.89
360.49	227.95
360.87	227.99
361.25	228.06
361.63	228.15
362.01	228.20
362.39	228.21
362.77	228.27
363.15	228.32
363.53	228.37
363.91	228.40
364.29	228.43
364.67	228.35
365.05	228.36
365.43	228.37
365.81	228.42
366.19	228.43
366.57	228.50
366.95	228.50
367.33	228.48
367.71	228.45
368.09	228.50
368.47	228.48
368.85	228.45
369.23	228.49
369.61	228.42
369.99	228.45
370.37	228.44
370.75	228.43
371.13	228.34
371.51	228.28
371.89	228.25
372.27	228.21
372.65	228.19
373.03	228.14
373.41	228.11
373.78	228.08
374.16	228.03
374.54	227.94
374.92	227.87
375.30	227.82
375.68	227.73
376.06	227.65
376.44	227.58
376.82	227.55
377.19	227.42
377.57	227.36
377.95	227.27
378.33	227.19
378.71	227.07
379.09	227.03
379.47	226.98
379.84	226.89
380.22	226.79
380.60	226.70
380.98	226.61
381.36	226.52
381.73	226.44
382.11	226.36
382.49	226.29
382.87	226.22
383.25	226.15
383.62	226.22
384.00	226.16
384.38	226.10
384.76	226.07
385.13	226.09
385.51	226.04
385.89	225.97
386.27	225.90
386.64	225.85
387.02	225.78
387.40	225.73
387.78	225.67
388.15	225.65
388.53	225.62
388.91	225.60
389.29	225.58
389.66	225.54
390.04	225.50
390.42	225.51
390.79	225.53
391.17	225.51
391.55	225.40
391.92	225.40
392.30	225.43
392.68	225.39
393.05	225.36
393.43	225.35
393.81	225.36
394.18	225.38
394.56	225.38
394.94	225.44
395.31	225.48
395.69	225.57
396.06	225.61
396.44	225.63
396.82	225.68
397.19	225.77
397.57	225.81
397.95	225.91
398.32	225.90
398.70	225.98
399.07	226.05
399.45	226.11
399.82	226.15
400.20	226.18
400.58	226.25
400.95	226.31
401.33	226.44
401.70	226.61
402.08	226.70
402.45	226.81
402.83	226.94
403.20	227.00
403.58	227.10
403.95	227.23
404.33	227.39
404.71	227.50
405.08	227.70
405.46	227.86
405.83	227.99
406.21	228.17
406.58	228.30
406.96	228.46
407.33	228.66
407.70	228.87
408.08	229.15
408.45	229.39
408.83	229.62
409.20	229.83
409.58	230.00
409.95	230.29
410.33	230.58
410.70	230.84
411.08	231.17
411.45	231.48
411.82	231.79
412.20	232.13
412.57	232.55
412.95	232.82
413.32	233.22
413.69	233.64
414.07	234.05
414.44	234.52
414.82	234.98
415.19	235.55
415.56	236.10
415.94	236.65
416.31	237.30
416.68	237.92
417.06	238.61
417.43	239.29
417.81	240.02
418.18	240.78
418.55	241.58
418.93	242.43
419.30	243.30
419.67	244.25
420.04	245.20
420.42	246.19
420.79	247.34
421.16	248.48
421.54	249.67
421.91	250.89
422.28	252.11
422.66	253.46
423.03	254.72
423.40	256.05
423.77	257.45
424.15	258.83
424.52	260.31
424.89	261.92
425.26	263.42
425.64	264.89
426.01	266.46
426.38	268.12
426.75	269.76
427.13	271.46
427.50	273.21
427.87	275.08
428.24	276.89
428.61	278.66
428.99	280.60
429.36	282.66
429.73	284.72
430.10	286.75
430.47	288.76
430.85	290.86
431.22	293.08
431.59	295.44
431.96	297.68
432.33	300.14
432.70	302.52
433.08	305.35
433.45	307.97
433.82	310.57
434.19	313.42
434.56	316.22
434.93	318.86
435.30	321.47
435.68	324.36
436.05	327.23
436.42	330.01
436.79	332.51
437.16	335.22
437.53	338.06
437.90	340.83
438.27	343.55
438.64	346.38
439.01	349.01
439.38	351.26
439.75	353.44
440.13	355.92
440.50	358.23
440.87	360.10
441.24	362.04
441.61	364.19
441.98	365.71
442.35	367.53
442.72	369.40
443.09	371.24
443.46	372.25
443.83	372.81
444.20	373.34
444.57	374.19
444.94	374.48
445.31	374.80
445.68	375.21
446.05	375.35
446.42	374.99
446.79	374.54
447.16	374.06
447.53	373.72
447.90	372.58
448.27	371.43
448.64	369.83
449.01	368.69
449.37	366.74
449.74	364.86
450.11	362.63
450.48	360.17
450.85	357.62
451.22	355.44
451.59	353.43
451.96	351.51
452.33	348.87
452.70	346.54
453.07	343.71
453.43	340.80
453.80	338.01
454.17	335.32
454.54	332.80
454.91	330.11
455.28	327.45
455.65	324.96
456.02	322.51
456.38	320.36
456.75	317.68
457.12	315.45
457.49	313.21
457.86	311.07
458.23	309.22
458.59	307.24
458.96	305.17
459.33	303.35
459.70	301.44
460.07	299.96
460.43	298.24
460.80	296.65
461.17	295.23
461.54	293.77
461.91	292.35
462.27	290.89
462.64	289.63
463.01	288.30
463.38	287.06
463.74	285.72
464.11	284.60
464.48	283.63
464.85	282.53
465.21	281.66
465.58	280.67
465.95	279.58
466.32	278.64
466.68	277.74
467.05	276.83
467.42	275.94
467.78	275.03
468.15	274.10
468.52	273.43
468.88	272.58
469.25	271.79
469.62	271.18
469.98	270.52
470.35	269.89
470.72	269.26
471.08	268.57
471.45	268.07
471.82	267.51
472.18	266.94
472.55	266.51
472.92	266.02
473.28	265.61
473.65	265.19
474.02	264.74
474.38	264.38
474.75	264.04
475.11	263.72
475.48	263.46
475.85	263.25
476.21	263.01
476.58	262.84
476.94	262.69
477.31	262.51
477.67	262.37
478.04	262.26
478.41	262.19
478.77	262.24
479.14	262.13
479.50	262.12
479.87	262.15
480.23	262.23
480.60	262.32
480.96	262.41
481.33	262.62
481.69	262.87
482.06	263.09
482.42	263.29
482.79	263.58
483.15	263.92
483.52	264.30
483.88	264.65
484.25	265.04
484.61	265.50
484.98	265.97
485.34	266.52
485.71	267.12
486.07	267.76
486.44	268.33
486.80	269.04
487.17	269.80
487.53	270.63
487.90	271.44
488.26	272.35
488.62	273.35
488.99	274.31
489.35	275.36
489.72	276.44
490.08	277.65
490.44	278.89
490.81	280.22
491.17	281.61
491.54	283.13
491.90	284.67
492.26	286.28
492.63	288.04
492.99	289.82
493.36	291.73
493.72	293.83
494.08	295.95
494.45	298.16
494.81	300.49
495.17	302.98
495.54	305.60
495.90	308.32
496.26	311.12
496.63	314.11
496.99	317.24
497.35	320.58
497.72	324.02
498.08	327.51
498.44	331.20
498.80	335.10
499.17	339.14
499.53	343.27
499.89	347.68
500.26	352.16
500.62	356.84
500.98	361.80
501.34	366.88
501.71	372.21
502.07	377.72
502.43	383.39
502.79	389.23
503.16	395.28
503.52	401.54
503.88	407.95
504.24	414.61
504.60	421.51
504.97	428.62
505.33	435.98
505.69	443.70
506.05	451.47
506.41	459.34
506.78	467.43
507.14	475.95
507.50	484.74
507.86	493.77
508.22	503.05
508.59	512.26
508.95	521.84
509.31	531.66
509.67	541.73
510.03	552.06
510.39	562.56
510.75	573.40
511.12	584.37
511.48	595.69
511.84	607.17
512.20	618.63
512.56	630.57
512.92	642.75
513.28	655.11
513.64	667.57
514.00	680.26
514.37	693.33
514.73	706.40
515.09	719.39
515.45	732.68
515.81	746.16
516.17	760.17
516.53	774.28
516.89	788.41
517.25	802.61
517.61	817.04
517.97	831.49
518.33	845.84
518.69	860.61
519.05	875.53
519.41	890.64
519.77	906.12
520.13	921.52
520.49	936.86
520.85	952.24
521.21	967.90
521.57	984.12
521.93	999.76
522.29	1016.07
522.65	1032.17
523.01	1048.33
523.37	1064.35
523.73	1080.45
524.09	1096.45
524.45	1112.79
524.81	1129.31
525.17	1146.04
525.53	1162.90
525.89	1179.80
526.25	1196.50
526.61	1212.81
526.97	1229.54
527.33	1246.04
527.68	1262.53
528.04	1278.88
528.40	1295.44
528.76	1312.43
529.12	1329.02
529.48	1345.83
529.84	1361.77
530.20	1378.34
530.56	1395.29
530.91	1412.62
531.27	1429.27
531.63	1445.70
531.99	1462.05
532.35	1478.04
532.71	1493.79
533.07	1509.97
533.42	1525.64
533.78	1541.66
534.14	1558.02
534.50	1573.20
534.86	1588.94
535.21	1604.18
535.57	1620.04
535.93	1635.46
536.29	1650.21
536.65	1665.08
537.00	1679.82
537.36	1695.09
537.72	1709.53
538.08	1724.01
538.44	1737.71
538.79	1751.50
539.15	1765.10
539.51	1778.79
539.87	1792.99
540.22	1806.73
540.58	1820.42
540.94	1833.74
541.29	1846.54
541.65	1858.99
542.01	1872.23
542.37	1884.55
542.72	1896.93
543.08	1908.63
543.44	1920.93
543.79	1932.13
544.15	1943.04
544.51	1954.58
544.87	1965.47
545.22	1976.31
545.58	1986.27
545.94	1995.98
546.29	2005.83
546.65	2015.71
547.01	2025.06
547.36	2033.65
547.72	2042.18
548.07	2049.98
548.43	2058.24
548.79	2066.29
549.14	2073.90
549.50	2081.03
549.86	2088.54
550.21	2095.70
550.57	2102.94
550.92	2109.43
551.28	2116.47
551.64	2123.58
551.99	2130.02
552.35	2136.12
552.70	2142.23
553.06	2148.38
553.41	2154.72
553.77	2160.69
554.13	2166.74
554.48	2172.78
554.84	2178.35
555.19	2183.45
555.55	2188.49
555.90	2192.74
556.26	2197.64
556.61	2202.35
556.97	2206.73
557.32	2210.98
557.68	2215.23
558.03	2219.52
558.39	2223.26
558.74	2227.81
559.10	2231.69
559.45	2235.47
559.81	2239.64
560.16	2243.56
560.52	2246.70
560.87	2250.10
561.23	2252.87
561.58	2255.73
561.94	2258.29
562.29	2260.56
562.64	2263.30
563.00	2265.91
563.35	2269.49
563.71	2272.52
564.06	2275.68
564.42	2278.56
564.77	2281.02
565.12	2283.34
565.48	2285.15
565.83	2287.15
566.19	2288.52
566.54	2289.37
566.89	2290.39
567.25	2291.05
567.60	2292.37
567.96	2294.02
568.31	2294.88
568.66	2295.93
569.02	2296.57
569.37	2296.86
569.72	2297.82
570.08	2297.92
570.43	2298.05
570.78	2297.55
571.14	2296.02
571.49	2294.71
571.84	2294.44
572.20	2293.44
572.55	2292.42
572.90	2290.93
573.26	2289.45
573.61	2287.80
573.96	2286.07
574.31	2283.11
574.67	2280.36
575.02	2276.76
575.37	2273.40
575.72	2269.63
576.08	2266.32
576.43	2263.01
576.78	2259.45
577.13	2256.44
577.49	2253.39
577.84	2249.96
578.19	2246.45
578.54	2242.89
578.90	2238.74
579.25	2233.14
579.60	2228.11
579.95	2223.01
580.30	2218.03
580.66	2212.98
581.01	2208.16
581.36	2203.50
581.71	2199.49
582.06	2195.06
582.42	2190.72
582.77	2185.61
583.12	2181.17
583.47	2176.55
583.82	2171.57
584.17	2166.40
584.53	2160.97
584.88	2155.50
585.23	2149.80
585.58	2144.23
585.93	2138.86
586.28	2134.09
586.63	2129.21
586.98	2124.22
587.34	2119.63
587.69	2114.83
588.04	2109.52
588.39	2103.98
588.74	2097.47
589.09	2091.31
589.44	2084.62
589.79	2078.59
590.14	2073.04
590.49	2066.39
590.84	2060.07
591.19	2054.08
591.54	2047.70
591.89	2040.25
592.25	2033.39
592.60	2026.17
592.95	2018.63
593.30	2011.28
593.65	2003.87
594.00	1996.91
594.35	1989.72
594.70	1981.69
595.05	1974.63
595.40	1967.44
595.75	1959.86
596.10	1953.72
596.45	1947.07
596.80	1940.82
597.15	1934.17
597.50	1927.10
597.85	1920.85
598.19	1914.24
598.54	1907.23
598.89	1900.62
599.24	1894.80
599.59	1888.17
599.94	1882.02
600.29	1875.81
600.64	1869.36
600.99	1861.83
601.34	1854.99
601.69	1848.07
602.04	1841.32
602.39	1833.94
602.74	1827.15
603.08	1820.26
603.43	1813.53
603.78	1806.22
604.13	1799.03
604.48	1791.69
604.83	1784.90
605.18	1777.91
605.53	1769.93
605.87	1761.95
606.22	1754.61
606.57	1746.67
606.92	1739.40
607.27	1732.29
607.62	1725.30
607.96	1718.00
608.31	1711.42
608.66	1703.79
609.01	1696.14
609.36	1688.39
609.70	1680.25
610.05	1672.20
610.40	1664.62
610.75	1656.34
611.10	1648.51
611.44	1640.09
611.79	1632.17
612.14	1623.46
612.49	1614.24
612.83	1605.87
613.18	1597.78
613.53	1589.81
613.88	1581.20
614.22	1572.84
614.57	1564.23
614.92	1556.16
615.27	1548.52
615.61	1540.15
615.96	1532.20
616.31	1524.70
616.65	1517.56
617.00	1510.12
617.35	1502.46
617.70	1494.20
618.04	1485.73
618.39	1477.59
618.74	1470.01
619.08	1461.72
619.43	1454.10
619.78	1447.23
620.12	1440.00
620.47	1432.37
620.82	1424.06
621.16	1416.69
621.51	1409.13
621.85	1401.48
622.20	1392.96
622.55	1384.66
622.89	1376.83
623.24	1369.12
623.59	1361.67
623.93	1354.04
624.28	1346.74
624.62	1339.23
624.97	1332.01
625.32	1325.21
625.66	1318.32
626.01	1311.19
626.35	1303.65
626.70	1296.02
627.04	1288.25
627.39	1280.40
627.73	1273.06
628.08	1266.24
628.43	1258.83
628.77	1251.50
629.12	1244.06
629.46	1236.88
629.81	1229.38
630.15	1222.12
630.50	1214.67
630.84	1206.43
631.19	1198.57
631.53	1190.98
631.88	1183.44
632.22	1175.86
632.57	1168.54
632.91	1160.86
633.26	1153.36
633.60	1146.01
633.95	1138.87
634.29	1131.93
634.64	1125.31
634.98	1117.85
635.32	1110.69
635.67	1104.17
636.01	1097.48
636.36	1090.46
636.70	1083.91
637.05	1077.38
637.39	1070.96
637.73	1064.44
638.08	1058.63
638.42	1052.46
638.77	1046.06
639.11	1039.40
639.45	1032.94
639.80	1026.23
640.14	1019.93
640.49	1013.39
640.83	1007.13
641.17	1000.75
641.52	994.38
641.86	987.90
642.20	982.09
642.55	975.72
642.89	969.25
643.23	962.70
643.58	957.03
643.92	950.88
644.26	944.78
644.61	938.73
644.95	932.65
645.29	926.08
645.64	919.45
645.98	913.12
646.32	907.36
646.66	901.29
647.01	895.46
647.35	889.62
647.69	883.76
648.04	878.22
648.38	872.48
648.72	866.42
649.06	860.30
649.41	854.45
649.75	848.51
650.09	842.48
650.43	836.72
650.78	830.50
651.12	824.52
651.46	818.77
651.80	812.95
652.14	807.56
652.49	802.10
652.83	796.90
653.17	791.28
653.51	785.45
653.85	780.08
654.20	774.43
654.54	768.51
654.88	762.79
655.22	756.91
655.56	751.24
655.90	745.84
656.25	740.71
656.59	735.28
656.93	730.23
657.27	725.10
657.61	719.63
657.95	714.57
658.29	709.54
658.64	704.33
658.98	699.09
659.32	693.68
659.66	688.50
660.00	683.14
660.34	678.14
660.68	673.23
661.02	668.20
661.36	663.48
661.70	658.93
662.05	654.58
662.39	650.24
662.73	645.80
663.07	641.39
663.41	636.91
663.75	632.42
664.09	627.78
664.43	623.42
664.77	619.32
665.11	615.05
665.45	610.91
665.79	606.79
666.13	602.63
666.47	598.56
666.81	594.39
667.15	590.34
667.49	586.40
667.83	582.62
668.17	578.68
668.51	574.61
668.85	570.61
669.19	566.80
669.53	562.98
669.87	559.05
670.21	555.34
670.55	551.62
670.89	548.25
671.23	544.85
671.57	541.38
671.91	537.80
672.25	534.29
672.58	530.84
672.92	527.40
673.26	524.18
673.60	521.01
673.94	517.87
674.28	514.92
674.62	511.96
674.96	508.84
675.30	505.97
675.64	503.09
675.97	500.25
676.31	497.27
676.65	494.36
676.99	491.61
677.33	488.74
677.67	485.91
678.01	482.81
678.34	479.85
678.68	477.00
679.02	474.15
679.36	471.35
679.70	468.52
680.04	465.79
680.37	462.95
680.71	460.13
681.05	457.54
681.39	454.81
681.73	452.15
682.06	449.62
682.40	447.01
682.74	444.45
683.08	441.92
683.42	439.39
683.75	436.78
684.09	434.28
684.43	431.81
684.77	429.38
685.10	427.04
685.44	424.71
685.78	422.33
686.12	420.11
686.45	417.85
686.79	415.55
687.13	413.34
687.46	411.16
687.80	408.99
688.14	406.76
688.48	404.70
688.81	402.43
689.15	400.26
689.49	398.13
689.82	396.06
690.16	393.98
690.50	392.02
690.83	390.15
691.17	388.13
691.51	386.23
691.84	384.34
692.18	382.40
692.52	380.39
692.85	378.40
693.19	376.50
693.52	374.67
693.86	372.85
694.20	371.10
694.53	369.32
694.87	367.46
695.21	365.69
695.54	363.89
695.88	362.17
696.21	360.48
696.55	358.77
696.88	357.06
697.22	355.37
697.56	353.73
697.89	352.06
698.23	350.48
698.56	348.88
698.90	347.31
699.23	345.67
699.57	344.16
699.90	342.65
700.24	341.08
700.58	339.56
700.91	338.09
701.25	336.57
701.58	335.17
701.92	333.84
702.25	332.46
702.59	331.07
702.92	329.73
703.26	328.41
703.59	327.15
703.93	325.96
704.26	324.75
704.60	323.40
704.93	322.13
705.26	320.84
705.60	319.59
705.93	318.41
706.27	317.36
706.60	316.29
706.94	315.26
707.27	314.15
707.61	313.07
707.94	312.06
708.27	311.05
708.61	310.01
708.94	308.97
709.28	307.99
709.61	307.04
709.94	306.12
710.28	305.09
710.61	304.10
710.95	303.02
711.28	302.13
711.61	301.19
711.95	300.29
712.28	299.36
712.61	298.42
712.95	297.50
713.28	296.65
713.61	295.74
713.95	294.83
714.28	294.03
714.61	293.22
714.95	292.34
715.28	291.47
715.61	290.61
715.95	289.77
716.28	288.93
716.61	288.09
716.95	287.26
717.28	286.53
717.61	285.77
717.94	285.03
718.28	284.22
718.61	283.52
718.94	282.80
719.27	282.14
719.61	281.50
719.94	280.82
720.27	280.08
720.60	279.43
720.94	278.80
721.27	278.19
721.60	277.57
721.93	276.96
722.27	276.39
722.60	275.85
722.93	275.27
723.26	274.72
723.59	274.13
723.93	273.57
724.26	272.97
724.59	272.39
724.92	271.87
725.25	271.36
725.59	270.83
725.92	270.33
726.25	269.80
726.58	269.31
726.91	268.79
727.24	268.30
727.57	267.79
727.91	267.27
728.24	266.78
728.57	266.28
728.90	265.84
729.23	265.31
729.56	264.85
729.89	264.36
730.22	263.90
730.55	263.43
730.89	263.00
731.22	262.58
731.55	262.15
731.88	261.70
732.21	261.24
732.54	260.80
732.87	260.35
733.20	259.98
733.53	259.55
733.86	259.18
734.19	258.79
734.52	258.45
734.85	258.13
735.18	257.73
735.51	257.34
735.84	256.95
736.17	256.62
736.50	256.20
736.83	255.98
737.16	255.60
737.49	255.33
737.82	254.98
738.15	254.67
738.48	254.29
738.81	254.01
739.14	253.70
739.47	253.41
739.80	253.09
740.13	252.78
740.46	252.49
740.79	252.19
741.12	251.92
741.45	251.57
741.78	251.26
742.11	250.97
742.44	250.68
742.77	250.41
743.10	250.10
743.43	249.83
743.75	249.44
744.08	249.33
744.41	249.04
744.74	248.77
745.07	248.48
745.40	248.27
745.73	248.04
746.06	247.79
746.39	247.54
746.71	247.28
747.04	247.00
747.37	246.72
747.70	246.44
748.03	246.18
748.36	245.98
748.68	245.75
749.01	245.49
749.34	245.28
749.67	245.05
750.00	244.87
750.33	244.73
750.65	244.55
750.98	244.19
751.31	243.97
751.64	243.77
751.97	243.62
752.29	243.40
752.62	243.13
752.95	242.95
753.28	242.72
753.60	242.50
753.93	242.32
754.26	242.14
754.59	241.95
754.91	241.73
755.24	241.54
755.57	241.31
755.90	241.14
756.22	240.94
756.55	240.75
756.88	240.54
757.20	240.29
757.53	240.08
757.86	239.90
758.19	239.77
758.51	239.58
758.84	239.33
759.17	239.15
759.49	239.03
759.82	238.85
760.15	238.70
760.47	238.56
760.80	238.41
761.13	238.28
761.45	238.12
761.78	237.98
762.11	237.84
762.43	237.71
762.76	237.53
763.08	237.41
763.41	237.22
763.74	237.08
764.06	236.94
764.39	236.78
764.71	236.65
765.04	236.47
765.37	236.32
765.69	236.21
766.02	236.10
766.34	235.94
766.67	235.78
767.00	235.66
767.32	235.61
767.65	235.54
767.97	235.42
768.30	235.28
768.62	235.17
768.95	235.02
769.27	234.90
769.60	234.81
769.92	234.67
770.25	234.57
770.57	234.48
770.90	234.34
771.22	234.27
771.55	234.12
771.87	234.05
772.20	233.96
772.52	233.98
772.85	233.97
773.17	233.84
773.50	233.78
773.82	233.65
774.15	233.48
774.47	233.34
774.80	233.23
775.12	233.17
775.45	233.08
775.77	233.04
776.09	232.96
776.42	232.88
776.74	232.83
777.07	232.75
777.39	232.64
777.72	232.58
778.04	232.48
778.36	232.44
778.69	232.35
779.01	232.31
779.33	232.10
779.66	231.95
779.98	231.89
780.31	231.84
780.63	231.86
780.95	231.83
781.28	231.75
781.60	231.66
781.92	231.61
782.25	231.58
782.57	231.49
782.89	231.43
783.22	231.37
783.54	231.32
783.86	231.30
784.19	231.28
784.51	231.30
784.83	231.23
785.16	231.17
785.48	231.15
785.80	231.06
786.12	231.07
786.45	231.04
786.77	231.04
787.09	230.98
787.42	230.89
787.74	230.85
788.06	230.81
788.38	230.82
788.71	230.80
789.03	230.77
789.35	230.71
789.67	230.65
789.99	230.59
790.32	230.53
790.64	230.49
790.96	230.53
791.28	230.46
791.61	230.44
791.93	230.43
792.25	230.34
792.57	230.40
792.89	230.35
793.21	230.30
793.54	230.21
793.86	230.16
794.18	230.10
794.50	230.05
794.82	230.04
795.14	230.00
795.47	229.95
795.79	229.89
796.11	229.87
796.43	229.86
796.75	229.83
797.07	229.80
797.39	229.77
797.71	229.66
798.04	229.61
798.36	229.57
798.68	229.51
799.00	229.50
799.32	229.39
799.64	229.37
799.96	229.31
800.28	229.31
800.60	229.25
800.92	229.23
801.24	229.20
801.56	229.16
801.89	229.13
802.21	229.11
802.53	229.06
802.85	229.07
803.17	229.08
803.49	229.03
803.81	229.00
804.13	228.93
804.45	228.87
804.77	228.87
805.09	228.85
805.41	228.81
805.73	228.78
806.05	228.72
806.37	228.69
806.69	228.71
807.01	228.69
807.33	228.71
807.65	228.67
807.97	228.68
808.28	228.65
808.60	228.59
808.92	228.55
809.24	228.58
809.56	228.52
809.88	228.47
810.20	228.45
810.52	228.44
810.84	228.40
811.16	228.42
811.48	228.38
811.80	228.38
812.12	228.39
812.43	228.38
812.75	228.38
813.07	228.31
813.39	228.27
813.71	228.22
814.03	228.19
814.35	228.16
814.67	228.08
814.98	228.05
815.30	228.05
815.62	227.98
815.94	227.93
816.26	227.96
816.58	227.90
816.89	227.87
817.21	227.82
817.53	227.86
817.85	227.82
818.17	227.81
818.48	227.78
818.80	227.79
819.12	227.75
819.44	227.73
819.76	227.76
820.07	227.74
820.39	227.71
820.71	227.68
821.03	227.70
821.34	227.67
821.66	227.70
821.98	227.69
822.30	227.72
822.61	227.76
822.93	227.69
823.25	227.69
823.57	227.72
823.88	227.72
824.20	227.67
824.52	227.68
824.83	227.66
825.15	227.61
825.47	227.57
825.79	227.55
826.10	227.56
826.42	227.49
826.74	227.50
827.05	227.50
827.37	227.50
827.69	227.48
828.00	227.49
828.32	227.46
828.64	227.40
828.95	227.42
829.27	227.38
829.58	227.35
829.90	227.37
830.22	227.36
830.53	227.32
830.85	227.31
831.17	227.26
831.48	227.24
831.80	227.25
832.11	227.24
832.43	227.23
832.75	227.19
833.06	227.25
833.38	227.21
833.69	227.20
834.01	227.15
834.32	227.12
834.64	227.10
834.96	227.10
835.27	227.11
835.59	227.06
835.90	227.04
836.22	227.04
836.53	227.01
836.85	226.97
837.16	227.12
837.48	227.14
837.79	227.17
838.11	227.16
838.42	227.17
838.74	227.18
839.05	227.14
839.37	227.17
839.68	227.08
840.00	227.07
840.31	227.10
840.63	227.08
840.94	227.09
841.26	227.06
841.57	227.05
841.88	227.06
842.20	227.05
842.51	227.03
842.83	227.01
843.14	227.09
843.46	227.07
843.77	226.96
844.08	226.94
844.40	226.90
844.71	226.88
845.03	226.85
845.34	226.79
845.65	226.81
845.97	226.78
846.28	226.83
846.60	226.82
846.91	226.79
847.22	226.79
847.54	226.78
847.85	226.80
848.16	226.76
848.48	226.74
848.79	226.76
849.10	226.76
849.42	226.76
849.73	226.67
850.04	226.67
850.36	226.65
850.67	226.64
850.98	226.64
851.30	226.63
851.61	226.60
851.92	226.60
852.23	226.61
852.55	226.58
852.86	226.59
853.17	226.57
853.49	226.55
853.80	226.59
854.11	226.59
854.42	226.59
854.74	226.59
855.05	226.59
855.36	226.56
855.67	226.56
855.99	226.56
856.30	226.63
856.61	226.63
856.92	226.62
857.23	226.61
857.55	226.58
857.86	226.57
858.17	226.61
858.48	226.58
858.79	226.55
859.11	226.57
859.42	226.53
859.73	226.53
860.04	226.55
860.35	226.50
860.66	226.49
860.98	226.47
861.29	226.47
861.60	226.46
861.91	226.46
862.22	226.42
862.53	226.38
862.84	226.30
863.16	226.31
863.47	226.30
863.78	226.31
864.09	226.31
864.40	226.33
864.71	226.30
865.02	226.33
865.33	226.31
865.64	226.29
865.95	226.28
866.27	226.35
866.58	226.35
866.89	226.36
867.20	226.33
867.51	226.30
867.82	226.29
868.13	226.29
868.44	226.27
868.75	226.31
869.06	226.34
869.37	226.30
869.68	226.28
869.99	226.31
870.30	226.29
870.61	226.29
870.92	226.26
871.23	226.27
871.54	226.28
871.85	226.35
872.16	226.36
872.47	226.38
872.78	226.33
873.09	226.32
873.40	226.33
873.71	226.36
874.02	226.37
874.33	226.36
874.64	226.38
874.95	226.40
875.26	226.37
875.56	226.38
875.87	226.40
876.18	226.42
876.49	226.49
876.80	226.51
877.11	226.53
877.42	226.55
877.73	226.54
878.04	226.55
878.35	226.49
878.66	226.52
878.96	226.51
879.27	226.53
879.58	226.54
879.89	226.52
880.20	226.51
880.51	226.53
880.82	226.53
881.12	226.51
881.43	226.52
881.74	226.53
882.05	226.51
882.36	226.54
882.67	226.55
882.97	226.45
883.28	226.43
883.59	226.42
883.90	226.44
884.21	226.48
884.51	226.46
884.82	226.49
885.13	226.45
885.44	226.44
885.74	226.39
886.05	226.37
886.36	226.35
886.67	226.39
886.98	226.44
887.28	226.44
887.59	226.46
887.90	226.43
888.20	226.39
888.51	226.43
888.82	226.40
889.13	226.41
889.43	226.49
889.74	226.48
890.05	226.44
890.35	226.41
890.66	226.39
890.97	226.40
891.28	226.36
891.58	226.37
891.89	226.40
892.20	226.42
892.50	226.44
892.81	226.46
893.12	226.42
893.42	226.36
893.73	226.39
894.04	226.37
894.34	226.40
894.65	226.38
894.95	226.33
895.26	226.31
895.57	226.33
895.87	226.23
896.18	226.26
896.48	226.26
896.79	226.23
897.10	226.27
897.40	226.23
897.71	226.22
898.01	226.20
898.32	226.18
898.63	226.14
898.93	226.11
899.24	226.12
899.54	226.08
899.85	226.08
900.15	226.04
900.46	226.06
900.76	226.02
901.07	226.04
901.38	226.07
901.68	226.08
901.99	226.00
902.29	226.00
902.60	226.01
902.90	226.04
903.21	226.04
903.51	226.01
903.82	226.06
904.12	226.06
904.43	226.07
904.73	226.09
905.03	226.10
905.34	226.21
905.64	226.18
905.95	226.19
906.25	226.21
906.56	226.21
906.86	226.19
907.17	226.21
907.47	226.23
907.77	226.18
908.08	226.16
908.38	226.18
908.69	226.20
908.99	226.20
909.30	226.19
909.60	226.19
909.90	226.16
910.21	226.13
910.51	226.13
910.81	226.14
911.12	226.12
911.42	226.13
911.73	225.99
912.03	226.02
912.33	226.05
912.64	226.02
912.94	226.00
913.24	225.99
913.55	226.00
913.85	225.98
914.15	226.01
914.46	226.05
914.76	226.04
915.06	226.02
915.37	226.02
915.67	226.02
915.97	226.05
916.27	226.06
916.58	226.09
916.88	226.09
917.18	226.08
917.49	226.18
917.79	226.18
918.09	226.23
918.39	226.25
918.70	226.22
919.00	226.23
919.30	226.29
919.60	226.30
919.91	226.27
920.21	226.29
920.51	226.30
920.81	226.27
921.12	226.31
921.42	226.33
921.72	226.35
922.02	226.36
922.32	226.33
922.63	226.34
922.93	226.41
923.23	226.42
923.53	226.43
923.83	226.34
924.13	226.35
924.44	226.35
924.74	226.35
925.04	226.41
925.34	226.41
925.64	226.37
925.94	226.36
926.24	226.39
926.55	226.39
926.85	226.42
927.15	226.45
927.45	226.45
927.75	226.42
928.05	226.42
928.35	226.41
928.65	226.49
928.95	226.49
929.26	226.43
929.56	226.45
929.86	226.44
930.16	226.43
930.46	226.44
930.76	226.39
931.06	226.35
931.36	226.29
931.66	226.30
931.96	226.34
932.26	226.36
932.56	226.35
932.86	226.34
933.16	226.30
933.46	226.27
933.76	226.29
934.06	226.27
934.36	226.27
934.66	226.24
934.96	226.19
935.26	226.16
935.56	226.16
935.86	226.11
936.16	226.12
936.46	226.09
936.76	226.08
937.06	226.12
937.36	226.11
937.66	226.15
937.96	226.12
938.26	226.08
938.56	226.07
938.86	226.04
939.16	226.02
939.46	226.02
939.76	226.02
940.06	225.96
940.35	225.95
940.65	225.93
940.95	225.97
941.25	225.93
941.55	225.96
941.85	225.93
942.15	225.96
942.45	225.96
942.75	225.98
943.04	225.96
943.34	225.94
943.64	225.97
943.94	225.92
944.24	225.94
944.54	225.93
944.84	225.91
945.13	225.93
945.43	225.92
945.73	225.93
946.03	225.92
946.33	225.95
946.62	225.96
946.92	225.93
947.22	225.91
947.52	225.92
947.82	225.95
948.11	225.93
948.41	225.93
948.71	225.89
949.01	225.91
949.31	225.89
949.60	225.88
949.90	225.85
950.20	225.85
950.50	225.85
950.79	225.85
951.09	225.85
951.39	225.84
951.69	225.85
951.98	225.87
952.28	225.87
952.58	225.84
952.87	225.87
953.17	225.90
953.47	225.89
953.76	225.89
954.06	225.88
954.36	225.85
954.66	225.84
954.95	225.90
955.25	225.93
955.55	225.96
955.84	225.96
956.14	226.00
956.44	226.03
956.73	226.01
957.03	226.04
957.32	226.06
957.62	226.06
957.92	226.12
958.21	226.11
958.51	226.22
958.81	226.22
959.10	226.20
959.40	226.24
959.69	226.26
959.99	226.25
960.29	226.22
960.58	226.24
960.88	226.28
961.17	226.23
961.47	226.23
961.76	226.21
962.06	226.22
962.36	226.20
962.65	226.17
962.95	226.17
963.24	226.15
963.54	226.13
963.83	226.16
964.13	226.11
964.42	226.10
964.72	226.02
965.01	226.06
965.31	226.05
965.60	226.01
965.90	226.05
966.19	226.05
966.49	226.07
966.78	226.07
967.08	226.06
967.37	226.08
967.67	226.04
967.96	226.06
968.26	226.02
968.55	226.02
968.85	226.04
969.14	226.06
969.43	226.06
969.73	226.07
970.02	226.05
970.32	226.04
970.61	226.02
970.91	225.96
971.20	225.93
971.49	225.93
971.79	225.93
972.08	225.86
972.38	225.86
972.67	225.85
972.96	225.85
973.26	225.82
973.55	225.84
973.85	225.80
974.14	225.80
974.43	225.82
974.73	225.84
975.02	225.80
975.31	225.80
975.61	225.77
975.90	225.76
976.19	225.78
976.49	225.77
976.78	225.79
977.07	225.81
977.37	225.80
977.66	225.82
977.95	225.81
978.24	225.79
978.54	225.82
978.83	225.79
979.12	225.78
979.42	225.79
979.71	225.77
980.00	225.83
980.29	225.81
980.59	225.81
980.88	225.84
981.17	225.87
981.46	225.86
981.76	225.88
982.05	225.95
982.34	225.90
982.63	225.93
982.93	225.94
983.22	225.97
983.51	226.00
983.80	225.98
984.09	226.01
984.39	226.08
984.68	226.08
984.97	226.14
985.26	226.15
985.55	226.16
985.85	226.14
986.14	226.15
986.43	226.18
986.72	226.20
987.01	226.16
987.30	226.16
987.59	226.14
987.89	226.13
988.18	226.09
988.47	226.12
988.76	226.12
989.05	226.11
989.34	226.09
989.63	226.11
989.92	226.14
990.22	226.12
990.51	226.07
990.80	226.04
991.09	226.02
991.38	226.05
991.67	226.03
991.96	226.05
992.25	226.06
992.54	226.04
992.83	226.05
993.12	226.04
993.41	226.06
993.70	226.09
993.99	226.10
994.28	226.13
994.58	226.15
994.87	226.12
995.16	226.11
995.45	226.10
995.74	226.06
996.03	226.04
996.32	226.05
996.61	226.06
996.90	226.09
997.19	226.04
997.48	226.02
997.77	226.02
998.06	226.03
998.34	226.03
998.63	226.01
998.92	225.98
999.21	226.02
999.50	226.01
999.79	226.00
1000.08	225.96
1000.37	225.94
1000.66	225.90
1000.95	225.93
1001.24	225.93
1001.53	225.94
1001.82	225.97
1002.11	225.93
1002.40	225.92
1002.68	225.94
1002.97	225.98
1003.26	226.01
1003.55	225.98
1003.84	225.99
1004.13	226.00
1004.42	225.99
1004.71	225.99
1004.99	226.00
1005.28	226.00
1005.57	226.02
1005.86	226.03
1006.15	226.04
1006.44	226.05
1006.72	226.06
1007.01	226.05
1007.30	226.04
1007.59	226.02
1007.88	226.04
1008.17	226.06
1008.45	226.05
1008.74	226.03
1009.03	226.00
1009.32	226.02
1009.60	226.04
1009.89	226.05
1010.18	226.02
1010.47	225.98
1010.76	226.00
1011.04	225.98
1011.33	226.00
1011.62	225.98
1011.91	225.97
1012.19	225.99
1012.48	225.99
1012.77	225.98
1013.05	226.04
1013.34	226.07
1013.63	226.07
1013.92	226.07
1014.20	226.10
1014.49	226.10
1014.78	226.10
1015.06	226.08
1015.35	226.05
1015.64	226.05
1015.92	226.05
1016.21	226.03
1016.50	226.07
1016.78	226.06
1017.07	226.08
1017.36	226.02
1017.64	225.99
1017.93	226.01
1018.22	226.00
1018.50	225.98
1018.79	226.00
1019.08	225.90
1019.36	225.92
1019.65	225.92
1019.93	225.92
1020.22	225.88
1020.51	225.93
1020.79	225.93
1021.08	225.89
1021.36	225.83
1021.65	225.94
1021.94	225.43
1022.22	226.28
1022.51	225.92
1022.79	226.41
1023.08	225.51
1023.36	227.25
1023.65	225.71
>>>>>End Processed Spectral Data<<<<<
