SpectraSuite Data File
++++++++++++++++++++++++++++++++++++
Date: Fri Feb 01 16:01:53 EST 2013
User: group
Dark Spectrum Present: No
Reference Spectrum Present: No
Number of Sampled Component Spectra: 1
Spectrometers: USB2E7196
Integration Time (usec): 35000 (USB2E7196)
Spectra Averaged: 100 (USB2E7196)
Boxcar Smoothing: 10 (USB2E7196)
Correct for Electrical Dark: No (USB2E7196)
Strobe/Lamp Enabled: No (USB2E7196)
Correct for Detector Non-linearity: No (USB2E7196)
Correct for Stray Light: No (USB2E7196)
Number of Pixels in Processed Spectrum: 2048
>>>>>Begin Processed Spectral Data<<<<<
339.09	0.00
339.48	214.67
339.86	217.14
340.24	217.07
340.63	219.26
341.01	221.50
341.39	221.87
341.78	223.15
342.16	224.06
342.54	224.98
342.93	213.13
343.31	223.91
343.69	224.46
344.07	224.88
344.46	225.35
344.84	225.71
345.22	225.96
345.60	226.22
345.99	226.36
346.37	226.49
346.75	226.60
347.13	226.66
347.52	226.73
347.90	226.79
348.28	226.83
348.66	226.82
349.05	226.85
349.43	226.93
349.81	226.99
350.19	227.01
350.57	227.04
350.96	227.09
351.34	227.14
351.72	227.19
352.10	227.29
352.48	227.33
352.87	227.39
353.25	227.48
353.63	227.51
354.01	227.62
354.39	227.70
354.77	227.77
355.15	227.88
355.54	227.93
355.92	227.93
356.30	228.01
356.68	228.15
357.06	228.17
357.44	228.16
357.82	228.21
358.20	228.29
358.58	228.34
358.97	228.39
359.35	228.50
359.73	228.58
360.11	228.60
360.49	228.66
360.87	228.70
361.25	228.75
361.63	228.81
362.01	228.81
362.39	228.82
362.77	228.83
363.15	228.83
363.53	228.86
363.91	228.91
364.29	228.92
364.67	228.84
365.05	228.89
365.43	228.93
365.81	228.96
366.19	229.02
366.57	229.05
366.95	229.06
367.33	229.04
367.71	229.03
368.09	229.05
368.47	229.01
368.85	228.98
369.23	228.96
369.61	228.87
369.99	228.88
370.37	228.88
370.75	228.91
371.13	228.86
371.51	228.81
371.89	228.78
372.27	228.72
372.65	228.68
373.03	228.61
373.41	228.55
373.78	228.46
374.16	228.34
374.54	228.25
374.92	228.16
375.30	228.07
375.68	227.99
376.06	227.92
376.44	227.88
376.82	227.80
377.19	227.73
377.57	227.68
377.95	227.58
378.33	227.53
378.71	227.37
379.09	227.32
379.47	227.28
379.84	227.21
380.22	227.14
380.60	227.05
380.98	227.00
381.36	226.95
381.73	226.87
382.11	226.88
382.49	226.82
382.87	226.76
383.25	226.71
383.62	226.76
384.00	226.68
384.38	226.64
384.76	226.64
385.13	226.60
385.51	226.57
385.89	226.53
386.27	226.49
386.64	226.47
387.02	226.43
387.40	226.40
387.78	226.39
388.15	226.38
388.53	226.37
388.91	226.31
389.29	226.29
389.66	226.29
390.04	226.22
390.42	226.21
390.79	226.21
391.17	226.21
391.55	226.13
391.92	226.16
392.30	226.16
392.68	226.13
393.05	226.17
393.43	226.17
393.81	226.19
394.18	226.17
394.56	226.20
394.94	226.26
395.31	226.27
395.69	226.30
396.06	226.33
396.44	226.37
396.82	226.42
397.19	226.51
397.57	226.55
397.95	226.62
398.32	226.66
398.70	226.72
399.07	226.81
399.45	226.86
399.82	226.91
400.20	226.98
400.58	227.05
400.95	227.08
401.33	227.19
401.70	227.34
402.08	227.45
402.45	227.53
402.83	227.66
403.20	227.78
403.58	227.88
403.95	228.02
404.33	228.16
404.71	228.31
405.08	228.47
405.46	228.62
405.83	228.81
406.21	228.99
406.58	229.16
406.96	229.30
407.33	229.50
407.70	229.72
408.08	229.97
408.45	230.20
408.83	230.45
409.20	230.66
409.58	230.83
409.95	231.10
410.33	231.38
410.70	231.58
411.08	231.83
411.45	232.14
411.82	232.47
412.20	232.80
412.57	233.21
412.95	233.51
413.32	233.92
413.69	234.27
414.07	234.69
414.44	235.15
414.82	235.60
415.19	236.16
415.56	236.66
415.94	237.21
416.31	237.88
416.68	238.47
417.06	239.16
417.43	239.83
417.81	240.57
418.18	241.35
418.55	242.20
418.93	243.10
419.30	243.97
419.67	244.89
420.04	245.82
420.42	246.82
420.79	247.98
421.16	249.12
421.54	250.31
421.91	251.55
422.28	252.79
422.66	254.11
423.03	255.39
423.40	256.71
423.77	258.11
424.15	259.50
424.52	261.03
424.89	262.64
425.26	264.20
425.64	265.67
426.01	267.26
426.38	268.89
426.75	270.59
427.13	272.32
427.50	274.14
427.87	276.05
428.24	277.86
428.61	279.61
428.99	281.52
429.36	283.63
429.73	285.67
430.10	287.70
430.47	289.78
430.85	291.89
431.22	294.18
431.59	296.55
431.96	298.77
432.33	301.22
432.70	303.63
433.08	306.41
433.45	309.05
433.82	311.66
434.19	314.58
434.56	317.38
434.93	320.03
435.30	322.62
435.68	325.52
436.05	328.37
436.42	331.19
436.79	333.74
437.16	336.43
437.53	339.25
437.90	342.05
438.27	344.78
438.64	347.62
439.01	350.20
439.38	352.42
439.75	354.62
440.13	357.12
440.50	359.41
440.87	361.31
441.24	363.25
441.61	365.39
441.98	366.90
442.35	368.68
442.72	370.54
443.09	372.35
443.46	373.33
443.83	373.99
444.20	374.51
444.57	375.31
444.94	375.52
445.31	375.88
445.68	376.26
446.05	376.32
446.42	375.90
446.79	375.48
447.16	374.99
447.53	374.64
447.90	373.45
448.27	372.32
448.64	370.73
449.01	369.59
449.37	367.65
449.74	365.70
450.11	363.49
450.48	361.02
450.85	358.52
451.22	356.41
451.59	354.34
451.96	352.38
452.33	349.79
452.70	347.50
453.07	344.66
453.43	341.76
453.80	339.01
454.17	336.34
454.54	333.79
454.91	331.13
455.28	328.45
455.65	325.97
456.02	323.52
456.38	321.35
456.75	318.71
457.12	316.45
457.49	314.21
457.86	312.06
458.23	310.21
458.59	308.11
458.96	305.97
459.33	304.13
459.70	302.25
460.07	300.76
460.43	299.02
460.80	297.39
461.17	295.94
461.54	294.47
461.91	293.03
462.27	291.59
462.64	290.33
463.01	288.96
463.38	287.64
463.74	286.24
464.11	285.08
464.48	284.04
464.85	282.88
465.21	282.06
465.58	281.06
465.95	279.94
466.32	279.05
466.68	278.17
467.05	277.21
467.42	276.31
467.78	275.36
468.15	274.45
468.52	273.82
468.88	272.99
469.25	272.24
469.62	271.62
469.98	270.93
470.35	270.30
470.72	269.71
471.08	269.10
471.45	268.59
471.82	268.06
472.18	267.42
472.55	267.04
472.92	266.49
473.28	266.05
473.65	265.62
474.02	265.17
474.38	264.80
474.75	264.52
475.11	264.17
475.48	263.94
475.85	263.75
476.21	263.47
476.58	263.32
476.94	263.15
477.31	263.00
477.67	262.88
478.04	262.81
478.41	262.78
478.77	262.83
479.14	262.78
479.50	262.79
479.87	262.88
480.23	262.95
480.60	263.05
480.96	263.18
481.33	263.40
481.69	263.61
482.06	263.86
482.42	264.03
482.79	264.32
483.15	264.64
483.52	265.05
483.88	265.42
484.25	265.79
484.61	266.22
484.98	266.66
485.34	267.25
485.71	267.82
486.07	268.43
486.44	269.01
486.80	269.72
487.17	270.50
487.53	271.35
487.90	272.21
488.26	273.14
488.62	274.11
488.99	275.11
489.35	276.15
489.72	277.27
490.08	278.49
490.44	279.75
490.81	281.08
491.17	282.41
491.54	283.89
491.90	285.43
492.26	287.09
492.63	288.86
492.99	290.60
493.36	292.48
493.72	294.55
494.08	296.65
494.45	298.93
494.81	301.26
495.17	303.71
495.54	306.25
495.90	308.95
496.26	311.79
496.63	314.75
496.99	317.90
497.35	321.16
497.72	324.62
498.08	328.14
498.44	331.79
498.80	335.72
499.17	339.73
499.53	343.92
499.89	348.30
500.26	352.80
500.62	357.49
500.98	362.45
501.34	367.51
501.71	372.86
502.07	378.26
502.43	383.83
502.79	389.63
503.16	395.74
503.52	402.03
503.88	408.41
504.24	415.03
504.60	421.91
504.97	429.03
505.33	436.30
505.69	443.97
506.05	451.71
506.41	459.57
506.78	467.81
507.14	476.30
507.50	485.01
507.86	494.08
508.22	503.28
508.59	512.46
508.95	522.02
509.31	531.84
509.67	541.94
510.03	552.23
510.39	562.78
510.75	573.57
511.12	584.47
511.48	595.77
511.84	607.15
512.20	618.58
512.56	630.51
512.92	642.75
513.28	655.12
513.64	667.63
514.00	680.33
514.37	693.22
514.73	706.23
515.09	719.28
515.45	732.49
515.81	746.08
516.17	760.08
516.53	774.25
516.89	788.40
517.25	802.63
517.61	817.03
517.97	831.48
518.33	845.85
518.69	860.60
519.05	875.65
519.41	890.83
519.77	906.35
520.13	921.78
520.49	937.08
520.85	952.55
521.21	968.31
521.57	984.58
521.93	1000.30
522.29	1016.75
522.65	1032.96
523.01	1049.19
523.37	1065.15
523.73	1081.33
524.09	1097.30
524.45	1113.58
524.81	1130.11
525.17	1146.99
525.53	1163.88
525.89	1180.84
526.25	1197.66
526.61	1213.98
526.97	1230.81
527.33	1247.35
527.68	1263.93
528.04	1280.41
528.40	1296.96
528.76	1313.90
529.12	1330.41
529.48	1347.23
529.84	1363.23
530.20	1379.84
530.56	1396.80
530.91	1414.30
531.27	1431.00
531.63	1447.49
531.99	1464.05
532.35	1480.00
532.71	1495.94
533.07	1512.11
533.42	1527.97
533.78	1544.05
534.14	1560.23
534.50	1575.44
534.86	1591.31
535.21	1606.39
535.57	1622.30
535.93	1637.77
536.29	1652.60
536.65	1667.61
537.00	1682.33
537.36	1697.39
537.72	1711.93
538.08	1726.27
538.44	1740.02
538.79	1754.00
539.15	1767.68
539.51	1781.49
539.87	1795.75
540.22	1809.41
540.58	1823.17
540.94	1836.51
541.29	1849.39
541.65	1862.07
542.01	1875.30
542.37	1887.49
542.72	1899.98
543.08	1911.74
543.44	1923.99
543.79	1935.26
544.15	1946.18
544.51	1957.71
544.87	1968.68
545.22	1979.40
545.58	1989.52
545.94	1999.21
546.29	2008.84
546.65	2018.67
547.01	2027.86
547.36	2036.62
547.72	2045.10
548.07	2052.97
548.43	2061.16
548.79	2069.15
549.14	2076.63
549.50	2083.94
549.86	2091.67
550.21	2099.06
550.57	2106.20
550.92	2112.66
551.28	2119.54
551.64	2126.71
551.99	2133.19
552.35	2139.34
552.70	2145.43
553.06	2151.60
553.41	2157.90
553.77	2164.00
554.13	2170.05
554.48	2176.13
554.84	2181.61
555.19	2186.79
555.55	2191.80
555.90	2196.12
556.26	2200.94
556.61	2205.70
556.97	2210.05
557.32	2214.12
557.68	2218.18
558.03	2222.48
558.39	2226.26
558.74	2230.90
559.10	2234.76
559.45	2238.52
559.81	2242.95
560.16	2246.96
560.52	2250.10
560.87	2253.42
561.23	2256.17
561.58	2259.07
561.94	2261.55
562.29	2263.86
562.64	2266.32
563.00	2268.90
563.35	2272.47
563.71	2275.55
564.06	2278.72
564.42	2281.50
564.77	2284.13
565.12	2286.40
565.48	2288.24
565.83	2290.18
566.19	2291.51
566.54	2292.44
566.89	2293.52
567.25	2294.10
567.60	2295.16
567.96	2296.86
568.31	2297.74
568.66	2298.85
569.02	2299.52
569.37	2299.96
569.72	2300.78
570.08	2301.05
570.43	2301.34
570.78	2300.67
571.14	2299.26
571.49	2297.96
571.84	2297.66
572.20	2296.45
572.55	2295.51
572.90	2293.99
573.26	2292.54
573.61	2290.94
573.96	2289.11
574.31	2286.21
574.67	2283.19
575.02	2279.72
575.37	2276.44
575.72	2272.64
576.08	2269.26
576.43	2265.91
576.78	2262.22
577.13	2259.09
577.49	2256.11
577.84	2252.49
578.19	2248.82
578.54	2245.09
578.90	2240.89
579.25	2235.44
579.60	2230.47
579.95	2225.28
580.30	2220.26
580.66	2215.20
581.01	2210.17
581.36	2205.40
581.71	2201.21
582.06	2196.73
582.42	2192.23
582.77	2186.88
583.12	2182.41
583.47	2177.78
583.82	2172.88
584.17	2167.64
584.53	2162.21
584.88	2156.46
585.23	2150.74
585.58	2145.26
585.93	2139.87
586.28	2135.24
586.63	2130.07
586.98	2125.08
587.34	2120.55
587.69	2115.72
588.04	2110.42
588.39	2104.82
588.74	2098.34
589.09	2092.33
589.44	2085.63
589.79	2079.79
590.14	2074.30
590.49	2067.81
590.84	2061.37
591.19	2055.25
591.54	2048.77
591.89	2041.53
592.25	2034.96
592.60	2027.72
592.95	2020.09
593.30	2012.75
593.65	2005.16
594.00	1998.17
594.35	1991.02
594.70	1982.97
595.05	1975.75
595.40	1968.51
595.75	1960.98
596.10	1954.68
596.45	1947.88
596.80	1941.71
597.15	1934.89
597.50	1927.82
597.85	1921.40
598.19	1914.80
598.54	1907.51
598.89	1900.88
599.24	1894.84
599.59	1888.10
599.94	1881.94
600.29	1875.68
600.64	1869.03
600.99	1861.46
601.34	1854.66
601.69	1847.69
602.04	1840.78
602.39	1833.48
602.74	1826.65
603.08	1819.93
603.43	1813.26
603.78	1805.84
604.13	1798.54
604.48	1791.29
604.83	1784.33
605.18	1777.22
605.53	1769.03
605.87	1761.15
606.22	1753.85
606.57	1745.96
606.92	1738.46
607.27	1731.27
607.62	1724.39
607.96	1717.23
608.31	1710.61
608.66	1702.98
609.01	1695.21
609.36	1687.65
609.70	1679.56
610.05	1671.51
610.40	1663.76
610.75	1655.33
611.10	1647.65
611.44	1639.31
611.79	1631.36
612.14	1622.58
612.49	1613.46
612.83	1605.16
613.18	1597.14
613.53	1589.11
613.88	1580.54
614.22	1572.33
614.57	1563.67
614.92	1555.51
615.27	1547.85
615.61	1539.50
615.96	1531.36
616.31	1523.84
616.65	1516.47
617.00	1508.97
617.35	1501.36
617.70	1493.09
618.04	1484.68
618.39	1476.45
618.74	1468.83
619.08	1460.48
619.43	1453.04
619.78	1446.13
620.12	1438.97
620.47	1431.34
620.82	1423.11
621.16	1415.67
621.51	1408.20
621.85	1400.69
622.20	1392.26
622.55	1383.89
622.89	1376.02
623.24	1368.50
623.59	1361.14
623.93	1353.52
624.28	1346.26
624.62	1338.71
624.97	1331.54
625.32	1324.77
625.66	1317.82
626.01	1310.62
626.35	1303.25
626.70	1295.44
627.04	1287.68
627.39	1279.92
627.73	1272.58
628.08	1265.79
628.43	1258.55
628.77	1251.07
629.12	1243.46
629.46	1236.34
629.81	1229.04
630.15	1221.84
630.50	1214.30
630.84	1206.02
631.19	1198.12
631.53	1190.67
631.88	1183.09
632.22	1175.44
632.57	1168.10
632.91	1160.56
633.26	1153.12
633.60	1145.67
633.95	1138.64
634.29	1131.68
634.64	1124.95
634.98	1117.58
635.32	1110.31
635.67	1103.74
636.01	1097.09
636.36	1090.30
636.70	1083.78
637.05	1077.21
637.39	1070.74
637.73	1064.23
638.08	1058.33
638.42	1052.35
638.77	1045.87
639.11	1039.24
639.45	1032.88
639.80	1026.21
640.14	1019.85
640.49	1013.35
640.83	1007.09
641.17	1000.75
641.52	994.36
641.86	987.95
642.20	982.10
642.55	975.81
642.89	969.26
643.23	962.79
643.58	957.02
643.92	950.67
644.26	944.52
644.61	938.46
644.95	932.52
645.29	926.01
645.64	919.22
645.98	912.80
646.32	906.97
646.66	900.92
647.01	895.12
647.35	889.42
647.69	883.57
648.04	878.00
648.38	872.21
648.72	866.12
649.06	860.08
649.41	854.21
649.75	848.25
650.09	842.29
650.43	836.48
650.78	830.35
651.12	824.36
651.46	818.61
651.80	812.87
652.14	807.47
652.49	802.08
652.83	796.96
653.17	791.27
653.51	785.53
653.85	780.16
654.20	774.48
654.54	768.41
654.88	762.68
655.22	756.77
655.56	751.08
655.90	745.75
656.25	740.39
656.59	734.95
656.93	729.86
657.27	724.73
657.61	719.28
657.95	714.16
658.29	709.19
658.64	704.05
658.98	698.79
659.32	693.32
659.66	688.13
660.00	682.77
660.34	677.89
660.68	673.00
661.02	667.96
661.36	663.28
661.70	658.81
662.05	654.48
662.39	650.19
662.73	645.81
663.07	641.40
663.41	637.02
663.75	632.56
664.09	628.00
664.43	623.64
664.77	619.49
665.11	615.26
665.45	611.13
665.79	606.97
666.13	602.78
666.47	598.67
666.81	594.50
667.15	590.42
667.49	586.51
667.83	582.72
668.17	578.77
668.51	574.66
668.85	570.60
669.19	566.78
669.53	562.97
669.87	559.09
670.21	555.38
670.55	551.75
670.89	548.32
671.23	544.84
671.57	541.32
671.91	537.75
672.25	534.23
672.58	530.74
672.92	527.35
673.26	524.21
673.60	521.04
673.94	517.93
674.28	515.08
674.62	512.12
674.96	509.03
675.30	506.13
675.64	503.22
675.97	500.48
676.31	497.61
676.65	494.65
676.99	491.88
677.33	489.03
677.67	486.21
678.01	483.19
678.34	480.17
678.68	477.25
679.02	474.44
679.36	471.66
679.70	468.90
680.04	466.12
680.37	463.23
680.71	460.44
681.05	457.83
681.39	455.07
681.73	452.42
682.06	449.86
682.40	447.33
682.74	444.80
683.08	442.27
683.42	439.61
683.75	437.10
684.09	434.56
684.43	432.05
684.77	429.58
685.10	427.23
685.44	424.95
685.78	422.70
686.12	420.48
686.45	418.19
686.79	415.89
687.13	413.67
687.46	411.50
687.80	409.39
688.14	407.13
688.48	405.03
688.81	402.74
689.15	400.59
689.49	398.40
689.82	396.30
690.16	394.16
690.50	392.22
690.83	390.25
691.17	388.28
691.51	386.40
691.84	384.59
692.18	382.61
692.52	380.64
692.85	378.69
693.19	376.80
693.52	374.95
693.86	373.15
694.20	371.39
694.53	369.59
694.87	367.72
695.21	365.93
695.54	364.10
695.88	362.41
696.21	360.67
696.55	359.00
696.88	357.31
697.22	355.68
697.56	354.04
697.89	352.36
698.23	350.77
698.56	349.15
698.90	347.51
699.23	345.90
699.57	344.34
699.90	342.81
700.24	341.26
700.58	339.73
700.91	338.17
701.25	336.74
701.58	335.35
701.92	333.98
702.25	332.59
702.59	331.24
702.92	329.85
703.26	328.50
703.59	327.22
703.93	326.07
704.26	324.80
704.60	323.53
704.93	322.30
705.26	321.04
705.60	319.89
705.93	318.69
706.27	317.69
706.60	316.67
706.94	315.63
707.27	314.47
707.61	313.42
707.94	312.45
708.27	311.37
708.61	310.28
708.94	309.25
709.28	308.33
709.61	307.36
709.94	306.44
710.28	305.48
710.61	304.54
710.95	303.45
711.28	302.59
711.61	301.65
711.95	300.78
712.28	299.80
712.61	298.82
712.95	297.93
713.28	297.04
713.61	296.12
713.95	295.26
714.28	294.45
714.61	293.60
714.95	292.76
715.28	291.88
715.61	291.04
715.95	290.20
716.28	289.35
716.61	288.58
716.95	287.77
717.28	287.03
717.61	286.25
717.94	285.52
718.28	284.72
718.61	283.99
718.94	283.30
719.27	282.69
719.61	282.07
719.94	281.41
720.27	280.66
720.60	280.01
720.94	279.33
721.27	278.73
721.60	278.15
721.93	277.58
722.27	277.05
722.60	276.52
722.93	275.99
723.26	275.47
723.59	274.87
723.93	274.34
724.26	273.79
724.59	273.22
724.92	272.72
725.25	272.22
725.59	271.67
725.92	271.13
726.25	270.59
726.58	270.09
726.91	269.59
727.24	269.15
727.57	268.68
727.91	268.17
728.24	267.68
728.57	267.20
728.90	266.72
729.23	266.21
729.56	265.76
729.89	265.27
730.22	264.77
730.55	264.31
730.89	263.84
731.22	263.37
731.55	262.95
731.88	262.51
732.21	262.07
732.54	261.65
732.87	261.26
733.20	260.87
733.53	260.48
733.86	260.09
734.19	259.67
734.52	259.32
734.85	259.04
735.18	258.63
735.51	258.26
735.84	257.88
736.17	257.57
736.50	257.13
736.83	256.90
737.16	256.59
737.49	256.22
737.82	255.89
738.15	255.57
738.48	255.20
738.81	254.87
739.14	254.53
739.47	254.22
739.80	253.86
740.13	253.55
740.46	253.20
740.79	252.87
741.12	252.55
741.45	252.19
741.78	251.82
742.11	251.57
742.44	251.24
742.77	251.00
743.10	250.66
743.43	250.40
743.75	250.00
744.08	249.82
744.41	249.57
744.74	249.29
745.07	248.99
745.40	248.74
745.73	248.51
746.06	248.22
746.39	247.95
746.71	247.66
747.04	247.36
747.37	247.11
747.70	246.85
748.03	246.61
748.36	246.40
748.68	246.13
749.01	245.88
749.34	245.68
749.67	245.41
750.00	245.20
750.33	245.05
750.65	244.86
750.98	244.53
751.31	244.31
751.64	244.10
751.97	243.95
752.29	243.73
752.62	243.45
752.95	243.25
753.28	243.05
753.60	242.84
753.93	242.69
754.26	242.51
754.59	242.31
754.91	242.12
755.24	241.94
755.57	241.81
755.90	241.58
756.22	241.37
756.55	241.15
756.88	240.96
757.20	240.73
757.53	240.53
757.86	240.36
758.19	240.21
758.51	240.06
758.84	239.89
759.17	239.75
759.49	239.65
759.82	239.53
760.15	239.38
760.47	239.27
760.80	239.11
761.13	238.96
761.45	238.81
761.78	238.66
762.11	238.51
762.43	238.34
762.76	238.23
763.08	238.09
763.41	237.97
763.74	237.86
764.06	237.72
764.39	237.59
764.71	237.45
765.04	237.33
765.37	237.16
765.69	237.00
766.02	236.88
766.34	236.69
766.67	236.54
767.00	236.44
767.32	236.36
767.65	236.29
767.97	236.15
768.30	236.02
768.62	235.91
768.95	235.79
769.27	235.68
769.60	235.54
769.92	235.43
770.25	235.30
770.57	235.14
770.90	235.07
771.22	234.95
771.55	234.84
771.87	234.76
772.20	234.65
772.52	234.65
772.85	234.67
773.17	234.61
773.50	234.50
773.82	234.40
774.15	234.27
774.47	234.13
774.80	234.04
775.12	233.97
775.45	233.89
775.77	233.83
776.09	233.73
776.42	233.67
776.74	233.64
777.07	233.57
777.39	233.52
777.72	233.41
778.04	233.34
778.36	233.25
778.69	233.14
779.01	233.13
779.33	232.95
779.66	232.75
779.98	232.68
780.31	232.63
780.63	232.58
780.95	232.53
781.28	232.42
781.60	232.36
781.92	232.30
782.25	232.21
782.57	232.08
782.89	232.02
783.22	231.96
783.54	231.87
783.86	231.82
784.19	231.73
784.51	231.68
784.83	231.64
785.16	231.57
785.48	231.53
785.80	231.48
786.12	231.46
786.45	231.41
786.77	231.35
787.09	231.29
787.42	231.19
787.74	231.15
788.06	231.12
788.38	231.10
788.71	231.05
789.03	231.02
789.35	231.04
789.67	230.99
789.99	230.92
790.32	230.86
790.64	230.84
790.96	230.91
791.28	230.83
791.61	230.77
791.93	230.77
792.25	230.74
792.57	230.74
792.89	230.65
793.21	230.65
793.54	230.61
793.86	230.58
794.18	230.55
794.50	230.49
794.82	230.46
795.14	230.42
795.47	230.39
795.79	230.38
796.11	230.32
796.43	230.32
796.75	230.33
797.07	230.30
797.39	230.23
797.71	230.10
798.04	230.10
798.36	230.09
798.68	230.05
799.00	229.99
799.32	229.93
799.64	229.96
799.96	229.93
800.28	229.93
800.60	229.89
800.92	229.88
801.24	229.86
801.56	229.82
801.89	229.81
802.21	229.77
802.53	229.71
802.85	229.71
803.17	229.74
803.49	229.72
803.81	229.69
804.13	229.69
804.45	229.66
804.77	229.63
805.09	229.58
805.41	229.55
805.73	229.53
806.05	229.49
806.37	229.49
806.69	229.43
807.01	229.37
807.33	229.37
807.65	229.30
807.97	229.34
808.28	229.32
808.60	229.27
808.92	229.23
809.24	229.29
809.56	229.24
809.88	229.18
810.20	229.11
810.52	229.10
810.84	229.05
811.16	229.06
811.48	229.00
811.80	229.03
812.12	229.01
812.43	229.00
812.75	229.01
813.07	228.93
813.39	228.94
813.71	228.91
814.03	228.90
814.35	228.88
814.67	228.80
814.98	228.77
815.30	228.75
815.62	228.73
815.94	228.62
816.26	228.63
816.58	228.58
816.89	228.57
817.21	228.50
817.53	228.52
817.85	228.48
818.17	228.49
818.48	228.44
818.80	228.41
819.12	228.37
819.44	228.31
819.76	228.29
820.07	228.26
820.39	228.25
820.71	228.20
821.03	228.22
821.34	228.20
821.66	228.20
821.98	228.19
822.30	228.19
822.61	228.21
822.93	228.15
823.25	228.12
823.57	228.09
823.88	228.13
824.20	228.09
824.52	228.07
824.83	228.03
825.15	227.99
825.47	228.01
825.79	228.00
826.10	227.96
826.42	227.96
826.74	227.93
827.05	227.95
827.37	227.95
827.69	227.93
828.00	227.92
828.32	227.91
828.64	227.89
828.95	227.93
829.27	227.93
829.58	227.94
829.90	227.94
830.22	227.97
830.53	227.94
830.85	227.93
831.17	227.93
831.48	227.94
831.80	227.95
832.11	227.91
832.43	227.90
832.75	227.92
833.06	227.96
833.38	227.99
833.69	227.95
834.01	227.93
834.32	227.90
834.64	227.88
834.96	227.88
835.27	227.89
835.59	227.87
835.90	227.84
836.22	227.84
836.53	227.82
836.85	227.81
837.16	227.90
837.48	227.87
837.79	227.86
838.11	227.85
838.42	227.85
838.74	227.86
839.05	227.85
839.37	227.84
839.68	227.80
840.00	227.76
840.31	227.77
840.63	227.75
840.94	227.76
841.26	227.77
841.57	227.75
841.88	227.73
842.20	227.70
842.51	227.69
842.83	227.68
843.14	227.76
843.46	227.72
843.77	227.67
844.08	227.69
844.40	227.68
844.71	227.67
845.03	227.64
845.34	227.64
845.65	227.63
845.97	227.63
846.28	227.62
846.60	227.61
846.91	227.59
847.22	227.56
847.54	227.59
847.85	227.57
848.16	227.54
848.48	227.52
848.79	227.52
849.10	227.52
849.42	227.51
849.73	227.43
850.04	227.45
850.36	227.43
850.67	227.41
850.98	227.39
851.30	227.37
851.61	227.38
851.92	227.40
852.23	227.44
852.55	227.43
852.86	227.38
853.17	227.36
853.49	227.39
853.80	227.40
854.11	227.37
854.42	227.34
854.74	227.33
855.05	227.34
855.36	227.27
855.67	227.24
855.99	227.25
856.30	227.33
856.61	227.31
856.92	227.26
857.23	227.29
857.55	227.26
857.86	227.23
858.17	227.21
858.48	227.14
858.79	227.11
859.11	227.09
859.42	227.10
859.73	227.10
860.04	227.07
860.35	227.09
860.66	227.10
860.98	227.13
861.29	227.17
861.60	227.15
861.91	227.20
862.22	227.17
862.53	227.15
862.84	227.04
863.16	227.05
863.47	227.07
863.78	227.03
864.09	227.03
864.40	227.04
864.71	227.07
865.02	227.09
865.33	227.07
865.64	227.06
865.95	227.06
866.27	227.12
866.58	227.10
866.89	227.10
867.20	227.06
867.51	227.02
867.82	227.03
868.13	227.05
868.44	227.04
868.75	227.08
869.06	227.05
869.37	227.06
869.68	227.03
869.99	227.02
870.30	227.04
870.61	227.08
870.92	227.09
871.23	227.04
871.54	227.06
871.85	227.07
872.16	227.09
872.47	227.10
872.78	227.04
873.09	227.06
873.40	227.02
873.71	227.06
874.02	227.07
874.33	227.03
874.64	227.02
874.95	227.05
875.26	227.03
875.56	227.06
875.87	227.04
876.18	227.04
876.49	227.15
876.80	227.13
877.11	227.10
877.42	227.09
877.73	227.11
878.04	227.09
878.35	227.11
878.66	227.13
878.96	227.13
879.27	227.11
879.58	227.10
879.89	227.11
880.20	227.08
880.51	227.09
880.82	227.05
881.12	227.05
881.43	227.01
881.74	227.02
882.05	227.00
882.36	227.00
882.67	226.99
882.97	226.87
883.28	226.91
883.59	226.90
883.90	226.91
884.21	226.91
884.51	226.91
884.82	226.87
885.13	226.88
885.44	226.86
885.74	226.86
886.05	226.88
886.36	226.87
886.67	226.87
886.98	226.91
887.28	226.95
887.59	226.96
887.90	226.93
888.20	226.89
888.51	226.93
888.82	226.93
889.13	226.98
889.43	227.06
889.74	227.01
890.05	226.98
890.35	226.98
890.66	226.96
890.97	226.96
891.28	226.97
891.58	226.92
891.89	226.92
892.20	226.91
892.50	226.89
892.81	226.89
893.12	226.89
893.42	226.83
893.73	226.79
894.04	226.78
894.34	226.81
894.65	226.84
894.95	226.81
895.26	226.81
895.57	226.82
895.87	226.73
896.18	226.73
896.48	226.76
896.79	226.77
897.10	226.80
897.40	226.80
897.71	226.81
898.01	226.83
898.32	226.85
898.63	226.86
898.93	226.85
899.24	226.87
899.54	226.84
899.85	226.85
900.15	226.87
900.46	226.86
900.76	226.88
901.07	226.86
901.38	226.86
901.68	226.88
901.99	226.84
902.29	226.84
902.60	226.89
902.90	226.86
903.21	226.85
903.51	226.86
903.82	226.89
904.12	226.90
904.43	226.89
904.73	226.86
905.03	226.87
905.34	226.98
905.64	226.98
905.95	227.00
906.25	227.01
906.56	226.99
906.86	227.01
907.17	226.99
907.47	227.01
907.77	227.00
908.08	226.95
908.38	226.97
908.69	227.00
908.99	227.02
909.30	227.03
909.60	227.04
909.90	227.05
910.21	227.02
910.51	227.01
910.81	227.02
911.12	227.04
911.42	227.03
911.73	226.92
912.03	226.91
912.33	226.92
912.64	226.90
912.94	226.92
913.24	226.91
913.55	226.90
913.85	226.89
914.15	226.91
914.46	226.95
914.76	226.94
915.06	226.91
915.37	226.86
915.67	226.87
915.97	226.84
916.27	226.81
916.58	226.82
916.88	226.77
917.18	226.73
917.49	226.79
917.79	226.79
918.09	226.81
918.39	226.84
918.70	226.86
919.00	226.90
919.30	226.92
919.60	226.92
919.91	226.92
920.21	226.93
920.51	226.90
920.81	226.89
921.12	226.87
921.42	226.88
921.72	226.90
922.02	226.88
922.32	226.92
922.63	226.91
922.93	226.95
923.23	226.99
923.53	226.98
923.83	226.93
924.13	226.92
924.44	226.94
924.74	226.94
925.04	226.94
925.34	226.90
925.64	226.87
925.94	226.87
926.24	226.92
926.55	226.91
926.85	226.96
927.15	226.96
927.45	226.98
927.75	227.00
928.05	226.99
928.35	227.00
928.65	227.01
928.95	227.02
929.26	226.98
929.56	226.94
929.86	226.97
930.16	226.95
930.46	226.96
930.76	226.94
931.06	226.89
931.36	226.87
931.66	226.87
931.96	226.88
932.26	226.87
932.56	226.82
932.86	226.84
933.16	226.84
933.46	226.83
933.76	226.82
934.06	226.82
934.36	226.84
934.66	226.82
934.96	226.79
935.26	226.79
935.56	226.79
935.86	226.79
936.16	226.76
936.46	226.75
936.76	226.74
937.06	226.72
937.36	226.72
937.66	226.73
937.96	226.72
938.26	226.71
938.56	226.69
938.86	226.72
939.16	226.71
939.46	226.68
939.76	226.69
940.06	226.69
940.35	226.69
940.65	226.67
940.95	226.67
941.25	226.65
941.55	226.62
941.85	226.62
942.15	226.63
942.45	226.66
942.75	226.67
943.04	226.65
943.34	226.68
943.64	226.66
943.94	226.62
944.24	226.62
944.54	226.63
944.84	226.61
945.13	226.56
945.43	226.55
945.73	226.54
946.03	226.54
946.33	226.52
946.62	226.48
946.92	226.46
947.22	226.47
947.52	226.49
947.82	226.52
948.11	226.48
948.41	226.49
948.71	226.48
949.01	226.48
949.31	226.51
949.60	226.53
949.90	226.54
950.20	226.52
950.50	226.55
950.79	226.51
951.09	226.52
951.39	226.54
951.69	226.52
951.98	226.55
952.28	226.57
952.58	226.57
952.87	226.61
953.17	226.61
953.47	226.60
953.76	226.60
954.06	226.60
954.36	226.65
954.66	226.63
954.95	226.68
955.25	226.69
955.55	226.68
955.84	226.63
956.14	226.63
956.44	226.67
956.73	226.67
957.03	226.69
957.32	226.71
957.62	226.73
957.92	226.77
958.21	226.72
958.51	226.79
958.81	226.78
959.10	226.79
959.40	226.82
959.69	226.82
959.99	226.82
960.29	226.80
960.58	226.75
960.88	226.77
961.17	226.71
961.47	226.70
961.76	226.71
962.06	226.72
962.36	226.75
962.65	226.74
962.95	226.73
963.24	226.71
963.54	226.68
963.83	226.67
964.13	226.65
964.42	226.69
964.72	226.60
965.01	226.59
965.31	226.56
965.60	226.54
965.90	226.60
966.19	226.56
966.49	226.58
966.78	226.58
967.08	226.58
967.37	226.62
967.67	226.58
967.96	226.57
968.26	226.57
968.55	226.55
968.85	226.56
969.14	226.55
969.43	226.57
969.73	226.55
970.02	226.53
970.32	226.53
970.61	226.51
970.91	226.48
971.20	226.49
971.49	226.47
971.79	226.48
972.08	226.39
972.38	226.40
972.67	226.37
972.96	226.40
973.26	226.37
973.55	226.39
973.85	226.39
974.14	226.39
974.43	226.40
974.73	226.38
975.02	226.36
975.31	226.35
975.61	226.35
975.90	226.36
976.19	226.34
976.49	226.35
976.78	226.37
977.07	226.40
977.37	226.41
977.66	226.42
977.95	226.42
978.24	226.44
978.54	226.49
978.83	226.49
979.12	226.47
979.42	226.48
979.71	226.45
980.00	226.48
980.29	226.46
980.59	226.43
980.88	226.48
981.17	226.45
981.46	226.48
981.76	226.45
982.05	226.46
982.34	226.49
982.63	226.48
982.93	226.47
983.22	226.47
983.51	226.47
983.80	226.46
984.09	226.48
984.39	226.44
984.68	226.43
984.97	226.44
985.26	226.44
985.55	226.47
985.85	226.45
986.14	226.47
986.43	226.51
986.72	226.54
987.01	226.47
987.30	226.49
987.59	226.45
987.89	226.50
988.18	226.49
988.47	226.45
988.76	226.47
989.05	226.45
989.34	226.42
989.63	226.41
989.92	226.41
990.22	226.36
990.51	226.39
990.80	226.33
991.09	226.35
991.38	226.36
991.67	226.33
991.96	226.35
992.25	226.35
992.54	226.31
992.83	226.30
993.12	226.32
993.41	226.34
993.70	226.38
993.99	226.37
994.28	226.39
994.58	226.42
994.87	226.39
995.16	226.42
995.45	226.45
995.74	226.45
996.03	226.49
996.32	226.50
996.61	226.52
996.90	226.58
997.19	226.57
997.48	226.59
997.77	226.60
998.06	226.60
998.34	226.59
998.63	226.63
998.92	226.63
999.21	226.63
999.50	226.65
999.79	226.64
1000.08	226.65
1000.37	226.68
1000.66	226.66
1000.95	226.68
1001.24	226.69
1001.53	226.69
1001.82	226.70
1002.11	226.66
1002.40	226.68
1002.68	226.71
1002.97	226.74
1003.26	226.74
1003.55	226.73
1003.84	226.73
1004.13	226.77
1004.42	226.76
1004.71	226.75
1004.99	226.76
1005.28	226.80
1005.57	226.79
1005.86	226.80
1006.15	226.80
1006.44	226.77
1006.72	226.80
1007.01	226.80
1007.30	226.76
1007.59	226.77
1007.88	226.76
1008.17	226.76
1008.45	226.76
1008.74	226.69
1009.03	226.69
1009.32	226.69
1009.60	226.67
1009.89	226.64
1010.18	226.59
1010.47	226.58
1010.76	226.55
1011.04	226.53
1011.33	226.57
1011.62	226.60
1011.91	226.59
1012.19	226.57
1012.48	226.57
1012.77	226.55
1013.05	226.60
1013.34	226.61
1013.63	226.59
1013.92	226.60
1014.20	226.59
1014.49	226.60
1014.78	226.62
1015.06	226.57
1015.35	226.55
1015.64	226.57
1015.92	226.61
1016.21	226.63
1016.50	226.65
1016.78	226.69
1017.07	226.70
1017.36	226.63
1017.64	226.60
1017.93	226.59
1018.22	226.58
1018.50	226.60
1018.79	226.59
1019.08	226.59
1019.36	226.59
1019.65	226.58
1019.93	226.59
1020.22	226.65
1020.51	226.71
1020.79	226.69
1021.08	226.29
1021.36	226.99
1021.65	226.30
1021.94	227.15
1022.22	226.36
1022.51	226.69
1022.79	226.59
1023.08	227.19
1023.36	228.01
1023.65	225.94
>>>>>End Processed Spectral Data<<<<<
