SpectraSuite Data File
++++++++++++++++++++++++++++++++++++
Date: Fri Feb 01 14:59:52 EST 2013
User: group
Dark Spectrum Present: No
Reference Spectrum Present: No
Number of Sampled Component Spectra: 1
Spectrometers: USB2E7196
Integration Time (usec): 35000 (USB2E7196)
Spectra Averaged: 100 (USB2E7196)
Boxcar Smoothing: 10 (USB2E7196)
Correct for Electrical Dark: No (USB2E7196)
Strobe/Lamp Enabled: No (USB2E7196)
Correct for Detector Non-linearity: No (USB2E7196)
Correct for Stray Light: No (USB2E7196)
Number of Pixels in Processed Spectrum: 2048
>>>>>Begin Processed Spectral Data<<<<<
339.09	0.00
339.48	215.44
339.86	216.65
340.24	218.43
340.63	219.81
341.01	222.10
341.39	222.20
341.78	223.26
342.16	225.22
342.54	225.04
342.93	213.63
343.31	224.41
343.69	224.93
344.07	225.42
344.46	225.83
344.84	226.21
345.22	226.46
345.60	226.70
345.99	226.89
346.37	227.00
346.75	227.12
347.13	227.18
347.52	227.25
347.90	227.34
348.28	227.37
348.66	227.42
349.05	227.42
349.43	227.45
349.81	227.47
350.19	227.52
350.57	227.56
350.96	227.65
351.34	227.72
351.72	227.83
352.10	227.91
352.48	227.99
352.87	228.03
353.25	228.09
353.63	228.16
354.01	228.22
354.39	228.32
354.77	228.39
355.15	228.48
355.54	228.52
355.92	228.56
356.30	228.61
356.68	228.73
357.06	228.78
357.44	228.82
357.82	228.88
358.20	228.97
358.58	229.04
358.97	229.09
359.35	229.21
359.73	229.22
360.11	229.28
360.49	229.33
360.87	229.34
361.25	229.38
361.63	229.48
362.01	229.53
362.39	229.54
362.77	229.57
363.15	229.60
363.53	229.62
363.91	229.65
364.29	229.68
364.67	229.60
365.05	229.64
365.43	229.70
365.81	229.73
366.19	229.73
366.57	229.76
366.95	229.71
367.33	229.64
367.71	229.64
368.09	229.62
368.47	229.60
368.85	229.61
369.23	229.59
369.61	229.48
369.99	229.46
370.37	229.42
370.75	229.42
371.13	229.34
371.51	229.27
371.89	229.21
372.27	229.14
372.65	229.09
373.03	229.04
373.41	228.96
373.78	228.89
374.16	228.80
374.54	228.72
374.92	228.65
375.30	228.58
375.68	228.51
376.06	228.42
376.44	228.29
376.82	228.18
377.19	228.09
377.57	228.02
377.95	227.92
378.33	227.83
378.71	227.67
379.09	227.61
379.47	227.54
379.84	227.45
380.22	227.38
380.60	227.30
380.98	227.18
381.36	227.09
381.73	226.98
382.11	226.92
382.49	226.85
382.87	226.81
383.25	226.75
383.62	226.80
384.00	226.74
384.38	226.73
384.76	226.72
385.13	226.71
385.51	226.67
385.89	226.60
386.27	226.59
386.64	226.58
387.02	226.52
387.40	226.44
387.78	226.42
388.15	226.39
388.53	226.31
388.91	226.33
389.29	226.29
389.66	226.27
390.04	226.24
390.42	226.23
390.79	226.21
391.17	226.19
391.55	226.06
391.92	226.07
392.30	226.10
392.68	226.10
393.05	226.11
393.43	226.15
393.81	226.17
394.18	226.21
394.56	226.27
394.94	226.32
395.31	226.37
395.69	226.41
396.06	226.46
396.44	226.55
396.82	226.57
397.19	226.68
397.57	226.74
397.95	226.83
398.32	226.85
398.70	226.92
399.07	227.04
399.45	227.11
399.82	227.16
400.20	227.20
400.58	227.31
400.95	227.34
401.33	227.41
401.70	227.58
402.08	227.63
402.45	227.69
402.83	227.82
403.20	227.96
403.58	228.10
403.95	228.26
404.33	228.41
404.71	228.56
405.08	228.74
405.46	228.91
405.83	229.06
406.21	229.23
406.58	229.43
406.96	229.59
407.33	229.80
407.70	230.05
408.08	230.33
408.45	230.55
408.83	230.82
409.20	231.03
409.58	231.22
409.95	231.50
410.33	231.78
410.70	232.04
411.08	232.34
411.45	232.64
411.82	232.94
412.20	233.28
412.57	233.71
412.95	233.99
413.32	234.39
413.69	234.79
414.07	235.22
414.44	235.66
414.82	236.12
415.19	236.68
415.56	237.19
415.94	237.77
416.31	238.35
416.68	238.96
417.06	239.70
417.43	240.38
417.81	241.14
418.18	241.92
418.55	242.82
418.93	243.68
419.30	244.54
419.67	245.48
420.04	246.40
420.42	247.34
420.79	248.53
421.16	249.69
421.54	250.90
421.91	252.13
422.28	253.42
422.66	254.73
423.03	255.99
423.40	257.36
423.77	258.70
424.15	260.14
424.52	261.62
424.89	263.21
425.26	264.76
425.64	266.20
426.01	267.80
426.38	269.37
426.75	271.01
427.13	272.74
427.50	274.52
427.87	276.43
428.24	278.31
428.61	280.08
428.99	282.00
429.36	284.04
429.73	286.10
430.10	288.05
430.47	290.11
430.85	292.24
431.22	294.46
431.59	296.88
431.96	299.15
432.33	301.60
432.70	303.99
433.08	306.78
433.45	309.43
433.82	312.02
434.19	314.95
434.56	317.81
434.93	320.46
435.30	323.11
435.68	325.97
436.05	328.80
436.42	331.59
436.79	334.13
437.16	336.90
437.53	339.76
437.90	342.59
438.27	345.36
438.64	348.25
439.01	350.80
439.38	353.04
439.75	355.21
440.13	357.77
440.50	360.14
440.87	362.02
441.24	364.00
441.61	366.14
441.98	367.62
442.35	369.39
442.72	371.32
443.09	373.14
443.46	374.21
443.83	374.84
444.20	375.31
444.57	376.16
444.94	376.43
445.31	376.73
445.68	377.12
446.05	377.23
446.42	376.86
446.79	376.51
447.16	376.10
447.53	375.77
447.90	374.63
448.27	373.45
448.64	371.87
449.01	370.69
449.37	368.75
449.74	366.89
450.11	364.68
450.48	362.16
450.85	359.62
451.22	357.43
451.59	355.38
451.96	353.46
452.33	350.84
452.70	348.49
453.07	345.71
453.43	342.83
453.80	340.03
454.17	337.31
454.54	334.75
454.91	331.97
455.28	329.25
455.65	326.71
456.02	324.24
456.38	322.10
456.75	319.45
457.12	317.22
457.49	314.98
457.86	312.81
458.23	311.02
458.59	308.97
458.96	306.90
459.33	305.03
459.70	303.19
460.07	301.67
460.43	299.97
460.80	298.31
461.17	296.82
461.54	295.31
461.91	293.88
462.27	292.42
462.64	291.20
463.01	289.86
463.38	288.55
463.74	287.18
464.11	286.01
464.48	285.00
464.85	283.84
465.21	282.95
465.58	282.03
465.95	280.88
466.32	279.96
466.68	279.01
467.05	278.13
467.42	277.19
467.78	276.24
468.15	275.33
468.52	274.63
468.88	273.77
469.25	273.01
469.62	272.35
469.98	271.69
470.35	271.04
470.72	270.44
471.08	269.82
471.45	269.27
471.82	268.69
472.18	268.04
472.55	267.63
472.92	267.08
473.28	266.57
473.65	266.11
474.02	265.65
474.38	265.30
474.75	264.94
475.11	264.58
475.48	264.32
475.85	264.08
476.21	263.85
476.58	263.66
476.94	263.48
477.31	263.29
477.67	263.13
478.04	263.01
478.41	262.95
478.77	262.95
479.14	262.87
479.50	262.90
479.87	262.98
480.23	263.04
480.60	263.14
480.96	263.24
481.33	263.41
481.69	263.63
482.06	263.83
482.42	264.03
482.79	264.29
483.15	264.59
483.52	264.98
483.88	265.30
484.25	265.70
484.61	266.16
484.98	266.57
485.34	267.10
485.71	267.63
486.07	268.23
486.44	268.82
486.80	269.55
487.17	270.25
487.53	271.04
487.90	271.83
488.26	272.72
488.62	273.67
488.99	274.64
489.35	275.65
489.72	276.75
490.08	277.95
490.44	279.19
490.81	280.46
491.17	281.81
491.54	283.32
491.90	284.83
492.26	286.45
492.63	288.21
492.99	289.97
493.36	291.92
493.72	293.96
494.08	296.06
494.45	298.26
494.81	300.61
495.17	303.02
495.54	305.60
495.90	308.30
496.26	311.12
496.63	314.07
496.99	317.12
497.35	320.35
497.72	323.71
498.08	327.20
498.44	330.89
498.80	334.83
499.17	338.80
499.53	342.96
499.89	347.30
500.26	351.78
500.62	356.45
500.98	361.35
501.34	366.43
501.71	371.69
502.07	377.10
502.43	382.68
502.79	388.46
503.16	394.49
503.52	400.71
503.88	407.07
504.24	413.63
504.60	420.54
504.97	427.63
505.33	434.95
505.69	442.72
506.05	450.44
506.41	458.24
506.78	466.41
507.14	474.81
507.50	483.50
507.86	492.50
508.22	501.70
508.59	510.92
508.95	520.46
509.31	530.29
509.67	540.39
510.03	550.65
510.39	561.24
510.75	572.07
511.12	583.00
511.48	594.30
511.84	605.76
512.20	617.30
512.56	629.24
512.92	641.41
513.28	653.64
513.64	666.20
514.00	678.93
514.37	691.89
514.73	704.95
515.09	717.99
515.45	731.31
515.81	744.87
516.17	758.86
516.53	772.99
516.89	787.11
517.25	801.31
517.61	815.84
517.97	830.35
518.33	844.75
518.69	859.55
519.05	874.57
519.41	889.85
519.77	905.43
520.13	920.91
520.49	936.34
520.85	951.79
521.21	967.52
521.57	983.88
521.93	999.73
522.29	1016.24
522.65	1032.53
523.01	1048.84
523.37	1064.95
523.73	1081.15
524.09	1097.27
524.45	1113.78
524.81	1130.47
525.17	1147.40
525.53	1164.23
525.89	1181.18
526.25	1198.21
526.61	1214.65
526.97	1231.41
527.33	1247.87
527.68	1264.66
528.04	1281.25
528.40	1298.08
528.76	1315.27
529.12	1331.90
529.48	1348.74
529.84	1364.88
530.20	1381.61
530.56	1398.74
530.91	1416.16
531.27	1433.07
531.63	1449.64
531.99	1466.24
532.35	1482.25
532.71	1498.11
533.07	1514.53
533.42	1530.56
533.78	1546.52
534.14	1562.96
534.50	1578.39
534.86	1594.32
535.21	1609.45
535.57	1625.58
535.93	1641.02
536.29	1655.81
536.65	1670.84
537.00	1685.75
537.36	1701.02
537.72	1715.64
538.08	1729.97
538.44	1743.96
538.79	1757.98
539.15	1771.85
539.51	1785.70
539.87	1800.27
540.22	1814.03
540.58	1828.05
540.94	1841.56
541.29	1854.57
541.65	1867.39
542.01	1880.76
542.37	1893.26
542.72	1905.89
543.08	1917.60
543.44	1930.16
543.79	1941.45
544.15	1952.64
544.51	1964.19
544.87	1975.27
545.22	1986.08
545.58	1996.45
545.94	2006.28
546.29	2016.15
546.65	2025.83
547.01	2034.97
547.36	2043.72
547.72	2052.22
548.07	2059.85
548.43	2068.00
548.79	2075.90
549.14	2083.31
549.50	2090.58
549.86	2098.30
550.21	2105.61
550.57	2112.78
550.92	2119.29
551.28	2126.35
551.64	2133.36
551.99	2139.86
552.35	2146.04
552.70	2152.12
553.06	2158.02
553.41	2164.28
553.77	2170.23
554.13	2176.39
554.48	2182.57
554.84	2187.77
555.19	2193.15
555.55	2198.24
555.90	2202.57
556.26	2207.42
556.61	2212.16
556.97	2216.37
557.32	2220.34
557.68	2224.38
558.03	2228.66
558.39	2232.48
558.74	2237.06
559.10	2240.84
559.45	2244.43
559.81	2248.69
560.16	2252.50
560.52	2255.74
560.87	2259.19
561.23	2261.80
561.58	2264.64
561.94	2267.16
562.29	2269.69
562.64	2272.27
563.00	2275.00
563.35	2278.55
563.71	2281.75
564.06	2284.92
564.42	2287.70
564.77	2290.16
565.12	2292.30
565.48	2294.04
565.83	2295.66
566.19	2296.83
566.54	2297.82
566.89	2298.85
567.25	2299.24
567.60	2300.67
567.96	2302.23
568.31	2302.88
568.66	2303.86
569.02	2304.40
569.37	2304.58
569.72	2305.05
570.08	2304.97
570.43	2304.85
570.78	2303.90
571.14	2302.24
571.49	2300.65
571.84	2300.15
572.20	2298.92
572.55	2297.71
572.90	2295.98
573.26	2294.35
573.61	2292.64
573.96	2290.53
574.31	2287.50
574.67	2284.32
575.02	2280.40
575.37	2276.81
575.72	2272.73
576.08	2269.40
576.43	2265.88
576.78	2262.08
577.13	2258.84
577.49	2255.74
577.84	2252.04
578.19	2248.42
578.54	2244.48
578.90	2240.04
579.25	2234.49
579.60	2229.34
579.95	2224.28
580.30	2219.09
580.66	2213.94
581.01	2208.82
581.36	2203.86
581.71	2199.54
582.06	2194.97
582.42	2190.32
582.77	2184.93
583.12	2180.25
583.47	2175.22
583.82	2170.06
584.17	2164.64
584.53	2159.16
584.88	2153.44
585.23	2147.46
585.58	2141.70
585.93	2136.26
586.28	2131.51
586.63	2126.28
586.98	2121.12
587.34	2116.24
587.69	2111.22
588.04	2105.78
588.39	2099.82
588.74	2093.26
589.09	2086.98
589.44	2080.07
589.79	2073.95
590.14	2068.26
590.49	2061.68
590.84	2055.07
591.19	2048.91
591.54	2042.26
591.89	2034.62
592.25	2027.59
592.60	2020.29
592.95	2012.56
593.30	2004.98
593.65	1997.25
594.00	1990.02
594.35	1982.68
594.70	1974.60
595.05	1967.27
595.40	1959.83
595.75	1952.34
596.10	1945.86
596.45	1938.91
596.80	1932.71
597.15	1925.95
597.50	1918.71
597.85	1912.13
598.19	1905.62
598.54	1898.50
598.89	1891.85
599.24	1886.00
599.59	1879.18
599.94	1872.95
600.29	1866.59
600.64	1860.04
600.99	1852.50
601.34	1845.67
601.69	1838.65
602.04	1831.55
602.39	1824.24
602.74	1817.41
603.08	1810.64
603.43	1804.01
603.78	1796.86
604.13	1789.54
604.48	1782.19
604.83	1775.26
605.18	1768.30
605.53	1760.02
605.87	1751.97
606.22	1744.64
606.57	1736.61
606.92	1729.34
607.27	1722.14
607.62	1715.30
607.96	1707.91
608.31	1701.28
608.66	1693.72
609.01	1686.16
609.36	1678.74
609.70	1670.70
610.05	1662.73
610.40	1654.98
610.75	1646.65
611.10	1639.02
611.44	1630.72
611.79	1622.80
612.14	1614.20
612.49	1605.18
612.83	1597.02
613.18	1588.86
613.53	1580.96
613.88	1572.56
614.22	1564.35
614.57	1555.91
614.92	1547.95
615.27	1540.48
615.61	1532.12
615.96	1524.10
616.31	1516.51
616.65	1509.28
617.00	1501.70
617.35	1494.08
617.70	1485.82
618.04	1477.27
618.39	1469.02
618.74	1461.54
619.08	1453.33
619.43	1445.80
619.78	1438.86
620.12	1431.64
620.47	1424.22
620.82	1416.05
621.16	1408.62
621.51	1400.96
621.85	1393.42
622.20	1384.90
622.55	1376.70
622.89	1368.99
623.24	1361.49
623.59	1354.25
623.93	1346.66
624.28	1339.50
624.62	1331.98
624.97	1324.87
625.32	1318.29
625.66	1311.32
626.01	1304.02
626.35	1296.56
626.70	1288.94
627.04	1281.22
627.39	1273.57
627.73	1266.22
628.08	1259.33
628.43	1251.93
628.77	1244.61
629.12	1236.89
629.46	1229.71
629.81	1222.35
630.15	1215.20
630.50	1207.75
630.84	1199.49
631.19	1191.63
631.53	1184.20
631.88	1176.67
632.22	1169.13
632.57	1161.82
632.91	1154.30
633.26	1146.92
633.60	1139.71
633.95	1132.66
634.29	1125.70
634.64	1119.02
634.98	1111.70
635.32	1104.50
635.67	1098.10
636.01	1091.58
636.36	1084.90
636.70	1078.43
637.05	1071.86
637.39	1065.41
637.73	1058.91
638.08	1053.09
638.42	1047.08
638.77	1040.71
639.11	1034.06
639.45	1027.72
639.80	1021.13
640.14	1014.67
640.49	1008.22
640.83	1001.96
641.17	995.61
641.52	989.30
641.86	983.01
642.20	977.21
642.55	971.06
642.89	964.49
643.23	957.93
643.58	952.20
643.92	946.09
644.26	940.04
644.61	934.05
644.95	928.04
645.29	921.43
645.64	914.69
645.98	908.42
646.32	902.62
646.66	896.57
647.01	890.70
647.35	885.13
647.69	879.39
648.04	873.89
648.38	868.18
648.72	862.22
649.06	856.08
649.41	850.21
649.75	844.18
650.09	838.36
650.43	832.58
650.78	826.37
651.12	820.41
651.46	814.74
651.80	808.96
652.14	803.66
652.49	798.42
652.83	793.34
653.17	787.55
653.51	781.89
653.85	776.54
654.20	770.87
654.54	764.82
654.88	759.10
655.22	753.23
655.56	747.58
655.90	742.12
656.25	736.89
656.59	731.60
656.93	726.57
657.27	721.41
657.61	716.09
657.95	711.09
658.29	706.00
658.64	700.74
658.98	695.61
659.32	690.11
659.66	684.88
660.00	679.60
660.34	674.78
660.68	669.91
661.02	664.90
661.36	660.32
661.70	655.84
662.05	651.52
662.39	647.20
662.73	642.79
663.07	638.45
663.41	634.09
663.75	629.58
664.09	625.07
664.43	620.73
664.77	616.57
665.11	612.40
665.45	608.32
665.79	604.33
666.13	600.15
666.47	596.13
666.81	591.92
667.15	587.81
667.49	583.98
667.83	580.25
668.17	576.37
668.51	572.31
668.85	568.38
669.19	564.50
669.53	560.59
669.87	556.73
670.21	553.05
670.55	549.47
670.89	546.08
671.23	542.68
671.57	539.21
671.91	535.72
672.25	532.22
672.58	528.69
672.92	525.30
673.26	522.15
673.60	519.05
673.94	516.08
674.28	513.26
674.62	510.34
674.96	507.23
675.30	504.29
675.64	501.44
675.97	498.72
676.31	495.93
676.65	493.10
676.99	490.46
677.33	487.61
677.67	484.73
678.01	481.67
678.34	478.67
678.68	475.84
679.02	473.01
679.36	470.30
679.70	467.64
680.04	464.86
680.37	462.03
680.71	459.24
681.05	456.57
681.39	453.83
681.73	451.23
682.06	448.70
682.40	446.19
682.74	443.73
683.08	441.18
683.42	438.55
683.75	436.07
684.09	433.52
684.43	431.07
684.77	428.65
685.10	426.36
685.44	424.12
685.78	421.88
686.12	419.70
686.45	417.40
686.79	415.12
687.13	412.90
687.46	410.78
687.80	408.68
688.14	406.52
688.48	404.51
688.81	402.22
689.15	400.10
689.49	397.97
689.82	395.81
690.16	393.78
690.50	391.85
690.83	389.91
691.17	387.94
691.51	386.06
691.84	384.24
692.18	382.30
692.52	380.31
692.85	378.39
693.19	376.51
693.52	374.71
693.86	372.89
694.20	371.20
694.53	369.41
694.87	367.56
695.21	365.81
695.54	363.99
695.88	362.30
696.21	360.59
696.55	358.96
696.88	357.31
697.22	355.64
697.56	354.05
697.89	352.38
698.23	350.79
698.56	349.16
698.90	347.56
699.23	345.96
699.57	344.39
699.90	342.83
700.24	341.28
700.58	339.73
700.91	338.28
701.25	336.78
701.58	335.40
701.92	334.06
702.25	332.69
702.59	331.31
702.92	330.01
703.26	328.70
703.59	327.36
703.93	326.18
704.26	324.96
704.60	323.67
704.93	322.45
705.26	321.19
705.60	320.11
705.93	319.01
706.27	318.00
706.60	316.96
706.94	315.89
707.27	314.78
707.61	313.76
707.94	312.78
708.27	311.73
708.61	310.63
708.94	309.59
709.28	308.60
709.61	307.64
709.94	306.66
710.28	305.68
710.61	304.74
710.95	303.68
711.28	302.76
711.61	301.81
711.95	300.91
712.28	299.98
712.61	298.95
712.95	297.96
713.28	297.06
713.61	296.20
713.95	295.30
714.28	294.48
714.61	293.59
714.95	292.72
715.28	291.87
715.61	291.03
715.95	290.21
716.28	289.35
716.61	288.54
716.95	287.73
717.28	286.97
717.61	286.20
717.94	285.46
718.28	284.65
718.61	283.94
718.94	283.24
719.27	282.57
719.61	281.96
719.94	281.34
720.27	280.65
720.60	279.99
720.94	279.41
721.27	278.81
721.60	278.26
721.93	277.63
722.27	277.08
722.60	276.55
722.93	276.00
723.26	275.49
723.59	274.92
723.93	274.37
724.26	273.84
724.59	273.32
724.92	272.81
725.25	272.34
725.59	271.79
725.92	271.27
726.25	270.74
726.58	270.22
726.91	269.69
727.24	269.23
727.57	268.78
727.91	268.26
728.24	267.76
728.57	267.26
728.90	266.83
729.23	266.31
729.56	265.85
729.89	265.34
730.22	264.86
730.55	264.43
730.89	263.95
731.22	263.54
731.55	263.07
731.88	262.64
732.21	262.20
732.54	261.80
732.87	261.36
733.20	260.97
733.53	260.60
733.86	260.26
734.19	259.85
734.52	259.43
734.85	259.12
735.18	258.72
735.51	258.38
735.84	258.02
736.17	257.68
736.50	257.28
736.83	257.07
737.16	256.74
737.49	256.37
737.82	256.06
738.15	255.70
738.48	255.36
738.81	255.03
739.14	254.70
739.47	254.39
739.80	254.11
740.13	253.83
740.46	253.50
740.79	253.16
741.12	252.85
741.45	252.59
741.78	252.20
742.11	251.95
742.44	251.59
742.77	251.31
743.10	251.05
743.43	250.78
743.75	250.39
744.08	250.24
744.41	249.99
744.74	249.73
745.07	249.49
745.40	249.26
745.73	249.03
746.06	248.79
746.39	248.52
746.71	248.23
747.04	247.97
747.37	247.72
747.70	247.49
748.03	247.26
748.36	247.01
748.68	246.80
749.01	246.57
749.34	246.38
749.67	246.14
750.00	245.90
750.33	245.79
750.65	245.60
750.98	245.25
751.31	245.03
751.64	244.82
751.97	244.65
752.29	244.43
752.62	244.20
752.95	243.99
753.28	243.78
753.60	243.58
753.93	243.40
754.26	243.23
754.59	243.02
754.91	242.80
755.24	242.61
755.57	242.42
755.90	242.23
756.22	242.03
756.55	241.85
756.88	241.65
757.20	241.36
757.53	241.17
757.86	240.99
758.19	240.84
758.51	240.67
758.84	240.45
759.17	240.29
759.49	240.12
759.82	239.98
760.15	239.85
760.47	239.69
760.80	239.49
761.13	239.34
761.45	239.18
761.78	239.03
762.11	238.88
762.43	238.73
762.76	238.56
763.08	238.43
763.41	238.28
763.74	238.15
764.06	238.01
764.39	237.87
764.71	237.73
765.04	237.55
765.37	237.39
765.69	237.28
766.02	237.16
766.34	237.02
766.67	236.90
767.00	236.79
767.32	236.73
767.65	236.69
767.97	236.57
768.30	236.46
768.62	236.30
768.95	236.18
769.27	236.07
769.60	235.98
769.92	235.85
770.25	235.71
770.57	235.61
770.90	235.52
771.22	235.43
771.55	235.36
771.87	235.28
772.20	235.19
772.52	235.15
772.85	235.17
773.17	235.07
773.50	234.97
773.82	234.84
774.15	234.70
774.47	234.52
774.80	234.42
775.12	234.33
775.45	234.28
775.77	234.21
776.09	234.11
776.42	234.08
776.74	234.01
777.07	233.94
777.39	233.88
777.72	233.79
778.04	233.70
778.36	233.60
778.69	233.54
779.01	233.48
779.33	233.36
779.66	233.20
779.98	233.14
780.31	233.07
780.63	233.05
780.95	233.03
781.28	232.99
781.60	232.92
781.92	232.87
782.25	232.81
782.57	232.75
782.89	232.69
783.22	232.59
783.54	232.54
783.86	232.48
784.19	232.41
784.51	232.38
784.83	232.33
785.16	232.29
785.48	232.24
785.80	232.19
786.12	232.15
786.45	232.09
786.77	232.07
787.09	232.03
787.42	231.95
787.74	231.90
788.06	231.90
788.38	231.86
788.71	231.80
789.03	231.77
789.35	231.75
789.67	231.70
789.99	231.65
790.32	231.60
790.64	231.59
790.96	231.64
791.28	231.60
791.61	231.54
791.93	231.49
792.25	231.46
792.57	231.48
792.89	231.42
793.21	231.40
793.54	231.36
793.86	231.32
794.18	231.30
794.50	231.25
794.82	231.18
795.14	231.19
795.47	231.21
795.79	231.20
796.11	231.13
796.43	231.12
796.75	231.11
797.07	231.09
797.39	231.07
797.71	230.99
798.04	230.96
798.36	230.93
798.68	230.90
799.00	230.89
799.32	230.81
799.64	230.78
799.96	230.78
800.28	230.76
800.60	230.75
800.92	230.71
801.24	230.67
801.56	230.67
801.89	230.62
802.21	230.56
802.53	230.48
802.85	230.47
803.17	230.49
803.49	230.44
803.81	230.38
804.13	230.29
804.45	230.24
804.77	230.19
805.09	230.19
805.41	230.16
805.73	230.08
806.05	230.02
806.37	229.97
806.69	229.88
807.01	229.81
807.33	229.76
807.65	229.71
807.97	229.72
808.28	229.64
808.60	229.59
808.92	229.57
809.24	229.62
809.56	229.58
809.88	229.52
810.20	229.50
810.52	229.50
810.84	229.47
811.16	229.39
811.48	229.35
811.80	229.33
812.12	229.30
812.43	229.30
812.75	229.27
813.07	229.24
813.39	229.22
813.71	229.20
814.03	229.15
814.35	229.11
814.67	229.06
814.98	229.03
815.30	229.02
815.62	228.95
815.94	228.88
816.26	228.88
816.58	228.83
816.89	228.80
817.21	228.74
817.53	228.73
817.85	228.74
818.17	228.72
818.48	228.66
818.80	228.65
819.12	228.62
819.44	228.59
819.76	228.56
820.07	228.55
820.39	228.55
820.71	228.55
821.03	228.53
821.34	228.50
821.66	228.48
821.98	228.50
822.30	228.49
822.61	228.49
822.93	228.45
823.25	228.42
823.57	228.43
823.88	228.45
824.20	228.45
824.52	228.47
824.83	228.45
825.15	228.44
825.47	228.43
825.79	228.43
826.10	228.44
826.42	228.44
826.74	228.45
827.05	228.39
827.37	228.38
827.69	228.37
828.00	228.38
828.32	228.39
828.64	228.38
828.95	228.42
829.27	228.42
829.58	228.38
829.90	228.41
830.22	228.42
830.53	228.39
830.85	228.38
831.17	228.36
831.48	228.36
831.80	228.39
832.11	228.36
832.43	228.35
832.75	228.32
833.06	228.37
833.38	228.35
833.69	228.37
834.01	228.39
834.32	228.40
834.64	228.41
834.96	228.41
835.27	228.39
835.59	228.37
835.90	228.35
836.22	228.39
836.53	228.37
836.85	228.34
837.16	228.45
837.48	228.45
837.79	228.48
838.11	228.47
838.42	228.46
838.74	228.51
839.05	228.51
839.37	228.53
839.68	228.47
840.00	228.48
840.31	228.50
840.63	228.45
840.94	228.46
841.26	228.41
841.57	228.42
841.88	228.42
842.20	228.39
842.51	228.36
842.83	228.33
843.14	228.41
843.46	228.41
843.77	228.32
844.08	228.31
844.40	228.27
844.71	228.25
845.03	228.23
845.34	228.19
845.65	228.16
845.97	228.14
846.28	228.12
846.60	228.08
846.91	228.06
847.22	228.08
847.54	228.03
847.85	228.03
848.16	227.97
848.48	227.93
848.79	227.96
849.10	227.97
849.42	227.95
849.73	227.86
850.04	227.83
850.36	227.82
850.67	227.80
850.98	227.82
851.30	227.82
851.61	227.79
851.92	227.76
852.23	227.79
852.55	227.81
852.86	227.84
853.17	227.83
853.49	227.84
853.80	227.84
854.11	227.85
854.42	227.84
854.74	227.84
855.05	227.84
855.36	227.79
855.67	227.75
855.99	227.76
856.30	227.82
856.61	227.80
856.92	227.74
857.23	227.74
857.55	227.67
857.86	227.66
858.17	227.70
858.48	227.67
858.79	227.64
859.11	227.64
859.42	227.60
859.73	227.59
860.04	227.54
860.35	227.51
860.66	227.48
860.98	227.45
861.29	227.46
861.60	227.44
861.91	227.49
862.22	227.45
862.53	227.43
862.84	227.32
863.16	227.36
863.47	227.36
863.78	227.35
864.09	227.39
864.40	227.38
864.71	227.34
865.02	227.39
865.33	227.39
865.64	227.34
865.95	227.36
866.27	227.44
866.58	227.45
866.89	227.47
867.20	227.49
867.51	227.52
867.82	227.52
868.13	227.56
868.44	227.50
868.75	227.56
869.06	227.58
869.37	227.61
869.68	227.57
869.99	227.61
870.30	227.63
870.61	227.60
870.92	227.60
871.23	227.59
871.54	227.59
871.85	227.62
872.16	227.65
872.47	227.65
872.78	227.59
873.09	227.63
873.40	227.66
873.71	227.66
874.02	227.69
874.33	227.68
874.64	227.70
874.95	227.75
875.26	227.78
875.56	227.80
875.87	227.79
876.18	227.83
876.49	227.94
876.80	227.97
877.11	227.99
877.42	228.01
877.73	228.04
878.04	228.05
878.35	228.04
878.66	228.05
878.96	228.05
879.27	228.05
879.58	228.01
879.89	227.97
880.20	228.02
880.51	228.02
880.82	228.06
881.12	228.04
881.43	227.99
881.74	227.94
882.05	227.90
882.36	227.92
882.67	227.89
882.97	227.76
883.28	227.74
883.59	227.71
883.90	227.71
884.21	227.70
884.51	227.69
884.82	227.65
885.13	227.64
885.44	227.65
885.74	227.63
886.05	227.64
886.36	227.65
886.67	227.56
886.98	227.56
887.28	227.51
887.59	227.48
887.90	227.48
888.20	227.48
888.51	227.49
888.82	227.46
889.13	227.47
889.43	227.56
889.74	227.52
890.05	227.52
890.35	227.53
890.66	227.47
890.97	227.44
891.28	227.43
891.58	227.42
891.89	227.39
892.20	227.38
892.50	227.37
892.81	227.34
893.12	227.33
893.42	227.29
893.73	227.30
894.04	227.29
894.34	227.25
894.65	227.24
894.95	227.22
895.26	227.19
895.57	227.23
895.87	227.14
896.18	227.13
896.48	227.15
896.79	227.13
897.10	227.17
897.40	227.17
897.71	227.16
898.01	227.12
898.32	227.13
898.63	227.15
898.93	227.10
899.24	227.09
899.54	227.08
899.85	227.08
900.15	227.07
900.46	227.06
900.76	227.13
901.07	227.12
901.38	227.11
901.68	227.09
901.99	227.04
902.29	227.02
902.60	227.00
902.90	226.97
903.21	226.93
903.51	226.91
903.82	226.92
904.12	226.94
904.43	226.95
904.73	226.93
905.03	226.89
905.34	227.03
905.64	227.03
905.95	227.04
906.25	227.04
906.56	227.04
906.86	227.04
907.17	227.01
907.47	227.02
907.77	227.01
908.08	227.05
908.38	227.07
908.69	227.08
908.99	227.11
909.30	227.16
909.60	227.20
909.90	227.20
910.21	227.19
910.51	227.20
910.81	227.24
911.12	227.29
911.42	227.31
911.73	227.21
912.03	227.25
912.33	227.28
912.64	227.30
912.94	227.30
913.24	227.30
913.55	227.31
913.85	227.36
914.15	227.42
914.46	227.42
914.76	227.44
915.06	227.47
915.37	227.49
915.67	227.50
915.97	227.53
916.27	227.52
916.58	227.53
916.88	227.55
917.18	227.54
917.49	227.61
917.79	227.62
918.09	227.65
918.39	227.69
918.70	227.72
919.00	227.72
919.30	227.78
919.60	227.80
919.91	227.76
920.21	227.72
920.51	227.70
920.81	227.71
921.12	227.72
921.42	227.69
921.72	227.67
922.02	227.63
922.32	227.60
922.63	227.62
922.93	227.68
923.23	227.66
923.53	227.61
923.83	227.56
924.13	227.55
924.44	227.54
924.74	227.53
925.04	227.52
925.34	227.51
925.64	227.45
925.94	227.44
926.24	227.52
926.55	227.50
926.85	227.49
927.15	227.47
927.45	227.46
927.75	227.45
928.05	227.42
928.35	227.41
928.65	227.44
928.95	227.43
929.26	227.38
929.56	227.40
929.86	227.43
930.16	227.38
930.46	227.34
930.76	227.34
931.06	227.29
931.36	227.24
931.66	227.25
931.96	227.25
932.26	227.23
932.56	227.20
932.86	227.21
933.16	227.23
933.46	227.22
933.76	227.18
934.06	227.21
934.36	227.25
934.66	227.29
934.96	227.25
935.26	227.26
935.56	227.24
935.86	227.19
936.16	227.18
936.46	227.15
936.76	227.16
937.06	227.11
937.36	227.10
937.66	227.10
937.96	227.10
938.26	227.09
938.56	227.08
938.86	227.05
939.16	227.11
939.46	227.09
939.76	227.11
940.06	227.08
940.35	227.04
940.65	227.01
940.95	227.00
941.25	227.00
941.55	227.02
941.85	227.05
942.15	227.07
942.45	227.12
942.75	227.15
943.04	227.16
943.34	227.20
943.64	227.19
943.94	227.19
944.24	227.22
944.54	227.22
944.84	227.25
945.13	227.24
945.43	227.19
945.73	227.16
946.03	227.17
946.33	227.21
946.62	227.21
946.92	227.23
947.22	227.25
947.52	227.26
947.82	227.28
948.11	227.26
948.41	227.27
948.71	227.25
949.01	227.23
949.31	227.26
949.60	227.28
949.90	227.34
950.20	227.33
950.50	227.34
950.79	227.34
951.09	227.36
951.39	227.36
951.69	227.37
951.98	227.42
952.28	227.40
952.58	227.40
952.87	227.43
953.17	227.44
953.47	227.42
953.76	227.44
954.06	227.41
954.36	227.42
954.66	227.40
954.95	227.43
955.25	227.47
955.55	227.48
955.84	227.48
956.14	227.46
956.44	227.49
956.73	227.47
957.03	227.49
957.32	227.48
957.62	227.50
957.92	227.52
958.21	227.50
958.51	227.66
958.81	227.65
959.10	227.65
959.40	227.67
959.69	227.69
959.99	227.69
960.29	227.68
960.58	227.68
960.88	227.71
961.17	227.70
961.47	227.69
961.76	227.65
962.06	227.61
962.36	227.63
962.65	227.61
962.95	227.60
963.24	227.57
963.54	227.56
963.83	227.53
964.13	227.51
964.42	227.48
964.72	227.36
965.01	227.33
965.31	227.30
965.60	227.25
965.90	227.28
966.19	227.27
966.49	227.22
966.78	227.20
967.08	227.17
967.37	227.16
967.67	227.11
967.96	227.13
968.26	227.13
968.55	227.11
968.85	227.10
969.14	227.06
969.43	227.06
969.73	227.05
970.02	227.02
970.32	226.98
970.61	226.96
970.91	226.93
971.20	226.92
971.49	226.90
971.79	226.91
972.08	226.82
972.38	226.77
972.67	226.76
972.96	226.75
973.26	226.72
973.55	226.73
973.85	226.72
974.14	226.69
974.43	226.73
974.73	226.73
975.02	226.69
975.31	226.72
975.61	226.72
975.90	226.69
976.19	226.69
976.49	226.72
976.78	226.71
977.07	226.72
977.37	226.75
977.66	226.74
977.95	226.70
978.24	226.72
978.54	226.76
978.83	226.77
979.12	226.78
979.42	226.80
979.71	226.80
980.00	226.82
980.29	226.82
980.59	226.76
980.88	226.78
981.17	226.81
981.46	226.78
981.76	226.77
982.05	226.83
982.34	226.86
982.63	226.86
982.93	226.88
983.22	226.89
983.51	226.89
983.80	226.95
984.09	227.00
984.39	227.00
984.68	227.01
984.97	227.04
985.26	227.04
985.55	227.08
985.85	227.06
986.14	227.09
986.43	227.11
986.72	227.15
987.01	227.11
987.30	227.10
987.59	227.12
987.89	227.16
988.18	227.13
988.47	227.13
988.76	227.15
989.05	227.16
989.34	227.13
989.63	227.17
989.92	227.15
990.22	227.12
990.51	227.13
990.80	227.12
991.09	227.14
991.38	227.15
991.67	227.11
991.96	227.10
992.25	227.11
992.54	227.11
992.83	227.08
993.12	227.09
993.41	227.11
993.70	227.15
993.99	227.13
994.28	227.13
994.58	227.18
994.87	227.16
995.16	227.15
995.45	227.16
995.74	227.11
996.03	227.11
996.32	227.10
996.61	227.14
996.90	227.14
997.19	227.14
997.48	227.17
997.77	227.17
998.06	227.14
998.34	227.12
998.63	227.12
998.92	227.14
999.21	227.15
999.50	227.13
999.79	227.11
1000.08	227.13
1000.37	227.14
1000.66	227.09
1000.95	227.10
1001.24	227.13
1001.53	227.14
1001.82	227.14
1002.11	227.10
1002.40	227.15
1002.68	227.16
1002.97	227.23
1003.26	227.19
1003.55	227.15
1003.84	227.15
1004.13	227.19
1004.42	227.20
1004.71	227.19
1004.99	227.14
1005.28	227.15
1005.57	227.13
1005.86	227.13
1006.15	227.07
1006.44	227.03
1006.72	227.02
1007.01	227.01
1007.30	226.97
1007.59	226.97
1007.88	226.97
1008.17	226.97
1008.45	226.93
1008.74	226.87
1009.03	226.81
1009.32	226.80
1009.60	226.77
1009.89	226.74
1010.18	226.72
1010.47	226.65
1010.76	226.65
1011.04	226.68
1011.33	226.68
1011.62	226.69
1011.91	226.69
1012.19	226.70
1012.48	226.73
1012.77	226.75
1013.05	226.81
1013.34	226.80
1013.63	226.78
1013.92	226.78
1014.20	226.80
1014.49	226.77
1014.78	226.78
1015.06	226.78
1015.35	226.75
1015.64	226.80
1015.92	226.83
1016.21	226.83
1016.50	226.88
1016.78	226.87
1017.07	226.89
1017.36	226.86
1017.64	226.84
1017.93	226.86
1018.22	226.87
1018.50	226.87
1018.79	226.87
1019.08	226.80
1019.36	226.83
1019.65	226.87
1019.93	226.86
1020.22	226.83
1020.51	226.91
1020.79	226.89
1021.08	227.00
1021.36	226.99
1021.65	226.88
1021.94	226.88
1022.22	226.96
1022.51	227.29
1022.79	226.82
1023.08	226.27
1023.36	228.12
1023.65	226.51
>>>>>End Processed Spectral Data<<<<<
