SpectraSuite Data File
++++++++++++++++++++++++++++++++++++
Date: Mon Feb 25 17:13:52 EST 2013
User: group
Dark Spectrum Present: No
Reference Spectrum Present: No
Number of Sampled Component Spectra: 1
Spectrometers: USB2E7196
Integration Time (usec): 104000 (USB2E7196)
Spectra Averaged: 20 (USB2E7196)
Boxcar Smoothing: 10 (USB2E7196)
Correct for Electrical Dark: No (USB2E7196)
Strobe/Lamp Enabled: No (USB2E7196)
Correct for Detector Non-linearity: No (USB2E7196)
Correct for Stray Light: No (USB2E7196)
Number of Pixels in Processed Spectrum: 2048
>>>>>Begin Processed Spectral Data<<<<<
339.09	0.00
339.48	197.60
339.86	200.10
340.24	202.30
340.63	203.65
341.01	208.30
341.39	205.05
341.78	206.80
342.16	209.40
342.54	207.00
342.93	198.20
343.31	208.25
343.69	208.84
344.07	209.33
344.46	209.84
344.84	210.26
345.22	210.37
345.60	210.70
345.99	210.95
346.37	211.03
346.75	211.24
347.13	211.39
347.52	211.46
347.90	211.63
348.28	211.63
348.66	211.82
349.05	211.72
349.43	211.79
349.81	211.89
350.19	212.02
350.57	212.08
350.96	212.22
351.34	212.27
351.72	212.40
352.10	212.52
352.48	212.50
352.87	212.46
353.25	212.59
353.63	212.59
354.01	212.58
354.39	212.78
354.77	212.89
355.15	213.03
355.54	213.08
355.92	213.07
356.30	213.18
356.68	213.36
357.06	213.46
357.44	213.53
357.82	213.58
358.20	213.59
358.58	213.58
358.97	213.63
359.35	213.85
359.73	213.95
360.11	213.93
360.49	214.02
360.87	214.09
361.25	214.15
361.63	214.34
362.01	214.43
362.39	214.32
362.77	214.35
363.15	214.31
363.53	214.35
363.91	214.40
364.29	214.33
364.67	214.07
365.05	214.03
365.43	214.00
365.81	214.02
366.19	214.15
366.57	214.27
366.95	214.31
367.33	214.15
367.71	214.19
368.09	214.30
368.47	214.25
368.85	214.26
369.23	214.28
369.61	214.05
369.99	214.14
370.37	214.20
370.75	214.32
371.13	214.16
371.51	214.02
371.89	213.96
372.27	214.06
372.65	214.01
373.03	214.04
373.41	214.00
373.78	213.88
374.16	213.72
374.54	213.59
374.92	213.50
375.30	213.42
375.68	213.23
376.06	213.14
376.44	213.10
376.82	213.09
377.19	212.98
377.57	213.03
377.95	212.83
378.33	212.75
378.71	212.47
379.09	212.55
379.47	212.59
379.84	212.54
380.22	212.37
380.60	212.25
380.98	212.16
381.36	212.11
381.73	212.07
382.11	212.10
382.49	212.02
382.87	211.89
383.25	211.84
383.62	212.21
384.00	212.09
384.38	212.05
384.76	212.06
385.13	212.22
385.51	212.14
385.89	212.12
386.27	212.10
386.64	212.16
387.02	212.11
387.40	212.00
387.78	211.97
388.15	212.01
388.53	211.95
388.91	211.92
389.29	211.86
389.66	211.95
390.04	211.84
390.42	211.93
390.79	212.03
391.17	212.05
391.55	211.64
391.92	211.64
392.30	211.61
392.68	211.54
393.05	211.52
393.43	211.55
393.81	211.55
394.18	211.50
394.56	211.45
394.94	211.50
395.31	211.55
395.69	211.71
396.06	211.75
396.44	211.86
396.82	211.85
397.19	212.10
397.57	212.00
397.95	212.08
398.32	212.00
398.70	211.95
399.07	212.02
399.45	212.07
399.82	212.14
400.20	212.14
400.58	212.09
400.95	211.92
401.33	211.98
401.70	212.22
402.08	212.33
402.45	212.39
402.83	212.51
403.20	212.59
403.58	212.58
403.95	212.61
404.33	212.65
404.71	212.75
405.08	212.95
405.46	213.05
405.83	213.13
406.21	213.18
406.58	213.31
406.96	213.37
407.33	213.48
407.70	213.55
408.08	214.04
408.45	214.25
408.83	214.50
409.20	214.63
409.58	214.63
409.95	214.80
410.33	215.05
410.70	215.11
411.08	215.33
411.45	215.53
411.82	215.81
412.20	216.21
412.57	216.73
412.95	216.73
413.32	217.22
413.69	217.63
414.07	218.04
414.44	218.55
414.82	219.07
415.19	219.65
415.56	220.26
415.94	220.63
416.31	221.38
416.68	222.02
417.06	222.83
417.43	223.72
417.81	224.59
418.18	225.50
418.55	226.51
418.93	227.54
419.30	228.59
419.67	229.71
420.04	230.82
420.42	231.83
420.79	233.55
421.16	234.82
421.54	236.39
421.91	237.95
422.28	239.50
422.66	241.07
423.03	242.86
423.40	244.53
423.77	246.27
424.15	247.90
424.52	249.71
424.89	251.70
425.26	253.59
425.64	255.38
426.01	257.35
426.38	259.43
426.75	261.61
427.13	263.84
427.50	266.12
427.87	268.45
428.24	270.83
428.61	272.84
428.99	275.55
429.36	278.09
429.73	280.75
430.10	283.48
430.47	286.36
430.85	289.07
431.22	292.09
431.59	295.39
431.96	298.49
432.33	301.85
432.70	305.06
433.08	308.76
433.45	312.35
433.82	315.95
434.19	320.06
434.56	324.06
434.93	327.82
435.30	331.55
435.68	335.72
436.05	339.85
436.42	343.85
436.79	347.48
437.16	351.39
437.53	355.56
437.90	359.51
438.27	363.50
438.64	367.58
439.01	371.59
439.38	375.01
439.75	378.39
440.13	382.33
440.50	385.97
440.87	389.03
441.24	392.12
441.61	395.44
441.98	397.80
442.35	400.58
442.72	403.38
443.09	406.27
443.46	407.93
443.83	409.00
444.20	409.97
444.57	411.27
444.94	412.00
445.31	412.74
445.68	413.76
446.05	413.99
446.42	413.67
446.79	413.09
447.16	412.44
447.53	412.07
447.90	410.44
448.27	408.88
448.64	406.66
449.01	405.07
449.37	402.42
449.74	399.66
450.11	396.69
450.48	393.20
450.85	389.48
451.22	386.40
451.59	383.57
451.96	380.77
452.33	377.09
452.70	373.71
453.07	369.65
453.43	365.35
453.80	361.48
454.17	357.71
454.54	354.10
454.91	350.23
455.28	346.42
455.65	342.87
456.02	339.82
456.38	336.78
456.75	333.15
457.12	329.88
457.49	326.91
457.86	323.73
458.23	321.33
458.59	318.58
458.96	315.85
459.33	313.28
459.70	310.98
460.07	309.10
460.43	306.83
460.80	304.75
461.17	302.96
461.54	300.99
461.91	299.16
462.27	297.30
462.64	295.76
463.01	294.06
463.38	292.63
463.74	290.50
464.11	289.03
464.48	287.71
464.85	286.40
465.21	285.39
465.58	284.30
465.95	282.79
466.32	281.77
466.68	280.61
467.05	279.61
467.42	278.38
467.78	277.16
468.15	276.12
468.52	275.31
468.88	274.20
469.25	273.23
469.62	272.45
469.98	271.69
470.35	270.95
470.72	270.31
471.08	269.35
471.45	268.78
471.82	268.34
472.18	267.75
472.55	267.27
472.92	266.61
473.28	266.11
473.65	265.72
474.02	265.25
474.38	265.00
474.75	264.79
475.11	264.49
475.48	264.30
475.85	264.13
476.21	263.94
476.58	263.70
476.94	263.71
477.31	263.70
477.67	263.54
478.04	263.51
478.41	263.58
478.77	263.98
479.14	263.97
479.50	263.93
479.87	264.08
480.23	264.25
480.60	264.47
480.96	264.62
481.33	265.05
481.69	265.40
482.06	265.67
482.42	265.98
482.79	266.31
483.15	266.81
483.52	267.40
483.88	267.91
484.25	268.65
484.61	269.21
484.98	269.84
485.34	270.78
485.71	271.69
486.07	272.58
486.44	273.13
486.80	274.19
487.17	275.23
487.53	276.48
487.90	277.74
488.26	279.10
488.62	280.53
488.99	281.90
489.35	283.39
489.72	284.95
490.08	286.48
490.44	288.29
490.81	290.16
491.17	292.05
491.54	294.21
491.90	296.27
492.26	298.58
492.63	300.90
492.99	303.24
493.36	305.84
493.72	308.60
494.08	311.53
494.45	314.54
494.81	317.79
495.17	321.01
495.54	324.44
495.90	327.88
496.26	331.59
496.63	335.34
496.99	339.30
497.35	343.47
497.72	347.87
498.08	352.35
498.44	356.87
498.80	361.84
499.17	366.89
499.53	372.02
499.89	377.52
500.26	382.94
500.62	388.63
500.98	394.66
501.34	400.75
501.71	407.21
502.07	413.74
502.43	420.30
502.79	427.05
503.16	434.11
503.52	441.61
503.88	449.04
504.24	456.86
504.60	464.72
504.97	472.86
505.33	481.17
505.69	490.10
506.05	499.00
506.41	507.84
506.78	516.67
507.14	526.01
507.50	535.36
507.86	545.37
508.22	555.43
508.59	565.39
508.95	575.65
509.31	586.31
509.67	597.19
510.03	608.36
510.39	619.93
510.75	631.55
511.12	643.15
511.48	655.07
511.84	667.19
512.20	679.52
512.56	692.13
512.92	704.99
513.28	717.65
513.64	730.58
514.00	743.66
514.37	757.00
514.73	770.48
515.09	784.22
515.45	797.96
515.81	811.81
516.17	825.57
516.53	839.70
516.89	853.60
517.25	867.56
517.61	881.94
517.97	896.06
518.33	910.05
518.69	924.41
519.05	938.96
519.41	953.46
519.77	968.28
520.13	982.63
520.49	996.95
520.85	1011.49
521.21	1026.27
521.57	1041.17
521.93	1055.67
522.29	1070.82
522.65	1085.65
523.01	1100.27
523.37	1114.79
523.73	1129.79
524.09	1144.40
524.45	1159.21
524.81	1173.90
525.17	1188.60
525.53	1203.26
525.89	1218.15
526.25	1232.90
526.61	1246.91
526.97	1261.33
527.33	1275.38
527.68	1290.07
528.04	1304.01
528.40	1317.68
528.76	1331.48
529.12	1345.43
529.48	1360.07
529.84	1373.61
530.20	1387.34
530.56	1400.92
530.91	1415.07
531.27	1429.07
531.63	1442.47
531.99	1455.64
532.35	1468.58
532.71	1481.13
533.07	1494.13
533.42	1506.81
533.78	1519.30
534.14	1531.84
534.50	1543.24
534.86	1555.33
535.21	1566.30
535.57	1578.28
535.93	1589.75
536.29	1601.01
536.65	1611.95
537.00	1621.96
537.36	1632.08
537.72	1641.87
538.08	1652.02
538.44	1661.64
538.79	1671.00
539.15	1680.61
539.51	1689.98
539.87	1700.10
540.22	1709.10
540.58	1718.65
540.94	1727.52
541.29	1735.51
541.65	1743.45
542.01	1752.08
542.37	1759.84
542.72	1768.06
543.08	1774.91
543.44	1782.78
543.79	1789.43
544.15	1795.84
544.51	1803.15
544.87	1810.20
545.22	1816.57
545.58	1822.29
545.94	1827.36
546.29	1832.20
546.65	1836.66
547.01	1841.14
547.36	1845.09
547.72	1849.31
548.07	1852.45
548.43	1855.72
548.79	1859.00
549.14	1862.39
549.50	1865.39
549.86	1867.66
550.21	1869.92
550.57	1872.67
550.92	1874.03
551.28	1875.99
551.64	1877.93
551.99	1879.43
552.35	1880.66
552.70	1881.87
553.06	1883.48
553.41	1884.80
553.77	1885.88
554.13	1887.04
554.48	1888.33
554.84	1889.16
555.19	1889.57
555.55	1889.62
555.90	1889.31
556.26	1889.24
556.61	1889.03
556.97	1888.22
557.32	1888.23
557.68	1887.32
558.03	1886.44
558.39	1885.98
558.74	1885.53
559.10	1884.94
559.45	1883.70
559.81	1882.70
560.16	1881.45
560.52	1879.94
560.87	1878.40
561.23	1876.43
561.58	1875.26
561.94	1872.89
562.29	1870.22
562.64	1868.39
563.00	1866.70
563.35	1865.31
563.71	1864.01
564.06	1862.22
564.42	1860.61
564.77	1858.73
565.12	1857.13
565.48	1855.36
565.83	1853.40
566.19	1851.42
566.54	1848.59
566.89	1845.90
567.25	1843.53
567.60	1840.94
567.96	1838.11
568.31	1835.62
568.66	1833.01
569.02	1829.29
569.37	1825.84
569.72	1822.92
570.08	1819.52
570.43	1815.62
570.78	1811.66
571.14	1807.31
571.49	1802.97
571.84	1799.38
572.20	1794.81
572.55	1790.70
572.90	1786.18
573.26	1781.06
573.61	1776.13
573.96	1771.48
574.31	1766.39
574.67	1760.79
575.02	1755.32
575.37	1749.95
575.72	1744.00
576.08	1739.06
576.43	1733.65
576.78	1728.50
577.13	1723.58
577.49	1718.43
577.84	1713.37
578.19	1708.68
578.54	1704.15
578.90	1699.54
579.25	1693.93
579.60	1688.74
579.95	1682.85
580.30	1677.78
580.66	1673.12
581.01	1667.61
581.36	1661.80
581.71	1656.32
582.06	1651.26
582.42	1646.06
582.77	1640.52
583.12	1635.22
583.47	1629.98
583.82	1625.21
584.17	1620.24
584.53	1615.15
584.88	1609.90
585.23	1604.39
585.58	1598.87
585.93	1593.08
586.28	1587.89
586.63	1582.30
586.98	1576.99
587.34	1572.24
587.69	1566.72
588.04	1561.34
588.39	1556.20
588.74	1550.86
589.09	1546.20
589.44	1540.73
589.79	1535.98
590.14	1531.05
590.49	1525.87
590.84	1520.49
591.19	1515.51
591.54	1510.35
591.89	1503.96
592.25	1498.75
592.60	1493.22
592.95	1487.23
593.30	1481.27
593.65	1475.09
594.00	1469.70
594.35	1465.59
594.70	1459.93
595.05	1454.72
595.40	1449.19
595.75	1443.36
596.10	1438.61
596.45	1433.46
596.80	1428.60
597.15	1423.49
597.50	1418.05
597.85	1413.38
598.19	1407.93
598.54	1402.70
598.89	1397.50
599.24	1393.57
599.59	1388.82
599.94	1384.45
600.29	1380.09
600.64	1375.49
600.99	1370.53
601.34	1365.75
601.69	1359.77
602.04	1354.71
602.39	1349.63
602.74	1345.04
603.08	1341.06
603.43	1336.96
603.78	1332.17
604.13	1327.55
604.48	1322.89
604.83	1319.21
605.18	1315.22
605.53	1310.65
605.87	1305.59
606.22	1301.15
606.57	1296.05
606.92	1290.85
607.27	1285.99
607.62	1281.00
607.96	1276.65
608.31	1272.54
608.66	1267.50
609.01	1262.34
609.36	1257.47
609.70	1252.31
610.05	1246.89
610.40	1241.46
610.75	1235.43
611.10	1230.45
611.44	1224.16
611.79	1218.21
612.14	1211.84
612.49	1205.24
612.83	1199.73
613.18	1193.74
613.53	1187.81
613.88	1181.60
614.22	1175.95
614.57	1169.98
614.92	1164.04
615.27	1157.88
615.61	1151.75
615.96	1146.31
616.31	1140.82
616.65	1135.56
617.00	1130.05
617.35	1124.59
617.70	1118.68
618.04	1112.82
618.39	1106.45
618.74	1101.26
619.08	1095.55
619.43	1090.01
619.78	1084.52
620.12	1078.85
620.47	1073.55
620.82	1067.42
621.16	1061.86
621.51	1056.05
621.85	1050.41
622.20	1044.96
622.55	1039.34
622.89	1033.65
623.24	1027.74
623.59	1021.86
623.93	1016.03
624.28	1010.61
624.62	1005.29
624.97	1000.01
625.32	995.04
625.66	989.87
626.01	984.55
626.35	979.65
626.70	974.33
627.04	969.45
627.39	964.37
627.73	959.40
628.08	954.95
628.43	949.67
628.77	944.82
629.12	939.70
629.46	935.05
629.81	930.18
630.15	925.25
630.50	920.28
630.84	915.43
631.19	910.41
631.53	905.46
631.88	900.01
632.22	894.65
632.57	889.99
632.91	885.13
633.26	880.08
633.60	874.95
633.95	870.24
634.29	865.22
634.64	860.51
634.98	855.50
635.32	850.77
635.67	846.53
636.01	841.91
636.36	837.25
636.70	832.63
637.05	828.07
637.39	823.66
637.73	819.65
638.08	815.60
638.42	811.60
638.77	807.29
639.11	803.18
639.45	799.07
639.80	794.06
640.14	789.48
640.49	785.09
640.83	780.79
641.17	776.35
641.52	771.92
641.86	767.26
642.20	762.95
642.55	758.08
642.89	753.57
643.23	748.83
643.58	744.77
643.92	740.03
644.26	735.69
644.61	731.37
644.95	726.80
645.29	722.41
645.64	717.81
645.98	713.41
646.32	709.10
646.66	704.74
647.01	700.72
647.35	696.63
647.69	692.30
648.04	687.98
648.38	683.93
648.72	679.88
649.06	675.78
649.41	671.75
649.75	667.84
650.09	663.77
650.43	659.76
650.78	655.26
651.12	651.13
651.46	647.08
651.80	643.18
652.14	639.20
652.49	635.06
652.83	630.94
653.17	626.84
653.51	622.78
653.85	619.04
654.20	615.01
654.54	611.00
654.88	607.16
655.22	603.46
655.56	599.35
655.90	595.30
656.25	591.46
656.59	587.58
656.93	583.85
657.27	580.23
657.61	576.27
657.95	572.78
658.29	569.22
658.64	565.67
658.98	561.74
659.32	557.96
659.66	554.29
660.00	550.81
660.34	547.23
660.68	543.57
661.02	540.04
661.36	536.68
661.70	533.42
662.05	530.15
662.39	526.95
662.73	523.93
663.07	520.99
663.41	517.90
663.75	514.73
664.09	511.50
664.43	508.20
664.77	505.40
665.11	502.21
665.45	499.20
665.79	496.13
666.13	493.34
666.47	490.37
666.81	487.49
667.15	484.60
667.49	481.92
667.83	479.40
668.17	476.62
668.51	473.95
668.85	471.34
669.19	468.87
669.53	466.05
669.87	463.32
670.21	460.50
670.55	457.80
670.89	455.56
671.23	453.23
671.57	450.85
671.91	448.32
672.25	445.99
672.58	443.68
672.92	441.30
673.26	438.98
673.60	436.92
673.94	434.66
674.28	432.25
674.62	430.09
674.96	427.75
675.30	425.54
675.64	423.20
675.97	421.06
676.31	418.85
676.65	416.86
676.99	414.96
677.33	412.96
677.67	410.98
678.01	408.64
678.34	406.56
678.68	404.51
679.02	402.48
679.36	400.41
679.70	398.34
680.04	396.29
680.37	394.37
680.71	392.31
681.05	390.48
681.39	388.82
681.73	386.87
682.06	385.18
682.40	383.38
682.74	381.72
683.08	379.95
683.42	378.02
683.75	376.28
684.09	374.47
684.43	372.73
684.77	370.93
685.10	369.17
685.44	367.31
685.78	365.56
686.12	363.97
686.45	362.43
686.79	360.79
687.13	359.38
687.46	357.70
687.80	356.21
688.14	354.46
688.48	352.80
688.81	351.14
689.15	349.59
689.49	348.03
689.82	346.36
690.16	344.55
690.50	343.00
690.83	341.36
691.17	339.70
691.51	338.06
691.84	336.71
692.18	335.32
692.52	334.07
692.85	332.82
693.19	331.56
693.52	330.09
693.86	328.71
694.20	327.28
694.53	326.02
694.87	324.60
695.21	323.32
695.54	321.95
695.88	320.70
696.21	319.24
696.55	317.97
696.88	316.75
697.22	315.63
697.56	314.58
697.89	313.41
698.23	312.34
698.56	311.38
698.90	310.31
699.23	309.13
699.57	307.93
699.90	306.70
700.24	305.43
700.58	304.34
700.91	303.31
701.25	302.42
701.58	301.39
701.92	300.27
702.25	299.30
702.59	298.27
702.92	297.28
703.26	296.32
703.59	295.35
703.93	294.69
704.26	293.65
704.60	292.61
704.93	291.65
705.26	290.60
705.60	289.64
705.93	288.54
706.27	287.80
706.60	287.03
706.94	286.28
707.27	285.35
707.61	284.48
707.94	283.59
708.27	282.50
708.61	281.52
708.94	280.82
709.28	279.93
709.61	279.10
709.94	278.31
710.28	277.51
710.61	276.78
710.95	275.71
711.28	275.12
711.61	274.40
711.95	273.65
712.28	272.89
712.61	272.09
712.95	271.63
713.28	271.01
713.61	270.30
713.95	269.53
714.28	268.89
714.61	268.17
714.95	267.52
715.28	266.86
715.61	266.23
715.95	265.62
716.28	264.99
716.61	264.38
716.95	263.72
717.28	263.14
717.61	262.52
717.94	261.98
718.28	261.28
718.61	260.67
718.94	260.18
719.27	259.61
719.61	259.17
719.94	258.46
720.27	257.70
720.60	257.06
720.94	256.55
721.27	256.05
721.60	255.63
721.93	255.05
722.27	254.69
722.60	254.24
722.93	253.65
723.26	253.17
723.59	252.71
723.93	252.37
724.26	251.99
724.59	251.48
724.92	251.05
725.25	250.81
725.59	250.41
725.92	250.05
726.25	249.63
726.58	249.20
726.91	248.83
727.24	248.47
727.57	248.15
727.91	247.69
728.24	247.43
728.57	247.03
728.90	246.76
729.23	246.26
729.56	246.09
729.89	245.78
730.22	245.48
730.55	245.12
730.89	244.64
731.22	244.29
731.55	244.01
731.88	243.67
732.21	243.17
732.54	242.79
732.87	242.42
733.20	242.23
733.53	241.92
733.86	241.60
734.19	241.26
734.52	240.98
734.85	240.94
735.18	240.50
735.51	240.31
735.84	240.03
736.17	239.85
736.50	239.37
736.83	239.40
737.16	239.11
737.49	238.80
737.82	238.57
738.15	238.34
738.48	238.00
738.81	237.64
739.14	237.31
739.47	237.05
739.80	236.76
740.13	236.43
740.46	236.07
740.79	235.79
741.12	235.54
741.45	235.17
741.78	234.75
742.11	234.62
742.44	234.26
742.77	234.00
743.10	233.70
743.43	233.40
743.75	232.90
744.08	233.10
744.41	232.93
744.74	232.69
745.07	232.34
745.40	232.20
745.73	232.25
746.06	232.06
746.39	231.83
746.71	231.58
747.04	231.36
747.37	231.12
747.70	230.93
748.03	230.74
748.36	230.61
748.68	230.35
749.01	229.94
749.34	229.78
749.67	229.69
750.00	229.55
750.33	229.67
750.65	229.41
750.98	228.78
751.31	228.54
751.64	228.30
751.97	228.21
752.29	227.94
752.62	227.49
752.95	227.26
753.28	227.01
753.60	226.86
753.93	226.75
754.26	226.64
754.59	226.30
754.91	226.09
755.24	225.92
755.57	225.73
755.90	225.71
756.22	225.54
756.55	225.24
756.88	224.97
757.20	224.55
757.53	224.37
757.86	224.16
758.19	224.03
758.51	223.91
758.84	223.74
759.17	223.56
759.49	223.46
759.82	223.47
760.15	223.48
760.47	223.32
760.80	223.04
761.13	222.91
761.45	222.89
761.78	222.74
762.11	222.56
762.43	222.43
762.76	222.24
763.08	222.15
763.41	222.03
763.74	221.93
764.06	221.80
764.39	221.68
764.71	221.55
765.04	221.48
765.37	221.27
765.69	221.11
766.02	221.03
766.34	220.89
766.67	220.67
767.00	220.57
767.32	220.62
767.65	220.77
767.97	220.68
768.30	220.56
768.62	220.53
768.95	220.46
769.27	220.38
769.60	220.31
769.92	220.13
770.25	220.05
770.57	219.87
770.90	219.78
771.22	219.67
771.55	219.64
771.87	219.45
772.20	219.46
772.52	219.74
772.85	220.03
773.17	220.00
773.50	219.89
773.82	219.74
774.15	219.47
774.47	219.24
774.80	219.11
775.12	219.05
775.45	218.89
775.77	218.81
776.09	218.72
776.42	218.68
776.74	218.77
777.07	218.63
777.39	218.61
777.72	218.60
778.04	218.56
778.36	218.49
778.69	218.41
779.01	218.32
779.33	217.89
779.66	217.44
779.98	217.31
780.31	217.22
780.63	217.29
780.95	217.33
781.28	217.21
781.60	217.15
781.92	217.08
782.25	217.15
782.57	217.13
782.89	217.05
783.22	216.95
783.54	216.77
783.86	216.80
784.19	216.70
784.51	216.73
784.83	216.60
785.16	216.53
785.48	216.58
785.80	216.55
786.12	216.51
786.45	216.50
786.77	216.49
787.09	216.46
787.42	216.29
787.74	216.25
788.06	216.26
788.38	216.24
788.71	216.16
789.03	216.05
789.35	216.02
789.67	215.93
789.99	215.90
790.32	215.84
790.64	215.81
790.96	216.10
791.28	215.89
791.61	215.90
791.93	215.82
792.25	215.73
792.57	215.89
792.89	215.78
793.21	215.74
793.54	215.65
793.86	215.58
794.18	215.56
794.50	215.40
794.82	215.35
795.14	215.29
795.47	215.35
795.79	215.27
796.11	215.14
796.43	215.09
796.75	215.13
797.07	215.06
797.39	214.99
797.71	214.72
798.04	214.76
798.36	214.75
798.68	214.82
799.00	214.84
799.32	214.70
799.64	214.74
799.96	214.76
800.28	214.79
800.60	214.78
800.92	214.76
801.24	214.75
801.56	214.72
801.89	214.71
802.21	214.64
802.53	214.61
802.85	214.68
803.17	214.82
803.49	214.65
803.81	214.66
804.13	214.64
804.45	214.61
804.77	214.60
805.09	214.55
805.41	214.45
805.73	214.30
806.05	214.09
806.37	214.08
806.69	214.01
807.01	214.01
807.33	214.08
807.65	213.95
807.97	214.07
808.28	213.99
808.60	214.01
808.92	213.93
809.24	214.10
809.56	214.02
809.88	213.91
810.20	213.88
810.52	213.89
810.84	213.78
811.16	213.70
811.48	213.62
811.80	213.72
812.12	213.69
812.43	213.78
812.75	213.81
813.07	213.74
813.39	213.79
813.71	213.66
814.03	213.53
814.35	213.55
814.67	213.39
814.98	213.37
815.30	213.31
815.62	213.28
815.94	213.07
816.26	213.09
816.58	212.99
816.89	213.03
817.21	212.94
817.53	212.98
817.85	213.03
818.17	213.00
818.48	212.85
818.80	212.86
819.12	212.78
819.44	212.75
819.76	212.70
820.07	212.62
820.39	212.73
820.71	212.78
821.03	212.75
821.34	212.71
821.66	212.83
821.98	212.85
822.30	212.80
822.61	213.00
822.93	212.88
823.25	212.90
823.57	212.82
823.88	212.94
824.20	212.93
824.52	212.97
824.83	213.00
825.15	212.95
825.47	212.99
825.79	213.03
826.10	212.97
826.42	212.97
826.74	213.06
827.05	212.94
827.37	212.91
827.69	212.89
828.00	212.91
828.32	212.74
828.64	212.68
828.95	212.85
829.27	212.63
829.58	212.64
829.90	212.68
830.22	212.70
830.53	212.58
830.85	212.50
831.17	212.36
831.48	212.37
831.80	212.41
832.11	212.33
832.43	212.30
832.75	212.33
833.06	212.51
833.38	212.31
833.69	212.30
834.01	212.27
834.32	212.23
834.64	212.18
834.96	212.30
835.27	212.34
835.59	212.26
835.90	212.19
836.22	212.22
836.53	212.13
836.85	212.19
837.16	212.50
837.48	212.56
837.79	212.65
838.11	212.59
838.42	212.53
838.74	212.58
839.05	212.53
839.37	212.53
839.68	212.32
840.00	212.38
840.31	212.41
840.63	212.52
840.94	212.51
841.26	212.50
841.57	212.49
841.88	212.47
842.20	212.41
842.51	212.46
842.83	212.46
843.14	212.80
843.46	212.79
843.77	212.55
844.08	212.47
844.40	212.38
844.71	212.32
845.03	212.30
845.34	212.29
845.65	212.23
845.97	212.28
846.28	212.28
846.60	212.24
846.91	212.22
847.22	212.16
847.54	212.28
847.85	212.28
848.16	212.24
848.48	212.19
848.79	212.32
849.10	212.37
849.42	212.43
849.73	212.14
850.04	212.09
850.36	211.97
850.67	212.03
850.98	212.00
851.30	212.04
851.61	212.09
851.92	212.05
852.23	212.19
852.55	212.12
852.86	212.15
853.17	212.17
853.49	212.23
853.80	212.31
854.11	212.30
854.42	212.31
854.74	212.27
855.05	212.29
855.36	212.08
855.67	212.00
855.99	211.93
856.30	212.29
856.61	212.29
856.92	212.35
857.23	212.44
857.55	212.43
857.86	212.43
858.17	212.44
858.48	212.34
858.79	212.27
859.11	212.28
859.42	212.24
859.73	212.20
860.04	212.14
860.35	211.96
860.66	211.82
860.98	211.80
861.29	211.86
861.60	211.86
861.91	211.99
862.22	211.95
862.53	211.92
862.84	211.52
863.16	211.54
863.47	211.53
863.78	211.38
864.09	211.41
864.40	211.51
864.71	211.48
865.02	211.58
865.33	211.54
865.64	211.53
865.95	211.52
866.27	211.75
866.58	211.73
866.89	211.82
867.20	211.82
867.51	211.80
867.82	211.66
868.13	211.69
868.44	211.61
868.75	211.75
869.06	211.70
869.37	211.74
869.68	211.65
869.99	211.64
870.30	211.72
870.61	211.69
870.92	211.57
871.23	211.63
871.54	211.65
871.85	211.78
872.16	211.81
872.47	211.87
872.78	211.62
873.09	211.68
873.40	211.66
873.71	211.69
874.02	211.69
874.33	211.71
874.64	211.66
874.95	211.70
875.26	211.51
875.56	211.59
875.87	211.55
876.18	211.55
876.49	211.87
876.80	211.88
877.11	211.83
877.42	211.80
877.73	211.73
878.04	211.66
878.35	211.64
878.66	211.65
878.96	211.59
879.27	211.60
879.58	211.56
879.89	211.54
880.20	211.66
880.51	211.70
880.82	211.75
881.12	211.76
881.43	211.72
881.74	211.75
882.05	211.69
882.36	211.71
882.67	211.74
882.97	211.41
883.28	211.32
883.59	211.35
883.90	211.41
884.21	211.46
884.51	211.47
884.82	211.36
885.13	211.36
885.44	211.32
885.74	211.33
886.05	211.28
886.36	211.20
886.67	211.06
886.98	211.27
887.28	211.34
887.59	211.31
887.90	211.26
888.20	211.28
888.51	211.40
888.82	211.35
889.13	211.41
889.43	211.67
889.74	211.65
890.05	211.65
890.35	211.63
890.66	211.59
890.97	211.50
891.28	211.44
891.58	211.44
891.89	211.47
892.20	211.49
892.50	211.50
892.81	211.52
893.12	211.52
893.42	211.26
893.73	211.24
894.04	211.27
894.34	211.37
894.65	211.39
894.95	211.31
895.26	211.33
895.57	211.45
895.87	211.19
896.18	211.28
896.48	211.35
896.79	211.38
897.10	211.44
897.40	211.53
897.71	211.57
898.01	211.57
898.32	211.64
898.63	211.60
898.93	211.58
899.24	211.64
899.54	211.61
899.85	211.63
900.15	211.56
900.46	211.53
900.76	211.48
901.07	211.43
901.38	211.45
901.68	211.44
901.99	211.29
902.29	211.29
902.60	211.23
902.90	211.17
903.21	211.11
903.51	211.10
903.82	211.18
904.12	211.25
904.43	211.23
904.73	211.21
905.03	211.21
905.34	211.62
905.64	211.64
905.95	211.65
906.25	211.69
906.56	211.70
906.86	211.70
907.17	211.65
907.47	211.68
907.77	211.61
908.08	211.55
908.38	211.58
908.69	211.64
908.99	211.67
909.30	211.72
909.60	211.71
909.90	211.71
910.21	211.56
910.51	211.49
910.81	211.51
911.12	211.55
911.42	211.60
911.73	211.25
912.03	211.22
912.33	211.35
912.64	211.27
912.94	211.27
913.24	211.24
913.55	211.21
913.85	211.23
914.15	211.35
914.46	211.41
914.76	211.36
915.06	211.36
915.37	211.37
915.67	211.36
915.97	211.39
916.27	211.25
916.58	211.34
916.88	211.31
917.18	211.29
917.49	211.52
917.79	211.50
918.09	211.46
918.39	211.62
918.70	211.55
919.00	211.61
919.30	211.85
919.60	211.85
919.91	211.93
920.21	211.93
920.51	211.87
920.81	211.81
921.12	211.85
921.42	211.80
921.72	211.77
922.02	211.75
922.32	211.79
922.63	211.89
922.93	212.05
923.23	212.05
923.53	211.96
923.83	211.65
924.13	211.66
924.44	211.66
924.74	211.63
925.04	211.73
925.34	211.73
925.64	211.56
925.94	211.57
926.24	211.71
926.55	211.66
926.85	211.71
927.15	211.75
927.45	211.76
927.75	211.69
928.05	211.77
928.35	211.80
928.65	211.86
928.95	211.83
929.26	211.64
929.56	211.83
929.86	211.94
930.16	211.93
930.46	211.94
930.76	211.97
931.06	211.78
931.36	211.69
931.66	211.79
931.96	211.74
932.26	211.73
932.56	211.61
932.86	211.69
933.16	211.69
933.46	211.68
933.76	211.67
934.06	211.77
934.36	211.93
934.66	211.90
934.96	211.90
935.26	211.98
935.56	212.06
935.86	211.92
936.16	211.83
936.46	211.85
936.76	211.83
937.06	211.74
937.36	211.85
937.66	211.84
937.96	211.83
938.26	211.82
938.56	211.85
938.86	211.89
939.16	211.96
939.46	211.96
939.76	212.03
940.06	211.99
940.35	211.94
940.65	211.67
940.95	211.69
941.25	211.60
941.55	211.52
941.85	211.55
942.15	211.60
942.45	211.71
942.75	211.66
943.04	211.69
943.34	211.89
943.64	211.82
943.94	211.85
944.24	211.75
944.54	211.74
944.84	211.73
945.13	211.65
945.43	211.60
945.73	211.57
946.03	211.53
946.33	211.44
946.62	211.40
946.92	211.36
947.22	211.42
947.52	211.45
947.82	211.45
948.11	211.35
948.41	211.30
948.71	211.20
949.01	211.26
949.31	211.21
949.60	211.13
949.90	211.21
950.20	211.18
950.50	211.22
950.79	211.23
951.09	211.25
951.39	211.22
951.69	211.18
951.98	211.28
952.28	211.25
952.58	211.34
952.87	211.34
953.17	211.45
953.47	211.36
953.76	211.33
954.06	211.31
954.36	211.29
954.66	211.33
954.95	211.43
955.25	211.40
955.55	211.39
955.84	211.30
956.14	211.28
956.44	211.29
956.73	211.25
957.03	211.27
957.32	211.28
957.62	211.25
957.92	211.28
958.21	211.18
958.51	211.58
958.81	211.64
959.10	211.72
959.40	211.70
959.69	211.71
959.99	211.73
960.29	211.70
960.58	211.73
960.88	211.81
961.17	211.76
961.47	211.79
961.76	211.77
962.06	211.88
962.36	211.85
962.65	211.79
962.95	211.79
963.24	211.71
963.54	211.66
963.83	211.68
964.13	211.66
964.42	211.65
964.72	211.35
965.01	211.38
965.31	211.25
965.60	211.28
965.90	211.44
966.19	211.35
966.49	211.45
966.78	211.39
967.08	211.39
967.37	211.39
967.67	211.32
967.96	211.40
968.26	211.35
968.55	211.34
968.85	211.35
969.14	211.31
969.43	211.34
969.73	211.32
970.02	211.35
970.32	211.32
970.61	211.25
970.91	211.17
971.20	211.00
971.49	211.02
971.79	211.02
972.08	210.79
972.38	210.84
972.67	210.79
972.96	210.86
973.26	210.75
973.55	210.86
973.85	210.91
974.14	210.88
974.43	210.93
974.73	210.89
975.02	210.89
975.31	210.94
975.61	210.90
975.90	210.92
976.19	210.88
976.49	210.88
976.78	210.97
977.07	210.92
977.37	210.98
977.66	211.03
977.95	210.96
978.24	210.98
978.54	211.01
978.83	210.99
979.12	210.98
979.42	211.04
979.71	210.99
980.00	210.99
980.29	211.06
980.59	210.94
980.88	211.02
981.17	211.00
981.46	210.98
981.76	211.02
982.05	211.13
982.34	211.19
982.63	211.21
982.93	211.11
983.22	211.22
983.51	211.25
983.80	211.30
984.09	211.35
984.39	211.35
984.68	211.32
984.97	211.29
985.26	211.27
985.55	211.22
985.85	211.09
986.14	211.12
986.43	211.15
986.72	211.15
987.01	211.06
987.30	211.05
987.59	211.02
987.89	211.06
988.18	210.95
988.47	210.89
988.76	210.88
989.05	211.01
989.34	210.95
989.63	211.00
989.92	210.89
990.22	210.91
990.51	210.96
990.80	210.90
991.09	210.93
991.38	211.01
991.67	211.02
991.96	211.04
992.25	211.06
992.54	210.95
992.83	210.92
993.12	210.94
993.41	211.05
993.70	211.20
993.99	211.23
994.28	211.30
994.58	211.31
994.87	211.27
995.16	211.17
995.45	211.22
995.74	211.15
996.03	211.29
996.32	211.33
996.61	211.39
996.90	211.40
997.19	211.41
997.48	211.35
997.77	211.26
998.06	211.23
998.34	211.20
998.63	211.14
998.92	211.19
999.21	211.19
999.50	211.12
999.79	210.97
1000.08	211.00
1000.37	211.00
1000.66	210.97
1000.95	211.06
1001.24	211.07
1001.53	211.02
1001.82	210.99
1002.11	210.82
1002.40	210.80
1002.68	210.86
1002.97	211.11
1003.26	211.10
1003.55	211.05
1003.84	211.09
1004.13	211.28
1004.42	211.30
1004.71	211.35
1004.99	211.32
1005.28	211.41
1005.57	211.44
1005.86	211.47
1006.15	211.43
1006.44	211.32
1006.72	211.36
1007.01	211.27
1007.30	211.31
1007.59	211.32
1007.88	211.31
1008.17	211.37
1008.45	211.32
1008.74	211.21
1009.03	211.09
1009.32	211.09
1009.60	211.09
1009.89	211.12
1010.18	210.95
1010.47	210.94
1010.76	210.97
1011.04	210.85
1011.33	210.88
1011.62	210.82
1011.91	210.80
1012.19	210.84
1012.48	210.89
1012.77	210.85
1013.05	210.94
1013.34	210.92
1013.63	210.90
1013.92	210.90
1014.20	210.90
1014.49	210.95
1014.78	210.97
1015.06	210.85
1015.35	210.82
1015.64	210.83
1015.92	210.92
1016.21	210.99
1016.50	211.03
1016.78	211.10
1017.07	211.21
1017.36	211.18
1017.64	211.17
1017.93	211.23
1018.22	211.10
1018.50	211.10
1018.79	211.14
1019.08	211.05
1019.36	211.07
1019.65	211.01
1019.93	211.05
1020.22	211.06
1020.51	211.23
1020.79	211.20
1021.08	209.75
1021.36	210.70
1021.65	210.45
1021.94	211.00
1022.22	211.05
1022.51	209.45
1022.79	210.90
1023.08	210.90
1023.36	215.60
1023.65	211.35
>>>>>End Processed Spectral Data<<<<<
