SpectraSuite Data File
++++++++++++++++++++++++++++++++++++
Date: Mon Feb 25 17:11:11 EST 2013
User: group
Dark Spectrum Present: No
Reference Spectrum Present: No
Number of Sampled Component Spectra: 1
Spectrometers: USB2E7196
Integration Time (usec): 104000 (USB2E7196)
Spectra Averaged: 20 (USB2E7196)
Boxcar Smoothing: 10 (USB2E7196)
Correct for Electrical Dark: No (USB2E7196)
Strobe/Lamp Enabled: No (USB2E7196)
Correct for Detector Non-linearity: No (USB2E7196)
Correct for Stray Light: No (USB2E7196)
Number of Pixels in Processed Spectrum: 2048
>>>>>Begin Processed Spectral Data<<<<<
339.09	0.00
339.48	197.75
339.86	200.15
340.24	200.65
340.63	202.70
341.01	209.25
341.39	205.20
341.78	207.70
342.16	209.95
342.54	208.50
342.93	198.07
343.31	208.05
343.69	208.65
344.07	209.09
344.46	209.61
344.84	210.02
345.22	210.04
345.60	210.29
345.99	210.46
346.37	210.49
346.75	210.56
347.13	210.62
347.52	210.68
347.90	210.86
348.28	210.83
348.66	210.92
349.05	210.86
349.43	210.92
349.81	210.91
350.19	210.94
350.57	211.04
350.96	211.14
351.34	211.24
351.72	211.26
352.10	211.43
352.48	211.43
352.87	211.48
353.25	211.60
353.63	211.65
354.01	211.70
354.39	211.78
354.77	211.87
355.15	211.96
355.54	211.91
355.92	211.79
356.30	211.84
356.68	212.15
357.06	212.21
357.44	212.18
357.82	212.22
358.20	212.37
358.58	212.43
358.97	212.48
359.35	212.57
359.73	212.76
360.11	212.68
360.49	212.78
360.87	212.76
361.25	212.82
361.63	213.03
362.01	213.09
362.39	213.12
362.77	213.22
363.15	213.32
363.53	213.45
363.91	213.55
364.29	213.63
364.67	213.30
365.05	213.34
365.43	213.39
365.81	213.47
366.19	213.60
366.57	213.68
366.95	213.65
367.33	213.61
367.71	213.57
368.09	213.73
368.47	213.65
368.85	213.68
369.23	213.76
369.61	213.60
369.99	213.66
370.37	213.72
370.75	213.82
371.13	213.75
371.51	213.71
371.89	213.70
372.27	213.70
372.65	213.74
373.03	213.71
373.41	213.73
373.78	213.69
374.16	213.48
374.54	213.42
374.92	213.43
375.30	213.38
375.68	213.27
376.06	213.23
376.44	213.22
376.82	213.21
377.19	213.13
377.57	213.08
377.95	212.97
378.33	212.92
378.71	212.71
379.09	212.66
379.47	212.65
379.84	212.57
380.22	212.47
380.60	212.38
380.98	212.28
381.36	212.20
381.73	212.08
382.11	212.09
382.49	212.00
382.87	211.89
383.25	211.89
383.62	212.18
384.00	211.96
384.38	211.92
384.76	211.92
385.13	212.01
385.51	211.95
385.89	211.85
386.27	211.75
386.64	211.73
387.02	211.59
387.40	211.50
387.78	211.44
388.15	211.35
388.53	211.25
388.91	211.22
389.29	211.11
389.66	211.23
390.04	211.22
390.42	211.25
390.79	211.27
391.17	211.26
391.55	210.96
391.92	210.96
392.30	210.94
392.68	210.82
393.05	210.75
393.43	210.75
393.81	210.75
394.18	210.71
394.56	210.71
394.94	210.87
395.31	210.83
395.69	210.96
396.06	211.05
396.44	211.09
396.82	211.05
397.19	211.25
397.57	211.20
397.95	211.28
398.32	211.19
398.70	211.23
399.07	211.21
399.45	211.19
399.82	211.25
400.20	211.19
400.58	211.25
400.95	211.14
401.33	211.24
401.70	211.51
402.08	211.48
402.45	211.46
402.83	211.55
403.20	211.62
403.58	211.59
403.95	211.74
404.33	211.85
404.71	212.00
405.08	212.25
405.46	212.25
405.83	212.23
406.21	212.32
406.58	212.43
406.96	212.48
407.33	212.65
407.70	212.80
408.08	213.23
408.45	213.40
408.83	213.60
409.20	213.74
409.58	213.66
409.95	213.95
410.33	214.21
410.70	214.27
411.08	214.54
411.45	214.79
411.82	214.96
412.20	215.32
412.57	215.75
412.95	215.77
413.32	216.22
413.69	216.59
414.07	217.04
414.44	217.36
414.82	217.87
415.19	218.36
415.56	218.89
415.94	219.26
416.31	219.88
416.68	220.51
417.06	221.25
417.43	222.02
417.81	222.84
418.18	223.67
418.55	224.60
418.93	225.49
419.30	226.38
419.67	227.31
420.04	228.25
420.42	229.25
420.79	230.74
421.16	231.92
421.54	233.34
421.91	234.60
422.28	236.01
422.66	237.45
423.03	239.09
423.40	240.53
423.77	242.05
424.15	243.59
424.52	245.24
424.89	247.03
425.26	248.70
425.64	250.31
426.01	252.04
426.38	253.87
426.75	255.80
427.13	257.88
427.50	260.03
427.87	262.23
428.24	264.41
428.61	266.30
428.99	268.75
429.36	271.10
429.73	273.55
430.10	276.02
430.47	278.57
430.85	280.92
431.22	283.67
431.59	286.89
431.96	289.69
432.33	292.75
432.70	295.70
433.08	299.12
433.45	302.48
433.82	305.83
434.19	309.50
434.56	313.04
434.93	316.32
435.30	319.68
435.68	323.33
436.05	326.99
436.42	330.66
436.79	333.97
437.16	337.67
437.53	341.55
437.90	345.28
438.27	348.99
438.64	352.81
439.01	356.44
439.38	359.38
439.75	362.54
440.13	366.00
440.50	369.28
440.87	372.07
441.24	374.76
441.61	377.71
441.98	380.01
442.35	382.68
442.72	385.54
443.09	388.26
443.46	389.99
443.83	391.09
444.20	392.02
444.57	393.37
444.94	393.93
445.31	394.71
445.68	395.79
446.05	396.02
446.42	395.70
446.79	395.41
447.16	394.87
447.53	394.52
447.90	393.14
448.27	391.68
448.64	389.86
449.01	388.40
449.37	386.05
449.74	383.60
450.11	380.93
450.48	377.66
450.85	374.27
451.22	371.37
451.59	368.70
451.96	366.17
452.33	362.76
452.70	359.75
453.07	355.91
453.43	351.80
453.80	348.35
454.17	345.01
454.54	341.66
454.91	338.17
455.28	334.85
455.65	331.64
456.02	329.12
456.38	326.28
456.75	323.06
457.12	320.22
457.49	317.50
457.86	314.72
458.23	312.58
458.59	310.10
458.96	307.67
459.33	305.46
459.70	303.21
460.07	301.43
460.43	299.30
460.80	297.41
461.17	295.83
461.54	293.95
461.91	292.24
462.27	290.43
462.64	289.01
463.01	287.36
463.38	285.92
463.74	283.81
464.11	282.41
464.48	281.16
464.85	279.85
465.21	278.95
465.58	277.86
465.95	276.45
466.32	275.41
466.68	274.32
467.05	273.24
467.42	272.14
467.78	270.95
468.15	269.97
468.52	269.30
468.88	268.20
469.25	267.32
469.62	266.69
469.98	265.97
470.35	265.27
470.72	264.53
471.08	263.71
471.45	263.11
471.82	262.55
472.18	261.97
472.55	261.59
472.92	260.89
473.28	260.28
473.65	259.79
474.02	259.35
474.38	259.03
474.75	258.68
475.11	258.30
475.48	258.05
475.85	257.75
476.21	257.38
476.58	257.21
476.94	257.11
477.31	256.88
477.67	256.74
478.04	256.57
478.41	256.54
478.77	256.91
479.14	256.78
479.50	256.84
479.87	256.84
480.23	256.86
480.60	256.93
480.96	257.00
481.33	257.35
481.69	257.54
482.06	257.64
482.42	257.85
482.79	258.10
483.15	258.46
483.52	258.81
483.88	259.19
484.25	259.50
484.61	259.80
484.98	260.10
485.34	260.71
485.71	261.27
486.07	261.82
486.44	262.10
486.80	262.83
487.17	263.44
487.53	264.25
487.90	265.07
488.26	266.01
488.62	266.95
488.99	267.70
489.35	268.64
489.72	269.74
490.08	270.86
490.44	272.08
490.81	273.27
491.17	274.48
491.54	275.79
491.90	277.16
492.26	278.60
492.63	280.21
492.99	281.69
493.36	283.42
493.72	285.11
494.08	286.91
494.45	288.87
494.81	290.88
495.17	292.81
495.54	294.83
495.90	296.94
496.26	299.19
496.63	301.61
496.99	303.97
497.35	306.35
497.72	308.96
498.08	311.59
498.44	314.32
498.80	317.31
499.17	320.29
499.53	323.42
499.89	326.79
500.26	330.00
500.62	333.36
500.98	336.90
501.34	340.58
501.71	344.27
502.07	348.02
502.43	351.77
502.79	355.69
503.16	359.81
503.52	363.99
503.88	368.13
504.24	372.59
504.60	377.15
504.97	382.03
505.33	386.73
505.69	391.92
506.05	397.07
506.41	402.10
506.78	407.37
507.14	412.57
507.50	417.87
507.86	423.50
508.22	429.23
508.59	435.02
508.95	440.95
509.31	447.11
509.67	453.15
510.03	459.56
510.39	466.07
510.75	472.56
511.12	479.28
511.48	486.26
511.84	493.06
512.20	499.87
512.56	506.84
512.92	514.11
513.28	520.99
513.64	528.12
514.00	535.59
514.37	542.97
514.73	550.77
515.09	558.54
515.45	565.98
515.81	573.65
516.17	581.39
516.53	589.12
516.89	596.75
517.25	604.76
517.61	612.77
517.97	620.66
518.33	628.67
518.69	636.72
519.05	644.91
519.41	653.06
519.77	661.83
520.13	670.00
520.49	678.14
520.85	686.62
521.21	695.27
521.57	703.65
521.93	711.87
522.29	720.47
522.65	728.88
523.01	737.58
523.37	745.96
523.73	754.48
524.09	763.07
524.45	771.85
524.81	780.39
525.17	789.07
525.53	797.80
525.89	806.52
526.25	815.09
526.61	823.38
526.97	831.95
527.33	840.31
527.68	849.18
528.04	857.43
528.40	865.71
528.76	873.83
529.12	882.27
529.48	891.24
529.84	899.56
530.20	908.03
530.56	916.49
530.91	925.07
531.27	933.33
531.63	941.61
531.99	949.60
532.35	957.54
532.71	965.33
533.07	973.46
533.42	981.77
533.78	989.68
534.14	997.45
534.50	1004.87
534.86	1012.70
535.21	1019.73
535.57	1027.62
535.93	1034.65
536.29	1042.25
536.65	1049.66
537.00	1056.33
537.36	1062.77
537.72	1069.18
538.08	1075.84
538.44	1082.32
538.79	1088.79
539.15	1094.97
539.51	1101.47
539.87	1108.18
540.22	1114.47
540.58	1120.85
540.94	1126.67
541.29	1132.30
541.65	1138.00
542.01	1143.71
542.37	1149.05
542.72	1154.73
543.08	1159.66
543.44	1165.62
543.79	1170.03
544.15	1174.72
544.51	1179.75
544.87	1184.97
545.22	1189.42
545.58	1193.53
545.94	1197.64
546.29	1201.35
546.65	1205.29
547.01	1208.89
547.36	1212.47
547.72	1216.00
548.07	1218.90
548.43	1221.79
548.79	1224.57
549.14	1227.29
549.50	1230.23
549.86	1232.16
550.21	1234.34
550.57	1236.72
550.92	1238.27
551.28	1240.45
551.64	1242.38
551.99	1244.30
552.35	1245.61
552.70	1247.46
553.06	1249.35
553.41	1250.78
553.77	1252.57
554.13	1253.99
554.48	1255.48
554.84	1256.60
555.19	1257.60
555.55	1258.65
555.90	1259.17
556.26	1259.96
556.61	1260.50
556.97	1260.45
557.32	1261.23
557.68	1261.44
558.03	1261.68
558.39	1262.00
558.74	1262.62
559.10	1263.07
559.45	1263.08
559.81	1263.65
560.16	1263.57
560.52	1263.65
560.87	1263.58
561.23	1263.02
561.58	1263.18
561.94	1262.49
562.29	1261.65
562.64	1261.13
563.00	1260.65
563.35	1260.82
563.71	1260.71
564.06	1260.53
564.42	1260.66
564.77	1260.16
565.12	1260.09
565.48	1259.93
565.83	1259.45
566.19	1258.80
566.54	1257.56
566.89	1256.54
567.25	1255.34
567.60	1254.83
567.96	1253.54
568.31	1252.72
568.66	1251.98
569.02	1250.15
569.37	1248.62
569.72	1247.53
570.08	1246.00
570.43	1244.31
570.78	1242.16
571.14	1240.18
571.49	1238.37
571.84	1236.48
572.20	1234.37
572.55	1232.11
572.90	1229.42
573.26	1226.84
573.61	1224.03
573.96	1221.65
574.31	1218.82
574.67	1216.16
575.02	1212.76
575.37	1209.75
575.72	1206.32
576.08	1203.42
576.43	1200.35
576.78	1197.55
577.13	1194.77
577.49	1191.89
577.84	1189.02
578.19	1186.39
578.54	1183.87
578.90	1181.30
579.25	1178.25
579.60	1175.10
579.95	1172.00
580.30	1169.30
580.66	1166.74
581.01	1164.16
581.36	1161.02
581.71	1158.11
582.06	1155.17
582.42	1152.23
582.77	1149.28
583.12	1146.59
583.47	1143.52
583.82	1140.84
584.17	1137.98
584.53	1135.03
584.88	1132.07
585.23	1129.10
585.58	1125.97
585.93	1122.92
586.28	1119.93
586.63	1116.94
586.98	1114.11
587.34	1111.26
587.69	1108.21
588.04	1105.09
588.39	1102.22
588.74	1099.20
589.09	1096.55
589.44	1093.29
589.79	1090.72
590.14	1087.89
590.49	1084.90
590.84	1081.99
591.19	1079.42
591.54	1076.52
591.89	1072.96
592.25	1070.04
592.60	1066.60
592.95	1063.17
593.30	1059.51
593.65	1055.76
594.00	1052.39
594.35	1050.53
594.70	1047.19
595.05	1044.18
595.40	1040.88
595.75	1037.26
596.10	1034.14
596.45	1030.80
596.80	1028.06
597.15	1025.11
597.50	1021.81
597.85	1018.72
598.19	1015.59
598.54	1012.39
598.89	1009.38
599.24	1006.84
599.59	1003.91
599.94	1001.52
600.29	998.93
600.64	996.04
600.99	993.00
601.34	990.24
601.69	985.93
602.04	982.76
602.39	979.96
602.74	977.23
603.08	974.82
603.43	972.65
603.78	969.80
604.13	966.72
604.48	963.64
604.83	961.34
605.18	958.90
605.53	956.11
605.87	952.89
606.22	950.25
606.57	947.33
606.92	944.05
607.27	940.77
607.62	937.74
607.96	935.01
608.31	932.38
608.66	929.48
609.01	926.60
609.36	923.69
609.70	920.23
610.05	916.92
610.40	913.47
610.75	909.72
611.10	906.78
611.44	903.10
611.79	899.57
612.14	895.78
612.49	891.61
612.83	887.97
613.18	884.45
613.53	880.56
613.88	876.59
614.22	873.28
614.57	869.53
614.92	865.81
615.27	862.02
615.61	858.24
615.96	854.45
616.31	851.18
616.65	847.89
617.00	844.33
617.35	840.80
617.70	836.87
618.04	833.07
618.39	828.97
618.74	825.56
619.08	821.88
619.43	818.29
619.78	814.89
620.12	811.20
620.47	807.73
620.82	803.96
621.16	800.26
621.51	796.50
621.85	793.02
622.20	789.35
622.55	785.59
622.89	782.01
623.24	778.34
623.59	774.15
623.93	770.49
624.28	766.95
624.62	763.62
624.97	760.32
625.32	756.92
625.66	753.64
626.01	750.20
626.35	746.97
626.70	743.43
627.04	740.31
627.39	737.11
627.73	733.85
628.08	730.66
628.43	727.25
628.77	723.92
629.12	720.42
629.46	717.28
629.81	714.07
630.15	710.55
630.50	707.20
630.84	703.88
631.19	700.40
631.53	697.15
631.88	693.59
632.22	690.02
632.57	686.90
632.91	683.64
633.26	680.50
633.60	677.18
633.95	674.09
634.29	670.77
634.64	667.72
634.98	664.23
635.32	661.13
635.67	658.39
636.01	655.32
636.36	652.29
636.70	649.26
637.05	646.35
637.39	643.58
637.73	640.73
638.08	638.17
638.42	635.52
638.77	632.79
639.11	629.72
639.45	626.98
639.80	623.73
640.14	620.60
640.49	617.51
640.83	614.40
641.17	611.43
641.52	608.36
641.86	605.04
642.20	602.26
642.55	599.06
642.89	595.84
643.23	592.80
643.58	590.10
643.92	586.91
644.26	583.88
644.61	580.98
644.95	578.01
645.29	574.87
645.64	571.80
645.98	568.72
646.32	566.02
646.66	562.97
647.01	560.06
647.35	557.29
647.69	554.31
648.04	551.68
648.38	548.77
648.72	545.93
649.06	543.31
649.41	540.43
649.75	537.68
650.09	534.97
650.43	532.18
650.78	528.98
651.12	526.33
651.46	523.57
651.80	520.77
652.14	518.03
652.49	515.34
652.83	512.51
653.17	509.62
653.51	506.82
653.85	504.25
654.20	501.77
654.54	498.96
654.88	496.30
655.22	493.56
655.56	490.88
655.90	488.23
656.25	485.32
656.59	482.67
656.93	480.07
657.27	477.44
657.61	474.67
657.95	472.35
658.29	469.77
658.64	467.37
658.98	464.92
659.32	462.42
659.66	459.85
660.00	457.53
660.34	455.01
660.68	452.55
661.02	450.02
661.36	447.70
661.70	445.38
662.05	443.15
662.39	441.04
662.73	438.93
663.07	436.95
663.41	434.91
663.75	432.73
664.09	430.59
664.43	428.40
664.77	426.38
665.11	424.08
665.45	421.98
665.79	419.88
666.13	417.60
666.47	415.45
666.81	413.50
667.15	411.34
667.49	409.53
667.83	407.66
668.17	405.71
668.51	403.65
668.85	401.95
669.19	400.24
669.53	398.27
669.87	396.37
670.21	394.35
670.55	392.49
670.89	390.94
671.23	389.27
671.57	387.65
671.91	385.93
672.25	384.21
672.58	382.46
672.92	380.65
673.26	379.18
673.60	377.61
673.94	376.01
674.28	374.44
674.62	372.80
674.96	371.27
675.30	369.85
675.64	368.34
675.97	366.79
676.31	365.18
676.65	363.66
676.99	362.43
677.33	360.98
677.67	359.57
678.01	357.90
678.34	356.42
678.68	354.95
679.02	353.52
679.36	352.12
679.70	350.68
680.04	349.40
680.37	348.00
680.71	346.60
681.05	345.34
681.39	343.94
681.73	342.75
682.06	341.43
682.40	340.17
682.74	338.87
683.08	337.63
683.42	336.32
683.75	335.11
684.09	333.58
684.43	332.31
684.77	330.92
685.10	329.67
685.44	328.38
685.78	327.12
686.12	325.92
686.45	324.84
686.79	323.72
687.13	322.57
687.46	321.30
687.80	320.17
688.14	318.94
688.48	317.87
688.81	316.65
689.15	315.46
689.49	314.20
689.82	313.10
690.16	311.71
690.50	310.53
690.83	309.37
691.17	308.21
691.51	307.08
691.84	306.14
692.18	305.13
692.52	304.17
692.85	303.28
693.19	302.43
693.52	301.38
693.86	300.36
694.20	299.43
694.53	298.58
694.87	297.50
695.21	296.50
695.54	295.54
695.88	294.39
696.21	293.40
696.55	292.50
696.88	291.59
697.22	290.75
697.56	289.95
697.89	289.00
698.23	288.16
698.56	287.30
698.90	286.47
699.23	285.56
699.57	284.66
699.90	283.64
700.24	282.65
700.58	281.85
700.91	281.02
701.25	280.34
701.58	279.58
701.92	278.94
702.25	278.21
702.59	277.37
702.92	276.75
703.26	276.07
703.59	275.41
703.93	274.97
704.26	274.28
704.60	273.66
704.93	272.97
705.26	272.27
705.60	271.64
705.93	270.90
706.27	270.29
706.60	269.77
706.94	269.36
707.27	268.74
707.61	268.06
707.94	267.35
708.27	266.52
708.61	265.82
708.94	265.24
709.28	264.59
709.61	264.04
709.94	263.41
710.28	262.78
710.61	262.20
710.95	261.31
711.28	261.02
711.61	260.31
711.95	259.90
712.28	259.31
712.61	258.79
712.95	258.44
713.28	258.05
713.61	257.46
713.95	256.78
714.28	256.26
714.61	255.75
714.95	255.36
715.28	254.79
715.61	254.33
715.95	253.89
716.28	253.40
716.61	252.91
716.95	252.48
717.28	251.98
717.61	251.49
717.94	251.00
718.28	250.26
718.61	249.87
718.94	249.37
719.27	249.01
719.61	248.58
719.94	248.03
720.27	247.47
720.60	246.99
720.94	246.65
721.27	246.33
721.60	246.03
721.93	245.62
722.27	245.48
722.60	245.16
722.93	244.71
723.26	244.48
723.59	244.04
723.93	243.75
724.26	243.46
724.59	243.21
724.92	242.95
725.25	242.76
725.59	242.49
725.92	242.23
726.25	241.85
726.58	241.53
726.91	241.28
727.24	241.04
727.57	240.75
727.91	240.36
728.24	240.15
728.57	239.81
728.90	239.59
729.23	239.20
729.56	239.05
729.89	238.72
730.22	238.33
730.55	238.15
730.89	237.87
731.22	237.65
731.55	237.29
731.88	237.03
732.21	236.76
732.54	236.41
732.87	236.07
733.20	235.92
733.53	235.69
733.86	235.41
734.19	235.09
734.52	234.91
734.85	235.02
735.18	234.67
735.51	234.61
735.84	234.44
736.17	234.23
736.50	233.87
736.83	234.09
737.16	233.89
737.49	233.71
737.82	233.37
738.15	233.16
738.48	232.96
738.81	232.77
739.14	232.41
739.47	232.25
739.80	232.03
740.13	231.85
740.46	231.57
740.79	231.36
741.12	231.14
741.45	230.92
741.78	230.49
742.11	230.35
742.44	230.00
742.77	229.80
743.10	229.56
743.43	229.26
743.75	228.69
744.08	228.95
744.41	228.70
744.74	228.56
745.07	228.26
745.40	228.14
745.73	228.07
746.06	228.00
746.39	227.80
746.71	227.61
747.04	227.35
747.37	227.21
747.70	227.02
748.03	226.92
748.36	226.72
748.68	226.50
749.01	226.25
749.34	226.10
749.67	225.90
750.00	225.84
750.33	225.95
750.65	225.80
750.98	225.24
751.31	225.14
751.64	225.08
751.97	225.14
752.29	224.96
752.62	224.67
752.95	224.50
753.28	224.30
753.60	224.13
753.93	224.05
754.26	223.98
754.59	223.81
754.91	223.53
755.24	223.38
755.57	223.24
755.90	223.14
756.22	222.94
756.55	222.82
756.88	222.60
757.20	222.25
757.53	221.99
757.86	221.81
758.19	221.70
758.51	221.57
758.84	221.25
759.17	221.07
759.49	220.95
759.82	220.89
760.15	220.80
760.47	220.69
760.80	220.46
761.13	220.35
761.45	220.22
761.78	220.18
762.11	220.02
762.43	219.90
762.76	219.74
763.08	219.74
763.41	219.60
763.74	219.49
764.06	219.39
764.39	219.35
764.71	219.21
765.04	219.09
765.37	218.87
765.69	218.80
766.02	218.72
766.34	218.65
766.67	218.50
767.00	218.56
767.32	218.66
767.65	218.84
767.97	218.71
768.30	218.65
768.62	218.54
768.95	218.54
769.27	218.51
769.60	218.57
769.92	218.37
770.25	218.32
770.57	218.16
770.90	218.13
771.22	217.98
771.55	217.96
771.87	217.87
772.20	217.85
772.52	218.12
772.85	218.48
773.17	218.44
773.50	218.39
773.82	218.25
774.15	218.05
774.47	217.78
774.80	217.65
775.12	217.60
775.45	217.63
775.77	217.53
776.09	217.46
776.42	217.37
776.74	217.39
777.07	217.32
777.39	217.30
777.72	217.14
778.04	217.21
778.36	217.15
778.69	217.14
779.01	217.15
779.33	216.76
779.66	216.34
779.98	216.24
780.31	216.20
780.63	216.21
780.95	216.20
781.28	216.10
781.60	216.10
781.92	216.06
782.25	215.93
782.57	215.91
782.89	215.88
783.22	215.82
783.54	215.74
783.86	215.79
784.19	215.75
784.51	215.87
784.83	215.76
785.16	215.71
785.48	215.66
785.80	215.55
786.12	215.48
786.45	215.40
786.77	215.38
787.09	215.29
787.42	215.20
787.74	215.17
788.06	215.22
788.38	215.17
788.71	214.97
789.03	215.01
789.35	215.05
789.67	214.92
789.99	214.90
790.32	214.87
790.64	214.79
790.96	215.03
791.28	214.86
791.61	214.90
791.93	214.85
792.25	214.75
792.57	215.02
792.89	215.03
793.21	215.04
793.54	214.95
793.86	214.87
794.18	214.84
794.50	214.75
794.82	214.68
795.14	214.68
795.47	214.84
795.79	214.82
796.11	214.61
796.43	214.60
796.75	214.51
797.07	214.46
797.39	214.38
797.71	214.07
798.04	214.06
798.36	213.95
798.68	213.88
799.00	213.96
799.32	213.70
799.64	213.67
799.96	213.67
800.28	213.73
800.60	213.74
800.92	213.78
801.24	213.69
801.56	213.80
801.89	213.72
802.21	213.69
802.53	213.57
802.85	213.66
803.17	213.84
803.49	213.75
803.81	213.78
804.13	213.73
804.45	213.70
804.77	213.70
805.09	213.71
805.41	213.59
805.73	213.46
806.05	213.32
806.37	213.29
806.69	213.25
807.01	213.15
807.33	213.15
807.65	212.99
807.97	213.16
808.28	213.04
808.60	212.99
808.92	212.95
809.24	213.17
809.56	213.18
809.88	213.02
810.20	213.07
810.52	213.14
810.84	213.11
811.16	213.09
811.48	213.08
811.80	213.19
812.12	213.38
812.43	213.46
812.75	213.61
813.07	213.61
813.39	213.58
813.71	213.49
814.03	213.47
814.35	213.47
814.67	213.37
814.98	213.30
815.30	213.36
815.62	213.33
815.94	213.09
816.26	213.06
816.58	212.99
816.89	213.00
817.21	212.82
817.53	212.83
817.85	212.85
818.17	212.78
818.48	212.65
818.80	212.60
819.12	212.60
819.44	212.43
819.76	212.41
820.07	212.42
820.39	212.43
820.71	212.40
821.03	212.45
821.34	212.37
821.66	212.37
821.98	212.35
822.30	212.31
822.61	212.49
822.93	212.45
823.25	212.39
823.57	212.34
823.88	212.44
824.20	212.35
824.52	212.36
824.83	212.32
825.15	212.25
825.47	212.21
825.79	212.17
826.10	212.15
826.42	212.15
826.74	212.20
827.05	212.13
827.37	212.12
827.69	212.03
828.00	212.02
828.32	212.07
828.64	212.01
828.95	212.21
829.27	212.16
829.58	212.09
829.90	212.20
830.22	212.19
830.53	212.10
830.85	212.13
831.17	212.07
831.48	212.14
831.80	212.17
832.11	212.15
832.43	212.10
832.75	212.15
833.06	212.27
833.38	212.08
833.69	212.15
834.01	212.14
834.32	212.11
834.64	212.14
834.96	212.12
835.27	212.09
835.59	211.92
835.90	211.83
836.22	211.78
836.53	211.66
836.85	211.65
837.16	211.99
837.48	211.94
837.79	212.05
838.11	212.00
838.42	212.00
838.74	212.00
839.05	211.99
839.37	211.92
839.68	211.75
840.00	211.82
840.31	211.89
840.63	211.86
840.94	211.81
841.26	211.73
841.57	211.72
841.88	211.74
842.20	211.69
842.51	211.65
842.83	211.70
843.14	212.05
843.46	212.02
843.77	211.88
844.08	211.89
844.40	211.82
844.71	211.83
845.03	211.75
845.34	211.80
845.65	211.77
845.97	211.76
846.28	211.71
846.60	211.71
846.91	211.63
847.22	211.59
847.54	211.68
847.85	211.72
848.16	211.63
848.48	211.60
848.79	211.75
849.10	211.74
849.42	211.76
849.73	211.38
850.04	211.31
850.36	211.17
850.67	211.23
850.98	211.14
851.30	211.15
851.61	211.14
851.92	211.05
852.23	211.12
852.55	211.12
852.86	211.18
853.17	211.25
853.49	211.29
853.80	211.45
854.11	211.60
854.42	211.58
854.74	211.62
855.05	211.59
855.36	211.41
855.67	211.42
855.99	211.40
856.30	211.85
856.61	211.95
856.92	211.90
857.23	211.94
857.55	211.95
857.86	211.87
858.17	211.98
858.48	211.97
858.79	211.92
859.11	211.98
859.42	211.90
859.73	211.85
860.04	211.93
860.35	211.72
860.66	211.52
860.98	211.46
861.29	211.51
861.60	211.50
861.91	211.59
862.22	211.54
862.53	211.51
862.84	211.13
863.16	211.15
863.47	211.09
863.78	211.00
864.09	211.00
864.40	211.08
864.71	211.05
865.02	211.10
865.33	211.04
865.64	210.99
865.95	211.02
866.27	211.25
866.58	211.08
866.89	211.23
867.20	211.23
867.51	211.30
867.82	211.27
868.13	211.46
868.44	211.39
868.75	211.43
869.06	211.46
869.37	211.49
869.68	211.42
869.99	211.51
870.30	211.60
870.61	211.71
870.92	211.66
871.23	211.62
871.54	211.65
871.85	211.77
872.16	211.80
872.47	211.75
872.78	211.52
873.09	211.64
873.40	211.61
873.71	211.63
874.02	211.56
874.33	211.58
874.64	211.45
874.95	211.49
875.26	211.48
875.56	211.41
875.87	211.41
876.18	211.48
876.49	211.78
876.80	211.74
877.11	211.66
877.42	211.75
877.73	211.81
878.04	211.79
878.35	211.78
878.66	211.82
878.96	211.91
879.27	211.94
879.58	211.91
879.89	211.90
880.20	212.00
880.51	212.03
880.82	211.99
881.12	212.01
881.43	211.97
881.74	211.91
882.05	211.97
882.36	212.02
882.67	212.00
882.97	211.70
883.28	211.68
883.59	211.61
883.90	211.58
884.21	211.61
884.51	211.54
884.82	211.53
885.13	211.47
885.44	211.38
885.74	211.35
886.05	211.32
886.36	211.38
886.67	211.30
886.98	211.53
887.28	211.57
887.59	211.53
887.90	211.53
888.20	211.50
888.51	211.61
888.82	211.50
889.13	211.45
889.43	211.71
889.74	211.72
890.05	211.74
890.35	211.74
890.66	211.68
890.97	211.70
891.28	211.63
891.58	211.67
891.89	211.70
892.20	211.67
892.50	211.64
892.81	211.56
893.12	211.52
893.42	211.33
893.73	211.36
894.04	211.43
894.34	211.47
894.65	211.43
894.95	211.40
895.26	211.42
895.57	211.52
895.87	211.22
896.18	211.24
896.48	211.24
896.79	211.20
897.10	211.21
897.40	211.25
897.71	211.24
898.01	211.23
898.32	211.29
898.63	211.24
898.93	211.26
899.24	211.22
899.54	211.21
899.85	211.20
900.15	211.15
900.46	211.10
900.76	211.11
901.07	211.21
901.38	211.12
901.68	211.19
901.99	211.04
902.29	211.04
902.60	210.97
902.90	210.99
903.21	211.02
903.51	211.01
903.82	211.05
904.12	211.15
904.43	211.10
904.73	211.05
905.03	211.10
905.34	211.41
905.64	211.40
905.95	211.34
906.25	211.32
906.56	211.31
906.86	211.32
907.17	211.30
907.47	211.22
907.77	211.18
908.08	211.09
908.38	211.16
908.69	211.18
908.99	211.28
909.30	211.30
909.60	211.30
909.90	211.30
910.21	211.16
910.51	211.06
910.81	211.11
911.12	211.10
911.42	211.04
911.73	210.72
912.03	210.71
912.33	210.86
912.64	210.88
912.94	210.81
913.24	210.71
913.55	210.72
913.85	210.65
914.15	210.75
914.46	210.78
914.76	210.76
915.06	210.73
915.37	210.63
915.67	210.61
915.97	210.58
916.27	210.48
916.58	210.56
916.88	210.54
917.18	210.50
917.49	210.72
917.79	210.69
918.09	210.77
918.39	210.93
918.70	210.88
919.00	210.85
919.30	211.02
919.60	211.05
919.91	211.05
920.21	211.13
920.51	211.00
920.81	210.98
921.12	211.00
921.42	211.06
921.72	211.11
922.02	211.11
922.32	211.11
922.63	211.24
922.93	211.37
923.23	211.36
923.53	211.38
923.83	211.21
924.13	211.27
924.44	211.27
924.74	211.31
925.04	211.37
925.34	211.41
925.64	211.27
925.94	211.29
926.24	211.41
926.55	211.51
926.85	211.65
927.15	211.68
927.45	211.71
927.75	211.67
928.05	211.69
928.35	211.66
928.65	211.76
928.95	211.78
929.26	211.67
929.56	211.79
929.86	211.82
930.16	211.81
930.46	211.87
930.76	211.86
931.06	211.72
931.36	211.66
931.66	211.69
931.96	211.75
932.26	211.75
932.56	211.60
932.86	211.55
933.16	211.54
933.46	211.52
933.76	211.43
934.06	211.50
934.36	211.61
934.66	211.60
934.96	211.53
935.26	211.58
935.56	211.65
935.86	211.56
936.16	211.46
936.46	211.41
936.76	211.34
937.06	211.28
937.36	211.25
937.66	211.28
937.96	211.24
938.26	211.25
938.56	211.19
938.86	211.21
939.16	211.37
939.46	211.38
939.76	211.35
940.06	211.37
940.35	211.29
940.65	211.12
940.95	211.18
941.25	211.08
941.55	210.95
941.85	210.90
942.15	211.01
942.45	211.12
942.75	211.13
943.04	211.21
943.34	211.24
943.64	211.24
943.94	211.13
944.24	211.14
944.54	211.07
944.84	211.12
945.13	211.07
945.43	210.86
945.73	210.85
946.03	210.84
946.33	210.81
946.62	210.77
946.92	210.83
947.22	210.77
947.52	210.85
947.82	210.86
948.11	210.80
948.41	210.70
948.71	210.72
949.01	210.67
949.31	210.62
949.60	210.54
949.90	210.66
950.20	210.67
950.50	210.71
950.79	210.72
951.09	210.79
951.39	210.79
951.69	210.75
951.98	210.80
952.28	210.81
952.58	210.87
952.87	210.94
953.17	210.95
953.47	210.90
953.76	210.90
954.06	210.90
954.36	210.90
954.66	210.87
954.95	210.88
955.25	210.97
955.55	211.05
955.84	211.06
956.14	211.03
956.44	211.10
956.73	211.04
957.03	211.15
957.32	211.15
957.62	211.17
957.92	211.27
958.21	211.29
958.51	211.70
958.81	211.76
959.10	211.84
959.40	211.95
959.69	212.01
959.99	212.04
960.29	212.04
960.58	212.04
960.88	212.23
961.17	212.20
961.47	212.19
961.76	212.23
962.06	212.33
962.36	212.30
962.65	212.35
962.95	212.41
963.24	212.31
963.54	212.37
963.83	212.45
964.13	212.52
964.42	212.37
964.72	212.11
965.01	212.08
965.31	212.04
965.60	211.93
965.90	212.19
966.19	212.13
966.49	212.18
966.78	212.20
967.08	212.15
967.37	212.20
967.67	212.22
967.96	212.18
968.26	212.15
968.55	212.19
968.85	212.04
969.14	212.00
969.43	212.05
969.73	211.96
970.02	211.90
970.32	211.82
970.61	211.86
970.91	211.72
971.20	211.63
971.49	211.55
971.79	211.60
972.08	211.32
972.38	211.41
972.67	211.36
972.96	211.32
973.26	211.24
973.55	211.24
973.85	211.18
974.14	211.09
974.43	211.10
974.73	211.00
975.02	211.01
975.31	210.96
975.61	210.90
975.90	210.85
976.19	210.81
976.49	210.83
976.78	210.83
977.07	210.87
977.37	210.89
977.66	210.91
977.95	210.81
978.24	210.86
978.54	210.85
978.83	210.79
979.12	210.78
979.42	210.75
979.71	210.72
980.00	210.71
980.29	210.77
980.59	210.64
980.88	210.70
981.17	210.70
981.46	210.70
981.76	210.63
982.05	210.75
982.34	210.80
982.63	210.78
982.93	210.75
983.22	210.85
983.51	210.80
983.80	210.87
984.09	210.95
984.39	210.90
984.68	210.84
984.97	210.91
985.26	210.88
985.55	210.98
985.85	210.92
986.14	210.95
986.43	210.94
986.72	210.93
987.01	210.86
987.30	210.82
987.59	210.83
987.89	210.83
988.18	210.72
988.47	210.64
988.76	210.68
989.05	210.73
989.34	210.61
989.63	210.73
989.92	210.68
990.22	210.62
990.51	210.56
990.80	210.56
991.09	210.57
991.38	210.65
991.67	210.60
991.96	210.59
992.25	210.58
992.54	210.55
992.83	210.63
993.12	210.70
993.41	210.76
993.70	210.95
993.99	211.15
994.28	211.24
994.58	211.31
994.87	211.23
995.16	211.20
995.45	211.15
995.74	211.00
996.03	211.06
996.32	211.08
996.61	211.18
996.90	211.19
997.19	211.20
997.48	211.19
997.77	211.13
998.06	211.05
998.34	211.03
998.63	211.02
998.92	210.98
999.21	210.97
999.50	210.96
999.79	210.83
1000.08	210.70
1000.37	210.63
1000.66	210.57
1000.95	210.66
1001.24	210.62
1001.53	210.75
1001.82	210.82
1002.11	210.68
1002.40	210.75
1002.68	210.84
1002.97	211.09
1003.26	211.00
1003.55	210.93
1003.84	210.89
1004.13	211.10
1004.42	211.10
1004.71	211.13
1004.99	211.16
1005.28	211.27
1005.57	211.32
1005.86	211.25
1006.15	211.27
1006.44	211.27
1006.72	211.29
1007.01	211.13
1007.30	211.22
1007.59	211.20
1007.88	211.16
1008.17	211.20
1008.45	211.10
1008.74	210.90
1009.03	210.70
1009.32	210.74
1009.60	210.79
1009.89	210.84
1010.18	210.65
1010.47	210.65
1010.76	210.66
1011.04	210.58
1011.33	210.56
1011.62	210.52
1011.91	210.61
1012.19	210.58
1012.48	210.50
1012.77	210.51
1013.05	210.75
1013.34	210.72
1013.63	210.64
1013.92	210.65
1014.20	210.70
1014.49	210.72
1014.78	210.85
1015.06	210.75
1015.35	210.69
1015.64	210.77
1015.92	210.81
1016.21	210.86
1016.50	210.91
1016.78	210.90
1017.07	211.00
1017.36	210.96
1017.64	210.91
1017.93	210.89
1018.22	210.89
1018.50	210.92
1018.79	210.91
1019.08	210.68
1019.36	210.64
1019.65	210.61
1019.93	210.78
1020.22	210.76
1020.51	210.92
1020.79	210.89
1021.08	210.30
1021.36	209.60
1021.65	210.55
1021.94	209.10
1022.22	210.00
1022.51	209.95
1022.79	213.45
1023.08	210.95
1023.36	214.70
1023.65	210.65
>>>>>End Processed Spectral Data<<<<<
