SpectraSuite Data File
++++++++++++++++++++++++++++++++++++
Date: Mon Feb 25 17:18:01 EST 2013
User: group
Dark Spectrum Present: No
Reference Spectrum Present: No
Number of Sampled Component Spectra: 1
Spectrometers: USB2E7196
Integration Time (usec): 104000 (USB2E7196)
Spectra Averaged: 20 (USB2E7196)
Boxcar Smoothing: 10 (USB2E7196)
Correct for Electrical Dark: No (USB2E7196)
Strobe/Lamp Enabled: No (USB2E7196)
Correct for Detector Non-linearity: No (USB2E7196)
Correct for Stray Light: No (USB2E7196)
Number of Pixels in Processed Spectrum: 2048
>>>>>Begin Processed Spectral Data<<<<<
339.09	0.00
339.48	199.80
339.86	200.60
340.24	201.15
340.63	203.15
341.01	209.10
341.39	205.25
341.78	208.40
342.16	209.65
342.54	207.85
342.93	198.26
343.31	208.34
343.69	208.80
344.07	209.27
344.46	209.76
344.84	210.16
345.22	210.25
345.60	210.58
345.99	210.68
346.37	210.80
346.75	210.97
347.13	211.04
347.52	211.16
347.90	211.36
348.28	211.30
348.66	211.52
349.05	211.45
349.43	211.62
349.81	211.67
350.19	211.81
350.57	211.94
350.96	212.15
351.34	212.18
351.72	212.27
352.10	212.41
352.48	212.44
352.87	212.50
353.25	212.65
353.63	212.73
354.01	212.81
354.39	212.89
354.77	212.98
355.15	213.05
355.54	213.05
355.92	213.01
356.30	213.10
356.68	213.34
357.06	213.36
357.44	213.36
357.82	213.42
358.20	213.45
358.58	213.54
358.97	213.58
359.35	213.70
359.73	213.90
360.11	213.93
360.49	213.96
360.87	213.99
361.25	214.05
361.63	214.13
362.01	214.19
362.39	214.19
362.77	214.24
363.15	214.30
363.53	214.32
363.91	214.33
364.29	214.34
364.67	214.04
365.05	214.06
365.43	214.10
365.81	214.25
366.19	214.42
366.57	214.59
366.95	214.60
367.33	214.60
367.71	214.55
368.09	214.61
368.47	214.64
368.85	214.63
369.23	214.64
369.61	214.50
369.99	214.59
370.37	214.64
370.75	214.77
371.13	214.65
371.51	214.63
371.89	214.68
372.27	214.68
372.65	214.71
373.03	214.70
373.41	214.69
373.78	214.56
374.16	214.35
374.54	214.19
374.92	214.13
375.30	214.12
375.68	214.04
376.06	213.99
376.44	213.99
376.82	213.95
377.19	213.83
377.57	213.82
377.95	213.66
378.33	213.56
378.71	213.34
379.09	213.44
379.47	213.45
379.84	213.39
380.22	213.28
380.60	213.16
380.98	213.16
381.36	213.06
381.73	213.01
382.11	212.97
382.49	212.88
382.87	212.72
383.25	212.52
383.62	212.90
384.00	212.81
384.38	212.70
384.76	212.86
385.13	212.92
385.51	212.88
385.89	212.88
386.27	212.90
386.64	212.88
387.02	212.73
387.40	212.70
387.78	212.73
388.15	212.72
388.53	212.64
388.91	212.55
389.29	212.54
389.66	212.56
390.04	212.58
390.42	212.61
390.79	212.70
391.17	212.76
391.55	212.37
391.92	212.39
392.30	212.49
392.68	212.32
393.05	212.36
393.43	212.41
393.81	212.46
394.18	212.40
394.56	212.43
394.94	212.58
395.31	212.52
395.69	212.52
396.06	212.65
396.44	212.77
396.82	212.79
397.19	212.95
397.57	212.96
397.95	213.03
398.32	213.00
398.70	213.01
399.07	213.13
399.45	213.13
399.82	213.19
400.20	213.14
400.58	213.16
400.95	213.00
401.33	213.09
401.70	213.28
402.08	213.37
402.45	213.41
402.83	213.56
403.20	213.69
403.58	213.73
403.95	213.82
404.33	213.94
404.71	214.02
405.08	214.36
405.46	214.49
405.83	214.64
406.21	214.78
406.58	214.99
406.96	215.07
407.33	215.23
407.70	215.45
408.08	215.89
408.45	216.19
408.83	216.56
409.20	216.81
409.58	216.92
409.95	217.34
410.33	217.69
410.70	217.82
411.08	218.24
411.45	218.63
411.82	218.99
412.20	219.55
412.57	220.30
412.95	220.53
413.32	221.17
413.69	221.79
414.07	222.49
414.44	223.15
414.82	223.97
415.19	224.86
415.56	225.67
415.94	226.41
416.31	227.48
416.68	228.50
417.06	229.66
417.43	230.87
417.81	232.10
418.18	233.44
418.55	234.92
418.93	236.39
419.30	238.00
419.67	239.74
420.04	241.26
420.42	242.88
420.79	245.06
421.16	247.10
421.54	249.27
421.91	251.48
422.28	253.80
422.66	256.12
423.03	258.60
423.40	261.05
423.77	263.68
424.15	266.29
424.52	268.98
424.89	271.97
425.26	274.74
425.64	277.40
426.01	280.40
426.38	283.56
426.75	286.72
427.13	289.91
427.50	293.28
427.87	296.95
428.24	300.59
428.61	303.81
428.99	307.64
429.36	311.66
429.73	315.60
430.10	319.55
430.47	323.63
430.85	327.79
431.22	332.31
431.59	337.18
431.96	341.62
432.33	346.60
432.70	351.46
433.08	357.22
433.45	362.64
433.82	367.98
434.19	373.72
434.56	379.59
434.93	385.33
435.30	390.76
435.68	396.88
436.05	402.89
436.42	408.97
436.79	414.47
437.16	420.38
437.53	426.56
437.90	432.69
438.27	438.78
438.64	444.94
439.01	450.84
439.38	455.80
439.75	460.95
440.13	466.65
440.50	471.86
440.87	476.23
441.24	480.83
441.61	485.74
441.98	489.52
442.35	493.76
442.72	497.91
443.09	502.25
443.46	504.76
443.83	506.32
444.20	507.60
444.57	509.66
444.94	510.54
445.31	511.54
445.68	512.98
446.05	513.23
446.42	512.63
446.79	511.75
447.16	510.86
447.53	510.14
447.90	507.70
448.27	505.32
448.64	501.98
449.01	499.41
449.37	495.22
449.74	491.12
450.11	486.48
450.48	481.14
450.85	475.67
451.22	471.02
451.59	466.78
451.96	462.69
452.33	457.08
452.70	452.06
453.07	446.10
453.43	439.58
453.80	433.94
454.17	428.31
454.54	422.97
454.91	417.46
455.28	411.80
455.65	406.80
456.02	402.25
456.38	397.84
456.75	392.48
457.12	388.01
457.49	383.67
457.86	379.17
458.23	375.68
458.59	371.78
458.96	367.67
459.33	363.88
459.70	360.27
460.07	357.38
460.43	354.03
460.80	350.98
461.17	348.33
461.54	345.35
461.91	342.67
462.27	339.95
462.64	337.47
463.01	335.14
463.38	332.73
463.74	329.72
464.11	327.53
464.48	325.72
464.85	323.77
465.21	322.23
465.58	320.61
465.95	318.55
466.32	316.81
466.68	315.22
467.05	313.71
467.42	312.09
467.78	310.43
468.15	308.91
468.52	307.80
468.88	306.20
469.25	304.93
469.62	303.90
469.98	302.76
470.35	301.78
470.72	300.76
471.08	299.64
471.45	298.84
471.82	298.06
472.18	297.12
472.55	296.40
472.92	295.58
473.28	294.84
473.65	294.13
474.02	293.55
474.38	293.11
474.75	292.79
475.11	292.40
475.48	292.16
475.85	292.04
476.21	291.85
476.58	291.70
476.94	291.72
477.31	291.73
477.67	291.74
478.04	291.78
478.41	291.94
478.77	292.57
479.14	292.70
479.50	293.00
479.87	293.43
480.23	293.95
480.60	294.38
480.96	294.86
481.33	295.67
481.69	296.39
482.06	297.13
482.42	297.77
482.79	298.62
483.15	299.51
483.52	300.54
483.88	301.55
484.25	302.78
484.61	304.02
484.98	305.22
485.34	306.80
485.71	308.43
486.07	310.17
486.44	311.51
486.80	313.53
487.17	315.47
487.53	317.65
487.90	319.94
488.26	322.51
488.62	325.20
488.99	327.78
489.35	330.64
489.72	333.66
490.08	336.89
490.44	340.06
490.81	343.54
491.17	347.00
491.54	350.85
491.90	354.80
492.26	358.98
492.63	363.45
492.99	368.03
493.36	372.82
493.72	377.93
494.08	383.18
494.45	388.67
494.81	394.66
495.17	400.64
495.54	406.95
495.90	413.52
496.26	420.37
496.63	427.53
496.99	434.81
497.35	442.52
497.72	450.54
498.08	458.85
498.44	467.43
498.80	476.59
499.17	485.98
499.53	495.71
499.89	505.95
500.26	516.21
500.62	526.85
500.98	538.15
501.34	549.56
501.71	561.71
502.07	573.90
502.43	586.27
502.79	599.02
503.16	612.49
503.52	626.26
503.88	640.54
504.24	655.20
504.60	670.19
504.97	685.77
505.33	701.53
505.69	718.48
506.05	735.42
506.41	752.70
506.78	770.07
507.14	788.00
507.50	806.15
507.86	825.00
508.22	844.33
508.59	863.75
508.95	883.93
509.31	904.04
509.67	925.03
510.03	946.56
510.39	968.55
510.75	990.58
511.12	1012.91
511.48	1035.22
511.84	1058.08
512.20	1081.15
512.56	1104.90
512.92	1129.30
513.28	1153.47
513.64	1177.88
514.00	1202.42
514.37	1227.39
514.73	1252.75
515.09	1278.36
515.45	1303.83
515.81	1329.47
516.17	1355.53
516.53	1381.50
516.89	1407.64
517.25	1433.93
517.61	1460.01
517.97	1486.37
518.33	1512.63
518.69	1539.11
519.05	1565.85
519.41	1592.65
519.77	1620.00
520.13	1646.41
520.49	1672.46
520.85	1699.00
521.21	1725.83
521.57	1753.06
521.93	1779.44
522.29	1806.53
522.65	1833.56
523.01	1860.17
523.37	1886.08
523.73	1912.33
524.09	1938.77
524.45	1965.55
524.81	1991.56
525.17	2018.22
525.53	2044.36
525.89	2070.49
526.25	2096.46
526.61	2121.23
526.97	2146.21
527.33	2170.86
527.68	2196.31
528.04	2220.72
528.40	2244.27
528.76	2267.92
529.12	2291.67
529.48	2316.51
529.84	2340.02
530.20	2363.17
530.56	2386.76
530.91	2411.28
531.27	2435.01
531.63	2457.61
531.99	2480.07
532.35	2502.16
532.71	2523.39
533.07	2545.49
533.42	2566.55
533.78	2587.55
534.14	2608.63
534.50	2628.21
534.86	2648.80
535.21	2667.17
535.57	2687.29
535.93	2706.56
536.29	2725.61
536.65	2744.23
537.00	2760.89
537.36	2777.73
537.72	2794.26
538.08	2810.52
538.44	2826.28
538.79	2842.02
539.15	2857.47
539.51	2872.80
539.87	2888.58
540.22	2903.34
540.58	2918.35
540.94	2932.88
541.29	2945.88
541.65	2958.31
542.01	2971.60
542.37	2983.82
542.72	2996.52
543.08	3007.83
543.44	3020.20
543.79	3030.80
544.15	3040.36
544.51	3051.74
544.87	3062.77
545.22	3072.24
545.58	3080.95
545.94	3088.49
546.29	3095.01
546.65	3102.38
547.01	3108.91
547.36	3114.77
547.72	3121.01
548.07	3125.23
548.43	3129.42
548.79	3133.90
549.14	3138.61
549.50	3142.89
549.86	3145.85
550.21	3148.83
550.57	3152.47
550.92	3153.56
551.28	3155.17
551.64	3157.68
551.99	3159.66
552.35	3160.12
552.70	3161.40
553.06	3162.98
553.41	3164.25
553.77	3165.50
554.13	3165.15
554.48	3165.75
554.84	3166.46
555.19	3165.86
555.55	3164.77
555.90	3163.61
556.26	3162.07
556.61	3160.57
556.97	3158.02
557.32	3156.34
557.68	3153.69
558.03	3150.46
558.39	3148.57
558.74	3147.03
559.10	3144.70
559.45	3141.20
559.81	3138.78
560.16	3135.09
560.52	3131.79
560.87	3127.94
561.23	3123.72
561.58	3120.63
561.94	3115.45
562.29	3109.50
562.64	3105.18
563.00	3101.83
563.35	3098.29
563.71	3095.15
564.06	3091.26
564.42	3088.23
564.77	3084.24
565.12	3080.52
565.48	3076.50
565.83	3072.41
566.19	3068.39
566.54	3062.33
566.89	3056.69
567.25	3051.28
567.60	3046.60
567.96	3040.64
568.31	3035.63
568.66	3029.90
569.02	3023.40
569.37	3016.86
569.72	3011.31
570.08	3004.41
570.43	2996.90
570.78	2989.45
571.14	2981.40
571.49	2973.43
571.84	2965.85
572.20	2957.12
572.55	2949.60
572.90	2940.62
573.26	2931.44
573.61	2921.94
573.96	2913.24
574.31	2903.90
574.67	2893.46
575.02	2883.17
575.37	2873.49
575.72	2862.52
576.08	2853.40
576.43	2843.23
576.78	2833.66
577.13	2824.33
577.49	2815.15
577.84	2805.53
578.19	2796.14
578.54	2787.54
578.90	2779.30
579.25	2769.32
579.60	2759.14
579.95	2748.07
580.30	2738.74
580.66	2729.43
581.01	2719.59
581.36	2709.34
581.71	2699.50
582.06	2690.11
582.42	2680.40
582.77	2670.00
583.12	2660.22
583.47	2650.38
583.82	2641.24
584.17	2631.48
584.53	2621.61
584.88	2611.33
585.23	2601.08
585.58	2591.03
585.93	2580.51
586.28	2570.22
586.63	2560.22
586.98	2550.94
587.34	2542.14
587.69	2532.30
588.04	2522.39
588.39	2512.86
588.74	2503.20
589.09	2494.11
589.44	2484.11
589.79	2474.92
590.14	2466.03
590.49	2456.61
590.84	2446.67
591.19	2438.05
591.54	2428.70
591.89	2417.58
592.25	2407.95
592.60	2397.77
592.95	2387.30
593.30	2375.98
593.65	2364.82
594.00	2354.44
594.35	2345.95
594.70	2336.11
595.05	2326.67
595.40	2316.61
595.75	2305.95
596.10	2296.67
596.45	2286.90
596.80	2278.31
597.15	2269.40
597.50	2259.27
597.85	2250.23
598.19	2240.88
598.54	2230.98
598.89	2221.99
599.24	2214.63
599.59	2205.87
599.94	2198.54
600.29	2190.15
600.64	2182.44
600.99	2173.75
601.34	2165.57
601.69	2155.55
602.04	2146.12
602.39	2137.04
602.74	2128.82
603.08	2121.20
603.43	2113.49
603.78	2105.03
604.13	2096.35
604.48	2087.58
604.83	2080.81
605.18	2073.59
605.53	2065.01
605.87	2056.42
606.22	2048.43
606.57	2039.54
606.92	2030.89
607.27	2021.39
607.62	2012.81
607.96	2004.62
608.31	1997.06
608.66	1988.03
609.01	1979.23
609.36	1970.47
609.70	1961.01
610.05	1951.42
610.40	1942.16
610.75	1932.66
611.10	1924.06
611.44	1913.87
611.79	1903.80
612.14	1892.80
612.49	1881.95
612.83	1872.30
613.18	1861.64
613.53	1851.33
613.88	1840.77
614.22	1830.83
614.57	1820.88
614.92	1810.86
615.27	1800.45
615.61	1790.16
615.96	1780.57
616.31	1771.39
616.65	1762.77
617.00	1753.85
617.35	1744.51
617.70	1734.48
618.04	1723.62
618.39	1712.67
618.74	1703.30
619.08	1693.41
619.43	1683.97
619.78	1674.29
620.12	1664.81
620.47	1655.90
620.82	1645.72
621.16	1635.79
621.51	1626.11
621.85	1616.66
622.20	1606.93
622.55	1597.31
622.89	1587.28
623.24	1577.59
623.59	1567.22
623.93	1557.01
624.28	1547.45
624.62	1538.14
624.97	1528.83
625.32	1520.53
625.66	1512.05
626.01	1502.93
626.35	1494.20
626.70	1485.48
627.04	1477.27
627.39	1468.80
627.73	1459.96
628.08	1451.77
628.43	1443.07
628.77	1434.37
629.12	1425.52
629.46	1417.79
629.81	1409.41
630.15	1401.25
630.50	1392.64
630.84	1384.26
631.19	1375.95
631.53	1367.59
631.88	1358.75
632.22	1350.06
632.57	1341.78
632.91	1333.13
633.26	1324.84
633.60	1316.86
633.95	1308.97
634.29	1300.26
634.64	1292.02
634.98	1283.66
635.32	1275.84
635.67	1268.56
636.01	1260.82
636.36	1252.81
636.70	1244.54
637.05	1236.88
637.39	1229.22
637.73	1222.06
638.08	1215.42
638.42	1208.40
638.77	1200.96
639.11	1193.69
639.45	1186.48
639.80	1178.39
640.14	1170.58
640.49	1162.92
640.83	1155.07
641.17	1147.30
641.52	1139.88
641.86	1131.93
642.20	1124.38
642.55	1116.43
642.89	1108.42
643.23	1100.66
643.58	1093.67
643.92	1086.03
644.26	1078.50
644.61	1071.06
644.95	1063.15
645.29	1055.27
645.64	1047.34
645.98	1040.00
646.32	1033.01
646.66	1025.59
647.01	1018.69
647.35	1011.97
647.69	1004.40
648.04	997.42
648.38	990.24
648.72	983.21
649.06	976.06
649.41	969.15
649.75	962.06
650.09	955.27
650.43	948.16
650.78	940.73
651.12	933.51
651.46	926.48
651.80	920.05
652.14	913.45
652.49	906.49
652.83	899.51
653.17	891.97
653.51	884.82
653.85	878.28
654.20	871.50
654.54	864.50
654.88	858.26
655.22	851.38
655.56	844.57
655.90	837.72
656.25	831.37
656.59	824.85
656.93	818.62
657.27	812.30
657.61	805.87
657.95	799.63
658.29	793.63
658.64	787.75
658.98	781.18
659.32	774.77
659.66	768.86
660.00	762.84
660.34	757.25
660.68	751.07
661.02	744.97
661.36	739.23
661.70	733.77
662.05	728.19
662.39	723.05
662.73	717.68
663.07	712.67
663.41	707.40
663.75	702.06
664.09	696.54
664.43	691.06
664.77	686.11
665.11	680.86
665.45	675.80
665.79	670.55
666.13	665.70
666.47	660.80
666.81	655.74
667.15	650.85
667.49	646.28
667.83	641.79
668.17	637.22
668.51	632.74
668.85	628.16
669.19	623.85
669.53	619.15
669.87	614.68
670.21	610.25
670.55	605.89
670.89	601.96
671.23	598.22
671.57	594.29
671.91	590.12
672.25	586.11
672.58	582.06
672.92	578.17
673.26	574.29
673.60	570.66
673.94	566.95
674.28	563.30
674.62	559.60
674.96	555.99
675.30	552.41
675.64	548.76
675.97	545.18
676.31	541.82
676.65	538.47
676.99	535.34
677.33	531.86
677.67	528.48
678.01	524.85
678.34	521.31
678.68	517.98
679.02	514.62
679.36	511.42
679.70	508.29
680.04	505.06
680.37	501.85
680.71	498.49
681.05	495.56
681.39	492.45
681.73	489.40
682.06	486.55
682.40	483.66
682.74	480.58
683.08	477.69
683.42	474.37
683.75	471.43
684.09	468.33
684.43	465.33
684.77	462.31
685.10	459.43
685.44	456.42
685.78	453.45
686.12	450.82
686.45	448.19
686.79	445.52
687.13	442.96
687.46	440.22
687.80	437.87
688.14	435.10
688.48	432.60
688.81	429.86
689.15	427.08
689.49	424.41
689.82	421.90
690.16	419.25
690.50	416.77
690.83	414.20
691.17	411.59
691.51	409.16
691.84	406.93
692.18	404.62
692.52	402.47
692.85	400.48
693.19	398.18
693.52	395.93
693.86	393.57
694.20	391.28
694.53	389.22
694.87	386.91
695.21	384.73
695.54	382.37
695.88	380.19
696.21	378.15
696.55	376.13
696.88	374.11
697.22	372.04
697.56	370.28
697.89	368.35
698.23	366.42
698.56	364.61
698.90	362.69
699.23	360.88
699.57	358.98
699.90	357.01
700.24	355.18
700.58	353.31
700.91	351.60
701.25	350.05
701.58	348.30
701.92	346.63
702.25	344.90
702.59	343.34
702.92	341.76
703.26	340.12
703.59	338.48
703.93	337.21
704.26	335.71
704.60	334.04
704.93	332.46
705.26	330.91
705.60	329.40
705.93	327.85
706.27	326.56
706.60	325.34
706.94	324.09
707.27	322.70
707.61	321.33
707.94	319.86
708.27	318.29
708.61	316.95
708.94	315.67
709.28	314.44
709.61	313.17
709.94	311.98
710.28	310.86
710.61	309.72
710.95	308.18
711.28	307.25
711.61	306.16
711.95	305.13
712.28	304.15
712.61	303.11
712.95	302.33
713.28	301.26
713.61	300.15
713.95	299.01
714.28	298.10
714.61	297.15
714.95	296.13
715.28	295.15
715.61	294.15
715.95	293.12
716.28	292.10
716.61	291.17
716.95	290.19
717.28	289.25
717.61	288.35
717.94	287.42
718.28	286.31
718.61	285.35
718.94	284.48
719.27	283.62
719.61	282.82
719.94	281.79
720.27	280.74
720.60	279.81
720.94	278.95
721.27	278.14
721.60	277.41
721.93	276.64
722.27	276.06
722.60	275.41
722.93	274.76
723.26	274.14
723.59	273.41
723.93	272.79
724.26	272.13
724.59	271.44
724.92	270.86
725.25	270.30
725.59	269.75
725.92	269.13
726.25	268.51
726.58	267.78
726.91	267.15
727.24	266.62
727.57	266.00
727.91	265.35
728.24	264.66
728.57	263.97
728.90	263.55
729.23	262.82
729.56	262.36
729.89	261.64
730.22	260.97
730.55	260.35
730.89	259.72
731.22	259.17
731.55	258.56
731.88	258.08
732.21	257.50
732.54	256.86
732.87	256.36
733.20	255.91
733.53	255.46
733.86	255.02
734.19	254.50
734.52	254.08
734.85	253.90
735.18	253.52
735.51	253.17
735.84	252.72
736.17	252.37
736.50	251.70
736.83	251.76
737.16	251.35
737.49	250.93
737.82	250.46
738.15	250.02
738.48	249.58
738.81	249.12
739.14	248.71
739.47	248.31
739.80	247.89
740.13	247.35
740.46	246.85
740.79	246.35
741.12	245.90
741.45	245.47
741.78	244.92
742.11	244.49
742.44	244.02
742.77	243.66
743.10	243.19
743.43	242.83
743.75	242.05
744.08	242.10
744.41	241.76
744.74	241.44
745.07	240.97
745.40	240.65
745.73	240.48
746.06	240.06
746.39	239.77
746.71	239.32
747.04	239.03
747.37	238.74
747.70	238.55
748.03	238.28
748.36	237.98
748.68	237.60
749.01	237.20
749.34	236.92
749.67	236.59
750.00	236.43
750.33	236.38
750.65	236.14
750.98	235.46
751.31	235.13
751.64	234.87
751.97	234.76
752.29	234.52
752.62	234.08
752.95	233.75
753.28	233.42
753.60	233.12
753.93	232.90
754.26	232.66
754.59	232.20
754.91	231.84
755.24	231.65
755.57	231.48
755.90	231.26
756.22	231.00
756.55	230.73
756.88	230.32
757.20	229.84
757.53	229.50
757.86	229.23
758.19	229.05
758.51	228.79
758.84	228.44
759.17	228.16
759.49	227.98
759.82	228.02
760.15	227.85
760.47	227.70
760.80	227.38
761.13	227.24
761.45	227.07
761.78	227.01
762.11	226.84
762.43	226.56
762.76	226.36
763.08	226.28
763.41	226.20
763.74	226.02
764.06	225.87
764.39	225.75
764.71	225.54
765.04	225.38
765.37	225.18
765.69	225.04
766.02	224.87
766.34	224.65
766.67	224.28
767.00	224.20
767.32	224.29
767.65	224.41
767.97	224.17
768.30	224.13
768.62	223.93
768.95	223.76
769.27	223.69
769.60	223.63
769.92	223.41
770.25	223.13
770.57	223.03
770.90	222.89
771.22	222.73
771.55	222.62
771.87	222.46
772.20	222.33
772.52	222.48
772.85	222.80
773.17	222.73
773.50	222.67
773.82	222.55
774.15	222.26
774.47	221.93
774.80	221.90
775.12	221.75
775.45	221.69
775.77	221.53
776.09	221.35
776.42	221.21
776.74	221.23
777.07	221.13
777.39	221.06
777.72	220.98
778.04	220.96
778.36	220.84
778.69	220.82
779.01	220.84
779.33	220.47
779.66	220.01
779.98	219.90
780.31	219.79
780.63	219.87
780.95	219.86
781.28	219.84
781.60	219.64
781.92	219.61
782.25	219.45
782.57	219.45
782.89	219.47
783.22	219.44
783.54	219.25
783.86	219.24
784.19	219.05
784.51	219.04
784.83	218.90
785.16	218.90
785.48	218.82
785.80	218.76
786.12	218.75
786.45	218.74
786.77	218.74
787.09	218.64
787.42	218.40
787.74	218.35
788.06	218.18
788.38	218.10
788.71	218.00
789.03	218.04
789.35	217.91
789.67	217.76
789.99	217.67
790.32	217.58
790.64	217.49
790.96	217.80
791.28	217.69
791.61	217.55
791.93	217.48
792.25	217.44
792.57	217.64
792.89	217.48
793.21	217.37
793.54	217.26
793.86	217.26
794.18	217.16
794.50	217.04
794.82	217.05
795.14	217.03
795.47	217.04
795.79	216.90
796.11	216.76
796.43	216.65
796.75	216.63
797.07	216.62
797.39	216.56
797.71	216.25
798.04	216.15
798.36	216.15
798.68	216.11
799.00	216.07
799.32	215.80
799.64	215.81
799.96	215.76
800.28	215.73
800.60	215.60
800.92	215.60
801.24	215.55
801.56	215.51
801.89	215.46
802.21	215.40
802.53	215.32
802.85	215.44
803.17	215.61
803.49	215.50
803.81	215.46
804.13	215.37
804.45	215.29
804.77	215.25
805.09	215.23
805.41	215.14
805.73	214.98
806.05	214.86
806.37	214.84
806.69	214.84
807.01	214.85
807.33	214.86
807.65	214.79
807.97	214.86
808.28	214.74
808.60	214.71
808.92	214.69
809.24	214.90
809.56	214.80
809.88	214.61
810.20	214.56
810.52	214.51
810.84	214.49
811.16	214.39
811.48	214.37
811.80	214.47
812.12	214.41
812.43	214.55
812.75	214.55
813.07	214.50
813.39	214.39
813.71	214.31
814.03	214.23
814.35	214.17
814.67	214.12
814.98	214.17
815.30	214.12
815.62	214.00
815.94	213.74
816.26	213.69
816.58	213.64
816.89	213.64
817.21	213.61
817.53	213.62
817.85	213.70
818.17	213.68
818.48	213.49
818.80	213.59
819.12	213.46
819.44	213.39
819.76	213.31
820.07	213.40
820.39	213.34
820.71	213.40
821.03	213.32
821.34	213.16
821.66	213.18
821.98	213.16
822.30	213.13
822.61	213.30
822.93	213.25
823.25	213.24
823.57	213.22
823.88	213.27
824.20	213.21
824.52	213.16
824.83	213.13
825.15	213.10
825.47	213.04
825.79	213.07
826.10	213.05
826.42	213.02
826.74	213.00
827.05	212.97
827.37	212.97
827.69	212.96
828.00	212.98
828.32	212.99
828.64	213.01
828.95	213.13
829.27	213.03
829.58	213.09
829.90	213.18
830.22	213.17
830.53	213.07
830.85	213.06
831.17	213.01
831.48	212.99
831.80	213.01
832.11	213.04
832.43	212.89
832.75	212.91
833.06	213.09
833.38	212.97
833.69	212.98
834.01	212.94
834.32	212.93
834.64	212.90
834.96	212.90
835.27	212.88
835.59	212.82
835.90	212.71
836.22	212.67
836.53	212.53
836.85	212.48
837.16	212.80
837.48	212.74
837.79	212.82
838.11	212.87
838.42	212.91
838.74	212.90
839.05	212.96
839.37	212.90
839.68	212.73
840.00	212.67
840.31	212.65
840.63	212.66
840.94	212.62
841.26	212.61
841.57	212.60
841.88	212.60
842.20	212.53
842.51	212.55
842.83	212.52
843.14	212.94
843.46	212.93
843.77	212.72
844.08	212.76
844.40	212.64
844.71	212.58
845.03	212.49
845.34	212.42
845.65	212.39
845.97	212.35
846.28	212.34
846.60	212.43
846.91	212.43
847.22	212.36
847.54	212.51
847.85	212.53
848.16	212.45
848.48	212.43
848.79	212.59
849.10	212.64
849.42	212.63
849.73	212.12
850.04	212.09
850.36	211.97
850.67	212.07
850.98	212.10
851.30	212.13
851.61	212.16
851.92	212.13
852.23	212.27
852.55	212.39
852.86	212.35
853.17	212.33
853.49	212.37
853.80	212.44
854.11	212.38
854.42	212.40
854.74	212.34
855.05	212.33
855.36	212.13
855.67	212.09
855.99	212.10
856.30	212.62
856.61	212.64
856.92	212.63
857.23	212.65
857.55	212.64
857.86	212.54
858.17	212.59
858.48	212.57
858.79	212.49
859.11	212.44
859.42	212.46
859.73	212.45
860.04	212.47
860.35	212.43
860.66	212.33
860.98	212.32
861.29	212.40
861.60	212.29
861.91	212.40
862.22	212.36
862.53	212.30
862.84	211.90
863.16	211.90
863.47	211.91
863.78	211.75
864.09	211.76
864.40	211.85
864.71	211.79
865.02	211.80
865.33	211.73
865.64	211.63
865.95	211.56
866.27	211.78
866.58	211.68
866.89	211.62
867.20	211.68
867.51	211.61
867.82	211.55
868.13	211.70
868.44	211.61
868.75	211.69
869.06	211.73
869.37	211.71
869.68	211.68
869.99	211.74
870.30	211.83
870.61	211.80
870.92	211.74
871.23	211.75
871.54	211.82
871.85	211.92
872.16	212.02
872.47	212.02
872.78	211.84
873.09	211.89
873.40	211.86
873.71	211.83
874.02	211.86
874.33	211.85
874.64	211.80
874.95	211.86
875.26	211.75
875.56	211.81
875.87	211.80
876.18	211.73
876.49	211.99
876.80	211.89
877.11	211.86
877.42	211.84
877.73	211.78
878.04	211.76
878.35	211.78
878.66	211.75
878.96	211.76
879.27	211.67
879.58	211.72
879.89	211.70
880.20	211.78
880.51	211.73
880.82	211.73
881.12	211.75
881.43	211.63
881.74	211.59
882.05	211.57
882.36	211.60
882.67	211.65
882.97	211.33
883.28	211.37
883.59	211.41
883.90	211.45
884.21	211.57
884.51	211.57
884.82	211.55
885.13	211.55
885.44	211.57
885.74	211.61
886.05	211.47
886.36	211.53
886.67	211.37
886.98	211.55
887.28	211.60
887.59	211.55
887.90	211.53
888.20	211.46
888.51	211.48
888.82	211.42
889.13	211.53
889.43	211.84
889.74	211.75
890.05	211.74
890.35	211.72
890.66	211.65
890.97	211.57
891.28	211.49
891.58	211.47
891.89	211.46
892.20	211.44
892.50	211.55
892.81	211.50
893.12	211.54
893.42	211.39
893.73	211.41
894.04	211.40
894.34	211.46
894.65	211.55
894.95	211.42
895.26	211.45
895.57	211.51
895.87	211.15
896.18	211.33
896.48	211.33
896.79	211.33
897.10	211.34
897.40	211.38
897.71	211.44
898.01	211.37
898.32	211.41
898.63	211.37
898.93	211.31
899.24	211.41
899.54	211.42
899.85	211.44
900.15	211.40
900.46	211.49
900.76	211.50
901.07	211.44
901.38	211.50
901.68	211.61
901.99	211.44
902.29	211.45
902.60	211.36
902.90	211.35
903.21	211.41
903.51	211.40
903.82	211.52
904.12	211.50
904.43	211.60
904.73	211.59
905.03	211.66
905.34	212.01
905.64	211.96
905.95	211.97
906.25	211.97
906.56	211.99
906.86	211.91
907.17	212.00
907.47	212.09
907.77	212.07
908.08	211.95
908.38	212.02
908.69	212.00
908.99	212.09
909.30	212.07
909.60	211.98
909.90	212.06
910.21	211.86
910.51	211.82
910.81	211.76
911.12	211.78
911.42	211.80
911.73	211.48
912.03	211.47
912.33	211.45
912.64	211.41
912.94	211.43
913.24	211.38
913.55	211.22
913.85	211.16
914.15	211.19
914.46	211.19
914.76	211.13
915.06	211.13
915.37	211.03
915.67	211.07
915.97	211.09
916.27	210.95
916.58	211.01
916.88	211.06
917.18	211.06
917.49	211.26
917.79	211.22
918.09	211.18
918.39	211.30
918.70	211.32
919.00	211.28
919.30	211.36
919.60	211.38
919.91	211.37
920.21	211.36
920.51	211.37
920.81	211.39
921.12	211.50
921.42	211.50
921.72	211.55
922.02	211.48
922.32	211.48
922.63	211.58
922.93	211.72
923.23	211.73
923.53	211.75
923.83	211.58
924.13	211.53
924.44	211.56
924.74	211.59
925.04	211.65
925.34	211.69
925.64	211.61
925.94	211.58
926.24	211.85
926.55	211.86
926.85	211.93
927.15	211.95
927.45	211.89
927.75	211.90
928.05	211.85
928.35	211.91
928.65	211.96
928.95	211.93
929.26	211.79
929.56	211.89
929.86	211.88
930.16	211.78
930.46	211.83
930.76	211.85
931.06	211.78
931.36	211.80
931.66	211.88
931.96	211.89
932.26	212.00
932.56	211.77
932.86	211.81
933.16	211.79
933.46	211.74
933.76	211.75
934.06	211.82
934.36	212.00
934.66	212.00
934.96	212.00
935.26	212.03
935.56	212.09
935.86	211.94
936.16	211.95
936.46	211.96
936.76	211.98
937.06	211.89
937.36	211.84
937.66	211.74
937.96	211.69
938.26	211.70
938.56	211.65
938.86	211.70
939.16	211.78
939.46	211.72
939.76	211.79
940.06	211.75
940.35	211.67
940.65	211.48
940.95	211.50
941.25	211.45
941.55	211.40
941.85	211.35
942.15	211.39
942.45	211.43
942.75	211.41
943.04	211.40
943.34	211.52
943.64	211.50
943.94	211.53
944.24	211.55
944.54	211.52
944.84	211.50
945.13	211.47
945.43	211.37
945.73	211.39
946.03	211.30
946.33	211.29
946.62	211.27
946.92	211.22
947.22	211.25
947.52	211.24
947.82	211.31
948.11	211.34
948.41	211.30
948.71	211.24
949.01	211.35
949.31	211.29
949.60	211.20
949.90	211.19
950.20	211.16
950.50	211.20
950.79	211.16
951.09	211.23
951.39	211.24
951.69	211.23
951.98	211.39
952.28	211.47
952.58	211.45
952.87	211.45
953.17	211.58
953.47	211.52
953.76	211.54
954.06	211.42
954.36	211.35
954.66	211.34
954.95	211.43
955.25	211.37
955.55	211.45
955.84	211.46
956.14	211.49
956.44	211.50
956.73	211.40
957.03	211.37
957.32	211.25
957.62	211.17
957.92	211.24
958.21	211.15
958.51	211.50
958.81	211.50
959.10	211.59
959.40	211.65
959.69	211.71
959.99	211.78
960.29	211.86
960.58	211.86
960.88	212.03
961.17	211.95
961.47	211.95
961.76	211.84
962.06	211.91
962.36	211.92
962.65	211.91
962.95	211.93
963.24	211.90
963.54	212.03
963.83	212.09
964.13	212.09
964.42	211.99
964.72	211.66
965.01	211.67
965.31	211.60
965.60	211.50
965.90	211.72
966.19	211.60
966.49	211.59
966.78	211.57
967.08	211.52
967.37	211.56
967.67	211.57
967.96	211.71
968.26	211.67
968.55	211.71
968.85	211.67
969.14	211.69
969.43	211.71
969.73	211.62
970.02	211.60
970.32	211.50
970.61	211.51
970.91	211.45
971.20	211.39
971.49	211.32
971.79	211.30
972.08	211.00
972.38	211.05
972.67	211.08
972.96	211.10
973.26	210.97
973.55	211.08
973.85	211.05
974.14	210.96
974.43	210.97
974.73	210.90
975.02	210.90
975.31	210.88
975.61	210.87
975.90	210.95
976.19	210.97
976.49	211.05
976.78	211.09
977.07	211.05
977.37	211.12
977.66	211.19
977.95	211.17
978.24	211.19
978.54	211.27
978.83	211.22
979.12	211.20
979.42	211.21
979.71	211.12
980.00	211.08
980.29	211.11
980.59	211.08
980.88	211.20
981.17	211.16
981.46	211.17
981.76	211.20
982.05	211.25
982.34	211.23
982.63	211.16
982.93	211.12
983.22	211.23
983.51	211.21
983.80	211.25
984.09	211.35
984.39	211.33
984.68	211.26
984.97	211.26
985.26	211.20
985.55	211.22
985.85	211.14
986.14	211.20
986.43	211.27
986.72	211.22
987.01	211.01
987.30	211.04
987.59	211.03
987.89	211.04
988.18	210.90
988.47	210.87
988.76	210.94
989.05	210.90
989.34	210.89
989.63	211.01
989.92	211.00
990.22	210.95
990.51	211.05
990.80	210.99
991.09	211.01
991.38	211.07
991.67	211.11
991.96	211.15
992.25	211.16
992.54	211.09
992.83	211.13
993.12	211.27
993.41	211.36
993.70	211.53
993.99	211.57
994.28	211.69
994.58	211.73
994.87	211.67
995.16	211.67
995.45	211.59
995.74	211.39
996.03	211.46
996.32	211.47
996.61	211.48
996.90	211.51
997.19	211.50
997.48	211.55
997.77	211.42
998.06	211.41
998.34	211.35
998.63	211.34
998.92	211.39
999.21	211.36
999.50	211.35
999.79	211.18
1000.08	211.18
1000.37	211.10
1000.66	211.10
1000.95	211.14
1001.24	211.20
1001.53	211.28
1001.82	211.33
1002.11	211.17
1002.40	211.22
1002.68	211.30
1002.97	211.57
1003.26	211.53
1003.55	211.42
1003.84	211.41
1004.13	211.55
1004.42	211.58
1004.71	211.61
1004.99	211.62
1005.28	211.79
1005.57	211.78
1005.86	211.77
1006.15	211.78
1006.44	211.80
1006.72	211.78
1007.01	211.79
1007.30	211.81
1007.59	211.70
1007.88	211.77
1008.17	211.88
1008.45	211.82
1008.74	211.64
1009.03	211.48
1009.32	211.48
1009.60	211.54
1009.89	211.60
1010.18	211.43
1010.47	211.40
1010.76	211.32
1011.04	211.26
1011.33	211.21
1011.62	211.23
1011.91	211.20
1012.19	211.15
1012.48	211.14
1012.77	211.13
1013.05	211.24
1013.34	211.19
1013.63	211.21
1013.92	211.15
1014.20	211.04
1014.49	210.99
1014.78	211.09
1015.06	210.95
1015.35	210.94
1015.64	211.00
1015.92	211.03
1016.21	211.06
1016.50	211.15
1016.78	211.26
1017.07	211.26
1017.36	211.18
1017.64	211.10
1017.93	211.19
1018.22	211.20
1018.50	211.21
1018.79	211.20
1019.08	211.04
1019.36	211.12
1019.65	211.07
1019.93	211.20
1020.22	211.26
1020.51	211.47
1020.79	211.40
1021.08	210.95
1021.36	210.95
1021.65	210.75
1021.94	210.75
1022.22	211.70
1022.51	209.80
1022.79	213.35
1023.08	211.10
1023.36	215.45
1023.65	210.45
>>>>>End Processed Spectral Data<<<<<
