SpectraSuite Data File
++++++++++++++++++++++++++++++++++++
Date: Mon Feb 25 16:55:32 EST 2013
User: group
Dark Spectrum Present: No
Reference Spectrum Present: No
Number of Sampled Component Spectra: 1
Spectrometers: USB2E7196
Integration Time (usec): 104000 (USB2E7196)
Spectra Averaged: 20 (USB2E7196)
Boxcar Smoothing: 10 (USB2E7196)
Correct for Electrical Dark: No (USB2E7196)
Strobe/Lamp Enabled: No (USB2E7196)
Correct for Detector Non-linearity: No (USB2E7196)
Correct for Stray Light: No (USB2E7196)
Number of Pixels in Processed Spectrum: 2048
>>>>>Begin Processed Spectral Data<<<<<
339.09	0.00
339.48	198.50
339.86	200.65
340.24	202.60
340.63	202.40
341.01	208.75
341.39	205.90
341.78	207.40
342.16	210.45
342.54	208.50
342.93	198.51
343.31	208.55
343.69	209.11
344.07	209.59
344.46	210.00
344.84	210.42
345.22	210.51
345.60	210.73
345.99	210.92
346.37	210.99
346.75	211.12
347.13	211.22
347.52	211.21
347.90	211.31
348.28	211.39
348.66	211.52
349.05	211.44
349.43	211.54
349.81	211.71
350.19	211.76
350.57	211.82
350.96	211.93
351.34	212.02
351.72	212.16
352.10	212.25
352.48	212.25
352.87	212.35
353.25	212.41
353.63	212.51
354.01	212.58
354.39	212.68
354.77	212.71
355.15	212.85
355.54	212.86
355.92	212.77
356.30	212.81
356.68	213.12
357.06	213.29
357.44	213.30
357.82	213.28
358.20	213.29
358.58	213.38
358.97	213.40
359.35	213.54
359.73	213.61
360.11	213.67
360.49	213.79
360.87	213.76
361.25	213.90
361.63	214.00
362.01	214.00
362.39	214.02
362.77	214.13
363.15	214.18
363.53	214.23
363.91	214.31
364.29	214.37
364.67	214.00
365.05	214.01
365.43	214.11
365.81	214.16
366.19	214.39
366.57	214.49
366.95	214.51
367.33	214.38
367.71	214.38
368.09	214.38
368.47	214.35
368.85	214.36
369.23	214.37
369.61	214.26
369.99	214.40
370.37	214.40
370.75	214.51
371.13	214.36
371.51	214.26
371.89	214.26
372.27	214.23
372.65	214.30
373.03	214.26
373.41	214.17
373.78	214.15
374.16	213.91
374.54	213.79
374.92	213.67
375.30	213.68
375.68	213.57
376.06	213.54
376.44	213.54
376.82	213.61
377.19	213.52
377.57	213.45
377.95	213.32
378.33	213.29
378.71	213.11
379.09	213.16
379.47	213.20
379.84	213.13
380.22	213.11
380.60	212.93
380.98	212.89
381.36	212.80
381.73	212.67
382.11	212.68
382.49	212.67
382.87	212.66
383.25	212.59
383.62	212.96
384.00	212.89
384.38	212.80
384.76	212.75
385.13	212.94
385.51	212.91
385.89	212.86
386.27	212.76
386.64	212.75
387.02	212.71
387.40	212.63
387.78	212.67
388.15	212.62
388.53	212.71
388.91	212.64
389.29	212.69
389.66	212.77
390.04	212.77
390.42	212.80
390.79	212.83
391.17	212.88
391.55	212.51
391.92	212.48
392.30	212.54
392.68	212.47
393.05	212.40
393.43	212.45
393.81	212.54
394.18	212.47
394.56	212.51
394.94	212.55
395.31	212.60
395.69	212.68
396.06	212.70
396.44	212.70
396.82	212.84
397.19	213.01
397.57	213.04
397.95	213.09
398.32	212.98
398.70	213.02
399.07	213.20
399.45	213.25
399.82	213.35
400.20	213.44
400.58	213.56
400.95	213.55
401.33	213.73
401.70	214.04
402.08	214.25
402.45	214.38
402.83	214.59
403.20	214.77
403.58	214.91
403.95	215.24
404.33	215.55
404.71	215.74
405.08	216.14
405.46	216.33
405.83	216.73
406.21	217.12
406.58	217.50
406.96	217.87
407.33	218.40
407.70	218.91
408.08	219.66
408.45	220.32
408.83	221.00
409.20	221.62
409.58	222.10
409.95	222.89
410.33	223.72
410.70	224.43
411.08	225.40
411.45	226.45
411.82	227.43
412.20	228.52
412.57	229.93
412.95	230.97
413.32	232.45
413.69	233.87
414.07	235.47
414.44	237.18
414.82	238.90
415.19	240.86
415.56	243.00
415.94	245.08
416.31	247.50
416.68	249.99
417.06	252.87
417.43	255.66
417.81	258.80
418.18	262.00
418.55	265.54
418.93	269.13
419.30	272.87
419.67	276.91
420.04	281.19
420.42	285.52
420.79	290.62
421.16	295.74
421.54	301.13
421.91	306.62
422.28	312.44
422.66	318.60
423.03	324.72
423.40	330.88
423.77	337.66
424.15	344.50
424.52	351.60
424.89	359.21
425.26	366.69
425.64	373.79
426.01	381.76
426.38	390.03
426.75	398.60
427.13	407.30
427.50	416.46
427.87	426.02
428.24	435.65
428.61	445.05
428.99	455.12
429.36	466.09
429.73	476.87
430.10	487.66
430.47	498.70
430.85	510.10
431.22	522.48
431.59	535.46
431.96	547.91
432.33	561.73
432.70	575.38
433.08	591.42
433.45	606.47
433.82	621.50
434.19	638.13
434.56	654.40
434.93	670.38
435.30	686.26
435.68	703.84
436.05	721.47
436.42	738.80
436.79	754.84
437.16	772.20
437.53	790.68
437.90	808.90
438.27	826.97
438.64	846.06
439.01	863.79
439.38	879.53
439.75	894.96
440.13	912.33
440.50	928.71
440.87	942.27
441.24	956.51
441.61	972.26
441.98	984.29
442.35	998.33
442.72	1012.22
443.09	1025.62
443.46	1034.17
443.83	1040.47
444.20	1045.97
444.57	1053.87
444.94	1058.23
445.31	1062.67
445.68	1066.89
446.05	1069.47
446.42	1068.97
446.79	1068.18
447.16	1067.32
447.53	1067.01
447.90	1061.82
448.27	1056.49
448.64	1048.42
449.01	1042.90
449.37	1032.11
449.74	1021.96
450.11	1008.95
450.48	994.97
450.85	980.68
451.22	968.65
451.59	957.08
451.96	946.13
452.33	930.79
452.70	917.27
453.07	900.66
453.43	883.81
453.80	867.80
454.17	852.21
454.54	837.43
454.91	821.40
455.28	805.96
455.65	791.63
456.02	776.84
456.38	764.60
456.75	749.25
457.12	736.40
457.49	723.48
457.86	711.36
458.23	700.75
458.59	689.10
458.96	677.31
459.33	666.69
459.70	656.23
460.07	647.81
460.43	637.98
460.80	629.03
461.17	621.14
461.54	612.66
461.91	604.79
462.27	596.70
462.64	589.89
463.01	582.17
463.38	574.76
463.74	567.86
464.11	561.46
464.48	555.96
464.85	549.78
465.21	545.06
465.58	540.02
465.95	534.05
466.32	529.18
466.68	524.23
467.05	519.15
467.42	514.06
467.78	508.87
468.15	503.97
468.52	500.35
468.88	495.63
469.25	491.47
469.62	487.86
469.98	484.00
470.35	480.52
470.72	477.18
471.08	473.64
471.45	470.50
471.82	467.35
472.18	463.92
472.55	461.49
472.92	458.57
473.28	456.00
473.65	453.49
474.02	451.02
474.38	449.16
474.75	447.51
475.11	445.77
475.48	444.45
475.85	443.20
476.21	441.78
476.58	440.76
476.94	439.97
477.31	439.20
477.67	438.40
478.04	437.85
478.41	437.42
478.77	437.22
479.14	436.76
479.50	436.69
479.87	436.85
480.23	437.07
480.60	437.11
480.96	437.10
481.33	437.88
481.69	438.49
482.06	438.96
482.42	439.35
482.79	439.90
483.15	440.84
483.52	442.20
483.88	443.39
484.25	444.60
484.61	445.89
484.98	447.22
485.34	449.00
485.71	450.74
486.07	452.80
486.44	454.75
486.80	457.00
487.17	459.39
487.53	462.03
487.90	464.71
488.26	467.78
488.62	471.04
488.99	473.97
489.35	477.27
489.72	480.71
490.08	484.51
490.44	488.42
490.81	492.26
491.17	496.09
491.54	500.41
491.90	504.83
492.26	509.53
492.63	514.38
492.99	519.31
493.36	524.67
493.72	530.00
494.08	535.44
494.45	541.22
494.81	547.45
495.17	553.51
495.54	559.89
495.90	566.26
496.26	572.75
496.63	579.50
496.99	586.53
497.35	593.85
497.72	601.44
498.08	608.99
498.44	616.82
498.80	625.10
499.17	633.48
499.53	641.94
499.89	650.56
500.26	658.91
500.62	667.19
500.98	675.99
501.34	685.02
501.71	694.32
502.07	703.52
502.43	712.36
502.79	721.51
503.16	730.96
503.52	740.41
503.88	750.10
504.24	759.85
504.60	769.53
504.97	779.47
505.33	789.09
505.69	799.44
506.05	809.63
506.41	819.27
506.78	828.96
507.14	838.62
507.50	848.48
507.86	858.60
508.22	868.98
508.59	878.66
508.95	888.49
509.31	898.52
509.67	908.24
510.03	918.49
510.39	928.83
510.75	938.78
511.12	948.84
511.48	958.74
511.84	968.77
512.20	978.50
512.56	988.24
512.92	998.30
513.28	1007.74
513.64	1017.26
514.00	1026.86
514.37	1036.35
514.73	1046.08
515.09	1055.30
515.45	1064.55
515.81	1073.57
516.17	1082.61
516.53	1091.74
516.89	1100.11
517.25	1108.91
517.61	1117.00
517.97	1124.91
518.33	1132.78
518.69	1140.60
519.05	1148.43
519.41	1156.00
519.77	1163.92
520.13	1171.09
520.49	1177.94
520.85	1185.07
521.21	1192.05
521.57	1199.14
521.93	1205.59
522.29	1212.12
522.65	1218.77
523.01	1225.27
523.37	1231.11
523.73	1237.40
524.09	1243.19
524.45	1249.16
524.81	1255.14
525.17	1261.53
525.53	1267.34
525.89	1273.12
526.25	1278.73
526.61	1283.81
526.97	1288.88
527.33	1293.82
527.68	1299.20
528.04	1304.23
528.40	1308.86
528.76	1313.18
529.12	1317.83
529.48	1323.06
529.84	1327.48
530.20	1332.22
530.56	1336.37
530.91	1341.25
531.27	1345.76
531.63	1349.92
531.99	1354.11
532.35	1357.93
532.71	1361.24
533.07	1365.38
533.42	1369.16
533.78	1373.08
534.14	1376.89
534.50	1380.24
534.86	1383.84
535.21	1386.68
535.57	1390.25
535.93	1393.65
536.29	1397.07
536.65	1399.88
537.00	1402.10
537.36	1404.63
537.72	1406.51
538.08	1409.07
538.44	1411.34
538.79	1413.88
539.15	1416.46
539.51	1419.05
539.87	1421.89
540.22	1424.32
540.58	1426.84
540.94	1429.33
541.29	1430.87
541.65	1432.40
542.01	1434.27
542.37	1435.88
542.72	1437.72
543.08	1439.09
543.44	1440.61
543.79	1441.73
544.15	1443.01
544.51	1444.85
544.87	1446.53
545.22	1448.08
545.58	1449.38
545.94	1450.15
546.29	1450.31
546.65	1450.71
547.01	1450.91
547.36	1450.92
547.72	1451.12
548.07	1451.00
548.43	1450.79
548.79	1450.78
549.14	1450.95
549.50	1450.98
549.86	1450.58
550.21	1450.60
550.57	1450.74
550.92	1450.41
551.28	1450.48
551.64	1450.33
551.99	1449.99
552.35	1449.54
552.70	1449.14
553.06	1449.01
553.41	1448.85
553.77	1449.00
554.13	1448.93
554.48	1448.96
554.84	1449.12
555.19	1449.00
555.55	1448.74
555.90	1448.13
556.26	1447.76
556.61	1447.21
556.97	1446.35
557.32	1445.88
557.68	1444.54
558.03	1443.25
558.39	1442.09
558.74	1441.01
559.10	1440.20
559.45	1439.28
559.81	1438.55
560.16	1437.45
560.52	1435.95
560.87	1434.83
561.23	1433.39
561.58	1432.54
561.94	1430.82
562.29	1428.84
562.64	1427.77
563.00	1426.33
563.35	1425.18
563.71	1424.31
564.06	1423.28
564.42	1422.65
564.77	1422.04
565.12	1421.55
565.48	1421.19
565.83	1420.52
566.19	1420.09
566.54	1418.66
566.89	1417.50
567.25	1416.64
567.60	1415.89
567.96	1415.18
568.31	1414.80
568.66	1413.74
569.02	1411.76
569.37	1410.35
569.72	1409.40
570.08	1407.60
570.43	1405.98
570.78	1404.43
571.14	1402.29
571.49	1400.11
571.84	1398.31
572.20	1395.79
572.55	1393.64
572.90	1390.54
573.26	1387.86
573.61	1384.85
573.96	1382.39
574.31	1379.37
574.67	1376.07
575.02	1372.32
575.37	1368.88
575.72	1364.55
576.08	1361.48
576.43	1358.08
576.78	1354.74
577.13	1351.27
577.49	1347.89
577.84	1344.39
578.19	1340.94
578.54	1338.32
578.90	1336.05
579.25	1332.48
579.60	1328.77
579.95	1324.87
580.30	1321.75
580.66	1318.91
581.01	1315.15
581.36	1311.25
581.71	1307.40
582.06	1303.77
582.42	1300.29
582.77	1296.12
583.12	1292.33
583.47	1288.43
583.82	1284.73
584.17	1281.02
584.53	1277.24
584.88	1273.25
585.23	1269.23
585.58	1264.92
585.93	1260.40
586.28	1255.80
586.63	1251.79
586.98	1247.96
587.34	1244.47
587.69	1240.41
588.04	1235.79
588.39	1231.99
588.74	1227.74
589.09	1224.10
589.44	1219.42
589.79	1215.68
590.14	1212.20
590.49	1208.48
590.84	1204.13
591.19	1200.70
591.54	1196.70
591.89	1192.00
592.25	1187.95
592.60	1183.58
592.95	1179.26
593.30	1174.46
593.65	1169.62
594.00	1164.74
594.35	1161.40
594.70	1156.79
595.05	1152.38
595.40	1148.01
595.75	1143.13
596.10	1139.04
596.45	1134.51
596.80	1130.77
597.15	1126.68
597.50	1121.76
597.85	1117.44
598.19	1112.98
598.54	1108.24
598.89	1104.01
599.24	1100.36
599.59	1095.95
599.94	1091.95
600.29	1087.88
600.64	1083.76
600.99	1079.51
601.34	1075.70
601.69	1070.33
602.04	1065.70
602.39	1061.37
602.74	1057.14
603.08	1053.45
603.43	1049.56
603.78	1045.10
604.13	1040.66
604.48	1036.12
604.83	1032.41
605.18	1028.59
605.53	1024.39
605.87	1020.00
606.22	1015.69
606.57	1010.87
606.92	1006.46
607.27	1001.79
607.62	997.46
607.96	993.45
608.31	989.65
608.66	985.04
609.01	980.69
609.36	976.67
609.70	971.94
610.05	967.33
610.40	962.71
610.75	957.96
611.10	953.97
611.44	948.93
611.79	944.07
612.14	939.29
612.49	934.00
612.83	929.41
613.18	924.46
613.53	919.57
613.88	914.60
614.22	909.86
614.57	905.26
614.92	900.59
615.27	895.63
615.61	890.49
615.96	886.15
616.31	881.77
616.65	877.28
617.00	873.02
617.35	868.45
617.70	863.78
618.04	858.95
618.39	853.91
618.74	849.63
619.08	845.08
619.43	840.70
619.78	836.49
620.12	832.23
620.47	828.08
620.82	823.65
621.16	819.24
621.51	815.08
621.85	810.85
622.20	806.41
622.55	802.04
622.89	797.84
623.24	793.42
623.59	788.66
623.93	784.03
624.28	779.80
624.62	775.98
624.97	771.82
625.32	767.70
625.66	763.57
626.01	759.58
626.35	755.74
626.70	751.47
627.04	747.51
627.39	743.41
627.73	739.58
628.08	735.95
628.43	732.21
628.77	728.14
629.12	724.08
629.46	720.26
629.81	716.50
630.15	712.63
630.50	708.80
630.84	705.16
631.19	701.55
631.53	697.76
631.88	693.53
632.22	689.74
632.57	686.33
632.91	682.74
633.26	679.03
633.60	675.19
633.95	671.73
634.29	668.06
634.64	664.61
634.98	660.77
635.32	657.29
635.67	654.10
636.01	650.96
636.36	647.57
636.70	644.38
637.05	641.05
637.39	637.87
637.73	634.77
638.08	631.94
638.42	629.00
638.77	625.90
639.11	623.00
639.45	619.85
639.80	616.57
640.14	613.36
640.49	610.16
640.83	607.10
641.17	604.12
641.52	601.02
641.86	597.70
642.20	594.77
642.55	591.33
642.89	587.87
643.23	584.55
643.58	581.84
643.92	578.68
644.26	575.55
644.61	572.55
644.95	569.35
645.29	566.05
645.64	562.83
645.98	559.64
646.32	556.60
646.66	553.49
647.01	550.41
647.35	547.56
647.69	544.63
648.04	541.75
648.38	538.62
648.72	535.78
649.06	532.89
649.41	529.98
649.75	527.16
650.09	524.66
650.43	521.97
650.78	518.83
651.12	515.96
651.46	513.44
651.80	510.67
652.14	508.00
652.49	505.36
652.83	502.63
653.17	499.91
653.51	497.14
653.85	494.75
654.20	492.32
654.54	489.67
654.88	487.11
655.22	484.57
655.56	481.94
655.90	479.23
656.25	476.65
656.59	474.15
656.93	471.79
657.27	469.41
657.61	466.66
657.95	464.35
658.29	462.00
658.64	459.59
658.98	457.12
659.32	454.58
659.66	452.05
660.00	449.59
660.34	447.28
660.68	444.82
661.02	442.30
661.36	439.99
661.70	437.74
662.05	435.58
662.39	433.40
662.73	431.44
663.07	429.50
663.41	427.56
663.75	425.46
664.09	423.38
664.43	421.02
664.77	419.14
665.11	416.96
665.45	414.93
665.79	412.90
666.13	411.01
666.47	409.18
666.81	407.32
667.15	405.40
667.49	403.65
667.83	401.92
668.17	400.03
668.51	398.26
668.85	396.54
669.19	394.87
669.53	392.98
669.87	391.03
670.21	389.25
670.55	387.48
670.89	386.00
671.23	384.34
671.57	382.87
671.91	381.20
672.25	379.62
672.58	378.05
672.92	376.32
673.26	374.72
673.60	373.14
673.94	371.54
674.28	370.02
674.62	368.51
674.96	367.05
675.30	365.71
675.64	364.15
675.97	362.60
676.31	361.05
676.65	359.65
676.99	358.54
677.33	357.07
677.67	355.55
678.01	353.87
678.34	352.45
678.68	351.04
679.02	349.57
679.36	348.23
679.70	346.79
680.04	345.54
680.37	344.11
680.71	342.87
681.05	341.73
681.39	340.55
681.73	339.29
682.06	338.03
682.40	336.86
682.74	335.65
683.08	334.58
683.42	333.26
683.75	332.09
684.09	330.64
684.43	329.43
684.77	328.28
685.10	327.13
685.44	325.87
685.78	324.59
686.12	323.54
686.45	322.35
686.79	321.14
687.13	320.13
687.46	319.14
687.80	318.03
688.14	316.78
688.48	315.63
688.81	314.46
689.15	313.45
689.49	312.25
689.82	311.17
690.16	309.92
690.50	308.88
690.83	307.90
691.17	306.86
691.51	305.84
691.84	304.92
692.18	303.98
692.52	303.03
692.85	302.23
693.19	301.36
693.52	300.38
693.86	299.46
694.20	298.43
694.53	297.56
694.87	296.55
695.21	295.67
695.54	294.73
695.88	293.73
696.21	292.70
696.55	291.86
696.88	290.94
697.22	290.06
697.56	289.30
697.89	288.31
698.23	287.49
698.56	286.67
698.90	285.75
699.23	284.90
699.57	284.09
699.90	283.10
700.24	282.17
700.58	281.52
700.91	280.79
701.25	280.24
701.58	279.51
701.92	278.75
702.25	277.98
702.59	277.20
702.92	276.54
703.26	275.85
703.59	275.03
703.93	274.64
704.26	274.07
704.60	273.35
704.93	272.73
705.26	272.03
705.60	271.36
705.93	270.63
706.27	270.07
706.60	269.48
706.94	269.09
707.27	268.45
707.61	267.76
707.94	267.08
708.27	266.17
708.61	265.36
708.94	264.81
709.28	264.23
709.61	263.73
709.94	263.20
710.28	262.68
710.61	262.26
710.95	261.39
711.28	261.08
711.61	260.48
711.95	259.87
712.28	259.44
712.61	258.91
712.95	258.63
713.28	258.31
713.61	257.76
713.95	257.07
714.28	256.62
714.61	256.06
714.95	255.69
715.28	255.24
715.61	254.78
715.95	254.30
716.28	253.83
716.61	253.37
716.95	252.81
717.28	252.28
717.61	251.86
717.94	251.43
718.28	250.63
718.61	250.34
718.94	250.05
719.27	249.54
719.61	249.12
719.94	248.64
720.27	248.05
720.60	247.65
720.94	247.26
721.27	246.92
721.60	246.68
721.93	246.18
722.27	245.99
722.60	245.73
722.93	245.29
723.26	244.90
723.59	244.54
723.93	244.23
724.26	243.95
724.59	243.52
724.92	243.23
725.25	243.06
725.59	242.63
725.92	242.31
726.25	242.02
726.58	241.70
726.91	241.37
727.24	241.09
727.57	240.74
727.91	240.41
728.24	240.10
728.57	239.79
728.90	239.61
729.23	239.17
729.56	239.04
729.89	238.79
730.22	238.55
730.55	238.23
730.89	238.01
731.22	237.67
731.55	237.49
731.88	237.23
732.21	236.97
732.54	236.71
732.87	236.37
733.20	236.14
733.53	235.91
733.86	235.65
734.19	235.30
734.52	235.12
734.85	235.17
735.18	234.93
735.51	234.75
735.84	234.60
736.17	234.49
736.50	234.08
736.83	234.22
737.16	233.95
737.49	233.71
737.82	233.44
738.15	233.30
738.48	232.98
738.81	232.76
739.14	232.39
739.47	232.11
739.80	231.93
740.13	231.69
740.46	231.43
740.79	231.21
741.12	231.00
741.45	230.78
741.78	230.37
742.11	230.25
742.44	229.92
742.77	229.78
743.10	229.50
743.43	229.31
743.75	228.82
744.08	229.13
744.41	228.96
744.74	228.76
745.07	228.49
745.40	228.38
745.73	228.31
746.06	228.22
746.39	228.14
746.71	227.88
747.04	227.70
747.37	227.56
747.70	227.48
748.03	227.35
748.36	227.22
748.68	227.07
749.01	226.75
749.34	226.66
749.67	226.45
750.00	226.30
750.33	226.44
750.65	226.31
750.98	225.68
751.31	225.52
751.64	225.45
751.97	225.51
752.29	225.37
752.62	225.14
752.95	224.99
753.28	224.79
753.60	224.68
753.93	224.70
754.26	224.58
754.59	224.33
754.91	224.20
755.24	224.06
755.57	223.87
755.90	223.81
756.22	223.59
756.55	223.35
756.88	223.14
757.20	222.75
757.53	222.52
757.86	222.50
758.19	222.42
758.51	222.23
758.84	221.94
759.17	221.74
759.49	221.59
759.82	221.58
760.15	221.55
760.47	221.48
760.80	221.17
761.13	221.04
761.45	220.90
761.78	220.73
762.11	220.61
762.43	220.52
762.76	220.41
763.08	220.45
763.41	220.45
763.74	220.47
764.06	220.29
764.39	220.15
764.71	220.00
765.04	219.84
765.37	219.70
765.69	219.60
766.02	219.54
766.34	219.46
766.67	219.33
767.00	219.27
767.32	219.35
767.65	219.40
767.97	219.38
768.30	219.30
768.62	219.23
768.95	219.15
769.27	219.08
769.60	218.99
769.92	218.78
770.25	218.56
770.57	218.35
770.90	218.37
771.22	218.35
771.55	218.30
771.87	218.31
772.20	218.30
772.52	218.52
772.85	218.94
773.17	218.84
773.50	218.77
773.82	218.62
774.15	218.32
774.47	218.11
774.80	217.92
775.12	217.88
775.45	217.80
775.77	217.70
776.09	217.66
776.42	217.68
776.74	217.76
777.07	217.70
777.39	217.64
777.72	217.53
778.04	217.42
778.36	217.36
778.69	217.30
779.01	217.28
779.33	216.93
779.66	216.46
779.98	216.37
780.31	216.26
780.63	216.38
780.95	216.49
781.28	216.47
781.60	216.45
781.92	216.36
782.25	216.37
782.57	216.34
782.89	216.29
783.22	216.13
783.54	215.95
783.86	215.92
784.19	215.93
784.51	216.00
784.83	215.94
785.16	215.87
785.48	215.82
785.80	215.78
786.12	215.79
786.45	215.62
786.77	215.65
787.09	215.54
787.42	215.37
787.74	215.26
788.06	215.26
788.38	215.25
788.71	215.23
789.03	215.17
789.35	215.18
789.67	215.03
789.99	215.05
790.32	214.97
790.64	215.08
790.96	215.30
791.28	215.14
791.61	215.13
791.93	215.07
792.25	215.01
792.57	215.13
792.89	215.04
793.21	215.09
793.54	215.02
793.86	214.94
794.18	214.95
794.50	214.95
794.82	214.86
795.14	214.85
795.47	214.86
795.79	214.88
796.11	214.76
796.43	214.79
796.75	214.72
797.07	214.78
797.39	214.66
797.71	214.38
798.04	214.35
798.36	214.36
798.68	214.35
799.00	214.38
799.32	214.29
799.64	214.32
799.96	214.30
800.28	214.34
800.60	214.37
800.92	214.33
801.24	214.26
801.56	214.33
801.89	214.30
802.21	214.36
802.53	214.28
802.85	214.40
803.17	214.56
803.49	214.55
803.81	214.42
804.13	214.40
804.45	214.37
804.77	214.39
805.09	214.31
805.41	214.25
805.73	214.13
806.05	214.00
806.37	214.00
806.69	213.94
807.01	213.86
807.33	213.84
807.65	213.70
807.97	213.78
808.28	213.71
808.60	213.65
808.92	213.60
809.24	213.78
809.56	213.69
809.88	213.53
810.20	213.48
810.52	213.63
810.84	213.59
811.16	213.54
811.48	213.50
811.80	213.65
812.12	213.62
812.43	213.67
812.75	213.62
813.07	213.52
813.39	213.58
813.71	213.53
814.03	213.55
814.35	213.59
814.67	213.44
814.98	213.39
815.30	213.41
815.62	213.27
815.94	213.07
816.26	213.09
816.58	213.05
816.89	213.05
817.21	212.92
817.53	212.90
817.85	212.87
818.17	212.88
818.48	212.73
818.80	212.81
819.12	212.73
819.44	212.75
819.76	212.76
820.07	212.70
820.39	212.69
820.71	212.66
821.03	212.65
821.34	212.64
821.66	212.64
821.98	212.64
822.30	212.60
822.61	212.78
822.93	212.73
823.25	212.72
823.57	212.72
823.88	212.78
824.20	212.82
824.52	212.92
824.83	212.85
825.15	212.80
825.47	212.79
825.79	212.82
826.10	212.76
826.42	212.70
826.74	212.80
827.05	212.80
827.37	212.77
827.69	212.74
828.00	212.75
828.32	212.75
828.64	212.76
828.95	212.94
829.27	212.91
829.58	212.87
829.90	212.88
830.22	212.80
830.53	212.69
830.85	212.54
831.17	212.48
831.48	212.45
831.80	212.47
832.11	212.35
832.43	212.25
832.75	212.17
833.06	212.38
833.38	212.23
833.69	212.17
834.01	212.26
834.32	212.26
834.64	212.24
834.96	212.24
835.27	212.18
835.59	212.10
835.90	211.91
836.22	211.89
836.53	211.75
836.85	211.76
837.16	212.12
837.48	212.20
837.79	212.26
838.11	212.26
838.42	212.26
838.74	212.43
839.05	212.41
839.37	212.48
839.68	212.23
840.00	212.17
840.31	212.22
840.63	212.15
840.94	212.07
841.26	212.01
841.57	211.96
841.88	212.01
842.20	211.95
842.51	211.91
842.83	211.89
843.14	212.21
843.46	212.22
843.77	212.04
844.08	211.95
844.40	211.80
844.71	211.80
845.03	211.79
845.34	211.67
845.65	211.66
845.97	211.65
846.28	211.66
846.60	211.70
846.91	211.69
847.22	211.71
847.54	211.82
847.85	211.85
848.16	211.91
848.48	211.83
848.79	211.97
849.10	212.06
849.42	212.10
849.73	211.87
850.04	211.90
850.36	211.78
850.67	211.84
850.98	211.90
851.30	211.95
851.61	211.92
851.92	211.92
852.23	212.01
852.55	212.07
852.86	212.14
853.17	212.19
853.49	212.27
853.80	212.30
854.11	212.32
854.42	212.35
854.74	212.22
855.05	212.23
855.36	212.00
855.67	211.96
855.99	211.95
856.30	212.31
856.61	212.24
856.92	212.16
857.23	212.22
857.55	212.22
857.86	212.16
858.17	212.30
858.48	212.23
858.79	212.16
859.11	212.20
859.42	212.14
859.73	212.07
860.04	212.08
860.35	211.98
860.66	211.84
860.98	211.79
861.29	211.85
861.60	211.84
861.91	211.94
862.22	211.93
862.53	211.90
862.84	211.54
863.16	211.65
863.47	211.65
863.78	211.60
864.09	211.55
864.40	211.62
864.71	211.57
865.02	211.72
865.33	211.71
865.64	211.61
865.95	211.66
866.27	211.91
866.58	211.84
866.89	211.92
867.20	211.92
867.51	211.93
867.82	211.92
868.13	212.05
868.44	211.98
868.75	212.01
869.06	212.00
869.37	212.00
869.68	211.87
869.99	211.93
870.30	211.92
870.61	212.03
870.92	211.94
871.23	211.85
871.54	211.83
871.85	211.89
872.16	211.91
872.47	211.89
872.78	211.64
873.09	211.60
873.40	211.53
873.71	211.60
874.02	211.61
874.33	211.58
874.64	211.45
874.95	211.60
875.26	211.57
875.56	211.59
875.87	211.60
876.18	211.66
876.49	211.95
876.80	211.99
877.11	211.86
877.42	211.91
877.73	211.92
878.04	211.85
878.35	211.83
878.66	211.91
878.96	211.90
879.27	211.90
879.58	211.93
879.89	211.94
880.20	212.00
880.51	211.97
880.82	211.93
881.12	211.95
881.43	211.77
881.74	211.71
882.05	211.72
882.36	211.67
882.67	211.61
882.97	211.29
883.28	211.26
883.59	211.32
883.90	211.32
884.21	211.45
884.51	211.38
884.82	211.39
885.13	211.26
885.44	211.17
885.74	211.20
886.05	211.16
886.36	211.16
886.67	210.98
886.98	211.14
887.28	211.21
887.59	211.22
887.90	211.30
888.20	211.27
888.51	211.39
888.82	211.32
889.13	211.38
889.43	211.65
889.74	211.59
890.05	211.57
890.35	211.52
890.66	211.49
890.97	211.44
891.28	211.38
891.58	211.43
891.89	211.52
892.20	211.49
892.50	211.40
892.81	211.34
893.12	211.43
893.42	211.32
893.73	211.27
894.04	211.26
894.34	211.25
894.65	211.28
894.95	211.16
895.26	211.22
895.57	211.41
895.87	211.08
896.18	211.11
896.48	211.11
896.79	211.09
897.10	211.01
897.40	211.09
897.71	211.08
898.01	211.07
898.32	211.05
898.63	211.07
898.93	211.10
899.24	211.13
899.54	211.12
899.85	211.06
900.15	211.11
900.46	211.10
900.76	211.15
901.07	211.15
901.38	211.22
901.68	211.25
901.99	211.03
902.29	211.01
902.60	211.03
902.90	210.99
903.21	211.03
903.51	211.06
903.82	211.15
904.12	211.23
904.43	211.24
904.73	211.26
905.03	211.21
905.34	211.56
905.64	211.57
905.95	211.53
906.25	211.50
906.56	211.44
906.86	211.47
907.17	211.40
907.47	211.43
907.77	211.25
908.08	211.15
908.38	211.17
908.69	211.27
908.99	211.30
909.30	211.33
909.60	211.36
909.90	211.43
910.21	211.29
910.51	211.19
910.81	211.20
911.12	211.20
911.42	211.26
911.73	210.89
912.03	210.90
912.33	210.99
912.64	211.08
912.94	211.09
913.24	211.02
913.55	211.05
913.85	211.03
914.15	211.23
914.46	211.33
914.76	211.31
915.06	211.17
915.37	211.15
915.67	211.16
915.97	211.16
916.27	211.03
916.58	211.08
916.88	211.10
917.18	211.05
917.49	211.26
917.79	211.25
918.09	211.33
918.39	211.42
918.70	211.37
919.00	211.30
919.30	211.49
919.60	211.51
919.91	211.48
920.21	211.50
920.51	211.37
920.81	211.36
921.12	211.35
921.42	211.50
921.72	211.49
922.02	211.46
922.32	211.53
922.63	211.51
922.93	211.70
923.23	211.78
923.53	211.68
923.83	211.44
924.13	211.44
924.44	211.43
924.74	211.52
925.04	211.65
925.34	211.62
925.64	211.49
925.94	211.49
926.24	211.70
926.55	211.64
926.85	211.71
927.15	211.75
927.45	211.80
927.75	211.76
928.05	211.77
928.35	211.79
928.65	211.78
928.95	211.80
929.26	211.67
929.56	211.68
929.86	211.76
930.16	211.74
930.46	211.76
930.76	211.77
931.06	211.59
931.36	211.51
931.66	211.53
931.96	211.56
932.26	211.53
932.56	211.36
932.86	211.35
933.16	211.30
933.46	211.17
933.76	211.11
934.06	211.13
934.36	211.20
934.66	211.15
934.96	211.11
935.26	211.13
935.56	211.22
935.86	211.08
936.16	211.01
936.46	211.03
936.76	210.98
937.06	210.98
937.36	211.02
937.66	211.02
937.96	211.10
938.26	211.00
938.56	211.03
938.86	211.06
939.16	211.16
939.46	211.20
939.76	211.29
940.06	211.26
940.35	211.24
940.65	211.17
940.95	211.24
941.25	211.18
941.55	211.15
941.85	211.03
942.15	211.12
942.45	211.30
942.75	211.25
943.04	211.29
943.34	211.32
943.64	211.25
943.94	211.19
944.24	211.09
944.54	211.12
944.84	211.13
945.13	211.04
945.43	211.03
945.73	211.06
946.03	210.99
946.33	210.99
946.62	210.93
946.92	210.92
947.22	210.96
947.52	211.02
947.82	211.01
948.11	210.99
948.41	210.97
948.71	210.90
949.01	210.95
949.31	210.88
949.60	210.90
949.90	211.02
950.20	211.03
950.50	211.11
950.79	211.10
951.09	211.17
951.39	211.22
951.69	211.14
951.98	211.20
952.28	211.26
952.58	211.32
952.87	211.30
953.17	211.29
953.47	211.23
953.76	211.18
954.06	211.18
954.36	211.12
954.66	211.03
954.95	211.15
955.25	211.21
955.55	211.27
955.84	211.20
956.14	211.16
956.44	211.19
956.73	211.14
957.03	211.22
957.32	211.11
957.62	211.15
957.92	211.19
958.21	211.17
958.51	211.58
958.81	211.63
959.10	211.74
959.40	211.84
959.69	211.83
959.99	211.95
960.29	211.99
960.58	212.02
960.88	212.20
961.17	212.10
961.47	212.13
961.76	212.13
962.06	212.24
962.36	212.14
962.65	212.15
962.95	212.13
963.24	212.06
963.54	212.15
963.83	212.07
964.13	212.10
964.42	212.03
964.72	211.75
965.01	211.71
965.31	211.74
965.60	211.60
965.90	211.88
966.19	211.80
966.49	211.83
966.78	211.84
967.08	211.85
967.37	211.86
967.67	211.72
967.96	211.78
968.26	211.67
968.55	211.75
968.85	211.74
969.14	211.75
969.43	211.74
969.73	211.72
970.02	211.71
970.32	211.64
970.61	211.53
970.91	211.36
971.20	211.30
971.49	211.19
971.79	211.24
972.08	210.95
972.38	210.93
972.67	210.85
972.96	210.89
973.26	210.76
973.55	210.85
973.85	210.94
974.14	210.82
974.43	210.85
974.73	210.78
975.02	210.72
975.31	210.72
975.61	210.70
975.90	210.61
976.19	210.59
976.49	210.68
976.78	210.74
977.07	210.77
977.37	210.83
977.66	210.91
977.95	210.86
978.24	210.95
978.54	211.02
978.83	210.98
979.12	210.91
979.42	210.90
979.71	210.83
980.00	210.75
980.29	210.84
980.59	210.76
980.88	210.86
981.17	210.86
981.46	210.90
981.76	210.93
982.05	211.06
982.34	211.13
982.63	211.10
982.93	211.11
983.22	211.19
983.51	211.13
983.80	211.18
984.09	211.27
984.39	211.17
984.68	211.06
984.97	211.15
985.26	211.18
985.55	211.24
985.85	211.18
986.14	211.31
986.43	211.33
986.72	211.35
987.01	211.27
987.30	211.29
987.59	211.27
987.89	211.23
988.18	211.13
988.47	211.07
988.76	210.97
989.05	210.95
989.34	210.94
989.63	211.09
989.92	211.02
990.22	210.98
990.51	210.97
990.80	211.00
991.09	211.01
991.38	211.07
991.67	211.04
991.96	211.02
992.25	210.99
992.54	210.93
992.83	210.90
993.12	210.87
993.41	210.91
993.70	211.02
993.99	211.07
994.28	211.15
994.58	211.24
994.87	211.33
995.16	211.32
995.45	211.27
995.74	211.11
996.03	211.13
996.32	211.21
996.61	211.28
996.90	211.27
997.19	211.23
997.48	211.23
997.77	211.23
998.06	211.21
998.34	211.18
998.63	211.21
998.92	211.28
999.21	211.32
999.50	211.32
999.79	211.22
1000.08	211.21
1000.37	211.19
1000.66	211.18
1000.95	211.14
1001.24	211.13
1001.53	211.11
1001.82	211.13
1002.11	211.11
1002.40	211.19
1002.68	211.33
1002.97	211.55
1003.26	211.54
1003.55	211.45
1003.84	211.45
1004.13	211.64
1004.42	211.65
1004.71	211.61
1004.99	211.61
1005.28	211.69
1005.57	211.70
1005.86	211.69
1006.15	211.70
1006.44	211.64
1006.72	211.60
1007.01	211.68
1007.30	211.73
1007.59	211.75
1007.88	211.75
1008.17	211.76
1008.45	211.59
1008.74	211.42
1009.03	211.25
1009.32	211.21
1009.60	211.23
1009.89	211.19
1010.18	210.98
1010.47	210.95
1010.76	211.01
1011.04	211.04
1011.33	211.14
1011.62	211.14
1011.91	211.18
1012.19	211.23
1012.48	211.24
1012.77	211.30
1013.05	211.45
1013.34	211.41
1013.63	211.38
1013.92	211.40
1014.20	211.37
1014.49	211.36
1014.78	211.40
1015.06	211.30
1015.35	211.32
1015.64	211.37
1015.92	211.48
1016.21	211.57
1016.50	211.59
1016.78	211.58
1017.07	211.54
1017.36	211.43
1017.64	211.41
1017.93	211.44
1018.22	211.38
1018.50	211.42
1018.79	211.35
1019.08	211.14
1019.36	211.16
1019.65	211.15
1019.93	211.21
1020.22	211.21
1020.51	211.43
1020.79	211.42
1021.08	211.10
1021.36	211.05
1021.65	210.90
1021.94	211.00
1022.22	210.95
1022.51	210.40
1022.79	212.50
1023.08	210.85
1023.36	215.30
1023.65	211.20
>>>>>End Processed Spectral Data<<<<<
