SpectraSuite Data File
++++++++++++++++++++++++++++++++++++
Date: Mon Feb 25 17:03:54 EST 2013
User: group
Dark Spectrum Present: No
Reference Spectrum Present: No
Number of Sampled Component Spectra: 1
Spectrometers: USB2E7196
Integration Time (usec): 104000 (USB2E7196)
Spectra Averaged: 20 (USB2E7196)
Boxcar Smoothing: 10 (USB2E7196)
Correct for Electrical Dark: No (USB2E7196)
Strobe/Lamp Enabled: No (USB2E7196)
Correct for Detector Non-linearity: No (USB2E7196)
Correct for Stray Light: No (USB2E7196)
Number of Pixels in Processed Spectrum: 2048
>>>>>Begin Processed Spectral Data<<<<<
339.09	0.00
339.48	199.50
339.86	200.55
340.24	202.05
340.63	202.80
341.01	208.15
341.39	205.35
341.78	207.05
342.16	209.35
342.54	208.40
342.93	198.35
343.31	208.35
343.69	208.85
344.07	209.33
344.46	209.71
344.84	210.10
345.22	210.16
345.60	210.40
345.99	210.61
346.37	210.64
346.75	210.77
347.13	210.75
347.52	210.86
347.90	210.94
348.28	210.98
348.66	211.05
349.05	210.95
349.43	210.99
349.81	211.08
350.19	211.12
350.57	211.18
350.96	211.20
351.34	211.31
351.72	211.43
352.10	211.49
352.48	211.56
352.87	211.55
353.25	211.66
353.63	211.76
354.01	211.76
354.39	211.86
354.77	211.98
355.15	212.22
355.54	212.27
355.92	212.27
356.30	212.29
356.68	212.54
357.06	212.63
357.44	212.69
357.82	212.75
358.20	212.86
358.58	212.87
358.97	212.97
359.35	213.08
359.73	213.22
360.11	213.31
360.49	213.33
360.87	213.43
361.25	213.46
361.63	213.58
362.01	213.69
362.39	213.72
362.77	213.76
363.15	213.67
363.53	213.61
363.91	213.66
364.29	213.70
364.67	213.43
365.05	213.43
365.43	213.35
365.81	213.36
366.19	213.41
366.57	213.52
366.95	213.52
367.33	213.39
367.71	213.28
368.09	213.24
368.47	213.21
368.85	213.20
369.23	213.26
369.61	213.11
369.99	213.15
370.37	213.17
370.75	213.21
371.13	213.14
371.51	213.05
371.89	212.98
372.27	212.95
372.65	212.95
373.03	212.94
373.41	212.89
373.78	212.75
374.16	212.59
374.54	212.41
374.92	212.30
375.30	212.25
375.68	212.17
376.06	212.16
376.44	212.09
376.82	212.02
377.19	211.99
377.57	211.94
377.95	211.78
378.33	211.65
378.71	211.40
379.09	211.45
379.47	211.48
379.84	211.40
380.22	211.33
380.60	211.16
380.98	211.05
381.36	210.97
381.73	210.90
382.11	210.94
382.49	210.88
382.87	210.86
383.25	210.80
383.62	211.15
384.00	211.04
384.38	211.01
384.76	211.05
385.13	211.13
385.51	211.06
385.89	210.96
386.27	210.99
386.64	211.00
387.02	210.81
387.40	210.72
387.78	210.70
388.15	210.77
388.53	210.77
388.91	210.75
389.29	210.67
389.66	210.72
390.04	210.56
390.42	210.58
390.79	210.53
391.17	210.52
391.55	210.08
391.92	210.04
392.30	210.16
392.68	210.06
393.05	209.99
393.43	210.04
393.81	210.08
394.18	209.99
394.56	210.03
394.94	210.17
395.31	210.06
395.69	210.16
396.06	210.13
396.44	210.12
396.82	210.11
397.19	210.37
397.57	210.35
397.95	210.46
398.32	210.37
398.70	210.40
399.07	210.47
399.45	210.49
399.82	210.53
400.20	210.45
400.58	210.55
400.95	210.47
401.33	210.58
401.70	210.86
402.08	210.95
402.45	210.98
402.83	211.13
403.20	211.30
403.58	211.39
403.95	211.49
404.33	211.71
404.71	211.83
405.08	212.03
405.46	212.17
405.83	212.35
406.21	212.48
406.58	212.62
406.96	212.78
407.33	213.00
407.70	213.22
408.08	213.73
408.45	213.94
408.83	214.26
409.20	214.36
409.58	214.39
409.95	214.76
410.33	215.07
410.70	215.29
411.08	215.76
411.45	216.04
411.82	216.37
412.20	216.76
412.57	217.39
412.95	217.60
413.32	218.16
413.69	218.58
414.07	219.23
414.44	219.87
414.82	220.57
415.19	221.35
415.56	222.15
415.94	222.75
416.31	223.70
416.68	224.59
417.06	225.73
417.43	226.86
417.81	227.96
418.18	229.18
418.55	230.42
418.93	231.72
419.30	233.14
419.67	234.75
420.04	236.21
420.42	237.74
420.79	239.90
421.16	241.82
421.54	243.94
421.91	246.01
422.28	248.22
422.66	250.48
423.03	252.86
423.40	255.18
423.77	257.66
424.15	260.08
424.52	262.60
424.89	265.39
425.26	268.10
425.64	270.76
426.01	273.67
426.38	276.70
426.75	279.92
427.13	283.12
427.50	286.34
427.87	289.95
428.24	293.47
428.61	296.67
428.99	300.27
429.36	304.14
429.73	308.06
430.10	311.92
430.47	315.90
430.85	320.04
431.22	324.48
431.59	329.40
431.96	333.98
432.33	339.13
432.70	344.06
433.08	349.82
433.45	355.24
433.82	360.60
434.19	366.68
434.56	372.59
434.93	378.40
435.30	384.27
435.68	390.57
436.05	396.91
436.42	403.15
436.79	409.00
437.16	415.29
437.53	421.98
437.90	428.59
438.27	435.11
438.64	441.72
439.01	448.02
439.38	453.46
439.75	459.04
440.13	465.15
440.50	470.87
440.87	475.70
441.24	480.76
441.61	486.30
441.98	490.45
442.35	495.24
442.72	500.01
443.09	504.84
443.46	507.84
443.83	510.02
444.20	511.96
444.57	514.66
444.94	516.09
445.31	517.37
445.68	518.99
446.05	519.79
446.42	519.60
446.79	519.29
447.16	518.81
447.53	518.52
447.90	516.59
448.27	514.75
448.64	511.76
449.01	509.71
449.37	505.94
449.74	502.20
450.11	497.72
450.48	492.75
450.85	487.40
451.22	483.01
451.59	478.86
451.96	474.84
452.33	469.27
452.70	464.27
453.07	458.41
453.43	452.04
453.80	446.26
454.17	440.49
454.54	435.01
454.91	429.25
455.28	423.52
455.65	418.31
456.02	413.36
456.38	408.93
456.75	403.35
457.12	398.72
457.49	394.12
457.86	389.44
458.23	385.58
458.59	381.30
458.96	376.97
459.33	373.08
459.70	369.27
460.07	366.20
460.43	362.74
460.80	359.51
461.17	356.70
461.54	353.66
461.91	350.89
462.27	347.98
462.64	345.52
463.01	342.76
463.38	340.16
463.74	337.13
464.11	334.69
464.48	332.63
464.85	330.25
465.21	328.49
465.58	326.64
465.95	324.37
466.32	322.63
466.68	320.75
467.05	318.77
467.42	316.85
467.78	314.93
468.15	313.07
468.52	311.64
468.88	309.82
469.25	308.09
469.62	306.76
469.98	305.37
470.35	303.99
470.72	302.71
471.08	301.26
471.45	300.12
471.82	299.11
472.18	297.79
472.55	296.93
472.92	295.74
473.28	294.80
473.65	293.93
474.02	292.95
474.38	292.25
474.75	291.77
475.11	291.09
475.48	290.51
475.85	289.96
476.21	289.36
476.58	288.88
476.94	288.63
477.31	288.24
477.67	287.76
478.04	287.46
478.41	287.26
478.77	287.35
479.14	287.03
479.50	286.77
479.87	286.66
480.23	286.53
480.60	286.53
480.96	286.35
481.33	286.41
481.69	286.47
482.06	286.47
482.42	286.36
482.79	286.38
483.15	286.52
483.52	286.86
483.88	287.05
484.25	287.21
484.61	287.35
484.98	287.50
485.34	287.93
485.71	288.27
486.07	288.64
486.44	288.72
486.80	289.18
487.17	289.65
487.53	290.24
487.90	290.70
488.26	291.29
488.62	292.17
488.99	292.78
489.35	293.29
489.72	294.00
490.08	294.76
490.44	295.56
490.81	296.47
491.17	297.25
491.54	298.21
491.90	299.26
492.26	300.17
492.63	301.19
492.99	302.25
493.36	303.38
493.72	304.54
494.08	305.63
494.45	306.83
494.81	308.15
495.17	309.46
495.54	310.92
495.90	312.14
496.26	313.30
496.63	314.61
496.99	316.09
497.35	317.47
497.72	318.95
498.08	320.33
498.44	321.67
498.80	323.25
499.17	324.77
499.53	326.15
499.89	327.82
500.26	329.36
500.62	330.67
500.98	332.13
501.34	333.62
501.71	335.15
502.07	336.50
502.43	337.80
502.79	338.93
503.16	340.14
503.52	341.38
503.88	342.51
504.24	343.73
504.60	344.84
504.97	346.03
505.33	347.13
505.69	348.43
506.05	349.55
506.41	350.50
506.78	351.38
507.14	352.24
507.50	353.00
507.86	353.90
508.22	354.91
508.59	355.57
508.95	356.32
509.31	357.13
509.67	357.84
510.03	358.47
510.39	359.23
510.75	359.91
511.12	360.58
511.48	361.25
511.84	361.80
512.20	362.39
512.56	362.88
512.92	363.42
513.28	363.65
513.64	363.96
514.00	364.27
514.37	364.66
514.73	365.01
515.09	365.36
515.45	365.49
515.81	365.60
516.17	365.76
516.53	365.79
516.89	365.82
517.25	365.97
517.61	366.13
517.97	366.15
518.33	366.11
518.69	366.17
519.05	366.28
519.41	366.35
519.77	366.64
520.13	366.65
520.49	366.59
520.85	366.76
521.21	367.05
521.57	367.17
521.93	367.23
522.29	367.43
522.65	367.47
523.01	367.76
523.37	367.93
523.73	368.31
524.09	368.72
524.45	369.08
524.81	369.49
525.17	369.91
525.53	370.49
525.89	371.01
526.25	371.61
526.61	372.05
526.97	372.70
527.33	373.29
527.68	374.41
528.04	375.25
528.40	375.97
528.76	376.66
529.12	377.61
529.48	378.62
529.84	379.52
530.20	380.69
530.56	381.90
530.91	383.20
531.27	384.51
531.63	385.74
531.99	387.06
532.35	388.35
532.71	389.68
533.07	391.20
533.42	393.16
533.78	394.72
534.14	396.45
534.50	397.95
534.86	399.65
535.21	400.99
535.57	402.75
535.93	404.66
536.29	406.70
536.65	408.66
537.00	410.66
537.36	412.71
537.72	414.68
538.08	416.73
538.44	418.77
538.79	420.74
539.15	422.92
539.51	425.16
539.87	427.53
540.22	429.79
540.58	432.19
540.94	434.19
541.29	436.52
541.65	438.91
542.01	441.67
542.37	444.25
542.72	446.87
543.08	449.52
543.44	452.14
543.79	454.50
544.15	457.21
544.51	459.85
544.87	462.57
545.22	465.37
545.58	468.08
545.94	470.79
546.29	473.51
546.65	476.15
547.01	478.92
547.36	481.66
547.72	484.50
548.07	487.14
548.43	489.83
548.79	492.55
549.14	495.08
549.50	497.69
549.86	500.09
550.21	502.77
550.57	505.48
550.92	508.09
551.28	510.76
551.64	513.20
551.99	515.83
552.35	518.35
552.70	520.87
553.06	523.46
553.41	526.06
553.77	528.81
554.13	531.53
554.48	534.02
554.84	536.67
555.19	539.31
555.55	542.02
555.90	544.44
556.26	546.80
556.61	549.27
556.97	551.49
557.32	553.97
557.68	556.26
558.03	558.48
558.39	560.59
558.74	562.95
559.10	565.34
559.45	567.60
559.81	570.01
560.16	572.14
560.52	574.27
560.87	576.47
561.23	578.41
561.58	580.53
561.94	582.56
562.29	584.57
562.64	586.55
563.00	588.24
563.35	590.38
563.71	592.65
564.06	594.66
564.42	596.71
564.77	598.86
565.12	600.87
565.48	603.02
565.83	605.07
566.19	606.98
566.54	608.65
566.89	610.34
567.25	612.18
567.60	614.06
567.96	615.96
568.31	617.71
568.66	619.60
569.02	620.93
569.37	622.26
569.72	623.59
570.08	624.87
570.43	626.22
570.78	627.29
571.14	628.08
571.49	629.03
571.84	630.03
572.20	630.85
572.55	631.69
572.90	632.18
573.26	632.88
573.61	633.35
573.96	633.99
574.31	634.31
574.67	634.57
575.02	634.69
575.37	634.78
575.72	634.84
576.08	634.98
576.43	635.28
576.78	635.61
577.13	635.73
577.49	635.83
577.84	635.91
578.19	636.26
578.54	636.83
578.90	637.25
579.25	637.36
579.60	637.18
579.95	637.00
580.30	637.23
580.66	637.48
581.01	637.55
581.36	637.52
581.71	637.68
582.06	637.86
582.42	638.08
582.77	637.92
583.12	637.77
583.47	637.56
583.82	637.61
584.17	637.43
584.53	637.50
584.88	637.40
585.23	637.49
585.58	637.19
585.93	636.69
586.28	636.50
586.63	636.35
586.98	636.37
587.34	636.43
587.69	636.08
588.04	635.67
588.39	635.37
588.74	634.92
589.09	634.76
589.44	634.14
589.79	633.78
590.14	633.55
590.49	633.21
590.84	632.76
591.19	632.35
591.54	631.93
591.89	631.16
592.25	630.75
592.60	629.85
592.95	629.08
593.30	628.28
593.65	627.32
594.00	626.35
594.35	626.46
594.70	625.55
595.05	624.62
595.40	623.76
595.75	622.87
596.10	622.13
596.45	621.15
596.80	620.49
597.15	619.73
597.50	618.69
597.85	617.86
598.19	616.83
598.54	615.90
598.89	615.08
599.24	614.44
599.59	613.44
599.94	612.84
600.29	612.04
600.64	611.23
600.99	610.41
601.34	609.88
601.69	608.03
602.04	607.10
602.39	606.26
602.74	605.50
603.08	604.79
603.43	604.14
603.78	603.30
604.13	602.44
604.48	601.44
604.83	600.93
605.18	600.25
605.53	599.57
605.87	598.63
606.22	597.85
606.57	596.82
606.92	595.71
607.27	594.56
607.62	593.62
607.96	592.93
608.31	592.10
608.66	590.93
609.01	589.81
609.36	588.65
609.70	587.45
610.05	586.22
610.40	585.11
610.75	583.88
611.10	582.80
611.44	581.16
611.79	579.59
612.14	577.98
612.49	576.21
612.83	574.91
613.18	573.40
613.53	571.75
613.88	570.16
614.22	568.93
614.57	567.55
614.92	566.12
615.27	564.53
615.61	562.97
615.96	561.51
616.31	560.25
616.65	559.05
617.00	557.73
617.35	556.17
617.70	554.50
618.04	552.75
618.39	550.91
618.74	549.62
619.08	548.21
619.43	546.71
619.78	545.40
620.12	543.84
620.47	542.35
620.82	540.69
621.16	539.09
621.51	537.40
621.85	535.83
622.20	534.10
622.55	532.33
622.89	530.51
623.24	528.82
623.59	527.01
623.93	525.41
624.28	523.77
624.62	522.47
624.97	520.91
625.32	519.36
625.66	517.86
626.01	516.25
626.35	514.61
626.70	512.91
627.04	511.30
627.39	509.68
627.73	508.21
628.08	506.68
628.43	505.08
628.77	503.38
629.12	501.68
629.46	500.22
629.81	498.65
630.15	497.21
630.50	495.52
630.84	493.72
631.19	492.01
631.53	490.27
631.88	488.30
632.22	486.58
632.57	485.09
632.91	483.57
633.26	481.98
633.60	480.41
633.95	478.95
634.29	477.32
634.64	475.86
634.98	474.15
635.32	472.61
635.67	471.16
636.01	469.72
636.36	468.21
636.70	466.69
637.05	465.24
637.39	463.74
637.73	462.31
638.08	461.16
638.42	459.74
638.77	458.50
639.11	457.07
639.45	455.68
639.80	454.00
640.14	452.34
640.49	450.85
640.83	449.37
641.17	447.85
641.52	446.38
641.86	444.61
642.20	443.12
642.55	441.48
642.89	439.85
643.23	438.23
643.58	436.75
643.92	435.12
644.26	433.58
644.61	432.06
644.95	430.48
645.29	428.81
645.64	427.20
645.98	425.49
646.32	424.04
646.66	422.34
647.01	420.74
647.35	419.27
647.69	417.64
648.04	416.23
648.38	414.63
648.72	413.09
649.06	411.62
649.41	410.02
649.75	408.55
650.09	407.14
650.43	405.72
650.78	404.03
651.12	402.39
651.46	400.80
651.80	399.35
652.14	397.95
652.49	396.53
652.83	395.10
653.17	393.58
653.51	391.92
653.85	390.59
654.20	389.30
654.54	387.79
654.88	386.32
655.22	384.86
655.56	383.29
655.90	381.75
656.25	380.23
656.59	378.73
656.93	377.32
657.27	375.95
657.61	374.40
657.95	373.14
658.29	371.76
658.64	370.57
658.98	369.09
659.32	367.51
659.66	366.05
660.00	364.64
660.34	363.29
660.68	361.88
661.02	360.43
661.36	359.05
661.70	357.75
662.05	356.39
662.39	355.11
662.73	354.05
663.07	353.04
663.41	351.88
663.75	350.65
664.09	349.38
664.43	348.05
664.77	346.95
665.11	345.69
665.45	344.59
665.79	343.38
666.13	342.12
666.47	341.08
666.81	339.87
667.15	338.63
667.49	337.64
667.83	336.72
668.17	335.55
668.51	334.45
668.85	333.46
669.19	332.56
669.53	331.33
669.87	330.07
670.21	328.84
670.55	327.73
670.89	326.88
671.23	325.97
671.57	324.86
671.91	323.86
672.25	322.82
672.58	321.80
672.92	320.67
673.26	319.82
673.60	318.80
673.94	317.87
674.28	316.93
674.62	315.91
674.96	314.89
675.30	314.11
675.64	313.10
675.97	312.13
676.31	311.17
676.65	310.33
676.99	309.61
677.33	308.69
677.67	307.78
678.01	306.79
678.34	305.91
678.68	305.16
679.02	304.29
679.36	303.41
679.70	302.59
680.04	301.75
680.37	300.84
680.71	300.05
681.05	299.29
681.39	298.48
681.73	297.62
682.06	296.80
682.40	296.00
682.74	295.38
683.08	294.77
683.42	293.91
683.75	293.25
684.09	292.32
684.43	291.67
684.77	290.99
685.10	290.18
685.44	289.39
685.78	288.58
686.12	287.80
686.45	287.10
686.79	286.41
687.13	285.84
687.46	285.13
687.80	284.44
688.14	283.68
688.48	282.98
688.81	282.34
689.15	281.68
689.49	280.95
689.82	280.24
690.16	279.31
690.50	278.72
690.83	277.91
691.17	277.26
691.51	276.47
691.84	275.82
692.18	275.27
692.52	274.65
692.85	274.16
693.19	273.66
693.52	272.98
693.86	272.23
694.20	271.50
694.53	270.94
694.87	270.24
695.21	269.71
695.54	269.05
695.88	268.36
696.21	267.68
696.55	267.17
696.88	266.58
697.22	266.07
697.56	265.50
697.89	264.91
698.23	264.49
698.56	263.97
698.90	263.49
699.23	262.86
699.57	262.30
699.90	261.61
700.24	260.95
700.58	260.54
700.91	260.21
701.25	260.02
701.58	259.55
701.92	259.23
702.25	258.66
702.59	258.24
702.92	257.84
703.26	257.43
703.59	256.98
703.93	256.83
704.26	256.42
704.60	255.98
704.93	255.49
705.26	254.97
705.60	254.63
705.93	254.04
706.27	253.74
706.60	253.41
706.94	253.21
707.27	252.81
707.61	252.37
707.94	251.85
708.27	251.12
708.61	250.61
708.94	250.21
709.28	249.89
709.61	249.50
709.94	249.13
710.28	248.77
710.61	248.36
710.95	247.63
711.28	247.49
711.61	247.10
711.95	246.87
712.28	246.48
712.61	246.09
712.95	245.97
713.28	245.69
713.61	245.23
713.95	244.89
714.28	244.67
714.61	244.27
714.95	243.93
715.28	243.62
715.61	243.32
715.95	242.94
716.28	242.50
716.61	242.21
716.95	241.79
717.28	241.43
717.61	241.11
717.94	240.80
718.28	240.22
718.61	239.98
718.94	239.59
719.27	239.39
719.61	239.15
719.94	238.79
720.27	238.37
720.60	238.16
720.94	237.71
721.27	237.37
721.60	237.23
721.93	236.91
722.27	236.78
722.60	236.56
722.93	236.27
723.26	236.09
723.59	235.76
723.93	235.59
724.26	235.40
724.59	235.15
724.92	234.95
725.25	234.80
725.59	234.50
725.92	234.34
726.25	234.08
726.58	233.83
726.91	233.55
727.24	233.43
727.57	233.08
727.91	232.90
728.24	232.70
728.57	232.42
728.90	232.31
729.23	232.01
729.56	231.94
729.89	231.80
730.22	231.52
730.55	231.36
730.89	231.22
731.22	230.98
731.55	230.79
731.88	230.62
732.21	230.38
732.54	230.20
732.87	230.01
733.20	229.85
733.53	229.64
733.86	229.55
734.19	229.25
734.52	229.24
734.85	229.30
735.18	229.09
735.51	229.12
735.84	229.03
736.17	228.83
736.50	228.54
736.83	228.68
737.16	228.57
737.49	228.36
737.82	228.12
738.15	228.07
738.48	227.90
738.81	227.62
739.14	227.41
739.47	227.23
739.80	227.08
740.13	226.90
740.46	226.69
740.79	226.37
741.12	226.23
741.45	225.99
741.78	225.59
742.11	225.56
742.44	225.32
742.77	225.14
743.10	224.95
743.43	224.78
743.75	224.41
744.08	224.71
744.41	224.56
744.74	224.35
745.07	224.14
745.40	224.07
745.73	224.12
746.06	224.00
746.39	223.91
746.71	223.71
747.04	223.52
747.37	223.44
747.70	223.47
748.03	223.35
748.36	223.27
748.68	223.14
749.01	222.92
749.34	222.73
749.67	222.59
750.00	222.56
750.33	222.71
750.65	222.52
750.98	221.98
751.31	221.87
751.64	221.85
751.97	221.94
752.29	221.78
752.62	221.54
752.95	221.45
753.28	221.30
753.60	221.19
753.93	221.18
754.26	221.04
754.59	220.87
754.91	220.76
755.24	220.70
755.57	220.59
755.90	220.45
756.22	220.35
756.55	220.23
756.88	220.07
757.20	219.72
757.53	219.51
757.86	219.36
758.19	219.34
758.51	219.25
758.84	219.00
759.17	218.87
759.49	218.88
759.82	218.92
760.15	218.89
760.47	218.77
760.80	218.68
761.13	218.70
761.45	218.58
761.78	218.51
762.11	218.44
762.43	218.38
762.76	218.35
763.08	218.27
763.41	218.20
763.74	218.23
764.06	218.21
764.39	218.23
764.71	218.23
765.04	218.11
765.37	218.01
765.69	217.88
766.02	217.73
766.34	217.59
766.67	217.37
767.00	217.32
767.32	217.54
767.65	217.67
767.97	217.56
768.30	217.49
768.62	217.44
768.95	217.27
769.27	217.16
769.60	217.13
769.92	217.08
770.25	216.93
770.57	216.67
770.90	216.56
771.22	216.41
771.55	216.40
771.87	216.36
772.20	216.34
772.52	216.57
772.85	217.00
773.17	216.99
773.50	216.98
773.82	216.92
774.15	216.67
774.47	216.39
774.80	216.30
775.12	216.19
775.45	216.17
775.77	216.16
776.09	216.13
776.42	216.07
776.74	216.08
777.07	216.02
777.39	216.10
777.72	216.05
778.04	216.08
778.36	215.90
778.69	215.84
779.01	215.78
779.33	215.40
779.66	214.98
779.98	214.89
780.31	214.86
780.63	214.94
780.95	214.99
781.28	214.90
781.60	214.87
781.92	214.90
782.25	214.86
782.57	214.81
782.89	214.76
783.22	214.75
783.54	214.64
783.86	214.70
784.19	214.62
784.51	214.64
784.83	214.57
785.16	214.62
785.48	214.55
785.80	214.54
786.12	214.58
786.45	214.55
786.77	214.51
787.09	214.45
787.42	214.27
787.74	214.27
788.06	214.23
788.38	214.19
788.71	214.10
789.03	214.09
789.35	214.14
789.67	214.11
789.99	214.08
790.32	214.11
790.64	214.15
790.96	214.43
791.28	214.31
791.61	214.28
791.93	214.25
792.25	214.32
792.57	214.54
792.89	214.48
793.21	214.48
793.54	214.41
793.86	214.33
794.18	214.34
794.50	214.19
794.82	214.21
795.14	214.19
795.47	214.25
795.79	214.24
796.11	214.10
796.43	214.11
796.75	214.03
797.07	213.98
797.39	213.90
797.71	213.62
798.04	213.63
798.36	213.59
798.68	213.56
799.00	213.50
799.32	213.31
799.64	213.40
799.96	213.39
800.28	213.51
800.60	213.52
800.92	213.56
801.24	213.58
801.56	213.56
801.89	213.50
802.21	213.48
802.53	213.38
802.85	213.43
803.17	213.56
803.49	213.57
803.81	213.57
804.13	213.48
804.45	213.42
804.77	213.38
805.09	213.42
805.41	213.40
805.73	213.33
806.05	213.28
806.37	213.20
806.69	213.17
807.01	213.11
807.33	213.15
807.65	212.91
807.97	212.98
808.28	212.95
808.60	212.98
808.92	212.86
809.24	213.06
809.56	212.98
809.88	212.83
810.20	212.80
810.52	212.83
810.84	212.80
811.16	212.79
811.48	212.85
811.80	212.94
812.12	212.90
812.43	212.95
812.75	212.91
813.07	212.87
813.39	212.83
813.71	212.72
814.03	212.65
814.35	212.72
814.67	212.58
814.98	212.55
815.30	212.51
815.62	212.56
815.94	212.35
816.26	212.36
816.58	212.19
816.89	212.18
817.21	212.09
817.53	212.17
817.85	212.17
818.17	212.05
818.48	211.88
818.80	211.89
819.12	211.80
819.44	211.71
819.76	211.65
820.07	211.70
820.39	211.68
820.71	211.67
821.03	211.68
821.34	211.65
821.66	211.69
821.98	211.67
822.30	211.65
822.61	211.83
822.93	211.76
823.25	211.87
823.57	211.80
823.88	211.86
824.20	211.85
824.52	211.83
824.83	211.81
825.15	211.72
825.47	211.67
825.79	211.76
826.10	211.70
826.42	211.69
826.74	211.67
827.05	211.67
827.37	211.59
827.69	211.59
828.00	211.63
828.32	211.57
828.64	211.54
828.95	211.61
829.27	211.51
829.58	211.52
829.90	211.46
830.22	211.54
830.53	211.38
830.85	211.25
831.17	211.17
831.48	211.27
831.80	211.31
832.11	211.31
832.43	211.26
832.75	211.39
833.06	211.58
833.38	211.48
833.69	211.49
834.01	211.56
834.32	211.47
834.64	211.40
834.96	211.47
835.27	211.51
835.59	211.44
835.90	211.31
836.22	211.30
836.53	211.31
836.85	211.21
837.16	211.60
837.48	211.60
837.79	211.80
838.11	211.72
838.42	211.74
838.74	211.80
839.05	211.77
839.37	211.71
839.68	211.54
840.00	211.56
840.31	211.61
840.63	211.61
840.94	211.60
841.26	211.59
841.57	211.49
841.88	211.48
842.20	211.44
842.51	211.41
842.83	211.44
843.14	211.72
843.46	211.69
843.77	211.46
844.08	211.52
844.40	211.32
844.71	211.35
845.03	211.35
845.34	211.31
845.65	211.22
845.97	211.24
846.28	211.29
846.60	211.26
846.91	211.22
847.22	211.19
847.54	211.28
847.85	211.31
848.16	211.37
848.48	211.22
848.79	211.39
849.10	211.54
849.42	211.57
849.73	211.26
850.04	211.32
850.36	211.25
850.67	211.31
850.98	211.37
851.30	211.40
851.61	211.42
851.92	211.40
852.23	211.56
852.55	211.50
852.86	211.47
853.17	211.58
853.49	211.59
853.80	211.69
854.11	211.70
854.42	211.73
854.74	211.64
855.05	211.73
855.36	211.60
855.67	211.55
855.99	211.49
856.30	211.96
856.61	211.95
856.92	211.96
857.23	211.92
857.55	211.81
857.86	211.73
858.17	211.70
858.48	211.69
858.79	211.60
859.11	211.66
859.42	211.63
859.73	211.48
860.04	211.52
860.35	211.40
860.66	211.33
860.98	211.30
861.29	211.36
861.60	211.37
861.91	211.46
862.22	211.39
862.53	211.36
862.84	210.90
863.16	210.97
863.47	210.87
863.78	210.83
864.09	210.91
864.40	210.92
864.71	210.91
865.02	210.95
865.33	210.93
865.64	210.91
865.95	210.90
866.27	211.18
866.58	211.10
866.89	211.20
867.20	211.19
867.51	211.18
867.82	211.22
868.13	211.32
868.44	211.14
868.75	211.21
869.06	211.25
869.37	211.34
869.68	211.22
869.99	211.30
870.30	211.36
870.61	211.40
870.92	211.37
871.23	211.36
871.54	211.43
871.85	211.49
872.16	211.53
872.47	211.50
872.78	211.30
873.09	211.33
873.40	211.23
873.71	211.29
874.02	211.25
874.33	211.22
874.64	211.08
874.95	211.16
875.26	211.16
875.56	211.14
875.87	211.05
876.18	211.05
876.49	211.36
876.80	211.31
877.11	211.22
877.42	211.26
877.73	211.30
878.04	211.23
878.35	211.16
878.66	211.14
878.96	211.13
879.27	211.07
879.58	211.09
879.89	211.10
880.20	211.14
880.51	211.14
880.82	211.14
881.12	211.15
881.43	211.15
881.74	211.10
882.05	211.06
882.36	211.07
882.67	211.13
882.97	210.80
883.28	210.76
883.59	210.78
883.90	210.83
884.21	210.85
884.51	210.82
884.82	210.78
885.13	210.80
885.44	210.80
885.74	210.84
886.05	210.80
886.36	210.78
886.67	210.69
886.98	210.90
887.28	210.89
887.59	210.92
887.90	210.85
888.20	210.82
888.51	210.91
888.82	210.90
889.13	210.88
889.43	211.13
889.74	211.18
890.05	211.19
890.35	211.18
890.66	211.21
890.97	211.11
891.28	211.15
891.58	211.17
891.89	211.18
892.20	211.10
892.50	211.05
892.81	211.03
893.12	210.99
893.42	210.83
893.73	210.90
894.04	210.94
894.34	210.91
894.65	210.91
894.95	210.90
895.26	210.90
895.57	211.10
895.87	210.75
896.18	210.74
896.48	210.72
896.79	210.71
897.10	210.72
897.40	210.81
897.71	210.84
898.01	210.75
898.32	210.82
898.63	210.83
898.93	210.87
899.24	210.90
899.54	210.95
899.85	210.88
900.15	210.79
900.46	210.73
900.76	210.87
901.07	210.90
901.38	210.84
901.68	210.87
901.99	210.65
902.29	210.69
902.60	210.67
902.90	210.71
903.21	210.65
903.51	210.62
903.82	210.66
904.12	210.67
904.43	210.75
904.73	210.71
905.03	210.75
905.34	211.10
905.64	211.11
905.95	211.05
906.25	211.10
906.56	211.15
906.86	211.13
907.17	211.06
907.47	211.04
907.77	211.05
908.08	210.96
908.38	210.99
908.69	211.09
908.99	211.11
909.30	211.13
909.60	211.18
909.90	211.20
910.21	211.16
910.51	211.14
910.81	211.08
911.12	211.09
911.42	211.10
911.73	210.75
912.03	210.74
912.33	210.85
912.64	210.84
912.94	210.82
913.24	210.83
913.55	210.83
913.85	210.80
914.15	210.90
914.46	210.92
914.76	210.90
915.06	210.85
915.37	210.82
915.67	210.75
915.97	210.72
916.27	210.63
916.58	210.63
916.88	210.56
917.18	210.56
917.49	210.75
917.79	210.75
918.09	210.80
918.39	210.91
918.70	210.94
919.00	210.89
919.30	210.96
919.60	210.87
919.91	210.80
920.21	210.81
920.51	210.71
920.81	210.68
921.12	210.70
921.42	210.66
921.72	210.66
922.02	210.71
922.32	210.76
922.63	210.77
922.93	210.89
923.23	210.87
923.53	210.84
923.83	210.65
924.13	210.71
924.44	210.72
924.74	210.71
925.04	210.75
925.34	210.77
925.64	210.67
925.94	210.72
926.24	210.94
926.55	210.92
926.85	210.99
927.15	210.99
927.45	211.03
927.75	211.02
928.05	211.03
928.35	211.00
928.65	211.08
928.95	211.15
929.26	211.05
929.56	211.22
929.86	211.26
930.16	211.22
930.46	211.12
930.76	211.11
931.06	210.99
931.36	210.84
931.66	210.93
931.96	211.00
932.26	211.07
932.56	210.91
932.86	210.99
933.16	210.96
933.46	210.95
933.76	210.85
934.06	211.01
934.36	211.14
934.66	211.13
934.96	211.06
935.26	211.01
935.56	211.12
935.86	210.98
936.16	210.91
936.46	210.87
936.76	210.87
937.06	210.78
937.36	210.81
937.66	210.85
937.96	210.85
938.26	210.79
938.56	210.74
938.86	210.78
939.16	210.86
939.46	210.89
939.76	210.95
940.06	210.94
940.35	210.85
940.65	210.61
940.95	210.66
941.25	210.58
941.55	210.58
941.85	210.51
942.15	210.63
942.45	210.77
942.75	210.77
943.04	210.80
943.34	210.87
943.64	210.87
943.94	210.82
944.24	210.83
944.54	210.82
944.84	210.84
945.13	210.81
945.43	210.72
945.73	210.74
946.03	210.74
946.33	210.78
946.62	210.74
946.92	210.80
947.22	210.85
947.52	210.86
947.82	210.94
948.11	210.92
948.41	210.80
948.71	210.76
949.01	210.77
949.31	210.70
949.60	210.74
949.90	210.83
950.20	210.84
950.50	210.78
950.79	210.73
951.09	210.79
951.39	210.74
951.69	210.69
951.98	210.73
952.28	210.73
952.58	210.77
952.87	210.74
953.17	210.76
953.47	210.63
953.76	210.64
954.06	210.52
954.36	210.43
954.66	210.44
954.95	210.41
955.25	210.44
955.55	210.58
955.84	210.44
956.14	210.37
956.44	210.42
956.73	210.36
957.03	210.41
957.32	210.40
957.62	210.42
957.92	210.47
958.21	210.38
958.51	210.77
958.81	210.77
959.10	210.80
959.40	210.92
959.69	210.94
959.99	210.98
960.29	211.04
960.58	211.02
960.88	211.17
961.17	211.19
961.47	211.20
961.76	211.09
962.06	211.21
962.36	211.18
962.65	211.09
962.95	211.18
963.24	211.17
963.54	211.20
963.83	211.24
964.13	211.25
964.42	211.22
964.72	210.95
965.01	210.96
965.31	210.94
965.60	210.87
965.90	211.15
966.19	211.04
966.49	211.07
966.78	211.16
967.08	211.16
967.37	211.10
967.67	211.06
967.96	211.15
968.26	211.14
968.55	211.25
968.85	211.30
969.14	211.25
969.43	211.31
969.73	211.27
970.02	211.25
970.32	211.17
970.61	211.24
970.91	211.10
971.20	211.05
971.49	211.06
971.79	211.10
972.08	210.85
972.38	210.97
972.67	210.92
972.96	210.93
973.26	210.85
973.55	210.98
973.85	211.03
974.14	210.98
974.43	210.99
974.73	210.92
975.02	210.85
975.31	210.90
975.61	210.83
975.90	210.81
976.19	210.76
976.49	210.80
976.78	210.78
977.07	210.82
977.37	210.84
977.66	210.82
977.95	210.83
978.24	210.86
978.54	210.84
978.83	210.80
979.12	210.74
979.42	210.80
979.71	210.65
980.00	210.55
980.29	210.63
980.59	210.56
980.88	210.61
981.17	210.62
981.46	210.60
981.76	210.63
982.05	210.76
982.34	210.85
982.63	210.90
982.93	210.88
983.22	211.05
983.51	211.10
983.80	211.23
984.09	211.24
984.39	211.25
984.68	211.23
984.97	211.27
985.26	211.21
985.55	211.23
985.85	211.28
986.14	211.39
986.43	211.38
986.72	211.37
987.01	211.33
987.30	211.36
987.59	211.32
987.89	211.35
988.18	211.25
988.47	211.13
988.76	211.08
989.05	211.07
989.34	210.89
989.63	210.94
989.92	210.88
990.22	210.84
990.51	210.78
990.80	210.73
991.09	210.77
991.38	210.86
991.67	210.80
991.96	210.73
992.25	210.76
992.54	210.67
992.83	210.69
993.12	210.61
993.41	210.64
993.70	210.81
993.99	210.81
994.28	210.93
994.58	211.05
994.87	211.01
995.16	210.96
995.45	210.98
995.74	210.86
996.03	210.90
996.32	210.99
996.61	211.12
996.90	211.18
997.19	211.13
997.48	211.12
997.77	211.12
998.06	211.20
998.34	211.12
998.63	211.16
998.92	211.20
999.21	211.26
999.50	211.35
999.79	211.26
1000.08	211.28
1000.37	211.21
1000.66	211.14
1000.95	211.20
1001.24	211.24
1001.53	211.32
1001.82	211.35
1002.11	211.23
1002.40	211.19
1002.68	211.13
1002.97	211.29
1003.26	211.34
1003.55	211.31
1003.84	211.30
1004.13	211.43
1004.42	211.44
1004.71	211.45
1004.99	211.38
1005.28	211.49
1005.57	211.35
1005.86	211.27
1006.15	211.23
1006.44	211.12
1006.72	211.13
1007.01	211.05
1007.30	211.07
1007.59	210.93
1007.88	210.89
1008.17	210.91
1008.45	210.87
1008.74	210.85
1009.03	210.70
1009.32	210.64
1009.60	210.58
1009.89	210.50
1010.18	210.25
1010.47	210.24
1010.76	210.26
1011.04	210.24
1011.33	210.14
1011.62	210.19
1011.91	210.25
1012.19	210.26
1012.48	210.30
1012.77	210.35
1013.05	210.60
1013.34	210.55
1013.63	210.58
1013.92	210.58
1014.20	210.61
1014.49	210.58
1014.78	210.56
1015.06	210.50
1015.35	210.50
1015.64	210.70
1015.92	210.78
1016.21	210.87
1016.50	210.84
1016.78	210.91
1017.07	210.99
1017.36	211.00
1017.64	210.94
1017.93	210.94
1018.22	210.91
1018.50	210.86
1018.79	210.88
1019.08	210.71
1019.36	210.71
1019.65	210.62
1019.93	210.67
1020.22	210.70
1020.51	210.85
1020.79	210.80
1021.08	210.60
1021.36	209.35
1021.65	211.70
1021.94	211.40
1022.22	210.20
1022.51	208.15
1022.79	211.00
1023.08	211.20
1023.36	213.90
1023.65	209.40
>>>>>End Processed Spectral Data<<<<<
