SpectraSuite Data File
++++++++++++++++++++++++++++++++++++
Date: Mon Feb 25 17:19:40 EST 2013
User: group
Dark Spectrum Present: No
Reference Spectrum Present: No
Number of Sampled Component Spectra: 1
Spectrometers: USB2E7196
Integration Time (usec): 104000 (USB2E7196)
Spectra Averaged: 20 (USB2E7196)
Boxcar Smoothing: 10 (USB2E7196)
Correct for Electrical Dark: No (USB2E7196)
Strobe/Lamp Enabled: No (USB2E7196)
Correct for Detector Non-linearity: No (USB2E7196)
Correct for Stray Light: No (USB2E7196)
Number of Pixels in Processed Spectrum: 2048
>>>>>Begin Processed Spectral Data<<<<<
339.09	0.00
339.48	198.10
339.86	200.25
340.24	202.75
340.63	203.35
341.01	209.55
341.39	204.15
341.78	208.05
342.16	208.40
342.54	210.25
342.93	198.47
343.31	208.43
343.69	209.01
344.07	209.46
344.46	209.82
344.84	210.19
345.22	210.25
345.60	210.63
345.99	210.81
346.37	210.98
346.75	211.07
347.13	211.21
347.52	211.30
347.90	211.54
348.28	211.58
348.66	211.74
349.05	211.63
349.43	211.80
349.81	211.91
350.19	212.10
350.57	212.16
350.96	212.24
351.34	212.40
351.72	212.49
352.10	212.64
352.48	212.74
352.87	212.83
353.25	212.98
353.63	213.02
354.01	213.07
354.39	213.14
354.77	213.17
355.15	213.29
355.54	213.32
355.92	213.20
356.30	213.25
356.68	213.40
357.06	213.62
357.44	213.65
357.82	213.69
358.20	213.75
358.58	213.75
358.97	213.85
359.35	214.00
359.73	214.10
360.11	214.12
360.49	214.22
360.87	214.24
361.25	214.24
361.63	214.41
362.01	214.50
362.39	214.55
362.77	214.57
363.15	214.59
363.53	214.62
363.91	214.71
364.29	214.77
364.67	214.50
365.05	214.47
365.43	214.47
365.81	214.49
366.19	214.62
366.57	214.79
366.95	214.75
367.33	214.67
367.71	214.71
368.09	214.82
368.47	214.85
368.85	214.85
369.23	214.98
369.61	214.82
369.99	214.89
370.37	214.90
370.75	215.13
371.13	215.09
371.51	215.02
371.89	215.04
372.27	215.01
372.65	215.03
373.03	214.96
373.41	214.93
373.78	214.92
374.16	214.72
374.54	214.57
374.92	214.54
375.30	214.52
375.68	214.35
376.06	214.30
376.44	214.25
376.82	214.22
377.19	214.22
377.57	214.23
377.95	214.15
378.33	214.08
378.71	213.85
379.09	213.88
379.47	213.85
379.84	213.82
380.22	213.73
380.60	213.67
380.98	213.64
381.36	213.60
381.73	213.47
382.11	213.49
382.49	213.49
382.87	213.41
383.25	213.34
383.62	213.73
384.00	213.59
384.38	213.51
384.76	213.61
385.13	213.56
385.51	213.50
385.89	213.38
386.27	213.34
386.64	213.35
387.02	213.25
387.40	213.26
387.78	213.19
388.15	213.26
388.53	213.28
388.91	213.28
389.29	213.27
389.66	213.32
390.04	213.28
390.42	213.35
390.79	213.41
391.17	213.45
391.55	213.09
391.92	213.10
392.30	213.14
392.68	213.00
393.05	213.10
393.43	213.10
393.81	213.19
394.18	213.17
394.56	213.15
394.94	213.28
395.31	213.27
395.69	213.41
396.06	213.40
396.44	213.40
396.82	213.35
397.19	213.57
397.57	213.64
397.95	213.68
398.32	213.57
398.70	213.66
399.07	213.72
399.45	213.74
399.82	213.84
400.20	213.91
400.58	213.98
400.95	213.80
401.33	213.93
401.70	214.24
402.08	214.37
402.45	214.48
402.83	214.61
403.20	214.71
403.58	214.66
403.95	214.80
404.33	214.95
404.71	215.13
405.08	215.43
405.46	215.57
405.83	215.79
406.21	215.97
406.58	216.08
406.96	216.32
407.33	216.64
407.70	216.91
408.08	217.45
408.45	217.86
408.83	218.27
409.20	218.58
409.58	218.66
409.95	219.08
410.33	219.49
410.70	219.77
411.08	220.28
411.45	220.82
411.82	221.36
412.20	221.95
412.57	222.80
412.95	223.10
413.32	223.83
413.69	224.54
414.07	225.40
414.44	226.25
414.82	227.25
415.19	228.24
415.56	229.30
415.94	230.25
416.31	231.47
416.68	232.77
417.06	234.10
417.43	235.55
417.81	237.05
418.18	238.66
418.55	240.38
418.93	242.15
419.30	244.03
419.67	246.00
420.04	248.04
420.42	250.00
420.79	252.68
421.16	255.16
421.54	257.74
421.91	260.35
422.28	262.98
422.66	265.76
423.03	268.70
423.40	271.45
423.77	274.46
424.15	277.50
424.52	280.73
424.89	284.43
425.26	287.83
425.64	291.10
426.01	294.64
426.38	298.45
426.75	302.30
427.13	306.29
427.50	310.42
427.87	314.79
428.24	319.13
428.61	322.95
428.99	327.55
429.36	332.48
429.73	337.25
430.10	342.20
430.47	347.14
430.85	352.22
431.22	357.72
431.59	363.57
431.96	369.10
432.33	375.10
432.70	380.86
433.08	387.64
433.45	394.07
433.82	400.59
434.19	407.67
434.56	414.64
434.93	421.29
435.30	427.82
435.68	435.05
436.05	442.20
436.42	449.55
436.79	455.90
437.16	463.00
437.53	470.45
437.90	477.77
438.27	484.95
438.64	492.35
439.01	499.40
439.38	505.43
439.75	511.44
440.13	518.35
440.50	524.88
440.87	530.13
441.24	535.75
441.61	541.60
441.98	546.03
442.35	551.18
442.72	556.39
443.09	561.61
443.46	564.66
443.83	566.82
444.20	568.54
444.57	571.12
444.94	572.05
445.31	573.23
445.68	574.59
446.05	574.98
446.42	574.26
446.79	573.27
447.16	572.30
447.53	571.53
447.90	568.49
448.27	565.52
448.64	561.65
449.01	558.68
449.37	553.68
449.74	548.73
450.11	542.98
450.48	536.60
450.85	530.07
451.22	524.46
451.59	519.17
451.96	514.09
452.33	507.41
452.70	501.53
453.07	494.44
453.43	486.93
453.80	480.03
454.17	473.26
454.54	466.95
454.91	460.08
455.28	453.44
455.65	447.29
456.02	441.41
456.38	436.15
456.75	429.68
457.12	424.34
457.49	418.96
457.86	413.72
458.23	409.40
458.59	404.55
458.96	399.78
459.33	395.42
459.70	391.22
460.07	387.81
460.43	383.77
460.80	380.05
461.17	376.87
461.54	373.48
461.91	370.27
462.27	367.01
462.64	364.33
463.01	361.36
463.38	358.61
463.74	355.40
464.11	352.81
464.48	350.48
464.85	348.04
465.21	346.35
465.58	344.49
465.95	342.12
466.32	340.14
466.68	338.14
467.05	336.16
467.42	334.13
467.78	332.13
468.15	330.31
468.52	329.00
468.88	327.20
469.25	325.53
469.62	324.22
469.98	322.82
470.35	321.53
470.72	320.35
471.08	319.00
471.45	318.04
471.82	316.96
472.18	315.93
472.55	315.11
472.92	314.10
473.28	313.31
473.65	312.48
474.02	311.85
474.38	311.37
474.75	311.12
475.11	310.65
475.48	310.43
475.85	310.23
476.21	310.03
476.58	309.95
476.94	310.11
477.31	310.26
477.67	310.31
478.04	310.40
478.41	310.65
478.77	311.20
479.14	311.40
479.50	311.91
479.87	312.48
480.23	313.13
480.60	313.74
480.96	314.23
481.33	315.27
481.69	316.20
482.06	317.11
482.42	317.96
482.79	318.97
483.15	320.16
483.52	321.58
483.88	322.91
484.25	324.34
484.61	325.82
484.98	327.33
485.34	329.31
485.71	331.35
486.07	333.47
486.44	335.43
486.80	337.75
487.17	340.21
487.53	342.92
487.90	345.76
488.26	348.82
488.62	352.24
488.99	355.35
489.35	358.77
489.72	362.38
490.08	366.21
490.44	370.27
490.81	374.60
491.17	378.92
491.54	383.66
491.90	388.70
492.26	393.93
492.63	399.45
492.99	405.11
493.36	411.19
493.72	417.44
494.08	423.90
494.45	430.97
494.81	438.33
495.17	445.64
495.54	453.48
495.90	461.57
496.26	469.83
496.63	478.74
496.99	487.83
497.35	497.36
497.72	507.40
498.08	517.84
498.44	528.43
498.80	539.94
499.17	551.70
499.53	563.63
499.89	576.39
500.26	589.26
500.62	602.27
500.98	616.22
501.34	630.59
501.71	645.59
502.07	660.74
502.43	676.26
502.79	692.50
503.16	709.26
503.52	726.31
503.88	743.87
504.24	762.10
504.60	780.70
504.97	799.94
505.33	819.40
505.69	840.18
506.05	861.22
506.41	882.27
506.78	903.68
507.14	925.83
507.50	948.23
507.86	971.11
508.22	995.20
508.59	1019.04
508.95	1043.76
509.31	1068.63
509.67	1094.12
510.03	1120.47
510.39	1147.51
510.75	1174.67
511.12	1202.42
511.48	1230.55
511.84	1258.95
512.20	1287.47
512.56	1316.92
512.92	1346.66
513.28	1376.01
513.64	1405.90
514.00	1436.34
514.37	1467.03
514.73	1498.11
515.09	1529.30
515.45	1560.81
515.81	1592.02
516.17	1623.57
516.53	1654.91
516.89	1686.85
517.25	1718.92
517.61	1750.45
517.97	1782.10
518.33	1813.73
518.69	1845.60
519.05	1877.79
519.41	1910.15
519.77	1942.94
520.13	1974.56
520.49	2006.33
520.85	2038.65
521.21	2070.80
521.57	2103.31
521.93	2134.71
522.29	2167.54
522.65	2199.94
523.01	2231.81
523.37	2262.83
523.73	2294.65
524.09	2326.56
524.45	2358.37
524.81	2389.82
525.17	2421.81
525.53	2453.45
525.89	2485.19
526.25	2516.44
526.61	2546.27
526.97	2576.20
527.33	2606.06
527.68	2636.34
528.04	2665.70
528.40	2693.93
528.76	2722.39
529.12	2751.17
529.48	2781.08
529.84	2808.69
530.20	2836.20
530.56	2864.28
530.91	2893.33
531.27	2921.35
531.63	2948.45
531.99	2974.95
532.35	3000.82
532.71	3025.98
533.07	3051.51
533.42	3075.50
533.78	3100.29
534.14	3124.96
534.50	3147.63
534.86	3171.28
535.21	3193.38
535.57	3217.18
535.93	3239.65
536.29	3261.27
536.65	3282.47
537.00	3302.37
537.36	3322.14
537.72	3341.48
538.08	3360.42
538.44	3379.45
538.79	3398.06
539.15	3416.55
539.51	3434.67
539.87	3453.80
540.22	3471.58
540.58	3489.67
540.94	3507.66
541.29	3523.00
541.65	3537.93
542.01	3553.59
542.37	3568.13
542.72	3583.16
543.08	3595.77
543.44	3610.57
543.79	3623.11
544.15	3634.76
544.51	3647.25
544.87	3659.88
545.22	3671.08
545.58	3681.45
545.94	3689.95
546.29	3697.46
546.65	3705.01
547.01	3712.49
547.36	3718.82
547.72	3725.42
548.07	3729.88
548.43	3734.11
548.79	3738.77
549.14	3743.67
549.50	3748.68
549.86	3751.90
550.21	3754.95
550.57	3758.98
550.92	3760.15
551.28	3762.11
551.64	3764.36
551.99	3766.63
552.35	3767.38
552.70	3768.69
553.06	3770.07
553.41	3771.32
553.77	3772.54
554.13	3773.03
554.48	3773.43
554.84	3773.74
555.19	3772.88
555.55	3771.68
555.90	3769.95
556.26	3768.20
556.61	3765.98
556.97	3762.67
557.32	3760.69
557.68	3757.20
558.03	3753.47
558.39	3750.55
558.74	3749.22
559.10	3746.45
559.45	3742.80
559.81	3739.83
560.16	3735.25
560.52	3731.44
560.87	3726.90
561.23	3721.83
561.58	3717.31
561.94	3711.40
562.29	3704.67
562.64	3699.95
563.00	3695.15
563.35	3691.05
563.71	3687.41
564.06	3682.89
564.42	3678.80
564.77	3674.50
565.12	3670.42
565.48	3665.28
565.83	3659.99
566.19	3654.78
566.54	3647.52
566.89	3640.52
567.25	3633.97
567.60	3628.27
567.96	3621.07
568.31	3614.89
568.66	3607.76
569.02	3600.00
569.37	3591.79
569.72	3584.95
570.08	3576.37
570.43	3568.23
570.78	3559.38
571.14	3549.39
571.49	3540.00
571.84	3530.95
572.20	3520.07
572.55	3510.51
572.90	3499.95
573.26	3489.36
573.61	3477.68
573.96	3467.56
574.31	3455.69
574.67	3443.45
575.02	3431.09
575.37	3419.04
575.72	3405.71
576.08	3394.72
576.43	3382.65
576.78	3371.61
577.13	3360.25
577.49	3348.88
577.84	3336.93
578.19	3325.75
578.54	3315.55
578.90	3305.32
579.25	3293.40
579.60	3281.19
579.95	3268.59
580.30	3257.41
580.66	3246.08
581.01	3234.26
581.36	3221.93
581.71	3210.30
582.06	3198.63
582.42	3187.02
582.77	3174.63
583.12	3162.72
583.47	3151.02
583.82	3139.99
584.17	3128.17
584.53	3116.23
584.88	3104.10
585.23	3092.14
585.58	3079.66
585.93	3066.59
586.28	3054.44
586.63	3041.96
586.98	3030.80
587.34	3019.41
587.69	3007.33
588.04	2995.70
588.39	2984.00
588.74	2971.49
589.09	2960.20
589.44	2947.84
589.79	2936.61
590.14	2925.77
590.49	2914.50
590.84	2902.66
591.19	2891.78
591.54	2880.21
591.89	2866.87
592.25	2854.88
592.60	2842.14
592.95	2829.57
593.30	2816.26
593.65	2802.92
594.00	2790.67
594.35	2779.86
594.70	2767.88
595.05	2756.18
595.40	2744.08
595.75	2731.34
596.10	2720.68
596.45	2709.49
596.80	2699.16
597.15	2688.41
597.50	2676.55
597.85	2665.90
598.19	2654.02
598.54	2641.97
598.89	2631.15
599.24	2621.75
599.59	2611.19
599.94	2601.96
600.29	2591.82
600.64	2582.21
600.99	2571.08
601.34	2561.16
601.69	2549.06
602.04	2537.68
602.39	2526.71
602.74	2515.89
603.08	2506.78
603.43	2497.12
603.78	2486.48
604.13	2476.02
604.48	2465.17
604.83	2456.49
605.18	2447.36
605.53	2437.31
605.87	2427.22
606.22	2417.40
606.57	2406.93
606.92	2396.37
607.27	2385.19
607.62	2374.96
607.96	2365.22
608.31	2356.46
608.66	2345.86
609.01	2335.16
609.36	2324.53
609.70	2313.37
610.05	2302.39
610.40	2291.15
610.75	2279.47
611.10	2269.25
611.44	2256.37
611.79	2244.27
612.14	2231.28
612.49	2217.72
612.83	2205.99
613.18	2193.20
613.53	2180.73
613.88	2167.62
614.22	2156.08
614.57	2144.08
614.92	2131.52
615.27	2118.85
615.61	2105.96
615.96	2094.10
616.31	2083.27
616.65	2072.54
617.00	2061.82
617.35	2050.37
617.70	2038.03
618.04	2025.68
618.39	2012.64
618.74	2001.80
619.08	1989.97
619.43	1978.45
619.78	1967.66
620.12	1956.18
620.47	1945.61
620.82	1933.72
621.16	1922.18
621.51	1910.31
621.85	1899.15
622.20	1887.74
622.55	1876.47
622.89	1864.95
623.24	1853.25
623.59	1841.04
623.93	1829.52
624.28	1818.09
624.62	1807.20
624.97	1796.59
625.32	1785.98
625.66	1775.76
626.01	1765.33
626.35	1755.34
626.70	1744.83
627.04	1734.55
627.39	1724.49
627.73	1713.90
628.08	1704.22
628.43	1693.58
628.77	1682.69
629.12	1671.95
629.46	1662.76
629.81	1652.65
630.15	1642.78
630.50	1632.80
630.84	1622.30
631.19	1612.10
631.53	1602.26
631.88	1591.53
632.22	1580.83
632.57	1571.26
632.91	1560.98
633.26	1550.54
633.60	1540.72
633.95	1531.23
634.29	1521.06
634.64	1511.45
634.98	1501.52
635.32	1491.57
635.67	1483.13
636.01	1474.54
636.36	1464.88
636.70	1455.04
637.05	1445.58
637.39	1436.38
637.73	1427.65
638.08	1419.87
638.42	1411.36
638.77	1402.33
639.11	1393.74
639.45	1385.20
639.80	1375.51
640.14	1366.28
640.49	1357.32
640.83	1348.08
641.17	1338.92
641.52	1329.86
641.86	1320.05
642.20	1310.87
642.55	1301.50
642.89	1291.78
643.23	1282.23
643.58	1273.88
643.92	1264.46
644.26	1255.49
644.61	1246.70
644.95	1237.53
645.29	1228.10
645.64	1218.58
645.98	1209.57
646.32	1200.91
646.66	1191.94
647.01	1183.56
647.35	1175.22
647.69	1166.35
648.04	1157.72
648.38	1148.71
648.72	1140.12
649.06	1131.72
649.41	1123.41
649.75	1114.82
650.09	1106.74
650.43	1098.43
650.78	1089.53
651.12	1081.04
651.46	1072.55
651.80	1064.30
652.14	1056.07
652.49	1047.78
652.83	1039.46
653.17	1030.71
653.51	1022.10
653.85	1013.98
654.20	1005.83
654.54	997.30
654.88	989.21
655.22	980.97
655.56	973.09
655.90	965.04
656.25	957.13
656.59	949.09
656.93	941.66
657.27	934.04
657.61	925.88
657.95	918.51
658.29	911.10
658.64	904.07
658.98	896.30
659.32	888.60
659.66	881.22
660.00	873.93
660.34	866.63
660.68	859.15
661.02	851.80
661.36	844.61
661.70	838.07
662.05	831.60
662.39	825.38
662.73	818.99
663.07	812.60
663.41	806.37
663.75	799.97
664.09	793.42
664.43	786.88
664.77	780.88
665.11	774.34
665.45	768.40
665.79	762.07
666.13	756.18
666.47	750.27
666.81	744.38
667.15	738.54
667.49	733.24
667.83	728.00
668.17	722.69
668.51	717.42
668.85	711.91
669.19	706.70
669.53	700.97
669.87	695.42
670.21	690.10
670.55	684.68
670.89	679.96
671.23	675.03
671.57	670.15
671.91	665.20
672.25	660.37
672.58	655.35
672.92	650.62
673.26	645.99
673.60	641.43
673.94	636.75
674.28	632.16
674.62	627.65
674.96	623.23
675.30	618.69
675.64	614.19
675.97	609.75
676.31	605.42
676.65	601.32
676.99	597.50
677.33	593.35
677.67	589.25
678.01	584.79
678.34	580.77
678.68	576.65
679.02	572.50
679.36	568.76
679.70	564.92
680.04	560.97
680.37	556.97
680.71	553.10
681.05	549.53
681.39	545.83
681.73	542.09
682.06	538.60
682.40	535.13
682.74	531.60
683.08	528.22
683.42	524.46
683.75	520.94
684.09	517.27
684.43	513.73
684.77	510.06
685.10	506.60
685.44	503.05
685.78	499.59
686.12	496.57
686.45	493.27
686.79	489.95
687.13	486.90
687.46	483.74
687.80	480.59
688.14	477.31
688.48	474.29
688.81	470.98
689.15	467.75
689.49	464.61
689.82	461.53
690.16	458.05
690.50	454.90
690.83	451.85
691.17	448.70
691.51	445.70
691.84	442.99
692.18	440.20
692.52	437.50
692.85	435.14
693.19	432.45
693.52	429.69
693.86	426.95
694.20	424.22
694.53	421.70
694.87	419.09
695.21	416.44
695.54	413.73
695.88	411.20
696.21	408.59
696.55	406.19
696.88	403.67
697.22	401.51
697.56	399.36
697.89	397.05
698.23	394.90
698.56	392.76
698.90	390.65
699.23	388.33
699.57	386.08
699.90	383.67
700.24	381.40
700.58	379.20
700.91	377.13
701.25	375.20
701.58	373.18
701.92	371.23
702.25	369.30
702.59	367.34
702.92	365.43
703.26	363.55
703.59	361.63
703.93	360.21
704.26	358.32
704.60	356.60
704.93	354.67
705.26	352.72
705.60	351.08
705.93	349.16
706.27	347.54
706.60	346.07
706.94	344.66
707.27	342.97
707.61	341.27
707.94	339.72
708.27	337.85
708.61	336.17
708.94	334.50
709.28	332.94
709.61	331.46
709.94	330.02
710.28	328.57
710.61	327.19
710.95	325.42
711.28	324.22
711.61	322.74
711.95	321.51
712.28	320.24
712.61	318.83
712.95	317.71
713.28	316.59
713.61	315.15
713.95	313.71
714.28	312.57
714.61	311.40
714.95	310.24
715.28	309.10
715.61	307.88
715.95	306.78
716.28	305.57
716.61	304.47
716.95	303.36
717.28	302.30
717.61	301.20
717.94	300.14
718.28	298.88
718.61	297.86
718.94	296.73
719.27	295.71
719.61	294.61
719.94	293.48
720.27	292.35
720.60	291.33
720.94	290.33
721.27	289.39
721.60	288.51
721.93	287.58
722.27	286.82
722.60	286.03
722.93	285.12
723.26	284.25
723.59	283.34
723.93	282.52
724.26	281.63
724.59	280.79
724.92	279.95
725.25	279.18
725.59	278.36
725.92	277.74
726.25	276.99
726.58	276.35
726.91	275.69
727.24	275.01
727.57	274.42
727.91	273.65
728.24	272.96
728.57	272.23
728.90	271.50
729.23	270.63
729.56	270.03
729.89	269.35
730.22	268.76
730.55	268.10
730.89	267.50
731.22	266.90
731.55	266.22
731.88	265.70
732.21	265.05
732.54	264.40
732.87	263.73
733.20	263.13
733.53	262.52
733.86	262.00
734.19	261.30
734.52	260.68
734.85	260.49
735.18	259.90
735.51	259.42
735.84	258.91
736.17	258.59
736.50	257.87
736.83	257.74
737.16	257.23
737.49	256.83
737.82	256.20
738.15	255.71
738.48	255.18
738.81	254.65
739.14	254.15
739.47	253.65
739.80	253.22
740.13	252.72
740.46	252.26
740.79	251.65
741.12	251.26
741.45	250.78
741.78	250.00
742.11	249.65
742.44	249.20
742.77	248.85
743.10	248.30
743.43	247.88
743.75	247.12
744.08	247.04
744.41	246.54
744.74	246.19
745.07	245.70
745.40	245.44
745.73	245.13
746.06	244.79
746.39	244.46
746.71	244.06
747.04	243.64
747.37	243.29
747.70	242.98
748.03	242.67
748.36	242.40
748.68	242.06
749.01	241.58
749.34	241.22
749.67	240.88
750.00	240.60
750.33	240.53
750.65	240.25
750.98	239.59
751.31	239.25
751.64	238.98
751.97	238.94
752.29	238.62
752.62	238.20
752.95	237.78
753.28	237.42
753.60	237.06
753.93	236.97
754.26	236.59
754.59	236.31
754.91	235.95
755.24	235.61
755.57	235.39
755.90	235.11
756.22	234.79
756.55	234.40
756.88	234.00
757.20	233.43
757.53	233.00
757.86	232.65
758.19	232.41
758.51	232.17
758.84	231.70
759.17	231.40
759.49	231.20
759.82	231.12
760.15	230.95
760.47	230.70
760.80	230.30
761.13	230.18
761.45	229.89
761.78	229.63
762.11	229.35
762.43	229.08
762.76	228.84
763.08	228.64
763.41	228.43
763.74	228.29
764.06	228.07
764.39	227.92
764.71	227.80
765.04	227.53
765.37	227.24
765.69	227.07
766.02	226.86
766.34	226.61
766.67	226.33
767.00	226.17
767.32	226.20
767.65	226.22
767.97	226.01
768.30	225.87
768.62	225.72
768.95	225.50
769.27	225.36
769.60	225.25
769.92	225.04
770.25	224.90
770.57	224.68
770.90	224.59
771.22	224.46
771.55	224.28
771.87	224.26
772.20	224.15
772.52	224.24
772.85	224.51
773.17	224.44
773.50	224.28
773.82	224.10
774.15	223.74
774.47	223.36
774.80	223.18
775.12	223.08
775.45	222.93
775.77	222.95
776.09	222.82
776.42	222.79
776.74	222.79
777.07	222.65
777.39	222.62
777.72	222.44
778.04	222.34
778.36	222.22
778.69	222.07
779.01	222.00
779.33	221.68
779.66	221.15
779.98	220.93
780.31	220.95
780.63	220.99
780.95	221.01
781.28	220.93
781.60	220.78
781.92	220.63
782.25	220.52
782.57	220.37
782.89	220.25
783.22	220.04
783.54	219.89
783.86	219.86
784.19	219.78
784.51	219.80
784.83	219.76
785.16	219.72
785.48	219.69
785.80	219.59
786.12	219.53
786.45	219.44
786.77	219.56
787.09	219.38
787.42	219.12
787.74	219.10
788.06	219.07
788.38	219.04
788.71	218.98
789.03	218.98
789.35	218.96
789.67	218.80
789.99	218.78
790.32	218.73
790.64	218.72
790.96	218.92
791.28	218.77
791.61	218.56
791.93	218.52
792.25	218.36
792.57	218.60
792.89	218.45
793.21	218.42
793.54	218.23
793.86	218.12
794.18	218.16
794.50	217.93
794.82	217.86
795.14	217.87
795.47	217.78
795.79	217.78
796.11	217.67
796.43	217.69
796.75	217.65
797.07	217.54
797.39	217.39
797.71	217.07
798.04	217.11
798.36	217.13
798.68	217.01
799.00	217.01
799.32	216.70
799.64	216.71
799.96	216.71
800.28	216.75
800.60	216.76
800.92	216.75
801.24	216.78
801.56	216.77
801.89	216.66
802.21	216.71
802.53	216.53
802.85	216.59
803.17	216.68
803.49	216.58
803.81	216.61
804.13	216.63
804.45	216.57
804.77	216.51
805.09	216.41
805.41	216.30
805.73	216.19
806.05	216.10
806.37	216.05
806.69	215.96
807.01	215.86
807.33	215.78
807.65	215.70
807.97	215.77
808.28	215.71
808.60	215.67
808.92	215.65
809.24	215.86
809.56	215.71
809.88	215.57
810.20	215.54
810.52	215.52
810.84	215.45
811.16	215.32
811.48	215.19
811.80	215.32
812.12	215.29
812.43	215.37
812.75	215.32
813.07	215.28
813.39	215.22
813.71	215.19
814.03	215.18
814.35	215.06
814.67	214.90
814.98	214.85
815.30	214.75
815.62	214.60
815.94	214.29
816.26	214.32
816.58	214.21
816.89	214.21
817.21	214.08
817.53	214.05
817.85	214.15
818.17	214.16
818.48	214.04
818.80	214.13
819.12	214.01
819.44	214.00
819.76	213.90
820.07	213.89
820.39	213.85
820.71	213.84
821.03	213.87
821.34	213.87
821.66	213.87
821.98	213.93
822.30	213.97
822.61	214.21
822.93	214.13
823.25	214.10
823.57	214.05
823.88	214.16
824.20	214.13
824.52	214.11
824.83	214.06
825.15	214.04
825.47	213.99
825.79	214.04
826.10	214.01
826.42	214.04
826.74	214.14
827.05	214.17
827.37	214.17
827.69	214.11
828.00	214.03
828.32	214.00
828.64	213.98
828.95	214.06
829.27	213.93
829.58	213.93
829.90	213.96
830.22	214.00
830.53	213.88
830.85	213.88
831.17	213.81
831.48	213.89
831.80	213.95
832.11	213.96
832.43	213.85
832.75	213.89
833.06	214.07
833.38	213.93
833.69	213.84
834.01	213.81
834.32	213.85
834.64	213.88
834.96	213.87
835.27	213.90
835.59	213.73
835.90	213.62
836.22	213.61
836.53	213.55
836.85	213.50
837.16	213.87
837.48	213.81
837.79	213.85
838.11	213.74
838.42	213.68
838.74	213.73
839.05	213.72
839.37	213.68
839.68	213.44
840.00	213.41
840.31	213.43
840.63	213.45
840.94	213.37
841.26	213.27
841.57	213.28
841.88	213.29
842.20	213.30
842.51	213.29
842.83	213.24
843.14	213.57
843.46	213.62
843.77	213.35
844.08	213.34
844.40	213.26
844.71	213.23
845.03	213.15
845.34	213.03
845.65	212.97
845.97	212.93
846.28	212.93
846.60	212.93
846.91	212.90
847.22	212.88
847.54	212.92
847.85	212.97
848.16	212.93
848.48	212.86
848.79	212.99
849.10	213.02
849.42	213.09
849.73	212.68
850.04	212.59
850.36	212.50
850.67	212.53
850.98	212.47
851.30	212.55
851.61	212.53
851.92	212.50
852.23	212.64
852.55	212.65
852.86	212.70
853.17	212.73
853.49	212.78
853.80	212.84
854.11	212.84
854.42	212.87
854.74	212.80
855.05	212.80
855.36	212.59
855.67	212.57
855.99	212.48
856.30	212.99
856.61	212.96
856.92	212.94
857.23	212.98
857.55	212.99
857.86	212.94
858.17	213.00
858.48	212.95
858.79	212.85
859.11	212.91
859.42	212.88
859.73	212.85
860.04	212.84
860.35	212.74
860.66	212.66
860.98	212.68
861.29	212.75
861.60	212.66
861.91	212.79
862.22	212.78
862.53	212.73
862.84	212.24
863.16	212.35
863.47	212.25
863.78	212.18
864.09	212.24
864.40	212.27
864.71	212.18
865.02	212.25
865.33	212.19
865.64	212.10
865.95	212.10
866.27	212.23
866.58	212.20
866.89	212.20
867.20	212.25
867.51	212.14
867.82	212.15
868.13	212.33
868.44	212.20
868.75	212.26
869.06	212.30
869.37	212.38
869.68	212.22
869.99	212.33
870.30	212.33
870.61	212.26
870.92	212.20
871.23	212.27
871.54	212.29
871.85	212.40
872.16	212.40
872.47	212.37
872.78	212.22
873.09	212.23
873.40	212.23
873.71	212.19
874.02	212.21
874.33	212.15
874.64	211.97
874.95	212.11
875.26	212.01
875.56	212.03
875.87	211.97
876.18	212.05
876.49	212.43
876.80	212.39
877.11	212.42
877.42	212.49
877.73	212.45
878.04	212.35
878.35	212.38
878.66	212.42
878.96	212.39
879.27	212.40
879.58	212.41
879.89	212.35
880.20	212.48
880.51	212.51
880.82	212.50
881.12	212.58
881.43	212.50
881.74	212.48
882.05	212.49
882.36	212.55
882.67	212.53
882.97	212.10
883.28	212.15
883.59	212.16
883.90	212.14
884.21	212.23
884.51	212.28
884.82	212.17
885.13	212.14
885.44	212.20
885.74	212.09
886.05	212.09
886.36	212.10
886.67	211.97
886.98	212.11
887.28	212.21
887.59	212.18
887.90	212.17
888.20	212.15
888.51	212.23
888.82	212.18
889.13	212.18
889.43	212.43
889.74	212.40
890.05	212.31
890.35	212.30
890.66	212.25
890.97	212.24
891.28	212.18
891.58	212.20
891.89	212.15
892.20	212.23
892.50	212.13
892.81	212.13
893.12	212.14
893.42	212.00
893.73	211.99
894.04	211.98
894.34	212.00
894.65	211.99
894.95	211.90
895.26	211.94
895.57	212.10
895.87	211.82
896.18	211.87
896.48	211.96
896.79	211.94
897.10	211.99
897.40	212.01
897.71	212.04
898.01	211.98
898.32	212.00
898.63	211.98
898.93	212.08
899.24	212.07
899.54	212.07
899.85	212.05
900.15	212.04
900.46	212.00
900.76	212.05
901.07	212.02
901.38	212.02
901.68	212.08
901.99	211.92
902.29	211.89
902.60	211.78
902.90	211.68
903.21	211.68
903.51	211.53
903.82	211.64
904.12	211.69
904.43	211.72
904.73	211.72
905.03	211.71
905.34	211.96
905.64	211.92
905.95	211.89
906.25	211.84
906.56	211.85
906.86	211.86
907.17	211.81
907.47	211.84
907.77	211.80
908.08	211.62
908.38	211.60
908.69	211.65
908.99	211.77
909.30	211.85
909.60	211.81
909.90	211.91
910.21	211.77
910.51	211.75
910.81	211.81
911.12	211.75
911.42	211.79
911.73	211.43
912.03	211.43
912.33	211.51
912.64	211.58
912.94	211.53
913.24	211.53
913.55	211.52
913.85	211.47
914.15	211.52
914.46	211.65
914.76	211.68
915.06	211.59
915.37	211.62
915.67	211.61
915.97	211.58
916.27	211.50
916.58	211.50
916.88	211.49
917.18	211.42
917.49	211.74
917.79	211.67
918.09	211.72
918.39	211.86
918.70	211.85
919.00	211.82
919.30	211.96
919.60	211.91
919.91	211.76
920.21	211.79
920.51	211.79
920.81	211.73
921.12	211.75
921.42	211.79
921.72	211.72
922.02	211.75
922.32	211.87
922.63	211.82
922.93	212.01
923.23	212.05
923.53	212.01
923.83	211.75
924.13	211.83
924.44	211.88
924.74	211.88
925.04	211.91
925.34	211.84
925.64	211.66
925.94	211.69
926.24	212.01
926.55	212.03
926.85	212.08
927.15	212.11
927.45	212.11
927.75	212.12
928.05	212.12
928.35	212.04
928.65	212.09
928.95	212.20
929.26	212.08
929.56	212.07
929.86	212.09
930.16	212.12
930.46	212.12
930.76	212.04
931.06	211.91
931.36	211.85
931.66	211.93
931.96	211.96
932.26	212.01
932.56	211.82
932.86	211.85
933.16	211.78
933.46	211.69
933.76	211.61
934.06	211.75
934.36	211.79
934.66	211.81
934.96	211.71
935.26	211.72
935.56	211.71
935.86	211.64
936.16	211.66
936.46	211.59
936.76	211.53
937.06	211.58
937.36	211.70
937.66	211.68
937.96	211.65
938.26	211.54
938.56	211.51
938.86	211.55
939.16	211.60
939.46	211.64
939.76	211.71
940.06	211.76
940.35	211.67
940.65	211.59
940.95	211.60
941.25	211.50
941.55	211.47
941.85	211.52
942.15	211.62
942.45	211.73
942.75	211.78
943.04	211.75
943.34	211.76
943.64	211.60
943.94	211.55
944.24	211.54
944.54	211.68
944.84	211.65
945.13	211.58
945.43	211.50
945.73	211.47
946.03	211.47
946.33	211.48
946.62	211.38
946.92	211.34
947.22	211.38
947.52	211.45
947.82	211.47
948.11	211.35
948.41	211.20
948.71	211.07
949.01	211.09
949.31	211.06
949.60	211.07
949.90	211.15
950.20	211.15
950.50	211.13
950.79	210.98
951.09	211.06
951.39	211.05
951.69	211.00
951.98	211.11
952.28	211.07
952.58	211.03
952.87	211.10
953.17	211.19
953.47	211.09
953.76	211.04
954.06	211.05
954.36	211.02
954.66	211.03
954.95	211.11
955.25	211.12
955.55	211.19
955.84	211.09
956.14	211.10
956.44	211.15
956.73	211.11
957.03	211.14
957.32	211.13
957.62	211.09
957.92	211.23
958.21	211.20
958.51	211.63
958.81	211.66
959.10	211.65
959.40	211.65
959.69	211.72
959.99	211.85
960.29	211.84
960.58	211.87
960.88	212.02
961.17	211.96
961.47	211.93
961.76	211.85
962.06	211.97
962.36	211.89
962.65	211.93
962.95	211.96
963.24	211.93
963.54	211.89
963.83	211.90
964.13	211.83
964.42	211.72
964.72	211.41
965.01	211.35
965.31	211.37
965.60	211.29
965.90	211.54
966.19	211.40
966.49	211.39
966.78	211.39
967.08	211.38
967.37	211.39
967.67	211.36
967.96	211.50
968.26	211.42
968.55	211.50
968.85	211.49
969.14	211.55
969.43	211.62
969.73	211.68
970.02	211.70
970.32	211.69
970.61	211.69
970.91	211.65
971.20	211.69
971.49	211.67
971.79	211.82
972.08	211.53
972.38	211.61
972.67	211.61
972.96	211.67
973.26	211.63
973.55	211.78
973.85	211.82
974.14	211.77
974.43	211.80
974.73	211.82
975.02	211.77
975.31	211.75
975.61	211.79
975.90	211.74
976.19	211.75
976.49	211.84
976.78	211.82
977.07	211.82
977.37	211.79
977.66	211.77
977.95	211.65
978.24	211.70
978.54	211.73
978.83	211.69
979.12	211.67
979.42	211.68
979.71	211.53
980.00	211.56
980.29	211.58
980.59	211.57
980.88	211.63
981.17	211.63
981.46	211.60
981.76	211.51
982.05	211.63
982.34	211.61
982.63	211.59
982.93	211.55
983.22	211.62
983.51	211.70
983.80	211.81
984.09	211.91
984.39	211.90
984.68	211.90
984.97	212.00
985.26	212.01
985.55	212.05
985.85	212.09
986.14	212.08
986.43	212.17
986.72	212.08
987.01	211.96
987.30	211.93
987.59	211.91
987.89	211.97
988.18	211.86
988.47	211.84
988.76	211.80
989.05	211.85
989.34	211.74
989.63	211.76
989.92	211.70
990.22	211.55
990.51	211.56
990.80	211.49
991.09	211.42
991.38	211.44
991.67	211.33
991.96	211.25
992.25	211.23
992.54	211.07
992.83	211.18
993.12	211.17
993.41	211.23
993.70	211.40
993.99	211.42
994.28	211.44
994.58	211.52
994.87	211.48
995.16	211.40
995.45	211.36
995.74	211.18
996.03	211.20
996.32	211.40
996.61	211.38
996.90	211.41
997.19	211.35
997.48	211.25
997.77	211.25
998.06	211.27
998.34	211.22
998.63	211.23
998.92	211.23
999.21	211.23
999.50	211.23
999.79	211.10
1000.08	211.07
1000.37	211.07
1000.66	210.98
1000.95	211.06
1001.24	211.16
1001.53	211.24
1001.82	211.28
1002.11	211.22
1002.40	211.12
1002.68	211.18
1002.97	211.41
1003.26	211.43
1003.55	211.47
1003.84	211.51
1004.13	211.60
1004.42	211.55
1004.71	211.51
1004.99	211.48
1005.28	211.61
1005.57	211.62
1005.86	211.58
1006.15	211.51
1006.44	211.41
1006.72	211.43
1007.01	211.32
1007.30	211.25
1007.59	211.15
1007.88	211.13
1008.17	211.10
1008.45	211.10
1008.74	211.01
1009.03	210.83
1009.32	210.81
1009.60	210.84
1009.89	210.84
1010.18	210.75
1010.47	210.74
1010.76	210.78
1011.04	210.76
1011.33	210.73
1011.62	210.73
1011.91	210.75
1012.19	210.76
1012.48	210.83
1012.77	210.80
1013.05	211.01
1013.34	211.05
1013.63	211.10
1013.92	211.17
1014.20	211.21
1014.49	211.20
1014.78	211.25
1015.06	211.17
1015.35	211.15
1015.64	211.17
1015.92	211.21
1016.21	211.17
1016.50	211.18
1016.78	211.22
1017.07	211.26
1017.36	211.25
1017.64	211.22
1017.93	211.22
1018.22	211.23
1018.50	211.21
1018.79	211.24
1019.08	211.02
1019.36	211.06
1019.65	210.96
1019.93	211.10
1020.22	211.16
1020.51	211.33
1020.79	211.30
1021.08	210.40
1021.36	210.45
1021.65	210.65
1021.94	209.85
1022.22	211.65
1022.51	209.30
1022.79	213.90
1023.08	211.75
1023.36	215.45
1023.65	210.85
>>>>>End Processed Spectral Data<<<<<
