SpectraSuite Data File
++++++++++++++++++++++++++++++++++++
Date: Mon Feb 25 17:00:50 EST 2013
User: group
Dark Spectrum Present: No
Reference Spectrum Present: No
Number of Sampled Component Spectra: 1
Spectrometers: USB2E7196
Integration Time (usec): 104000 (USB2E7196)
Spectra Averaged: 20 (USB2E7196)
Boxcar Smoothing: 10 (USB2E7196)
Correct for Electrical Dark: No (USB2E7196)
Strobe/Lamp Enabled: No (USB2E7196)
Correct for Detector Non-linearity: No (USB2E7196)
Correct for Stray Light: No (USB2E7196)
Number of Pixels in Processed Spectrum: 2048
>>>>>Begin Processed Spectral Data<<<<<
339.09	0.00
339.48	199.55
339.86	199.60
340.24	201.40
340.63	201.65
341.01	208.50
341.39	205.70
341.78	206.05
342.16	207.85
342.54	207.50
342.93	197.68
343.31	207.64
343.69	208.15
344.07	208.57
344.46	209.01
344.84	209.47
345.22	209.54
345.60	209.79
345.99	210.02
346.37	210.20
346.75	210.29
347.13	210.30
347.52	210.37
347.90	210.61
348.28	210.62
348.66	210.75
349.05	210.63
349.43	210.70
349.81	210.75
350.19	210.76
350.57	210.72
350.96	210.77
351.34	210.86
351.72	210.90
352.10	211.01
352.48	211.11
352.87	211.14
353.25	211.20
353.63	211.25
354.01	211.31
354.39	211.42
354.77	211.60
355.15	211.74
355.54	211.78
355.92	211.70
356.30	211.81
356.68	212.08
357.06	212.22
357.44	212.25
357.82	212.31
358.20	212.42
358.58	212.60
358.97	212.68
359.35	212.83
359.73	212.95
360.11	213.03
360.49	213.03
360.87	213.14
361.25	213.29
361.63	213.50
362.01	213.54
362.39	213.54
362.77	213.57
363.15	213.64
363.53	213.78
363.91	213.81
364.29	213.85
364.67	213.64
365.05	213.67
365.43	213.75
365.81	213.85
366.19	213.98
366.57	214.11
366.95	214.10
367.33	214.06
367.71	214.09
368.09	214.20
368.47	214.26
368.85	214.20
369.23	214.20
369.61	214.05
369.99	214.25
370.37	214.23
370.75	214.39
371.13	214.25
371.51	214.15
371.89	214.17
372.27	214.15
372.65	214.08
373.03	214.06
373.41	213.99
373.78	213.96
374.16	213.88
374.54	213.76
374.92	213.79
375.30	213.78
375.68	213.65
376.06	213.60
376.44	213.45
376.82	213.42
377.19	213.36
377.57	213.32
377.95	213.07
378.33	213.00
378.71	212.78
379.09	212.76
379.47	212.74
379.84	212.63
380.22	212.56
380.60	212.47
380.98	212.42
381.36	212.41
381.73	212.38
382.11	212.31
382.49	212.20
382.87	212.06
383.25	211.99
383.62	212.32
384.00	212.25
384.38	212.30
384.76	212.31
385.13	212.45
385.51	212.35
385.89	212.30
386.27	212.29
386.64	212.34
387.02	212.28
387.40	212.18
387.78	212.20
388.15	212.09
388.53	212.02
388.91	211.98
389.29	211.87
389.66	211.81
390.04	211.79
390.42	211.85
390.79	211.80
391.17	211.77
391.55	211.38
391.92	211.39
392.30	211.36
392.68	211.21
393.05	211.15
393.43	211.15
393.81	211.17
394.18	211.06
394.56	210.97
394.94	211.10
395.31	211.10
395.69	211.25
396.06	211.38
396.44	211.36
396.82	211.28
397.19	211.45
397.57	211.48
397.95	211.46
398.32	211.27
398.70	211.43
399.07	211.44
399.45	211.50
399.82	211.47
400.20	211.40
400.58	211.52
400.95	211.38
401.33	211.52
401.70	211.75
402.08	211.85
402.45	211.86
402.83	211.95
403.20	212.10
403.58	212.07
403.95	212.24
404.33	212.50
404.71	212.70
405.08	212.99
405.46	213.05
405.83	213.27
406.21	213.58
406.58	213.74
406.96	213.96
407.33	214.20
407.70	214.47
408.08	215.09
408.45	215.40
408.83	215.85
409.20	216.13
409.58	216.31
409.95	216.75
410.33	217.22
410.70	217.63
411.08	218.08
411.45	218.60
411.82	219.07
412.20	219.66
412.57	220.47
412.95	220.88
413.32	221.75
413.69	222.50
414.07	223.25
414.44	224.19
414.82	225.14
415.19	226.27
415.56	227.41
415.94	228.39
416.31	229.78
416.68	231.05
417.06	232.67
417.43	234.25
417.81	236.03
418.18	237.83
418.55	239.70
418.93	241.71
419.30	243.73
419.67	245.95
420.04	248.24
420.42	250.54
420.79	253.39
421.16	256.11
421.54	259.14
421.91	262.14
422.28	265.21
422.66	268.56
423.03	271.90
423.40	275.28
423.77	278.90
424.15	282.46
424.52	286.30
424.89	290.40
425.26	294.42
425.64	298.23
426.01	302.46
426.38	306.88
426.75	311.51
427.13	316.21
427.50	321.10
427.87	326.12
428.24	331.27
428.61	336.17
428.99	341.59
429.36	347.39
429.73	353.31
430.10	359.21
430.47	365.21
430.85	371.33
431.22	377.89
431.59	385.09
431.96	391.76
432.33	399.22
432.70	406.40
433.08	414.75
433.45	422.74
433.82	430.80
434.19	439.67
434.56	448.44
434.93	456.96
435.30	465.40
435.68	474.87
436.05	484.20
436.42	493.47
436.79	502.04
437.16	511.19
437.53	520.83
437.90	530.37
438.27	539.92
438.64	549.83
439.01	559.23
439.38	567.26
439.75	575.52
440.13	584.68
440.50	593.37
440.87	600.54
441.24	608.20
441.61	616.43
441.98	622.65
442.35	629.81
442.72	637.18
443.09	644.24
443.46	648.63
443.83	651.88
444.20	654.90
444.57	658.75
444.94	661.06
445.31	663.42
445.68	665.95
446.05	667.35
446.42	667.13
446.79	666.60
447.16	666.20
447.53	666.02
447.90	663.16
448.27	660.31
448.64	656.23
449.01	653.17
449.37	647.46
449.74	642.00
450.11	635.37
450.48	627.90
450.85	620.35
451.22	613.86
451.59	607.76
451.96	601.84
452.33	593.94
452.70	586.65
453.07	577.80
453.43	568.54
453.80	559.85
454.17	551.53
454.54	543.63
454.91	535.06
455.28	526.66
455.65	518.96
456.02	511.46
456.38	504.80
456.75	496.51
457.12	489.57
457.49	482.75
457.86	476.07
458.23	470.35
458.59	464.16
458.96	458.01
459.33	452.28
459.70	446.58
460.07	442.14
460.43	436.97
460.80	432.24
461.17	428.11
461.54	423.67
461.91	419.51
462.27	415.18
462.64	411.57
463.01	407.43
463.38	403.59
463.74	399.41
464.11	395.91
464.48	392.88
464.85	389.58
465.21	387.14
465.58	384.42
465.95	381.10
466.32	378.44
466.68	375.59
467.05	372.91
467.42	370.23
467.78	367.36
468.15	364.68
468.52	362.62
468.88	359.91
469.25	357.51
469.62	355.46
469.98	353.37
470.35	351.40
470.72	349.59
471.08	347.52
471.45	345.86
471.82	344.29
472.18	342.46
472.55	341.10
472.92	339.30
473.28	337.81
473.65	336.45
474.02	335.02
474.38	333.99
474.75	333.11
475.11	332.03
475.48	331.12
475.85	330.36
476.21	329.53
476.58	328.86
476.94	328.45
477.31	327.95
477.67	327.45
478.04	326.98
478.41	326.72
478.77	326.77
479.14	326.33
479.50	326.00
479.87	325.98
480.23	325.91
480.60	325.84
480.96	325.67
481.33	325.86
481.69	325.88
482.06	325.96
482.42	325.92
482.79	326.08
483.15	326.47
483.52	326.85
483.88	327.15
484.25	327.59
484.61	327.88
484.98	328.13
485.34	328.84
485.71	329.56
486.07	330.27
486.44	330.58
486.80	331.43
487.17	332.20
487.53	333.16
487.90	334.13
488.26	335.39
488.62	336.74
488.99	337.83
489.35	339.08
489.72	340.38
490.08	341.79
490.44	343.15
490.81	344.47
491.17	345.87
491.54	347.43
491.90	349.08
492.26	350.77
492.63	352.64
492.99	354.33
493.36	356.18
493.72	358.07
494.08	360.10
494.45	362.26
494.81	364.54
495.17	366.57
495.54	368.90
495.90	371.08
496.26	373.29
496.63	375.70
496.99	378.03
497.35	380.53
497.72	383.10
498.08	385.58
498.44	388.09
498.80	390.81
499.17	393.50
499.53	396.01
499.89	398.79
500.26	401.41
500.62	403.97
500.98	406.65
501.34	409.27
501.71	411.97
502.07	414.39
502.43	416.92
502.79	419.53
503.16	422.01
503.52	424.51
503.88	426.95
504.24	429.34
504.60	431.78
504.97	434.15
505.33	436.40
505.69	438.90
506.05	441.19
506.41	443.18
506.78	445.17
507.14	447.19
507.50	449.07
507.86	451.02
508.22	452.99
508.59	454.63
508.95	456.38
509.31	458.11
509.67	459.81
510.03	461.32
510.39	462.91
510.75	464.42
511.12	465.80
511.48	467.25
511.84	468.55
512.20	469.84
512.56	471.03
512.92	472.15
513.28	473.15
513.64	474.19
514.00	475.51
514.37	476.52
514.73	477.48
515.09	478.41
515.45	479.18
515.81	479.85
516.17	480.54
516.53	481.14
516.89	481.53
517.25	481.99
517.61	482.54
517.97	482.78
518.33	483.03
518.69	483.37
519.05	483.57
519.41	483.76
519.77	484.16
520.13	484.25
520.49	484.28
520.85	484.26
521.21	484.45
521.57	484.33
521.93	484.28
522.29	484.35
522.65	484.34
523.01	484.48
523.37	484.45
523.73	484.70
524.09	484.76
524.45	484.92
524.81	485.10
525.17	485.41
525.53	485.67
525.89	485.95
526.25	486.18
526.61	486.41
526.97	486.70
527.33	487.02
527.68	487.80
528.04	488.28
528.40	488.91
528.76	489.34
529.12	489.96
529.48	490.70
529.84	491.38
530.20	492.20
530.56	492.88
530.91	493.90
531.27	494.83
531.63	495.82
531.99	496.92
532.35	497.96
532.71	498.86
533.07	499.98
533.42	501.60
533.78	502.80
534.14	504.12
534.50	505.27
534.86	506.56
535.21	507.63
535.57	509.28
535.93	510.67
536.29	512.34
536.65	513.85
537.00	515.40
537.36	516.92
537.72	518.40
538.08	520.20
538.44	521.81
538.79	523.51
539.15	525.19
539.51	526.93
539.87	528.96
540.22	530.91
540.58	533.06
540.94	534.80
541.29	536.94
541.65	538.98
542.01	541.38
542.37	543.56
542.72	545.79
543.08	547.84
543.44	550.22
543.79	552.26
544.15	554.66
544.51	557.32
544.87	559.99
545.22	562.71
545.58	565.16
545.94	567.64
546.29	570.09
546.65	572.68
547.01	575.16
547.36	577.70
547.72	580.30
548.07	582.98
548.43	585.38
548.79	587.88
549.14	590.40
549.50	593.09
549.86	595.65
550.21	598.38
550.57	601.06
550.92	603.75
551.28	606.69
551.64	609.30
551.99	611.83
552.35	614.20
552.70	616.74
553.06	619.37
553.41	622.04
553.77	624.87
554.13	627.60
554.48	630.47
554.84	633.36
555.19	635.98
555.55	638.58
555.90	641.27
556.26	643.77
556.61	646.21
556.97	648.41
557.32	650.96
557.68	653.07
558.03	655.45
558.39	657.52
558.74	659.84
559.10	662.21
559.45	664.50
559.81	667.05
560.16	669.16
560.52	671.47
560.87	673.82
561.23	675.79
561.58	678.13
561.94	680.13
562.29	681.88
562.64	684.05
563.00	686.12
563.35	688.06
563.71	690.40
564.06	692.73
564.42	694.92
564.77	696.96
565.12	699.40
565.48	701.86
565.83	704.12
566.19	706.33
566.54	708.21
566.89	710.23
567.25	712.28
567.60	714.51
567.96	716.62
568.31	718.63
568.66	720.56
569.02	722.06
569.37	723.60
569.72	725.14
570.08	726.51
570.43	727.99
570.78	729.39
571.14	730.29
571.49	731.20
571.84	732.45
572.20	733.60
572.55	734.46
572.90	734.73
573.26	735.46
573.61	735.70
573.96	736.33
574.31	736.61
574.67	736.70
575.02	736.78
575.37	736.76
575.72	736.65
576.08	736.67
576.43	736.79
576.78	737.05
577.13	737.22
577.49	737.32
577.84	737.18
578.19	737.23
578.54	737.58
578.90	738.05
579.25	737.95
579.60	737.55
579.95	737.27
580.30	737.25
580.66	737.12
581.01	736.97
581.36	736.65
581.71	736.37
582.06	736.27
582.42	735.97
582.77	735.48
583.12	735.17
583.47	734.94
583.82	734.40
584.17	733.90
584.53	733.54
584.88	733.05
585.23	732.64
585.58	732.07
585.93	731.30
586.28	730.52
586.63	729.88
586.98	729.48
587.34	729.00
587.69	728.40
588.04	727.82
588.39	727.31
588.74	726.65
589.09	726.17
589.44	725.26
589.79	724.57
590.14	723.89
590.49	723.00
590.84	721.94
591.19	721.37
591.54	720.42
591.89	719.14
592.25	718.25
592.60	717.11
592.95	716.00
593.30	714.79
593.65	713.46
594.00	712.16
594.35	711.77
594.70	710.38
595.05	709.29
595.40	707.83
595.75	706.34
596.10	705.07
596.45	703.60
596.80	702.47
597.15	701.29
597.50	699.89
597.85	698.73
598.19	697.46
598.54	695.98
598.89	694.81
599.24	693.85
599.59	692.50
599.94	691.20
600.29	689.92
600.64	688.57
600.99	687.07
601.34	685.88
601.69	683.57
602.04	682.10
602.39	680.54
602.74	679.32
603.08	677.99
603.43	676.95
603.78	675.57
604.13	674.20
604.48	672.68
604.83	671.60
605.18	670.30
605.53	668.90
605.87	667.39
606.22	665.76
606.57	664.34
606.92	662.67
607.27	661.05
607.62	659.46
607.96	658.10
608.31	656.92
608.66	655.30
609.01	653.55
609.36	651.97
609.70	650.29
610.05	648.46
610.40	646.96
610.75	644.86
611.10	643.25
611.44	641.10
611.79	639.09
612.14	637.08
612.49	634.91
612.83	633.04
613.18	631.21
613.53	629.17
613.88	626.99
614.22	625.12
614.57	623.07
614.92	621.07
615.27	618.99
615.61	616.80
615.96	614.88
616.31	613.01
616.65	611.11
617.00	608.91
617.35	606.87
617.70	604.62
618.04	602.62
618.39	600.28
618.74	598.31
619.08	596.26
619.43	594.28
619.78	592.25
620.12	590.26
620.47	588.20
620.82	586.05
621.16	583.77
621.51	581.74
621.85	579.77
622.20	577.59
622.55	575.47
622.89	573.42
623.24	571.20
623.59	569.09
623.93	567.11
624.28	565.36
624.62	563.55
624.97	561.55
625.32	559.36
625.66	557.53
626.01	555.50
626.35	553.55
626.70	551.20
627.04	549.38
627.39	547.32
627.73	545.43
628.08	543.82
628.43	541.94
628.77	539.88
629.12	537.84
629.46	536.02
629.81	534.15
630.15	532.05
630.50	530.12
630.84	528.14
631.19	526.11
631.53	524.13
631.88	521.87
632.22	519.76
632.57	518.01
632.91	516.04
633.26	514.11
633.60	512.08
633.95	510.35
634.29	508.20
634.64	506.36
634.98	504.24
635.32	502.31
635.67	500.72
636.01	498.95
636.36	497.10
636.70	495.49
637.05	493.52
637.39	491.88
637.73	490.15
638.08	488.67
638.42	486.98
638.77	485.28
639.11	483.70
639.45	482.10
639.80	480.17
640.14	478.35
640.49	476.53
640.83	474.88
641.17	473.11
641.52	471.38
641.86	469.50
642.20	467.72
642.55	465.65
642.89	463.60
643.23	461.73
643.58	460.06
643.92	458.04
644.26	456.39
644.61	454.70
644.95	452.79
645.29	450.89
645.64	449.15
645.98	447.33
646.32	445.50
646.66	443.66
647.01	442.00
647.35	440.35
647.69	438.69
648.04	436.89
648.38	435.06
648.72	433.29
649.06	431.55
649.41	429.85
649.75	428.31
650.09	426.70
650.43	424.97
650.78	423.20
651.12	421.29
651.46	419.58
651.80	417.92
652.14	416.28
652.49	414.61
652.83	412.83
653.17	411.01
653.51	409.35
653.85	407.80
654.20	406.24
654.54	404.38
654.88	402.71
655.22	401.12
655.56	399.60
655.90	397.96
656.25	396.25
656.59	394.69
656.93	393.09
657.27	391.60
657.61	389.80
657.95	388.25
658.29	386.88
658.64	385.36
658.98	383.65
659.32	382.00
659.66	380.32
660.00	378.77
660.34	377.28
660.68	375.73
661.02	374.07
661.36	372.55
661.70	371.21
662.05	369.84
662.39	368.50
662.73	367.14
663.07	365.93
663.41	364.71
663.75	363.16
664.09	361.73
664.43	360.22
664.77	359.05
665.11	357.53
665.45	356.19
665.79	354.90
666.13	353.51
666.47	352.30
666.81	350.99
667.15	349.62
667.49	348.39
667.83	347.30
668.17	346.09
668.51	344.83
668.85	343.67
669.19	342.54
669.53	341.11
669.87	339.76
670.21	338.62
670.55	337.40
670.89	336.54
671.23	335.44
671.57	334.33
671.91	333.24
672.25	332.24
672.58	331.27
672.92	330.17
673.26	329.09
673.60	328.02
673.94	327.07
674.28	326.15
674.62	325.30
674.96	324.14
675.30	323.23
675.64	322.28
675.97	321.28
676.31	320.22
676.65	319.48
676.99	318.77
677.33	317.70
677.67	316.72
678.01	315.66
678.34	314.74
678.68	313.79
679.02	312.84
679.36	312.01
679.70	311.12
680.04	310.15
680.37	309.41
680.71	308.50
681.05	307.63
681.39	306.75
681.73	305.82
682.06	304.95
682.40	304.16
682.74	303.35
683.08	302.54
683.42	301.78
683.75	300.92
684.09	299.97
684.43	299.13
684.77	298.32
685.10	297.39
685.44	296.46
685.78	295.74
686.12	294.89
686.45	294.00
686.79	293.08
687.13	292.40
687.46	291.58
687.80	290.93
688.14	290.08
688.48	289.37
688.81	288.60
689.15	287.90
689.49	287.05
689.82	286.28
690.16	285.30
690.50	284.36
690.83	283.58
691.17	282.75
691.51	281.98
691.84	281.31
692.18	280.64
692.52	280.01
692.85	279.32
693.19	278.81
693.52	278.21
693.86	277.51
694.20	276.82
694.53	276.14
694.87	275.42
695.21	274.76
695.54	274.02
695.88	273.26
696.21	272.49
696.55	271.81
696.88	271.10
697.22	270.60
697.56	270.16
697.89	269.47
698.23	268.94
698.56	268.31
698.90	267.74
699.23	267.10
699.57	266.53
699.90	265.90
700.24	265.28
700.58	264.73
700.91	264.17
701.25	263.71
701.58	263.30
701.92	262.79
702.25	262.26
702.59	261.72
702.92	261.26
703.26	260.85
703.59	260.30
703.93	260.15
704.26	259.72
704.60	259.15
704.93	258.70
705.26	258.16
705.60	257.76
705.93	257.19
706.27	256.84
706.60	256.48
706.94	256.18
707.27	255.55
707.61	255.05
707.94	254.66
708.27	254.06
708.61	253.44
708.94	252.92
709.28	252.47
709.61	252.05
709.94	251.62
710.28	251.13
710.61	250.81
710.95	250.05
711.28	249.83
711.61	249.43
711.95	249.10
712.28	248.62
712.61	248.25
712.95	248.05
713.28	247.78
713.61	247.32
713.95	246.85
714.28	246.59
714.61	246.15
714.95	245.73
715.28	245.41
715.61	245.08
715.95	244.75
716.28	244.33
716.61	244.00
716.95	243.57
717.28	243.31
717.61	242.95
717.94	242.68
718.28	242.12
718.61	241.84
718.94	241.43
719.27	241.18
719.61	240.82
719.94	240.45
720.27	239.94
720.60	239.60
720.94	239.25
721.27	239.04
721.60	238.83
721.93	238.54
722.27	238.36
722.60	238.10
722.93	237.92
723.26	237.80
723.59	237.49
723.93	237.36
724.26	237.09
724.59	236.82
724.92	236.59
725.25	236.44
725.59	236.16
725.92	235.97
726.25	235.73
726.58	235.55
726.91	235.32
727.24	235.21
727.57	235.05
727.91	234.77
728.24	234.53
728.57	234.26
728.90	234.14
729.23	233.78
729.56	233.71
729.89	233.46
730.22	233.23
730.55	232.95
730.89	232.66
731.22	232.41
731.55	232.14
731.88	231.85
732.21	231.57
732.54	231.40
732.87	231.22
733.20	231.08
733.53	230.89
733.86	230.69
734.19	230.42
734.52	230.28
734.85	230.41
735.18	230.16
735.51	230.15
735.84	229.92
736.17	229.90
736.50	229.56
736.83	229.84
737.16	229.63
737.49	229.48
737.82	229.30
738.15	229.23
738.48	229.18
738.81	229.00
739.14	228.78
739.47	228.58
739.80	228.33
740.13	228.18
740.46	227.99
740.79	227.80
741.12	227.62
741.45	227.35
741.78	226.95
742.11	226.88
742.44	226.60
742.77	226.46
743.10	226.21
743.43	226.05
743.75	225.48
744.08	225.74
744.41	225.62
744.74	225.44
745.07	225.20
745.40	224.99
745.73	225.07
746.06	224.89
746.39	224.84
746.71	224.73
747.04	224.51
747.37	224.33
747.70	224.24
748.03	224.16
748.36	224.08
748.68	223.89
749.01	223.68
749.34	223.52
749.67	223.41
750.00	223.27
750.33	223.47
750.65	223.37
750.98	222.88
751.31	222.72
751.64	222.71
751.97	222.78
752.29	222.70
752.62	222.37
752.95	222.23
753.28	222.00
753.60	221.86
753.93	221.93
754.26	221.88
754.59	221.67
754.91	221.50
755.24	221.37
755.57	221.30
755.90	221.17
756.22	221.08
756.55	220.94
756.88	220.78
757.20	220.40
757.53	220.18
757.86	220.05
758.19	220.06
758.51	219.86
758.84	219.49
759.17	219.46
759.49	219.39
759.82	219.57
760.15	219.52
760.47	219.43
760.80	219.14
761.13	219.13
761.45	218.98
761.78	218.92
762.11	218.82
762.43	218.71
762.76	218.59
763.08	218.53
763.41	218.49
763.74	218.45
764.06	218.36
764.39	218.38
764.71	218.26
765.04	218.10
765.37	218.05
765.69	217.99
766.02	217.82
766.34	217.76
766.67	217.52
767.00	217.51
767.32	217.62
767.65	217.78
767.97	217.60
768.30	217.59
768.62	217.56
768.95	217.52
769.27	217.51
769.60	217.48
769.92	217.38
770.25	217.21
770.57	217.10
770.90	217.00
771.22	216.93
771.55	216.87
771.87	216.83
772.20	216.75
772.52	216.99
772.85	217.38
773.17	217.27
773.50	217.16
773.82	217.05
774.15	216.80
774.47	216.52
774.80	216.47
775.12	216.43
775.45	216.36
775.77	216.33
776.09	216.31
776.42	216.31
776.74	216.41
777.07	216.41
777.39	216.39
777.72	216.36
778.04	216.34
778.36	216.33
778.69	216.34
779.01	216.30
779.33	216.04
779.66	215.57
779.98	215.51
780.31	215.50
780.63	215.56
780.95	215.65
781.28	215.62
781.60	215.56
781.92	215.48
782.25	215.39
782.57	215.30
782.89	215.22
783.22	215.17
783.54	214.98
783.86	214.95
784.19	214.84
784.51	214.91
784.83	214.84
785.16	214.78
785.48	214.80
785.80	214.79
786.12	214.80
786.45	214.79
786.77	214.88
787.09	214.81
787.42	214.68
787.74	214.65
788.06	214.65
788.38	214.60
788.71	214.56
789.03	214.60
789.35	214.65
789.67	214.52
789.99	214.53
790.32	214.50
790.64	214.51
790.96	214.81
791.28	214.67
791.61	214.59
791.93	214.60
792.25	214.50
792.57	214.73
792.89	214.58
793.21	214.63
793.54	214.49
793.86	214.50
794.18	214.56
794.50	214.45
794.82	214.45
795.14	214.48
795.47	214.51
795.79	214.56
796.11	214.40
796.43	214.45
796.75	214.41
797.07	214.44
797.39	214.38
797.71	214.07
798.04	214.10
798.36	214.14
798.68	214.14
799.00	214.19
799.32	214.04
799.64	214.13
799.96	214.02
800.28	214.13
800.60	214.07
800.92	213.96
801.24	213.97
801.56	213.93
801.89	213.88
802.21	213.96
802.53	213.82
802.85	213.90
803.17	214.08
803.49	214.04
803.81	213.95
804.13	213.97
804.45	213.96
804.77	213.96
805.09	213.86
805.41	213.72
805.73	213.55
806.05	213.48
806.37	213.37
806.69	213.35
807.01	213.28
807.33	213.28
807.65	213.19
807.97	213.35
808.28	213.24
808.60	213.17
808.92	213.03
809.24	213.21
809.56	213.08
809.88	212.87
810.20	212.85
810.52	212.89
810.84	212.79
811.16	212.70
811.48	212.56
811.80	212.68
812.12	212.72
812.43	212.80
812.75	212.73
813.07	212.67
813.39	212.65
813.71	212.54
814.03	212.46
814.35	212.43
814.67	212.23
814.98	212.25
815.30	212.26
815.62	212.24
815.94	211.95
816.26	212.02
816.58	211.94
816.89	211.94
817.21	211.83
817.53	211.83
817.85	211.89
818.17	211.92
818.48	211.80
818.80	211.87
819.12	211.86
819.44	211.77
819.76	211.72
820.07	211.66
820.39	211.74
820.71	211.75
821.03	211.83
821.34	211.80
821.66	211.84
821.98	211.82
822.30	211.80
822.61	212.04
822.93	211.92
823.25	211.90
823.57	211.85
823.88	211.90
824.20	211.90
824.52	211.92
824.83	211.92
825.15	211.86
825.47	211.80
825.79	211.79
826.10	211.80
826.42	211.76
826.74	211.83
827.05	211.77
827.37	211.83
827.69	211.79
828.00	211.81
828.32	211.78
828.64	211.77
828.95	211.95
829.27	211.92
829.58	212.04
829.90	212.13
830.22	212.15
830.53	212.15
830.85	212.06
831.17	212.00
831.48	211.96
831.80	211.96
832.11	211.96
832.43	211.90
832.75	211.90
833.06	212.19
833.38	212.05
833.69	212.09
834.01	212.10
834.32	212.07
834.64	212.03
834.96	212.05
835.27	212.12
835.59	211.95
835.90	211.91
836.22	211.87
836.53	211.79
836.85	211.74
837.16	212.08
837.48	212.18
837.79	212.32
838.11	212.35
838.42	212.42
838.74	212.48
839.05	212.46
839.37	212.51
839.68	212.26
840.00	212.32
840.31	212.38
840.63	212.31
840.94	212.26
841.26	212.21
841.57	212.21
841.88	212.18
842.20	212.16
842.51	212.07
842.83	212.05
843.14	212.33
843.46	212.35
843.77	212.17
844.08	212.10
844.40	211.99
844.71	211.93
845.03	211.87
845.34	211.80
845.65	211.78
845.97	211.75
846.28	211.78
846.60	211.80
846.91	211.68
847.22	211.69
847.54	211.82
847.85	211.84
848.16	211.81
848.48	211.75
848.79	211.90
849.10	211.98
849.42	212.00
849.73	211.72
850.04	211.67
850.36	211.49
850.67	211.48
850.98	211.46
851.30	211.52
851.61	211.44
851.92	211.44
852.23	211.55
852.55	211.57
852.86	211.60
853.17	211.68
853.49	211.79
853.80	211.86
854.11	211.89
854.42	211.95
854.74	211.91
855.05	211.99
855.36	211.76
855.67	211.69
855.99	211.72
856.30	212.11
856.61	212.12
856.92	212.25
857.23	212.23
857.55	212.15
857.86	212.13
858.17	212.25
858.48	212.17
858.79	212.12
859.11	212.11
859.42	212.10
859.73	212.00
860.04	211.96
860.35	211.89
860.66	211.69
860.98	211.67
861.29	211.70
861.60	211.64
861.91	211.70
862.22	211.66
862.53	211.56
862.84	211.15
863.16	211.29
863.47	211.11
863.78	211.09
864.09	211.22
864.40	211.28
864.71	211.25
865.02	211.29
865.33	211.22
865.64	211.20
865.95	211.17
866.27	211.36
866.58	211.29
866.89	211.25
867.20	211.32
867.51	211.19
867.82	211.16
868.13	211.26
868.44	211.28
868.75	211.35
869.06	211.37
869.37	211.48
869.68	211.32
869.99	211.35
870.30	211.35
870.61	211.36
870.92	211.25
871.23	211.25
871.54	211.31
871.85	211.40
872.16	211.41
872.47	211.39
872.78	211.18
873.09	211.18
873.40	211.15
873.71	211.11
874.02	211.19
874.33	211.13
874.64	211.04
874.95	211.06
875.26	210.97
875.56	210.90
875.87	210.79
876.18	210.75
876.49	211.14
876.80	211.16
877.11	211.00
877.42	211.05
877.73	211.02
878.04	211.00
878.35	210.97
878.66	211.00
878.96	210.99
879.27	211.00
879.58	211.00
879.89	211.00
880.20	211.16
880.51	211.18
880.82	211.25
881.12	211.30
881.43	211.22
881.74	211.15
882.05	211.20
882.36	211.27
882.67	211.38
882.97	211.02
883.28	210.97
883.59	211.05
883.90	211.15
884.21	211.25
884.51	211.13
884.82	211.11
885.13	211.12
885.44	211.13
885.74	211.10
886.05	211.11
886.36	211.16
886.67	211.05
886.98	211.15
887.28	211.19
887.59	211.22
887.90	211.19
888.20	211.20
888.51	211.31
888.82	211.25
889.13	211.22
889.43	211.41
889.74	211.46
890.05	211.47
890.35	211.34
890.66	211.27
890.97	211.29
891.28	211.22
891.58	211.17
891.89	211.13
892.20	211.07
892.50	211.15
892.81	211.11
893.12	211.09
893.42	210.88
893.73	210.86
894.04	210.80
894.34	210.90
894.65	210.91
894.95	210.81
895.26	210.84
895.57	211.03
895.87	210.81
896.18	210.90
896.48	210.88
896.79	210.91
897.10	210.94
897.40	211.05
897.71	211.16
898.01	211.23
898.32	211.34
898.63	211.40
898.93	211.36
899.24	211.43
899.54	211.47
899.85	211.50
900.15	211.55
900.46	211.54
900.76	211.59
901.07	211.64
901.38	211.65
901.68	211.72
901.99	211.48
902.29	211.48
902.60	211.40
902.90	211.39
903.21	211.35
903.51	211.26
903.82	211.24
904.12	211.22
904.43	211.19
904.73	211.15
905.03	211.16
905.34	211.46
905.64	211.40
905.95	211.36
906.25	211.39
906.56	211.35
906.86	211.40
907.17	211.33
907.47	211.38
907.77	211.31
908.08	211.28
908.38	211.33
908.69	211.33
908.99	211.41
909.30	211.44
909.60	211.51
909.90	211.62
910.21	211.59
910.51	211.53
910.81	211.47
911.12	211.50
911.42	211.48
911.73	211.16
912.03	211.23
912.33	211.37
912.64	211.42
912.94	211.37
913.24	211.30
913.55	211.31
913.85	211.27
914.15	211.36
914.46	211.42
914.76	211.40
915.06	211.44
915.37	211.34
915.67	211.30
915.97	211.35
916.27	211.26
916.58	211.26
916.88	211.26
917.18	211.28
917.49	211.52
917.79	211.58
918.09	211.66
918.39	211.66
918.70	211.63
919.00	211.59
919.30	211.73
919.60	211.71
919.91	211.69
920.21	211.70
920.51	211.60
920.81	211.49
921.12	211.57
921.42	211.51
921.72	211.59
922.02	211.69
922.32	211.68
922.63	211.73
922.93	211.92
923.23	212.06
923.53	212.03
923.83	211.79
924.13	211.78
924.44	211.70
924.74	211.81
925.04	211.81
925.34	211.84
925.64	211.71
925.94	211.68
926.24	211.86
926.55	211.82
926.85	211.88
927.15	211.89
927.45	211.80
927.75	211.82
928.05	211.79
928.35	211.66
928.65	211.73
928.95	211.69
929.26	211.51
929.56	211.42
929.86	211.49
930.16	211.44
930.46	211.40
930.76	211.44
931.06	211.28
931.36	211.19
931.66	211.20
931.96	211.23
932.26	211.31
932.56	211.15
932.86	211.22
933.16	211.23
933.46	211.22
933.76	211.18
934.06	211.29
934.36	211.33
934.66	211.38
934.96	211.26
935.26	211.35
935.56	211.41
935.86	211.37
936.16	211.33
936.46	211.34
936.76	211.30
937.06	211.25
937.36	211.28
937.66	211.34
937.96	211.29
938.26	211.23
938.56	211.22
938.86	211.25
939.16	211.31
939.46	211.39
939.76	211.38
940.06	211.45
940.35	211.33
940.65	211.21
940.95	211.15
941.25	211.14
941.55	211.08
941.85	211.09
942.15	211.06
942.45	211.05
942.75	211.10
943.04	211.09
943.34	211.18
943.64	211.06
943.94	210.99
944.24	210.98
944.54	211.00
944.84	210.95
945.13	210.89
945.43	210.78
945.73	210.69
946.03	210.68
946.33	210.67
946.62	210.70
946.92	210.75
947.22	210.81
947.52	210.84
947.82	210.85
948.11	210.79
948.41	210.77
948.71	210.80
949.01	210.72
949.31	210.72
949.60	210.62
949.90	210.72
950.20	210.70
950.50	210.70
950.79	210.68
951.09	210.71
951.39	210.65
951.69	210.63
951.98	210.65
952.28	210.66
952.58	210.69
952.87	210.69
953.17	210.71
953.47	210.72
953.76	210.66
954.06	210.57
954.36	210.56
954.66	210.57
954.95	210.61
955.25	210.67
955.55	210.70
955.84	210.67
956.14	210.70
956.44	210.77
956.73	210.77
957.03	210.82
957.32	210.80
957.62	210.86
957.92	210.93
958.21	210.93
958.51	211.35
958.81	211.28
959.10	211.29
959.40	211.34
959.69	211.28
959.99	211.36
960.29	211.47
960.58	211.38
960.88	211.51
961.17	211.47
961.47	211.58
961.76	211.53
962.06	211.62
962.36	211.53
962.65	211.55
962.95	211.56
963.24	211.51
963.54	211.57
963.83	211.62
964.13	211.56
964.42	211.56
964.72	211.21
965.01	211.26
965.31	211.23
965.60	211.18
965.90	211.42
966.19	211.36
966.49	211.33
966.78	211.30
967.08	211.30
967.37	211.36
967.67	211.25
967.96	211.37
968.26	211.31
968.55	211.42
968.85	211.42
969.14	211.37
969.43	211.39
969.73	211.31
970.02	211.24
970.32	211.35
970.61	211.28
970.91	211.20
971.20	211.17
971.49	211.19
971.79	211.26
972.08	211.03
972.38	211.06
972.67	211.07
972.96	211.21
973.26	211.15
973.55	211.21
973.85	211.14
974.14	211.07
974.43	211.18
974.73	211.10
975.02	211.08
975.31	211.15
975.61	211.17
975.90	211.22
976.19	211.21
976.49	211.18
976.78	211.28
977.07	211.32
977.37	211.28
977.66	211.31
977.95	211.22
978.24	211.26
978.54	211.31
978.83	211.27
979.12	211.27
979.42	211.22
979.71	211.16
980.00	211.24
980.29	211.30
980.59	211.19
980.88	211.28
981.17	211.21
981.46	211.22
981.76	211.21
982.05	211.34
982.34	211.37
982.63	211.44
982.93	211.39
983.22	211.50
983.51	211.53
983.80	211.62
984.09	211.73
984.39	211.72
984.68	211.67
984.97	211.74
985.26	211.69
985.55	211.74
985.85	211.71
986.14	211.73
986.43	211.74
986.72	211.75
987.01	211.60
987.30	211.60
987.59	211.60
987.89	211.57
988.18	211.41
988.47	211.41
988.76	211.32
989.05	211.30
989.34	211.25
989.63	211.28
989.92	211.17
990.22	211.03
990.51	211.02
990.80	211.07
991.09	211.06
991.38	211.10
991.67	211.08
991.96	210.98
992.25	210.96
992.54	210.89
992.83	210.96
993.12	210.98
993.41	211.10
993.70	211.15
993.99	211.20
994.28	211.31
994.58	211.32
994.87	211.24
995.16	211.20
995.45	211.18
995.74	211.03
996.03	211.09
996.32	211.14
996.61	211.24
996.90	211.18
997.19	211.11
997.48	211.09
997.77	211.07
998.06	211.05
998.34	211.08
998.63	211.12
998.92	211.05
999.21	211.10
999.50	211.04
999.79	210.95
1000.08	210.99
1000.37	210.92
1000.66	210.88
1000.95	211.01
1001.24	211.01
1001.53	210.96
1001.82	211.03
1002.11	210.96
1002.40	211.03
1002.68	211.06
1002.97	211.27
1003.26	211.21
1003.55	211.17
1003.84	211.17
1004.13	211.45
1004.42	211.35
1004.71	211.30
1004.99	211.28
1005.28	211.30
1005.57	211.30
1005.86	211.29
1006.15	211.18
1006.44	211.14
1006.72	211.12
1007.01	211.01
1007.30	211.02
1007.59	211.05
1007.88	211.04
1008.17	211.02
1008.45	210.92
1008.74	210.71
1009.03	210.61
1009.32	210.65
1009.60	210.61
1009.89	210.57
1010.18	210.30
1010.47	210.32
1010.76	210.26
1011.04	210.26
1011.33	210.31
1011.62	210.30
1011.91	210.29
1012.19	210.34
1012.48	210.40
1012.77	210.45
1013.05	210.63
1013.34	210.58
1013.63	210.57
1013.92	210.63
1014.20	210.60
1014.49	210.69
1014.78	210.82
1015.06	210.66
1015.35	210.66
1015.64	210.73
1015.92	210.80
1016.21	210.85
1016.50	210.89
1016.78	210.98
1017.07	211.04
1017.36	210.93
1017.64	210.93
1017.93	210.99
1018.22	210.98
1018.50	210.92
1018.79	210.88
1019.08	210.77
1019.36	210.88
1019.65	210.80
1019.93	210.91
1020.22	211.02
1020.51	211.14
1020.79	211.06
1021.08	210.65
1021.36	210.05
1021.65	210.20
1021.94	211.50
1022.22	211.50
1022.51	209.20
1022.79	213.35
1023.08	212.00
1023.36	214.80
1023.65	210.50
>>>>>End Processed Spectral Data<<<<<
