SpectraSuite Data File
++++++++++++++++++++++++++++++++++++
Date: Mon Feb 25 17:04:24 EST 2013
User: group
Dark Spectrum Present: No
Reference Spectrum Present: No
Number of Sampled Component Spectra: 1
Spectrometers: USB2E7196
Integration Time (usec): 104000 (USB2E7196)
Spectra Averaged: 20 (USB2E7196)
Boxcar Smoothing: 10 (USB2E7196)
Correct for Electrical Dark: No (USB2E7196)
Strobe/Lamp Enabled: No (USB2E7196)
Correct for Detector Non-linearity: No (USB2E7196)
Correct for Stray Light: No (USB2E7196)
Number of Pixels in Processed Spectrum: 2048
>>>>>Begin Processed Spectral Data<<<<<
339.09	0.00
339.48	197.65
339.86	198.65
340.24	202.25
340.63	203.10
341.01	209.50
341.39	205.55
341.78	207.20
342.16	208.55
342.54	208.65
342.93	198.20
343.31	208.22
343.69	208.82
344.07	209.41
344.46	209.75
344.84	210.10
345.22	210.08
345.60	210.35
345.99	210.49
346.37	210.62
346.75	210.68
347.13	210.72
347.52	210.75
347.90	210.95
348.28	210.89
348.66	210.95
349.05	210.80
349.43	210.93
349.81	211.02
350.19	210.99
350.57	211.01
350.96	211.01
351.34	211.12
351.72	211.16
352.10	211.18
352.48	211.25
352.87	211.32
353.25	211.50
353.63	211.54
354.01	211.66
354.39	211.72
354.77	211.82
355.15	211.88
355.54	211.87
355.92	211.83
356.30	211.95
356.68	212.24
357.06	212.33
357.44	212.25
357.82	212.30
358.20	212.41
358.58	212.41
358.97	212.46
359.35	212.51
359.73	212.60
360.11	212.74
360.49	212.79
360.87	212.82
361.25	212.84
361.63	212.94
362.01	212.95
362.39	212.92
362.77	212.95
363.15	213.05
363.53	213.06
363.91	213.12
364.29	213.08
364.67	212.79
365.05	212.75
365.43	212.72
365.81	212.66
366.19	212.74
366.57	212.89
366.95	212.94
367.33	212.90
367.71	212.86
368.09	212.84
368.47	212.83
368.85	212.72
369.23	212.67
369.61	212.63
369.99	212.64
370.37	212.61
370.75	212.74
371.13	212.59
371.51	212.51
371.89	212.47
372.27	212.44
372.65	212.38
373.03	212.34
373.41	212.35
373.78	212.31
374.16	212.16
374.54	212.05
374.92	211.91
375.30	211.78
375.68	211.67
376.06	211.59
376.44	211.52
376.82	211.52
377.19	211.51
377.57	211.36
377.95	211.25
378.33	211.28
378.71	211.02
379.09	210.98
379.47	210.99
379.84	210.87
380.22	210.79
380.60	210.75
380.98	210.70
381.36	210.70
381.73	210.64
382.11	210.63
382.49	210.58
382.87	210.50
383.25	210.49
383.62	210.93
384.00	210.84
384.38	210.83
384.76	210.93
385.13	210.98
385.51	210.98
385.89	210.83
386.27	210.79
386.64	210.81
387.02	210.77
387.40	210.74
387.78	210.73
388.15	210.72
388.53	210.74
388.91	210.65
389.29	210.62
389.66	210.65
390.04	210.57
390.42	210.51
390.79	210.59
391.17	210.54
391.55	210.11
391.92	210.09
392.30	210.11
392.68	209.95
393.05	209.95
393.43	209.94
393.81	210.00
394.18	209.92
394.56	209.96
394.94	210.05
395.31	210.04
395.69	210.15
396.06	210.26
396.44	210.17
396.82	210.25
397.19	210.37
397.57	210.41
397.95	210.47
398.32	210.44
398.70	210.45
399.07	210.61
399.45	210.60
399.82	210.62
400.20	210.57
400.58	210.61
400.95	210.57
401.33	210.66
401.70	210.98
402.08	211.00
402.45	211.02
402.83	211.11
403.20	211.15
403.58	211.17
403.95	211.24
404.33	211.38
404.71	211.44
405.08	211.75
405.46	211.79
405.83	211.90
406.21	212.05
406.58	212.23
406.96	212.32
407.33	212.55
407.70	212.76
408.08	213.29
408.45	213.63
408.83	213.84
409.20	214.03
409.58	214.03
409.95	214.36
410.33	214.74
410.70	214.96
411.08	215.35
411.45	215.71
411.82	215.95
412.20	216.41
412.57	217.03
412.95	217.15
413.32	217.74
413.69	218.20
414.07	218.75
414.44	219.29
414.82	219.89
415.19	220.58
415.56	221.32
415.94	221.87
416.31	222.71
416.68	223.55
417.06	224.58
417.43	225.65
417.81	226.75
418.18	227.89
418.55	229.12
418.93	230.36
419.30	231.66
419.67	233.18
420.04	234.63
420.42	236.12
420.79	238.13
421.16	239.87
421.54	241.91
421.91	243.85
422.28	245.83
422.66	247.93
423.03	250.17
423.40	252.25
423.77	254.63
424.15	256.92
424.52	259.42
424.89	262.12
425.26	264.60
425.64	267.03
426.01	269.59
426.38	272.39
426.75	275.41
427.13	278.49
427.50	281.49
427.87	284.80
428.24	288.10
428.61	291.03
428.99	294.62
429.36	298.33
429.73	302.13
430.10	305.83
430.47	309.72
430.85	313.51
431.22	317.67
431.59	322.18
431.96	326.44
432.33	331.09
432.70	335.60
433.08	341.00
433.45	346.14
433.82	351.29
434.19	356.95
434.56	362.47
434.93	367.83
435.30	373.36
435.68	379.21
436.05	384.97
436.42	390.81
436.79	396.29
437.16	401.99
437.53	407.99
437.90	413.95
438.27	419.89
438.64	426.08
439.01	431.98
439.38	437.06
439.75	442.13
440.13	447.81
440.50	453.23
440.87	457.75
441.24	462.46
441.61	467.69
441.98	471.65
442.35	476.10
442.72	480.64
443.09	485.04
443.46	487.81
443.83	489.95
444.20	491.75
444.57	493.92
444.94	495.34
445.31	496.79
445.68	498.43
446.05	499.22
446.42	499.06
446.79	498.75
447.16	498.29
447.53	498.17
447.90	496.40
448.27	494.66
448.64	491.88
449.01	489.83
449.37	486.19
449.74	482.51
450.11	478.32
450.48	473.47
450.85	468.47
451.22	464.37
451.59	460.40
451.96	456.57
452.33	451.53
452.70	446.83
453.07	441.16
453.43	435.39
453.80	429.90
454.17	424.64
454.54	419.71
454.91	414.34
455.28	408.98
455.65	404.04
456.02	399.48
456.38	395.24
456.75	390.01
457.12	385.50
457.49	381.21
457.86	376.90
458.23	373.34
458.59	369.42
458.96	365.44
459.33	361.80
459.70	358.24
460.07	355.40
460.43	352.14
460.80	349.25
461.17	346.53
461.54	343.65
461.91	340.99
462.27	338.25
462.64	335.92
463.01	333.45
463.38	331.13
463.74	328.17
464.11	326.01
464.48	324.18
464.85	322.15
465.21	320.71
465.58	318.99
465.95	316.89
466.32	315.21
466.68	313.47
467.05	311.77
467.42	310.09
467.78	308.28
468.15	306.55
468.52	305.17
468.88	303.42
469.25	302.05
469.62	300.80
469.98	299.40
470.35	298.28
470.72	297.06
471.08	295.70
471.45	294.66
471.82	293.73
472.18	292.52
472.55	291.69
472.92	290.57
473.28	289.63
473.65	288.72
474.02	287.87
474.38	287.16
474.75	286.56
475.11	285.86
475.48	285.32
475.85	284.85
476.21	284.33
476.58	283.97
476.94	283.50
477.31	283.11
477.67	282.75
478.04	282.40
478.41	282.17
478.77	282.23
479.14	281.99
479.50	281.74
479.87	281.69
480.23	281.43
480.60	281.21
480.96	281.06
481.33	281.30
481.69	281.26
482.06	281.28
482.42	281.26
482.79	281.36
483.15	281.50
483.52	281.73
483.88	281.79
484.25	281.85
484.61	282.04
484.98	282.23
485.34	282.61
485.71	282.95
486.07	283.21
486.44	283.26
486.80	283.65
487.17	284.03
487.53	284.61
487.90	285.33
488.26	286.04
488.62	286.72
488.99	287.18
489.35	287.87
489.72	288.65
490.08	289.40
490.44	290.10
490.81	290.87
491.17	291.56
491.54	292.60
491.90	293.58
492.26	294.49
492.63	295.53
492.99	296.39
493.36	297.41
493.72	298.57
494.08	299.67
494.45	300.82
494.81	302.04
495.17	303.12
495.54	304.36
495.90	305.59
496.26	306.74
496.63	308.02
496.99	309.27
497.35	310.53
497.72	311.94
498.08	313.34
498.44	314.67
498.80	316.20
499.17	317.48
499.53	318.80
499.89	320.27
500.26	321.61
500.62	322.93
500.98	324.26
501.34	325.61
501.71	327.08
502.07	328.30
502.43	329.56
502.79	330.76
503.16	331.94
503.52	333.09
503.88	334.31
504.24	335.52
504.60	336.61
504.97	337.84
505.33	338.81
505.69	339.95
506.05	341.11
506.41	342.07
506.78	342.96
507.14	344.09
507.50	345.06
507.86	346.02
508.22	347.04
508.59	347.84
508.95	348.74
509.31	349.60
509.67	350.38
510.03	351.20
510.39	352.06
510.75	352.72
511.12	353.55
511.48	354.39
511.84	355.08
512.20	355.70
512.56	356.26
512.92	356.87
513.28	357.44
513.64	357.87
514.00	358.45
514.37	359.09
514.73	359.48
515.09	359.96
515.45	360.36
515.81	360.73
516.17	361.21
516.53	361.46
516.89	361.57
517.25	361.96
517.61	362.33
517.97	362.60
518.33	363.02
518.69	363.37
519.05	363.65
519.41	364.06
519.77	364.71
520.13	365.04
520.49	365.42
520.85	365.82
521.21	366.41
521.57	366.83
521.93	367.10
522.29	367.63
522.65	367.99
523.01	368.51
523.37	368.98
523.73	369.51
524.09	370.12
524.45	370.87
524.81	371.48
525.17	372.23
525.53	373.14
525.89	373.92
526.25	374.69
526.61	375.53
526.97	376.29
527.33	377.13
527.68	378.45
528.04	379.41
528.40	380.43
528.76	381.50
529.12	382.72
529.48	384.17
529.84	385.31
530.20	386.74
530.56	388.07
530.91	389.65
531.27	391.22
531.63	392.79
531.99	394.40
532.35	396.10
532.71	397.79
533.07	399.42
533.42	401.43
533.78	403.19
534.14	405.00
534.50	406.75
534.86	408.70
535.21	410.33
535.57	412.46
535.93	414.40
536.29	416.56
536.65	418.59
537.00	420.60
537.36	422.71
537.72	424.81
538.08	427.04
538.44	429.22
538.79	431.47
539.15	433.71
539.51	436.10
539.87	438.38
540.22	440.73
540.58	443.26
540.94	445.53
541.29	447.96
541.65	450.43
542.01	453.21
542.37	455.77
542.72	458.37
543.08	460.80
543.44	463.57
543.79	465.93
544.15	468.78
544.51	471.55
544.87	474.41
545.22	477.21
545.58	480.04
545.94	482.75
546.29	485.40
546.65	488.17
547.01	490.77
547.36	493.53
547.72	496.32
548.07	499.00
548.43	501.63
548.79	504.35
549.14	507.03
549.50	509.71
549.86	512.39
550.21	514.94
550.57	517.84
550.92	520.30
551.28	523.10
551.64	525.47
551.99	528.09
552.35	530.58
552.70	533.08
553.06	535.48
553.41	537.95
553.77	540.56
554.13	542.97
554.48	545.52
554.84	548.15
555.19	550.45
555.55	553.04
555.90	555.45
556.26	557.87
556.61	560.22
556.97	562.39
557.32	564.56
557.68	566.79
558.03	568.94
558.39	571.17
558.74	573.24
559.10	575.38
559.45	577.46
559.81	579.71
560.16	581.75
560.52	584.05
560.87	586.19
561.23	588.07
561.58	590.45
561.94	592.23
562.29	593.87
562.64	595.94
563.00	597.57
563.35	599.50
563.71	601.37
564.06	603.24
564.42	605.18
564.77	607.16
565.12	609.17
565.48	611.16
565.83	613.09
566.19	615.04
566.54	616.76
566.89	618.46
567.25	620.20
567.60	621.99
567.96	623.65
568.31	625.30
568.66	626.75
569.02	627.92
569.37	629.16
569.72	630.64
570.08	631.68
570.43	632.98
570.78	633.97
571.14	634.79
571.49	635.71
571.84	636.43
572.20	637.17
572.55	637.80
572.90	638.17
573.26	638.75
573.61	638.90
573.96	639.39
574.31	639.67
574.67	639.90
575.02	639.95
575.37	639.84
575.72	639.69
576.08	639.95
576.43	640.04
576.78	640.26
577.13	640.58
577.49	640.75
577.84	640.78
578.19	640.98
578.54	641.32
578.90	641.36
579.25	641.55
579.60	641.29
579.95	641.05
580.30	641.30
580.66	641.33
581.01	641.36
581.36	641.17
581.71	641.15
582.06	641.16
582.42	641.21
582.77	641.13
583.12	641.20
583.47	641.05
583.82	640.89
584.17	640.90
584.53	640.71
584.88	640.63
585.23	640.63
585.58	640.19
585.93	639.71
586.28	639.48
586.63	639.16
586.98	639.13
587.34	639.26
587.69	638.66
588.04	638.21
588.39	638.01
588.74	637.51
589.09	637.23
589.44	636.61
589.79	636.12
590.14	635.63
590.49	635.01
590.84	634.50
591.19	634.14
591.54	633.59
591.89	632.63
592.25	632.06
592.60	631.04
592.95	630.42
593.30	629.73
593.65	628.91
594.00	628.10
594.35	628.17
594.70	627.16
595.05	626.37
595.40	625.58
595.75	624.58
596.10	623.90
596.45	623.11
596.80	622.45
597.15	621.78
597.50	620.87
597.85	620.18
598.19	619.25
598.54	618.35
598.89	617.42
599.24	617.01
599.59	616.04
599.94	615.41
600.29	614.57
600.64	613.72
600.99	612.90
601.34	612.09
601.69	610.32
602.04	609.31
602.39	608.48
602.74	607.59
603.08	607.04
603.43	606.59
603.78	605.52
604.13	604.58
604.48	603.53
604.83	603.10
605.18	602.46
605.53	601.61
605.87	600.72
606.22	600.00
606.57	598.86
606.92	597.85
607.27	596.87
607.62	595.81
607.96	594.99
608.31	594.12
608.66	593.04
609.01	591.90
609.36	591.06
609.70	590.00
610.05	588.71
610.40	587.33
610.75	585.65
611.10	584.66
611.44	583.11
611.79	581.84
612.14	580.20
612.49	578.40
612.83	577.07
613.18	575.44
613.53	573.86
613.88	572.32
614.22	571.01
614.57	569.45
614.92	568.01
615.27	566.50
615.61	564.90
615.96	563.52
616.31	562.19
616.65	560.75
617.00	559.28
617.35	557.90
617.70	556.37
618.04	554.78
618.39	552.88
618.74	551.43
619.08	549.66
619.43	548.06
619.78	546.55
620.12	545.07
620.47	543.72
620.82	542.03
621.16	540.20
621.51	538.70
621.85	537.01
622.20	535.32
622.55	533.48
622.89	531.76
623.24	529.99
623.59	528.25
623.93	526.55
624.28	524.91
624.62	523.66
624.97	522.14
625.32	520.64
625.66	519.15
626.01	517.51
626.35	516.13
626.70	514.53
627.04	513.05
627.39	511.33
627.73	509.85
628.08	508.37
628.43	506.90
628.77	505.06
629.12	503.51
629.46	502.03
629.81	500.47
630.15	498.99
630.50	497.35
630.84	495.66
631.19	494.03
631.53	492.37
631.88	490.29
632.22	488.41
632.57	487.03
632.91	485.40
633.26	483.98
633.60	482.44
633.95	480.90
634.29	479.14
634.64	477.62
634.98	475.80
635.32	474.35
635.67	472.92
636.01	471.34
636.36	469.70
636.70	468.25
637.05	466.83
637.39	465.22
637.73	463.85
638.08	462.56
638.42	461.11
638.77	459.64
639.11	458.15
639.45	456.79
639.80	455.02
640.14	453.53
640.49	451.87
640.83	450.23
641.17	448.71
641.52	447.31
641.86	445.64
642.20	444.15
642.55	442.40
642.89	440.78
643.23	439.19
643.58	437.84
643.92	436.13
644.26	434.46
644.61	432.98
644.95	431.38
645.29	429.65
645.64	428.09
645.98	426.49
646.32	425.09
646.66	423.44
647.01	421.88
647.35	420.38
647.69	418.77
648.04	417.24
648.38	415.62
648.72	414.24
649.06	412.66
649.41	411.15
649.75	409.64
650.09	408.26
650.43	406.85
650.78	405.17
651.12	403.65
651.46	402.17
651.80	400.72
652.14	399.34
652.49	397.97
652.83	396.44
653.17	394.92
653.51	393.31
653.85	391.93
654.20	390.54
654.54	388.94
654.88	387.43
655.22	386.08
655.56	384.54
655.90	382.87
656.25	381.37
656.59	379.77
656.93	378.37
657.27	376.96
657.61	375.45
657.95	374.06
658.29	372.68
658.64	371.48
658.98	369.95
659.32	368.36
659.66	366.89
660.00	365.45
660.34	363.99
660.68	362.48
661.02	361.05
661.36	359.66
661.70	358.43
662.05	357.20
662.39	355.93
662.73	354.74
663.07	353.71
663.41	352.55
663.75	351.30
664.09	349.96
664.43	348.54
664.77	347.37
665.11	346.14
665.45	345.02
665.79	343.75
666.13	342.62
666.47	341.43
666.81	340.28
667.15	339.01
667.49	337.96
667.83	337.00
668.17	335.98
668.51	334.94
668.85	333.90
669.19	332.94
669.53	331.66
669.87	330.54
670.21	329.36
670.55	328.39
670.89	327.59
671.23	326.68
671.57	325.77
671.91	324.76
672.25	323.71
672.58	322.71
672.92	321.60
673.26	320.57
673.60	319.68
673.94	318.69
674.28	317.83
674.62	316.96
674.96	316.03
675.30	315.09
675.64	314.15
675.97	313.26
676.31	312.26
676.65	311.48
676.99	310.80
677.33	309.86
677.67	308.94
678.01	307.92
678.34	307.04
678.68	306.17
679.02	305.20
679.36	304.33
679.70	303.42
680.04	302.66
680.37	301.80
680.71	300.92
681.05	300.10
681.39	299.34
681.73	298.46
682.06	297.60
682.40	296.84
682.74	296.13
683.08	295.37
683.42	294.58
683.75	293.81
684.09	292.92
684.43	292.22
684.77	291.46
685.10	290.72
685.44	289.92
685.78	289.11
686.12	288.39
686.45	287.63
686.79	286.94
687.13	286.22
687.46	285.61
687.80	284.97
688.14	284.30
688.48	283.59
688.81	282.84
689.15	282.24
689.49	281.45
689.82	280.72
690.16	279.85
690.50	279.08
690.83	278.26
691.17	277.51
691.51	276.70
691.84	276.07
692.18	275.30
692.52	274.70
692.85	274.12
693.19	273.64
693.52	273.01
693.86	272.30
694.20	271.58
694.53	270.93
694.87	270.28
695.21	269.46
695.54	268.86
695.88	268.18
696.21	267.55
696.55	266.97
696.88	266.35
697.22	265.75
697.56	265.23
697.89	264.67
698.23	264.12
698.56	263.57
698.90	263.00
699.23	262.48
699.57	261.91
699.90	261.31
700.24	260.67
700.58	260.23
700.91	259.74
701.25	259.56
701.58	259.16
701.92	258.64
702.25	258.35
702.59	257.86
702.92	257.46
703.26	256.89
703.59	256.41
703.93	256.25
704.26	255.85
704.60	255.45
704.93	255.03
705.26	254.65
705.60	254.30
705.93	253.78
706.27	253.44
706.60	253.05
706.94	252.79
707.27	252.34
707.61	251.89
707.94	251.42
708.27	250.81
708.61	250.28
708.94	249.86
709.28	249.37
709.61	248.83
709.94	248.55
710.28	248.27
710.61	247.95
710.95	247.25
711.28	247.10
711.61	246.63
711.95	246.40
712.28	245.89
712.61	245.51
712.95	245.40
713.28	245.18
713.61	244.81
713.95	244.36
714.28	244.11
714.61	243.70
714.95	243.38
715.28	242.94
715.61	242.61
715.95	242.34
716.28	242.00
716.61	241.79
716.95	241.34
717.28	240.98
717.61	240.69
717.94	240.40
718.28	239.82
718.61	239.62
718.94	239.15
719.27	238.91
719.61	238.65
719.94	238.21
720.27	237.74
720.60	237.45
720.94	237.16
721.27	236.77
721.60	236.61
721.93	236.43
722.27	236.25
722.60	236.07
722.93	235.74
723.26	235.53
723.59	235.33
723.93	235.18
724.26	234.92
724.59	234.64
724.92	234.38
725.25	234.31
725.59	233.95
725.92	233.91
726.25	233.70
726.58	233.44
726.91	233.18
727.24	233.02
727.57	232.85
727.91	232.50
728.24	232.39
728.57	232.19
728.90	232.00
729.23	231.74
729.56	231.65
729.89	231.46
730.22	231.25
730.55	231.02
730.89	230.77
731.22	230.61
731.55	230.36
731.88	230.08
732.21	229.82
732.54	229.64
732.87	229.33
733.20	229.14
733.53	228.94
733.86	228.79
734.19	228.58
734.52	228.40
734.85	228.54
735.18	228.30
735.51	228.22
735.84	228.04
736.17	227.97
736.50	227.61
736.83	227.96
737.16	227.83
737.49	227.67
737.82	227.42
738.15	227.25
738.48	227.13
738.81	227.06
739.14	226.93
739.47	226.75
739.80	226.63
740.13	226.46
740.46	226.30
740.79	226.05
741.12	225.86
741.45	225.61
741.78	225.30
742.11	225.24
742.44	225.07
742.77	224.95
743.10	224.76
743.43	224.57
743.75	223.99
744.08	224.31
744.41	224.11
744.74	224.07
745.07	223.93
745.40	223.85
745.73	223.86
746.06	223.70
746.39	223.59
746.71	223.43
747.04	223.31
747.37	223.20
747.70	223.19
748.03	223.11
748.36	223.09
748.68	222.91
749.01	222.71
749.34	222.49
749.67	222.37
750.00	222.30
750.33	222.46
750.65	222.40
750.98	221.80
751.31	221.73
751.64	221.60
751.97	221.76
752.29	221.60
752.62	221.30
752.95	221.19
753.28	221.13
753.60	221.09
753.93	221.10
754.26	221.01
754.59	220.91
754.91	220.75
755.24	220.66
755.57	220.66
755.90	220.60
756.22	220.50
756.55	220.40
756.88	220.21
757.20	219.92
757.53	219.77
757.86	219.70
758.19	219.64
758.51	219.58
758.84	219.30
759.17	219.26
759.49	219.18
759.82	219.26
760.15	219.19
760.47	219.02
760.80	218.87
761.13	218.89
761.45	218.71
761.78	218.67
762.11	218.56
762.43	218.36
762.76	218.28
763.08	218.26
763.41	218.21
763.74	218.21
764.06	218.18
764.39	218.11
764.71	218.02
765.04	217.85
765.37	217.68
765.69	217.52
766.02	217.37
766.34	217.40
766.67	217.14
767.00	217.16
767.32	217.28
767.65	217.39
767.97	217.21
768.30	217.27
768.62	217.19
768.95	217.10
769.27	217.10
769.60	217.07
769.92	217.00
770.25	216.85
770.57	216.64
770.90	216.52
771.22	216.42
771.55	216.41
771.87	216.47
772.20	216.43
772.52	216.59
772.85	216.90
773.17	216.85
773.50	216.88
773.82	216.81
774.15	216.53
774.47	216.30
774.80	216.16
775.12	216.05
775.45	216.02
775.77	215.95
776.09	215.91
776.42	215.85
776.74	215.85
777.07	215.77
777.39	215.78
777.72	215.70
778.04	215.68
778.36	215.58
778.69	215.51
779.01	215.56
779.33	215.27
779.66	214.90
779.98	214.83
780.31	214.74
780.63	214.84
780.95	214.92
781.28	214.88
781.60	214.82
781.92	214.83
782.25	214.76
782.57	214.75
782.89	214.62
783.22	214.55
783.54	214.47
783.86	214.52
784.19	214.52
784.51	214.68
784.83	214.55
785.16	214.51
785.48	214.45
785.80	214.35
786.12	214.42
786.45	214.43
786.77	214.38
787.09	214.36
787.42	214.07
787.74	214.01
788.06	213.98
788.38	214.00
788.71	213.92
789.03	213.92
789.35	213.98
789.67	213.99
789.99	214.04
790.32	213.98
790.64	213.99
790.96	214.20
791.28	214.01
791.61	214.02
791.93	213.97
792.25	213.97
792.57	214.19
792.89	214.12
793.21	214.17
793.54	214.11
793.86	214.03
794.18	214.13
794.50	214.09
794.82	214.05
795.14	214.05
795.47	214.08
795.79	214.10
796.11	213.95
796.43	213.96
796.75	213.86
797.07	213.85
797.39	213.73
797.71	213.49
798.04	213.46
798.36	213.49
798.68	213.46
799.00	213.42
799.32	213.25
799.64	213.30
799.96	213.21
800.28	213.27
800.60	213.23
800.92	213.24
801.24	213.21
801.56	213.27
801.89	213.25
802.21	213.20
802.53	213.13
802.85	213.21
803.17	213.31
803.49	213.26
803.81	213.24
804.13	213.24
804.45	213.12
804.77	213.15
805.09	213.09
805.41	213.08
805.73	213.01
806.05	212.88
806.37	212.79
806.69	212.73
807.01	212.64
807.33	212.59
807.65	212.41
807.97	212.59
808.28	212.46
808.60	212.46
808.92	212.41
809.24	212.56
809.56	212.45
809.88	212.29
810.20	212.34
810.52	212.36
810.84	212.28
811.16	212.25
811.48	212.20
811.80	212.31
812.12	212.34
812.43	212.37
812.75	212.43
813.07	212.42
813.39	212.47
813.71	212.44
814.03	212.47
814.35	212.58
814.67	212.41
814.98	212.39
815.30	212.36
815.62	212.26
815.94	212.05
816.26	212.07
816.58	212.00
816.89	211.94
817.21	211.88
817.53	211.97
817.85	212.04
818.17	212.06
818.48	211.91
818.80	211.93
819.12	211.88
819.44	211.75
819.76	211.68
820.07	211.64
820.39	211.61
820.71	211.56
821.03	211.47
821.34	211.42
821.66	211.48
821.98	211.50
822.30	211.56
822.61	211.82
822.93	211.81
823.25	211.78
823.57	211.77
823.88	211.85
824.20	211.74
824.52	211.81
824.83	211.77
825.15	211.76
825.47	211.74
825.79	211.78
826.10	211.85
826.42	211.86
826.74	211.94
827.05	211.94
827.37	211.99
827.69	212.00
828.00	212.06
828.32	212.05
828.64	211.98
828.95	212.14
829.27	212.00
829.58	212.08
829.90	212.22
830.22	212.28
830.53	212.15
830.85	212.21
831.17	212.11
831.48	212.08
831.80	212.05
832.11	211.99
832.43	211.94
832.75	211.86
833.06	212.08
833.38	211.89
833.69	211.87
834.01	211.92
834.32	211.96
834.64	211.90
834.96	211.90
835.27	211.94
835.59	211.87
835.90	211.79
836.22	211.78
836.53	211.72
836.85	211.72
837.16	212.11
837.48	212.11
837.79	212.25
838.11	212.32
838.42	212.42
838.74	212.54
839.05	212.54
839.37	212.54
839.68	212.35
840.00	212.37
840.31	212.47
840.63	212.39
840.94	212.30
841.26	212.19
841.57	212.22
841.88	212.23
842.20	212.15
842.51	212.08
842.83	212.03
843.14	212.27
843.46	212.22
843.77	212.00
844.08	211.94
844.40	211.78
844.71	211.73
845.03	211.62
845.34	211.49
845.65	211.49
845.97	211.53
846.28	211.46
846.60	211.48
846.91	211.45
847.22	211.47
847.54	211.57
847.85	211.63
848.16	211.54
848.48	211.46
848.79	211.60
849.10	211.66
849.42	211.69
849.73	211.31
850.04	211.30
850.36	211.04
850.67	211.06
850.98	211.11
851.30	211.14
851.61	211.11
851.92	211.13
852.23	211.19
852.55	211.21
852.86	211.25
853.17	211.26
853.49	211.34
853.80	211.37
854.11	211.39
854.42	211.46
854.74	211.40
855.05	211.39
855.36	211.21
855.67	211.20
855.99	211.19
856.30	211.69
856.61	211.68
856.92	211.83
857.23	211.87
857.55	211.86
857.86	211.77
858.17	211.88
858.48	211.85
858.79	211.79
859.11	211.80
859.42	211.87
859.73	211.86
860.04	211.79
860.35	211.75
860.66	211.64
860.98	211.58
861.29	211.66
861.60	211.67
861.91	211.74
862.22	211.68
862.53	211.54
862.84	211.13
863.16	211.18
863.47	211.02
863.78	211.00
864.09	210.98
864.40	211.09
864.71	211.13
865.02	211.22
865.33	211.18
865.64	211.07
865.95	211.05
866.27	211.28
866.58	211.25
866.89	211.23
867.20	211.23
867.51	211.24
867.82	211.21
868.13	211.36
868.44	211.31
868.75	211.41
869.06	211.47
869.37	211.48
869.68	211.40
869.99	211.53
870.30	211.60
870.61	211.69
870.92	211.62
871.23	211.54
871.54	211.51
871.85	211.60
872.16	211.67
872.47	211.58
872.78	211.45
873.09	211.53
873.40	211.48
873.71	211.56
874.02	211.55
874.33	211.52
874.64	211.40
874.95	211.49
875.26	211.45
875.56	211.43
875.87	211.38
876.18	211.38
876.49	211.69
876.80	211.61
877.11	211.57
877.42	211.55
877.73	211.57
878.04	211.61
878.35	211.61
878.66	211.63
878.96	211.62
879.27	211.50
879.58	211.42
879.89	211.43
880.20	211.48
880.51	211.48
880.82	211.52
881.12	211.60
881.43	211.47
881.74	211.47
882.05	211.50
882.36	211.55
882.67	211.56
882.97	211.26
883.28	211.21
883.59	211.09
883.90	211.16
884.21	211.13
884.51	211.06
884.82	211.01
885.13	210.95
885.44	210.96
885.74	210.91
886.05	210.91
886.36	210.90
886.67	210.76
886.98	210.93
887.28	210.89
887.59	210.82
887.90	210.85
888.20	210.77
888.51	210.83
888.82	210.77
889.13	210.83
889.43	211.04
889.74	211.07
890.05	211.11
890.35	210.98
890.66	210.95
890.97	210.88
891.28	210.85
891.58	210.87
891.89	210.88
892.20	210.92
892.50	210.93
892.81	210.98
893.12	210.96
893.42	210.76
893.73	210.81
894.04	210.81
894.34	210.83
894.65	210.86
894.95	210.82
895.26	210.85
895.57	210.99
895.87	210.66
896.18	210.80
896.48	210.85
896.79	210.93
897.10	210.99
897.40	210.96
897.71	211.01
898.01	211.02
898.32	211.04
898.63	211.06
898.93	211.05
899.24	211.04
899.54	211.14
899.85	211.15
900.15	211.21
900.46	211.21
900.76	211.21
901.07	211.22
901.38	211.24
901.68	211.31
901.99	211.05
902.29	211.05
902.60	210.98
902.90	210.98
903.21	210.93
903.51	210.98
903.82	211.16
904.12	211.13
904.43	211.15
904.73	211.15
905.03	211.19
905.34	211.55
905.64	211.55
905.95	211.47
906.25	211.55
906.56	211.51
906.86	211.57
907.17	211.60
907.47	211.60
907.77	211.57
908.08	211.49
908.38	211.59
908.69	211.67
908.99	211.71
909.30	211.70
909.60	211.70
909.90	211.68
910.21	211.60
910.51	211.62
910.81	211.57
911.12	211.64
911.42	211.61
911.73	211.24
912.03	211.25
912.33	211.34
912.64	211.28
912.94	211.21
913.24	211.15
913.55	211.18
913.85	211.19
914.15	211.25
914.46	211.33
914.76	211.34
915.06	211.30
915.37	211.17
915.67	211.10
915.97	211.15
916.27	211.08
916.58	211.09
916.88	211.07
917.18	211.15
917.49	211.35
917.79	211.34
918.09	211.40
918.39	211.42
918.70	211.44
919.00	211.39
919.30	211.60
919.60	211.57
919.91	211.49
920.21	211.51
920.51	211.44
920.81	211.36
921.12	211.39
921.42	211.45
921.72	211.55
922.02	211.56
922.32	211.55
922.63	211.55
922.93	211.76
923.23	211.75
923.53	211.65
923.83	211.41
924.13	211.41
924.44	211.41
924.74	211.52
925.04	211.50
925.34	211.47
925.64	211.29
925.94	211.25
926.24	211.44
926.55	211.36
926.85	211.42
927.15	211.43
927.45	211.38
927.75	211.40
928.05	211.42
928.35	211.47
928.65	211.61
928.95	211.62
929.26	211.37
929.56	211.46
929.86	211.56
930.16	211.54
930.46	211.56
930.76	211.52
931.06	211.37
931.36	211.29
931.66	211.46
931.96	211.49
932.26	211.52
932.56	211.27
932.86	211.28
933.16	211.21
933.46	211.17
933.76	211.11
934.06	211.16
934.36	211.20
934.66	211.15
934.96	210.99
935.26	211.05
935.56	211.14
935.86	210.99
936.16	210.90
936.46	210.86
936.76	210.78
937.06	210.76
937.36	210.78
937.66	210.80
937.96	210.69
938.26	210.61
938.56	210.58
938.86	210.66
939.16	210.75
939.46	210.72
939.76	210.79
940.06	210.79
940.35	210.67
940.65	210.45
940.95	210.50
941.25	210.46
941.55	210.33
941.85	210.25
942.15	210.36
942.45	210.44
942.75	210.43
943.04	210.40
943.34	210.37
943.64	210.30
943.94	210.30
944.24	210.28
944.54	210.29
944.84	210.33
945.13	210.25
945.43	210.16
945.73	210.16
946.03	210.13
946.33	210.10
946.62	210.15
946.92	210.30
947.22	210.25
947.52	210.29
947.82	210.37
948.11	210.40
948.41	210.30
948.71	210.20
949.01	210.19
949.31	210.29
949.60	210.34
949.90	210.39
950.20	210.26
950.50	210.19
950.79	210.15
951.09	210.12
951.39	210.20
951.69	210.19
951.98	210.29
952.28	210.27
952.58	210.26
952.87	210.19
953.17	210.19
953.47	210.20
953.76	210.27
954.06	210.25
954.36	210.19
954.66	210.17
954.95	210.30
955.25	210.39
955.55	210.34
955.84	210.24
956.14	210.28
956.44	210.38
956.73	210.41
957.03	210.50
957.32	210.48
957.62	210.43
957.92	210.50
958.21	210.48
958.51	210.88
958.81	211.00
959.10	211.01
959.40	211.07
959.69	211.09
959.99	211.03
960.29	210.98
960.58	210.98
960.88	211.18
961.17	211.10
961.47	211.09
961.76	211.12
962.06	211.26
962.36	211.25
962.65	211.27
962.95	211.28
963.24	211.24
963.54	211.28
963.83	211.32
964.13	211.32
964.42	211.25
964.72	210.99
965.01	210.92
965.31	210.97
965.60	210.85
965.90	211.05
966.19	210.98
966.49	211.04
966.78	210.96
967.08	210.92
967.37	210.95
967.67	210.94
967.96	210.96
968.26	210.94
968.55	210.96
968.85	210.91
969.14	210.97
969.43	210.96
969.73	210.96
970.02	210.96
970.32	210.95
970.61	210.97
970.91	210.88
971.20	210.81
971.49	210.76
971.79	210.83
972.08	210.60
972.38	210.68
972.67	210.64
972.96	210.76
973.26	210.70
973.55	210.86
973.85	210.84
974.14	210.79
974.43	210.83
974.73	210.78
975.02	210.82
975.31	210.86
975.61	210.83
975.90	210.79
976.19	210.80
976.49	210.85
976.78	210.88
977.07	210.94
977.37	210.93
977.66	211.02
977.95	210.93
978.24	210.96
978.54	211.08
978.83	211.03
979.12	211.00
979.42	210.94
979.71	210.82
980.00	210.86
980.29	210.89
980.59	210.82
980.88	210.86
981.17	210.78
981.46	210.78
981.76	210.81
982.05	210.97
982.34	210.95
982.63	210.85
982.93	210.83
983.22	210.90
983.51	210.99
983.80	211.03
984.09	211.11
984.39	211.10
984.68	211.00
984.97	211.12
985.26	211.13
985.55	211.18
985.85	211.13
986.14	211.15
986.43	211.24
986.72	211.24
987.01	211.15
987.30	211.22
987.59	211.20
987.89	211.17
988.18	211.05
988.47	210.98
988.76	211.04
989.05	210.99
989.34	210.89
989.63	211.02
989.92	210.90
990.22	210.85
990.51	210.81
990.80	210.84
991.09	210.82
991.38	210.86
991.67	210.78
991.96	210.76
992.25	210.75
992.54	210.67
992.83	210.67
993.12	210.69
993.41	210.82
993.70	210.92
993.99	211.06
994.28	211.13
994.58	211.24
994.87	211.14
995.16	211.12
995.45	211.06
995.74	210.90
996.03	210.93
996.32	210.96
996.61	211.04
996.90	211.04
997.19	211.01
997.48	211.00
997.77	210.94
998.06	210.94
998.34	210.89
998.63	210.93
998.92	210.90
999.21	210.95
999.50	210.95
999.79	210.82
1000.08	210.80
1000.37	210.77
1000.66	210.66
1000.95	210.78
1001.24	210.86
1001.53	210.97
1001.82	211.01
1002.11	210.92
1002.40	211.00
1002.68	211.09
1002.97	211.29
1003.26	211.28
1003.55	211.24
1003.84	211.35
1004.13	211.46
1004.42	211.45
1004.71	211.38
1004.99	211.37
1005.28	211.48
1005.57	211.39
1005.86	211.41
1006.15	211.35
1006.44	211.30
1006.72	211.37
1007.01	211.30
1007.30	211.30
1007.59	211.23
1007.88	211.19
1008.17	211.28
1008.45	211.23
1008.74	211.09
1009.03	210.93
1009.32	210.95
1009.60	210.98
1009.89	210.98
1010.18	210.78
1010.47	210.82
1010.76	210.81
1011.04	210.87
1011.33	210.80
1011.62	210.83
1011.91	210.82
1012.19	210.88
1012.48	210.90
1012.77	210.89
1013.05	211.04
1013.34	211.04
1013.63	211.03
1013.92	211.07
1014.20	211.03
1014.49	210.99
1014.78	211.01
1015.06	210.90
1015.35	210.91
1015.64	211.00
1015.92	210.99
1016.21	211.15
1016.50	211.10
1016.78	211.11
1017.07	211.10
1017.36	210.99
1017.64	210.87
1017.93	210.85
1018.22	210.78
1018.50	210.74
1018.79	210.72
1019.08	210.55
1019.36	210.53
1019.65	210.53
1019.93	210.60
1020.22	210.67
1020.51	210.85
1020.79	210.75
1021.08	210.00
1021.36	209.85
1021.65	210.35
1021.94	209.80
1022.22	211.00
1022.51	210.60
1022.79	212.35
1023.08	211.85
1023.36	214.75
1023.65	208.60
>>>>>End Processed Spectral Data<<<<<
