SpectraSuite Data File
++++++++++++++++++++++++++++++++++++
Date: Mon Feb 25 17:20:48 EST 2013
User: group
Dark Spectrum Present: No
Reference Spectrum Present: No
Number of Sampled Component Spectra: 1
Spectrometers: USB2E7196
Integration Time (usec): 104000 (USB2E7196)
Spectra Averaged: 20 (USB2E7196)
Boxcar Smoothing: 10 (USB2E7196)
Correct for Electrical Dark: No (USB2E7196)
Strobe/Lamp Enabled: No (USB2E7196)
Correct for Detector Non-linearity: No (USB2E7196)
Correct for Stray Light: No (USB2E7196)
Number of Pixels in Processed Spectrum: 2048
>>>>>Begin Processed Spectral Data<<<<<
339.09	0.00
339.48	198.95
339.86	199.70
340.24	201.15
340.63	201.90
341.01	210.35
341.39	205.10
341.78	207.45
342.16	210.45
342.54	208.90
342.93	198.31
343.31	208.34
343.69	208.93
344.07	209.43
344.46	209.93
344.84	210.47
345.22	210.60
345.60	210.92
345.99	211.20
346.37	211.32
346.75	211.47
347.13	211.70
347.52	211.78
347.90	212.04
348.28	212.11
348.66	212.36
349.05	212.42
349.43	212.53
349.81	212.74
350.19	212.77
350.57	212.85
350.96	213.05
351.34	213.19
351.72	213.32
352.10	213.49
352.48	213.60
352.87	213.63
353.25	213.70
353.63	213.84
354.01	213.87
354.39	213.96
354.77	214.05
355.15	214.21
355.54	214.27
355.92	214.24
356.30	214.39
356.68	214.59
357.06	214.62
357.44	214.67
357.82	214.66
358.20	214.82
358.58	214.93
358.97	214.98
359.35	215.09
359.73	215.20
360.11	215.24
360.49	215.29
360.87	215.32
361.25	215.36
361.63	215.52
362.01	215.57
362.39	215.51
362.77	215.52
363.15	215.48
363.53	215.52
363.91	215.59
364.29	215.58
364.67	215.31
365.05	215.31
365.43	215.34
365.81	215.40
366.19	215.49
366.57	215.59
366.95	215.57
367.33	215.51
367.71	215.47
368.09	215.53
368.47	215.54
368.85	215.50
369.23	215.56
369.61	215.39
369.99	215.46
370.37	215.57
370.75	215.77
371.13	215.70
371.51	215.64
371.89	215.59
372.27	215.54
372.65	215.54
373.03	215.59
373.41	215.55
373.78	215.46
374.16	215.28
374.54	215.12
374.92	215.08
375.30	215.08
375.68	214.99
376.06	214.94
376.44	214.85
376.82	214.94
377.19	214.86
377.57	214.80
377.95	214.63
378.33	214.54
378.71	214.29
379.09	214.37
379.47	214.35
379.84	214.28
380.22	214.27
380.60	214.13
380.98	213.91
381.36	213.83
381.73	213.75
382.11	213.83
382.49	213.81
382.87	213.76
383.25	213.69
383.62	214.00
384.00	213.96
384.38	213.95
384.76	213.95
385.13	214.01
385.51	214.02
385.89	214.04
386.27	214.05
386.64	214.08
387.02	214.00
387.40	213.98
387.78	214.01
388.15	214.00
388.53	213.92
388.91	213.96
389.29	214.00
389.66	214.06
390.04	213.91
390.42	214.01
390.79	213.96
391.17	213.94
391.55	213.62
391.92	213.59
392.30	213.60
392.68	213.49
393.05	213.50
393.43	213.51
393.81	213.50
394.18	213.47
394.56	213.50
394.94	213.57
395.31	213.59
395.69	213.66
396.06	213.72
396.44	213.89
396.82	213.85
397.19	214.06
397.57	213.97
397.95	214.09
398.32	214.00
398.70	214.17
399.07	214.32
399.45	214.35
399.82	214.40
400.20	214.47
400.58	214.51
400.95	214.42
401.33	214.53
401.70	214.82
402.08	214.87
402.45	215.00
402.83	215.14
403.20	215.21
403.58	215.30
403.95	215.46
404.33	215.68
404.71	215.93
405.08	216.25
405.46	216.50
405.83	216.73
406.21	216.86
406.58	217.03
406.96	217.28
407.33	217.50
407.70	217.84
408.08	218.37
408.45	218.72
408.83	219.19
409.20	219.52
409.58	219.73
409.95	220.20
410.33	220.69
410.70	221.10
411.08	221.70
411.45	222.27
411.82	222.76
412.20	223.35
412.57	224.22
412.95	224.62
413.32	225.48
413.69	226.26
414.07	227.21
414.44	228.17
414.82	229.16
415.19	230.40
415.56	231.54
415.94	232.60
416.31	234.06
416.68	235.29
417.06	236.90
417.43	238.47
417.81	240.14
418.18	241.79
418.55	243.68
418.93	245.66
419.30	247.69
419.67	249.90
420.04	252.18
420.42	254.48
420.79	257.39
421.16	260.12
421.54	263.08
421.91	266.00
422.28	269.03
422.66	272.13
423.03	275.37
423.40	278.69
423.77	282.24
424.15	285.76
424.52	289.57
424.89	293.57
425.26	297.43
425.64	301.27
426.01	305.36
426.38	309.64
426.75	314.01
427.13	318.50
427.50	323.17
427.87	328.09
428.24	332.90
428.61	337.34
428.99	342.54
429.36	348.09
429.73	353.58
430.10	359.03
430.47	364.71
430.85	370.35
431.22	376.33
431.59	383.06
431.96	389.27
432.33	396.18
432.70	402.69
433.08	410.35
433.45	417.53
433.82	424.75
434.19	432.70
434.56	440.66
434.93	448.20
435.30	455.69
435.68	463.97
436.05	472.30
436.42	480.65
436.79	488.08
437.16	496.03
437.53	504.46
437.90	512.88
438.27	521.19
438.64	529.90
439.01	537.84
439.38	544.76
439.75	551.63
440.13	559.41
440.50	566.75
440.87	573.02
441.24	579.34
441.61	586.35
441.98	591.51
442.35	597.26
442.72	603.21
443.09	609.12
443.46	612.55
443.83	614.80
444.20	616.72
444.57	619.77
444.94	621.13
445.31	622.57
445.68	624.08
446.05	624.50
446.42	623.47
446.79	622.48
447.16	621.03
447.53	620.15
447.90	616.81
448.27	613.72
448.64	608.96
449.01	605.65
449.37	599.77
449.74	594.30
450.11	587.87
450.48	580.72
450.85	573.25
451.22	567.04
451.59	561.06
451.96	555.27
452.33	547.57
452.70	540.67
453.07	532.50
453.43	524.08
453.80	516.23
454.17	508.72
454.54	501.59
454.91	493.95
455.28	486.42
455.65	479.40
456.02	472.66
456.38	466.82
456.75	459.49
457.12	453.50
457.49	447.43
457.86	441.53
458.23	436.65
458.59	431.28
458.96	425.64
459.33	420.77
459.70	415.91
460.07	411.96
460.43	407.37
460.80	403.20
461.17	399.53
461.54	395.66
461.91	392.06
462.27	388.39
462.64	385.36
463.01	381.95
463.38	378.74
463.74	375.06
464.11	372.10
464.48	369.50
464.85	366.69
465.21	364.66
465.58	362.45
465.95	359.69
466.32	357.40
466.68	355.25
467.05	353.04
467.42	350.92
467.78	348.66
468.15	346.75
468.52	345.15
468.88	342.99
469.25	341.15
469.62	339.67
469.98	338.15
470.35	336.70
470.72	335.44
471.08	333.94
471.45	332.80
471.82	331.71
472.18	330.47
472.55	329.67
472.92	328.56
473.28	327.63
473.65	326.75
474.02	325.97
474.38	325.36
474.75	324.96
475.11	324.43
475.48	324.15
475.85	323.87
476.21	323.68
476.58	323.55
476.94	323.63
477.31	323.64
477.67	323.66
478.04	323.82
478.41	323.91
478.77	324.62
479.14	325.01
479.50	325.56
479.87	326.21
480.23	326.85
480.60	327.53
480.96	328.32
481.33	329.38
481.69	330.42
482.06	331.42
482.42	332.42
482.79	333.70
483.15	335.18
483.52	336.83
483.88	338.44
484.25	340.25
484.61	342.02
484.98	343.83
485.34	345.99
485.71	348.30
486.07	350.80
486.44	353.00
486.80	355.59
487.17	358.23
487.53	361.35
487.90	364.56
488.26	368.19
488.62	371.83
488.99	375.50
489.35	379.46
489.72	383.88
490.08	388.32
490.44	392.90
490.81	397.78
491.17	402.63
491.54	407.99
491.90	413.51
492.26	419.51
492.63	425.84
492.99	432.31
493.36	439.03
493.72	446.14
494.08	453.60
494.45	461.57
494.81	470.01
495.17	478.47
495.54	487.43
495.90	496.59
496.26	506.22
496.63	516.35
496.99	526.79
497.35	537.68
497.72	549.00
498.08	560.75
498.44	572.91
498.80	586.06
499.17	599.48
499.53	613.35
499.89	627.67
500.26	642.22
500.62	657.38
500.98	673.36
501.34	689.68
501.71	706.74
502.07	724.12
502.43	742.13
502.79	760.45
503.16	779.55
503.52	799.09
503.88	819.37
504.24	840.05
504.60	861.07
504.97	883.12
505.33	905.58
505.69	929.31
506.05	953.34
506.41	977.37
506.78	1001.81
507.14	1027.06
507.50	1052.86
507.86	1079.21
508.22	1106.47
508.59	1133.61
508.95	1161.60
509.31	1189.86
509.67	1218.90
510.03	1248.26
510.39	1278.98
510.75	1309.82
511.12	1341.14
511.48	1372.59
511.84	1404.98
512.20	1437.34
512.56	1470.14
512.92	1503.68
513.28	1537.10
513.64	1570.65
514.00	1604.53
514.37	1638.98
514.73	1673.78
515.09	1708.96
515.45	1744.22
515.81	1779.22
516.17	1814.81
516.53	1850.65
516.89	1886.57
517.25	1922.38
517.61	1958.12
517.97	1993.65
518.33	2029.22
518.69	2065.13
519.05	2101.22
519.41	2137.16
519.77	2174.19
520.13	2210.18
520.49	2245.52
520.85	2281.51
521.21	2317.84
521.57	2354.81
521.93	2390.05
522.29	2427.16
522.65	2463.56
523.01	2499.36
523.37	2534.46
523.73	2570.03
524.09	2605.52
524.45	2641.01
524.81	2676.37
525.17	2711.85
525.53	2747.01
525.89	2782.17
526.25	2816.51
526.61	2849.60
526.97	2883.17
527.33	2915.99
527.68	2949.22
528.04	2981.80
528.40	3013.06
528.76	3044.58
529.12	3076.45
529.48	3109.54
529.84	3139.97
530.20	3170.29
530.56	3201.03
530.91	3232.91
531.27	3263.81
531.63	3293.37
531.99	3323.11
532.35	3351.75
532.71	3379.73
533.07	3408.29
533.42	3435.18
533.78	3463.21
534.14	3490.87
534.50	3516.26
534.86	3542.62
535.21	3567.01
535.57	3593.37
535.93	3618.00
536.29	3641.96
536.65	3665.44
537.00	3687.60
537.36	3709.10
537.72	3730.39
538.08	3751.56
538.44	3771.82
538.79	3792.75
539.15	3813.06
539.51	3832.49
539.87	3852.96
540.22	3872.54
540.58	3891.62
540.94	3910.64
541.29	3926.81
541.65	3942.39
542.01	3958.86
542.37	3973.52
542.72	3988.41
543.08	4000.91
543.44	4013.88
543.79	4025.54
544.15	4035.28
544.51	4045.06
544.87	4054.31
545.22	4062.68
545.58	4070.06
545.94	4076.13
546.29	4080.36
546.65	4084.62
547.01	4088.00
547.36	4089.94
547.72	4091.79
548.07	4091.96
548.43	4092.24
548.79	4093.11
549.14	4094.47
549.50	4094.92
549.86	4094.97
550.21	4095.00
550.57	4095.00
550.92	4095.00
551.28	4095.00
551.64	4095.00
551.99	4095.00
552.35	4095.00
552.70	4095.00
553.06	4095.00
553.41	4095.00
553.77	4095.00
554.13	4095.00
554.48	4095.00
554.84	4095.00
555.19	4095.00
555.55	4095.00
555.90	4095.00
556.26	4095.00
556.61	4095.00
556.97	4095.00
557.32	4095.00
557.68	4094.99
558.03	4094.99
558.39	4094.99
558.74	4094.99
559.10	4094.99
559.45	4094.99
559.81	4094.99
560.16	4094.88
560.52	4094.84
560.87	4094.68
561.23	4093.65
561.58	4093.15
561.94	4092.08
562.29	4090.38
562.64	4089.25
563.00	4087.88
563.35	4086.06
563.71	4084.02
564.06	4081.09
564.42	4078.11
564.77	4075.26
565.12	4071.84
565.48	4067.77
565.83	4063.77
566.19	4060.02
566.54	4054.24
566.89	4048.68
567.25	4043.28
567.60	4037.06
567.96	4030.32
568.31	4023.30
568.66	4015.70
569.02	4007.29
569.37	3998.15
569.72	3990.07
570.08	3980.84
570.43	3971.48
570.78	3961.39
571.14	3951.20
571.49	3940.68
571.84	3930.67
572.20	3919.09
572.55	3908.24
572.90	3896.60
573.26	3884.23
573.61	3871.70
573.96	3860.12
574.31	3847.22
574.67	3833.59
575.02	3819.02
575.37	3805.53
575.72	3791.34
576.08	3778.71
576.43	3764.85
576.78	3752.15
577.13	3739.72
577.49	3727.18
577.84	3713.82
578.19	3701.76
578.54	3689.90
578.90	3678.21
579.25	3664.56
579.60	3650.82
579.95	3636.77
580.30	3624.41
580.66	3612.34
581.01	3598.34
581.36	3584.45
581.71	3570.85
582.06	3558.29
582.42	3546.10
582.77	3531.90
583.12	3518.53
583.47	3505.68
583.82	3493.42
584.17	3479.73
584.53	3466.70
584.88	3453.23
585.23	3439.67
585.58	3425.84
585.93	3411.43
586.28	3397.95
586.63	3384.41
586.98	3371.57
587.34	3359.14
587.69	3345.30
588.04	3331.86
588.39	3319.26
588.74	3305.71
589.09	3293.36
589.44	3279.56
589.79	3266.96
590.14	3255.03
590.49	3241.94
590.84	3228.53
591.19	3216.57
591.54	3204.05
591.89	3188.82
592.25	3174.76
592.60	3160.75
592.95	3146.33
593.30	3131.26
593.65	3116.14
594.00	3102.43
594.35	3090.36
594.70	3076.55
595.05	3063.65
595.40	3049.90
595.75	3035.33
596.10	3022.95
596.45	3010.18
596.80	2998.31
597.15	2986.12
597.50	2972.75
597.85	2960.53
598.19	2947.56
598.54	2934.32
598.89	2922.27
599.24	2912.51
599.59	2900.94
599.94	2890.77
600.29	2879.79
600.64	2868.93
600.99	2856.78
601.34	2845.60
601.69	2832.21
602.04	2819.64
602.39	2807.04
602.74	2795.10
603.08	2785.35
603.43	2774.71
603.78	2762.84
604.13	2750.77
604.48	2739.04
604.83	2729.48
605.18	2719.80
605.53	2708.44
605.87	2696.70
606.22	2685.75
606.57	2673.21
606.92	2661.60
607.27	2648.88
607.62	2636.83
607.96	2625.73
608.31	2615.79
608.66	2603.67
609.01	2592.05
609.36	2580.29
609.70	2568.22
610.05	2555.71
610.40	2543.07
610.75	2529.88
611.10	2518.36
611.44	2504.71
611.79	2491.25
612.14	2476.70
612.49	2461.56
612.83	2448.46
613.18	2434.52
613.53	2420.55
613.88	2406.19
614.22	2393.01
614.57	2379.51
614.92	2365.87
615.27	2351.75
615.61	2337.58
615.96	2324.70
616.31	2312.46
616.65	2300.55
617.00	2288.27
617.35	2275.83
617.70	2262.60
618.04	2248.61
618.39	2234.08
618.74	2221.60
619.08	2208.35
619.43	2195.61
619.78	2183.75
620.12	2171.43
620.47	2159.43
620.82	2146.23
621.16	2133.36
621.51	2120.22
621.85	2108.19
622.20	2095.31
622.55	2082.72
622.89	2069.67
623.24	2056.93
623.59	2043.39
623.93	2030.28
624.28	2017.59
624.62	2005.43
624.97	1992.98
625.32	1981.53
625.66	1970.15
626.01	1958.38
626.35	1947.10
626.70	1935.41
627.04	1923.72
627.39	1912.06
627.73	1900.05
628.08	1888.96
628.43	1877.35
628.77	1865.73
629.12	1853.55
629.46	1842.98
629.81	1831.89
630.15	1821.16
630.50	1809.72
630.84	1798.09
631.19	1787.00
631.53	1776.03
631.88	1764.04
632.22	1752.21
632.57	1741.32
632.91	1730.11
633.26	1718.85
633.60	1707.67
633.95	1697.07
634.29	1685.85
634.64	1674.99
634.98	1663.78
635.32	1653.08
635.67	1643.26
636.01	1632.98
636.36	1622.25
636.70	1611.92
637.05	1601.45
637.39	1591.22
637.73	1581.17
638.08	1572.09
638.42	1562.62
638.77	1552.56
639.11	1542.93
639.45	1533.25
639.80	1522.77
640.14	1512.25
640.49	1502.32
640.83	1491.97
641.17	1481.75
641.52	1471.71
641.86	1461.37
642.20	1451.62
642.55	1441.07
642.89	1430.31
643.23	1419.82
643.58	1410.51
643.92	1399.70
644.26	1389.54
644.61	1379.40
644.95	1369.00
645.29	1358.80
645.64	1347.99
645.98	1337.92
646.32	1327.98
646.66	1317.91
647.01	1308.19
647.35	1298.89
647.69	1288.54
648.04	1278.90
648.38	1268.85
648.72	1258.96
649.06	1248.94
649.41	1239.47
649.75	1229.98
650.09	1220.66
650.43	1211.15
650.78	1201.21
651.12	1191.56
651.46	1182.19
651.80	1173.00
652.14	1163.94
652.49	1154.27
652.83	1144.90
653.17	1134.85
653.51	1125.37
653.85	1116.34
654.20	1107.21
654.54	1097.65
654.88	1088.89
655.22	1079.60
655.56	1070.55
655.90	1061.28
656.25	1052.26
656.59	1043.08
656.93	1034.52
657.27	1025.99
657.61	1017.14
657.95	1008.47
658.29	1000.38
658.64	992.20
658.98	983.38
659.32	974.69
659.66	966.49
660.00	957.98
660.34	949.89
660.68	941.44
661.02	933.00
661.36	925.13
661.70	917.36
662.05	909.77
662.39	902.57
662.73	895.09
663.07	887.93
663.41	880.85
663.75	873.56
664.09	865.94
664.43	858.62
664.77	851.65
665.11	844.61
665.45	837.60
665.79	830.73
666.13	824.12
666.47	817.52
666.81	810.82
667.15	804.14
667.49	798.01
667.83	792.00
668.17	785.83
668.51	779.82
668.85	774.00
669.19	768.12
669.53	761.86
669.87	755.75
670.21	749.83
670.55	743.94
670.89	738.56
671.23	733.39
671.57	727.65
671.91	721.91
672.25	716.26
672.58	710.66
672.92	705.16
673.26	699.76
673.60	694.69
673.94	689.50
674.28	684.62
674.62	679.63
674.96	674.64
675.30	669.82
675.64	664.62
675.97	659.49
676.31	654.60
676.65	649.89
676.99	645.50
677.33	640.78
677.67	636.06
678.01	631.20
678.34	626.33
678.68	621.72
679.02	617.33
679.36	612.98
679.70	608.73
680.04	604.24
680.37	599.70
680.71	595.09
681.05	591.00
681.39	586.68
681.73	582.43
682.06	578.30
682.40	574.27
682.74	570.28
683.08	566.29
683.42	562.12
683.75	558.15
684.09	554.06
684.43	550.03
684.77	545.90
685.10	541.94
685.44	537.92
685.78	534.16
686.12	530.44
686.45	526.72
686.79	522.83
687.13	519.38
687.46	516.00
687.80	512.52
688.14	508.70
688.48	505.32
688.81	501.76
689.15	498.24
689.49	494.75
689.82	491.32
690.16	487.69
690.50	484.13
690.83	480.73
691.17	477.26
691.51	473.93
691.84	470.78
692.18	467.68
692.52	464.73
692.85	461.81
693.19	458.89
693.52	455.86
693.86	452.76
694.20	449.69
694.53	446.73
694.87	443.80
695.21	440.97
695.54	437.89
695.88	434.77
696.21	431.70
696.55	428.95
696.88	426.09
697.22	423.53
697.56	421.14
697.89	418.45
698.23	415.90
698.56	413.30
698.90	410.85
699.23	408.28
699.57	405.79
699.90	403.15
700.24	400.56
700.58	398.10
700.91	396.11
701.25	394.00
701.58	391.65
701.92	389.41
702.25	387.10
702.59	384.97
702.92	382.96
703.26	380.96
703.59	378.79
703.93	377.03
704.26	374.90
704.60	372.83
704.93	370.76
705.26	368.74
705.60	366.84
705.93	364.82
706.27	362.96
706.60	361.12
706.94	359.53
707.27	357.68
707.61	355.90
707.94	353.86
708.27	351.85
708.61	350.00
708.94	348.27
709.28	346.50
709.61	344.78
709.94	343.23
710.28	341.75
710.61	340.19
710.95	338.24
711.28	336.86
711.61	335.19
711.95	333.80
712.28	332.26
712.61	330.82
712.95	329.65
713.28	328.38
713.61	326.91
713.95	325.46
714.28	324.10
714.61	322.74
714.95	321.45
715.28	320.03
715.61	318.75
715.95	317.32
716.28	316.04
716.61	314.82
716.95	313.42
717.28	312.02
717.61	310.79
717.94	309.76
718.28	308.34
718.61	307.16
718.94	305.87
719.27	304.66
719.61	303.53
719.94	302.26
720.27	300.90
720.60	299.75
720.94	298.52
721.27	297.46
721.60	296.48
721.93	295.45
722.27	294.59
722.60	293.71
722.93	292.82
723.26	291.94
723.59	290.82
723.93	289.98
724.26	289.10
724.59	288.20
724.92	287.24
725.25	286.49
725.59	285.68
725.92	284.92
726.25	284.13
726.58	283.26
726.91	282.46
727.24	281.71
727.57	280.95
727.91	280.12
728.24	279.37
728.57	278.57
728.90	277.82
729.23	276.94
729.56	276.24
729.89	275.52
730.22	274.80
730.55	274.15
730.89	273.41
731.22	272.68
731.55	271.96
731.88	271.34
732.21	270.60
732.54	269.86
732.87	269.13
733.20	268.49
733.53	267.88
733.86	267.27
734.19	266.53
734.52	265.96
734.85	265.66
735.18	265.00
735.51	264.51
735.84	263.94
736.17	263.50
736.50	262.77
736.83	262.50
737.16	261.87
737.49	261.37
737.82	260.70
738.15	260.23
738.48	259.63
738.81	258.96
739.14	258.41
739.47	257.90
739.80	257.47
740.13	257.02
740.46	256.44
740.79	255.83
741.12	255.40
741.45	254.86
741.78	254.17
742.11	253.77
742.44	253.14
742.77	252.73
743.10	252.21
743.43	251.71
743.75	250.96
744.08	250.96
744.41	250.40
744.74	250.04
745.07	249.52
745.40	249.18
745.73	248.92
746.06	248.52
746.39	248.14
746.71	247.62
747.04	247.10
747.37	246.73
747.70	246.40
748.03	245.99
748.36	245.62
748.68	245.19
749.01	244.69
749.34	244.32
749.67	243.92
750.00	243.51
750.33	243.40
750.65	242.99
750.98	242.19
751.31	241.95
751.64	241.59
751.97	241.36
752.29	241.00
752.62	240.56
752.95	240.13
753.28	239.68
753.60	239.35
753.93	239.17
754.26	238.87
754.59	238.43
754.91	238.14
755.24	237.85
755.57	237.58
755.90	237.40
756.22	237.05
756.55	236.74
756.88	236.39
757.20	235.93
757.53	235.63
757.86	235.40
758.19	235.07
758.51	234.77
758.84	234.31
759.17	233.99
759.49	233.75
759.82	233.68
760.15	233.56
760.47	233.25
760.80	232.85
761.13	232.55
761.45	232.36
761.78	232.06
762.11	231.75
762.43	231.46
762.76	231.07
763.08	231.00
763.41	230.76
763.74	230.56
764.06	230.29
764.39	230.01
764.71	229.78
765.04	229.58
765.37	229.35
765.69	229.23
766.02	229.03
766.34	228.80
766.67	228.50
767.00	228.30
767.32	228.34
767.65	228.48
767.97	228.28
768.30	228.06
768.62	227.86
768.95	227.70
769.27	227.54
769.60	227.43
769.92	227.14
770.25	226.88
770.57	226.68
770.90	226.49
771.22	226.35
771.55	226.19
771.87	226.02
772.20	225.93
772.52	225.99
772.85	226.18
773.17	225.98
773.50	225.78
773.82	225.54
774.15	225.08
774.47	224.63
774.80	224.50
775.12	224.38
775.45	224.28
775.77	224.05
776.09	223.97
776.42	223.86
776.74	223.81
777.07	223.72
777.39	223.62
777.72	223.47
778.04	223.40
778.36	223.26
778.69	223.17
779.01	223.07
779.33	222.67
779.66	222.28
779.98	222.13
780.31	222.02
780.63	222.12
780.95	222.19
781.28	222.14
781.60	222.03
781.92	221.91
782.25	221.82
782.57	221.72
782.89	221.55
783.22	221.51
783.54	221.33
783.86	221.29
784.19	221.15
784.51	221.19
784.83	220.96
785.16	220.85
785.48	220.75
785.80	220.66
786.12	220.65
786.45	220.47
786.77	220.43
787.09	220.31
787.42	220.12
787.74	220.14
788.06	220.05
788.38	219.98
788.71	219.89
789.03	219.76
789.35	219.86
789.67	219.75
789.99	219.55
790.32	219.44
790.64	219.33
790.96	219.60
791.28	219.42
791.61	219.33
791.93	219.29
792.25	219.19
792.57	219.30
792.89	219.17
793.21	219.22
793.54	219.14
793.86	219.07
794.18	218.92
794.50	218.71
794.82	218.62
795.14	218.55
795.47	218.49
795.79	218.44
796.11	218.18
796.43	218.11
796.75	218.11
797.07	218.10
797.39	217.97
797.71	217.55
798.04	217.46
798.36	217.49
798.68	217.37
799.00	217.31
799.32	217.14
799.64	217.09
799.96	216.97
800.28	217.01
800.60	216.93
800.92	216.93
801.24	216.88
801.56	216.93
801.89	216.88
802.21	216.88
802.53	216.79
802.85	216.82
803.17	216.90
803.49	216.82
803.81	216.68
804.13	216.69
804.45	216.70
804.77	216.72
805.09	216.65
805.41	216.59
805.73	216.47
806.05	216.28
806.37	216.27
806.69	216.20
807.01	216.08
807.33	216.09
807.65	215.96
807.97	216.07
808.28	215.92
808.60	215.89
808.92	215.76
809.24	215.98
809.56	215.94
809.88	215.84
810.20	215.82
810.52	215.92
810.84	215.82
811.16	215.73
811.48	215.65
811.80	215.74
812.12	215.70
812.43	215.73
812.75	215.79
813.07	215.67
813.39	215.64
813.71	215.58
814.03	215.48
814.35	215.44
814.67	215.25
814.98	215.20
815.30	215.10
815.62	215.15
815.94	214.82
816.26	214.80
816.58	214.69
816.89	214.64
817.21	214.51
817.53	214.50
817.85	214.51
818.17	214.46
818.48	214.35
818.80	214.38
819.12	214.31
819.44	214.18
819.76	214.15
820.07	214.13
820.39	214.14
820.71	214.18
821.03	214.13
821.34	214.06
821.66	214.05
821.98	214.05
822.30	213.96
822.61	214.18
822.93	214.09
823.25	214.06
823.57	214.04
823.88	214.11
824.20	214.10
824.52	214.09
824.83	214.09
825.15	214.07
825.47	213.98
825.79	213.98
826.10	213.93
826.42	213.83
826.74	213.89
827.05	213.85
827.37	213.73
827.69	213.66
828.00	213.66
828.32	213.66
828.64	213.60
828.95	213.82
829.27	213.65
829.58	213.66
829.90	213.66
830.22	213.67
830.53	213.47
830.85	213.39
831.17	213.29
831.48	213.27
831.80	213.20
832.11	213.20
832.43	213.16
832.75	213.20
833.06	213.50
833.38	213.33
833.69	213.28
834.01	213.34
834.32	213.38
834.64	213.39
834.96	213.37
835.27	213.35
835.59	213.14
835.90	213.06
836.22	213.01
836.53	212.98
836.85	212.86
837.16	213.25
837.48	213.30
837.79	213.39
838.11	213.41
838.42	213.50
838.74	213.55
839.05	213.51
839.37	213.46
839.68	213.19
840.00	213.24
840.31	213.29
840.63	213.26
840.94	213.23
841.26	213.20
841.57	213.14
841.88	213.26
842.20	213.23
842.51	213.23
842.83	213.23
843.14	213.55
843.46	213.64
843.77	213.55
844.08	213.48
844.40	213.41
844.71	213.35
845.03	213.25
845.34	213.20
845.65	213.24
845.97	213.26
846.28	213.30
846.60	213.23
846.91	213.19
847.22	213.16
847.54	213.23
847.85	213.21
848.16	213.25
848.48	213.05
848.79	213.18
849.10	213.27
849.42	213.30
849.73	212.90
850.04	212.84
850.36	212.65
850.67	212.68
850.98	212.68
851.30	212.69
851.61	212.62
851.92	212.54
852.23	212.55
852.55	212.57
852.86	212.59
853.17	212.65
853.49	212.67
853.80	212.75
854.11	212.78
854.42	212.85
854.74	212.81
855.05	212.93
855.36	212.73
855.67	212.70
855.99	212.70
856.30	213.16
856.61	213.08
856.92	213.19
857.23	213.17
857.55	213.10
857.86	213.09
858.17	213.20
858.48	213.26
858.79	213.24
859.11	213.29
859.42	213.26
859.73	213.26
860.04	213.26
860.35	213.13
860.66	213.05
860.98	212.99
861.29	212.95
861.60	212.90
861.91	212.98
862.22	212.92
862.53	212.90
862.84	212.47
863.16	212.62
863.47	212.47
863.78	212.38
864.09	212.40
864.40	212.46
864.71	212.45
865.02	212.50
865.33	212.49
865.64	212.34
865.95	212.23
866.27	212.42
866.58	212.43
866.89	212.50
867.20	212.45
867.51	212.44
867.82	212.45
868.13	212.53
868.44	212.46
868.75	212.51
869.06	212.51
869.37	212.55
869.68	212.43
869.99	212.44
870.30	212.50
870.61	212.57
870.92	212.46
871.23	212.43
871.54	212.40
871.85	212.47
872.16	212.56
872.47	212.62
872.78	212.48
873.09	212.49
873.40	212.48
873.71	212.50
874.02	212.51
874.33	212.49
874.64	212.43
874.95	212.50
875.26	212.41
875.56	212.38
875.87	212.38
876.18	212.38
876.49	212.70
876.80	212.72
877.11	212.65
877.42	212.67
877.73	212.68
878.04	212.66
878.35	212.63
878.66	212.61
878.96	212.60
879.27	212.53
879.58	212.53
879.89	212.60
880.20	212.63
880.51	212.67
880.82	212.66
881.12	212.65
881.43	212.59
881.74	212.56
882.05	212.56
882.36	212.55
882.67	212.53
882.97	212.18
883.28	212.16
883.59	212.15
883.90	212.20
884.21	212.14
884.51	212.04
884.82	211.97
885.13	211.99
885.44	212.01
885.74	211.99
886.05	211.96
886.36	211.83
886.67	211.79
886.98	211.91
887.28	212.03
887.59	211.98
887.90	211.97
888.20	211.95
888.51	212.10
888.82	212.11
889.13	212.19
889.43	212.48
889.74	212.45
890.05	212.45
890.35	212.37
890.66	212.37
890.97	212.41
891.28	212.39
891.58	212.42
891.89	212.40
892.20	212.38
892.50	212.31
892.81	212.36
893.12	212.35
893.42	212.13
893.73	212.08
894.04	212.10
894.34	212.16
894.65	212.19
894.95	212.05
895.26	212.08
895.57	212.20
895.87	211.89
896.18	211.92
896.48	211.92
896.79	211.93
897.10	211.96
897.40	211.98
897.71	211.98
898.01	211.90
898.32	211.92
898.63	211.85
898.93	211.88
899.24	211.85
899.54	211.87
899.85	211.95
900.15	211.96
900.46	211.98
900.76	211.98
901.07	212.04
901.38	212.05
901.68	211.98
901.99	211.80
902.29	211.82
902.60	211.80
902.90	211.84
903.21	211.81
903.51	211.80
903.82	211.88
904.12	211.94
904.43	211.98
904.73	211.95
905.03	211.98
905.34	212.27
905.64	212.28
905.95	212.16
906.25	212.10
906.56	212.05
906.86	212.06
907.17	211.98
907.47	211.94
907.77	211.90
908.08	211.83
908.38	211.80
908.69	211.82
908.99	211.89
909.30	211.82
909.60	211.90
909.90	211.94
910.21	211.81
910.51	211.78
910.81	211.75
911.12	211.78
911.42	211.79
911.73	211.47
912.03	211.48
912.33	211.61
912.64	211.64
912.94	211.63
913.24	211.55
913.55	211.58
913.85	211.54
914.15	211.62
914.46	211.67
914.76	211.74
915.06	211.76
915.37	211.71
915.67	211.67
915.97	211.62
916.27	211.59
916.58	211.56
916.88	211.52
917.18	211.50
917.49	211.77
917.79	211.78
918.09	211.88
918.39	211.94
918.70	211.92
919.00	211.86
919.30	212.03
919.60	212.00
919.91	212.03
920.21	212.10
920.51	212.05
920.81	212.08
921.12	212.11
921.42	212.08
921.72	212.08
922.02	212.10
922.32	212.23
922.63	212.23
922.93	212.42
923.23	212.46
923.53	212.37
923.83	212.14
924.13	212.20
924.44	212.16
924.74	212.23
925.04	212.28
925.34	212.31
925.64	212.19
925.94	212.16
926.24	212.31
926.55	212.25
926.85	212.27
927.15	212.22
927.45	212.23
927.75	212.20
928.05	212.18
928.35	212.15
928.65	212.14
928.95	212.14
929.26	212.05
929.56	212.14
929.86	212.24
930.16	212.17
930.46	212.12
930.76	212.06
931.06	211.91
931.36	211.87
931.66	211.95
931.96	211.94
932.26	211.98
932.56	211.79
932.86	211.89
933.16	211.96
933.46	211.92
933.76	211.85
934.06	211.96
934.36	212.12
934.66	212.15
934.96	212.08
935.26	212.11
935.56	212.14
935.86	212.05
936.16	212.02
936.46	212.05
936.76	212.01
937.06	212.04
937.36	211.99
937.66	211.99
937.96	211.94
938.26	211.87
938.56	211.89
938.86	211.92
939.16	211.96
939.46	211.88
939.76	211.96
940.06	211.96
940.35	211.88
940.65	211.64
940.95	211.59
941.25	211.50
941.55	211.50
941.85	211.43
942.15	211.48
942.45	211.59
942.75	211.63
943.04	211.56
943.34	211.64
943.64	211.64
943.94	211.58
944.24	211.58
944.54	211.64
944.84	211.60
945.13	211.57
945.43	211.41
945.73	211.35
946.03	211.29
946.33	211.23
946.62	211.14
946.92	211.12
947.22	211.20
947.52	211.27
947.82	211.18
948.11	211.17
948.41	211.05
948.71	210.97
949.01	210.95
949.31	211.00
949.60	211.00
949.90	211.05
950.20	210.99
950.50	210.98
950.79	210.92
951.09	210.96
951.39	210.92
951.69	210.92
951.98	211.03
952.28	211.08
952.58	211.13
952.87	211.13
953.17	211.22
953.47	211.22
953.76	211.24
954.06	211.27
954.36	211.18
954.66	211.19
954.95	211.23
955.25	211.25
955.55	211.28
955.84	211.20
956.14	211.26
956.44	211.33
956.73	211.32
957.03	211.34
957.32	211.36
957.62	211.32
957.92	211.42
958.21	211.35
958.51	211.72
958.81	211.76
959.10	211.90
959.40	211.98
959.69	211.99
959.99	212.00
960.29	212.02
960.58	212.07
960.88	212.19
961.17	212.13
961.47	212.13
961.76	212.08
962.06	212.14
962.36	212.00
962.65	212.03
962.95	212.02
963.24	212.00
963.54	211.99
963.83	212.05
964.13	212.04
964.42	212.01
964.72	211.68
965.01	211.63
965.31	211.55
965.60	211.41
965.90	211.64
966.19	211.57
966.49	211.60
966.78	211.58
967.08	211.57
967.37	211.64
967.67	211.57
967.96	211.61
968.26	211.63
968.55	211.68
968.85	211.63
969.14	211.62
969.43	211.62
969.73	211.54
970.02	211.55
970.32	211.45
970.61	211.46
970.91	211.37
971.20	211.39
971.49	211.37
971.79	211.51
972.08	211.23
972.38	211.28
972.67	211.22
972.96	211.29
973.26	211.24
973.55	211.27
973.85	211.30
974.14	211.34
974.43	211.34
974.73	211.36
975.02	211.33
975.31	211.30
975.61	211.30
975.90	211.30
976.19	211.21
976.49	211.29
976.78	211.27
977.07	211.34
977.37	211.33
977.66	211.35
977.95	211.27
978.24	211.35
978.54	211.43
978.83	211.43
979.12	211.40
979.42	211.41
979.71	211.41
980.00	211.40
980.29	211.41
980.59	211.35
980.88	211.39
981.17	211.44
981.46	211.44
981.76	211.46
982.05	211.64
982.34	211.79
982.63	211.80
982.93	211.80
983.22	211.82
983.51	211.83
983.80	211.90
984.09	211.95
984.39	211.90
984.68	211.81
984.97	211.76
985.26	211.66
985.55	211.63
985.85	211.56
986.14	211.58
986.43	211.57
986.72	211.53
987.01	211.48
987.30	211.44
987.59	211.42
987.89	211.40
988.18	211.23
988.47	211.12
988.76	211.12
989.05	211.13
989.34	211.12
989.63	211.16
989.92	211.02
990.22	210.98
990.51	210.96
990.80	210.96
991.09	211.04
991.38	211.15
991.67	211.19
991.96	211.12
992.25	211.08
992.54	211.02
992.83	211.00
993.12	210.95
993.41	211.05
993.70	211.28
993.99	211.39
994.28	211.46
994.58	211.55
994.87	211.51
995.16	211.52
995.45	211.52
995.74	211.50
996.03	211.58
996.32	211.64
996.61	211.70
996.90	211.75
997.19	211.76
997.48	211.78
997.77	211.68
998.06	211.71
998.34	211.74
998.63	211.73
998.92	211.73
999.21	211.76
999.50	211.66
999.79	211.45
1000.08	211.37
1000.37	211.40
1000.66	211.38
1000.95	211.40
1001.24	211.41
1001.53	211.38
1001.82	211.25
1002.11	211.17
1002.40	211.18
1002.68	211.23
1002.97	211.42
1003.26	211.40
1003.55	211.32
1003.84	211.42
1004.13	211.52
1004.42	211.46
1004.71	211.55
1004.99	211.54
1005.28	211.72
1005.57	211.78
1005.86	211.85
1006.15	211.86
1006.44	211.84
1006.72	211.83
1007.01	211.77
1007.30	211.78
1007.59	211.72
1007.88	211.78
1008.17	211.87
1008.45	211.72
1008.74	211.62
1009.03	211.46
1009.32	211.42
1009.60	211.49
1009.89	211.42
1010.18	211.31
1010.47	211.31
1010.76	211.30
1011.04	211.31
1011.33	211.60
1011.62	211.56
1011.91	211.55
1012.19	211.56
1012.48	211.50
1012.77	211.55
1013.05	211.74
1013.34	211.69
1013.63	211.75
1013.92	211.79
1014.20	211.72
1014.49	211.73
1014.78	211.77
1015.06	211.62
1015.35	211.56
1015.64	211.48
1015.92	211.47
1016.21	211.46
1016.50	211.50
1016.78	211.44
1017.07	211.51
1017.36	211.10
1017.64	211.06
1017.93	210.99
1018.22	210.96
1018.50	211.01
1018.79	211.03
1019.08	210.80
1019.36	210.84
1019.65	210.79
1019.93	210.89
1020.22	210.92
1020.51	211.13
1020.79	211.10
1021.08	211.05
1021.36	211.35
1021.65	212.90
1021.94	209.70
1022.22	211.40
1022.51	210.15
1022.79	213.40
1023.08	211.25
1023.36	214.80
1023.65	210.85
>>>>>End Processed Spectral Data<<<<<
