SpectraSuite Data File
++++++++++++++++++++++++++++++++++++
Date: Mon Feb 25 17:17:34 EST 2013
User: group
Dark Spectrum Present: No
Reference Spectrum Present: No
Number of Sampled Component Spectra: 1
Spectrometers: USB2E7196
Integration Time (usec): 104000 (USB2E7196)
Spectra Averaged: 20 (USB2E7196)
Boxcar Smoothing: 10 (USB2E7196)
Correct for Electrical Dark: No (USB2E7196)
Strobe/Lamp Enabled: No (USB2E7196)
Correct for Detector Non-linearity: No (USB2E7196)
Correct for Stray Light: No (USB2E7196)
Number of Pixels in Processed Spectrum: 2048
>>>>>Begin Processed Spectral Data<<<<<
339.09	0.00
339.48	198.10
339.86	199.20
340.24	201.75
340.63	204.10
341.01	209.05
341.39	206.20
341.78	208.10
342.16	209.00
342.54	210.35
342.93	198.30
343.31	208.36
343.69	208.93
344.07	209.41
344.46	209.86
344.84	210.28
345.22	210.43
345.60	210.70
345.99	210.87
346.37	211.07
346.75	211.10
347.13	211.14
347.52	211.24
347.90	211.49
348.28	211.50
348.66	211.66
349.05	211.61
349.43	211.69
349.81	211.77
350.19	211.79
350.57	211.87
350.96	211.98
351.34	212.03
351.72	212.16
352.10	212.31
352.48	212.36
352.87	212.31
353.25	212.34
353.63	212.37
354.01	212.40
354.39	212.41
354.77	212.46
355.15	212.64
355.54	212.60
355.92	212.46
356.30	212.60
356.68	212.89
357.06	213.01
357.44	212.95
357.82	212.91
358.20	213.03
358.58	213.08
358.97	213.16
359.35	213.29
359.73	213.35
360.11	213.36
360.49	213.37
360.87	213.44
361.25	213.52
361.63	213.63
362.01	213.66
362.39	213.62
362.77	213.70
363.15	213.71
363.53	213.74
363.91	213.80
364.29	213.79
364.67	213.42
365.05	213.38
365.43	213.50
365.81	213.59
366.19	213.78
366.57	213.86
366.95	213.82
367.33	213.66
367.71	213.62
368.09	213.67
368.47	213.78
368.85	213.78
369.23	213.80
369.61	213.68
369.99	213.84
370.37	213.86
370.75	213.98
371.13	213.90
371.51	213.86
371.89	213.98
372.27	213.99
372.65	214.08
373.03	214.07
373.41	214.01
373.78	214.00
374.16	213.76
374.54	213.74
374.92	213.74
375.30	213.76
375.68	213.65
376.06	213.64
376.44	213.54
376.82	213.51
377.19	213.45
377.57	213.44
377.95	213.25
378.33	213.20
378.71	212.97
379.09	213.00
379.47	213.03
379.84	212.90
380.22	212.84
380.60	212.68
380.98	212.60
381.36	212.51
381.73	212.43
382.11	212.55
382.49	212.45
382.87	212.30
383.25	212.32
383.62	212.78
384.00	212.66
384.38	212.62
384.76	212.64
385.13	212.70
385.51	212.64
385.89	212.60
386.27	212.67
386.64	212.70
387.02	212.60
387.40	212.57
387.78	212.59
388.15	212.58
388.53	212.59
388.91	212.55
389.29	212.55
389.66	212.59
390.04	212.48
390.42	212.51
390.79	212.50
391.17	212.42
391.55	212.02
391.92	212.01
392.30	212.06
392.68	211.97
393.05	211.96
393.43	212.02
393.81	212.03
394.18	211.94
394.56	211.96
394.94	212.05
395.31	211.96
395.69	212.06
396.06	212.21
396.44	212.25
396.82	212.25
397.19	212.39
397.57	212.42
397.95	212.50
398.32	212.46
398.70	212.52
399.07	212.64
399.45	212.65
399.82	212.64
400.20	212.61
400.58	212.67
400.95	212.55
401.33	212.71
401.70	212.96
402.08	213.02
402.45	213.09
402.83	213.26
403.20	213.39
403.58	213.44
403.95	213.50
404.33	213.69
404.71	213.86
405.08	214.22
405.46	214.31
405.83	214.45
406.21	214.59
406.58	214.86
406.96	215.04
407.33	215.30
407.70	215.65
408.08	216.17
408.45	216.48
408.83	216.88
409.20	217.06
409.58	217.19
409.95	217.58
410.33	217.98
410.70	218.18
411.08	218.61
411.45	218.95
411.82	219.27
412.20	219.74
412.57	220.47
412.95	220.67
413.32	221.30
413.69	221.86
414.07	222.56
414.44	223.25
414.82	223.91
415.19	224.72
415.56	225.56
415.94	226.25
416.31	227.21
416.68	228.14
417.06	229.30
417.43	230.43
417.81	231.64
418.18	232.85
418.55	234.25
418.93	235.65
419.30	237.17
419.67	238.72
420.04	240.33
420.42	241.84
420.79	243.99
421.16	245.88
421.54	248.04
421.91	250.06
422.28	252.16
422.66	254.45
423.03	256.76
423.40	258.92
423.77	261.29
424.15	263.80
424.52	266.41
424.89	269.21
425.26	271.87
425.64	274.53
426.01	277.30
426.38	280.18
426.75	283.23
427.13	286.36
427.50	289.57
427.87	292.93
428.24	296.38
428.61	299.44
428.99	303.13
429.36	306.90
429.73	310.76
430.10	314.55
430.47	318.41
430.85	322.32
431.22	326.61
431.59	331.38
431.96	335.62
432.33	340.35
432.70	345.00
433.08	350.39
433.45	355.42
433.82	360.49
434.19	366.21
434.56	371.71
434.93	376.87
435.30	382.06
435.68	387.88
436.05	393.50
436.42	399.15
436.79	404.22
437.16	409.86
437.53	415.70
437.90	421.56
438.27	427.33
438.64	433.29
439.01	438.85
439.38	443.45
439.75	448.25
440.13	453.70
440.50	458.54
440.87	462.78
441.24	467.02
441.61	471.68
441.98	475.04
442.35	479.02
442.72	483.03
443.09	487.17
443.46	489.41
443.83	491.05
444.20	492.45
444.57	494.43
444.94	495.29
445.31	496.18
445.68	497.24
446.05	497.51
446.42	496.88
446.79	496.26
447.16	495.48
447.53	494.80
447.90	492.44
448.27	490.25
448.64	487.02
449.01	484.69
449.37	480.83
449.74	476.94
450.11	472.66
450.48	467.77
450.85	462.60
451.22	458.22
451.59	454.02
451.96	450.04
452.33	444.86
452.70	439.99
453.07	434.21
453.43	428.16
453.80	422.80
454.17	417.43
454.54	412.28
454.91	406.75
455.28	401.51
455.65	396.62
456.02	392.21
456.38	388.00
456.75	382.93
457.12	378.71
457.49	374.56
457.86	370.28
458.23	366.87
458.59	362.98
458.96	359.12
459.33	355.71
459.70	352.27
460.07	349.54
460.43	346.39
460.80	343.55
461.17	341.06
461.54	338.27
461.91	335.70
462.27	333.12
462.64	331.14
463.01	328.80
463.38	326.56
463.74	323.79
464.11	321.71
464.48	319.92
464.85	317.90
465.21	316.50
465.58	314.80
465.95	312.79
466.32	311.30
466.68	309.76
467.05	308.23
467.42	306.70
467.78	304.96
468.15	303.50
468.52	302.53
468.88	301.09
469.25	299.73
469.62	298.85
469.98	297.77
470.35	296.80
470.72	295.83
471.08	294.74
471.45	293.98
471.82	293.30
472.18	292.46
472.55	291.90
472.92	291.17
473.28	290.63
473.65	290.07
474.02	289.53
474.38	289.21
474.75	288.88
475.11	288.52
475.48	288.43
475.85	288.25
476.21	288.02
476.58	287.99
476.94	288.12
477.31	288.01
477.67	288.05
478.04	288.06
478.41	288.23
478.77	288.74
479.14	288.93
479.50	289.25
479.87	289.69
480.23	290.18
480.60	290.54
480.96	291.02
481.33	291.82
481.69	292.53
482.06	293.26
482.42	294.00
482.79	294.77
483.15	295.61
483.52	296.75
483.88	297.70
484.25	298.79
484.61	299.95
484.98	301.18
485.34	302.58
485.71	304.12
486.07	305.74
486.44	307.11
486.80	308.86
487.17	310.71
487.53	312.76
487.90	314.88
488.26	317.30
488.62	319.73
488.99	322.21
489.35	324.79
489.72	327.52
490.08	330.41
490.44	333.48
490.81	336.74
491.17	339.96
491.54	343.70
491.90	347.38
492.26	351.23
492.63	355.37
492.99	359.67
493.36	364.15
493.72	368.83
494.08	373.87
494.45	379.09
494.81	384.60
495.17	390.11
495.54	396.01
495.90	401.97
496.26	408.37
496.63	415.02
496.99	422.00
497.35	429.41
497.72	436.86
498.08	444.61
498.44	452.75
498.80	461.48
499.17	470.25
499.53	479.50
499.89	489.18
500.26	499.07
500.62	509.02
500.98	519.60
501.34	530.47
501.71	541.64
502.07	553.11
502.43	564.66
502.79	577.04
503.16	589.65
503.52	602.56
503.88	615.84
504.24	629.46
504.60	643.47
504.97	658.03
505.33	672.86
505.69	688.60
506.05	704.51
506.41	720.38
506.78	736.60
507.14	753.16
507.50	770.32
507.86	787.77
508.22	805.93
508.59	824.04
508.95	842.90
509.31	861.81
509.67	881.42
510.03	901.78
510.39	922.08
510.75	942.71
511.12	963.82
511.48	985.20
511.84	1006.86
512.20	1028.64
512.56	1050.75
512.92	1073.52
513.28	1096.45
513.64	1119.23
514.00	1142.31
514.37	1165.79
514.73	1190.14
515.09	1214.12
515.45	1238.14
515.81	1262.47
516.17	1287.11
516.53	1311.46
516.89	1336.14
517.25	1360.96
517.61	1385.53
517.97	1410.26
518.33	1435.15
518.69	1460.09
519.05	1485.17
519.41	1510.71
519.77	1536.48
520.13	1561.67
520.49	1586.50
520.85	1611.37
521.21	1636.70
521.57	1662.55
521.93	1687.53
522.29	1712.95
522.65	1738.33
523.01	1763.58
523.37	1788.00
523.73	1813.15
524.09	1838.00
524.45	1863.23
524.81	1887.76
525.17	1912.71
525.53	1937.50
525.89	1962.53
526.25	1986.69
526.61	2010.17
526.97	2033.51
527.33	2056.94
527.68	2080.56
528.04	2103.47
528.40	2125.80
528.76	2148.43
529.12	2171.68
529.48	2194.95
529.84	2216.95
530.20	2239.12
530.56	2261.42
530.91	2284.24
531.27	2306.37
531.63	2328.07
531.99	2349.38
532.35	2370.39
532.71	2390.75
533.07	2411.71
533.42	2431.50
533.78	2451.98
534.14	2471.85
534.50	2490.40
534.86	2509.52
535.21	2527.32
535.57	2547.03
535.93	2565.20
536.29	2582.90
536.65	2599.71
537.00	2616.19
537.36	2631.78
537.72	2646.96
538.08	2662.22
538.44	2677.56
538.79	2692.44
539.15	2707.32
539.51	2722.15
539.87	2737.49
540.22	2751.79
540.58	2766.08
540.94	2779.80
541.29	2792.19
541.65	2804.28
542.01	2816.83
542.37	2828.62
542.72	2841.16
543.08	2851.50
543.44	2863.52
543.79	2873.80
544.15	2883.44
544.51	2893.85
544.87	2904.61
545.22	2913.95
545.58	2922.70
545.94	2930.27
546.29	2936.82
546.65	2943.03
547.01	2948.85
547.36	2954.42
547.72	2959.90
548.07	2964.17
548.43	2968.54
548.79	2972.46
549.14	2976.83
549.50	2981.17
549.86	2984.17
550.21	2986.65
550.57	2989.57
550.92	2991.14
551.28	2992.97
551.64	2995.07
551.99	2996.79
552.35	2997.50
552.70	2998.79
553.06	2999.88
553.41	3000.85
553.77	3001.88
554.13	3003.21
554.48	3004.21
554.84	3004.69
555.19	3004.62
555.55	3003.54
555.90	3002.19
556.26	3001.26
556.61	2999.80
556.97	2997.51
557.32	2995.74
557.68	2992.98
558.03	2990.41
558.39	2987.98
558.74	2986.82
559.10	2984.69
559.45	2981.70
559.81	2979.36
560.16	2976.54
560.52	2974.02
560.87	2970.45
561.23	2966.55
561.58	2963.02
561.94	2958.31
562.29	2952.81
562.64	2948.66
563.00	2945.28
563.35	2942.19
563.71	2939.60
564.06	2936.24
564.42	2933.40
564.77	2930.00
565.12	2927.10
565.48	2923.42
565.83	2919.73
566.19	2915.57
566.54	2909.98
566.89	2904.74
567.25	2899.71
567.60	2894.70
567.96	2888.79
568.31	2883.90
568.66	2878.20
569.02	2871.83
569.37	2865.43
569.72	2859.89
570.08	2853.76
570.43	2846.86
570.78	2839.51
571.14	2831.00
571.49	2823.28
571.84	2816.22
572.20	2807.95
572.55	2800.60
572.90	2792.63
573.26	2783.58
573.61	2774.64
573.96	2766.38
574.31	2757.59
574.67	2748.05
575.02	2738.38
575.37	2729.16
575.72	2719.19
576.08	2710.65
576.43	2700.84
576.78	2691.82
577.13	2683.20
577.49	2673.70
577.84	2664.60
578.19	2656.08
578.54	2648.27
578.90	2640.40
579.25	2630.60
579.60	2620.55
579.95	2610.13
580.30	2601.21
580.66	2593.01
581.01	2583.40
581.36	2573.77
581.71	2564.23
582.06	2555.22
582.42	2546.09
582.77	2535.94
583.12	2526.70
583.47	2517.59
583.82	2509.16
584.17	2499.96
584.53	2490.73
584.88	2481.42
585.23	2471.70
585.58	2461.89
585.93	2451.79
586.28	2442.15
586.63	2432.62
586.98	2424.23
587.34	2416.12
587.69	2406.51
588.04	2396.81
588.39	2387.90
588.74	2378.40
589.09	2369.98
589.44	2360.44
589.79	2351.69
590.14	2343.56
590.49	2334.53
590.84	2325.27
591.19	2317.08
591.54	2308.09
591.89	2297.86
592.25	2288.48
592.60	2279.19
592.95	2269.49
593.30	2259.31
593.65	2248.83
594.00	2239.48
594.35	2231.47
594.70	2221.50
595.05	2212.57
595.40	2203.62
595.75	2193.90
596.10	2185.66
596.45	2176.50
596.80	2168.43
597.15	2160.20
597.50	2150.88
597.85	2142.37
598.19	2133.61
598.54	2124.37
598.89	2116.14
599.24	2108.88
599.59	2101.21
599.94	2094.09
600.29	2086.13
600.64	2078.62
600.99	2070.34
601.34	2062.55
601.69	2052.97
602.04	2044.58
602.39	2035.92
602.74	2027.60
603.08	2020.62
603.43	2013.04
603.78	2004.99
604.13	1996.85
604.48	1988.92
604.83	1982.14
605.18	1975.16
605.53	1967.10
605.87	1958.76
606.22	1951.24
606.57	1942.81
606.92	1934.49
607.27	1925.43
607.62	1917.26
607.96	1909.90
608.31	1903.02
608.66	1894.35
609.01	1886.10
609.36	1877.85
609.70	1869.03
610.05	1860.38
610.40	1851.36
610.75	1842.24
611.10	1834.25
611.44	1824.55
611.79	1814.57
612.14	1804.66
612.49	1794.31
612.83	1785.15
613.18	1775.47
613.53	1765.59
613.88	1755.45
614.22	1746.14
614.57	1736.68
614.92	1727.05
615.27	1716.69
615.61	1706.74
615.96	1697.71
616.31	1689.36
616.65	1681.25
617.00	1672.81
617.35	1664.05
617.70	1654.22
618.04	1644.12
618.39	1633.72
618.74	1624.76
619.08	1615.60
619.43	1606.48
619.78	1597.62
620.12	1588.64
620.47	1580.00
620.82	1570.20
621.16	1560.85
621.51	1551.61
621.85	1542.74
622.20	1533.44
622.55	1524.38
622.89	1515.36
623.24	1506.08
623.59	1496.19
623.93	1486.55
624.28	1477.52
624.62	1468.53
624.97	1460.16
625.32	1452.11
625.66	1444.15
626.01	1435.73
626.35	1427.50
626.70	1419.07
627.04	1411.10
627.39	1402.93
627.73	1394.73
628.08	1387.42
628.43	1379.50
628.77	1370.94
629.12	1362.48
629.46	1355.23
629.81	1347.63
630.15	1339.36
630.50	1331.42
630.84	1323.13
631.19	1314.97
631.53	1307.05
631.88	1298.54
632.22	1289.93
632.57	1282.32
632.91	1273.92
633.26	1265.88
633.60	1257.97
633.95	1250.40
634.29	1242.39
634.64	1234.74
634.98	1226.71
635.32	1218.96
635.67	1211.81
636.01	1204.73
636.36	1197.20
636.70	1189.65
637.05	1182.09
637.39	1175.08
637.73	1168.06
638.08	1161.96
638.42	1155.14
638.77	1148.18
639.11	1141.44
639.45	1134.65
639.80	1127.08
640.14	1119.82
640.49	1112.82
640.83	1105.73
641.17	1098.66
641.52	1091.46
641.86	1084.02
642.20	1077.13
642.55	1069.59
642.89	1062.02
643.23	1054.58
643.58	1047.82
643.92	1040.32
644.26	1033.34
644.61	1026.08
644.95	1018.85
645.29	1011.24
645.64	1003.97
645.98	996.82
646.32	990.02
646.66	983.16
647.01	976.51
647.35	970.06
647.69	962.86
648.04	956.20
648.38	949.08
648.72	942.26
649.06	935.47
649.41	928.66
649.75	922.35
650.09	915.97
650.43	909.33
650.78	902.32
651.12	895.76
651.46	889.09
651.80	882.83
652.14	876.31
652.49	869.90
652.83	863.45
653.17	856.58
653.51	849.85
653.85	843.49
654.20	836.98
654.54	830.40
654.88	824.21
655.22	817.71
655.56	811.39
655.90	805.18
656.25	798.98
656.59	792.93
656.93	786.80
657.27	780.83
657.61	774.50
657.95	768.90
658.29	763.24
658.64	757.67
658.98	751.74
659.32	745.93
659.66	740.34
660.00	734.44
660.34	728.87
660.68	723.20
661.02	717.45
661.36	712.06
661.70	706.88
662.05	701.87
662.39	696.86
662.73	691.97
663.07	687.00
663.41	682.00
663.75	676.85
664.09	671.54
664.43	666.41
664.77	661.93
665.11	656.93
665.45	652.06
665.79	647.20
666.13	642.38
666.47	637.59
666.81	632.87
667.15	628.24
667.49	624.12
667.83	619.95
668.17	615.83
668.51	611.67
668.85	607.27
669.19	603.00
669.53	598.74
669.87	594.35
670.21	590.09
670.55	585.93
670.89	582.30
671.23	578.73
671.57	574.96
671.91	570.97
672.25	567.12
672.58	563.30
672.92	559.64
673.26	556.04
673.60	552.65
673.94	548.99
674.28	545.66
674.62	542.05
674.96	538.54
675.30	535.12
675.64	531.56
675.97	528.34
676.31	525.14
676.65	521.92
676.99	519.10
677.33	515.84
677.67	512.72
678.01	509.19
678.34	505.90
678.68	502.72
679.02	499.65
679.36	496.62
679.70	493.59
680.04	490.42
680.37	487.49
680.71	484.32
681.05	481.55
681.39	478.60
681.73	475.58
682.06	472.84
682.40	470.02
682.74	467.20
683.08	464.35
683.42	461.43
683.75	458.60
684.09	455.60
684.43	452.90
684.77	450.06
685.10	447.32
685.44	444.51
685.78	441.76
686.12	439.37
686.45	436.76
686.79	434.15
687.13	431.75
687.46	429.32
687.80	426.90
688.14	424.31
688.48	421.81
688.81	419.33
689.15	416.82
689.49	414.32
689.82	411.95
690.16	409.41
690.50	406.99
690.83	404.58
691.17	401.95
691.51	399.54
691.84	397.36
692.18	395.16
692.52	393.10
692.85	391.20
693.19	388.92
693.52	386.75
693.86	384.55
694.20	382.42
694.53	380.28
694.87	378.21
695.21	376.15
695.54	374.14
695.88	372.08
696.21	370.15
696.55	368.37
696.88	366.50
697.22	364.64
697.56	362.81
697.89	360.90
698.23	359.24
698.56	357.62
698.90	356.03
699.23	354.29
699.57	352.50
699.90	350.57
700.24	348.83
700.58	347.18
700.91	345.64
701.25	344.06
701.58	342.42
701.92	340.88
702.25	339.29
702.59	337.72
702.92	336.25
703.26	334.60
703.59	333.00
703.93	331.80
704.26	330.39
704.60	328.95
704.93	327.54
705.26	326.14
705.60	324.71
705.93	323.17
706.27	321.92
706.60	320.66
706.94	319.56
707.27	318.10
707.61	316.80
707.94	315.44
708.27	313.95
708.61	312.60
708.94	311.30
709.28	310.06
709.61	308.91
709.94	307.77
710.28	306.66
710.61	305.48
710.95	303.88
711.28	302.91
711.61	301.75
711.95	300.75
712.28	299.69
712.61	298.61
712.95	297.69
713.28	296.56
713.61	295.46
713.95	294.43
714.28	293.50
714.61	292.44
714.95	291.51
715.28	290.52
715.61	289.57
715.95	288.61
716.28	287.62
716.61	286.62
716.95	285.71
717.28	284.80
717.61	283.95
717.94	283.15
718.28	282.06
718.61	281.23
718.94	280.38
719.27	279.46
719.61	278.69
719.94	277.84
720.27	276.98
720.60	276.09
720.94	275.24
721.27	274.55
721.60	273.95
721.93	273.16
722.27	272.64
722.60	272.02
722.93	271.40
723.26	270.86
723.59	270.19
723.93	269.56
724.26	268.96
724.59	268.26
724.92	267.66
725.25	267.16
725.59	266.62
725.92	266.09
726.25	265.51
726.58	264.83
726.91	264.25
727.24	263.75
727.57	263.32
727.91	262.73
728.24	262.25
728.57	261.72
728.90	261.35
729.23	260.68
729.56	260.21
729.89	259.66
730.22	259.03
730.55	258.48
730.89	257.93
731.22	257.32
731.55	256.81
731.88	256.39
732.21	255.85
732.54	255.22
732.87	254.66
733.20	254.27
733.53	253.81
733.86	253.35
734.19	252.84
734.52	252.44
734.85	252.30
735.18	251.78
735.51	251.35
735.84	250.88
736.17	250.55
736.50	250.03
736.83	249.96
737.16	249.55
737.49	249.17
737.82	248.80
738.15	248.49
738.48	248.02
738.81	247.58
739.14	247.09
739.47	246.76
739.80	246.28
740.13	245.90
740.46	245.45
740.79	245.01
741.12	244.66
741.45	244.20
741.78	243.59
742.11	243.31
742.44	242.83
742.77	242.45
743.10	242.10
743.43	241.69
743.75	240.99
744.08	241.13
744.41	240.70
744.74	240.25
745.07	239.85
745.40	239.68
745.73	239.42
746.06	239.14
746.39	238.90
746.71	238.69
747.04	238.34
747.37	238.09
747.70	237.82
748.03	237.53
748.36	237.29
748.68	237.01
749.01	236.62
749.34	236.40
749.67	236.15
750.00	235.94
750.33	235.93
750.65	235.66
750.98	234.95
751.31	234.76
751.64	234.52
751.97	234.40
752.29	234.10
752.62	233.73
752.95	233.42
753.28	233.09
753.60	232.76
753.93	232.63
754.26	232.36
754.59	232.05
754.91	231.86
755.24	231.61
755.57	231.33
755.90	231.13
756.22	230.88
756.55	230.59
756.88	230.27
757.20	229.75
757.53	229.44
757.86	229.27
758.19	229.02
758.51	228.91
758.84	228.50
759.17	228.29
759.49	228.09
759.82	228.08
760.15	227.88
760.47	227.72
760.80	227.39
761.13	227.26
761.45	227.02
761.78	226.72
762.11	226.52
762.43	226.34
762.76	226.13
763.08	226.00
763.41	225.90
763.74	225.71
764.06	225.62
764.39	225.47
764.71	225.19
765.04	224.99
765.37	224.74
765.69	224.63
766.02	224.46
766.34	224.36
766.67	224.10
767.00	224.08
767.32	224.17
767.65	224.21
767.97	224.00
768.30	223.93
768.62	223.84
768.95	223.69
769.27	223.54
769.60	223.46
769.92	223.20
770.25	222.99
770.57	222.75
770.90	222.58
771.22	222.49
771.55	222.41
771.87	222.36
772.20	222.22
772.52	222.38
772.85	222.70
773.17	222.53
773.50	222.40
773.82	222.20
774.15	221.86
774.47	221.56
774.80	221.51
775.12	221.40
775.45	221.33
775.77	221.24
776.09	221.23
776.42	221.20
776.74	221.26
777.07	221.10
777.39	221.08
777.72	221.00
778.04	220.87
778.36	220.84
778.69	220.74
779.01	220.73
779.33	220.34
779.66	219.84
779.98	219.75
780.31	219.65
780.63	219.70
780.95	219.63
781.28	219.53
781.60	219.41
781.92	219.35
782.25	219.23
782.57	219.14
782.89	219.03
783.22	218.84
783.54	218.73
783.86	218.72
784.19	218.60
784.51	218.68
784.83	218.56
785.16	218.42
785.48	218.35
785.80	218.21
786.12	218.16
786.45	218.11
786.77	218.15
787.09	218.03
787.42	217.77
787.74	217.78
788.06	217.73
788.38	217.66
788.71	217.51
789.03	217.51
789.35	217.51
789.67	217.37
789.99	217.34
790.32	217.20
790.64	217.21
790.96	217.46
791.28	217.23
791.61	217.23
791.93	217.20
792.25	217.12
792.57	217.37
792.89	217.26
793.21	217.17
793.54	216.99
793.86	216.97
794.18	216.98
794.50	216.82
794.82	216.85
795.14	216.87
795.47	216.91
795.79	216.85
796.11	216.71
796.43	216.65
796.75	216.63
797.07	216.58
797.39	216.45
797.71	216.19
798.04	216.16
798.36	216.10
798.68	215.99
799.00	215.92
799.32	215.66
799.64	215.70
799.96	215.70
800.28	215.75
800.60	215.70
800.92	215.70
801.24	215.65
801.56	215.62
801.89	215.53
802.21	215.51
802.53	215.35
802.85	215.40
803.17	215.54
803.49	215.35
803.81	215.26
804.13	215.26
804.45	215.11
804.77	215.10
805.09	215.09
805.41	215.08
805.73	215.05
806.05	214.95
806.37	214.91
806.69	214.77
807.01	214.70
807.33	214.73
807.65	214.53
807.97	214.66
808.28	214.53
808.60	214.53
808.92	214.44
809.24	214.56
809.56	214.49
809.88	214.32
810.20	214.35
810.52	214.41
810.84	214.30
811.16	214.22
811.48	214.20
811.80	214.23
812.12	214.15
812.43	214.24
812.75	214.25
813.07	214.12
813.39	214.19
813.71	214.16
814.03	214.06
814.35	214.09
814.67	213.99
814.98	213.96
815.30	213.89
815.62	213.77
815.94	213.62
816.26	213.60
816.58	213.53
816.89	213.57
817.21	213.47
817.53	213.51
817.85	213.57
818.17	213.50
818.48	213.35
818.80	213.41
819.12	213.32
819.44	213.29
819.76	213.27
820.07	213.15
820.39	213.14
820.71	213.15
821.03	213.18
821.34	213.09
821.66	213.06
821.98	213.04
822.30	213.04
822.61	213.21
822.93	213.16
823.25	213.11
823.57	213.04
823.88	213.13
824.20	213.19
824.52	213.18
824.83	213.11
825.15	213.10
825.47	213.11
825.79	213.17
826.10	213.12
826.42	213.12
826.74	213.24
827.05	213.20
827.37	213.19
827.69	213.14
828.00	213.21
828.32	213.23
828.64	213.22
828.95	213.42
829.27	213.31
829.58	213.37
829.90	213.45
830.22	213.48
830.53	213.40
830.85	213.33
831.17	213.28
831.48	213.36
831.80	213.37
832.11	213.32
832.43	213.24
832.75	213.20
833.06	213.35
833.38	213.24
833.69	213.23
834.01	213.25
834.32	213.26
834.64	213.16
834.96	213.16
835.27	213.14
835.59	212.95
835.90	212.94
836.22	212.84
836.53	212.84
836.85	212.80
837.16	213.09
837.48	212.95
837.79	213.08
838.11	213.11
838.42	213.05
838.74	213.00
839.05	212.92
839.37	212.95
839.68	212.79
840.00	212.73
840.31	212.80
840.63	212.72
840.94	212.75
841.26	212.76
841.57	212.75
841.88	212.77
842.20	212.79
842.51	212.69
842.83	212.68
843.14	212.97
843.46	212.95
843.77	212.74
844.08	212.80
844.40	212.74
844.71	212.65
845.03	212.67
845.34	212.70
845.65	212.70
845.97	212.73
846.28	212.72
846.60	212.75
846.91	212.66
847.22	212.69
847.54	212.72
847.85	212.68
848.16	212.68
848.48	212.60
848.79	212.77
849.10	212.86
849.42	212.86
849.73	212.50
850.04	212.45
850.36	212.40
850.67	212.45
850.98	212.40
851.30	212.39
851.61	212.32
851.92	212.38
852.23	212.45
852.55	212.46
852.86	212.46
853.17	212.52
853.49	212.55
853.80	212.58
854.11	212.55
854.42	212.65
854.74	212.57
855.05	212.57
855.36	212.34
855.67	212.35
855.99	212.35
856.30	212.71
856.61	212.71
856.92	212.66
857.23	212.63
857.55	212.55
857.86	212.58
858.17	212.72
858.48	212.59
858.79	212.57
859.11	212.60
859.42	212.57
859.73	212.48
860.04	212.49
860.35	212.38
860.66	212.16
860.98	212.10
861.29	212.11
861.60	212.07
861.91	212.19
862.22	212.14
862.53	212.05
862.84	211.71
863.16	211.80
863.47	211.74
863.78	211.75
864.09	211.85
864.40	211.85
864.71	211.82
865.02	211.91
865.33	211.83
865.64	211.73
865.95	211.68
866.27	211.91
866.58	211.83
866.89	211.85
867.20	211.95
867.51	211.91
867.82	211.94
868.13	212.03
868.44	211.95
868.75	211.98
869.06	212.02
869.37	212.04
869.68	211.95
869.99	212.11
870.30	212.10
870.61	212.15
870.92	212.07
871.23	212.04
871.54	212.08
871.85	212.22
872.16	212.27
872.47	212.35
872.78	212.13
873.09	212.22
873.40	212.23
873.71	212.23
874.02	212.25
874.33	212.20
874.64	212.14
874.95	212.19
875.26	212.10
875.56	212.08
875.87	212.05
876.18	212.02
876.49	212.26
876.80	212.28
877.11	212.17
877.42	212.21
877.73	212.15
878.04	212.07
878.35	212.01
878.66	211.97
878.96	211.93
879.27	211.90
879.58	211.88
879.89	211.78
880.20	211.92
880.51	211.95
880.82	212.01
881.12	212.06
881.43	211.91
881.74	211.94
882.05	211.92
882.36	211.94
882.67	212.00
882.97	211.67
883.28	211.60
883.59	211.60
883.90	211.65
884.21	211.80
884.51	211.75
884.82	211.75
885.13	211.78
885.44	211.81
885.74	211.85
886.05	211.83
886.36	211.94
886.67	211.80
886.98	211.97
887.28	211.98
887.59	211.89
887.90	212.03
888.20	211.99
888.51	212.15
888.82	212.12
889.13	212.15
889.43	212.43
889.74	212.43
890.05	212.46
890.35	212.43
890.66	212.29
890.97	212.31
891.28	212.28
891.58	212.27
891.89	212.27
892.20	212.20
892.50	212.19
892.81	212.12
893.12	212.18
893.42	211.92
893.73	211.89
894.04	212.00
894.34	211.97
894.65	211.99
894.95	211.85
895.26	211.85
895.57	211.98
895.87	211.62
896.18	211.62
896.48	211.64
896.79	211.55
897.10	211.56
897.40	211.55
897.71	211.57
898.01	211.47
898.32	211.52
898.63	211.57
898.93	211.57
899.24	211.57
899.54	211.51
899.85	211.52
900.15	211.45
900.46	211.38
900.76	211.34
901.07	211.34
901.38	211.42
901.68	211.47
901.99	211.23
902.29	211.31
902.60	211.29
902.90	211.22
903.21	211.30
903.51	211.31
903.82	211.35
904.12	211.35
904.43	211.44
904.73	211.34
905.03	211.30
905.34	211.62
905.64	211.67
905.95	211.70
906.25	211.73
906.56	211.78
906.86	211.80
907.17	211.81
907.47	211.86
907.77	211.77
908.08	211.69
908.38	211.76
908.69	211.69
908.99	211.76
909.30	211.77
909.60	211.77
909.90	211.87
910.21	211.82
910.51	211.73
910.81	211.74
911.12	211.73
911.42	211.76
911.73	211.44
912.03	211.43
912.33	211.52
912.64	211.52
912.94	211.48
913.24	211.45
913.55	211.45
913.85	211.37
914.15	211.40
914.46	211.40
914.76	211.33
915.06	211.31
915.37	211.22
915.67	211.28
915.97	211.22
916.27	211.06
916.58	211.04
916.88	210.95
917.18	210.91
917.49	211.17
917.79	211.13
918.09	211.19
918.39	211.31
918.70	211.22
919.00	211.20
919.30	211.43
919.60	211.43
919.91	211.40
920.21	211.45
920.51	211.45
920.81	211.49
921.12	211.59
921.42	211.63
921.72	211.65
922.02	211.65
922.32	211.70
922.63	211.79
922.93	211.94
923.23	212.07
923.53	212.05
923.83	211.86
924.13	211.93
924.44	211.89
924.74	211.87
925.04	211.94
925.34	211.91
925.64	211.75
925.94	211.73
926.24	211.90
926.55	211.90
926.85	211.89
927.15	211.86
927.45	211.77
927.75	211.77
928.05	211.85
928.35	211.74
928.65	211.88
928.95	211.86
929.26	211.79
929.56	211.79
929.86	211.82
930.16	211.77
930.46	211.67
930.76	211.69
931.06	211.58
931.36	211.51
931.66	211.60
931.96	211.67
932.26	211.67
932.56	211.54
932.86	211.54
933.16	211.58
933.46	211.49
933.76	211.51
934.06	211.65
934.36	211.73
934.66	211.75
934.96	211.65
935.26	211.64
935.56	211.61
935.86	211.60
936.16	211.57
936.46	211.55
936.76	211.61
937.06	211.55
937.36	211.57
937.66	211.61
937.96	211.61
938.26	211.48
938.56	211.42
938.86	211.44
939.16	211.52
939.46	211.53
939.76	211.64
940.06	211.65
940.35	211.54
940.65	211.32
940.95	211.40
941.25	211.41
941.55	211.45
941.85	211.50
942.15	211.55
942.45	211.62
942.75	211.65
943.04	211.73
943.34	211.81
943.64	211.83
943.94	211.81
944.24	211.77
944.54	211.82
944.84	211.95
945.13	211.88
945.43	211.81
945.73	211.77
946.03	211.71
946.33	211.60
946.62	211.53
946.92	211.58
947.22	211.50
947.52	211.46
947.82	211.43
948.11	211.41
948.41	211.32
948.71	211.25
949.01	211.31
949.31	211.20
949.60	211.15
949.90	211.13
950.20	211.10
950.50	211.07
950.79	211.03
951.09	211.01
951.39	211.03
951.69	211.01
951.98	211.10
952.28	211.16
952.58	211.19
952.87	211.20
953.17	211.28
953.47	211.29
953.76	211.33
954.06	211.30
954.36	211.32
954.66	211.33
954.95	211.43
955.25	211.39
955.55	211.41
955.84	211.35
956.14	211.41
956.44	211.47
956.73	211.48
957.03	211.59
957.32	211.57
957.62	211.55
957.92	211.55
958.21	211.57
958.51	211.99
958.81	212.11
959.10	212.16
959.40	212.18
959.69	212.21
959.99	212.22
960.29	212.20
960.58	212.08
960.88	212.20
961.17	212.14
961.47	212.20
961.76	212.16
962.06	212.19
962.36	212.22
962.65	212.18
962.95	212.13
963.24	212.05
963.54	212.07
963.83	212.06
964.13	212.11
964.42	211.96
964.72	211.65
965.01	211.65
965.31	211.62
965.60	211.49
965.90	211.74
966.19	211.63
966.49	211.67
966.78	211.71
967.08	211.71
967.37	211.70
967.67	211.60
967.96	211.62
968.26	211.64
968.55	211.57
968.85	211.58
969.14	211.61
969.43	211.60
969.73	211.56
970.02	211.63
970.32	211.64
970.61	211.67
970.91	211.56
971.20	211.45
971.49	211.45
971.79	211.52
972.08	211.21
972.38	211.30
972.67	211.22
972.96	211.26
973.26	211.16
973.55	211.30
973.85	211.35
974.14	211.34
974.43	211.33
974.73	211.30
975.02	211.21
975.31	211.17
975.61	211.18
975.90	211.13
976.19	211.05
976.49	211.02
976.78	210.97
977.07	210.97
977.37	210.98
977.66	210.95
977.95	210.93
978.24	210.94
978.54	210.97
978.83	210.99
979.12	210.96
979.42	210.94
979.71	210.83
980.00	210.82
980.29	210.88
980.59	210.82
980.88	210.87
981.17	210.87
981.46	210.87
981.76	210.78
982.05	210.93
982.34	210.95
982.63	210.92
982.93	210.91
983.22	211.04
983.51	211.09
983.80	211.16
984.09	211.14
984.39	211.19
984.68	211.09
984.97	211.10
985.26	211.05
985.55	211.07
985.85	211.08
986.14	211.09
986.43	211.13
986.72	211.11
987.01	211.01
987.30	211.03
987.59	211.05
987.89	211.14
988.18	211.02
988.47	210.98
988.76	210.97
989.05	211.04
989.34	210.98
989.63	211.05
989.92	211.00
990.22	211.02
990.51	211.01
990.80	211.03
991.09	211.10
991.38	211.13
991.67	211.18
991.96	211.04
992.25	211.02
992.54	210.99
992.83	211.03
993.12	211.07
993.41	211.19
993.70	211.33
993.99	211.38
994.28	211.41
994.58	211.48
994.87	211.49
995.16	211.47
995.45	211.45
995.74	211.33
996.03	211.37
996.32	211.43
996.61	211.44
996.90	211.41
997.19	211.36
997.48	211.30
997.77	211.17
998.06	211.33
998.34	211.29
998.63	211.25
998.92	211.24
999.21	211.28
999.50	211.19
999.79	211.04
1000.08	210.97
1000.37	210.94
1000.66	210.87
1000.95	210.95
1001.24	210.92
1001.53	210.87
1001.82	210.85
1002.11	210.76
1002.40	210.80
1002.68	210.98
1002.97	211.20
1003.26	211.13
1003.55	211.15
1003.84	211.20
1004.13	211.22
1004.42	211.25
1004.71	211.21
1004.99	211.23
1005.28	211.28
1005.57	211.25
1005.86	211.22
1006.15	211.19
1006.44	211.21
1006.72	211.31
1007.01	211.21
1007.30	211.16
1007.59	211.17
1007.88	211.09
1008.17	211.11
1008.45	211.04
1008.74	210.79
1009.03	210.69
1009.32	210.74
1009.60	210.73
1009.89	210.74
1010.18	210.56
1010.47	210.57
1010.76	210.58
1011.04	210.57
1011.33	210.61
1011.62	210.72
1011.91	210.73
1012.19	210.83
1012.48	210.80
1012.77	210.69
1013.05	210.78
1013.34	210.89
1013.63	210.97
1013.92	211.08
1014.20	211.06
1014.49	211.11
1014.78	211.17
1015.06	211.05
1015.35	211.04
1015.64	211.07
1015.92	211.15
1016.21	211.19
1016.50	211.19
1016.78	211.26
1017.07	211.29
1017.36	211.22
1017.64	211.09
1017.93	211.18
1018.22	211.10
1018.50	211.14
1018.79	211.16
1019.08	211.08
1019.36	211.18
1019.65	211.02
1019.93	211.09
1020.22	211.23
1020.51	211.29
1020.79	211.19
1021.08	210.50
1021.36	211.00
1021.65	210.70
1021.94	210.95
1022.22	213.60
1022.51	209.40
1022.79	212.30
1023.08	212.40
1023.36	213.85
1023.65	208.90
>>>>>End Processed Spectral Data<<<<<
