SpectraSuite Data File
++++++++++++++++++++++++++++++++++++
Date: Mon Feb 25 17:10:09 EST 2013
User: group
Dark Spectrum Present: No
Reference Spectrum Present: No
Number of Sampled Component Spectra: 1
Spectrometers: USB2E7196
Integration Time (usec): 104000 (USB2E7196)
Spectra Averaged: 20 (USB2E7196)
Boxcar Smoothing: 10 (USB2E7196)
Correct for Electrical Dark: No (USB2E7196)
Strobe/Lamp Enabled: No (USB2E7196)
Correct for Detector Non-linearity: No (USB2E7196)
Correct for Stray Light: No (USB2E7196)
Number of Pixels in Processed Spectrum: 2048
>>>>>Begin Processed Spectral Data<<<<<
339.09	0.00
339.48	199.00
339.86	201.25
340.24	201.20
340.63	203.35
341.01	210.00
341.39	207.00
341.78	207.65
342.16	209.55
342.54	209.15
342.93	198.75
343.31	208.83
343.69	209.34
344.07	209.76
344.46	210.30
344.84	210.66
345.22	210.69
345.60	210.88
345.99	211.03
346.37	211.10
346.75	211.22
347.13	211.24
347.52	211.25
347.90	211.36
348.28	211.34
348.66	211.40
349.05	211.30
349.43	211.27
349.81	211.30
350.19	211.24
350.57	211.27
350.96	211.24
351.34	211.20
351.72	211.22
352.10	211.28
352.48	211.21
352.87	211.22
353.25	211.29
353.63	211.35
354.01	211.38
354.39	211.45
354.77	211.41
355.15	211.51
355.54	211.58
355.92	211.47
356.30	211.61
356.68	211.92
357.06	211.99
357.44	211.92
357.82	211.87
358.20	212.00
358.58	211.99
358.97	212.10
359.35	212.21
359.73	212.39
360.11	212.44
360.49	212.52
360.87	212.61
361.25	212.70
361.63	212.77
362.01	212.83
362.39	212.73
362.77	212.82
363.15	212.90
363.53	212.83
363.91	212.90
364.29	212.82
364.67	212.50
365.05	212.50
365.43	212.58
365.81	212.67
366.19	212.74
366.57	212.83
366.95	212.82
367.33	212.77
367.71	212.71
368.09	212.75
368.47	212.75
368.85	212.75
369.23	212.75
369.61	212.62
369.99	212.72
370.37	212.79
370.75	212.93
371.13	212.86
371.51	212.90
371.89	212.92
372.27	212.99
372.65	212.99
373.03	212.91
373.41	212.90
373.78	212.81
374.16	212.59
374.54	212.53
374.92	212.37
375.30	212.35
375.68	212.27
376.06	212.16
376.44	212.04
376.82	211.98
377.19	211.85
377.57	211.83
377.95	211.67
378.33	211.64
378.71	211.45
379.09	211.38
379.47	211.30
379.84	211.27
380.22	211.19
380.60	211.16
380.98	211.10
381.36	211.00
381.73	210.96
382.11	211.03
382.49	211.04
382.87	211.03
383.25	211.02
383.62	211.34
384.00	211.34
384.38	211.40
384.76	211.40
385.13	211.51
385.51	211.48
385.89	211.32
386.27	211.27
386.64	211.24
387.02	211.19
387.40	211.15
387.78	211.08
388.15	211.11
388.53	210.95
388.91	210.94
389.29	211.01
389.66	211.00
390.04	210.90
390.42	210.90
390.79	210.90
391.17	210.86
391.55	210.49
391.92	210.43
392.30	210.40
392.68	210.27
393.05	210.32
393.43	210.32
393.81	210.48
394.18	210.42
394.56	210.41
394.94	210.46
395.31	210.48
395.69	210.56
396.06	210.60
396.44	210.71
396.82	210.76
397.19	210.90
397.57	210.88
397.95	211.04
398.32	210.94
398.70	210.97
399.07	211.08
399.45	211.06
399.82	211.06
400.20	211.03
400.58	211.10
400.95	210.94
401.33	211.00
401.70	211.18
402.08	211.31
402.45	211.35
402.83	211.51
403.20	211.58
403.58	211.61
403.95	211.64
404.33	211.72
404.71	211.81
405.08	211.97
405.46	212.06
405.83	212.07
406.21	212.18
406.58	212.28
406.96	212.32
407.33	212.58
407.70	212.72
408.08	213.14
408.45	213.33
408.83	213.54
409.20	213.65
409.58	213.60
409.95	213.81
410.33	213.99
410.70	214.10
411.08	214.40
411.45	214.70
411.82	214.94
412.20	215.25
412.57	215.71
412.95	215.78
413.32	216.16
413.69	216.48
414.07	216.84
414.44	217.25
414.82	217.76
415.19	218.20
415.56	218.73
415.94	219.05
416.31	219.73
416.68	220.36
417.06	221.17
417.43	221.99
417.81	222.77
418.18	223.62
418.55	224.43
418.93	225.28
419.30	226.09
419.67	227.11
420.04	228.07
420.42	229.00
420.79	230.51
421.16	231.70
421.54	233.19
421.91	234.58
422.28	235.95
422.66	237.32
423.03	239.02
423.40	240.52
423.77	242.12
424.15	243.61
424.52	245.20
424.89	246.98
425.26	248.59
425.64	250.15
426.01	251.92
426.38	253.85
426.75	255.84
427.13	257.85
427.50	259.85
427.87	262.05
428.24	264.22
428.61	266.11
428.99	268.58
429.36	270.94
429.73	273.33
430.10	275.90
430.47	278.49
430.85	280.81
431.22	283.59
431.59	286.72
431.96	289.53
432.33	292.66
432.70	295.66
433.08	299.31
433.45	302.69
433.82	306.01
434.19	309.70
434.56	313.35
434.93	316.85
435.30	320.36
435.68	324.18
436.05	327.92
436.42	331.61
436.79	335.03
437.16	338.72
437.53	342.72
437.90	346.40
438.27	350.14
438.64	354.18
439.01	357.88
439.38	360.93
439.75	364.19
440.13	367.79
440.50	371.25
440.87	374.07
441.24	376.96
441.61	380.15
441.98	382.50
442.35	385.20
442.72	387.91
443.09	390.62
443.46	392.36
443.83	393.55
444.20	394.53
444.57	395.81
444.94	396.59
445.31	397.35
445.68	398.57
446.05	398.95
446.42	398.54
446.79	398.26
447.16	397.83
447.53	397.60
447.90	396.15
448.27	394.78
448.64	392.87
449.01	391.48
449.37	389.08
449.74	386.62
450.11	383.91
450.48	380.80
450.85	377.61
451.22	374.71
451.59	372.10
451.96	369.64
452.33	366.23
452.70	363.08
453.07	359.29
453.43	355.16
453.80	351.56
454.17	348.09
454.54	344.70
454.91	341.18
455.28	337.72
455.65	334.58
456.02	331.83
456.38	329.04
456.75	325.64
457.12	322.72
457.49	319.95
457.86	317.04
458.23	314.83
458.59	312.20
458.96	309.68
459.33	307.31
459.70	305.03
460.07	303.33
460.43	301.21
460.80	299.22
461.17	297.52
461.54	295.73
461.91	294.02
462.27	292.29
462.64	290.76
463.01	289.09
463.38	287.68
463.74	285.56
464.11	284.10
464.48	282.91
464.85	281.55
465.21	280.60
465.58	279.50
465.95	278.02
466.32	276.99
466.68	275.84
467.05	274.82
467.42	273.70
467.78	272.49
468.15	271.46
468.52	270.74
468.88	269.64
469.25	268.65
469.62	267.91
469.98	267.08
470.35	266.43
470.72	265.67
471.08	264.70
471.45	264.10
471.82	263.51
472.18	262.82
472.55	262.31
472.92	261.67
473.28	261.10
473.65	260.61
474.02	260.11
474.38	259.75
474.75	259.42
475.11	259.00
475.48	258.78
475.85	258.43
476.21	258.12
476.58	257.87
476.94	257.75
477.31	257.55
477.67	257.42
478.04	257.23
478.41	257.15
478.77	257.41
479.14	257.23
479.50	257.10
479.87	257.10
480.23	257.15
480.60	257.14
480.96	257.16
481.33	257.45
481.69	257.51
482.06	257.54
482.42	257.63
482.79	257.79
483.15	257.88
483.52	258.19
483.88	258.40
484.25	258.73
484.61	259.08
484.98	259.42
485.34	259.84
485.71	260.28
486.07	260.65
486.44	260.90
486.80	261.39
487.17	262.02
487.53	262.72
487.90	263.43
488.26	264.21
488.62	265.06
488.99	265.70
489.35	266.56
489.72	267.59
490.08	268.53
490.44	269.47
490.81	270.51
491.17	271.51
491.54	272.72
491.90	273.86
492.26	274.99
492.63	276.27
492.99	277.57
493.36	278.98
493.72	280.60
494.08	282.11
494.45	283.82
494.81	285.60
495.17	287.24
495.54	289.02
495.90	290.81
496.26	292.59
496.63	294.53
496.99	296.59
497.35	298.49
497.72	300.69
498.08	302.94
498.44	305.25
498.80	307.70
499.17	310.24
499.53	312.85
499.89	315.59
500.26	318.24
500.62	320.92
500.98	323.84
501.34	326.72
501.71	329.75
502.07	332.88
502.43	335.88
502.79	339.09
503.16	342.41
503.52	345.74
503.88	349.26
504.24	352.95
504.60	356.53
504.97	360.49
505.33	364.29
505.69	368.51
506.05	372.49
506.41	376.66
506.78	380.59
507.14	384.75
507.50	389.01
507.86	393.41
508.22	398.07
508.59	402.53
508.95	407.25
509.31	412.09
509.67	416.83
510.03	421.84
510.39	426.99
510.75	431.94
511.12	437.21
511.48	442.44
511.84	447.70
512.20	453.08
512.56	458.58
512.92	464.29
513.28	469.67
513.64	475.37
514.00	481.01
514.37	486.92
514.73	492.91
515.09	498.98
515.45	505.02
515.81	510.92
516.17	517.02
516.53	523.00
516.89	528.91
517.25	535.15
517.61	541.30
517.97	547.43
518.33	553.76
518.69	560.00
519.05	566.35
519.41	572.75
519.77	579.57
520.13	585.92
520.49	592.16
520.85	598.64
521.21	605.30
521.57	611.94
521.93	618.47
522.29	625.15
522.65	631.69
523.01	638.34
523.37	644.94
523.73	651.83
524.09	658.44
524.45	665.45
524.81	672.14
525.17	679.13
525.53	685.96
525.89	692.73
526.25	699.68
526.61	706.50
526.97	713.12
527.33	719.76
527.68	726.91
528.04	733.66
528.40	740.26
528.76	746.92
529.12	753.73
529.48	760.72
529.84	767.44
530.20	774.26
530.56	781.20
530.91	788.26
531.27	794.96
531.63	801.81
531.99	808.29
532.35	814.90
532.71	821.21
533.07	828.01
533.42	834.86
533.78	841.24
534.14	847.71
534.50	853.98
534.86	860.24
535.21	866.02
535.57	872.32
535.93	878.37
536.29	884.50
536.65	890.67
537.00	896.20
537.36	901.82
537.72	907.31
538.08	912.92
538.44	918.21
538.79	923.85
539.15	929.47
539.51	935.12
539.87	940.76
540.22	946.12
540.58	951.47
540.94	956.58
541.29	961.42
541.65	966.22
542.01	971.51
542.37	976.40
542.72	981.17
543.08	985.79
543.44	990.65
543.79	994.59
544.15	998.90
544.51	1003.40
544.87	1008.02
545.22	1012.05
545.58	1015.78
545.94	1019.54
546.29	1023.00
546.65	1026.11
547.01	1029.18
547.36	1032.50
547.72	1035.75
548.07	1038.40
548.43	1041.02
548.79	1043.83
549.14	1046.40
549.50	1048.96
549.86	1051.15
550.21	1053.38
550.57	1055.94
550.92	1057.91
551.28	1060.36
551.64	1062.31
551.99	1064.43
552.35	1065.77
552.70	1067.76
553.06	1069.53
553.41	1071.22
553.77	1073.02
554.13	1074.76
554.48	1076.52
554.84	1077.96
555.19	1079.17
555.55	1080.68
555.90	1081.83
556.26	1082.59
556.61	1083.62
556.97	1084.07
557.32	1085.18
557.68	1085.80
558.03	1086.09
558.39	1086.94
558.74	1087.86
559.10	1088.38
559.45	1088.66
559.81	1089.67
560.16	1090.10
560.52	1090.52
560.87	1091.08
561.23	1091.04
561.58	1091.51
561.94	1091.41
562.29	1091.05
562.64	1091.21
563.00	1091.18
563.35	1091.41
563.71	1092.13
564.06	1092.27
564.42	1092.59
564.77	1092.53
565.12	1092.81
565.48	1093.24
565.83	1093.10
566.19	1092.97
566.54	1092.44
566.89	1092.12
567.25	1091.77
567.60	1091.35
567.96	1090.94
568.31	1090.42
568.66	1089.86
569.02	1088.82
569.37	1087.87
569.72	1087.43
570.08	1086.30
570.43	1085.12
570.78	1083.76
571.14	1082.27
571.49	1080.98
571.84	1079.71
572.20	1078.28
572.55	1076.89
572.90	1074.82
573.26	1073.10
573.61	1071.33
573.96	1069.57
574.31	1067.47
574.67	1064.92
575.02	1062.41
575.37	1060.31
575.72	1057.60
576.08	1055.58
576.43	1053.25
576.78	1051.24
577.13	1049.05
577.49	1046.91
577.84	1044.79
578.19	1042.95
578.54	1041.15
578.90	1039.14
579.25	1036.77
579.60	1034.14
579.95	1031.47
580.30	1029.56
580.66	1027.50
581.01	1024.76
581.36	1022.28
581.71	1020.01
582.06	1018.19
582.42	1016.29
582.77	1013.76
583.12	1011.75
583.47	1009.52
583.82	1007.64
584.17	1005.39
584.53	1003.20
584.88	1000.95
585.23	998.55
585.58	996.09
585.93	993.40
586.28	991.24
586.63	988.90
586.98	986.87
587.34	985.09
587.69	982.47
588.04	979.97
588.39	977.89
588.74	975.52
589.09	973.43
589.44	970.57
589.79	968.24
590.14	966.04
590.49	963.69
590.84	961.08
591.19	958.77
591.54	956.24
591.89	953.15
592.25	950.87
592.60	948.20
592.95	945.50
593.30	942.72
593.65	939.74
594.00	936.99
594.35	935.39
594.70	932.60
595.05	930.17
595.40	927.64
595.75	924.69
596.10	922.54
596.45	920.08
596.80	918.00
597.15	915.53
597.50	913.03
597.85	910.77
598.19	908.31
598.54	905.81
598.89	903.42
599.24	901.57
599.59	899.16
599.94	897.25
600.29	894.90
600.64	892.85
600.99	890.41
601.34	888.24
601.69	884.91
602.04	882.37
602.39	879.86
602.74	877.54
603.08	875.72
603.43	873.84
603.78	871.42
604.13	869.08
604.48	866.86
604.83	864.97
605.18	862.84
605.53	860.46
605.87	857.89
606.22	855.77
606.57	853.35
606.92	850.80
607.27	848.18
607.62	845.84
607.96	843.60
608.31	841.55
608.66	839.21
609.01	836.54
609.36	834.04
609.70	831.37
610.05	828.60
610.40	825.99
610.75	822.84
611.10	820.28
611.44	817.02
611.79	813.87
612.14	810.40
612.49	807.06
612.83	804.23
613.18	801.05
613.53	797.83
613.88	794.55
614.22	791.56
614.57	788.52
614.92	785.43
615.27	782.22
615.61	778.92
615.96	775.68
616.31	772.69
616.65	769.96
617.00	767.23
617.35	764.25
617.70	761.10
618.04	757.84
618.39	754.32
618.74	751.47
619.08	748.60
619.43	745.59
619.78	742.58
620.12	739.45
620.47	736.61
620.82	733.35
621.16	729.94
621.51	726.92
621.85	723.64
622.20	720.50
622.55	717.22
622.89	714.02
623.24	711.09
623.59	708.00
623.93	704.84
624.28	701.68
624.62	698.93
624.97	695.97
625.32	693.13
625.66	690.45
626.01	687.51
626.35	684.52
626.70	681.50
627.04	678.73
627.39	675.91
627.73	673.16
628.08	670.57
628.43	667.80
628.77	664.66
629.12	661.74
629.46	659.17
629.81	656.37
630.15	653.69
630.50	650.69
630.84	647.70
631.19	644.85
631.53	642.15
631.88	638.87
632.22	635.75
632.57	633.24
632.91	630.21
633.26	627.39
633.60	624.66
633.95	622.17
634.29	619.36
634.64	616.65
634.98	613.62
635.32	611.10
635.67	608.75
636.01	606.29
636.36	603.61
636.70	601.01
637.05	598.40
637.39	595.82
637.73	593.40
638.08	591.21
638.42	588.85
638.77	586.22
639.11	583.75
639.45	581.33
639.80	578.41
640.14	575.97
640.49	573.41
640.83	570.61
641.17	568.04
641.52	565.37
641.86	562.61
642.20	560.28
642.55	557.47
642.89	554.70
643.23	552.02
643.58	549.83
643.92	546.99
644.26	544.47
644.61	541.91
644.95	539.30
645.29	536.66
645.64	533.94
645.98	531.28
646.32	528.84
646.66	526.12
647.01	523.67
647.35	521.23
647.69	518.69
648.04	516.36
648.38	513.73
648.72	511.30
649.06	508.85
649.41	506.25
649.75	503.76
650.09	501.49
650.43	499.10
650.78	496.39
651.12	493.88
651.46	491.30
651.80	488.78
652.14	486.45
652.49	484.03
652.83	481.50
653.17	479.01
653.51	476.43
653.85	474.17
654.20	471.69
654.54	469.08
654.88	466.60
655.22	464.36
655.56	462.03
655.90	459.60
656.25	457.23
656.59	454.85
656.93	452.54
657.27	450.26
657.61	447.78
657.95	445.63
658.29	443.55
658.64	441.54
658.98	439.42
659.32	437.04
659.66	434.85
660.00	432.68
660.34	430.55
660.68	428.40
661.02	426.24
661.36	424.22
661.70	422.26
662.05	420.36
662.39	418.23
662.73	416.40
663.07	414.65
663.41	412.81
663.75	410.81
664.09	408.91
664.43	406.74
664.77	404.93
665.11	402.95
665.45	401.09
665.79	399.20
666.13	397.35
666.47	395.54
666.81	393.68
667.15	391.87
667.49	390.27
667.83	388.73
668.17	387.04
668.51	385.33
668.85	383.70
669.19	382.20
669.53	380.51
669.87	378.72
670.21	376.91
670.55	375.29
670.89	374.09
671.23	372.55
671.57	371.04
671.91	369.47
672.25	367.90
672.58	366.46
672.92	364.85
673.26	363.32
673.60	361.98
673.94	360.46
674.28	359.10
674.62	357.69
674.96	356.19
675.30	354.77
675.64	353.39
675.97	352.04
676.31	350.67
676.65	349.39
676.99	348.29
677.33	347.00
677.67	345.61
678.01	344.11
678.34	342.87
678.68	341.76
679.02	340.51
679.36	339.25
679.70	337.89
680.04	336.69
680.37	335.44
680.71	334.14
681.05	333.19
681.39	331.88
681.73	330.59
682.06	329.55
682.40	328.40
682.74	327.31
683.08	326.24
683.42	324.92
683.75	323.84
684.09	322.47
684.43	321.36
684.77	320.28
685.10	319.18
685.44	317.91
685.78	316.77
686.12	315.72
686.45	314.59
686.79	313.53
687.13	312.60
687.46	311.64
687.80	310.64
688.14	309.39
688.48	308.49
688.81	307.33
689.15	306.26
689.49	305.20
689.82	304.16
690.16	302.96
690.50	301.97
690.83	300.90
691.17	299.83
691.51	298.72
691.84	297.72
692.18	296.78
692.52	295.89
692.85	295.01
693.19	294.24
693.52	293.43
693.86	292.48
694.20	291.62
694.53	290.72
694.87	289.85
695.21	289.05
695.54	288.13
695.88	287.35
696.21	286.50
696.55	285.80
696.88	284.93
697.22	284.15
697.56	283.47
697.89	282.65
698.23	281.97
698.56	281.30
698.90	280.66
699.23	279.81
699.57	279.08
699.90	278.22
700.24	277.36
700.58	276.68
700.91	275.95
701.25	275.35
701.58	274.70
701.92	274.06
702.25	273.30
702.59	272.64
702.92	272.05
703.26	271.34
703.59	270.57
703.93	270.26
704.26	269.69
704.60	268.99
704.93	268.31
705.26	267.60
705.60	267.16
705.93	266.44
706.27	265.91
706.60	265.38
706.94	264.88
707.27	264.28
707.61	263.57
707.94	262.93
708.27	262.15
708.61	261.47
708.94	260.89
709.28	260.33
709.61	259.82
709.94	259.25
710.28	258.72
710.61	258.30
710.95	257.43
711.28	257.12
711.61	256.65
711.95	256.30
712.28	255.87
712.61	255.28
712.95	254.92
713.28	254.60
713.61	254.11
713.95	253.56
714.28	253.09
714.61	252.67
714.95	252.25
715.28	251.78
715.61	251.33
715.95	250.81
716.28	250.29
716.61	249.83
716.95	249.35
717.28	249.03
717.61	248.56
717.94	248.20
718.28	247.58
718.61	247.15
718.94	246.66
719.27	246.29
719.61	245.85
719.94	245.49
720.27	244.93
720.60	244.52
720.94	244.23
721.27	243.91
721.60	243.65
721.93	243.32
722.27	243.15
722.60	242.87
722.93	242.57
723.26	242.41
723.59	241.99
723.93	241.72
724.26	241.34
724.59	241.05
724.92	240.77
725.25	240.52
725.59	240.19
725.92	239.94
726.25	239.61
726.58	239.37
726.91	239.01
727.24	238.84
727.57	238.50
727.91	238.10
728.24	237.91
728.57	237.56
728.90	237.34
729.23	236.84
729.56	236.80
729.89	236.53
730.22	236.21
730.55	236.01
730.89	235.75
731.22	235.51
731.55	235.14
731.88	234.93
732.21	234.63
732.54	234.37
732.87	234.08
733.20	233.96
733.53	233.70
733.86	233.51
734.19	233.21
734.52	233.11
734.85	233.18
735.18	232.91
735.51	232.78
735.84	232.60
736.17	232.55
736.50	232.12
736.83	232.37
737.16	232.18
737.49	231.95
737.82	231.77
738.15	231.62
738.48	231.50
738.81	231.23
739.14	230.93
739.47	230.77
739.80	230.62
740.13	230.39
740.46	230.18
740.79	229.94
741.12	229.79
741.45	229.52
741.78	229.17
742.11	229.11
742.44	228.94
742.77	228.80
743.10	228.52
743.43	228.41
743.75	227.85
744.08	228.11
744.41	228.01
744.74	227.82
745.07	227.58
745.40	227.52
745.73	227.64
746.06	227.55
746.39	227.40
746.71	227.21
747.04	226.95
747.37	226.84
747.70	226.71
748.03	226.53
748.36	226.40
748.68	226.25
749.01	225.93
749.34	225.72
749.67	225.51
750.00	225.44
750.33	225.42
750.65	225.27
750.98	224.71
751.31	224.49
751.64	224.38
751.97	224.43
752.29	224.22
752.62	223.79
752.95	223.68
753.28	223.56
753.60	223.45
753.93	223.50
754.26	223.34
754.59	223.09
754.91	222.90
755.24	222.78
755.57	222.57
755.90	222.42
756.22	222.27
756.55	222.11
756.88	221.89
757.20	221.60
757.53	221.30
757.86	221.07
758.19	221.02
758.51	220.82
758.84	220.51
759.17	220.31
759.49	220.27
759.82	220.32
760.15	220.19
760.47	219.98
760.80	219.65
761.13	219.52
761.45	219.55
761.78	219.47
762.11	219.37
762.43	219.29
762.76	219.28
763.08	219.20
763.41	219.15
763.74	219.09
764.06	218.98
764.39	219.02
764.71	218.98
765.04	218.77
765.37	218.70
765.69	218.62
766.02	218.55
766.34	218.40
766.67	218.15
767.00	218.09
767.32	218.25
767.65	218.41
767.97	218.41
768.30	218.25
768.62	218.19
768.95	218.10
769.27	218.02
769.60	217.95
769.92	217.87
770.25	217.74
770.57	217.66
770.90	217.50
771.22	217.36
771.55	217.37
771.87	217.38
772.20	217.32
772.52	217.57
772.85	218.00
773.17	217.98
773.50	217.94
773.82	217.79
774.15	217.51
774.47	217.23
774.80	217.06
775.12	217.01
775.45	216.91
775.77	216.84
776.09	216.81
776.42	216.76
776.74	216.77
777.07	216.71
777.39	216.64
777.72	216.70
778.04	216.73
778.36	216.61
778.69	216.56
779.01	216.56
779.33	216.13
779.66	215.60
779.98	215.52
780.31	215.46
780.63	215.59
780.95	215.72
781.28	215.77
781.60	215.70
781.92	215.60
782.25	215.60
782.57	215.54
782.89	215.44
783.22	215.32
783.54	215.24
783.86	215.25
784.19	215.15
784.51	215.21
784.83	215.04
785.16	215.03
785.48	215.02
785.80	214.99
786.12	214.97
786.45	214.96
786.77	214.90
787.09	214.82
787.42	214.70
787.74	214.67
788.06	214.64
788.38	214.61
788.71	214.60
789.03	214.62
789.35	214.64
789.67	214.59
789.99	214.61
790.32	214.53
790.64	214.48
790.96	214.77
791.28	214.52
791.61	214.50
791.93	214.46
792.25	214.35
792.57	214.60
792.89	214.59
793.21	214.57
793.54	214.53
793.86	214.54
794.18	214.54
794.50	214.38
794.82	214.23
795.14	214.28
795.47	214.23
795.79	214.16
796.11	214.10
796.43	214.08
796.75	214.10
797.07	214.09
797.39	214.04
797.71	213.79
798.04	213.79
798.36	213.85
798.68	213.85
799.00	213.85
799.32	213.55
799.64	213.56
799.96	213.52
800.28	213.54
800.60	213.46
800.92	213.44
801.24	213.35
801.56	213.44
801.89	213.35
802.21	213.40
802.53	213.38
802.85	213.41
803.17	213.54
803.49	213.41
803.81	213.34
804.13	213.30
804.45	213.24
804.77	213.35
805.09	213.25
805.41	213.21
805.73	213.20
806.05	213.06
806.37	213.03
806.69	213.02
807.01	212.96
807.33	212.97
807.65	212.85
807.97	213.04
808.28	212.91
808.60	212.90
808.92	212.85
809.24	212.99
809.56	212.90
809.88	212.74
810.20	212.82
810.52	212.91
810.84	212.92
811.16	212.83
811.48	212.72
811.80	212.92
812.12	212.91
812.43	212.99
812.75	213.09
813.07	213.11
813.39	213.09
813.71	213.09
814.03	213.04
814.35	213.02
814.67	212.92
814.98	212.90
815.30	212.87
815.62	212.82
815.94	212.53
816.26	212.57
816.58	212.54
816.89	212.52
817.21	212.40
817.53	212.41
817.85	212.44
818.17	212.37
818.48	212.20
818.80	212.19
819.12	212.15
819.44	212.10
819.76	212.10
820.07	212.14
820.39	212.19
820.71	212.25
821.03	212.27
821.34	212.22
821.66	212.39
821.98	212.46
822.30	212.40
822.61	212.70
822.93	212.63
823.25	212.64
823.57	212.57
823.88	212.65
824.20	212.59
824.52	212.67
824.83	212.70
825.15	212.63
825.47	212.64
825.79	212.64
826.10	212.61
826.42	212.45
826.74	212.49
827.05	212.51
827.37	212.49
827.69	212.42
828.00	212.45
828.32	212.34
828.64	212.27
828.95	212.46
829.27	212.32
829.58	212.37
829.90	212.42
830.22	212.42
830.53	212.31
830.85	212.30
831.17	212.20
831.48	212.20
831.80	212.21
832.11	212.15
832.43	212.09
832.75	212.02
833.06	212.28
833.38	212.09
833.69	212.01
834.01	211.99
834.32	211.99
834.64	211.92
834.96	211.90
835.27	211.93
835.59	211.83
835.90	211.71
836.22	211.71
836.53	211.65
836.85	211.62
837.16	211.96
837.48	212.01
837.79	212.09
838.11	212.08
838.42	212.02
838.74	212.01
839.05	211.93
839.37	211.96
839.68	211.74
840.00	211.68
840.31	211.71
840.63	211.72
840.94	211.63
841.26	211.62
841.57	211.63
841.88	211.61
842.20	211.57
842.51	211.59
842.83	211.51
843.14	211.82
843.46	211.86
843.77	211.71
844.08	211.63
844.40	211.54
844.71	211.54
845.03	211.62
845.34	211.70
845.65	211.67
845.97	211.71
846.28	211.71
846.60	211.77
846.91	211.70
847.22	211.63
847.54	211.72
847.85	211.75
848.16	211.72
848.48	211.70
848.79	211.77
849.10	211.78
849.42	211.85
849.73	211.54
850.04	211.44
850.36	211.30
850.67	211.38
850.98	211.37
851.30	211.43
851.61	211.41
851.92	211.35
852.23	211.49
852.55	211.48
852.86	211.55
853.17	211.64
853.49	211.73
853.80	211.85
854.11	211.88
854.42	211.88
854.74	211.87
855.05	211.87
855.36	211.76
855.67	211.73
855.99	211.67
856.30	212.08
856.61	212.13
856.92	212.08
857.23	212.07
857.55	212.04
857.86	211.96
858.17	211.94
858.48	211.84
858.79	211.82
859.11	211.87
859.42	211.85
859.73	211.74
860.04	211.72
860.35	211.62
860.66	211.53
860.98	211.55
861.29	211.61
861.60	211.61
861.91	211.67
862.22	211.61
862.53	211.59
862.84	211.16
863.16	211.27
863.47	211.30
863.78	211.24
864.09	211.26
864.40	211.28
864.71	211.30
865.02	211.37
865.33	211.28
865.64	211.18
865.95	211.13
866.27	211.42
866.58	211.38
866.89	211.41
867.20	211.40
867.51	211.27
867.82	211.21
868.13	211.33
868.44	211.24
868.75	211.41
869.06	211.43
869.37	211.49
869.68	211.33
869.99	211.36
870.30	211.46
870.61	211.55
870.92	211.55
871.23	211.58
871.54	211.59
871.85	211.68
872.16	211.74
872.47	211.71
872.78	211.43
873.09	211.41
873.40	211.38
873.71	211.42
874.02	211.51
874.33	211.43
874.64	211.33
874.95	211.44
875.26	211.37
875.56	211.38
875.87	211.35
876.18	211.35
876.49	211.71
876.80	211.67
877.11	211.65
877.42	211.62
877.73	211.57
878.04	211.50
878.35	211.45
878.66	211.40
878.96	211.40
879.27	211.45
879.58	211.39
879.89	211.37
880.20	211.48
880.51	211.52
880.82	211.63
881.12	211.64
881.43	211.51
881.74	211.39
882.05	211.34
882.36	211.32
882.67	211.35
882.97	210.93
883.28	210.87
883.59	210.75
883.90	210.80
884.21	210.94
884.51	211.00
884.82	210.98
885.13	210.98
885.44	210.95
885.74	210.87
886.05	211.02
886.36	210.99
886.67	210.83
886.98	211.01
887.28	210.96
887.59	210.92
887.90	210.99
888.20	211.04
888.51	211.12
888.82	211.08
889.13	211.14
889.43	211.44
889.74	211.44
890.05	211.49
890.35	211.44
890.66	211.27
890.97	211.21
891.28	211.19
891.58	211.26
891.89	211.29
892.20	211.36
892.50	211.22
892.81	211.22
893.12	211.24
893.42	211.00
893.73	211.08
894.04	211.08
894.34	211.12
894.65	211.13
894.95	211.07
895.26	211.13
895.57	211.24
895.87	210.88
896.18	210.89
896.48	210.85
896.79	210.87
897.10	210.93
897.40	210.93
897.71	210.99
898.01	210.90
898.32	210.96
898.63	210.94
898.93	211.02
899.24	211.06
899.54	211.04
899.85	211.07
900.15	211.02
900.46	210.97
900.76	210.97
901.07	210.95
901.38	210.94
901.68	210.93
901.99	210.81
902.29	210.87
902.60	210.85
902.90	210.86
903.21	210.83
903.51	210.82
903.82	210.85
904.12	210.82
904.43	210.91
904.73	210.91
905.03	210.93
905.34	211.18
905.64	211.16
905.95	211.20
906.25	211.19
906.56	211.17
906.86	211.25
907.17	211.23
907.47	211.27
907.77	211.23
908.08	211.16
908.38	211.21
908.69	211.30
908.99	211.41
909.30	211.47
909.60	211.50
909.90	211.55
910.21	211.52
910.51	211.49
910.81	211.50
911.12	211.48
911.42	211.57
911.73	211.22
912.03	211.25
912.33	211.28
912.64	211.30
912.94	211.28
913.24	211.23
913.55	211.19
913.85	211.18
914.15	211.30
914.46	211.33
914.76	211.26
915.06	211.22
915.37	211.14
915.67	211.09
915.97	211.09
916.27	210.97
916.58	211.05
916.88	211.03
917.18	210.99
917.49	211.23
917.79	211.12
918.09	211.24
918.39	211.33
918.70	211.35
919.00	211.35
919.30	211.56
919.60	211.55
919.91	211.53
920.21	211.52
920.51	211.43
920.81	211.42
921.12	211.43
921.42	211.42
921.72	211.42
922.02	211.52
922.32	211.58
922.63	211.69
922.93	211.79
923.23	211.88
923.53	211.91
923.83	211.66
924.13	211.73
924.44	211.79
924.74	211.84
925.04	211.90
925.34	211.79
925.64	211.62
925.94	211.62
926.24	211.90
926.55	211.95
926.85	212.03
927.15	212.03
927.45	212.03
927.75	212.05
928.05	212.10
928.35	211.99
928.65	212.06
928.95	212.02
929.26	211.93
929.56	211.89
929.86	211.93
930.16	211.97
930.46	211.94
930.76	211.87
931.06	211.68
931.36	211.54
931.66	211.70
931.96	211.69
932.26	211.72
932.56	211.42
932.86	211.37
933.16	211.35
933.46	211.39
933.76	211.36
934.06	211.43
934.36	211.48
934.66	211.47
934.96	211.32
935.26	211.36
935.56	211.43
935.86	211.46
936.16	211.39
936.46	211.32
936.76	211.30
937.06	211.24
937.36	211.29
937.66	211.34
937.96	211.28
938.26	211.24
938.56	211.20
938.86	211.27
939.16	211.34
939.46	211.38
939.76	211.40
940.06	211.36
940.35	211.31
940.65	211.14
940.95	211.22
941.25	211.18
941.55	211.13
941.85	211.03
942.15	211.01
942.45	211.08
942.75	211.02
943.04	211.02
943.34	211.02
943.64	210.93
943.94	210.83
944.24	210.85
944.54	210.89
944.84	210.92
945.13	210.91
945.43	210.81
945.73	210.70
946.03	210.65
946.33	210.72
946.62	210.65
946.92	210.66
947.22	210.67
947.52	210.74
947.82	210.88
948.11	210.87
948.41	210.85
948.71	210.77
949.01	210.89
949.31	210.88
949.60	210.96
949.90	211.13
950.20	211.14
950.50	211.14
950.79	211.08
951.09	211.08
951.39	211.03
951.69	211.07
951.98	211.18
952.28	211.18
952.58	211.15
952.87	211.17
953.17	211.24
953.47	211.12
953.76	211.10
954.06	210.93
954.36	210.89
954.66	210.88
954.95	210.96
955.25	210.95
955.55	210.96
955.84	210.90
956.14	210.86
956.44	210.85
956.73	210.78
957.03	210.88
957.32	210.89
957.62	210.85
957.92	210.92
958.21	210.89
958.51	211.35
958.81	211.37
959.10	211.44
959.40	211.50
959.69	211.58
959.99	211.60
960.29	211.63
960.58	211.56
960.88	211.73
961.17	211.73
961.47	211.77
961.76	211.78
962.06	211.88
962.36	211.82
962.65	211.85
962.95	211.88
963.24	211.78
963.54	211.75
963.83	211.81
964.13	211.75
964.42	211.71
964.72	211.33
965.01	211.35
965.31	211.30
965.60	211.19
965.90	211.38
966.19	211.33
966.49	211.44
966.78	211.52
967.08	211.38
967.37	211.32
967.67	211.21
967.96	211.18
968.26	211.10
968.55	211.17
968.85	211.15
969.14	211.13
969.43	211.15
969.73	211.20
970.02	211.11
970.32	211.08
970.61	211.04
970.91	210.92
971.20	210.82
971.49	210.75
971.79	210.85
972.08	210.64
972.38	210.65
972.67	210.57
972.96	210.58
973.26	210.56
973.55	210.69
973.85	210.68
974.14	210.67
974.43	210.69
974.73	210.63
975.02	210.62
975.31	210.66
975.61	210.71
975.90	210.67
976.19	210.69
976.49	210.71
976.78	210.74
977.07	210.77
977.37	210.83
977.66	210.90
977.95	210.83
978.24	210.87
978.54	210.95
978.83	210.97
979.12	211.00
979.42	211.00
979.71	210.91
980.00	210.91
980.29	210.94
980.59	210.87
980.88	210.95
981.17	210.98
981.46	210.96
981.76	210.94
982.05	211.05
982.34	211.05
982.63	211.09
982.93	211.12
983.22	211.27
983.51	211.24
983.80	211.32
984.09	211.38
984.39	211.35
984.68	211.36
984.97	211.32
985.26	211.26
985.55	211.30
985.85	211.24
986.14	211.33
986.43	211.38
986.72	211.42
987.01	211.30
987.30	211.28
987.59	211.28
987.89	211.31
988.18	211.17
988.47	211.18
988.76	211.10
989.05	211.08
989.34	211.01
989.63	211.15
989.92	211.03
990.22	211.00
990.51	210.93
990.80	210.86
991.09	210.86
991.38	210.96
991.67	210.98
991.96	210.93
992.25	210.92
992.54	210.83
992.83	210.85
993.12	210.89
993.41	210.93
993.70	211.08
993.99	211.13
994.28	211.19
994.58	211.24
994.87	211.25
995.16	211.22
995.45	211.11
995.74	210.92
996.03	211.02
996.32	211.05
996.61	211.18
996.90	211.16
997.19	211.16
997.48	211.10
997.77	210.98
998.06	211.02
998.34	211.01
998.63	210.99
998.92	210.93
999.21	210.96
999.50	210.93
999.79	210.80
1000.08	210.77
1000.37	210.76
1000.66	210.76
1000.95	210.85
1001.24	210.82
1001.53	210.89
1001.82	210.92
1002.11	210.81
1002.40	210.83
1002.68	210.84
1002.97	211.07
1003.26	211.01
1003.55	210.94
1003.84	210.98
1004.13	211.12
1004.42	211.08
1004.71	211.09
1004.99	211.10
1005.28	211.18
1005.57	211.14
1005.86	211.06
1006.15	211.03
1006.44	211.02
1006.72	211.08
1007.01	210.99
1007.30	211.05
1007.59	211.10
1007.88	211.13
1008.17	211.18
1008.45	211.11
1008.74	210.98
1009.03	210.88
1009.32	210.93
1009.60	211.03
1009.89	211.02
1010.18	210.91
1010.47	210.92
1010.76	210.99
1011.04	210.98
1011.33	211.00
1011.62	211.06
1011.91	211.15
1012.19	211.22
1012.48	211.25
1012.77	211.16
1013.05	211.34
1013.34	211.34
1013.63	211.28
1013.92	211.29
1014.20	211.37
1014.49	211.43
1014.78	211.54
1015.06	211.43
1015.35	211.41
1015.64	211.39
1015.92	211.50
1016.21	211.46
1016.50	211.45
1016.78	211.48
1017.07	211.51
1017.36	211.45
1017.64	211.46
1017.93	211.50
1018.22	211.39
1018.50	211.36
1018.79	211.44
1019.08	211.30
1019.36	211.34
1019.65	211.28
1019.93	211.40
1020.22	211.40
1020.51	211.54
1020.79	211.46
1021.08	210.20
1021.36	210.85
1021.65	212.30
1021.94	210.95
1022.22	211.80
1022.51	209.50
1022.79	213.55
1023.08	212.45
1023.36	215.25
1023.65	210.55
>>>>>End Processed Spectral Data<<<<<
