SpectraSuite Data File
++++++++++++++++++++++++++++++++++++
Date: Mon Feb 25 16:56:36 EST 2013
User: group
Dark Spectrum Present: No
Reference Spectrum Present: No
Number of Sampled Component Spectra: 1
Spectrometers: USB2E7196
Integration Time (usec): 104000 (USB2E7196)
Spectra Averaged: 20 (USB2E7196)
Boxcar Smoothing: 10 (USB2E7196)
Correct for Electrical Dark: No (USB2E7196)
Strobe/Lamp Enabled: No (USB2E7196)
Correct for Detector Non-linearity: No (USB2E7196)
Correct for Stray Light: No (USB2E7196)
Number of Pixels in Processed Spectrum: 2048
>>>>>Begin Processed Spectral Data<<<<<
339.09	0.00
339.48	199.90
339.86	199.80
340.24	202.05
340.63	202.40
341.01	211.00
341.39	205.80
341.78	208.55
342.16	210.00
342.54	210.00
342.93	199.02
343.31	209.11
343.69	209.65
344.07	210.13
344.46	210.67
344.84	211.18
345.22	211.19
345.60	211.52
345.99	211.75
346.37	211.86
346.75	212.00
347.13	212.15
347.52	212.28
347.90	212.37
348.28	212.39
348.66	212.51
349.05	212.39
349.43	212.46
349.81	212.56
350.19	212.59
350.57	212.66
350.96	212.81
351.34	212.88
351.72	212.93
352.10	213.10
352.48	213.07
352.87	213.04
353.25	213.15
353.63	213.10
354.01	213.08
354.39	213.16
354.77	213.12
355.15	213.22
355.54	213.21
355.92	213.21
356.30	213.31
356.68	213.50
357.06	213.70
357.44	213.67
357.82	213.59
358.20	213.68
358.58	213.69
358.97	213.71
359.35	213.80
359.73	213.95
360.11	213.90
360.49	213.94
360.87	213.94
361.25	213.98
361.63	214.14
362.01	214.24
362.39	214.21
362.77	214.28
363.15	214.24
363.53	214.24
363.91	214.25
364.29	214.24
364.67	213.98
365.05	213.86
365.43	213.89
365.81	213.93
366.19	213.92
366.57	214.04
366.95	213.97
367.33	213.85
367.71	213.76
368.09	213.77
368.47	213.73
368.85	213.77
369.23	213.79
369.61	213.72
369.99	213.74
370.37	213.74
370.75	213.93
371.13	213.84
371.51	213.69
371.89	213.67
372.27	213.60
372.65	213.58
373.03	213.59
373.41	213.44
373.78	213.46
374.16	213.36
374.54	213.22
374.92	213.15
375.30	213.17
375.68	213.08
376.06	213.12
376.44	213.04
376.82	212.97
377.19	212.89
377.57	212.80
377.95	212.64
378.33	212.58
378.71	212.27
379.09	212.31
379.47	212.33
379.84	212.31
380.22	212.27
380.60	212.18
380.98	212.10
381.36	212.05
381.73	211.93
382.11	211.94
382.49	211.93
382.87	211.88
383.25	211.77
383.62	212.16
384.00	212.10
384.38	212.15
384.76	212.17
385.13	212.26
385.51	212.27
385.89	212.25
386.27	212.26
386.64	212.35
387.02	212.23
387.40	212.25
387.78	212.23
388.15	212.28
388.53	212.24
388.91	212.24
389.29	212.27
389.66	212.35
390.04	212.27
390.42	212.29
390.79	212.39
391.17	212.45
391.55	212.06
391.92	212.01
392.30	211.98
392.68	211.95
393.05	211.90
393.43	211.92
393.81	211.93
394.18	211.84
394.56	211.80
394.94	211.86
395.31	211.85
395.69	211.98
396.06	212.03
396.44	212.12
396.82	212.15
397.19	212.40
397.57	212.40
397.95	212.49
398.32	212.45
398.70	212.49
399.07	212.60
399.45	212.71
399.82	212.75
400.20	212.87
400.58	212.96
400.95	212.98
401.33	213.15
401.70	213.47
402.08	213.66
402.45	213.88
402.83	214.15
403.20	214.30
403.58	214.43
403.95	214.66
404.33	214.97
404.71	215.25
405.08	215.56
405.46	215.85
405.83	216.14
406.21	216.47
406.58	216.85
406.96	217.20
407.33	217.60
407.70	218.15
408.08	218.87
408.45	219.50
408.83	220.15
409.20	220.82
409.58	221.28
409.95	221.94
410.33	222.63
410.70	223.36
411.08	224.31
411.45	225.26
411.82	226.20
412.20	227.26
412.57	228.58
412.95	229.60
413.32	230.95
413.69	232.43
414.07	233.95
414.44	235.62
414.82	237.32
415.19	239.35
415.56	241.29
415.94	243.22
416.31	245.59
416.68	247.88
417.06	250.46
417.43	253.08
417.81	256.10
418.18	259.17
418.55	262.48
418.93	265.94
419.30	269.56
419.67	273.42
420.04	277.33
420.42	281.41
420.79	286.21
421.16	291.00
421.54	295.93
421.91	301.02
422.28	306.35
422.66	312.05
423.03	317.56
423.40	323.41
423.77	329.70
424.15	336.05
424.52	342.76
424.89	350.05
425.26	357.14
425.64	363.84
426.01	371.17
426.38	378.83
426.75	386.76
427.13	395.03
427.50	403.69
427.87	412.65
428.24	421.64
428.61	430.18
428.99	439.78
429.36	450.16
429.73	460.49
430.10	470.65
430.47	481.03
430.85	492.10
431.22	503.74
431.59	515.80
431.96	527.44
432.33	540.27
432.70	552.87
433.08	567.65
433.45	581.72
433.82	596.00
434.19	611.68
434.56	627.08
434.93	641.99
435.30	656.80
435.68	673.49
436.05	690.14
436.42	706.75
436.79	721.72
437.16	738.12
437.53	755.34
437.90	772.67
438.27	789.72
438.64	807.35
439.01	823.82
439.38	839.02
439.75	853.57
440.13	870.32
440.50	885.70
440.87	898.71
441.24	912.40
441.61	927.27
441.98	938.53
442.35	951.69
442.72	964.70
443.09	977.25
443.46	985.36
443.83	990.95
444.20	996.11
444.57	1003.21
444.94	1007.20
445.31	1011.35
445.68	1014.98
446.05	1017.55
446.42	1017.22
446.79	1016.63
447.16	1015.76
447.53	1015.55
447.90	1010.46
448.27	1005.66
448.64	998.12
449.01	992.80
449.37	982.57
449.74	973.00
450.11	960.94
450.48	947.85
450.85	934.78
451.22	923.27
451.59	912.51
451.96	902.22
452.33	888.20
452.70	875.31
453.07	859.65
453.43	843.92
453.80	828.58
454.17	813.80
454.54	799.80
454.91	784.48
455.28	769.74
455.65	756.20
456.02	742.47
456.38	730.95
456.75	716.39
457.12	704.23
457.49	692.22
457.86	680.56
458.23	670.41
458.59	659.31
458.96	648.24
459.33	638.40
459.70	628.47
460.07	620.61
460.43	611.75
460.80	603.24
461.17	595.95
461.54	588.11
461.91	580.73
462.27	573.21
462.64	567.05
463.01	559.95
463.38	552.88
463.74	545.95
464.11	539.95
464.48	534.71
464.85	529.04
465.21	524.46
465.58	519.70
465.95	514.12
466.32	509.42
466.68	504.82
467.05	500.14
467.42	495.48
467.78	490.43
468.15	485.62
468.52	482.30
468.88	477.77
469.25	473.80
469.62	470.52
469.98	466.99
470.35	463.73
470.72	460.54
471.08	457.37
471.45	454.60
471.82	451.65
472.18	448.49
472.55	446.17
472.92	443.42
473.28	441.20
473.65	438.92
474.02	436.59
474.38	434.76
474.75	433.26
475.11	431.44
475.48	430.11
475.85	428.97
476.21	427.75
476.58	426.76
476.94	425.97
477.31	425.10
477.67	424.31
478.04	423.67
478.41	423.35
478.77	423.12
479.14	422.65
479.50	422.46
479.87	422.57
480.23	422.67
480.60	422.69
480.96	422.64
481.33	423.35
481.69	423.96
482.06	424.29
482.42	424.49
482.79	425.12
483.15	426.13
483.52	427.31
483.88	428.30
484.25	429.29
484.61	430.49
484.98	431.77
485.34	433.38
485.71	435.05
486.07	436.74
486.44	438.38
486.80	440.40
487.17	442.55
487.53	444.97
487.90	447.50
488.26	450.35
488.62	453.31
488.99	455.98
489.35	458.95
489.72	462.21
490.08	465.73
490.44	469.20
490.81	472.70
491.17	476.13
491.54	480.12
491.90	484.14
492.26	488.32
492.63	492.65
492.99	497.10
493.36	501.73
493.72	506.73
494.08	511.96
494.45	517.48
494.81	523.10
495.17	528.64
495.54	534.47
495.90	540.26
496.26	546.18
496.63	552.37
496.99	558.69
497.35	565.26
497.72	572.02
498.08	578.90
498.44	585.98
498.80	593.51
499.17	600.91
499.53	608.47
499.89	616.36
500.26	624.08
500.62	631.74
500.98	639.93
501.34	647.96
501.71	656.18
502.07	664.20
502.43	672.31
502.79	680.30
503.16	688.64
503.52	697.22
503.88	705.77
504.24	714.40
504.60	723.04
504.97	731.87
505.33	740.64
505.69	749.89
506.05	758.96
506.41	767.71
506.78	776.39
507.14	785.16
507.50	793.66
507.86	802.52
508.22	811.37
508.59	819.73
508.95	828.31
509.31	836.95
509.67	845.58
510.03	854.21
510.39	863.44
510.75	872.16
511.12	880.80
511.48	889.38
511.84	897.86
512.20	906.19
512.56	914.51
512.92	922.84
513.28	930.77
513.64	938.48
514.00	946.65
514.37	954.56
514.73	962.99
515.09	970.95
515.45	978.64
515.81	986.40
516.17	994.05
516.53	1001.52
516.89	1008.56
517.25	1015.59
517.61	1022.55
517.97	1028.94
518.33	1035.41
518.69	1041.92
519.05	1048.34
519.41	1054.80
519.77	1061.55
520.13	1067.52
520.49	1073.33
520.85	1079.21
521.21	1085.49
521.57	1091.17
521.93	1096.62
522.29	1102.10
522.65	1107.57
523.01	1112.78
523.37	1117.55
523.73	1122.71
524.09	1127.62
524.45	1132.64
524.81	1137.96
525.17	1143.35
525.53	1148.29
525.89	1153.16
526.25	1157.68
526.61	1161.90
526.97	1166.09
527.33	1170.24
527.68	1174.75
528.04	1178.98
528.40	1182.75
528.76	1186.41
529.12	1190.29
529.48	1194.48
529.84	1197.96
530.20	1201.58
530.56	1205.45
530.91	1209.68
531.27	1213.26
531.63	1216.92
531.99	1220.48
532.35	1223.57
532.71	1226.45
533.07	1230.11
533.42	1233.43
533.78	1236.97
534.14	1240.18
534.50	1243.10
534.86	1246.13
535.21	1248.81
535.57	1252.03
535.93	1254.89
536.29	1257.70
536.65	1260.33
537.00	1262.85
537.36	1265.22
537.72	1267.29
538.08	1269.52
538.44	1271.46
538.79	1273.99
539.15	1276.27
539.51	1278.47
539.87	1280.95
540.22	1283.14
540.58	1285.44
540.94	1287.58
541.29	1289.13
541.65	1290.72
542.01	1292.73
542.37	1294.42
542.72	1296.19
543.08	1297.62
543.44	1299.46
543.79	1300.64
544.15	1302.06
544.51	1303.87
544.87	1305.57
545.22	1307.21
545.58	1308.49
545.94	1309.63
546.29	1310.13
546.65	1310.75
547.01	1311.57
547.36	1312.13
547.72	1312.61
548.07	1312.82
548.43	1312.87
548.79	1313.09
549.14	1313.62
549.50	1313.85
549.86	1313.90
550.21	1314.04
550.57	1314.69
550.92	1314.84
551.28	1315.12
551.64	1315.09
551.99	1315.06
552.35	1314.93
552.70	1314.99
553.06	1315.12
553.41	1315.13
553.77	1315.55
554.13	1315.97
554.48	1315.98
554.84	1316.35
555.19	1316.64
555.55	1316.88
555.90	1316.83
556.26	1316.82
556.61	1316.83
556.97	1316.64
557.32	1316.58
557.68	1316.50
558.03	1315.64
558.39	1315.00
558.74	1314.78
559.10	1314.64
559.45	1314.02
559.81	1313.90
560.16	1313.21
560.52	1312.86
560.87	1312.50
561.23	1311.36
561.58	1311.04
561.94	1310.39
562.29	1308.97
562.64	1308.27
563.00	1307.21
563.35	1306.52
563.71	1306.57
564.06	1306.10
564.42	1305.72
564.77	1305.48
565.12	1305.07
565.48	1304.97
565.83	1304.71
566.19	1304.46
566.54	1303.43
566.89	1302.68
567.25	1302.07
567.60	1301.71
567.96	1301.43
568.31	1301.19
568.66	1300.84
569.02	1299.47
569.37	1298.17
569.72	1297.63
570.08	1296.59
570.43	1295.60
570.78	1294.43
571.14	1292.55
571.49	1290.96
571.84	1289.50
572.20	1287.72
572.55	1285.84
572.90	1283.22
573.26	1280.85
573.61	1278.19
573.96	1276.39
574.31	1273.86
574.67	1270.98
575.02	1268.01
575.37	1264.75
575.72	1261.24
576.08	1258.50
576.43	1255.49
576.78	1252.85
577.13	1250.00
577.49	1247.24
577.84	1244.35
578.19	1241.76
578.54	1239.28
578.90	1236.91
579.25	1233.98
579.60	1230.40
579.95	1227.11
580.30	1224.39
580.66	1221.80
581.01	1218.88
581.36	1215.46
581.71	1212.37
582.06	1209.30
582.42	1206.37
582.77	1202.80
583.12	1199.63
583.47	1196.46
583.82	1193.38
584.17	1190.07
584.53	1186.80
584.88	1183.15
585.23	1179.47
585.58	1175.72
585.93	1171.90
586.28	1168.19
586.63	1164.61
586.98	1161.30
587.34	1158.24
587.69	1154.66
588.04	1150.87
588.39	1147.21
588.74	1143.51
589.09	1140.20
589.44	1136.29
589.79	1132.83
590.14	1129.68
590.49	1126.16
590.84	1122.35
591.19	1119.10
591.54	1115.70
591.89	1111.43
592.25	1107.86
592.60	1103.98
592.95	1099.95
593.30	1095.76
593.65	1091.41
594.00	1086.91
594.35	1084.04
594.70	1079.59
595.05	1075.95
595.40	1071.99
595.75	1068.10
596.10	1064.46
596.45	1060.50
596.80	1057.16
597.15	1053.31
597.50	1049.00
597.85	1045.08
598.19	1041.02
598.54	1036.90
598.89	1032.81
599.24	1029.50
599.59	1025.40
599.94	1021.67
600.29	1018.03
600.64	1014.19
600.99	1010.21
601.34	1006.80
601.69	1001.86
602.04	997.95
602.39	993.72
602.74	990.03
603.08	986.35
603.43	982.72
603.78	978.57
604.13	974.48
604.48	970.72
604.83	967.47
605.18	964.19
605.53	960.38
605.87	956.29
606.22	952.65
606.57	948.35
606.92	944.21
607.27	940.25
607.62	936.29
607.96	932.55
608.31	929.07
608.66	924.90
609.01	920.94
609.36	917.02
609.70	912.90
610.05	908.59
610.40	904.39
610.75	900.00
611.10	896.27
611.44	891.76
611.79	887.17
612.14	882.52
612.49	877.57
612.83	873.35
613.18	868.90
613.53	864.26
613.88	859.80
614.22	855.60
614.57	851.23
614.92	846.82
615.27	842.61
615.61	838.28
615.96	834.33
616.31	830.34
616.65	826.45
617.00	822.39
617.35	818.52
617.70	814.25
618.04	809.85
618.39	805.26
618.74	801.19
619.08	796.97
619.43	792.93
619.78	789.15
620.12	785.16
620.47	781.47
620.82	777.26
621.16	773.19
621.51	769.20
621.85	765.23
622.20	761.35
622.55	757.25
622.89	752.92
623.24	748.75
623.59	744.53
623.93	740.36
624.28	736.53
624.62	732.76
624.97	728.97
625.32	725.25
625.66	721.59
626.01	717.90
626.35	714.34
626.70	710.29
627.04	706.63
627.39	702.97
627.73	699.27
628.08	696.07
628.43	692.46
628.77	688.93
629.12	685.05
629.46	681.53
629.81	677.91
630.15	674.60
630.50	671.09
630.84	667.47
631.19	664.16
631.53	660.81
631.88	656.91
632.22	653.25
632.57	650.07
632.91	646.78
633.26	643.43
633.60	640.01
633.95	637.12
634.29	633.64
634.64	630.45
634.98	626.96
635.32	623.69
635.67	620.81
636.01	617.68
636.36	614.79
636.70	611.93
637.05	608.95
637.39	606.15
637.73	603.37
638.08	600.82
638.42	597.94
638.77	595.00
639.11	592.24
639.45	589.50
639.80	586.47
640.14	583.44
640.49	580.62
640.83	577.67
641.17	574.64
641.52	571.80
641.86	568.65
642.20	566.07
642.55	562.86
642.89	559.91
643.23	556.90
643.58	554.29
643.92	551.30
644.26	548.60
644.61	545.65
644.95	542.70
645.29	539.78
645.64	536.99
645.98	534.06
646.32	531.39
646.66	528.53
647.01	525.73
647.35	523.20
647.69	520.42
648.04	517.97
648.38	515.30
648.72	512.71
649.06	510.32
649.41	507.62
649.75	505.10
650.09	502.69
650.43	500.27
650.78	497.55
651.12	494.73
651.46	492.07
651.80	489.62
652.14	487.20
652.49	484.72
652.83	482.13
653.17	479.65
653.51	477.02
653.85	474.85
654.20	472.56
654.54	470.00
654.88	467.57
655.22	465.07
655.56	462.69
655.90	460.17
656.25	457.70
656.59	455.24
656.93	453.00
657.27	450.63
657.61	448.12
657.95	445.85
658.29	443.64
658.64	441.53
658.98	439.20
659.32	436.86
659.66	434.66
660.00	432.33
660.34	430.07
660.68	427.88
661.02	425.54
661.36	423.24
661.70	421.18
662.05	419.09
662.39	417.22
662.73	415.36
663.07	413.66
663.41	411.76
663.75	409.88
664.09	407.96
664.43	405.93
664.77	404.20
665.11	402.10
665.45	400.33
665.79	398.51
666.13	396.62
666.47	394.84
666.81	392.93
667.15	391.12
667.49	389.52
667.83	387.99
668.17	386.31
668.51	384.66
668.85	383.10
669.19	381.59
669.53	379.76
669.87	377.96
670.21	376.27
670.55	374.61
670.89	373.20
671.23	371.70
671.57	370.30
671.91	368.87
672.25	367.58
672.58	366.22
672.92	364.60
673.26	363.24
673.60	361.74
673.94	360.39
674.28	359.03
674.62	357.63
674.96	356.25
675.30	354.92
675.64	353.62
675.97	352.17
676.31	350.89
676.65	349.63
676.99	348.55
677.33	347.14
677.67	345.83
678.01	344.36
678.34	343.08
678.68	341.77
679.02	340.39
679.36	339.11
679.70	337.81
680.04	336.64
680.37	335.37
680.71	334.20
681.05	333.10
681.39	331.92
681.73	330.78
682.06	329.63
682.40	328.44
682.74	327.31
683.08	326.27
683.42	325.05
683.75	323.88
684.09	322.59
684.43	321.44
684.77	320.32
685.10	319.18
685.44	317.98
685.78	316.87
686.12	315.86
686.45	314.84
686.79	313.73
687.13	312.68
687.46	311.75
687.80	310.70
688.14	309.51
688.48	308.68
688.81	307.68
689.15	306.71
689.49	305.79
689.82	304.81
690.16	303.71
690.50	302.67
690.83	301.80
691.17	300.73
691.51	299.74
691.84	298.90
692.18	298.11
692.52	297.32
692.85	296.56
693.19	295.78
693.52	294.90
693.86	293.97
694.20	293.10
694.53	292.17
694.87	291.27
695.21	290.47
695.54	289.49
695.88	288.63
696.21	287.69
696.55	286.85
696.88	286.10
697.22	285.32
697.56	284.61
697.89	283.83
698.23	283.17
698.56	282.48
698.90	281.70
699.23	280.85
699.57	280.11
699.90	279.25
700.24	278.45
700.58	277.68
700.91	277.05
701.25	276.57
701.58	275.93
701.92	275.40
702.25	274.70
702.59	273.95
702.92	273.21
703.26	272.61
703.59	271.91
703.93	271.51
704.26	270.92
704.60	270.23
704.93	269.58
705.26	268.90
705.60	268.27
705.93	267.58
706.27	267.10
706.60	266.56
706.94	266.10
707.27	265.47
707.61	264.88
707.94	264.29
708.27	263.52
708.61	262.76
708.94	262.21
709.28	261.67
709.61	261.22
709.94	260.72
710.28	260.22
710.61	259.74
710.95	258.89
711.28	258.63
711.61	258.12
711.95	257.62
712.28	257.18
712.61	256.69
712.95	256.48
713.28	256.06
713.61	255.47
713.95	254.88
714.28	254.35
714.61	253.92
714.95	253.40
715.28	252.95
715.61	252.58
715.95	252.05
716.28	251.53
716.61	251.05
716.95	250.57
717.28	250.07
717.61	249.65
717.94	249.24
718.28	248.47
718.61	248.14
718.94	247.76
719.27	247.43
719.61	247.02
719.94	246.45
720.27	245.93
720.60	245.60
720.94	245.21
721.27	244.93
721.60	244.58
721.93	244.27
722.27	244.01
722.60	243.79
722.93	243.42
723.26	243.27
723.59	242.90
723.93	242.64
724.26	242.23
724.59	241.91
724.92	241.65
725.25	241.50
725.59	241.14
725.92	240.90
726.25	240.49
726.58	240.29
726.91	239.99
727.24	239.76
727.57	239.43
727.91	239.19
728.24	238.92
728.57	238.65
728.90	238.39
729.23	238.00
729.56	237.84
729.89	237.62
730.22	237.24
730.55	237.02
730.89	236.86
731.22	236.71
731.55	236.53
731.88	236.29
732.21	235.96
732.54	235.72
732.87	235.39
733.20	235.14
733.53	234.87
733.86	234.67
734.19	234.42
734.52	234.34
734.85	234.37
735.18	234.11
735.51	234.00
735.84	233.88
736.17	233.80
736.50	233.44
736.83	233.59
737.16	233.39
737.49	233.22
737.82	232.88
738.15	232.67
738.48	232.36
738.81	232.10
739.14	231.90
739.47	231.75
739.80	231.55
740.13	231.43
740.46	231.15
740.79	230.95
741.12	230.75
741.45	230.51
741.78	230.10
742.11	229.95
742.44	229.63
742.77	229.43
743.10	229.20
743.43	228.94
743.75	228.42
744.08	228.63
744.41	228.36
744.74	228.18
745.07	227.90
745.40	227.84
745.73	227.85
746.06	227.71
746.39	227.51
746.71	227.38
747.04	227.18
747.37	227.02
747.70	226.94
748.03	226.78
748.36	226.64
748.68	226.46
749.01	226.24
749.34	226.11
749.67	225.94
750.00	225.82
750.33	225.95
750.65	225.86
750.98	225.33
751.31	225.21
751.64	225.11
751.97	225.24
752.29	225.10
752.62	224.78
752.95	224.64
753.28	224.45
753.60	224.19
753.93	224.15
754.26	224.09
754.59	223.79
754.91	223.63
755.24	223.46
755.57	223.30
755.90	223.19
756.22	223.06
756.55	222.92
756.88	222.70
757.20	222.37
757.53	222.13
757.86	221.94
758.19	221.88
758.51	221.80
758.84	221.48
759.17	221.30
759.49	221.15
759.82	221.13
760.15	221.05
760.47	220.96
760.80	220.75
761.13	220.74
761.45	220.66
761.78	220.51
762.11	220.44
762.43	220.31
762.76	220.19
763.08	220.14
763.41	220.00
763.74	219.93
764.06	219.81
764.39	219.70
764.71	219.70
765.04	219.57
765.37	219.31
765.69	219.25
766.02	219.10
766.34	219.12
766.67	218.89
767.00	218.88
767.32	219.05
767.65	219.11
767.97	218.94
768.30	218.86
768.62	218.85
768.95	218.71
769.27	218.62
769.60	218.63
769.92	218.48
770.25	218.30
770.57	218.12
770.90	218.07
771.22	217.92
771.55	217.87
771.87	217.72
772.20	217.74
772.52	217.89
772.85	218.26
773.17	218.20
773.50	218.10
773.82	217.96
774.15	217.72
774.47	217.50
774.80	217.41
775.12	217.33
775.45	217.15
775.77	217.10
776.09	217.08
776.42	216.98
776.74	216.99
777.07	217.05
777.39	216.99
777.72	216.91
778.04	216.96
778.36	216.88
778.69	216.92
779.01	216.90
779.33	216.61
779.66	216.22
779.98	216.06
780.31	216.10
780.63	216.17
780.95	216.18
781.28	216.16
781.60	216.04
781.92	216.04
782.25	216.09
782.57	216.07
782.89	216.04
783.22	215.99
783.54	215.93
783.86	215.81
784.19	215.85
784.51	215.86
784.83	215.73
785.16	215.64
785.48	215.59
785.80	215.51
786.12	215.49
786.45	215.44
786.77	215.48
787.09	215.43
787.42	215.29
787.74	215.20
788.06	215.06
788.38	215.05
788.71	214.97
789.03	214.94
789.35	214.95
789.67	214.79
789.99	214.79
790.32	214.66
790.64	214.65
790.96	214.87
791.28	214.77
791.61	214.71
791.93	214.71
792.25	214.64
792.57	214.84
792.89	214.71
793.21	214.66
793.54	214.57
793.86	214.49
794.18	214.44
794.50	214.35
794.82	214.44
795.14	214.47
795.47	214.46
795.79	214.32
796.11	214.24
796.43	214.24
796.75	214.21
797.07	214.22
797.39	214.19
797.71	213.95
798.04	213.90
798.36	213.94
798.68	213.92
799.00	213.91
799.32	213.72
799.64	213.83
799.96	213.79
800.28	213.85
800.60	213.84
800.92	213.89
801.24	213.91
801.56	213.93
801.89	213.93
802.21	213.97
802.53	213.94
802.85	213.98
803.17	214.19
803.49	214.04
803.81	214.09
804.13	214.04
804.45	213.95
804.77	214.00
805.09	213.99
805.41	213.97
805.73	213.98
806.05	213.95
806.37	213.90
806.69	213.88
807.01	213.76
807.33	213.72
807.65	213.54
807.97	213.69
808.28	213.59
808.60	213.53
808.92	213.50
809.24	213.75
809.56	213.69
809.88	213.49
810.20	213.58
810.52	213.53
810.84	213.52
811.16	213.53
811.48	213.49
811.80	213.63
812.12	213.62
812.43	213.61
812.75	213.51
813.07	213.45
813.39	213.43
813.71	213.45
814.03	213.44
814.35	213.45
814.67	213.29
814.98	213.25
815.30	213.20
815.62	213.07
815.94	212.81
816.26	212.73
816.58	212.63
816.89	212.65
817.21	212.60
817.53	212.61
817.85	212.60
818.17	212.52
818.48	212.32
818.80	212.36
819.12	212.27
819.44	212.23
819.76	212.22
820.07	212.20
820.39	212.12
820.71	212.09
821.03	212.09
821.34	212.05
821.66	212.06
821.98	212.10
822.30	212.15
822.61	212.35
822.93	212.40
823.25	212.39
823.57	212.40
823.88	212.44
824.20	212.46
824.52	212.55
824.83	212.57
825.15	212.56
825.47	212.49
825.79	212.58
826.10	212.65
826.42	212.65
826.74	212.72
827.05	212.75
827.37	212.73
827.69	212.76
828.00	212.74
828.32	212.72
828.64	212.73
828.95	212.88
829.27	212.82
829.58	212.79
829.90	212.93
830.22	212.87
830.53	212.82
830.85	212.76
831.17	212.59
831.48	212.52
831.80	212.52
832.11	212.48
832.43	212.40
832.75	212.34
833.06	212.49
833.38	212.31
833.69	212.28
834.01	212.38
834.32	212.32
834.64	212.32
834.96	212.35
835.27	212.25
835.59	212.10
835.90	211.95
836.22	211.94
836.53	211.82
836.85	211.72
837.16	212.03
837.48	212.02
837.79	212.20
838.11	212.28
838.42	212.34
838.74	212.39
839.05	212.31
839.37	212.29
839.68	212.10
840.00	212.14
840.31	212.18
840.63	212.06
840.94	212.01
841.26	211.98
841.57	211.90
841.88	211.96
842.20	211.91
842.51	211.91
842.83	211.93
843.14	212.20
843.46	212.28
843.77	212.08
844.08	212.12
844.40	212.01
844.71	211.97
845.03	211.91
845.34	211.86
845.65	211.91
845.97	211.93
846.28	211.96
846.60	211.98
846.91	211.90
847.22	211.92
847.54	212.02
847.85	212.04
848.16	212.05
848.48	212.02
848.79	212.20
849.10	212.27
849.42	212.27
849.73	211.94
850.04	211.94
850.36	211.91
850.67	211.92
850.98	211.89
851.30	211.89
851.61	211.88
851.92	211.87
852.23	211.93
852.55	211.91
852.86	211.85
853.17	211.89
853.49	212.00
853.80	212.05
854.11	212.07
854.42	212.09
854.74	212.15
855.05	212.14
855.36	211.98
855.67	212.00
855.99	212.02
856.30	212.44
856.61	212.41
856.92	212.33
857.23	212.36
857.55	212.31
857.86	212.31
858.17	212.38
858.48	212.35
858.79	212.29
859.11	212.30
859.42	212.27
859.73	212.20
860.04	212.19
860.35	212.06
860.66	211.97
860.98	211.92
861.29	211.87
861.60	211.80
861.91	211.83
862.22	211.71
862.53	211.56
862.84	211.20
863.16	211.27
863.47	211.23
863.78	211.19
864.09	211.25
864.40	211.25
864.71	211.16
865.02	211.17
865.33	211.12
865.64	211.08
865.95	211.16
866.27	211.38
866.58	211.34
866.89	211.43
867.20	211.40
867.51	211.42
867.82	211.42
868.13	211.46
868.44	211.40
868.75	211.43
869.06	211.50
869.37	211.56
869.68	211.50
869.99	211.56
870.30	211.53
870.61	211.54
870.92	211.48
871.23	211.50
871.54	211.54
871.85	211.63
872.16	211.68
872.47	211.61
872.78	211.42
873.09	211.46
873.40	211.45
873.71	211.50
874.02	211.53
874.33	211.49
874.64	211.47
874.95	211.52
875.26	211.45
875.56	211.45
875.87	211.42
876.18	211.26
876.49	211.58
876.80	211.57
877.11	211.51
877.42	211.61
877.73	211.61
878.04	211.59
878.35	211.59
878.66	211.57
878.96	211.55
879.27	211.60
879.58	211.55
879.89	211.51
880.20	211.62
880.51	211.52
880.82	211.53
881.12	211.55
881.43	211.50
881.74	211.51
882.05	211.49
882.36	211.50
882.67	211.62
882.97	211.26
883.28	211.22
883.59	211.25
883.90	211.25
884.21	211.35
884.51	211.32
884.82	211.27
885.13	211.30
885.44	211.27
885.74	211.24
886.05	211.23
886.36	211.29
886.67	211.09
886.98	211.32
887.28	211.32
887.59	211.32
887.90	211.29
888.20	211.28
888.51	211.35
888.82	211.27
889.13	211.33
889.43	211.63
889.74	211.58
890.05	211.56
890.35	211.51
890.66	211.35
890.97	211.33
891.28	211.23
891.58	211.23
891.89	211.31
892.20	211.19
892.50	211.22
892.81	211.10
893.12	211.16
893.42	211.03
893.73	211.06
894.04	211.08
894.34	211.16
894.65	211.10
894.95	211.09
895.26	211.13
895.57	211.24
895.87	210.86
896.18	210.91
896.48	210.88
896.79	210.84
897.10	211.00
897.40	211.03
897.71	211.12
898.01	211.07
898.32	211.06
898.63	211.15
898.93	211.16
899.24	211.20
899.54	211.21
899.85	211.20
900.15	211.19
900.46	211.19
900.76	211.19
901.07	211.30
901.38	211.21
901.68	211.20
901.99	211.01
902.29	211.09
902.60	211.10
902.90	211.03
903.21	211.06
903.51	210.97
903.82	211.09
904.12	211.10
904.43	211.07
904.73	211.02
905.03	211.04
905.34	211.35
905.64	211.33
905.95	211.34
906.25	211.25
906.56	211.23
906.86	211.21
907.17	211.20
907.47	211.21
907.77	211.18
908.08	211.15
908.38	211.19
908.69	211.22
908.99	211.19
909.30	211.33
909.60	211.35
909.90	211.37
910.21	211.20
910.51	211.20
910.81	211.27
911.12	211.35
911.42	211.34
911.73	210.94
912.03	210.95
912.33	210.97
912.64	211.06
912.94	210.96
913.24	210.96
913.55	210.93
913.85	210.84
914.15	210.99
914.46	211.02
914.76	210.94
915.06	210.95
915.37	210.91
915.67	210.84
915.97	210.81
916.27	210.74
916.58	210.80
916.88	210.70
917.18	210.67
917.49	210.88
917.79	210.86
918.09	211.03
918.39	211.18
918.70	211.15
919.00	211.12
919.30	211.28
919.60	211.25
919.91	211.22
920.21	211.25
920.51	211.20
920.81	211.11
921.12	211.19
921.42	211.17
921.72	211.28
922.02	211.28
922.32	211.35
922.63	211.37
922.93	211.48
923.23	211.62
923.53	211.53
923.83	211.29
924.13	211.29
924.44	211.22
924.74	211.31
925.04	211.38
925.34	211.33
925.64	211.25
925.94	211.23
926.24	211.43
926.55	211.50
926.85	211.52
927.15	211.56
927.45	211.57
927.75	211.62
928.05	211.58
928.35	211.59
928.65	211.61
928.95	211.63
929.26	211.47
929.56	211.47
929.86	211.56
930.16	211.60
930.46	211.65
930.76	211.65
931.06	211.42
931.36	211.37
931.66	211.49
931.96	211.54
932.26	211.54
932.56	211.37
932.86	211.32
933.16	211.34
933.46	211.27
933.76	211.29
934.06	211.27
934.36	211.33
934.66	211.34
934.96	211.31
935.26	211.36
935.56	211.44
935.86	211.40
936.16	211.30
936.46	211.24
936.76	211.18
937.06	211.14
937.36	211.16
937.66	211.22
937.96	211.17
938.26	211.08
938.56	211.07
938.86	211.11
939.16	211.14
939.46	211.11
939.76	211.17
940.06	211.10
940.35	211.05
940.65	210.89
940.95	210.88
941.25	210.80
941.55	210.73
941.85	210.72
942.15	210.73
942.45	210.83
942.75	210.76
943.04	210.77
943.34	210.82
943.64	210.76
943.94	210.67
944.24	210.67
944.54	210.74
944.84	210.76
945.13	210.72
945.43	210.70
945.73	210.67
946.03	210.68
946.33	210.64
946.62	210.64
946.92	210.64
947.22	210.65
947.52	210.67
947.82	210.71
948.11	210.70
948.41	210.68
948.71	210.63
949.01	210.69
949.31	210.68
949.60	210.61
949.90	210.69
950.20	210.69
950.50	210.65
950.79	210.59
951.09	210.61
951.39	210.61
951.69	210.59
951.98	210.71
952.28	210.76
952.58	210.77
952.87	210.77
953.17	210.82
953.47	210.77
953.76	210.79
954.06	210.79
954.36	210.73
954.66	210.64
954.95	210.78
955.25	210.80
955.55	210.81
955.84	210.75
956.14	210.80
956.44	210.86
956.73	210.78
957.03	210.78
957.32	210.77
957.62	210.73
957.92	210.77
958.21	210.70
958.51	211.03
958.81	211.09
959.10	211.06
959.40	211.17
959.69	211.21
959.99	211.25
960.29	211.22
960.58	211.29
960.88	211.47
961.17	211.37
961.47	211.45
961.76	211.42
962.06	211.52
962.36	211.50
962.65	211.40
962.95	211.49
963.24	211.49
963.54	211.54
963.83	211.55
964.13	211.51
964.42	211.38
964.72	211.16
965.01	211.21
965.31	211.26
965.60	211.12
965.90	211.35
966.19	211.22
966.49	211.31
966.78	211.25
967.08	211.25
967.37	211.27
967.67	211.20
967.96	211.22
968.26	211.25
968.55	211.23
968.85	211.27
969.14	211.27
969.43	211.30
969.73	211.26
970.02	211.27
970.32	211.30
970.61	211.34
970.91	211.25
971.20	211.19
971.49	211.16
971.79	211.29
972.08	211.02
972.38	211.12
972.67	211.11
972.96	211.23
973.26	211.14
973.55	211.19
973.85	211.21
974.14	211.23
974.43	211.25
974.73	211.18
975.02	211.19
975.31	211.21
975.61	211.23
975.90	211.23
976.19	211.24
976.49	211.29
976.78	211.36
977.07	211.29
977.37	211.32
977.66	211.33
977.95	211.24
978.24	211.32
978.54	211.35
978.83	211.23
979.12	211.07
979.42	211.06
979.71	211.00
980.00	210.95
980.29	210.95
980.59	210.88
980.88	211.03
981.17	211.01
981.46	210.96
981.76	210.96
982.05	211.08
982.34	211.03
982.63	210.97
982.93	210.99
983.22	211.09
983.51	211.10
983.80	211.19
984.09	211.25
984.39	211.17
984.68	211.11
984.97	211.18
985.26	211.23
985.55	211.30
985.85	211.28
986.14	211.30
986.43	211.32
986.72	211.28
987.01	211.11
987.30	211.18
987.59	211.21
987.89	211.12
988.18	210.96
988.47	210.95
988.76	210.96
989.05	210.88
989.34	210.89
989.63	210.97
989.92	210.91
990.22	210.88
990.51	210.93
990.80	210.90
991.09	210.87
991.38	210.95
991.67	210.88
991.96	210.90
992.25	210.97
992.54	210.93
992.83	210.91
993.12	210.92
993.41	210.89
993.70	210.96
993.99	211.05
994.28	211.07
994.58	211.15
994.87	211.09
995.16	211.04
995.45	210.93
995.74	210.76
996.03	210.76
996.32	210.77
996.61	210.81
996.90	210.76
997.19	210.76
997.48	210.72
997.77	210.63
998.06	210.63
998.34	210.55
998.63	210.56
998.92	210.63
999.21	210.69
999.50	210.71
999.79	210.59
1000.08	210.64
1000.37	210.63
1000.66	210.54
1000.95	210.65
1001.24	210.70
1001.53	210.79
1001.82	210.82
1002.11	210.71
1002.40	210.74
1002.68	210.82
1002.97	211.12
1003.26	211.09
1003.55	211.10
1003.84	211.20
1004.13	211.26
1004.42	211.21
1004.71	211.23
1004.99	211.20
1005.28	211.26
1005.57	211.29
1005.86	211.28
1006.15	211.21
1006.44	211.20
1006.72	211.28
1007.01	211.21
1007.30	211.27
1007.59	211.22
1007.88	211.25
1008.17	211.36
1008.45	211.27
1008.74	211.12
1009.03	210.96
1009.32	210.96
1009.60	210.85
1009.89	210.80
1010.18	210.69
1010.47	210.79
1010.76	210.73
1011.04	210.72
1011.33	210.70
1011.62	210.66
1011.91	210.66
1012.19	210.74
1012.48	210.75
1012.77	210.74
1013.05	210.89
1013.34	210.87
1013.63	210.77
1013.92	210.70
1014.20	210.60
1014.49	210.69
1014.78	210.70
1015.06	210.58
1015.35	210.55
1015.64	210.63
1015.92	210.72
1016.21	210.75
1016.50	210.67
1016.78	210.72
1017.07	210.69
1017.36	210.64
1017.64	210.62
1017.93	210.69
1018.22	210.57
1018.50	210.52
1018.79	210.54
1019.08	210.32
1019.36	210.29
1019.65	210.26
1019.93	210.36
1020.22	210.45
1020.51	210.59
1020.79	210.56
1021.08	209.90
1021.36	209.00
1021.65	211.30
1021.94	209.20
1022.22	210.15
1022.51	209.00
1022.79	211.80
1023.08	210.85
1023.36	214.75
1023.65	209.90
>>>>>End Processed Spectral Data<<<<<
