SpectraSuite Data File
++++++++++++++++++++++++++++++++++++
Date: Mon Feb 25 17:01:33 EST 2013
User: group
Dark Spectrum Present: No
Reference Spectrum Present: No
Number of Sampled Component Spectra: 1
Spectrometers: USB2E7196
Integration Time (usec): 104000 (USB2E7196)
Spectra Averaged: 20 (USB2E7196)
Boxcar Smoothing: 10 (USB2E7196)
Correct for Electrical Dark: No (USB2E7196)
Strobe/Lamp Enabled: No (USB2E7196)
Correct for Detector Non-linearity: No (USB2E7196)
Correct for Stray Light: No (USB2E7196)
Number of Pixels in Processed Spectrum: 2048
>>>>>Begin Processed Spectral Data<<<<<
339.09	0.00
339.48	197.65
339.86	200.05
340.24	200.85
340.63	202.60
341.01	209.05
341.39	204.55
341.78	206.90
342.16	209.35
342.54	208.60
342.93	198.05
343.31	208.05
343.69	208.56
344.07	209.01
344.46	209.47
344.84	209.83
345.22	209.85
345.60	210.15
345.99	210.30
346.37	210.38
346.75	210.42
347.13	210.48
347.52	210.47
347.90	210.62
348.28	210.62
348.66	210.68
349.05	210.52
349.43	210.59
349.81	210.60
350.19	210.59
350.57	210.64
350.96	210.84
351.34	210.93
351.72	211.06
352.10	211.17
352.48	211.18
352.87	211.25
353.25	211.32
353.63	211.32
354.01	211.39
354.39	211.53
354.77	211.65
355.15	211.77
355.54	211.81
355.92	211.77
356.30	211.84
356.68	212.13
357.06	212.24
357.44	212.21
357.82	212.19
358.20	212.33
358.58	212.31
358.97	212.34
359.35	212.44
359.73	212.56
360.11	212.61
360.49	212.71
360.87	212.74
361.25	212.82
361.63	213.00
362.01	213.05
362.39	212.95
362.77	213.01
363.15	213.05
363.53	213.11
363.91	213.13
364.29	213.11
364.67	212.76
365.05	212.78
365.43	212.80
365.81	212.90
366.19	213.01
366.57	213.25
366.95	213.24
367.33	213.18
367.71	213.15
368.09	213.17
368.47	213.14
368.85	213.13
369.23	213.28
369.61	213.12
369.99	213.23
370.37	213.24
370.75	213.33
371.13	213.25
371.51	213.22
371.89	213.25
372.27	213.24
372.65	213.22
373.03	213.12
373.41	213.15
373.78	213.15
374.16	212.95
374.54	212.76
374.92	212.68
375.30	212.59
375.68	212.50
376.06	212.47
376.44	212.43
376.82	212.45
377.19	212.28
377.57	212.26
377.95	212.10
378.33	212.07
378.71	211.87
379.09	211.84
379.47	211.77
379.84	211.66
380.22	211.59
380.60	211.56
380.98	211.65
381.36	211.58
381.73	211.47
382.11	211.56
382.49	211.51
382.87	211.41
383.25	211.40
383.62	211.75
384.00	211.67
384.38	211.68
384.76	211.64
385.13	211.68
385.51	211.65
385.89	211.58
386.27	211.51
386.64	211.50
387.02	211.39
387.40	211.44
387.78	211.47
388.15	211.52
388.53	211.48
388.91	211.38
389.29	211.30
389.66	211.31
390.04	211.22
390.42	211.17
390.79	211.22
391.17	211.18
391.55	210.76
391.92	210.79
392.30	210.76
392.68	210.70
393.05	210.66
393.43	210.64
393.81	210.65
394.18	210.60
394.56	210.61
394.94	210.67
395.31	210.56
395.69	210.61
396.06	210.58
396.44	210.56
396.82	210.52
397.19	210.71
397.57	210.69
397.95	210.77
398.32	210.75
398.70	210.82
399.07	210.90
399.45	210.94
399.82	210.96
400.20	210.91
400.58	210.97
400.95	210.95
401.33	211.05
401.70	211.38
402.08	211.48
402.45	211.55
402.83	211.77
403.20	211.88
403.58	211.87
403.95	211.99
404.33	212.17
404.71	212.32
405.08	212.64
405.46	212.79
405.83	212.88
406.21	213.11
406.58	213.32
406.96	213.57
407.33	213.81
407.70	213.99
408.08	214.56
408.45	214.89
408.83	215.26
409.20	215.52
409.58	215.67
409.95	216.13
410.33	216.61
410.70	216.93
411.08	217.42
411.45	217.96
411.82	218.47
412.20	219.11
412.57	219.89
412.95	220.20
413.32	220.93
413.69	221.60
414.07	222.31
414.44	223.00
414.82	223.88
415.19	224.85
415.56	225.91
415.94	226.84
416.31	228.08
416.68	229.28
417.06	230.74
417.43	232.05
417.81	233.55
418.18	235.13
418.55	236.85
418.93	238.63
419.30	240.58
419.67	242.57
420.04	244.56
420.42	246.59
420.79	249.35
421.16	251.86
421.54	254.70
421.91	257.42
422.28	260.35
422.66	263.34
423.03	266.42
423.40	269.51
423.77	272.74
424.15	276.03
424.52	279.45
424.89	283.26
425.26	287.05
425.64	290.60
426.01	294.44
426.38	298.53
426.75	302.66
427.13	306.86
427.50	311.41
427.87	316.11
428.24	320.93
428.61	325.20
428.99	330.15
429.36	335.35
429.73	340.70
430.10	346.00
430.47	351.43
430.85	357.00
431.22	363.12
431.59	369.68
431.96	375.88
432.33	382.79
432.70	389.34
433.08	397.03
433.45	404.49
433.82	411.79
434.19	419.88
434.56	428.00
434.93	435.72
435.30	443.39
435.68	451.89
436.05	460.41
436.42	468.99
436.79	476.79
437.16	485.23
437.53	494.03
437.90	502.87
438.27	511.65
438.64	520.81
439.01	529.23
439.38	536.73
439.75	544.11
440.13	552.42
440.50	560.33
440.87	566.91
441.24	573.73
441.61	581.33
441.98	587.12
442.35	593.58
442.72	600.32
443.09	606.74
443.46	611.01
443.83	613.88
444.20	616.51
444.57	620.38
444.94	622.52
445.31	624.79
445.68	626.98
446.05	628.15
446.42	628.00
446.79	627.58
447.16	626.95
447.53	626.77
447.90	624.22
448.27	621.75
448.64	617.81
449.01	615.07
449.37	609.88
449.74	604.74
450.11	598.68
450.48	591.87
450.85	584.98
451.22	579.05
451.59	573.48
451.96	568.18
452.33	560.62
452.70	553.93
453.07	545.80
453.43	537.38
453.80	529.64
454.17	521.96
454.54	514.69
454.91	507.08
455.28	499.48
455.65	492.50
456.02	485.65
456.38	479.65
456.75	472.16
457.12	465.81
457.49	459.66
457.86	453.60
458.23	448.42
458.59	442.72
458.96	436.93
459.33	431.80
459.70	426.69
460.07	422.66
460.43	417.83
460.80	413.44
461.17	409.64
461.54	405.40
461.91	401.51
462.27	397.59
462.64	394.21
463.01	390.46
463.38	386.85
463.74	382.95
464.11	379.80
464.48	377.06
464.85	374.04
465.21	371.71
465.58	369.29
465.95	366.25
466.32	363.72
466.68	361.25
467.05	358.74
467.42	356.24
467.78	353.54
468.15	351.16
468.52	349.38
468.88	347.01
469.25	344.85
469.62	343.08
469.98	341.22
470.35	339.44
470.72	337.74
471.08	335.86
471.45	334.29
471.82	332.79
472.18	331.03
472.55	329.76
472.92	328.23
473.28	326.81
473.65	325.60
474.02	324.40
474.38	323.37
474.75	322.40
475.11	321.31
475.48	320.63
475.85	319.92
476.21	319.10
476.58	318.43
476.94	318.04
477.31	317.51
477.67	317.02
478.04	316.54
478.41	316.28
478.77	316.33
479.14	315.95
479.50	315.66
479.87	315.51
480.23	315.41
480.60	315.20
480.96	315.12
481.33	315.28
481.69	315.42
482.06	315.49
482.42	315.55
482.79	315.70
483.15	315.83
483.52	316.21
483.88	316.53
484.25	316.80
484.61	317.08
484.98	317.44
485.34	318.09
485.71	318.73
486.07	319.32
486.44	319.61
486.80	320.33
487.17	321.12
487.53	322.09
487.90	322.93
488.26	324.00
488.62	325.06
488.99	325.97
489.35	326.88
489.72	327.94
490.08	329.23
490.44	330.43
490.81	331.68
491.17	332.90
491.54	334.28
491.90	335.75
492.26	337.24
492.63	338.71
492.99	340.16
493.36	341.78
493.72	343.51
494.08	345.19
494.45	347.05
494.81	348.93
495.17	350.71
495.54	352.74
495.90	354.68
496.26	356.55
496.63	358.57
496.99	360.64
497.35	362.73
497.72	364.78
498.08	366.95
498.44	369.17
498.80	371.47
499.17	373.69
499.53	375.87
499.89	378.22
500.26	380.58
500.62	382.69
500.98	384.95
501.34	387.09
501.71	389.40
502.07	391.55
502.43	393.58
502.79	395.60
503.16	397.61
503.52	399.55
503.88	401.53
504.24	403.51
504.60	405.50
504.97	407.44
505.33	409.30
505.69	411.26
506.05	413.06
506.41	414.64
506.78	416.14
507.14	417.75
507.50	419.15
507.86	420.51
508.22	422.05
508.59	423.19
508.95	424.48
509.31	425.73
509.67	426.90
510.03	428.10
510.39	429.25
510.75	430.31
511.12	431.37
511.48	432.38
511.84	433.24
512.20	434.15
512.56	435.14
512.92	436.00
513.28	436.67
513.64	437.38
514.00	437.99
514.37	438.61
514.73	439.15
515.09	439.75
515.45	440.12
515.81	440.41
516.17	440.75
516.53	441.08
516.89	441.07
517.25	441.27
517.61	441.41
517.97	441.49
518.33	441.45
518.69	441.48
519.05	441.47
519.41	441.50
519.77	441.63
520.13	441.39
520.49	441.19
520.85	441.04
521.21	440.89
521.57	440.90
521.93	440.65
522.29	440.52
522.65	440.32
523.01	440.16
523.37	439.96
523.73	439.90
524.09	439.80
524.45	439.91
524.81	439.91
525.17	439.93
525.53	440.03
525.89	440.20
526.25	440.46
526.61	440.50
526.97	440.71
527.33	440.88
527.68	441.60
528.04	441.88
528.40	442.18
528.76	442.54
529.12	442.98
529.48	443.76
529.84	444.34
530.20	445.00
530.56	445.94
530.91	446.94
531.27	447.84
531.63	448.74
531.99	449.71
532.35	450.63
532.71	451.63
533.07	452.75
533.42	454.23
533.78	455.30
534.14	456.76
534.50	457.95
534.86	459.27
535.21	460.19
535.57	461.72
535.93	463.12
536.29	464.69
536.65	466.34
537.00	467.77
537.36	469.33
537.72	470.90
538.08	472.54
538.44	474.18
538.79	476.03
539.15	477.88
539.51	479.74
539.87	481.75
540.22	483.77
540.58	485.89
540.94	487.68
541.29	489.80
541.65	491.66
542.01	494.02
542.37	496.36
542.72	498.63
543.08	500.80
543.44	503.45
543.79	505.72
544.15	507.98
544.51	510.63
544.87	513.35
545.22	515.95
545.58	518.55
545.94	521.13
546.29	523.62
546.65	526.21
547.01	528.73
547.36	531.38
547.72	534.05
548.07	536.61
548.43	539.02
548.79	541.58
549.14	544.36
549.50	546.93
549.86	549.30
550.21	552.04
550.57	554.90
550.92	557.25
551.28	560.06
551.64	562.77
551.99	565.48
552.35	567.89
552.70	570.51
553.06	573.25
553.41	575.88
553.77	578.76
554.13	581.50
554.48	584.37
554.84	587.17
555.19	589.84
555.55	592.80
555.90	595.56
556.26	598.09
556.61	600.68
556.97	602.98
557.32	605.68
557.68	608.15
558.03	610.60
558.39	613.07
558.74	615.46
559.10	617.89
559.45	620.18
559.81	622.73
560.16	625.00
560.52	627.29
560.87	629.71
561.23	631.85
561.58	634.38
561.94	636.44
562.29	638.40
562.64	640.51
563.00	642.41
563.35	644.48
563.71	646.73
564.06	648.85
564.42	651.32
564.77	653.57
565.12	655.75
565.48	658.12
565.83	660.38
566.19	662.50
566.54	664.49
566.89	666.50
567.25	668.72
567.60	670.93
567.96	672.98
568.31	675.04
568.66	676.83
569.02	678.05
569.37	679.59
569.72	681.19
570.08	682.76
570.43	684.24
570.78	685.68
571.14	686.83
571.49	688.13
571.84	689.30
572.20	690.07
572.55	691.25
572.90	691.79
573.26	692.56
573.61	693.13
573.96	693.73
574.31	694.27
574.67	694.37
575.02	694.55
575.37	694.45
575.72	694.23
576.08	694.47
576.43	694.81
576.78	695.16
577.13	695.60
577.49	695.72
577.84	695.62
578.19	695.70
578.54	696.32
578.90	696.48
579.25	696.37
579.60	696.40
579.95	696.10
580.30	696.22
580.66	696.25
581.01	696.42
581.36	696.26
581.71	696.16
582.06	696.27
582.42	696.33
582.77	696.34
583.12	696.33
583.47	696.14
583.82	695.88
584.17	695.53
584.53	695.24
584.88	694.80
585.23	694.60
585.58	694.37
585.93	693.77
586.28	693.54
586.63	693.21
586.98	692.97
587.34	692.67
587.69	692.11
588.04	691.45
588.39	690.78
588.74	690.35
589.09	689.88
589.44	689.06
589.79	688.43
590.14	687.87
590.49	687.18
590.84	686.46
591.19	686.01
591.54	685.43
591.89	684.27
592.25	683.74
592.60	682.71
592.95	681.73
593.30	680.51
593.65	679.11
594.00	677.95
594.35	677.80
594.70	676.55
595.05	675.48
595.40	674.39
595.75	673.22
596.10	672.12
596.45	670.95
596.80	670.08
597.15	669.09
597.50	667.84
597.85	666.85
598.19	665.65
598.54	664.48
598.89	663.22
599.24	662.42
599.59	661.38
599.94	660.46
600.29	659.27
600.64	658.20
600.99	657.21
601.34	656.21
601.69	653.99
602.04	652.70
602.39	651.49
602.74	650.56
603.08	649.54
603.43	648.65
603.78	647.54
604.13	646.21
604.48	644.91
604.83	643.99
605.18	643.02
605.53	641.84
605.87	640.40
606.22	639.40
606.57	637.94
606.92	636.50
607.27	635.20
607.62	633.96
607.96	632.85
608.31	631.62
608.66	630.18
609.01	628.89
609.36	627.46
609.70	625.89
610.05	624.18
610.40	622.64
610.75	620.95
611.10	619.44
611.44	617.69
611.79	615.76
612.14	613.95
612.49	611.80
612.83	610.13
613.18	608.40
613.53	606.53
613.88	604.68
614.22	602.75
614.57	600.83
614.92	599.00
615.27	597.11
615.61	595.18
615.96	593.38
616.31	591.63
616.65	590.25
617.00	588.65
617.35	586.89
617.70	584.88
618.04	582.76
618.39	580.53
618.74	578.87
619.08	577.10
619.43	575.11
619.78	573.36
620.12	571.58
620.47	569.80
620.82	567.70
621.16	565.65
621.51	563.98
621.85	562.27
622.20	560.29
622.55	558.21
622.89	556.22
623.24	554.31
623.59	552.16
623.93	550.03
624.28	548.00
624.62	546.44
624.97	544.75
625.32	543.02
625.66	541.38
626.01	539.31
626.35	537.56
626.70	535.72
627.04	533.86
627.39	531.84
627.73	530.10
628.08	528.55
628.43	526.90
628.77	524.91
629.12	522.86
629.46	521.30
629.81	519.63
630.15	517.84
630.50	515.97
630.84	514.21
631.19	512.38
631.53	510.73
631.88	508.53
632.22	506.53
632.57	504.99
632.91	503.32
633.26	501.54
633.60	499.71
633.95	497.99
634.29	496.18
634.64	494.61
634.98	492.65
635.32	490.83
635.67	489.21
636.01	487.57
636.36	485.84
636.70	484.25
637.05	482.41
637.39	480.75
637.73	479.32
638.08	478.02
638.42	476.52
638.77	474.95
639.11	473.34
639.45	471.73
639.80	469.78
640.14	467.91
640.49	466.32
640.83	464.54
641.17	462.94
641.52	461.42
641.86	459.69
642.20	458.21
642.55	456.38
642.89	454.70
643.23	453.01
643.58	451.48
643.92	449.51
644.26	447.97
644.61	446.35
644.95	444.51
645.29	442.57
645.64	440.72
645.98	439.02
646.32	437.49
646.66	435.83
647.01	434.26
647.35	432.67
647.69	431.04
648.04	429.55
648.38	427.91
648.72	426.25
649.06	424.54
649.41	422.77
649.75	421.16
650.09	419.50
650.43	417.84
650.78	416.09
651.12	414.43
651.46	412.77
651.80	411.22
652.14	409.61
652.49	408.11
652.83	406.52
653.17	404.69
653.51	402.93
653.85	401.45
654.20	399.87
654.54	398.15
654.88	396.54
655.22	395.04
655.56	393.39
655.90	391.80
656.25	390.08
656.59	388.51
656.93	386.91
657.27	385.48
657.61	383.86
657.95	382.37
658.29	380.95
658.64	379.52
658.98	377.91
659.32	376.34
659.66	374.80
660.00	373.41
660.34	372.04
660.68	370.58
661.02	369.00
661.36	367.48
661.70	366.20
662.05	364.75
662.39	363.37
662.73	362.22
663.07	361.04
663.41	359.87
663.75	358.48
664.09	357.28
664.43	355.78
664.77	354.44
665.11	353.18
665.45	351.88
665.79	350.65
666.13	349.42
666.47	348.22
666.81	346.90
667.15	345.67
667.49	344.47
667.83	343.39
668.17	342.18
668.51	341.08
668.85	339.99
669.19	339.02
669.53	337.75
669.87	336.39
670.21	335.05
670.55	333.92
670.89	333.18
671.23	332.04
671.57	331.05
671.91	330.07
672.25	328.90
672.58	327.96
672.92	326.82
673.26	325.85
673.60	324.87
673.94	323.90
674.28	322.79
674.62	321.90
674.96	320.81
675.30	319.89
675.64	318.83
675.97	317.83
676.31	316.76
676.65	315.84
676.99	315.11
677.33	314.23
677.67	313.26
678.01	312.07
678.34	311.15
678.68	310.27
679.02	309.35
679.36	308.50
679.70	307.49
680.04	306.67
680.37	305.75
680.71	304.80
681.05	303.97
681.39	303.18
681.73	302.24
682.06	301.46
682.40	300.62
682.74	299.94
683.08	299.26
683.42	298.42
683.75	297.66
684.09	296.63
684.43	295.85
684.77	294.98
685.10	294.10
685.44	293.32
685.78	292.52
686.12	291.77
686.45	291.12
686.79	290.36
687.13	289.64
687.46	288.89
687.80	288.31
688.14	287.54
688.48	286.87
688.81	286.11
689.15	285.41
689.49	284.73
689.82	283.94
690.16	282.96
690.50	282.29
690.83	281.52
691.17	280.75
691.51	280.03
691.84	279.48
692.18	278.85
692.52	278.14
692.85	277.59
693.19	277.05
693.52	276.27
693.86	275.54
694.20	274.79
694.53	274.17
694.87	273.45
695.21	272.78
695.54	272.04
695.88	271.34
696.21	270.61
696.55	269.83
696.88	269.17
697.22	268.57
697.56	267.93
697.89	267.34
698.23	266.85
698.56	266.26
698.90	265.66
699.23	264.99
699.57	264.44
699.90	263.74
700.24	263.04
700.58	262.52
700.91	262.11
701.25	261.92
701.58	261.41
701.92	260.85
702.25	260.38
702.59	259.87
702.92	259.40
703.26	259.02
703.59	258.63
703.93	258.44
704.26	258.01
704.60	257.60
704.93	257.06
705.26	256.57
705.60	256.13
705.93	255.58
706.27	255.34
706.60	254.94
706.94	254.62
707.27	254.09
707.61	253.73
707.94	253.28
708.27	252.49
708.61	252.04
708.94	251.65
709.28	251.15
709.61	250.72
709.94	250.36
710.28	249.85
710.61	249.49
710.95	248.74
711.28	248.59
711.61	248.10
711.95	247.78
712.28	247.38
712.61	246.98
712.95	246.81
713.28	246.60
713.61	246.28
713.95	245.86
714.28	245.61
714.61	245.13
714.95	244.65
715.28	244.31
715.61	243.81
715.95	243.39
716.28	243.11
716.61	242.80
716.95	242.34
717.28	242.07
717.61	241.73
717.94	241.49
718.28	240.86
718.61	240.60
718.94	240.28
719.27	239.87
719.61	239.55
719.94	239.05
720.27	238.54
720.60	238.08
720.94	237.80
721.27	237.44
721.60	237.26
721.93	237.11
722.27	236.96
722.60	236.82
722.93	236.55
723.26	236.23
723.59	235.97
723.93	235.80
724.26	235.53
724.59	235.28
724.92	235.05
725.25	234.96
725.59	234.71
725.92	234.52
726.25	234.40
726.58	234.23
726.91	234.10
727.24	233.89
727.57	233.71
727.91	233.41
728.24	233.24
728.57	232.98
728.90	232.70
729.23	232.39
729.56	232.32
729.89	232.10
730.22	231.95
730.55	231.71
730.89	231.53
731.22	231.35
731.55	231.07
731.88	230.86
732.21	230.58
732.54	230.35
732.87	230.16
733.20	230.03
733.53	229.78
733.86	229.60
734.19	229.35
734.52	229.24
734.85	229.31
735.18	229.15
735.51	229.09
735.84	229.01
736.17	228.96
736.50	228.64
736.83	228.89
737.16	228.68
737.49	228.50
737.82	228.35
738.15	228.20
738.48	228.11
738.81	227.96
739.14	227.77
739.47	227.60
739.80	227.46
740.13	227.30
740.46	227.12
740.79	226.97
741.12	226.84
741.45	226.62
741.78	226.23
742.11	226.14
742.44	225.87
742.77	225.68
743.10	225.48
743.43	225.32
743.75	224.83
744.08	225.13
744.41	225.00
744.74	224.80
745.07	224.58
745.40	224.52
745.73	224.50
746.06	224.41
746.39	224.35
746.71	224.13
747.04	223.96
747.37	223.88
747.70	223.78
748.03	223.68
748.36	223.61
748.68	223.50
749.01	223.30
749.34	223.21
749.67	223.20
750.00	223.14
750.33	223.29
750.65	223.26
750.98	222.75
751.31	222.72
751.64	222.69
751.97	222.80
752.29	222.65
752.62	222.32
752.95	222.18
753.28	222.05
753.60	221.90
753.93	221.95
754.26	221.82
754.59	221.62
754.91	221.43
755.24	221.36
755.57	221.22
755.90	221.16
756.22	221.12
756.55	220.87
756.88	220.68
757.20	220.35
757.53	220.09
757.86	219.95
758.19	219.83
758.51	219.69
758.84	219.39
759.17	219.24
759.49	219.24
759.82	219.36
760.15	219.25
760.47	219.19
760.80	218.90
761.13	218.86
761.45	218.75
761.78	218.63
762.11	218.53
762.43	218.47
762.76	218.34
763.08	218.17
763.41	218.15
763.74	218.08
764.06	217.91
764.39	217.81
764.71	217.78
765.04	217.69
765.37	217.58
765.69	217.53
766.02	217.46
766.34	217.31
766.67	217.02
767.00	216.94
767.32	217.05
767.65	217.23
767.97	217.10
768.30	217.06
768.62	217.11
768.95	217.02
769.27	216.91
769.60	216.93
769.92	216.82
770.25	216.70
770.57	216.53
770.90	216.54
771.22	216.46
771.55	216.37
771.87	216.31
772.20	216.23
772.52	216.40
772.85	216.76
773.17	216.75
773.50	216.78
773.82	216.71
774.15	216.54
774.47	216.25
774.80	216.23
775.12	216.16
775.45	216.00
775.77	215.95
776.09	215.94
776.42	215.79
776.74	215.85
777.07	215.80
777.39	215.77
777.72	215.72
778.04	215.73
778.36	215.67
778.69	215.63
779.01	215.66
779.33	215.38
779.66	214.94
779.98	214.83
780.31	214.78
780.63	214.91
780.95	214.88
781.28	214.82
781.60	214.72
781.92	214.65
782.25	214.73
782.57	214.71
782.89	214.69
783.22	214.70
783.54	214.66
783.86	214.63
784.19	214.70
784.51	214.78
784.83	214.73
785.16	214.70
785.48	214.64
785.80	214.64
786.12	214.64
786.45	214.63
786.77	214.72
787.09	214.65
787.42	214.51
787.74	214.52
788.06	214.50
788.38	214.49
788.71	214.51
789.03	214.41
789.35	214.43
789.67	214.39
789.99	214.40
790.32	214.30
790.64	214.37
790.96	214.57
791.28	214.38
791.61	214.32
791.93	214.34
792.25	214.32
792.57	214.52
792.89	214.42
793.21	214.46
793.54	214.35
793.86	214.33
794.18	214.33
794.50	214.25
794.82	214.25
795.14	214.30
795.47	214.25
795.79	214.28
796.11	214.17
796.43	214.05
796.75	214.06
797.07	214.06
797.39	213.97
797.71	213.64
798.04	213.67
798.36	213.70
798.68	213.65
799.00	213.68
799.32	213.52
799.64	213.60
799.96	213.46
800.28	213.51
800.60	213.49
800.92	213.53
801.24	213.56
801.56	213.61
801.89	213.53
802.21	213.63
802.53	213.60
802.85	213.62
803.17	213.86
803.49	213.74
803.81	213.72
804.13	213.75
804.45	213.76
804.77	213.80
805.09	213.80
805.41	213.79
805.73	213.67
806.05	213.48
806.37	213.43
806.69	213.48
807.01	213.43
807.33	213.44
807.65	213.27
807.97	213.35
808.28	213.24
808.60	213.22
808.92	213.14
809.24	213.28
809.56	213.25
809.88	213.10
810.20	213.13
810.52	213.17
810.84	213.09
811.16	213.02
811.48	213.05
811.80	213.16
812.12	213.13
812.43	213.19
812.75	213.26
813.07	213.21
813.39	213.18
813.71	213.15
814.03	213.06
814.35	213.02
814.67	212.85
814.98	212.80
815.30	212.81
815.62	212.70
815.94	212.46
816.26	212.43
816.58	212.35
816.89	212.36
817.21	212.22
817.53	212.19
817.85	212.25
818.17	212.12
818.48	211.94
818.80	212.01
819.12	212.00
819.44	211.90
819.76	211.93
820.07	211.90
820.39	211.85
820.71	211.88
821.03	211.95
821.34	211.95
821.66	212.02
821.98	212.04
822.30	212.05
822.61	212.27
822.93	212.24
823.25	212.20
823.57	212.08
823.88	212.24
824.20	212.19
824.52	212.18
824.83	212.11
825.15	212.07
825.47	212.03
825.79	211.98
826.10	212.06
826.42	211.94
826.74	212.01
827.05	212.01
827.37	212.05
827.69	211.97
828.00	212.00
828.32	211.97
828.64	211.90
828.95	212.12
829.27	211.97
829.58	212.01
829.90	212.15
830.22	212.22
830.53	212.05
830.85	212.04
831.17	211.93
831.48	211.93
831.80	212.00
832.11	211.97
832.43	211.98
832.75	211.93
833.06	212.17
833.38	212.03
833.69	211.96
834.01	211.90
834.32	211.89
834.64	211.82
834.96	211.87
835.27	211.92
835.59	211.77
835.90	211.77
836.22	211.71
836.53	211.56
836.85	211.52
837.16	211.83
837.48	211.88
837.79	212.06
838.11	212.13
838.42	212.05
838.74	212.05
839.05	212.02
839.37	212.00
839.68	211.83
840.00	211.84
840.31	211.99
840.63	212.02
840.94	212.04
841.26	212.03
841.57	212.03
841.88	212.05
842.20	211.99
842.51	211.98
842.83	212.03
843.14	212.33
843.46	212.28
843.77	212.16
844.08	212.16
844.40	212.08
844.71	212.05
845.03	212.04
845.34	212.05
845.65	212.04
845.97	212.03
846.28	212.05
846.60	212.03
846.91	212.00
847.22	211.92
847.54	211.99
847.85	211.97
848.16	211.96
848.48	211.86
848.79	211.96
849.10	211.98
849.42	211.95
849.73	211.67
850.04	211.74
850.36	211.62
850.67	211.70
850.98	211.73
851.30	211.78
851.61	211.84
851.92	211.72
852.23	211.80
852.55	211.83
852.86	211.84
853.17	211.90
853.49	211.88
853.80	212.00
854.11	211.95
854.42	212.06
854.74	211.97
855.05	212.05
855.36	211.91
855.67	211.86
855.99	211.83
856.30	212.22
856.61	212.19
856.92	212.17
857.23	212.11
857.55	212.02
857.86	211.95
858.17	211.98
858.48	212.02
858.79	211.95
859.11	211.95
859.42	211.90
859.73	211.89
860.04	211.87
860.35	211.79
860.66	211.68
860.98	211.70
861.29	211.73
861.60	211.66
861.91	211.72
862.22	211.60
862.53	211.63
862.84	211.22
863.16	211.27
863.47	211.18
863.78	211.19
864.09	211.18
864.40	211.21
864.71	211.14
865.02	211.15
865.33	211.09
865.64	211.03
865.95	211.02
866.27	211.21
866.58	211.14
866.89	211.17
867.20	211.22
867.51	211.10
867.82	211.09
868.13	211.19
868.44	211.13
868.75	211.33
869.06	211.34
869.37	211.37
869.68	211.33
869.99	211.46
870.30	211.44
870.61	211.48
870.92	211.41
871.23	211.47
871.54	211.60
871.85	211.75
872.16	211.82
872.47	211.80
872.78	211.58
873.09	211.63
873.40	211.59
873.71	211.60
874.02	211.64
874.33	211.56
874.64	211.45
874.95	211.53
875.26	211.40
875.56	211.33
875.87	211.32
876.18	211.29
876.49	211.57
876.80	211.58
877.11	211.58
877.42	211.61
877.73	211.54
878.04	211.39
878.35	211.40
878.66	211.38
878.96	211.40
879.27	211.38
879.58	211.35
879.89	211.31
880.20	211.43
880.51	211.41
880.82	211.45
881.12	211.47
881.43	211.38
881.74	211.39
882.05	211.34
882.36	211.33
882.67	211.32
882.97	210.97
883.28	210.92
883.59	210.96
883.90	210.97
884.21	211.08
884.51	211.14
884.82	211.00
885.13	210.98
885.44	210.96
885.74	210.97
886.05	211.00
886.36	211.05
886.67	210.92
886.98	211.06
887.28	211.17
887.59	211.15
887.90	211.16
888.20	211.10
888.51	211.19
888.82	211.10
889.13	211.14
889.43	211.44
889.74	211.38
890.05	211.31
890.35	211.30
890.66	211.24
890.97	211.18
891.28	211.19
891.58	211.21
891.89	211.24
892.20	211.23
892.50	211.20
892.81	211.15
893.12	211.12
893.42	210.95
893.73	210.88
894.04	210.95
894.34	210.99
894.65	211.04
894.95	211.05
895.26	211.15
895.57	211.21
895.87	210.87
896.18	210.95
896.48	210.98
896.79	210.98
897.10	210.95
897.40	210.99
897.71	211.04
898.01	211.02
898.32	211.01
898.63	211.01
898.93	211.06
899.24	211.03
899.54	211.02
899.85	211.03
900.15	211.03
900.46	211.00
900.76	211.00
901.07	210.92
901.38	210.88
901.68	210.86
901.99	210.78
902.29	210.83
902.60	210.78
902.90	210.72
903.21	210.67
903.51	210.70
903.82	210.70
904.12	210.71
904.43	210.65
904.73	210.64
905.03	210.69
905.34	211.01
905.64	211.01
905.95	211.03
906.25	210.96
906.56	210.99
906.86	210.95
907.17	210.94
907.47	211.11
907.77	211.10
908.08	211.10
908.38	211.12
908.69	211.13
908.99	211.18
909.30	211.23
909.60	211.33
909.90	211.28
910.21	211.25
910.51	211.15
910.81	211.22
911.12	211.25
911.42	211.26
911.73	210.81
912.03	210.90
912.33	210.98
912.64	211.00
912.94	210.91
913.24	210.87
913.55	210.82
913.85	210.75
914.15	210.80
914.46	210.78
914.76	210.70
915.06	210.65
915.37	210.57
915.67	210.53
915.97	210.46
916.27	210.49
916.58	210.51
916.88	210.57
917.18	210.50
917.49	210.71
917.79	210.66
918.09	210.75
918.39	210.86
918.70	210.84
919.00	210.95
919.30	211.12
919.60	211.15
919.91	211.18
920.21	211.15
920.51	211.09
920.81	211.11
921.12	211.19
921.42	211.24
921.72	211.37
922.02	211.41
922.32	211.44
922.63	211.43
922.93	211.57
923.23	211.57
923.53	211.56
923.83	211.28
924.13	211.27
924.44	211.31
924.74	211.30
925.04	211.40
925.34	211.37
925.64	211.23
925.94	211.25
926.24	211.40
926.55	211.44
926.85	211.51
927.15	211.48
927.45	211.48
927.75	211.47
928.05	211.39
928.35	211.33
928.65	211.41
928.95	211.36
929.26	211.19
929.56	211.25
929.86	211.26
930.16	211.28
930.46	211.30
930.76	211.30
931.06	211.16
931.36	210.92
931.66	210.95
931.96	211.02
932.26	211.03
932.56	210.88
932.86	210.84
933.16	210.79
933.46	210.80
933.76	210.75
934.06	210.85
934.36	210.97
934.66	211.03
934.96	210.98
935.26	211.10
935.56	211.20
935.86	211.05
936.16	211.03
936.46	211.04
936.76	210.98
937.06	210.94
937.36	210.98
937.66	211.13
937.96	211.10
938.26	211.01
938.56	210.93
938.86	210.96
939.16	211.06
939.46	211.09
939.76	211.13
940.06	211.19
940.35	211.05
940.65	210.90
940.95	210.89
941.25	210.84
941.55	210.80
941.85	210.79
942.15	210.94
942.45	210.99
942.75	210.97
943.04	210.98
943.34	211.01
943.64	210.96
943.94	210.87
944.24	210.84
944.54	210.89
944.84	210.96
945.13	210.88
945.43	210.80
945.73	210.78
946.03	210.79
946.33	210.72
946.62	210.74
946.92	210.66
947.22	210.64
947.52	210.67
947.82	210.64
948.11	210.56
948.41	210.47
948.71	210.45
949.01	210.51
949.31	210.51
949.60	210.47
949.90	210.56
950.20	210.54
950.50	210.54
950.79	210.50
951.09	210.51
951.39	210.57
951.69	210.55
951.98	210.63
952.28	210.58
952.58	210.63
952.87	210.68
953.17	210.72
953.47	210.65
953.76	210.63
954.06	210.64
954.36	210.60
954.66	210.58
954.95	210.69
955.25	210.67
955.55	210.75
955.84	210.76
956.14	210.68
956.44	210.71
956.73	210.68
957.03	210.66
957.32	210.65
957.62	210.63
957.92	210.69
958.21	210.67
958.51	211.14
958.81	211.15
959.10	211.14
959.40	211.26
959.69	211.35
959.99	211.37
960.29	211.39
960.58	211.40
960.88	211.56
961.17	211.49
961.47	211.55
961.76	211.48
962.06	211.50
962.36	211.55
962.65	211.59
962.95	211.63
963.24	211.65
963.54	211.65
963.83	211.72
964.13	211.64
964.42	211.43
964.72	211.10
965.01	211.07
965.31	211.04
965.60	211.00
965.90	211.23
966.19	211.15
966.49	211.18
966.78	211.13
967.08	211.07
967.37	211.01
967.67	210.92
967.96	211.00
968.26	211.00
968.55	211.03
968.85	211.02
969.14	211.00
969.43	210.99
969.73	210.93
970.02	210.83
970.32	210.91
970.61	210.96
970.91	210.81
971.20	210.79
971.49	210.72
971.79	210.73
972.08	210.51
972.38	210.50
972.67	210.45
972.96	210.53
973.26	210.49
973.55	210.66
973.85	210.73
974.14	210.70
974.43	210.66
974.73	210.53
975.02	210.52
975.31	210.48
975.61	210.45
975.90	210.44
976.19	210.50
976.49	210.50
976.78	210.62
977.07	210.64
977.37	210.71
977.66	210.75
977.95	210.70
978.24	210.70
978.54	210.80
978.83	210.75
979.12	210.76
979.42	210.76
979.71	210.67
980.00	210.60
980.29	210.59
980.59	210.63
980.88	210.74
981.17	210.75
981.46	210.78
981.76	210.77
982.05	210.91
982.34	210.88
982.63	210.93
982.93	210.88
983.22	210.97
983.51	210.92
983.80	211.04
984.09	211.05
984.39	210.99
984.68	210.91
984.97	210.99
985.26	210.91
985.55	210.93
985.85	210.92
986.14	211.02
986.43	211.03
986.72	210.99
987.01	210.90
987.30	210.90
987.59	210.85
987.89	210.90
988.18	210.78
988.47	210.75
988.76	210.72
989.05	210.75
989.34	210.71
989.63	210.81
989.92	210.75
990.22	210.76
990.51	210.80
990.80	210.79
991.09	210.86
991.38	210.97
991.67	210.93
991.96	210.86
992.25	210.81
992.54	210.83
992.83	210.86
993.12	210.91
993.41	210.93
993.70	211.13
993.99	211.25
994.28	211.33
994.58	211.43
994.87	211.40
995.16	211.32
995.45	211.30
995.74	211.19
996.03	211.18
996.32	211.28
996.61	211.35
996.90	211.39
997.19	211.36
997.48	211.33
997.77	211.33
998.06	211.37
998.34	211.37
998.63	211.30
998.92	211.27
999.21	211.31
999.50	211.32
999.79	211.25
1000.08	211.17
1000.37	211.10
1000.66	210.98
1000.95	211.05
1001.24	211.10
1001.53	211.17
1001.82	211.11
1002.11	211.07
1002.40	211.05
1002.68	211.10
1002.97	211.36
1003.26	211.29
1003.55	211.27
1003.84	211.21
1004.13	211.29
1004.42	211.29
1004.71	211.31
1004.99	211.26
1005.28	211.36
1005.57	211.27
1005.86	211.19
1006.15	211.15
1006.44	211.17
1006.72	211.28
1007.01	211.16
1007.30	211.15
1007.59	211.09
1007.88	211.12
1008.17	211.11
1008.45	210.96
1008.74	210.83
1009.03	210.70
1009.32	210.70
1009.60	210.68
1009.89	210.67
1010.18	210.55
1010.47	210.48
1010.76	210.51
1011.04	210.50
1011.33	210.55
1011.62	210.59
1011.91	210.60
1012.19	210.60
1012.48	210.54
1012.77	210.42
1013.05	210.59
1013.34	210.56
1013.63	210.53
1013.92	210.56
1014.20	210.58
1014.49	210.67
1014.78	210.68
1015.06	210.44
1015.35	210.38
1015.64	210.47
1015.92	210.51
1016.21	210.49
1016.50	210.54
1016.78	210.54
1017.07	210.60
1017.36	210.44
1017.64	210.41
1017.93	210.44
1018.22	210.45
1018.50	210.48
1018.79	210.59
1019.08	210.44
1019.36	210.44
1019.65	210.41
1019.93	210.46
1020.22	210.44
1020.51	210.60
1020.79	210.59
1021.08	210.45
1021.36	210.00
1021.65	211.65
1021.94	210.20
1022.22	209.55
1022.51	209.90
1022.79	211.65
1023.08	210.25
1023.36	214.85
1023.65	210.20
>>>>>End Processed Spectral Data<<<<<
