SpectraSuite Data File
++++++++++++++++++++++++++++++++++++
Date: Mon Feb 25 16:55:36 EST 2013
User: group
Dark Spectrum Present: No
Reference Spectrum Present: No
Number of Sampled Component Spectra: 1
Spectrometers: USB2E7196
Integration Time (usec): 104000 (USB2E7196)
Spectra Averaged: 20 (USB2E7196)
Boxcar Smoothing: 10 (USB2E7196)
Correct for Electrical Dark: No (USB2E7196)
Strobe/Lamp Enabled: No (USB2E7196)
Correct for Detector Non-linearity: No (USB2E7196)
Correct for Stray Light: No (USB2E7196)
Number of Pixels in Processed Spectrum: 2048
>>>>>Begin Processed Spectral Data<<<<<
339.09	0.00
339.48	198.10
339.86	198.90
340.24	200.65
340.63	202.95
341.01	210.10
341.39	204.95
341.78	207.65
342.16	209.85
342.54	208.60
342.93	198.09
343.31	208.10
343.69	208.64
344.07	209.20
344.46	209.70
344.84	210.12
345.22	210.12
345.60	210.45
345.99	210.60
346.37	210.71
346.75	210.86
347.13	210.94
347.52	211.07
347.90	211.21
348.28	211.29
348.66	211.43
349.05	211.37
349.43	211.43
349.81	211.52
350.19	211.53
350.57	211.71
350.96	211.86
351.34	212.05
351.72	212.11
352.10	212.19
352.48	212.20
352.87	212.27
353.25	212.34
353.63	212.36
354.01	212.44
354.39	212.56
354.77	212.62
355.15	212.82
355.54	212.84
355.92	212.84
356.30	212.88
356.68	213.15
357.06	213.24
357.44	213.28
357.82	213.33
358.20	213.55
358.58	213.54
358.97	213.57
359.35	213.65
359.73	213.79
360.11	213.80
360.49	213.89
360.87	213.92
361.25	214.08
361.63	214.25
362.01	214.30
362.39	214.21
362.77	214.21
363.15	214.24
363.53	214.32
363.91	214.34
364.29	214.35
364.67	214.07
365.05	214.16
365.43	214.22
365.81	214.27
366.19	214.33
366.57	214.54
366.95	214.54
367.33	214.45
367.71	214.49
368.09	214.62
368.47	214.68
368.85	214.62
369.23	214.61
369.61	214.46
369.99	214.60
370.37	214.68
370.75	214.92
371.13	214.85
371.51	214.73
371.89	214.68
372.27	214.71
372.65	214.74
373.03	214.61
373.41	214.55
373.78	214.54
374.16	214.34
374.54	214.17
374.92	214.08
375.30	214.03
375.68	213.90
376.06	213.78
376.44	213.70
376.82	213.75
377.19	213.74
377.57	213.66
377.95	213.54
378.33	213.46
378.71	213.20
379.09	213.21
379.47	213.17
379.84	213.17
380.22	213.05
380.60	212.84
380.98	212.81
381.36	212.82
381.73	212.66
382.11	212.75
382.49	212.71
382.87	212.69
383.25	212.68
383.62	213.13
384.00	213.06
384.38	213.00
384.76	213.04
385.13	213.15
385.51	213.18
385.89	213.09
386.27	213.06
386.64	213.09
387.02	212.99
387.40	213.02
387.78	212.89
388.15	212.84
388.53	212.90
388.91	212.88
389.29	212.80
389.66	212.82
390.04	212.72
390.42	212.77
390.79	212.79
391.17	212.74
391.55	212.31
391.92	212.35
392.30	212.43
392.68	212.36
393.05	212.28
393.43	212.24
393.81	212.25
394.18	212.20
394.56	212.23
394.94	212.32
395.31	212.31
395.69	212.54
396.06	212.65
396.44	212.70
396.82	212.69
397.19	212.92
397.57	213.00
397.95	213.10
398.32	213.03
398.70	213.08
399.07	213.28
399.45	213.26
399.82	213.32
400.20	213.37
400.58	213.46
400.95	213.38
401.33	213.56
401.70	213.93
402.08	214.09
402.45	214.15
402.83	214.38
403.20	214.54
403.58	214.60
403.95	214.88
404.33	215.13
404.71	215.37
405.08	215.73
405.46	216.01
405.83	216.33
406.21	216.73
406.58	217.16
406.96	217.47
407.33	217.98
407.70	218.42
408.08	219.21
408.45	219.81
408.83	220.53
409.20	221.18
409.58	221.66
409.95	222.49
410.33	223.32
410.70	224.02
411.08	224.96
411.45	226.03
411.82	227.02
412.20	228.22
412.57	229.69
412.95	230.68
413.32	232.17
413.69	233.66
414.07	235.17
414.44	236.87
414.82	238.69
415.19	240.71
415.56	242.85
415.94	244.94
416.31	247.42
416.68	249.94
417.06	252.79
417.43	255.54
417.81	258.64
418.18	261.88
418.55	265.39
418.93	269.03
419.30	272.77
419.67	276.70
420.04	280.87
420.42	285.23
420.79	290.29
421.16	295.33
421.54	300.63
421.91	306.19
422.28	311.88
422.66	317.90
423.03	324.00
423.40	330.28
423.77	336.94
424.15	343.60
424.52	350.66
424.89	358.41
425.26	365.81
425.64	373.04
426.01	380.95
426.38	389.28
426.75	397.69
427.13	406.31
427.50	415.58
427.87	425.27
428.24	434.88
428.61	444.23
428.99	454.16
429.36	465.08
429.73	475.75
430.10	486.61
430.47	497.74
430.85	509.25
431.22	521.45
431.59	534.34
431.96	546.85
432.33	560.71
432.70	574.24
433.08	590.22
433.45	605.18
433.82	620.15
434.19	636.61
434.56	652.94
434.93	668.91
435.30	684.76
435.68	702.23
436.05	719.74
436.42	737.15
436.79	753.40
437.16	770.83
437.53	789.39
437.90	807.63
438.27	825.77
438.64	844.67
439.01	862.33
439.38	878.24
439.75	893.81
440.13	911.33
440.50	927.74
440.87	941.60
441.24	955.88
441.61	971.72
441.98	983.89
442.35	998.11
442.72	1012.00
443.09	1025.38
443.46	1034.05
443.83	1040.26
444.20	1045.99
444.57	1053.75
444.94	1058.12
445.31	1062.60
445.68	1066.84
446.05	1069.60
446.42	1069.11
446.79	1068.58
447.16	1067.65
447.53	1067.27
447.90	1062.06
448.27	1056.85
448.64	1048.59
449.01	1043.00
449.37	1032.10
449.74	1021.80
450.11	1008.90
450.48	995.13
450.85	980.95
451.22	968.80
451.59	957.16
451.96	945.96
452.33	930.80
452.70	917.25
453.07	900.58
453.43	883.70
453.80	867.34
454.17	851.80
454.54	836.80
454.91	820.90
455.28	805.36
455.65	790.89
456.02	776.12
456.38	763.97
456.75	748.56
457.12	735.81
457.49	722.96
457.86	710.70
458.23	699.91
458.59	688.30
458.96	676.54
459.33	666.11
459.70	655.59
460.07	647.08
460.43	637.27
460.80	628.30
461.17	620.33
461.54	611.95
461.91	604.05
462.27	596.18
462.64	589.40
463.01	581.74
463.38	574.26
463.74	567.08
464.11	560.61
464.48	555.02
464.85	548.78
465.21	544.18
465.58	539.09
465.95	533.04
466.32	528.05
466.68	523.08
467.05	518.23
467.42	513.35
467.78	508.15
468.15	503.39
468.52	499.72
468.88	495.02
469.25	490.88
469.62	487.35
469.98	483.52
470.35	480.03
470.72	476.78
471.08	473.30
471.45	470.24
471.82	467.15
472.18	463.78
472.55	461.39
472.92	458.55
473.28	455.91
473.65	453.54
474.02	451.08
474.38	449.03
474.75	447.32
475.11	445.48
475.48	444.25
475.85	442.89
476.21	441.65
476.58	440.73
476.94	439.94
477.31	439.06
477.67	438.13
478.04	437.47
478.41	437.04
478.77	437.06
479.14	436.61
479.50	436.64
479.87	436.90
480.23	437.18
480.60	437.12
480.96	437.25
481.33	438.00
481.69	438.79
482.06	439.33
482.42	439.68
482.79	440.34
483.15	441.17
483.52	442.45
483.88	443.52
484.25	444.64
484.61	445.97
484.98	447.39
485.34	449.19
485.71	451.04
486.07	452.99
486.44	454.70
486.80	456.90
487.17	459.13
487.53	461.72
487.90	464.43
488.26	467.47
488.62	470.69
488.99	473.68
489.35	476.72
489.72	480.22
490.08	484.02
490.44	487.80
490.81	491.73
491.17	495.52
491.54	499.85
491.90	504.26
492.26	508.91
492.63	513.58
492.99	518.61
493.36	523.82
493.72	529.39
494.08	535.03
494.45	540.99
494.81	547.01
495.17	553.09
495.54	559.45
495.90	565.83
496.26	572.50
496.63	579.32
496.99	586.30
497.35	593.62
497.72	601.13
498.08	608.71
498.44	616.45
498.80	624.74
499.17	633.09
499.53	641.55
499.89	650.14
500.26	658.93
500.62	667.33
500.98	676.18
501.34	684.90
501.71	694.03
502.07	702.99
502.43	712.06
502.79	721.32
503.16	730.62
503.52	740.23
503.88	749.74
504.24	759.39
504.60	769.11
504.97	778.93
505.33	788.63
505.69	799.00
506.05	809.27
506.41	819.33
506.78	829.00
507.14	838.67
507.50	848.45
507.86	858.38
508.22	868.33
508.59	878.10
508.95	888.31
509.31	898.30
509.67	908.48
510.03	918.70
510.39	929.00
510.75	939.03
511.12	948.79
511.48	958.68
511.84	968.64
512.20	978.52
512.56	988.41
512.92	998.17
513.28	1007.61
513.64	1017.05
514.00	1026.18
514.37	1035.59
514.73	1045.34
515.09	1054.70
515.45	1063.59
515.81	1072.92
516.17	1081.74
516.53	1090.41
516.89	1098.75
517.25	1107.04
517.61	1115.38
517.97	1123.08
518.33	1130.97
518.69	1138.92
519.05	1146.76
519.41	1154.51
519.77	1162.17
520.13	1169.35
520.49	1176.39
520.85	1183.51
521.21	1190.66
521.57	1197.95
521.93	1204.37
522.29	1211.20
522.65	1217.87
523.01	1224.65
523.37	1230.61
523.73	1237.04
524.09	1243.03
524.45	1249.07
524.81	1255.27
525.17	1261.29
525.53	1267.17
525.89	1272.97
526.25	1278.65
526.61	1283.57
526.97	1288.62
527.33	1293.90
527.68	1299.42
528.04	1304.47
528.40	1308.72
528.76	1313.03
529.12	1317.67
529.48	1323.00
529.84	1327.35
530.20	1331.65
530.56	1335.73
530.91	1340.33
531.27	1344.69
531.63	1348.98
531.99	1353.24
532.35	1356.87
532.71	1360.43
533.07	1364.68
533.42	1368.52
533.78	1372.37
534.14	1376.15
534.50	1379.32
534.86	1382.63
535.21	1385.37
535.57	1389.06
535.93	1392.50
536.29	1395.92
536.65	1399.06
537.00	1401.42
537.36	1404.10
537.72	1406.53
538.08	1409.40
538.44	1411.72
538.79	1414.28
539.15	1416.61
539.51	1419.20
539.87	1421.98
540.22	1424.50
540.58	1427.02
540.94	1429.33
541.29	1430.98
541.65	1432.69
542.01	1434.58
542.37	1436.57
542.72	1438.40
543.08	1439.65
543.44	1441.69
543.79	1442.64
544.15	1443.69
544.51	1445.48
544.87	1447.00
545.22	1448.52
545.58	1449.29
545.94	1450.13
546.29	1450.48
546.65	1450.93
547.01	1451.04
547.36	1451.25
547.72	1451.51
548.07	1451.43
548.43	1451.18
548.79	1451.00
549.14	1451.19
549.50	1451.35
549.86	1450.92
550.21	1450.65
550.57	1450.73
550.92	1450.02
551.28	1449.95
551.64	1449.50
551.99	1449.25
552.35	1448.69
552.70	1447.95
553.06	1447.90
553.41	1447.79
553.77	1447.76
554.13	1447.84
554.48	1447.89
554.84	1448.01
555.19	1447.68
555.55	1447.29
555.90	1446.71
556.26	1446.27
556.61	1445.31
556.97	1444.26
557.32	1443.64
557.68	1442.75
558.03	1441.50
558.39	1440.28
558.74	1439.74
559.10	1439.05
559.45	1438.13
559.81	1437.38
560.16	1436.26
560.52	1435.03
560.87	1434.04
561.23	1432.71
561.58	1431.61
561.94	1429.93
562.29	1427.87
562.64	1426.70
563.00	1425.20
563.35	1424.39
563.71	1424.06
564.06	1423.43
564.42	1423.07
564.77	1422.71
565.12	1422.16
565.48	1421.78
565.83	1421.34
566.19	1420.61
566.54	1419.45
566.89	1418.07
567.25	1417.18
567.60	1416.65
567.96	1415.76
568.31	1414.90
568.66	1413.84
569.02	1412.15
569.37	1410.66
569.72	1409.44
570.08	1407.55
570.43	1405.84
570.78	1403.78
571.14	1401.30
571.49	1399.13
571.84	1397.08
572.20	1394.30
572.55	1391.99
572.90	1389.04
573.26	1386.26
573.61	1383.17
573.96	1380.80
574.31	1377.78
574.67	1374.37
575.02	1370.59
575.37	1367.21
575.72	1363.57
576.08	1360.24
576.43	1356.75
576.78	1353.62
577.13	1350.47
577.49	1347.25
577.84	1343.87
578.19	1340.70
578.54	1338.13
578.90	1335.63
579.25	1331.97
579.60	1328.23
579.95	1324.23
580.30	1321.10
580.66	1317.74
581.01	1313.96
581.36	1309.85
581.71	1306.12
582.06	1302.38
582.42	1299.17
582.77	1295.04
583.12	1290.94
583.47	1287.25
583.82	1283.61
584.17	1279.55
584.53	1275.80
584.88	1271.86
585.23	1267.95
585.58	1263.84
585.93	1259.16
586.28	1254.77
586.63	1250.98
586.98	1247.26
587.34	1243.79
587.69	1239.36
588.04	1235.24
588.39	1231.61
588.74	1227.40
589.09	1223.47
589.44	1219.12
589.79	1215.13
590.14	1211.61
590.49	1207.63
590.84	1203.25
591.19	1199.59
591.54	1195.70
591.89	1190.90
592.25	1186.79
592.60	1182.48
592.95	1178.06
593.30	1173.20
593.65	1168.31
594.00	1163.34
594.35	1159.84
594.70	1155.18
595.05	1151.10
595.40	1146.72
595.75	1141.80
596.10	1137.80
596.45	1133.28
596.80	1129.35
597.15	1125.16
597.50	1120.51
597.85	1116.27
598.19	1111.93
598.54	1107.25
598.89	1103.07
599.24	1099.81
599.59	1095.60
599.94	1091.60
600.29	1087.44
600.64	1083.54
600.99	1079.29
601.34	1075.50
601.69	1070.05
602.04	1065.59
602.39	1061.29
602.74	1057.11
603.08	1053.22
603.43	1049.14
603.78	1045.01
604.13	1040.63
604.48	1036.28
604.83	1032.64
605.18	1028.73
605.53	1024.44
605.87	1020.12
606.22	1015.90
606.57	1010.74
606.92	1006.16
607.27	1001.30
607.62	996.94
607.96	992.66
608.31	988.66
608.66	984.09
609.01	979.84
609.36	975.60
609.70	970.94
610.05	966.36
610.40	961.75
610.75	956.90
611.10	952.70
611.44	947.74
611.79	942.98
612.14	937.94
612.49	932.88
612.83	928.25
613.18	923.30
613.53	918.45
613.88	913.62
614.22	908.80
614.57	904.27
614.92	899.59
615.27	894.75
615.61	890.09
615.96	885.58
616.31	881.25
616.65	877.00
617.00	872.63
617.35	867.98
617.70	863.22
618.04	858.39
618.39	853.45
618.74	849.18
619.08	844.40
619.43	839.92
619.78	835.75
620.12	831.61
620.47	827.48
620.82	822.79
621.16	818.44
621.51	814.32
621.85	809.99
622.20	805.40
622.55	801.05
622.89	796.32
623.24	791.88
623.59	787.19
623.93	782.74
624.28	778.53
624.62	774.89
624.97	770.92
625.32	766.95
625.66	762.99
626.01	758.87
626.35	754.95
626.70	750.86
627.04	746.76
627.39	742.59
627.73	738.80
628.08	735.29
628.43	731.42
628.77	727.41
629.12	723.45
629.46	719.84
629.81	716.18
630.15	712.60
630.50	708.87
630.84	704.96
631.19	701.07
631.53	697.20
631.88	692.88
632.22	689.10
632.57	685.69
632.91	682.02
633.26	678.48
633.60	674.79
633.95	671.29
634.29	667.45
634.64	664.13
634.98	660.27
635.32	656.76
635.67	653.58
636.01	650.28
636.36	646.89
636.70	643.72
637.05	640.39
637.39	637.15
637.73	634.05
638.08	631.31
638.42	628.40
638.77	625.31
639.11	622.30
639.45	619.29
639.80	615.89
640.14	612.61
640.49	609.31
640.83	606.32
641.17	603.06
641.52	600.17
641.86	596.94
642.20	594.13
642.55	590.69
642.89	587.35
643.23	584.05
643.58	581.30
643.92	578.01
644.26	575.01
644.61	572.01
644.95	568.95
645.29	565.65
645.64	562.44
645.98	559.49
646.32	556.56
646.66	553.22
647.01	550.33
647.35	547.49
647.69	544.63
648.04	541.84
648.38	539.01
648.72	536.11
649.06	533.20
649.41	530.19
649.75	527.50
650.09	524.82
650.43	522.11
650.78	519.02
651.12	516.07
651.46	513.27
651.80	510.65
652.14	507.93
652.49	505.42
652.83	502.77
653.17	499.80
653.51	497.08
653.85	494.81
654.20	492.23
654.54	489.58
654.88	486.84
655.22	484.04
655.56	481.45
655.90	478.83
656.25	476.10
656.59	473.53
656.93	471.13
657.27	468.65
657.61	466.00
657.95	463.68
658.29	461.47
658.64	459.09
658.98	456.45
659.32	453.82
659.66	451.32
660.00	448.80
660.34	446.41
660.68	444.06
661.02	441.50
661.36	439.28
661.70	436.99
662.05	434.84
662.39	432.85
662.73	430.90
663.07	428.89
663.41	426.85
663.75	424.73
664.09	422.58
664.43	420.41
664.77	418.46
665.11	416.33
665.45	414.36
665.79	412.30
666.13	410.35
666.47	408.54
666.81	406.60
667.15	404.68
667.49	402.96
667.83	401.17
668.17	399.50
668.51	397.69
668.85	396.00
669.19	394.38
669.53	392.39
669.87	390.47
670.21	388.67
670.55	386.99
670.89	385.52
671.23	383.94
671.57	382.32
671.91	380.74
672.25	379.20
672.58	377.59
672.92	376.00
673.26	374.50
673.60	372.93
673.94	371.42
674.28	369.99
674.62	368.55
674.96	367.06
675.30	365.54
675.64	363.97
675.97	362.45
676.31	360.90
676.65	359.51
676.99	358.36
677.33	356.95
677.67	355.49
678.01	353.97
678.34	352.58
678.68	351.26
679.02	349.77
679.36	348.40
679.70	347.00
680.04	345.63
680.37	344.28
680.71	342.90
681.05	341.66
681.39	340.41
681.73	339.02
682.06	337.84
682.40	336.69
682.74	335.47
683.08	334.38
683.42	333.02
683.75	331.87
684.09	330.33
684.43	329.13
684.77	327.84
685.10	326.57
685.44	325.36
685.78	324.13
686.12	323.12
686.45	322.05
686.79	320.92
687.13	319.88
687.46	318.78
687.80	317.79
688.14	316.56
688.48	315.55
688.81	314.58
689.15	313.46
689.49	312.21
689.82	311.19
690.16	309.85
690.50	308.97
690.83	307.86
691.17	306.80
691.51	305.70
691.84	304.80
692.18	303.86
692.52	302.85
692.85	301.97
693.19	301.17
693.52	300.09
693.86	299.05
694.20	298.14
694.53	297.17
694.87	296.18
695.21	295.30
695.54	294.25
695.88	293.22
696.21	292.23
696.55	291.51
696.88	290.61
697.22	289.81
697.56	288.93
697.89	288.09
698.23	287.30
698.56	286.54
698.90	285.80
699.23	284.97
699.57	284.08
699.90	283.23
700.24	282.21
700.58	281.49
700.91	280.82
701.25	280.28
701.58	279.62
701.92	278.92
702.25	278.20
702.59	277.49
702.92	276.76
703.26	276.01
703.59	275.17
703.93	274.71
704.26	274.02
704.60	273.26
704.93	272.56
705.26	271.88
705.60	271.22
705.93	270.47
706.27	269.85
706.60	269.32
706.94	268.89
707.27	268.25
707.61	267.60
707.94	266.97
708.27	266.10
708.61	265.44
708.94	264.95
709.28	264.30
709.61	263.70
709.94	263.20
710.28	262.63
710.61	262.11
710.95	261.24
711.28	260.91
711.61	260.48
711.95	260.09
712.28	259.51
712.61	258.95
712.95	258.60
713.28	258.27
713.61	257.74
713.95	257.10
714.28	256.72
714.61	256.20
714.95	255.71
715.28	255.12
715.61	254.59
715.95	253.95
716.28	253.49
716.61	253.05
716.95	252.52
717.28	252.10
717.61	251.76
717.94	251.39
718.28	250.74
718.61	250.30
718.94	249.74
719.27	249.38
719.61	248.99
719.94	248.49
720.27	247.89
720.60	247.50
720.94	247.09
721.27	246.66
721.60	246.32
721.93	245.88
722.27	245.77
722.60	245.47
722.93	245.16
723.26	244.83
723.59	244.40
723.93	244.18
724.26	243.88
724.59	243.51
724.92	243.15
725.25	243.02
725.59	242.64
725.92	242.40
726.25	242.09
726.58	241.78
726.91	241.49
727.24	241.27
727.57	240.98
727.91	240.60
728.24	240.33
728.57	240.02
728.90	239.83
729.23	239.36
729.56	239.25
729.89	238.99
730.22	238.76
730.55	238.58
730.89	238.27
731.22	237.95
731.55	237.61
731.88	237.43
732.21	237.02
732.54	236.69
732.87	236.42
733.20	236.14
733.53	235.91
733.86	235.62
734.19	235.27
734.52	235.04
734.85	235.04
735.18	234.72
735.51	234.59
735.84	234.38
736.17	234.26
736.50	233.86
736.83	234.08
737.16	233.75
737.49	233.43
737.82	233.14
738.15	232.98
738.48	232.77
738.81	232.51
739.14	232.33
739.47	232.06
739.80	231.83
740.13	231.69
740.46	231.44
740.79	231.20
741.12	231.05
741.45	230.79
741.78	230.48
742.11	230.50
742.44	230.16
742.77	230.02
743.10	229.83
743.43	229.58
743.75	228.95
744.08	229.26
744.41	229.08
744.74	229.00
745.07	228.75
745.40	228.57
745.73	228.57
746.06	228.34
746.39	228.24
746.71	227.99
747.04	227.69
747.37	227.50
747.70	227.42
748.03	227.23
748.36	227.15
748.68	226.90
749.01	226.58
749.34	226.42
749.67	226.15
750.00	226.02
750.33	226.11
750.65	226.02
750.98	225.43
751.31	225.29
751.64	225.11
751.97	225.13
752.29	225.03
752.62	224.66
752.95	224.53
753.28	224.50
753.60	224.44
753.93	224.44
754.26	224.37
754.59	224.12
754.91	223.92
755.24	223.75
755.57	223.63
755.90	223.52
756.22	223.37
756.55	223.32
756.88	223.12
757.20	222.77
757.53	222.45
757.86	222.38
758.19	222.27
758.51	222.15
758.84	221.93
759.17	221.77
759.49	221.72
759.82	221.78
760.15	221.63
760.47	221.47
760.80	221.28
761.13	221.22
761.45	221.09
761.78	221.06
762.11	221.03
762.43	220.96
762.76	220.82
763.08	220.76
763.41	220.63
763.74	220.52
764.06	220.42
764.39	220.44
764.71	220.36
765.04	220.25
765.37	220.09
765.69	219.90
766.02	219.79
766.34	219.74
766.67	219.55
767.00	219.52
767.32	219.65
767.65	219.80
767.97	219.67
768.30	219.68
768.62	219.56
768.95	219.36
769.27	219.32
769.60	219.30
769.92	219.16
770.25	219.02
770.57	218.89
770.90	218.84
771.22	218.66
771.55	218.54
771.87	218.47
772.20	218.46
772.52	218.70
772.85	219.06
773.17	218.93
773.50	218.83
773.82	218.75
774.15	218.44
774.47	218.10
774.80	218.03
775.12	217.92
775.45	217.92
775.77	217.91
776.09	217.83
776.42	217.74
776.74	217.80
777.07	217.74
777.39	217.75
777.72	217.63
778.04	217.63
778.36	217.49
778.69	217.55
779.01	217.47
779.33	217.14
779.66	216.67
779.98	216.62
780.31	216.54
780.63	216.56
780.95	216.60
781.28	216.58
781.60	216.45
781.92	216.40
782.25	216.30
782.57	216.25
782.89	216.16
783.22	216.09
783.54	216.05
783.86	216.02
784.19	215.97
784.51	216.07
784.83	216.05
785.16	216.08
785.48	215.99
785.80	215.98
786.12	215.92
786.45	215.87
786.77	215.85
787.09	215.79
787.42	215.67
787.74	215.66
788.06	215.65
788.38	215.64
788.71	215.66
789.03	215.64
789.35	215.70
789.67	215.66
789.99	215.65
790.32	215.49
790.64	215.54
790.96	215.79
791.28	215.69
791.61	215.62
791.93	215.54
792.25	215.51
792.57	215.73
792.89	215.69
793.21	215.70
793.54	215.63
793.86	215.68
794.18	215.65
794.50	215.58
794.82	215.58
795.14	215.60
795.47	215.57
795.79	215.52
796.11	215.33
796.43	215.24
796.75	215.25
797.07	215.30
797.39	215.30
797.71	214.99
798.04	214.92
798.36	214.92
798.68	214.98
799.00	214.97
799.32	214.76
799.64	214.83
799.96	214.83
800.28	214.87
800.60	214.75
800.92	214.76
801.24	214.69
801.56	214.68
801.89	214.66
802.21	214.72
802.53	214.70
802.85	214.77
803.17	214.96
803.49	214.84
803.81	214.78
804.13	214.69
804.45	214.64
804.77	214.71
805.09	214.71
805.41	214.60
805.73	214.45
806.05	214.33
806.37	214.32
806.69	214.21
807.01	214.15
807.33	214.20
807.65	214.08
807.97	214.19
808.28	214.13
808.60	214.12
808.92	214.02
809.24	214.12
809.56	214.02
809.88	213.80
810.20	213.80
810.52	213.85
810.84	213.80
811.16	213.76
811.48	213.68
811.80	213.79
812.12	213.81
812.43	213.88
812.75	213.89
813.07	213.74
813.39	213.79
813.71	213.76
814.03	213.66
814.35	213.67
814.67	213.56
814.98	213.43
815.30	213.39
815.62	213.32
815.94	213.10
816.26	213.12
816.58	213.09
816.89	213.06
817.21	213.02
817.53	212.96
817.85	212.93
818.17	212.88
818.48	212.71
818.80	212.70
819.12	212.67
819.44	212.60
819.76	212.59
820.07	212.57
820.39	212.50
820.71	212.54
821.03	212.52
821.34	212.47
821.66	212.52
821.98	212.48
822.30	212.40
822.61	212.65
822.93	212.55
823.25	212.53
823.57	212.55
823.88	212.54
824.20	212.54
824.52	212.64
824.83	212.57
825.15	212.47
825.47	212.53
825.79	212.50
826.10	212.51
826.42	212.46
826.74	212.47
827.05	212.52
827.37	212.50
827.69	212.44
828.00	212.49
828.32	212.45
828.64	212.41
828.95	212.58
829.27	212.46
829.58	212.47
829.90	212.53
830.22	212.53
830.53	212.44
830.85	212.40
831.17	212.26
831.48	212.28
831.80	212.35
832.11	212.26
832.43	212.24
832.75	212.19
833.06	212.34
833.38	212.22
833.69	212.17
834.01	212.17
834.32	212.17
834.64	212.12
834.96	212.12
835.27	212.14
835.59	211.96
835.90	211.85
836.22	211.88
836.53	211.84
836.85	211.71
837.16	212.06
837.48	212.06
837.79	212.24
838.11	212.28
838.42	212.22
838.74	212.18
839.05	212.10
839.37	212.12
839.68	211.92
840.00	211.87
840.31	211.93
840.63	211.87
840.94	211.81
841.26	211.79
841.57	211.82
841.88	211.80
842.20	211.76
842.51	211.74
842.83	211.72
843.14	211.98
843.46	212.01
843.77	211.80
844.08	211.75
844.40	211.57
844.71	211.56
845.03	211.56
845.34	211.56
845.65	211.60
845.97	211.54
846.28	211.63
846.60	211.66
846.91	211.63
847.22	211.70
847.54	211.74
847.85	211.67
848.16	211.62
848.48	211.62
848.79	211.84
849.10	211.91
849.42	211.90
849.73	211.55
850.04	211.60
850.36	211.50
850.67	211.57
850.98	211.57
851.30	211.57
851.61	211.58
851.92	211.61
852.23	211.70
852.55	211.72
852.86	211.71
853.17	211.79
853.49	211.82
853.80	211.83
854.11	211.88
854.42	211.99
854.74	212.04
855.05	212.05
855.36	211.86
855.67	211.83
855.99	211.81
856.30	212.32
856.61	212.34
856.92	212.31
857.23	212.23
857.55	212.21
857.86	212.18
858.17	212.23
858.48	212.25
858.79	212.12
859.11	212.20
859.42	212.15
859.73	212.11
860.04	212.13
860.35	212.01
860.66	211.88
860.98	211.80
861.29	211.72
861.60	211.72
861.91	211.81
862.22	211.77
862.53	211.73
862.84	211.24
863.16	211.29
863.47	211.24
863.78	211.30
864.09	211.32
864.40	211.33
864.71	211.29
865.02	211.23
865.33	211.24
865.64	211.12
865.95	211.13
866.27	211.31
866.58	211.20
866.89	211.25
867.20	211.26
867.51	211.29
867.82	211.32
868.13	211.40
868.44	211.30
868.75	211.40
869.06	211.47
869.37	211.60
869.68	211.48
869.99	211.54
870.30	211.55
870.61	211.55
870.92	211.56
871.23	211.55
871.54	211.66
871.85	211.73
872.16	211.75
872.47	211.75
872.78	211.67
873.09	211.70
873.40	211.64
873.71	211.71
874.02	211.76
874.33	211.67
874.64	211.57
874.95	211.65
875.26	211.57
875.56	211.54
875.87	211.45
876.18	211.47
876.49	211.79
876.80	211.79
877.11	211.80
877.42	211.78
877.73	211.77
878.04	211.72
878.35	211.69
878.66	211.75
878.96	211.75
879.27	211.69
879.58	211.70
879.89	211.78
880.20	211.84
880.51	211.79
880.82	211.85
881.12	211.90
881.43	211.78
881.74	211.74
882.05	211.75
882.36	211.75
882.67	211.74
882.97	211.42
883.28	211.40
883.59	211.38
883.90	211.40
884.21	211.50
884.51	211.48
884.82	211.50
885.13	211.55
885.44	211.54
885.74	211.51
886.05	211.45
886.36	211.36
886.67	211.27
886.98	211.42
887.28	211.46
887.59	211.45
887.90	211.53
888.20	211.50
888.51	211.53
888.82	211.45
889.13	211.49
889.43	211.72
889.74	211.73
890.05	211.76
890.35	211.72
890.66	211.63
890.97	211.48
891.28	211.43
891.58	211.40
891.89	211.43
892.20	211.37
892.50	211.37
892.81	211.39
893.12	211.42
893.42	211.21
893.73	211.28
894.04	211.28
894.34	211.20
894.65	211.22
894.95	211.19
895.26	211.28
895.57	211.39
895.87	211.12
896.18	211.22
896.48	211.18
896.79	211.20
897.10	211.30
897.40	211.40
897.71	211.46
898.01	211.42
898.32	211.49
898.63	211.50
898.93	211.59
899.24	211.60
899.54	211.62
899.85	211.63
900.15	211.61
900.46	211.59
900.76	211.64
901.07	211.59
901.38	211.59
901.68	211.56
901.99	211.46
902.29	211.47
902.60	211.37
902.90	211.36
903.21	211.40
903.51	211.39
903.82	211.48
904.12	211.48
904.43	211.46
904.73	211.38
905.03	211.42
905.34	211.68
905.64	211.70
905.95	211.59
906.25	211.59
906.56	211.54
906.86	211.54
907.17	211.49
907.47	211.58
907.77	211.56
908.08	211.55
908.38	211.47
908.69	211.46
908.99	211.49
909.30	211.52
909.60	211.44
909.90	211.45
910.21	211.31
910.51	211.26
910.81	211.30
911.12	211.33
911.42	211.32
911.73	210.99
912.03	210.94
912.33	211.00
912.64	210.96
912.94	210.93
913.24	210.93
913.55	210.95
913.85	210.90
914.15	210.92
914.46	210.91
914.76	210.94
915.06	210.93
915.37	210.89
915.67	210.85
915.97	210.86
916.27	210.67
916.58	210.68
916.88	210.65
917.18	210.59
917.49	210.79
917.79	210.72
918.09	210.79
918.39	210.93
918.70	210.95
919.00	210.98
919.30	211.13
919.60	211.11
919.91	211.09
920.21	211.15
920.51	211.09
920.81	211.15
921.12	211.15
921.42	211.12
921.72	211.22
922.02	211.25
922.32	211.32
922.63	211.38
922.93	211.57
923.23	211.64
923.53	211.61
923.83	211.39
924.13	211.51
924.44	211.44
924.74	211.52
925.04	211.53
925.34	211.52
925.64	211.35
925.94	211.32
926.24	211.55
926.55	211.48
926.85	211.56
927.15	211.57
927.45	211.53
927.75	211.57
928.05	211.45
928.35	211.46
928.65	211.56
928.95	211.61
929.26	211.50
929.56	211.53
929.86	211.64
930.16	211.70
930.46	211.65
930.76	211.71
931.06	211.51
931.36	211.53
931.66	211.53
931.96	211.62
932.26	211.64
932.56	211.44
932.86	211.50
933.16	211.44
933.46	211.33
933.76	211.36
934.06	211.41
934.36	211.57
934.66	211.56
934.96	211.49
935.26	211.56
935.56	211.65
935.86	211.56
936.16	211.54
936.46	211.47
936.76	211.43
937.06	211.42
937.36	211.42
937.66	211.42
937.96	211.50
938.26	211.45
938.56	211.46
938.86	211.52
939.16	211.55
939.46	211.63
939.76	211.67
940.06	211.63
940.35	211.61
940.65	211.45
940.95	211.34
941.25	211.24
941.55	211.14
941.85	211.04
942.15	211.13
942.45	211.22
942.75	211.21
943.04	211.25
943.34	211.24
943.64	211.23
943.94	211.20
944.24	211.14
944.54	211.14
944.84	211.07
945.13	211.03
945.43	210.94
945.73	210.95
946.03	210.99
946.33	211.00
946.62	210.97
946.92	210.99
947.22	211.12
947.52	211.11
947.82	211.10
948.11	211.08
948.41	210.99
948.71	210.90
949.01	210.91
949.31	210.90
949.60	210.92
949.90	211.05
950.20	211.01
950.50	211.05
950.79	210.99
951.09	211.08
951.39	211.07
951.69	211.16
951.98	211.23
952.28	211.16
952.58	211.17
952.87	211.15
953.17	211.22
953.47	211.14
953.76	211.19
954.06	211.18
954.36	211.18
954.66	211.25
954.95	211.35
955.25	211.30
955.55	211.30
955.84	211.27
956.14	211.24
956.44	211.28
956.73	211.19
957.03	211.29
957.32	211.29
957.62	211.27
957.92	211.31
958.21	211.19
958.51	211.68
958.81	211.77
959.10	211.82
959.40	211.88
959.69	211.93
959.99	211.99
960.29	212.03
960.58	212.01
960.88	212.13
961.17	212.05
961.47	212.13
961.76	212.11
962.06	212.13
962.36	212.10
962.65	212.15
962.95	212.17
963.24	212.09
963.54	212.14
963.83	212.14
964.13	212.11
964.42	212.09
964.72	211.79
965.01	211.73
965.31	211.73
965.60	211.67
965.90	211.87
966.19	211.83
966.49	211.89
966.78	211.89
967.08	211.82
967.37	211.77
967.67	211.65
967.96	211.71
968.26	211.78
968.55	211.86
968.85	211.80
969.14	211.87
969.43	211.86
969.73	211.86
970.02	211.89
970.32	211.84
970.61	211.83
970.91	211.70
971.20	211.63
971.49	211.56
971.79	211.60
972.08	211.38
972.38	211.48
972.67	211.36
972.96	211.48
973.26	211.42
973.55	211.63
973.85	211.63
974.14	211.57
974.43	211.57
974.73	211.48
975.02	211.48
975.31	211.39
975.61	211.41
975.90	211.23
976.19	211.21
976.49	211.26
976.78	211.26
977.07	211.22
977.37	211.23
977.66	211.27
977.95	211.23
978.24	211.24
978.54	211.18
978.83	211.14
979.12	211.10
979.42	211.07
979.71	210.93
980.00	210.98
980.29	210.99
980.59	210.79
980.88	210.83
981.17	210.78
981.46	210.80
981.76	210.81
982.05	210.97
982.34	210.98
982.63	210.94
982.93	210.91
983.22	211.03
983.51	211.10
983.80	211.15
984.09	211.18
984.39	211.15
984.68	211.09
984.97	211.13
985.26	211.01
985.55	211.11
985.85	211.05
986.14	211.05
986.43	211.08
986.72	211.11
987.01	211.03
987.30	211.07
987.59	211.02
987.89	211.02
988.18	210.96
988.47	210.89
988.76	210.89
989.05	210.90
989.34	210.86
989.63	210.88
989.92	210.78
990.22	210.73
990.51	210.75
990.80	210.72
991.09	210.68
991.38	210.71
991.67	210.60
991.96	210.57
992.25	210.60
992.54	210.52
992.83	210.66
993.12	210.60
993.41	210.60
993.70	210.80
993.99	210.83
994.28	210.88
994.58	210.97
994.87	210.93
995.16	210.97
995.45	210.96
995.74	210.82
996.03	210.94
996.32	211.02
996.61	211.05
996.90	211.10
997.19	211.12
997.48	211.16
997.77	211.12
998.06	211.14
998.34	211.15
998.63	211.17
998.92	211.10
999.21	211.15
999.50	211.11
999.79	211.00
1000.08	211.00
1000.37	210.99
1000.66	210.92
1000.95	211.03
1001.24	210.95
1001.53	210.99
1001.82	211.05
1002.11	210.94
1002.40	210.92
1002.68	210.96
1002.97	211.22
1003.26	211.22
1003.55	211.15
1003.84	211.15
1004.13	211.25
1004.42	211.21
1004.71	211.23
1004.99	211.19
1005.28	211.32
1005.57	211.44
1005.86	211.40
1006.15	211.38
1006.44	211.34
1006.72	211.40
1007.01	211.28
1007.30	211.37
1007.59	211.27
1007.88	211.33
1008.17	211.38
1008.45	211.26
1008.74	211.15
1009.03	210.93
1009.32	210.91
1009.60	210.90
1009.89	210.90
1010.18	210.79
1010.47	210.79
1010.76	210.77
1011.04	210.75
1011.33	210.75
1011.62	210.70
1011.91	210.71
1012.19	210.75
1012.48	210.68
1012.77	210.67
1013.05	210.82
1013.34	210.77
1013.63	210.80
1013.92	210.80
1014.20	210.72
1014.49	210.78
1014.78	210.80
1015.06	210.70
1015.35	210.71
1015.64	210.80
1015.92	210.91
1016.21	210.92
1016.50	210.94
1016.78	210.94
1017.07	210.99
1017.36	210.92
1017.64	210.82
1017.93	210.84
1018.22	210.75
1018.50	210.80
1018.79	210.80
1019.08	210.69
1019.36	210.76
1019.65	210.71
1019.93	210.75
1020.22	210.81
1020.51	210.99
1020.79	210.98
1021.08	209.65
1021.36	210.05
1021.65	211.35
1021.94	210.95
1022.22	211.60
1022.51	210.40
1022.79	212.05
1023.08	211.15
1023.36	214.55
1023.65	210.70
>>>>>End Processed Spectral Data<<<<<
