SpectraSuite Data File
++++++++++++++++++++++++++++++++++++
Date: Mon Feb 25 17:12:05 EST 2013
User: group
Dark Spectrum Present: No
Reference Spectrum Present: No
Number of Sampled Component Spectra: 1
Spectrometers: USB2E7196
Integration Time (usec): 104000 (USB2E7196)
Spectra Averaged: 20 (USB2E7196)
Boxcar Smoothing: 10 (USB2E7196)
Correct for Electrical Dark: No (USB2E7196)
Strobe/Lamp Enabled: No (USB2E7196)
Correct for Detector Non-linearity: No (USB2E7196)
Correct for Stray Light: No (USB2E7196)
Number of Pixels in Processed Spectrum: 2048
>>>>>Begin Processed Spectral Data<<<<<
339.09	0.00
339.48	198.50
339.86	199.35
340.24	202.90
340.63	203.25
341.01	208.75
341.39	205.15
341.78	206.80
342.16	209.25
342.54	207.50
342.93	198.01
343.31	208.05
343.69	208.63
344.07	209.16
344.46	209.56
344.84	209.94
345.22	209.97
345.60	210.28
345.99	210.49
346.37	210.60
346.75	210.77
347.13	210.86
347.52	210.95
347.90	211.12
348.28	211.20
348.66	211.32
349.05	211.23
349.43	211.26
349.81	211.32
350.19	211.42
350.57	211.50
350.96	211.65
351.34	211.69
351.72	211.73
352.10	211.80
352.48	211.84
352.87	211.83
353.25	212.02
353.63	212.08
354.01	212.16
354.39	212.19
354.77	212.29
355.15	212.50
355.54	212.50
355.92	212.45
356.30	212.50
356.68	212.85
357.06	212.99
357.44	213.09
357.82	213.11
358.20	213.21
358.58	213.26
358.97	213.29
359.35	213.47
359.73	213.54
360.11	213.56
360.49	213.59
360.87	213.68
361.25	213.65
361.63	213.74
362.01	213.76
362.39	213.80
362.77	213.84
363.15	213.79
363.53	213.79
363.91	213.90
364.29	213.90
364.67	213.51
365.05	213.49
365.43	213.49
365.81	213.51
366.19	213.64
366.57	213.74
366.95	213.77
367.33	213.66
367.71	213.66
368.09	213.73
368.47	213.72
368.85	213.75
369.23	213.75
369.61	213.59
369.99	213.61
370.37	213.67
370.75	213.74
371.13	213.63
371.51	213.60
371.89	213.52
372.27	213.45
372.65	213.39
373.03	213.29
373.41	213.27
373.78	213.24
374.16	213.07
374.54	212.93
374.92	212.78
375.30	212.77
375.68	212.66
376.06	212.68
376.44	212.58
376.82	212.53
377.19	212.55
377.57	212.55
377.95	212.44
378.33	212.33
378.71	212.12
379.09	212.13
379.47	212.10
379.84	212.04
380.22	211.98
380.60	211.96
380.98	211.94
381.36	211.85
381.73	211.75
382.11	211.75
382.49	211.72
382.87	211.63
383.25	211.50
383.62	211.89
384.00	211.74
384.38	211.77
384.76	211.78
385.13	211.86
385.51	211.83
385.89	211.78
386.27	211.72
386.64	211.73
387.02	211.61
387.40	211.59
387.78	211.55
388.15	211.50
388.53	211.44
388.91	211.45
389.29	211.40
389.66	211.40
390.04	211.24
390.42	211.25
390.79	211.25
391.17	211.31
391.55	210.87
391.92	210.87
392.30	210.88
392.68	210.85
393.05	210.78
393.43	210.78
393.81	210.78
394.18	210.75
394.56	210.78
394.94	210.97
395.31	210.91
395.69	211.05
396.06	211.11
396.44	211.09
396.82	211.00
397.19	211.18
397.57	211.18
397.95	211.32
398.32	211.25
398.70	211.30
399.07	211.42
399.45	211.47
399.82	211.47
400.20	211.46
400.58	211.49
400.95	211.35
401.33	211.43
401.70	211.68
402.08	211.77
402.45	211.78
402.83	211.85
403.20	211.90
403.58	211.91
403.95	212.02
404.33	212.17
404.71	212.27
405.08	212.50
405.46	212.56
405.83	212.63
406.21	212.76
406.58	212.90
406.96	212.89
407.33	213.02
407.70	213.09
408.08	213.48
408.45	213.54
408.83	213.80
409.20	213.85
409.58	213.88
409.95	214.14
410.33	214.33
410.70	214.44
411.08	214.73
411.45	214.97
411.82	215.15
412.20	215.57
412.57	216.05
412.95	216.09
413.32	216.48
413.69	216.84
414.07	217.22
414.44	217.65
414.82	218.15
415.19	218.74
415.56	219.30
415.94	219.62
416.31	220.36
416.68	220.96
417.06	221.70
417.43	222.46
417.81	223.20
418.18	224.02
418.55	224.82
418.93	225.68
419.30	226.62
419.67	227.58
420.04	228.55
420.42	229.50
420.79	230.95
421.16	232.18
421.54	233.61
421.91	234.91
422.28	236.30
422.66	237.68
423.03	239.35
423.40	240.94
423.77	242.55
424.15	244.12
424.52	245.79
424.89	247.71
425.26	249.34
425.64	250.99
426.01	252.87
426.38	254.89
426.75	256.92
427.13	259.00
427.50	261.12
427.87	263.33
428.24	265.56
428.61	267.50
428.99	269.93
429.36	272.40
429.73	274.88
430.10	277.43
430.47	280.07
430.85	282.35
431.22	285.04
431.59	288.23
431.96	291.00
432.33	294.19
432.70	297.14
433.08	300.74
433.45	304.15
433.82	307.41
434.19	311.08
434.56	314.75
434.93	318.17
435.30	321.67
435.68	325.41
436.05	329.09
436.42	332.81
436.79	336.17
437.16	339.70
437.53	343.60
437.90	347.41
438.27	351.20
438.64	355.17
439.01	358.93
439.38	361.97
439.75	365.20
440.13	368.67
440.50	372.05
440.87	374.76
441.24	377.61
441.61	380.69
441.98	382.93
442.35	385.52
442.72	388.26
443.09	390.93
443.46	392.54
443.83	393.72
444.20	394.56
444.57	395.92
444.94	396.66
445.31	397.30
445.68	398.30
446.05	398.48
446.42	398.10
446.79	397.69
447.16	397.20
447.53	396.78
447.90	395.27
448.27	393.79
448.64	391.81
449.01	390.33
449.37	387.80
449.74	385.39
450.11	382.67
450.48	379.35
450.85	375.98
451.22	373.19
451.59	370.55
451.96	368.09
452.33	364.72
452.70	361.58
453.07	357.90
453.43	353.66
453.80	350.07
454.17	346.69
454.54	343.22
454.91	339.70
455.28	336.28
455.65	333.10
456.02	330.43
456.38	327.58
456.75	324.14
457.12	321.32
457.49	318.50
457.86	315.59
458.23	313.42
458.59	310.95
458.96	308.35
459.33	306.00
459.70	303.65
460.07	301.87
460.43	299.79
460.80	297.91
461.17	296.33
461.54	294.57
461.91	292.83
462.27	291.19
462.64	289.65
463.01	288.02
463.38	286.65
463.74	284.57
464.11	283.19
464.48	282.05
464.85	280.79
465.21	279.85
465.58	278.78
465.95	277.37
466.32	276.30
466.68	275.30
467.05	274.26
467.42	273.29
467.78	272.09
468.15	271.09
468.52	270.35
468.88	269.26
469.25	268.27
469.62	267.61
469.98	266.86
470.35	266.13
470.72	265.48
471.08	264.63
471.45	264.16
471.82	263.63
472.18	262.96
472.55	262.51
472.92	261.92
473.28	261.35
473.65	260.86
474.02	260.43
474.38	260.09
474.75	259.76
475.11	259.40
475.48	259.16
475.85	258.87
476.21	258.54
476.58	258.41
476.94	258.36
477.31	258.19
477.67	257.98
478.04	257.89
478.41	257.83
478.77	258.17
479.14	258.03
479.50	258.10
479.87	258.17
480.23	258.33
480.60	258.42
480.96	258.68
481.33	258.95
481.69	259.14
482.06	259.32
482.42	259.56
482.79	259.88
483.15	260.26
483.52	260.73
483.88	261.12
484.25	261.50
484.61	261.95
484.98	262.36
485.34	263.06
485.71	263.72
486.07	264.38
486.44	264.74
486.80	265.48
487.17	266.22
487.53	267.17
487.90	268.06
488.26	269.13
488.62	270.13
488.99	271.19
489.35	272.40
489.72	273.61
490.08	274.90
490.44	276.05
490.81	277.35
491.17	278.71
491.54	280.32
491.90	281.97
492.26	283.72
492.63	285.50
492.99	287.21
493.36	289.14
493.72	291.21
494.08	293.30
494.45	295.53
494.81	297.95
495.17	300.18
495.54	302.74
495.90	305.16
496.26	307.83
496.63	310.60
496.99	313.43
497.35	316.45
497.72	319.62
498.08	322.97
498.44	326.42
498.80	330.09
499.17	333.72
499.53	337.45
499.89	341.41
500.26	345.38
500.62	349.57
500.98	353.90
501.34	358.37
501.71	363.05
502.07	367.69
502.43	372.28
502.79	377.20
503.16	382.29
503.52	387.53
503.88	392.86
504.24	398.39
504.60	404.10
504.97	410.06
505.33	415.87
505.69	422.21
506.05	428.46
506.41	434.75
506.78	441.18
507.14	447.77
507.50	454.57
507.86	461.56
508.22	468.67
508.59	475.83
508.95	483.15
509.31	490.76
509.67	498.60
510.03	506.50
510.39	514.63
510.75	522.77
511.12	531.14
511.48	539.66
511.84	548.29
512.20	556.83
512.56	565.55
512.92	574.71
513.28	583.70
513.64	592.84
514.00	601.98
514.37	611.30
514.73	620.88
515.09	630.42
515.45	639.89
515.81	649.39
516.17	659.23
516.53	669.04
516.89	678.83
517.25	688.60
517.61	698.67
517.97	708.66
518.33	718.65
518.69	728.75
519.05	739.08
519.41	749.46
519.77	760.24
520.13	770.53
520.49	780.72
520.85	791.16
521.21	801.89
521.57	812.54
521.93	822.94
522.29	833.72
522.65	844.36
523.01	855.18
523.37	865.70
523.73	876.35
524.09	887.04
524.45	897.59
524.81	908.35
525.17	919.29
525.53	930.19
525.89	940.85
526.25	951.71
526.61	961.93
526.97	972.23
527.33	982.52
527.68	993.41
528.04	1003.60
528.40	1013.46
528.76	1023.56
529.12	1034.04
529.48	1044.79
529.84	1054.73
530.20	1064.78
530.56	1074.84
530.91	1085.41
531.27	1095.59
531.63	1105.65
531.99	1115.65
532.35	1125.23
532.71	1134.83
533.07	1144.54
533.42	1154.26
533.78	1163.82
534.14	1173.19
534.50	1182.16
534.86	1191.28
535.21	1199.54
535.57	1208.90
535.93	1217.87
536.29	1226.46
536.65	1234.91
537.00	1242.71
537.36	1250.58
537.72	1258.32
538.08	1266.23
538.44	1273.79
538.79	1281.39
539.15	1288.87
539.51	1296.38
539.87	1304.33
540.22	1311.23
540.58	1318.42
540.94	1325.22
541.29	1331.59
541.65	1338.08
542.01	1344.62
542.37	1350.70
542.72	1357.23
543.08	1363.04
543.44	1369.31
543.79	1374.67
544.15	1380.02
544.51	1385.91
544.87	1391.78
545.22	1396.76
545.58	1401.66
545.94	1405.93
546.29	1410.01
546.65	1413.81
547.01	1417.54
547.36	1421.12
547.72	1425.27
548.07	1428.51
548.43	1431.60
548.79	1434.33
549.14	1437.40
549.50	1440.26
549.86	1442.77
550.21	1444.86
550.57	1447.28
550.92	1448.78
551.28	1450.88
551.64	1452.71
551.99	1454.47
552.35	1455.77
552.70	1457.65
553.06	1459.10
553.41	1460.70
553.77	1461.95
554.13	1463.33
554.48	1464.73
554.84	1465.93
555.19	1466.36
555.55	1466.85
555.90	1467.22
556.26	1467.93
556.61	1467.85
556.97	1467.80
557.32	1467.85
557.68	1467.62
558.03	1467.58
558.39	1467.81
558.74	1468.03
559.10	1468.21
559.45	1467.68
559.81	1467.86
560.16	1467.05
560.52	1466.90
560.87	1466.58
561.23	1465.62
561.58	1465.05
561.94	1464.02
562.29	1462.51
562.64	1461.84
563.00	1460.97
563.35	1460.40
563.71	1459.65
564.06	1459.12
564.42	1458.52
564.77	1457.92
565.12	1457.32
565.48	1456.50
565.83	1455.36
566.19	1454.29
566.54	1452.24
566.89	1450.70
567.25	1449.14
567.60	1448.20
567.96	1446.50
568.31	1444.83
568.66	1443.22
569.02	1441.05
569.37	1438.49
569.72	1436.61
570.08	1434.33
570.43	1432.03
570.78	1429.31
571.14	1426.62
571.49	1423.89
571.84	1421.37
572.20	1418.31
572.55	1415.61
572.90	1411.96
573.26	1408.70
573.61	1405.28
573.96	1402.25
574.31	1398.71
574.67	1394.52
575.02	1390.30
575.37	1386.30
575.72	1381.96
576.08	1378.55
576.43	1374.70
576.78	1371.24
577.13	1367.74
577.49	1363.92
577.84	1360.12
578.19	1357.00
578.54	1353.79
578.90	1350.58
579.25	1346.70
579.60	1342.79
579.95	1338.65
580.30	1335.30
580.66	1331.86
581.01	1327.97
581.36	1324.31
581.71	1320.67
582.06	1317.26
582.42	1313.69
582.77	1309.61
583.12	1305.95
583.47	1302.38
583.82	1298.93
584.17	1295.46
584.53	1291.84
584.88	1288.08
585.23	1284.28
585.58	1280.16
585.93	1276.15
586.28	1272.39
586.63	1268.45
586.98	1265.00
587.34	1261.77
587.69	1257.95
588.04	1254.07
588.39	1250.51
588.74	1246.25
589.09	1242.70
589.44	1238.60
589.79	1235.17
590.14	1231.85
590.49	1228.40
590.84	1224.49
591.19	1221.14
591.54	1217.35
591.89	1212.61
592.25	1208.80
592.60	1204.83
592.95	1200.56
593.30	1196.10
593.65	1191.61
594.00	1187.36
594.35	1184.35
594.70	1179.98
595.05	1176.03
595.40	1172.17
595.75	1167.81
596.10	1164.35
596.45	1160.50
596.80	1157.17
597.15	1153.47
597.50	1149.62
597.85	1145.97
598.19	1142.01
598.54	1138.17
598.89	1134.35
599.24	1131.56
599.59	1128.05
599.94	1124.81
600.29	1121.63
600.64	1118.21
600.99	1114.57
601.34	1111.57
601.69	1107.06
602.04	1103.43
602.39	1099.71
602.74	1096.22
603.08	1093.37
603.43	1090.49
603.78	1087.23
604.13	1083.51
604.48	1079.93
604.83	1076.99
605.18	1073.89
605.53	1070.75
605.87	1066.98
606.22	1064.03
606.57	1060.45
606.92	1056.94
607.27	1053.22
607.62	1049.54
607.96	1046.41
608.31	1043.43
608.66	1039.73
609.01	1036.00
609.36	1032.41
609.70	1028.63
610.05	1024.77
610.40	1020.69
610.75	1016.26
611.10	1012.47
611.44	1008.30
611.79	1004.08
612.14	999.32
612.49	994.48
612.83	990.15
613.18	985.77
613.53	981.20
613.88	976.61
614.22	972.31
614.57	967.89
614.92	963.59
615.27	958.95
615.61	954.25
615.96	949.96
616.31	945.85
616.65	941.83
617.00	937.79
617.35	933.57
617.70	929.09
618.04	924.52
618.39	919.74
618.74	915.73
619.08	911.18
619.43	906.85
619.78	902.95
620.12	898.64
620.47	894.54
620.82	889.76
621.16	885.22
621.51	880.90
621.85	876.83
622.20	872.45
622.55	868.26
622.89	863.89
623.24	859.61
623.59	855.06
623.93	850.71
624.28	846.50
624.62	842.25
624.97	838.27
625.32	834.15
625.66	830.20
626.01	825.94
626.35	822.13
626.70	818.25
627.04	814.48
627.39	810.44
627.73	806.60
628.08	803.20
628.43	799.19
628.77	795.02
629.12	790.84
629.46	787.24
629.81	783.30
630.15	779.51
630.50	775.42
630.84	771.48
631.19	767.75
631.53	763.96
631.88	759.68
632.22	755.63
632.57	752.12
632.91	748.20
633.26	744.40
633.60	740.68
633.95	737.05
634.29	732.93
634.64	729.45
634.98	725.45
635.32	721.68
635.67	718.38
636.01	714.81
636.36	711.23
636.70	707.72
637.05	704.12
637.39	700.57
637.73	697.37
638.08	694.36
638.42	690.93
638.77	687.49
639.11	684.29
639.45	680.93
639.80	677.20
640.14	673.78
640.49	670.48
640.83	666.97
641.17	663.60
641.52	660.25
641.86	656.62
642.20	653.38
642.55	649.76
642.89	646.20
643.23	642.81
643.58	639.70
643.92	635.95
644.26	632.64
644.61	629.43
644.95	625.79
645.29	622.07
645.64	618.54
645.98	615.26
646.32	612.15
646.66	608.67
647.01	605.44
647.35	602.28
647.69	598.77
648.04	595.49
648.38	592.13
648.72	588.79
649.06	585.54
649.41	582.27
649.75	579.16
650.09	576.03
650.43	572.79
650.78	569.30
651.12	566.03
651.46	562.86
651.80	559.64
652.14	556.61
652.49	553.69
652.83	550.45
653.17	546.92
653.51	543.54
653.85	540.66
654.20	537.71
654.54	534.28
654.88	531.22
655.22	528.13
655.56	525.00
655.90	521.98
656.25	518.92
656.59	515.96
656.93	512.96
657.27	510.11
657.61	507.02
657.95	504.17
658.29	501.44
658.64	498.69
658.98	495.77
659.32	492.79
659.66	489.87
660.00	487.16
660.34	484.40
660.68	481.55
661.02	478.57
661.36	475.82
661.70	473.27
662.05	470.73
662.39	468.43
662.73	465.96
663.07	463.58
663.41	461.14
663.75	458.49
664.09	456.04
664.43	453.32
664.77	451.00
665.11	448.59
665.45	446.21
665.79	443.67
666.13	441.22
666.47	439.04
666.81	436.71
667.15	434.31
667.49	432.35
667.83	430.35
668.17	428.23
668.51	426.02
668.85	424.00
669.19	422.03
669.53	419.70
669.87	417.51
670.21	415.39
670.55	413.27
670.89	411.55
671.23	409.62
671.57	407.80
671.91	405.89
672.25	403.91
672.58	402.03
672.92	400.12
673.26	398.44
673.60	396.64
673.94	394.78
674.28	393.03
674.62	391.32
674.96	389.46
675.30	387.77
675.64	386.05
675.97	384.24
676.31	382.41
676.65	380.71
676.99	379.25
677.33	377.50
677.67	375.95
678.01	374.01
678.34	372.36
678.68	370.79
679.02	369.11
679.36	367.53
679.70	365.93
680.04	364.41
680.37	362.73
680.71	361.04
681.05	359.67
681.39	358.20
681.73	356.50
682.06	355.16
682.40	353.71
682.74	352.27
683.08	351.02
683.42	349.49
683.75	348.14
684.09	346.59
684.43	345.17
684.77	343.67
685.10	342.26
685.44	340.76
685.78	339.23
686.12	337.92
686.45	336.60
686.79	335.19
687.13	333.96
687.46	332.84
687.80	331.70
688.14	330.32
688.48	329.06
688.81	327.81
689.15	326.48
689.49	325.20
689.82	323.95
690.16	322.41
690.50	321.13
690.83	319.65
691.17	318.33
691.51	317.08
691.84	315.96
692.18	314.90
692.52	313.88
692.85	312.93
693.19	311.83
693.52	310.71
693.86	309.60
694.20	308.47
694.53	307.20
694.87	306.08
695.21	304.87
695.54	303.79
695.88	302.62
696.21	301.53
696.55	300.53
696.88	299.56
697.22	298.47
697.56	297.67
697.89	296.85
698.23	295.95
698.56	295.01
698.90	294.09
699.23	292.99
699.57	291.96
699.90	290.95
700.24	289.97
700.58	288.99
700.91	288.16
701.25	287.33
701.58	286.55
701.92	285.74
702.25	284.99
702.59	284.04
702.92	283.27
703.26	282.41
703.59	281.58
703.93	280.96
704.26	280.34
704.60	279.48
704.93	278.63
705.26	277.74
705.60	277.03
705.93	276.16
706.27	275.64
706.60	275.02
706.94	274.44
707.27	273.76
707.61	273.08
707.94	272.34
708.27	271.48
708.61	270.72
708.94	269.94
709.28	269.27
709.61	268.68
709.94	268.12
710.28	267.57
710.61	266.97
710.95	265.98
711.28	265.55
711.61	264.95
711.95	264.44
712.28	263.93
712.61	263.34
712.95	262.97
713.28	262.42
713.61	261.76
713.95	261.08
714.28	260.51
714.61	260.05
714.95	259.54
715.28	258.91
715.61	258.34
715.95	257.80
716.28	257.15
716.61	256.66
716.95	256.03
717.28	255.52
717.61	255.01
717.94	254.65
718.28	253.91
718.61	253.34
718.94	252.84
719.27	252.32
719.61	251.90
719.94	251.37
720.27	250.78
720.60	250.36
720.94	250.02
721.27	249.49
721.60	249.05
721.93	248.58
722.27	248.37
722.60	248.03
722.93	247.65
723.26	247.35
723.59	246.95
723.93	246.67
724.26	246.27
724.59	245.89
724.92	245.55
725.25	245.31
725.59	245.03
725.92	244.76
726.25	244.50
726.58	244.14
726.91	243.78
727.24	243.57
727.57	243.29
727.91	242.79
728.24	242.65
728.57	242.30
728.90	242.05
729.23	241.62
729.56	241.46
729.89	241.13
730.22	240.80
730.55	240.48
730.89	240.07
731.22	239.81
731.55	239.44
731.88	239.12
732.21	238.75
732.54	238.48
732.87	238.15
733.20	237.85
733.53	237.61
733.86	237.29
734.19	236.90
734.52	236.53
734.85	236.56
735.18	236.16
735.51	235.98
735.84	235.69
736.17	235.61
736.50	235.13
736.83	235.28
737.16	235.06
737.49	234.83
737.82	234.65
738.15	234.41
738.48	234.19
738.81	233.95
739.14	233.72
739.47	233.45
739.80	233.19
740.13	232.89
740.46	232.60
740.79	232.39
741.12	232.21
741.45	231.99
741.78	231.60
742.11	231.50
742.44	231.16
742.77	231.00
743.10	230.64
743.43	230.41
743.75	229.79
744.08	230.02
744.41	229.77
744.74	229.54
745.07	229.29
745.40	229.14
745.73	229.10
746.06	228.86
746.39	228.68
746.71	228.41
747.04	228.24
747.37	227.99
747.70	227.90
748.03	227.68
748.36	227.55
748.68	227.41
749.01	227.11
749.34	227.05
749.67	226.84
750.00	226.76
750.33	226.95
750.65	226.87
750.98	226.29
751.31	226.12
751.64	225.96
751.97	225.96
752.29	225.83
752.62	225.48
752.95	225.36
753.28	225.17
753.60	225.01
753.93	224.92
754.26	224.85
754.59	224.58
754.91	224.45
755.24	224.25
755.57	224.08
755.90	224.00
756.22	223.80
756.55	223.66
756.88	223.47
757.20	223.09
757.53	222.85
757.86	222.72
758.19	222.62
758.51	222.51
758.84	222.17
759.17	222.02
759.49	221.99
759.82	222.05
760.15	221.95
760.47	221.86
760.80	221.70
761.13	221.64
761.45	221.47
761.78	221.32
762.11	221.27
762.43	221.11
762.76	220.97
763.08	220.92
763.41	220.87
763.74	220.74
764.06	220.66
764.39	220.58
764.71	220.43
765.04	220.33
765.37	220.12
765.69	220.06
766.02	219.95
766.34	219.81
766.67	219.55
767.00	219.56
767.32	219.64
767.65	219.73
767.97	219.58
768.30	219.55
768.62	219.49
768.95	219.36
769.27	219.24
769.60	219.22
769.92	219.03
770.25	218.81
770.57	218.70
770.90	218.61
771.22	218.45
771.55	218.39
771.87	218.35
772.20	218.33
772.52	218.55
772.85	218.87
773.17	218.79
773.50	218.71
773.82	218.58
774.15	218.38
774.47	218.07
774.80	217.99
775.12	217.90
775.45	217.83
775.77	217.80
776.09	217.78
776.42	217.66
776.74	217.74
777.07	217.68
777.39	217.60
777.72	217.46
778.04	217.51
778.36	217.48
778.69	217.37
779.01	217.32
779.33	216.97
779.66	216.49
779.98	216.35
780.31	216.30
780.63	216.34
780.95	216.29
781.28	216.29
781.60	216.22
781.92	216.18
782.25	216.13
782.57	216.02
782.89	215.90
783.22	215.88
783.54	215.76
783.86	215.78
784.19	215.69
784.51	215.72
784.83	215.66
785.16	215.57
785.48	215.51
785.80	215.46
786.12	215.45
786.45	215.39
786.77	215.40
787.09	215.33
787.42	215.16
787.74	215.15
788.06	215.11
788.38	215.06
788.71	215.00
789.03	214.98
789.35	215.02
789.67	215.01
789.99	214.95
790.32	214.83
790.64	214.84
790.96	215.07
791.28	214.95
791.61	214.89
791.93	214.88
792.25	214.92
792.57	215.10
792.89	214.98
793.21	214.99
793.54	214.97
793.86	214.88
794.18	214.90
794.50	214.79
794.82	214.72
795.14	214.69
795.47	214.69
795.79	214.68
796.11	214.58
796.43	214.47
796.75	214.46
797.07	214.47
797.39	214.40
797.71	214.22
798.04	214.19
798.36	214.14
798.68	214.13
799.00	214.04
799.32	213.88
799.64	213.98
799.96	213.96
800.28	213.90
800.60	213.94
800.92	213.90
801.24	213.89
801.56	213.94
801.89	213.92
802.21	213.93
802.53	213.85
802.85	213.89
803.17	214.11
803.49	214.05
803.81	213.96
804.13	213.89
804.45	213.84
804.77	213.85
805.09	213.88
805.41	213.77
805.73	213.71
806.05	213.59
806.37	213.55
806.69	213.49
807.01	213.51
807.33	213.46
807.65	213.39
807.97	213.50
808.28	213.37
808.60	213.32
808.92	213.29
809.24	213.47
809.56	213.45
809.88	213.27
810.20	213.21
810.52	213.35
810.84	213.30
811.16	213.25
811.48	213.19
811.80	213.26
812.12	213.28
812.43	213.35
812.75	213.36
813.07	213.29
813.39	213.31
813.71	213.26
814.03	213.28
814.35	213.25
814.67	213.09
814.98	213.14
815.30	213.18
815.62	213.14
815.94	212.92
816.26	212.87
816.58	212.92
816.89	213.05
817.21	212.96
817.53	213.01
817.85	212.96
818.17	213.02
818.48	212.88
818.80	212.93
819.12	212.89
819.44	212.86
819.76	212.82
820.07	212.81
820.39	212.80
820.71	212.83
821.03	212.82
821.34	212.83
821.66	212.86
821.98	212.83
822.30	212.83
822.61	212.95
822.93	212.90
823.25	212.80
823.57	212.69
823.88	212.70
824.20	212.69
824.52	212.79
824.83	212.78
825.15	212.74
825.47	212.70
825.79	212.63
826.10	212.56
826.42	212.56
826.74	212.60
827.05	212.62
827.37	212.61
827.69	212.57
828.00	212.55
828.32	212.48
828.64	212.47
828.95	212.60
829.27	212.55
829.58	212.58
829.90	212.60
830.22	212.58
830.53	212.59
830.85	212.55
831.17	212.39
831.48	212.29
831.80	212.31
832.11	212.33
832.43	212.35
832.75	212.39
833.06	212.54
833.38	212.35
833.69	212.30
834.01	212.28
834.32	212.30
834.64	212.33
834.96	212.33
835.27	212.26
835.59	212.08
835.90	211.94
836.22	211.88
836.53	211.81
836.85	211.86
837.16	212.09
837.48	212.17
837.79	212.30
838.11	212.34
838.42	212.29
838.74	212.30
839.05	212.24
839.37	212.18
839.68	211.97
840.00	212.09
840.31	212.16
840.63	212.14
840.94	212.06
841.26	211.96
841.57	212.01
841.88	212.03
842.20	211.99
842.51	211.97
842.83	212.02
843.14	212.32
843.46	212.31
843.77	212.10
844.08	212.02
844.40	211.93
844.71	212.02
845.03	211.98
845.34	211.94
845.65	211.96
845.97	211.95
846.28	211.98
846.60	211.98
846.91	211.89
847.22	211.86
847.54	211.97
847.85	212.03
848.16	211.88
848.48	211.85
848.79	212.02
849.10	212.12
849.42	212.13
849.73	211.86
850.04	211.79
850.36	211.69
850.67	211.73
850.98	211.70
851.30	211.63
851.61	211.60
851.92	211.61
852.23	211.67
852.55	211.71
852.86	211.71
853.17	211.71
853.49	211.79
853.80	211.88
854.11	211.95
854.42	212.00
854.74	211.99
855.05	212.04
855.36	211.89
855.67	211.90
855.99	211.89
856.30	212.32
856.61	212.35
856.92	212.40
857.23	212.37
857.55	212.37
857.86	212.36
858.17	212.45
858.48	212.34
858.79	212.25
859.11	212.22
859.42	212.20
859.73	212.22
860.04	212.24
860.35	212.13
860.66	211.99
860.98	211.90
861.29	212.00
861.60	211.93
861.91	212.02
862.22	211.96
862.53	211.89
862.84	211.49
863.16	211.60
863.47	211.52
863.78	211.54
864.09	211.56
864.40	211.57
864.71	211.61
865.02	211.74
865.33	211.67
865.64	211.68
865.95	211.68
866.27	211.85
866.58	211.73
866.89	211.77
867.20	211.74
867.51	211.76
867.82	211.72
868.13	211.86
868.44	211.72
868.75	211.73
869.06	211.71
869.37	211.68
869.68	211.55
869.99	211.59
870.30	211.59
870.61	211.66
870.92	211.62
871.23	211.51
871.54	211.56
871.85	211.77
872.16	211.79
872.47	211.90
872.78	211.64
873.09	211.69
873.40	211.67
873.71	211.68
874.02	211.67
874.33	211.63
874.64	211.55
874.95	211.64
875.26	211.60
875.56	211.61
875.87	211.54
876.18	211.56
876.49	211.94
876.80	211.90
877.11	211.77
877.42	211.79
877.73	211.81
878.04	211.71
878.35	211.64
878.66	211.65
878.96	211.54
879.27	211.50
879.58	211.46
879.89	211.45
880.20	211.59
880.51	211.59
880.82	211.69
881.12	211.66
881.43	211.60
881.74	211.56
882.05	211.48
882.36	211.54
882.67	211.57
882.97	211.14
883.28	211.06
883.59	211.06
883.90	211.10
884.21	211.13
884.51	211.11
884.82	211.06
885.13	211.06
885.44	211.05
885.74	211.13
886.05	211.15
886.36	211.14
886.67	210.97
886.98	211.14
887.28	211.10
887.59	211.08
887.90	211.10
888.20	211.10
888.51	211.23
888.82	211.13
889.13	211.14
889.43	211.43
889.74	211.46
890.05	211.52
890.35	211.44
890.66	211.39
890.97	211.35
891.28	211.29
891.58	211.35
891.89	211.37
892.20	211.28
892.50	211.17
892.81	211.15
893.12	211.17
893.42	211.00
893.73	211.00
894.04	211.01
894.34	211.07
894.65	211.08
894.95	210.99
895.26	211.06
895.57	211.20
895.87	210.85
896.18	210.88
896.48	210.84
896.79	210.85
897.10	210.97
897.40	211.01
897.71	211.10
898.01	211.00
898.32	211.02
898.63	211.06
898.93	211.13
899.24	211.12
899.54	211.09
899.85	211.07
900.15	211.05
900.46	211.02
900.76	211.03
901.07	211.06
901.38	211.10
901.68	211.17
901.99	210.98
902.29	211.11
902.60	211.11
902.90	211.13
903.21	211.13
903.51	211.06
903.82	211.12
904.12	211.22
904.43	211.22
904.73	211.17
905.03	211.16
905.34	211.50
905.64	211.44
905.95	211.45
906.25	211.38
906.56	211.38
906.86	211.39
907.17	211.37
907.47	211.38
907.77	211.33
908.08	211.27
908.38	211.26
908.69	211.25
908.99	211.30
909.30	211.27
909.60	211.28
909.90	211.30
910.21	211.22
910.51	211.01
910.81	211.01
911.12	211.07
911.42	211.08
911.73	210.74
912.03	210.82
912.33	210.88
912.64	210.96
912.94	210.92
913.24	210.91
913.55	210.86
913.85	210.82
914.15	210.84
914.46	210.85
914.76	210.85
915.06	210.78
915.37	210.72
915.67	210.69
915.97	210.67
916.27	210.60
916.58	210.60
916.88	210.68
917.18	210.65
917.49	210.90
917.79	210.85
918.09	210.93
918.39	211.00
918.70	211.00
919.00	211.03
919.30	211.23
919.60	211.10
919.91	211.06
920.21	211.05
920.51	211.02
920.81	211.00
921.12	211.10
921.42	211.10
921.72	211.12
922.02	211.16
922.32	211.21
922.63	211.26
922.93	211.40
923.23	211.36
923.53	211.42
923.83	211.16
924.13	211.27
924.44	211.20
924.74	211.29
925.04	211.33
925.34	211.34
925.64	211.17
925.94	211.26
926.24	211.45
926.55	211.45
926.85	211.52
927.15	211.58
927.45	211.51
927.75	211.49
928.05	211.48
928.35	211.43
928.65	211.51
928.95	211.49
929.26	211.36
929.56	211.43
929.86	211.39
930.16	211.36
930.46	211.22
930.76	211.28
931.06	211.10
931.36	210.99
931.66	211.06
931.96	211.15
932.26	211.22
932.56	211.09
932.86	211.14
933.16	211.19
933.46	211.11
933.76	211.13
934.06	211.27
934.36	211.41
934.66	211.47
934.96	211.43
935.26	211.44
935.56	211.54
935.86	211.48
936.16	211.45
936.46	211.44
936.76	211.45
937.06	211.38
937.36	211.43
937.66	211.50
937.96	211.41
938.26	211.35
938.56	211.34
938.86	211.35
939.16	211.41
939.46	211.39
939.76	211.42
940.06	211.43
940.35	211.38
940.65	211.22
940.95	211.21
941.25	211.11
941.55	211.09
941.85	211.09
942.15	211.11
942.45	211.24
942.75	211.23
943.04	211.33
943.34	211.38
943.64	211.36
943.94	211.30
944.24	211.34
944.54	211.35
944.84	211.30
945.13	211.22
945.43	211.12
945.73	211.12
946.03	211.03
946.33	210.97
946.62	210.90
946.92	210.89
947.22	210.90
947.52	210.97
947.82	211.02
948.11	210.91
948.41	210.89
948.71	210.78
949.01	210.84
949.31	210.85
949.60	210.79
949.90	210.83
950.20	210.82
950.50	210.74
950.79	210.65
951.09	210.66
951.39	210.67
951.69	210.64
951.98	210.70
952.28	210.74
952.58	210.73
952.87	210.66
953.17	210.73
953.47	210.63
953.76	210.60
954.06	210.59
954.36	210.59
954.66	210.55
954.95	210.60
955.25	210.61
955.55	210.53
955.84	210.50
956.14	210.51
956.44	210.57
956.73	210.56
957.03	210.64
957.32	210.72
957.62	210.71
957.92	210.82
958.21	210.80
958.51	211.21
958.81	211.29
959.10	211.40
959.40	211.52
959.69	211.64
959.99	211.71
960.29	211.60
960.58	211.58
960.88	211.82
961.17	211.82
961.47	211.90
961.76	211.90
962.06	211.97
962.36	211.91
962.65	211.88
962.95	211.92
963.24	211.87
963.54	211.85
963.83	211.91
964.13	211.89
964.42	211.83
964.72	211.56
965.01	211.54
965.31	211.59
965.60	211.48
965.90	211.71
966.19	211.58
966.49	211.66
966.78	211.70
967.08	211.55
967.37	211.55
967.67	211.38
967.96	211.46
968.26	211.50
968.55	211.53
968.85	211.53
969.14	211.48
969.43	211.45
969.73	211.47
970.02	211.38
970.32	211.38
970.61	211.37
970.91	211.28
971.20	211.31
971.49	211.21
971.79	211.25
972.08	210.96
972.38	211.07
972.67	211.07
972.96	211.11
973.26	211.08
973.55	211.16
973.85	211.24
974.14	211.18
974.43	211.20
974.73	211.21
975.02	211.25
975.31	211.27
975.61	211.33
975.90	211.20
976.19	211.23
976.49	211.22
976.78	211.23
977.07	211.30
977.37	211.29
977.66	211.33
977.95	211.29
978.24	211.24
978.54	211.29
978.83	211.24
979.12	211.17
979.42	211.19
979.71	211.15
980.00	211.07
980.29	211.15
980.59	211.05
980.88	211.08
981.17	210.96
981.46	210.98
981.76	210.94
982.05	211.05
982.34	211.02
982.63	211.00
982.93	211.01
983.22	211.05
983.51	211.06
983.80	211.08
984.09	211.08
984.39	211.09
984.68	211.00
984.97	211.05
985.26	211.03
985.55	211.02
985.85	210.90
986.14	211.00
986.43	210.93
986.72	210.94
987.01	210.88
987.30	210.94
987.59	210.89
987.89	210.94
988.18	210.87
988.47	210.88
988.76	210.90
989.05	210.86
989.34	210.73
989.63	210.76
989.92	210.67
990.22	210.63
990.51	210.61
990.80	210.62
991.09	210.60
991.38	210.66
991.67	210.61
991.96	210.62
992.25	210.63
992.54	210.64
992.83	210.62
993.12	210.55
993.41	210.59
993.70	210.78
993.99	210.80
994.28	210.85
994.58	210.92
994.87	210.87
995.16	210.83
995.45	210.86
995.74	210.73
996.03	210.86
996.32	210.92
996.61	211.04
996.90	210.96
997.19	210.94
997.48	210.90
997.77	210.93
998.06	210.99
998.34	210.95
998.63	210.90
998.92	210.95
999.21	211.08
999.50	211.12
999.79	210.94
1000.08	210.93
1000.37	210.88
1000.66	210.88
1000.95	210.98
1001.24	211.03
1001.53	211.03
1001.82	210.98
1002.11	210.87
1002.40	210.90
1002.68	210.95
1002.97	211.24
1003.26	211.25
1003.55	211.30
1003.84	211.31
1004.13	211.32
1004.42	211.29
1004.71	211.32
1004.99	211.25
1005.28	211.29
1005.57	211.21
1005.86	211.24
1006.15	211.20
1006.44	211.20
1006.72	211.16
1007.01	211.09
1007.30	211.07
1007.59	211.11
1007.88	211.13
1008.17	211.14
1008.45	211.10
1008.74	210.98
1009.03	210.89
1009.32	210.85
1009.60	210.82
1009.89	210.79
1010.18	210.74
1010.47	210.72
1010.76	210.73
1011.04	210.85
1011.33	210.83
1011.62	210.88
1011.91	210.87
1012.19	210.95
1012.48	210.96
1012.77	210.97
1013.05	211.09
1013.34	211.09
1013.63	211.07
1013.92	211.10
1014.20	211.09
1014.49	211.08
1014.78	211.12
1015.06	210.90
1015.35	210.96
1015.64	210.94
1015.92	210.98
1016.21	211.00
1016.50	210.95
1016.78	210.96
1017.07	210.92
1017.36	210.88
1017.64	210.80
1017.93	210.87
1018.22	210.79
1018.50	210.77
1018.79	210.76
1019.08	210.61
1019.36	210.62
1019.65	210.53
1019.93	210.65
1020.22	210.71
1020.51	210.88
1020.79	210.79
1021.08	210.30
1021.36	209.90
1021.65	210.25
1021.94	210.30
1022.22	210.90
1022.51	209.40
1022.79	212.40
1023.08	211.95
1023.36	214.75
1023.65	209.10
>>>>>End Processed Spectral Data<<<<<
