SpectraSuite Data File
++++++++++++++++++++++++++++++++++++
Date: Mon Feb 25 17:08:28 EST 2013
User: group
Dark Spectrum Present: No
Reference Spectrum Present: No
Number of Sampled Component Spectra: 1
Spectrometers: USB2E7196
Integration Time (usec): 104000 (USB2E7196)
Spectra Averaged: 20 (USB2E7196)
Boxcar Smoothing: 10 (USB2E7196)
Correct for Electrical Dark: No (USB2E7196)
Strobe/Lamp Enabled: No (USB2E7196)
Correct for Detector Non-linearity: No (USB2E7196)
Correct for Stray Light: No (USB2E7196)
Number of Pixels in Processed Spectrum: 2048
>>>>>Begin Processed Spectral Data<<<<<
339.09	0.00
339.48	198.50
339.86	199.20
340.24	199.65
340.63	202.10
341.01	208.00
341.39	205.75
341.78	207.30
342.16	207.90
342.54	208.25
342.93	197.80
343.31	207.79
343.69	208.31
344.07	208.76
344.46	209.30
344.84	209.65
345.22	209.76
345.60	210.01
345.99	210.20
346.37	210.35
346.75	210.46
347.13	210.55
347.52	210.58
347.90	210.76
348.28	210.80
348.66	210.87
349.05	210.80
349.43	210.81
349.81	210.86
350.19	211.01
350.57	211.01
350.96	211.05
351.34	211.16
351.72	211.27
352.10	211.37
352.48	211.40
352.87	211.50
353.25	211.56
353.63	211.63
354.01	211.69
354.39	211.79
354.77	211.86
355.15	211.95
355.54	212.02
355.92	211.97
356.30	212.06
356.68	212.38
357.06	212.45
357.44	212.45
357.82	212.62
358.20	212.64
358.58	212.70
358.97	212.77
359.35	212.87
359.73	212.96
360.11	212.97
360.49	213.06
360.87	213.09
361.25	213.24
361.63	213.36
362.01	213.43
362.39	213.37
362.77	213.35
363.15	213.36
363.53	213.45
363.91	213.43
364.29	213.42
364.67	213.09
365.05	213.11
365.43	213.18
365.81	213.13
366.19	213.31
366.57	213.41
366.95	213.37
367.33	213.29
367.71	213.23
368.09	213.40
368.47	213.33
368.85	213.34
369.23	213.33
369.61	213.22
369.99	213.26
370.37	213.31
370.75	213.56
371.13	213.55
371.51	213.42
371.89	213.49
372.27	213.48
372.65	213.51
373.03	213.43
373.41	213.41
373.78	213.38
374.16	213.17
374.54	212.95
374.92	212.86
375.30	212.76
375.68	212.70
376.06	212.58
376.44	212.50
376.82	212.45
377.19	212.40
377.57	212.36
377.95	212.17
378.33	212.14
378.71	211.79
379.09	211.70
379.47	211.70
379.84	211.60
380.22	211.56
380.60	211.36
380.98	211.29
381.36	211.21
381.73	211.11
382.11	211.10
382.49	211.19
382.87	211.08
383.25	211.12
383.62	211.47
384.00	211.42
384.38	211.36
384.76	211.40
385.13	211.53
385.51	211.46
385.89	211.39
386.27	211.31
386.64	211.38
387.02	211.34
387.40	211.24
387.78	211.22
388.15	211.18
388.53	211.24
388.91	211.21
389.29	211.11
389.66	211.11
390.04	211.04
390.42	211.00
390.79	211.05
391.17	211.01
391.55	210.61
391.92	210.53
392.30	210.53
392.68	210.40
393.05	210.25
393.43	210.27
393.81	210.29
394.18	210.23
394.56	210.18
394.94	210.29
395.31	210.25
395.69	210.31
396.06	210.33
396.44	210.33
396.82	210.26
397.19	210.52
397.57	210.50
397.95	210.51
398.32	210.45
398.70	210.58
399.07	210.64
399.45	210.63
399.82	210.64
400.20	210.71
400.58	210.67
400.95	210.51
401.33	210.53
401.70	210.85
402.08	210.91
402.45	210.89
402.83	210.93
403.20	211.00
403.58	211.02
403.95	211.11
404.33	211.19
404.71	211.35
405.08	211.57
405.46	211.66
405.83	211.84
406.21	211.90
406.58	211.98
406.96	212.05
407.33	212.20
407.70	212.38
408.08	212.86
408.45	213.12
408.83	213.43
409.20	213.61
409.58	213.53
409.95	213.80
410.33	214.10
410.70	214.21
411.08	214.47
411.45	214.73
411.82	214.95
412.20	215.36
412.57	215.83
412.95	215.82
413.32	216.22
413.69	216.46
414.07	216.92
414.44	217.25
414.82	217.79
415.19	218.34
415.56	218.92
415.94	219.17
416.31	219.90
416.68	220.58
417.06	221.32
417.43	222.13
417.81	222.93
418.18	223.81
418.55	224.74
418.93	225.66
419.30	226.60
419.67	227.65
420.04	228.60
420.42	229.59
420.79	231.17
421.16	232.50
421.54	234.09
421.91	235.50
422.28	236.97
422.66	238.37
423.03	240.15
423.40	241.75
423.77	243.39
424.15	244.94
424.52	246.69
424.89	248.65
425.26	250.42
425.64	252.17
426.01	253.96
426.38	256.00
426.75	258.16
427.13	260.23
427.50	262.45
427.87	264.78
428.24	267.07
428.61	269.07
428.99	271.61
429.36	274.12
429.73	276.72
430.10	279.33
430.47	282.15
430.85	284.63
431.22	287.51
431.59	290.90
431.96	293.99
432.33	297.25
432.70	300.37
433.08	304.15
433.45	307.79
433.82	311.45
434.19	315.35
434.56	319.25
434.93	323.13
435.30	326.82
435.68	330.87
436.05	335.13
436.42	339.11
436.79	342.70
437.16	346.66
437.53	350.85
437.90	355.07
438.27	359.19
438.64	363.42
439.01	367.40
439.38	370.75
439.75	374.15
440.13	378.02
440.50	381.67
440.87	384.70
441.24	387.67
441.61	391.16
441.98	393.72
442.35	396.65
442.72	399.57
443.09	402.65
443.46	404.60
443.83	405.80
444.20	407.01
444.57	408.61
444.94	409.40
445.31	410.30
445.68	411.53
446.05	411.81
446.42	411.52
446.79	411.26
447.16	410.82
447.53	410.61
447.90	409.24
448.27	407.88
448.64	405.80
449.01	404.40
449.37	401.78
449.74	399.24
450.11	396.36
450.48	392.93
450.85	389.30
451.22	386.17
451.59	383.22
451.96	380.47
452.33	376.78
452.70	373.42
453.07	369.42
453.43	364.93
453.80	361.12
454.17	357.49
454.54	353.87
454.91	350.09
455.28	346.31
455.65	342.83
456.02	339.83
456.38	336.80
456.75	333.20
457.12	330.06
457.49	327.10
457.86	323.90
458.23	321.56
458.59	318.89
458.96	316.19
459.33	313.73
459.70	311.37
460.07	309.49
460.43	307.23
460.80	305.16
461.17	303.45
461.54	301.53
461.91	299.65
462.27	297.80
462.64	296.28
463.01	294.55
463.38	293.05
463.74	290.84
464.11	289.37
464.48	287.98
464.85	286.55
465.21	285.46
465.58	284.31
465.95	282.85
466.32	281.61
466.68	280.41
467.05	279.26
467.42	278.09
467.78	276.74
468.15	275.68
468.52	274.82
468.88	273.60
469.25	272.50
469.62	271.73
469.98	270.81
470.35	269.90
470.72	269.21
471.08	268.23
471.45	267.66
471.82	267.04
472.18	266.34
472.55	265.79
472.92	265.02
473.28	264.41
473.65	263.80
474.02	263.27
474.38	262.89
474.75	262.60
475.11	262.04
475.48	261.74
475.85	261.34
476.21	260.89
476.58	260.57
476.94	260.41
477.31	260.22
477.67	260.06
478.04	259.86
478.41	259.56
478.77	259.75
479.14	259.44
479.50	259.41
479.87	259.33
480.23	259.28
480.60	259.24
480.96	259.24
481.33	259.42
481.69	259.43
482.06	259.49
482.42	259.53
482.79	259.71
483.15	259.87
483.52	260.24
483.88	260.50
484.25	260.76
484.61	261.00
484.98	261.17
485.34	261.53
485.71	261.95
486.07	262.43
486.44	262.38
486.80	262.87
487.17	263.36
487.53	263.96
487.90	264.59
488.26	265.38
488.62	266.13
488.99	266.61
489.35	267.35
489.72	268.06
490.08	268.78
490.44	269.51
490.81	270.34
491.17	271.09
491.54	271.99
491.90	272.98
492.26	273.92
492.63	274.98
492.99	275.98
493.36	277.05
493.72	278.24
494.08	279.53
494.45	280.87
494.81	282.12
495.17	283.39
495.54	284.82
495.90	286.16
496.26	287.52
496.63	289.12
496.99	290.70
497.35	292.25
497.72	293.96
498.08	295.67
498.44	297.40
498.80	299.31
499.17	301.21
499.53	302.96
499.89	305.03
500.26	306.93
500.62	308.96
500.98	311.06
501.34	313.18
501.71	315.41
502.07	317.54
502.43	319.71
502.79	321.95
503.16	324.18
503.52	326.52
503.88	328.99
504.24	331.43
504.60	333.86
504.97	336.46
505.33	339.00
505.69	341.88
506.05	344.69
506.41	347.35
506.78	350.06
507.14	352.90
507.50	355.74
507.86	358.72
508.22	361.62
508.59	364.46
508.95	367.48
509.31	370.72
509.67	373.93
510.03	377.16
510.39	380.46
510.75	383.82
511.12	387.09
511.48	390.33
511.84	393.59
512.20	396.90
512.56	400.31
512.92	403.83
513.28	407.21
513.64	410.63
514.00	414.14
514.37	417.81
514.73	421.54
515.09	425.23
515.45	428.95
515.81	432.67
516.17	436.48
516.53	440.19
516.89	443.80
517.25	447.58
517.61	451.54
517.97	455.29
518.33	459.17
518.69	463.15
519.05	467.20
519.41	471.60
519.77	476.04
520.13	480.15
520.49	484.10
520.85	488.17
521.21	492.54
521.57	496.91
521.93	500.92
522.29	505.23
522.65	509.38
523.01	513.60
523.37	517.89
523.73	522.37
524.09	526.75
524.45	531.13
524.81	535.53
525.17	539.90
525.53	544.47
525.89	548.92
526.25	553.43
526.61	557.85
526.97	562.11
527.33	566.51
527.68	571.39
528.04	575.91
528.40	580.40
528.76	584.93
529.12	589.38
529.48	593.97
529.84	598.56
530.20	603.44
530.56	608.19
530.91	612.98
531.27	617.61
531.63	622.45
531.99	627.25
532.35	631.85
532.71	636.53
533.07	641.42
533.42	646.41
533.78	650.99
534.14	655.70
534.50	660.21
534.86	664.85
535.21	668.93
535.57	673.71
535.93	678.08
536.29	682.57
536.65	687.16
537.00	691.78
537.36	695.98
537.72	700.20
538.08	704.51
538.44	708.71
538.79	713.06
539.15	717.20
539.51	721.32
539.87	725.69
540.22	729.73
540.58	733.81
540.94	737.65
541.29	741.70
541.65	745.46
542.01	749.47
542.37	753.42
542.72	757.49
543.08	761.11
543.44	765.25
543.79	768.51
544.15	771.99
544.51	775.76
544.87	779.65
545.22	782.99
545.58	786.17
545.94	789.34
546.29	792.40
546.65	795.36
547.01	798.27
547.36	801.18
547.72	804.18
548.07	806.80
548.43	809.35
548.79	811.94
549.14	814.52
549.50	817.16
549.86	819.19
550.21	821.48
550.57	824.05
550.92	826.08
551.28	828.55
551.64	830.67
551.99	832.64
552.35	834.42
552.70	836.49
553.06	838.76
553.41	840.81
553.77	842.94
554.13	844.95
554.48	846.92
554.84	848.95
555.19	850.76
555.55	852.64
555.90	854.13
556.26	855.58
556.61	857.01
556.97	858.02
557.32	859.61
557.68	860.78
558.03	861.93
558.39	863.09
558.74	864.55
559.10	865.85
559.45	867.02
559.81	868.34
560.16	869.29
560.52	870.46
560.87	871.48
561.23	872.00
561.58	873.18
561.94	873.91
562.29	874.13
562.64	874.72
563.00	875.33
563.35	876.40
563.71	877.31
564.06	878.08
564.42	879.16
564.77	879.99
565.12	880.83
565.48	881.68
565.83	882.26
566.19	882.86
566.54	883.19
566.89	883.35
567.25	883.66
567.60	884.25
567.96	884.40
568.31	884.70
568.66	884.84
569.02	884.52
569.37	884.25
569.72	884.51
570.08	884.30
570.43	884.07
570.78	883.52
571.14	883.05
571.49	882.55
571.84	882.15
572.20	881.31
572.55	880.70
572.90	879.70
573.26	878.79
573.61	877.77
573.96	876.83
574.31	875.91
574.67	874.53
575.02	872.99
575.37	871.56
575.72	869.99
576.08	869.00
576.43	867.57
576.78	866.44
577.13	865.24
577.49	863.87
577.84	862.71
578.19	861.57
578.54	860.53
578.90	859.58
579.25	858.10
579.60	856.63
579.95	855.01
580.30	853.74
580.66	852.75
581.01	851.05
581.36	849.50
581.71	848.04
582.06	847.07
582.42	845.73
582.77	844.29
583.12	843.12
583.47	841.84
583.82	840.55
584.17	839.23
584.53	837.95
584.88	836.57
585.23	834.96
585.58	833.47
585.93	831.73
586.28	830.23
586.63	828.77
586.98	827.53
587.34	826.44
587.69	824.97
588.04	823.30
588.39	822.12
588.74	820.50
589.09	819.16
589.44	817.09
589.79	815.73
590.14	814.21
590.49	812.55
590.84	810.79
591.19	809.49
591.54	807.88
591.89	805.75
592.25	804.41
592.60	802.44
592.95	800.58
593.30	798.71
593.65	796.62
594.00	794.61
594.35	793.75
594.70	791.72
595.05	790.00
595.40	788.28
595.75	786.14
596.10	784.67
596.45	782.98
596.80	781.77
597.15	780.25
597.50	778.45
597.85	776.85
598.19	775.02
598.54	773.21
598.89	771.49
599.24	770.11
599.59	768.39
599.94	767.10
600.29	765.50
600.64	763.93
600.99	762.40
601.34	760.93
601.69	758.43
602.04	756.55
602.39	754.74
602.74	753.16
603.08	752.04
603.43	750.67
603.78	748.96
604.13	747.12
604.48	745.52
604.83	744.23
605.18	742.86
605.53	741.26
605.87	739.46
606.22	737.96
606.57	736.30
606.92	734.47
607.27	732.72
607.62	730.95
607.96	729.48
608.31	727.96
608.66	726.27
609.01	724.42
609.36	722.78
609.70	720.78
610.05	718.54
610.40	716.35
610.75	714.18
611.10	712.29
611.44	710.11
611.79	707.60
612.14	705.20
612.49	702.66
612.83	700.51
613.18	698.15
613.53	695.77
613.88	693.21
614.22	690.89
614.57	688.37
614.92	686.06
615.27	683.52
615.61	681.07
615.96	678.69
616.31	676.41
616.65	674.27
617.00	672.07
617.35	670.01
617.70	667.57
618.04	665.04
618.39	662.53
618.74	660.16
619.08	657.85
619.43	655.60
619.78	653.30
620.12	650.87
620.47	648.70
620.82	646.20
621.16	643.71
621.51	641.31
621.85	638.90
622.20	636.50
622.55	634.01
622.89	631.54
623.24	628.99
623.59	626.40
623.93	623.82
624.28	621.48
624.62	619.33
624.97	617.12
625.32	614.68
625.66	612.35
626.01	610.19
626.35	608.10
626.70	605.65
627.04	603.60
627.39	601.37
627.73	599.02
628.08	597.05
628.43	594.80
628.77	592.52
629.12	590.20
629.46	588.02
629.81	585.83
630.15	583.55
630.50	581.32
630.84	578.98
631.19	576.72
631.53	574.50
631.88	571.78
632.22	569.24
632.57	567.14
632.91	564.83
633.26	562.47
633.60	560.01
633.95	557.90
634.29	555.34
634.64	553.24
634.98	550.94
635.32	548.61
635.67	546.58
636.01	544.45
636.36	542.30
636.70	540.27
637.05	538.06
637.39	535.94
637.73	533.90
638.08	532.08
638.42	530.05
638.77	528.03
639.11	526.06
639.45	523.90
639.80	521.77
640.14	519.63
640.49	517.50
640.83	515.35
641.17	513.35
641.52	511.10
641.86	508.88
642.20	506.98
642.55	504.65
642.89	502.53
643.23	500.33
643.58	498.61
643.92	496.26
644.26	494.23
644.61	492.14
644.95	489.99
645.29	487.80
645.64	485.74
645.98	483.55
646.32	481.57
646.66	479.60
647.01	477.63
647.35	475.54
647.69	473.34
648.04	471.42
648.38	469.22
648.72	467.37
649.06	465.33
649.41	463.10
649.75	461.09
650.09	459.06
650.43	457.14
650.78	454.74
651.12	452.76
651.46	450.72
651.80	448.73
652.14	446.77
652.49	444.81
652.83	442.76
653.17	440.66
653.51	438.44
653.85	436.51
654.20	434.47
654.54	432.41
654.88	430.54
655.22	428.58
655.56	426.50
655.90	424.52
656.25	422.37
656.59	420.49
656.93	418.57
657.27	416.67
657.61	414.59
657.95	412.86
658.29	410.92
658.64	409.15
658.98	407.28
659.32	405.27
659.66	403.39
660.00	401.54
660.34	399.66
660.68	397.87
661.02	395.97
661.36	394.23
661.70	392.59
662.05	390.92
662.39	389.27
662.73	387.73
663.07	386.29
663.41	384.77
663.75	383.12
664.09	381.54
664.43	379.86
664.77	378.34
665.11	376.66
665.45	375.24
665.79	373.66
666.13	372.04
666.47	370.53
666.81	369.04
667.15	367.52
667.49	366.19
667.83	364.97
668.17	363.58
668.51	362.23
668.85	360.88
669.19	359.70
669.53	358.20
669.87	356.85
670.21	355.30
670.55	354.02
670.89	352.79
671.23	351.64
671.57	350.37
671.91	349.16
672.25	347.91
672.58	346.60
672.92	345.20
673.26	344.03
673.60	343.02
673.94	341.77
674.28	340.58
674.62	339.48
674.96	338.24
675.30	337.18
675.64	336.00
675.97	334.79
676.31	333.44
676.65	332.32
676.99	331.28
677.33	330.06
677.67	328.92
678.01	327.69
678.34	326.48
678.68	325.47
679.02	324.30
679.36	323.18
679.70	322.17
680.04	321.24
680.37	320.18
680.71	319.05
681.05	318.11
681.39	317.09
681.73	316.01
682.06	315.02
682.40	313.98
682.74	312.93
683.08	312.16
683.42	311.16
683.75	310.19
684.09	309.13
684.43	308.28
684.77	307.32
685.10	306.43
685.44	305.55
685.78	304.55
686.12	303.64
686.45	302.76
686.79	301.80
687.13	300.97
687.46	300.11
687.80	299.28
688.14	298.34
688.48	297.46
688.81	296.54
689.15	295.66
689.49	294.68
689.82	293.80
690.16	292.60
690.50	291.71
690.83	290.88
691.17	289.96
691.51	289.16
691.84	288.30
692.18	287.46
692.52	286.58
692.85	285.86
693.19	285.12
693.52	284.28
693.86	283.43
694.20	282.60
694.53	281.79
694.87	280.91
695.21	280.16
695.54	279.35
695.88	278.49
696.21	277.65
696.55	276.99
696.88	276.35
697.22	275.72
697.56	275.16
697.89	274.39
698.23	273.78
698.56	272.96
698.90	272.33
699.23	271.66
699.57	271.04
699.90	270.26
700.24	269.51
700.58	268.87
700.91	268.29
701.25	267.94
701.58	267.42
701.92	266.94
702.25	266.22
702.59	265.62
702.92	265.07
703.26	264.53
703.59	263.92
703.93	263.47
704.26	263.03
704.60	262.48
704.93	261.85
705.26	261.19
705.60	260.69
705.93	260.08
706.27	259.59
706.60	259.10
706.94	258.77
707.27	258.23
707.61	257.72
707.94	257.21
708.27	256.35
708.61	255.68
708.94	255.14
709.28	254.69
709.61	254.19
709.94	253.74
710.28	253.28
710.61	252.91
710.95	252.21
711.28	251.93
711.61	251.37
711.95	251.14
712.28	250.69
712.61	250.34
712.95	250.10
713.28	249.85
713.61	249.36
713.95	248.89
714.28	248.53
714.61	248.13
714.95	247.70
715.28	247.28
715.61	246.91
715.95	246.54
716.28	246.10
716.61	245.82
716.95	245.44
717.28	245.08
717.61	244.63
717.94	244.28
718.28	243.63
718.61	243.27
718.94	242.82
719.27	242.50
719.61	242.14
719.94	241.76
720.27	241.28
720.60	240.94
720.94	240.56
721.27	240.30
721.60	240.05
721.93	239.75
722.27	239.69
722.60	239.48
722.93	239.17
723.26	238.97
723.59	238.65
723.93	238.35
724.26	238.09
724.59	237.86
724.92	237.65
725.25	237.51
725.59	237.25
725.92	237.05
726.25	236.87
726.58	236.59
726.91	236.34
727.24	236.14
727.57	235.91
727.91	235.66
728.24	235.50
728.57	235.19
728.90	235.02
729.23	234.65
729.56	234.56
729.89	234.34
730.22	234.10
730.55	233.86
730.89	233.61
731.22	233.38
731.55	233.15
731.88	232.91
732.21	232.63
732.54	232.39
732.87	232.14
733.20	231.91
733.53	231.71
733.86	231.50
734.19	231.24
734.52	231.09
734.85	231.11
735.18	230.85
735.51	230.80
735.84	230.60
736.17	230.47
736.50	230.08
736.83	230.31
737.16	230.04
737.49	229.91
737.82	229.72
738.15	229.59
738.48	229.43
738.81	229.19
739.14	228.97
739.47	228.75
739.80	228.61
740.13	228.40
740.46	228.17
740.79	227.90
741.12	227.72
741.45	227.46
741.78	227.09
742.11	226.99
742.44	226.71
742.77	226.64
743.10	226.45
743.43	226.30
743.75	225.72
744.08	226.02
744.41	225.77
744.74	225.64
745.07	225.36
745.40	225.25
745.73	225.27
746.06	225.15
746.39	225.08
746.71	224.87
747.04	224.68
747.37	224.55
747.70	224.45
748.03	224.37
748.36	224.34
748.68	224.20
749.01	224.03
749.34	223.91
749.67	223.75
750.00	223.60
750.33	223.74
750.65	223.65
750.98	223.10
751.31	222.98
751.64	222.82
751.97	222.91
752.29	222.78
752.62	222.55
752.95	222.45
753.28	222.26
753.60	222.14
753.93	222.14
754.26	222.08
754.59	221.91
754.91	221.71
755.24	221.51
755.57	221.43
755.90	221.26
756.22	221.17
756.55	220.95
756.88	220.81
757.20	220.45
757.53	220.27
757.86	220.18
758.19	220.17
758.51	220.11
758.84	219.92
759.17	219.78
759.49	219.73
759.82	219.80
760.15	219.75
760.47	219.72
760.80	219.57
761.13	219.52
761.45	219.42
761.78	219.35
762.11	219.36
762.43	219.24
762.76	219.06
763.08	219.04
763.41	219.07
763.74	218.98
764.06	218.96
764.39	218.94
764.71	218.92
765.04	218.77
765.37	218.75
765.69	218.63
766.02	218.50
766.34	218.34
766.67	218.15
767.00	218.11
767.32	218.27
767.65	218.46
767.97	218.36
768.30	218.33
768.62	218.22
768.95	218.06
769.27	218.02
769.60	218.10
769.92	217.98
770.25	217.85
770.57	217.75
770.90	217.67
771.22	217.53
771.55	217.43
771.87	217.45
772.20	217.37
772.52	217.58
772.85	218.01
773.17	217.98
773.50	217.94
773.82	217.84
774.15	217.55
774.47	217.20
774.80	217.12
775.12	217.09
775.45	217.06
775.77	217.02
776.09	216.91
776.42	216.83
776.74	216.83
777.07	216.76
777.39	216.74
777.72	216.63
778.04	216.62
778.36	216.51
778.69	216.46
779.01	216.44
779.33	216.08
779.66	215.55
779.98	215.45
780.31	215.28
780.63	215.39
780.95	215.39
781.28	215.34
781.60	215.23
781.92	215.17
782.25	215.02
782.57	214.93
782.89	214.95
783.22	214.88
783.54	214.80
783.86	214.72
784.19	214.66
784.51	214.76
784.83	214.73
785.16	214.71
785.48	214.60
785.80	214.48
786.12	214.46
786.45	214.48
786.77	214.56
787.09	214.56
787.42	214.40
787.74	214.35
788.06	214.31
788.38	214.29
788.71	214.22
789.03	214.26
789.35	214.33
789.67	214.20
789.99	214.22
790.32	214.19
790.64	214.27
790.96	214.56
791.28	214.39
791.61	214.33
791.93	214.33
792.25	214.31
792.57	214.52
792.89	214.50
793.21	214.55
793.54	214.49
793.86	214.43
794.18	214.36
794.50	214.27
794.82	214.31
795.14	214.31
795.47	214.36
795.79	214.42
796.11	214.29
796.43	214.21
796.75	214.16
797.07	214.11
797.39	214.03
797.71	213.69
798.04	213.74
798.36	213.70
798.68	213.64
799.00	213.65
799.32	213.45
799.64	213.43
799.96	213.35
800.28	213.32
800.60	213.30
800.92	213.35
801.24	213.33
801.56	213.25
801.89	213.25
802.21	213.21
802.53	213.06
802.85	213.15
803.17	213.35
803.49	213.28
803.81	213.14
804.13	213.12
804.45	213.10
804.77	213.14
805.09	213.15
805.41	213.05
805.73	213.02
806.05	213.03
806.37	213.00
806.69	212.88
807.01	212.83
807.33	212.86
807.65	212.77
807.97	212.94
808.28	212.89
808.60	212.83
808.92	212.81
809.24	213.08
809.56	212.98
809.88	212.81
810.20	212.84
810.52	213.04
810.84	213.00
811.16	212.94
811.48	212.85
811.80	212.95
812.12	213.00
812.43	212.98
812.75	212.94
813.07	212.88
813.39	212.94
813.71	212.89
814.03	212.82
814.35	212.78
814.67	212.65
814.98	212.66
815.30	212.73
815.62	212.61
815.94	212.30
816.26	212.25
816.58	212.17
816.89	212.20
817.21	212.07
817.53	212.07
817.85	212.12
818.17	212.14
818.48	212.05
818.80	212.17
819.12	212.17
819.44	212.07
819.76	212.07
820.07	212.05
820.39	212.07
820.71	212.18
821.03	212.15
821.34	212.09
821.66	212.12
821.98	212.14
822.30	212.15
822.61	212.38
822.93	212.40
823.25	212.46
823.57	212.44
823.88	212.54
824.20	212.53
824.52	212.54
824.83	212.47
825.15	212.35
825.47	212.22
825.79	212.21
826.10	212.25
826.42	212.24
826.74	212.30
827.05	212.31
827.37	212.26
827.69	212.32
828.00	212.29
828.32	212.35
828.64	212.29
828.95	212.47
829.27	212.40
829.58	212.41
829.90	212.50
830.22	212.50
830.53	212.38
830.85	212.32
831.17	212.20
831.48	212.15
831.80	212.19
832.11	212.19
832.43	212.08
832.75	212.08
833.06	212.22
833.38	212.09
833.69	212.07
834.01	212.06
834.32	212.05
834.64	212.02
834.96	211.90
835.27	211.87
835.59	211.78
835.90	211.71
836.22	211.72
836.53	211.60
836.85	211.51
837.16	211.89
837.48	211.87
837.79	212.01
838.11	212.08
838.42	212.05
838.74	212.11
839.05	212.09
839.37	212.07
839.68	211.90
840.00	211.89
840.31	211.86
840.63	211.80
840.94	211.84
841.26	211.80
841.57	211.87
841.88	211.90
842.20	211.82
842.51	211.82
842.83	211.85
843.14	212.10
843.46	212.10
843.77	211.81
844.08	211.86
844.40	211.76
844.71	211.77
845.03	211.65
845.34	211.65
845.65	211.69
845.97	211.65
846.28	211.66
846.60	211.65
846.91	211.66
847.22	211.69
847.54	211.68
847.85	211.74
848.16	211.63
848.48	211.55
848.79	211.66
849.10	211.70
849.42	211.67
849.73	211.37
850.04	211.41
850.36	211.33
850.67	211.42
850.98	211.39
851.30	211.34
851.61	211.40
851.92	211.38
852.23	211.52
852.55	211.54
852.86	211.60
853.17	211.63
853.49	211.61
853.80	211.66
854.11	211.65
854.42	211.70
854.74	211.66
855.05	211.65
855.36	211.47
855.67	211.41
855.99	211.40
856.30	211.84
856.61	211.83
856.92	211.81
857.23	211.73
857.55	211.76
857.86	211.76
858.17	211.85
858.48	211.78
858.79	211.65
859.11	211.72
859.42	211.63
859.73	211.61
860.04	211.66
860.35	211.55
860.66	211.42
860.98	211.39
861.29	211.46
861.60	211.40
861.91	211.53
862.22	211.52
862.53	211.49
862.84	211.05
863.16	211.15
863.47	211.13
863.78	211.10
864.09	211.15
864.40	211.15
864.71	211.14
865.02	211.15
865.33	211.13
865.64	211.08
865.95	211.10
866.27	211.32
866.58	211.26
866.89	211.25
867.20	211.33
867.51	211.28
867.82	211.28
868.13	211.44
868.44	211.38
868.75	211.41
869.06	211.41
869.37	211.46
869.68	211.29
869.99	211.38
870.30	211.38
870.61	211.32
870.92	211.36
871.23	211.32
871.54	211.39
871.85	211.45
872.16	211.47
872.47	211.44
872.78	211.25
873.09	211.21
873.40	211.19
873.71	211.13
874.02	211.23
874.33	211.15
874.64	211.12
874.95	211.18
875.26	211.10
875.56	211.10
875.87	211.04
876.18	211.04
876.49	211.32
876.80	211.31
877.11	211.23
877.42	211.23
877.73	211.29
878.04	211.19
878.35	211.18
878.66	211.17
878.96	211.17
879.27	211.10
879.58	211.17
879.89	211.17
880.20	211.29
880.51	211.15
880.82	211.25
881.12	211.19
881.43	211.09
881.74	211.06
882.05	211.01
882.36	211.07
882.67	211.10
882.97	210.80
883.28	210.77
883.59	210.80
883.90	210.76
884.21	210.77
884.51	210.73
884.82	210.66
885.13	210.70
885.44	210.70
885.74	210.75
886.05	210.77
886.36	210.75
886.67	210.65
886.98	210.82
887.28	210.82
887.59	210.80
887.90	210.80
888.20	210.79
888.51	210.95
888.82	210.91
889.13	211.00
889.43	211.24
889.74	211.17
890.05	211.20
890.35	211.17
890.66	211.09
890.97	211.14
891.28	211.13
891.58	211.09
891.89	211.14
892.20	211.07
892.50	211.03
892.81	211.17
893.12	211.18
893.42	211.05
893.73	211.04
894.04	211.05
894.34	211.14
894.65	211.15
894.95	211.01
895.26	210.95
895.57	211.06
895.87	210.75
896.18	210.85
896.48	210.86
896.79	210.83
897.10	210.93
897.40	210.91
897.71	210.98
898.01	210.95
898.32	210.89
898.63	210.99
898.93	210.97
899.24	210.87
899.54	210.80
899.85	210.74
900.15	210.75
900.46	210.76
900.76	210.76
901.07	210.74
901.38	210.76
901.68	210.81
901.99	210.64
902.29	210.65
902.60	210.66
902.90	210.68
903.21	210.73
903.51	210.65
903.82	210.78
904.12	210.80
904.43	210.88
904.73	210.90
905.03	210.93
905.34	211.31
905.64	211.30
905.95	211.37
906.25	211.45
906.56	211.44
906.86	211.39
907.17	211.37
907.47	211.44
907.77	211.39
908.08	211.40
908.38	211.39
908.69	211.42
908.99	211.47
909.30	211.48
909.60	211.51
909.90	211.55
910.21	211.49
910.51	211.44
910.81	211.41
911.12	211.41
911.42	211.31
911.73	210.94
912.03	211.07
912.33	211.12
912.64	211.07
912.94	211.05
913.24	211.08
913.55	211.02
913.85	210.98
914.15	211.08
914.46	211.04
914.76	211.01
915.06	210.97
915.37	210.88
915.67	210.86
915.97	210.75
916.27	210.65
916.58	210.61
916.88	210.53
917.18	210.43
917.49	210.58
917.79	210.63
918.09	210.67
918.39	210.64
918.70	210.64
919.00	210.63
919.30	210.81
919.60	210.79
919.91	210.78
920.21	210.82
920.51	210.76
920.81	210.76
921.12	210.82
921.42	210.77
921.72	210.86
922.02	210.82
922.32	210.87
922.63	210.88
922.93	211.06
923.23	211.15
923.53	211.17
923.83	210.94
924.13	210.93
924.44	210.93
924.74	210.94
925.04	210.97
925.34	210.94
925.64	210.81
925.94	210.78
926.24	210.94
926.55	210.84
926.85	210.89
927.15	210.95
927.45	211.00
927.75	211.05
928.05	210.98
928.35	211.00
928.65	211.14
928.95	211.20
929.26	211.05
929.56	211.11
929.86	211.16
930.16	211.21
930.46	211.20
930.76	211.16
931.06	211.11
931.36	211.02
931.66	211.13
931.96	211.12
932.26	211.13
932.56	211.00
932.86	210.98
933.16	210.90
933.46	210.82
933.76	210.78
934.06	210.90
934.36	211.05
934.66	211.02
934.96	210.95
935.26	210.91
935.56	210.94
935.86	210.85
936.16	210.84
936.46	210.83
936.76	210.78
937.06	210.77
937.36	210.78
937.66	210.80
937.96	210.73
938.26	210.59
938.56	210.62
938.86	210.65
939.16	210.83
939.46	210.99
939.76	211.00
940.06	210.95
940.35	210.78
940.65	210.58
940.95	210.60
941.25	210.45
941.55	210.49
941.85	210.45
942.15	210.49
942.45	210.48
942.75	210.51
943.04	210.58
943.34	210.68
943.64	210.65
943.94	210.64
944.24	210.67
944.54	210.79
944.84	210.73
945.13	210.64
945.43	210.49
945.73	210.40
946.03	210.39
946.33	210.30
946.62	210.25
946.92	210.24
947.22	210.25
947.52	210.31
947.82	210.30
948.11	210.30
948.41	210.22
948.71	210.12
949.01	210.11
949.31	210.06
949.60	209.92
949.90	209.93
950.20	209.86
950.50	209.87
950.79	209.83
951.09	209.97
951.39	210.04
951.69	210.04
951.98	210.13
952.28	210.24
952.58	210.32
952.87	210.41
953.17	210.49
953.47	210.44
953.76	210.49
954.06	210.41
954.36	210.34
954.66	210.42
954.95	210.60
955.25	210.69
955.55	210.73
955.84	210.76
956.14	210.81
956.44	210.92
956.73	210.92
957.03	210.91
957.32	210.84
957.62	210.80
957.92	210.84
958.21	210.77
958.51	211.14
958.81	211.18
959.10	211.27
959.40	211.35
959.69	211.46
959.99	211.49
960.29	211.56
960.58	211.60
960.88	211.71
961.17	211.67
961.47	211.63
961.76	211.63
962.06	211.65
962.36	211.60
962.65	211.60
962.95	211.54
963.24	211.55
963.54	211.60
963.83	211.65
964.13	211.65
964.42	211.62
964.72	211.30
965.01	211.32
965.31	211.25
965.60	211.16
965.90	211.35
966.19	211.28
966.49	211.27
966.78	211.33
967.08	211.25
967.37	211.20
967.67	211.16
967.96	211.21
968.26	211.25
968.55	211.30
968.85	211.31
969.14	211.31
969.43	211.33
969.73	211.30
970.02	211.25
970.32	211.24
970.61	211.28
970.91	211.17
971.20	211.06
971.49	211.02
971.79	211.02
972.08	210.71
972.38	210.78
972.67	210.77
972.96	210.77
973.26	210.75
973.55	210.88
973.85	210.90
974.14	210.82
974.43	210.84
974.73	210.74
975.02	210.69
975.31	210.67
975.61	210.70
975.90	210.62
976.19	210.57
976.49	210.58
976.78	210.56
977.07	210.54
977.37	210.57
977.66	210.62
977.95	210.64
978.24	210.75
978.54	210.80
978.83	210.74
979.12	210.68
979.42	210.67
979.71	210.54
980.00	210.46
980.29	210.58
980.59	210.55
980.88	210.69
981.17	210.69
981.46	210.72
981.76	210.69
982.05	210.78
982.34	210.81
982.63	210.91
982.93	210.88
983.22	210.97
983.51	211.01
983.80	211.00
984.09	211.07
984.39	211.05
984.68	210.98
984.97	211.00
985.26	211.00
985.55	211.01
985.85	210.96
986.14	211.00
986.43	210.96
986.72	210.91
987.01	210.80
987.30	210.74
987.59	210.74
987.89	210.68
988.18	210.59
988.47	210.62
988.76	210.46
989.05	210.46
989.34	210.38
989.63	210.48
989.92	210.45
990.22	210.31
990.51	210.27
990.80	210.25
991.09	210.28
991.38	210.35
991.67	210.26
991.96	210.26
992.25	210.29
992.54	210.24
992.83	210.25
993.12	210.32
993.41	210.40
993.70	210.50
993.99	210.58
994.28	210.66
994.58	210.72
994.87	210.72
995.16	210.70
995.45	210.69
995.74	210.57
996.03	210.67
996.32	210.72
996.61	210.79
996.90	210.76
997.19	210.78
997.48	210.81
997.77	210.85
998.06	210.90
998.34	210.85
998.63	210.82
998.92	210.79
999.21	210.70
999.50	210.65
999.79	210.52
1000.08	210.51
1000.37	210.47
1000.66	210.39
1000.95	210.49
1001.24	210.51
1001.53	210.58
1001.82	210.56
1002.11	210.42
1002.40	210.45
1002.68	210.48
1002.97	210.74
1003.26	210.72
1003.55	210.55
1003.84	210.58
1004.13	210.68
1004.42	210.68
1004.71	210.74
1004.99	210.76
1005.28	210.84
1005.57	210.88
1005.86	210.93
1006.15	210.95
1006.44	210.92
1006.72	210.97
1007.01	210.92
1007.30	210.95
1007.59	210.93
1007.88	210.92
1008.17	211.02
1008.45	210.99
1008.74	210.87
1009.03	210.74
1009.32	210.71
1009.60	210.79
1009.89	210.76
1010.18	210.57
1010.47	210.56
1010.76	210.58
1011.04	210.52
1011.33	210.59
1011.62	210.69
1011.91	210.66
1012.19	210.61
1012.48	210.60
1012.77	210.58
1013.05	210.73
1013.34	210.69
1013.63	210.64
1013.92	210.64
1014.20	210.55
1014.49	210.48
1014.78	210.56
1015.06	210.44
1015.35	210.42
1015.64	210.43
1015.92	210.48
1016.21	210.57
1016.50	210.58
1016.78	210.55
1017.07	210.65
1017.36	210.57
1017.64	210.48
1017.93	210.51
1018.22	210.58
1018.50	210.57
1018.79	210.58
1019.08	210.48
1019.36	210.55
1019.65	210.56
1019.93	210.72
1020.22	210.85
1020.51	211.14
1020.79	211.11
1021.08	211.55
1021.36	209.30
1021.65	211.00
1021.94	211.30
1022.22	211.75
1022.51	210.60
1022.79	212.95
1023.08	212.50
1023.36	215.70
1023.65	210.50
>>>>>End Processed Spectral Data<<<<<
