SpectraSuite Data File
++++++++++++++++++++++++++++++++++++
Date: Mon Feb 25 17:00:30 EST 2013
User: group
Dark Spectrum Present: No
Reference Spectrum Present: No
Number of Sampled Component Spectra: 1
Spectrometers: USB2E7196
Integration Time (usec): 104000 (USB2E7196)
Spectra Averaged: 20 (USB2E7196)
Boxcar Smoothing: 10 (USB2E7196)
Correct for Electrical Dark: No (USB2E7196)
Strobe/Lamp Enabled: No (USB2E7196)
Correct for Detector Non-linearity: No (USB2E7196)
Correct for Stray Light: No (USB2E7196)
Number of Pixels in Processed Spectrum: 2048
>>>>>Begin Processed Spectral Data<<<<<
339.09	0.00
339.48	198.70
339.86	200.40
340.24	200.85
340.63	203.25
341.01	210.05
341.39	205.75
341.78	208.85
342.16	209.00
342.54	208.40
342.93	198.49
343.31	208.44
343.69	208.94
344.07	209.35
344.46	209.89
344.84	210.30
345.22	210.33
345.60	210.62
345.99	210.70
346.37	210.82
346.75	210.88
347.13	210.94
347.52	210.97
347.90	211.05
348.28	211.08
348.66	211.24
349.05	211.14
349.43	211.23
349.81	211.23
350.19	211.25
350.57	211.36
350.96	211.44
351.34	211.51
351.72	211.66
352.10	211.70
352.48	211.71
352.87	211.74
353.25	211.83
353.63	211.92
354.01	211.96
354.39	212.02
354.77	212.19
355.15	212.34
355.54	212.32
355.92	212.32
356.30	212.40
356.68	212.56
357.06	212.63
357.44	212.63
357.82	212.70
358.20	212.79
358.58	212.71
358.97	212.80
359.35	212.99
359.73	213.15
360.11	213.23
360.49	213.22
360.87	213.21
361.25	213.25
361.63	213.29
362.01	213.34
362.39	213.30
362.77	213.33
363.15	213.31
363.53	213.37
363.91	213.40
364.29	213.43
364.67	213.17
365.05	213.20
365.43	213.32
365.81	213.42
366.19	213.53
366.57	213.71
366.95	213.67
367.33	213.53
367.71	213.42
368.09	213.51
368.47	213.55
368.85	213.56
369.23	213.63
369.61	213.53
369.99	213.66
370.37	213.76
370.75	213.91
371.13	213.86
371.51	213.80
371.89	213.81
372.27	213.76
372.65	213.75
373.03	213.77
373.41	213.62
373.78	213.57
374.16	213.35
374.54	213.23
374.92	213.14
375.30	213.18
375.68	213.15
376.06	213.11
376.44	213.05
376.82	213.04
377.19	212.97
377.57	212.93
377.95	212.78
378.33	212.69
378.71	212.39
379.09	212.40
379.47	212.43
379.84	212.27
380.22	212.21
380.60	212.11
380.98	212.02
381.36	212.00
381.73	211.90
382.11	211.90
382.49	211.83
382.87	211.74
383.25	211.69
383.62	211.99
384.00	211.95
384.38	211.91
384.76	211.87
385.13	211.98
385.51	211.94
385.89	211.83
386.27	211.80
386.64	211.85
387.02	211.82
387.40	211.68
387.78	211.72
388.15	211.70
388.53	211.67
388.91	211.62
389.29	211.59
389.66	211.55
390.04	211.50
390.42	211.55
390.79	211.60
391.17	211.53
391.55	211.15
391.92	211.03
392.30	211.06
392.68	211.06
393.05	210.93
393.43	210.89
393.81	210.94
394.18	210.88
394.56	210.80
394.94	210.79
395.31	210.84
395.69	210.92
396.06	210.97
396.44	211.02
396.82	210.98
397.19	211.20
397.57	211.21
397.95	211.33
398.32	211.26
398.70	211.32
399.07	211.42
399.45	211.43
399.82	211.50
400.20	211.50
400.58	211.50
400.95	211.43
401.33	211.52
401.70	211.78
402.08	211.85
402.45	211.95
402.83	212.07
403.20	212.15
403.58	212.20
403.95	212.33
404.33	212.47
404.71	212.59
405.08	212.82
405.46	212.97
405.83	213.15
406.21	213.33
406.58	213.57
406.96	213.76
407.33	214.02
407.70	214.37
408.08	214.95
408.45	215.30
408.83	215.77
409.20	216.11
409.58	216.26
409.95	216.67
410.33	217.18
410.70	217.54
411.08	218.17
411.45	218.66
411.82	219.27
412.20	219.99
412.57	220.88
412.95	221.41
413.32	222.24
413.69	223.03
414.07	223.86
414.44	224.77
414.82	225.81
415.19	227.03
415.56	228.19
415.94	229.22
416.31	230.61
416.68	232.02
417.06	233.71
417.43	235.32
417.81	237.11
418.18	238.92
418.55	240.97
418.93	242.91
419.30	245.11
419.67	247.30
420.04	249.60
420.42	251.98
420.79	254.95
421.16	257.83
421.54	260.90
421.91	264.08
422.28	267.33
422.66	270.79
423.03	274.24
423.40	277.71
423.77	281.45
424.15	285.25
424.52	289.10
424.89	293.40
425.26	297.55
425.64	301.63
426.01	306.04
426.38	310.70
426.75	315.45
427.13	320.40
427.50	325.65
427.87	331.12
428.24	336.43
428.61	341.37
428.99	347.08
429.36	353.23
429.73	359.35
430.10	365.45
430.47	371.60
430.85	377.95
431.22	384.80
431.59	392.26
431.96	399.12
432.33	406.99
432.70	414.54
433.08	423.50
433.45	431.82
433.82	440.17
434.19	449.49
434.56	458.81
434.93	467.60
435.30	476.41
435.68	486.13
436.05	496.05
436.42	505.84
436.79	514.74
437.16	524.29
437.53	534.34
437.90	544.44
438.27	554.53
438.64	564.92
439.01	574.68
439.38	583.25
439.75	591.81
440.13	601.36
440.50	610.50
440.87	618.08
441.24	626.04
441.61	634.66
441.98	641.17
442.35	648.61
442.72	656.24
443.09	663.49
443.46	668.27
443.83	671.62
444.20	674.74
444.57	678.86
444.94	681.10
445.31	683.54
445.68	686.01
446.05	687.30
446.42	687.07
446.79	686.71
447.16	686.15
447.53	686.06
447.90	683.24
448.27	680.11
448.64	675.58
449.01	672.43
449.37	666.64
449.74	660.84
450.11	653.87
450.48	646.09
450.85	638.24
451.22	631.45
451.59	625.07
451.96	618.90
452.33	610.45
452.70	603.07
453.07	594.00
453.43	584.39
453.80	575.41
454.17	566.77
454.54	558.47
454.91	549.61
455.28	540.87
455.65	532.77
456.02	524.93
456.38	518.14
456.75	509.46
457.12	502.28
457.49	495.27
457.86	488.32
458.23	482.53
458.59	476.01
458.96	469.31
459.33	463.33
459.70	457.45
460.07	452.79
460.43	447.34
460.80	442.34
461.17	437.93
461.54	433.32
461.91	428.89
462.27	424.47
462.64	420.54
463.01	416.33
463.38	412.20
463.74	407.89
464.11	404.23
464.48	401.17
464.85	397.62
465.21	394.95
465.58	392.05
465.95	388.48
466.32	385.64
466.68	382.90
467.05	380.06
467.42	377.21
467.78	374.29
468.15	371.49
468.52	369.26
468.88	366.59
469.25	364.16
469.62	362.19
469.98	360.00
470.35	358.07
470.72	356.09
471.08	354.01
471.45	352.28
471.82	350.44
472.18	348.57
472.55	347.21
472.92	345.43
473.28	344.02
473.65	342.65
474.02	341.19
474.38	340.00
474.75	339.03
475.11	337.94
475.48	337.04
475.85	336.28
476.21	335.59
476.58	334.92
476.94	334.41
477.31	333.80
477.67	333.23
478.04	332.88
478.41	332.61
478.77	332.57
479.14	332.24
479.50	332.16
479.87	332.00
480.23	331.80
480.60	331.73
480.96	331.60
481.33	331.76
481.69	332.00
482.06	332.15
482.42	332.28
482.79	332.42
483.15	332.72
483.52	333.21
483.88	333.45
484.25	333.85
484.61	334.35
484.98	334.72
485.34	335.40
485.71	336.06
486.07	336.81
486.44	337.38
486.80	338.26
487.17	339.08
487.53	340.25
487.90	341.49
488.26	342.87
488.62	344.12
488.99	345.35
489.35	346.69
489.72	348.01
490.08	349.48
490.44	350.90
490.81	352.51
491.17	354.02
491.54	355.74
491.90	357.42
492.26	359.20
492.63	361.14
492.99	362.98
493.36	365.00
493.72	367.13
494.08	369.13
494.45	371.36
494.81	373.60
495.17	375.83
495.54	378.14
495.90	380.40
496.26	382.87
496.63	385.41
496.99	388.00
497.35	390.63
497.72	393.34
498.08	396.13
498.44	398.83
498.80	401.76
499.17	404.54
499.53	407.38
499.89	410.22
500.26	413.00
500.62	415.82
500.98	418.65
501.34	421.44
501.71	424.40
502.07	427.17
502.43	429.87
502.79	432.55
503.16	435.28
503.52	437.95
503.88	440.50
504.24	443.11
504.60	445.67
504.97	448.32
505.33	450.74
505.69	453.42
506.05	455.87
506.41	458.14
506.78	460.43
507.14	462.71
507.50	464.94
507.86	467.21
508.22	469.45
508.59	471.47
508.95	473.46
509.31	475.58
509.67	477.57
510.03	479.55
510.39	481.52
510.75	483.26
511.12	485.02
511.48	486.90
511.84	488.51
512.20	489.99
512.56	491.56
512.92	493.08
513.28	494.42
513.64	495.69
514.00	496.98
514.37	498.18
514.73	499.39
515.09	500.43
515.45	501.30
515.81	502.13
516.17	502.93
516.53	503.72
516.89	504.33
517.25	504.95
517.61	505.59
517.97	506.02
518.33	506.53
518.69	506.96
519.05	507.29
519.41	507.78
519.77	508.39
520.13	508.61
520.49	508.83
520.85	509.10
521.21	509.65
521.57	509.88
521.93	509.96
522.29	510.24
522.65	510.50
523.01	510.90
523.37	511.24
523.73	511.59
524.09	511.82
524.45	512.00
524.81	512.31
525.17	512.72
525.53	513.11
525.89	513.50
526.25	513.96
526.61	514.31
526.97	514.72
527.33	515.18
527.68	516.00
528.04	516.49
528.40	516.89
528.76	517.42
529.12	518.20
529.48	519.18
529.84	519.91
530.20	520.74
530.56	521.70
530.91	522.65
531.27	523.63
531.63	524.69
531.99	525.70
532.35	526.85
532.71	527.91
533.07	529.23
533.42	530.81
533.78	532.16
534.14	533.50
534.50	534.58
534.86	535.99
535.21	536.95
535.57	538.68
535.93	540.05
536.29	541.67
536.65	543.22
537.00	544.67
537.36	546.15
537.72	547.76
538.08	549.27
538.44	550.94
538.79	552.66
539.15	554.39
539.51	556.32
539.87	558.28
540.22	560.25
540.58	562.26
540.94	564.02
541.29	565.98
541.65	567.93
542.01	570.31
542.37	572.58
542.72	575.00
543.08	577.04
543.44	579.67
543.79	581.66
544.15	583.91
544.51	586.68
544.87	589.41
545.22	591.96
545.58	594.49
545.94	596.84
546.29	599.36
546.65	601.81
547.01	604.29
547.36	606.87
547.72	609.32
548.07	611.83
548.43	614.14
548.79	616.60
549.14	619.15
549.50	621.73
549.86	624.03
550.21	626.55
550.57	629.36
550.92	631.75
551.28	634.35
551.64	636.98
551.99	639.42
552.35	641.76
552.70	644.15
553.06	646.65
553.41	649.29
553.77	652.09
554.13	654.85
554.48	657.67
554.84	660.30
555.19	662.95
555.55	665.68
555.90	668.20
556.26	670.67
556.61	673.16
556.97	675.38
557.32	677.76
557.68	680.05
558.03	682.14
558.39	684.35
558.74	686.83
559.10	689.02
559.45	691.17
559.81	693.64
560.16	695.95
560.52	698.19
560.87	700.43
561.23	702.31
561.58	704.59
561.94	706.65
562.29	708.46
562.64	710.45
563.00	712.29
563.35	714.59
563.71	716.79
564.06	718.99
564.42	721.17
564.77	723.40
565.12	725.62
565.48	728.10
565.83	730.33
566.19	732.46
566.54	734.34
566.89	736.22
567.25	738.11
567.60	740.12
567.96	742.54
568.31	744.61
568.66	746.37
569.02	747.64
569.37	748.76
569.72	750.30
570.08	751.81
570.43	753.05
570.78	754.17
571.14	755.12
571.49	756.09
571.84	757.20
572.20	757.82
572.55	758.64
572.90	758.86
573.26	759.45
573.61	759.72
573.96	760.43
574.31	760.73
574.67	760.93
575.02	760.86
575.37	760.51
575.72	760.16
576.08	760.18
576.43	760.26
576.78	760.43
577.13	760.50
577.49	760.46
577.84	760.59
578.19	760.55
578.54	760.91
578.90	761.12
579.25	760.84
579.60	760.75
579.95	760.27
580.30	760.41
580.66	760.23
581.01	759.92
581.36	759.28
581.71	758.93
582.06	758.73
582.42	758.57
582.77	757.97
583.12	757.66
583.47	757.32
583.82	756.91
584.17	756.44
584.53	756.07
584.88	755.39
585.23	754.79
585.58	754.14
585.93	753.22
586.28	752.47
586.63	751.93
586.98	751.49
587.34	751.22
587.69	750.25
588.04	749.45
588.39	748.74
588.74	747.97
589.09	747.38
589.44	746.13
589.79	745.36
590.14	744.65
590.49	743.57
590.84	742.50
591.19	741.72
591.54	740.72
591.89	739.20
592.25	738.39
592.60	737.00
592.95	735.74
593.30	734.31
593.65	732.69
594.00	731.03
594.35	730.45
594.70	728.68
595.05	727.41
595.40	725.97
595.75	724.54
596.10	723.22
596.45	721.63
596.80	720.55
597.15	719.16
597.50	717.58
597.85	716.34
598.19	714.99
598.54	713.40
598.89	712.01
599.24	711.00
599.59	709.29
599.94	708.02
600.29	706.76
600.64	705.42
600.99	703.98
601.34	702.85
601.69	700.36
602.04	698.82
602.39	697.12
602.74	695.67
603.08	694.26
603.43	693.08
603.78	691.49
604.13	689.87
604.48	688.13
604.83	686.88
605.18	685.47
605.53	683.81
605.87	682.32
606.22	680.87
606.57	679.05
606.92	677.45
607.27	675.79
607.62	673.92
607.96	672.37
608.31	670.91
608.66	669.27
609.01	667.60
609.36	666.01
609.70	664.46
610.05	662.47
610.40	660.63
610.75	658.43
611.10	656.83
611.44	654.67
611.79	652.57
612.14	650.29
612.49	648.06
612.83	646.11
613.18	643.90
613.53	641.65
613.88	639.37
614.22	637.33
614.57	635.13
614.92	633.26
615.27	631.04
615.61	628.86
615.96	626.73
616.31	624.67
616.65	622.74
617.00	620.53
617.35	618.60
617.70	616.39
618.04	614.23
618.39	611.85
618.74	609.84
619.08	607.86
619.43	605.79
619.78	603.84
620.12	601.73
620.47	599.60
620.82	597.20
621.16	594.91
621.51	592.91
621.85	590.70
622.20	588.36
622.55	586.13
622.89	583.82
623.24	581.50
623.59	579.13
623.93	576.92
624.28	574.85
624.62	572.95
624.97	570.93
625.32	568.77
625.66	566.57
626.01	564.40
626.35	562.33
626.70	560.19
627.04	558.04
627.39	555.92
627.73	553.98
628.08	552.36
628.43	550.55
628.77	548.13
629.12	546.01
629.46	544.09
629.81	542.09
630.15	540.05
630.50	537.90
630.84	535.83
631.19	533.71
631.53	531.52
631.88	529.05
632.22	526.77
632.57	524.98
632.91	523.17
633.26	521.23
633.60	519.23
633.95	517.25
634.29	515.09
634.64	513.23
634.98	511.16
635.32	509.10
635.67	507.28
636.01	505.59
636.36	503.74
636.70	501.92
637.05	500.04
637.39	498.21
637.73	496.58
638.08	495.16
638.42	493.47
638.77	491.84
639.11	490.08
639.45	488.37
639.80	486.37
640.14	484.33
640.49	482.46
640.83	480.53
641.17	478.65
641.52	476.79
641.86	474.64
642.20	472.88
642.55	470.80
642.89	468.87
643.23	466.91
643.58	465.30
643.92	463.25
644.26	461.55
644.61	459.82
644.95	457.99
645.29	455.95
645.64	453.97
645.98	452.07
646.32	450.41
646.66	448.52
647.01	446.67
647.35	444.96
647.69	443.16
648.04	441.44
648.38	439.82
648.72	438.08
649.06	436.37
649.41	434.52
649.75	432.85
650.09	431.11
650.43	429.25
650.78	427.23
651.12	425.34
651.46	423.35
651.80	421.67
652.14	419.92
652.49	418.20
652.83	416.42
653.17	414.55
653.51	412.63
653.85	411.07
654.20	409.45
654.54	407.72
654.88	405.93
655.22	404.26
655.56	402.36
655.90	400.70
656.25	399.05
656.59	397.31
656.93	395.67
657.27	394.15
657.61	392.51
657.95	391.03
658.29	389.64
658.64	388.25
658.98	386.62
659.32	384.85
659.66	383.25
660.00	381.70
660.34	380.16
660.68	378.60
661.02	376.94
661.36	375.38
661.70	374.03
662.05	372.65
662.39	371.23
662.73	370.05
663.07	368.81
663.41	367.45
663.75	366.09
664.09	364.61
664.43	363.02
664.77	361.72
665.11	360.24
665.45	358.89
665.79	357.52
666.13	356.10
666.47	354.82
666.81	353.48
667.15	352.06
667.49	350.92
667.83	349.85
668.17	348.53
668.51	347.29
668.85	346.07
669.19	344.96
669.53	343.64
669.87	342.28
670.21	341.03
670.55	339.79
670.89	338.82
671.23	337.88
671.57	336.88
671.91	335.82
672.25	334.81
672.58	333.65
672.92	332.45
673.26	331.40
673.60	330.40
673.94	329.26
674.28	328.24
674.62	327.25
674.96	326.18
675.30	325.34
675.64	324.41
675.97	323.31
676.31	322.27
676.65	321.32
676.99	320.55
677.33	319.43
677.67	318.51
678.01	317.29
678.34	316.31
678.68	315.35
679.02	314.37
679.36	313.39
679.70	312.44
680.04	311.55
680.37	310.57
680.71	309.56
681.05	308.81
681.39	308.03
681.73	307.01
682.06	306.14
682.40	305.26
682.74	304.32
683.08	303.57
683.42	302.68
683.75	301.85
684.09	300.75
684.43	299.92
684.77	299.00
685.10	298.23
685.44	297.27
685.78	296.28
686.12	295.46
686.45	294.65
686.79	293.79
687.13	292.99
687.46	292.25
687.80	291.66
688.14	290.78
688.48	290.07
688.81	289.33
689.15	288.64
689.49	287.81
689.82	287.05
690.16	286.15
690.50	285.38
690.83	284.57
691.17	283.79
691.51	283.12
691.84	282.52
692.18	281.80
692.52	281.14
692.85	280.57
693.19	279.86
693.52	279.13
693.86	278.39
694.20	277.72
694.53	277.05
694.87	276.16
695.21	275.50
695.54	274.82
695.88	274.04
696.21	273.21
696.55	272.61
696.88	272.00
697.22	271.33
697.56	270.75
697.89	270.14
698.23	269.65
698.56	268.97
698.90	268.32
699.23	267.68
699.57	267.10
699.90	266.42
700.24	265.83
700.58	265.28
700.91	264.84
701.25	264.55
701.58	264.10
701.92	263.70
702.25	263.14
702.59	262.54
702.92	262.07
703.26	261.58
703.59	261.02
703.93	260.79
704.26	260.39
704.60	259.86
704.93	259.21
705.26	258.65
705.60	258.30
705.93	257.77
706.27	257.41
706.60	257.09
706.94	256.81
707.27	256.34
707.61	255.81
707.94	255.38
708.27	254.62
708.61	254.02
708.94	253.56
709.28	253.21
709.61	252.73
709.94	252.35
710.28	251.96
710.61	251.58
710.95	250.83
711.28	250.57
711.61	250.14
711.95	249.96
712.28	249.57
712.61	249.07
712.95	248.86
713.28	248.58
713.61	248.10
713.95	247.60
714.28	247.28
714.61	246.87
714.95	246.45
715.28	246.02
715.61	245.58
715.95	245.24
716.28	244.83
716.61	244.55
716.95	244.13
717.28	243.80
717.61	243.37
717.94	243.05
718.28	242.55
718.61	242.23
718.94	241.72
719.27	241.43
719.61	241.15
719.94	240.75
720.27	240.24
720.60	239.93
720.94	239.65
721.27	239.39
721.60	239.19
721.93	238.97
722.27	238.82
722.60	238.66
722.93	238.35
723.26	238.04
723.59	237.65
723.93	237.46
724.26	237.20
724.59	236.96
724.92	236.77
725.25	236.53
725.59	236.26
725.92	236.16
726.25	235.96
726.58	235.67
726.91	235.42
727.24	235.28
727.57	234.94
727.91	234.64
728.24	234.40
728.57	234.19
728.90	233.96
729.23	233.63
729.56	233.61
729.89	233.33
730.22	233.14
730.55	233.00
730.89	232.77
731.22	232.57
731.55	232.35
731.88	232.11
732.21	231.80
732.54	231.54
732.87	231.28
733.20	231.03
733.53	230.90
733.86	230.71
734.19	230.42
734.52	230.31
734.85	230.39
735.18	230.06
735.51	229.97
735.84	229.79
736.17	229.71
736.50	229.31
736.83	229.61
737.16	229.45
737.49	229.29
737.82	229.16
738.15	229.02
738.48	228.80
738.81	228.55
739.14	228.36
739.47	228.22
739.80	228.12
740.13	227.98
740.46	227.80
740.79	227.58
741.12	227.45
741.45	227.26
741.78	226.92
742.11	226.92
742.44	226.69
742.77	226.45
743.10	226.23
743.43	226.07
743.75	225.53
744.08	225.76
744.41	225.51
744.74	225.28
745.07	225.06
745.40	225.05
745.73	225.11
746.06	225.02
746.39	224.87
746.71	224.69
747.04	224.55
747.37	224.32
747.70	224.29
748.03	224.14
748.36	224.08
748.68	223.92
749.01	223.68
749.34	223.50
749.67	223.48
750.00	223.43
750.33	223.51
750.65	223.38
750.98	222.83
751.31	222.75
751.64	222.61
751.97	222.59
752.29	222.43
752.62	222.16
752.95	222.05
753.28	221.93
753.60	221.78
753.93	221.73
754.26	221.64
754.59	221.49
754.91	221.37
755.24	221.18
755.57	221.08
755.90	220.97
756.22	220.90
756.55	220.71
756.88	220.56
757.20	220.30
757.53	220.07
757.86	220.00
758.19	219.99
758.51	219.94
758.84	219.70
759.17	219.55
759.49	219.47
759.82	219.48
760.15	219.42
760.47	219.27
760.80	219.10
761.13	219.09
761.45	218.94
761.78	218.90
762.11	218.90
762.43	218.79
762.76	218.67
763.08	218.61
763.41	218.55
763.74	218.48
764.06	218.34
764.39	218.28
764.71	218.18
765.04	218.05
765.37	217.92
765.69	217.93
766.02	217.89
766.34	217.78
766.67	217.61
767.00	217.63
767.32	217.81
767.65	217.96
767.97	217.84
768.30	217.76
768.62	217.66
768.95	217.52
769.27	217.45
769.60	217.51
769.92	217.31
770.25	217.21
770.57	217.11
770.90	217.13
771.22	217.09
771.55	217.06
771.87	216.97
772.20	216.91
772.52	217.07
772.85	217.37
773.17	217.40
773.50	217.41
773.82	217.27
774.15	217.04
774.47	216.72
774.80	216.62
775.12	216.50
775.45	216.49
775.77	216.50
776.09	216.47
776.42	216.38
776.74	216.55
777.07	216.44
777.39	216.40
777.72	216.31
778.04	216.36
778.36	216.28
778.69	216.29
779.01	216.29
779.33	216.00
779.66	215.64
779.98	215.48
780.31	215.37
780.63	215.50
780.95	215.52
781.28	215.57
781.60	215.59
781.92	215.60
782.25	215.53
782.57	215.44
782.89	215.37
783.22	215.32
783.54	215.16
783.86	215.23
784.19	215.15
784.51	215.19
784.83	215.12
785.16	215.06
785.48	215.07
785.80	215.06
786.12	215.06
786.45	214.97
786.77	215.08
787.09	215.06
787.42	214.89
787.74	214.85
788.06	214.75
788.38	214.65
788.71	214.58
789.03	214.51
789.35	214.53
789.67	214.48
789.99	214.43
790.32	214.38
790.64	214.38
790.96	214.65
791.28	214.50
791.61	214.41
791.93	214.46
792.25	214.40
792.57	214.54
792.89	214.43
793.21	214.43
793.54	214.28
793.86	214.20
794.18	214.20
794.50	214.08
794.82	214.10
795.14	214.12
795.47	214.18
795.79	214.18
796.11	214.06
796.43	214.03
796.75	214.03
797.07	213.97
797.39	213.93
797.71	213.68
798.04	213.71
798.36	213.71
798.68	213.61
799.00	213.57
799.32	213.38
799.64	213.34
799.96	213.35
800.28	213.38
800.60	213.38
800.92	213.35
801.24	213.33
801.56	213.36
801.89	213.25
802.21	213.25
802.53	213.18
802.85	213.32
803.17	213.48
803.49	213.43
803.81	213.44
804.13	213.37
804.45	213.23
804.77	213.25
805.09	213.25
805.41	213.17
805.73	213.09
806.05	213.01
806.37	213.05
806.69	213.01
807.01	213.04
807.33	212.96
807.65	212.81
807.97	213.05
808.28	212.90
808.60	212.98
808.92	212.95
809.24	213.13
809.56	212.98
809.88	212.77
810.20	212.72
810.52	212.73
810.84	212.69
811.16	212.71
811.48	212.64
811.80	212.69
812.12	212.75
812.43	212.86
812.75	212.90
813.07	212.81
813.39	212.73
813.71	212.63
814.03	212.68
814.35	212.68
814.67	212.52
814.98	212.53
815.30	212.50
815.62	212.40
815.94	212.19
816.26	212.20
816.58	212.12
816.89	212.23
817.21	212.19
817.53	212.26
817.85	212.29
818.17	212.27
818.48	212.18
818.80	212.22
819.12	212.16
819.44	212.09
819.76	212.07
820.07	212.12
820.39	212.08
820.71	212.08
821.03	212.08
821.34	211.98
821.66	212.04
821.98	212.10
822.30	212.10
822.61	212.33
822.93	212.27
823.25	212.33
823.57	212.25
823.88	212.34
824.20	212.30
824.52	212.32
824.83	212.32
825.15	212.24
825.47	212.17
825.79	212.16
826.10	212.13
826.42	212.12
826.74	212.13
827.05	212.12
827.37	212.07
827.69	212.07
828.00	212.11
828.32	212.04
828.64	211.98
828.95	212.16
829.27	212.09
829.58	211.98
829.90	211.96
830.22	212.00
830.53	211.81
830.85	211.74
831.17	211.67
831.48	211.67
831.80	211.71
832.11	211.70
832.43	211.65
832.75	211.62
833.06	211.80
833.38	211.70
833.69	211.67
834.01	211.67
834.32	211.67
834.64	211.60
834.96	211.67
835.27	211.59
835.59	211.43
835.90	211.29
836.22	211.36
836.53	211.31
836.85	211.24
837.16	211.63
837.48	211.66
837.79	211.74
838.11	211.73
838.42	211.69
838.74	211.72
839.05	211.73
839.37	211.72
839.68	211.53
840.00	211.55
840.31	211.67
840.63	211.68
840.94	211.65
841.26	211.66
841.57	211.61
841.88	211.74
842.20	211.71
842.51	211.73
842.83	211.81
843.14	212.16
843.46	212.19
843.77	211.99
844.08	211.93
844.40	211.82
844.71	211.77
845.03	211.76
845.34	211.69
845.65	211.66
845.97	211.67
846.28	211.74
846.60	211.74
846.91	211.62
847.22	211.59
847.54	211.65
847.85	211.65
848.16	211.60
848.48	211.53
848.79	211.66
849.10	211.78
849.42	211.76
849.73	211.40
850.04	211.37
850.36	211.24
850.67	211.28
850.98	211.31
851.30	211.35
851.61	211.41
851.92	211.51
852.23	211.59
852.55	211.61
852.86	211.57
853.17	211.58
853.49	211.67
853.80	211.77
854.11	211.83
854.42	211.94
854.74	211.90
855.05	211.88
855.36	211.69
855.67	211.61
855.99	211.61
856.30	212.05
856.61	212.07
856.92	212.10
857.23	212.13
857.55	212.12
857.86	212.09
858.17	212.12
858.48	212.03
858.79	211.95
859.11	211.96
859.42	211.96
859.73	211.93
860.04	211.89
860.35	211.80
860.66	211.65
860.98	211.54
861.29	211.60
861.60	211.55
861.91	211.65
862.22	211.59
862.53	211.52
862.84	211.07
863.16	211.18
863.47	211.14
863.78	211.10
864.09	211.08
864.40	211.06
864.71	211.02
865.02	211.09
865.33	211.06
865.64	210.97
865.95	210.93
866.27	211.16
866.58	211.14
866.89	211.13
867.20	211.09
867.51	211.09
867.82	211.06
868.13	211.20
868.44	211.11
868.75	211.13
869.06	211.14
869.37	211.21
869.68	211.09
869.99	211.10
870.30	211.12
870.61	211.20
870.92	211.23
871.23	211.22
871.54	211.17
871.85	211.30
872.16	211.33
872.47	211.35
872.78	211.13
873.09	211.19
873.40	211.20
873.71	211.39
874.02	211.44
874.33	211.43
874.64	211.35
874.95	211.44
875.26	211.40
875.56	211.51
875.87	211.47
876.18	211.47
876.49	211.83
876.80	211.86
877.11	211.74
877.42	211.77
877.73	211.75
878.04	211.83
878.35	211.81
878.66	211.84
878.96	211.86
879.27	211.86
879.58	211.85
879.89	211.89
880.20	211.88
880.51	211.83
880.82	211.83
881.12	211.90
881.43	211.81
881.74	211.83
882.05	211.72
882.36	211.81
882.67	211.81
882.97	211.48
883.28	211.42
883.59	211.51
883.90	211.48
884.21	211.55
884.51	211.51
884.82	211.52
885.13	211.53
885.44	211.55
885.74	211.60
886.05	211.62
886.36	211.61
886.67	211.53
886.98	211.71
887.28	211.80
887.59	211.67
887.90	211.75
888.20	211.72
888.51	211.81
888.82	211.70
889.13	211.71
889.43	211.99
889.74	211.95
890.05	211.92
890.35	211.92
890.66	211.84
890.97	211.75
891.28	211.70
891.58	211.71
891.89	211.65
892.20	211.60
892.50	211.50
892.81	211.47
893.12	211.45
893.42	211.27
893.73	211.28
894.04	211.36
894.34	211.40
894.65	211.38
894.95	211.28
895.26	211.33
895.57	211.48
895.87	211.16
896.18	211.26
896.48	211.30
896.79	211.31
897.10	211.32
897.40	211.35
897.71	211.45
898.01	211.39
898.32	211.45
898.63	211.42
898.93	211.41
899.24	211.39
899.54	211.42
899.85	211.40
900.15	211.35
900.46	211.30
900.76	211.27
901.07	211.30
901.38	211.31
901.68	211.38
901.99	211.21
902.29	211.21
902.60	211.14
902.90	211.09
903.21	211.09
903.51	211.10
903.82	211.21
904.12	211.11
904.43	211.24
904.73	211.22
905.03	211.27
905.34	211.69
905.64	211.66
905.95	211.62
906.25	211.61
906.56	211.53
906.86	211.61
907.17	211.63
907.47	211.65
907.77	211.65
908.08	211.58
908.38	211.61
908.69	211.75
908.99	211.85
909.30	211.88
909.60	211.88
909.90	211.95
910.21	211.82
910.51	211.78
910.81	211.67
911.12	211.62
911.42	211.65
911.73	211.25
912.03	211.30
912.33	211.38
912.64	211.37
912.94	211.42
913.24	211.25
913.55	211.20
913.85	211.20
914.15	211.28
914.46	211.34
914.76	211.32
915.06	211.28
915.37	211.20
915.67	211.15
915.97	211.14
916.27	211.07
916.58	211.09
916.88	211.07
917.18	211.06
917.49	211.29
917.79	211.19
918.09	211.28
918.39	211.42
918.70	211.35
919.00	211.37
919.30	211.53
919.60	211.61
919.91	211.55
920.21	211.53
920.51	211.44
920.81	211.37
921.12	211.39
921.42	211.34
921.72	211.38
922.02	211.39
922.32	211.43
922.63	211.38
922.93	211.55
923.23	211.61
923.53	211.60
923.83	211.43
924.13	211.55
924.44	211.50
924.74	211.48
925.04	211.56
925.34	211.55
925.64	211.43
925.94	211.42
926.24	211.67
926.55	211.60
926.85	211.63
927.15	211.65
927.45	211.65
927.75	211.60
928.05	211.57
928.35	211.58
928.65	211.62
928.95	211.72
929.26	211.54
929.56	211.56
929.86	211.55
930.16	211.52
930.46	211.44
930.76	211.45
931.06	211.36
931.36	211.27
931.66	211.35
931.96	211.33
932.26	211.34
932.56	211.15
932.86	211.21
933.16	211.27
933.46	211.19
933.76	211.15
934.06	211.27
934.36	211.38
934.66	211.44
934.96	211.42
935.26	211.41
935.56	211.49
935.86	211.41
936.16	211.43
936.46	211.50
936.76	211.44
937.06	211.38
937.36	211.31
937.66	211.35
937.96	211.28
938.26	211.18
938.56	211.18
938.86	211.20
939.16	211.34
939.46	211.32
939.76	211.38
940.06	211.35
940.35	211.24
940.65	211.04
940.95	210.99
941.25	210.82
941.55	210.82
941.85	210.83
942.15	210.88
942.45	210.95
942.75	210.93
943.04	210.99
943.34	211.02
943.64	211.05
943.94	211.03
944.24	211.09
944.54	211.11
944.84	211.11
945.13	211.11
945.43	210.96
945.73	210.91
946.03	210.86
946.33	210.83
946.62	210.86
946.92	210.88
947.22	210.95
947.52	211.06
947.82	211.08
948.11	210.99
948.41	210.99
948.71	210.94
949.01	210.93
949.31	210.90
949.60	210.96
949.90	210.99
950.20	210.95
950.50	210.94
950.79	210.96
951.09	211.03
951.39	210.94
951.69	211.04
951.98	211.14
952.28	211.18
952.58	211.23
952.87	211.15
953.17	211.18
953.47	211.14
953.76	211.16
954.06	211.09
954.36	211.13
954.66	211.11
954.95	211.22
955.25	211.25
955.55	211.34
955.84	211.16
956.14	211.15
956.44	211.16
956.73	211.11
957.03	211.13
957.32	211.11
957.62	211.07
957.92	211.09
958.21	211.01
958.51	211.40
958.81	211.41
959.10	211.48
959.40	211.58
959.69	211.54
959.99	211.58
960.29	211.60
960.58	211.53
960.88	211.62
961.17	211.51
961.47	211.48
961.76	211.34
962.06	211.44
962.36	211.45
962.65	211.46
962.95	211.51
963.24	211.48
963.54	211.46
963.83	211.58
964.13	211.49
964.42	211.42
964.72	211.06
965.01	211.09
965.31	211.05
965.60	210.99
965.90	211.19
966.19	211.09
966.49	211.14
966.78	211.18
967.08	211.19
967.37	211.19
967.67	211.16
967.96	211.29
968.26	211.36
968.55	211.36
968.85	211.31
969.14	211.28
969.43	211.25
969.73	211.19
970.02	211.15
970.32	211.14
970.61	211.19
970.91	211.17
971.20	211.10
971.49	211.15
971.79	211.14
972.08	210.89
972.38	210.94
972.67	210.90
972.96	210.91
973.26	210.84
973.55	210.98
973.85	210.96
974.14	210.88
974.43	210.83
974.73	210.74
975.02	210.74
975.31	210.76
975.61	210.76
975.90	210.78
976.19	210.74
976.49	210.79
976.78	210.77
977.07	210.73
977.37	210.77
977.66	210.76
977.95	210.69
978.24	210.77
978.54	210.79
978.83	210.71
979.12	210.73
979.42	210.73
979.71	210.60
980.00	210.57
980.29	210.59
980.59	210.53
980.88	210.66
981.17	210.69
981.46	210.68
981.76	210.66
982.05	210.74
982.34	210.79
982.63	210.81
982.93	210.79
983.22	210.90
983.51	210.87
983.80	210.87
984.09	210.95
984.39	210.90
984.68	210.90
984.97	210.90
985.26	210.83
985.55	210.86
985.85	210.77
986.14	210.84
986.43	210.92
986.72	210.92
987.01	210.87
987.30	210.80
987.59	210.80
987.89	210.85
988.18	210.80
988.47	210.79
988.76	210.72
989.05	210.75
989.34	210.70
989.63	210.79
989.92	210.78
990.22	210.74
990.51	210.77
990.80	210.67
991.09	210.71
991.38	210.74
991.67	210.66
991.96	210.69
992.25	210.68
992.54	210.55
992.83	210.60
993.12	210.53
993.41	210.66
993.70	210.77
993.99	210.81
994.28	210.84
994.58	210.87
994.87	210.86
995.16	210.77
995.45	210.79
995.74	210.70
996.03	210.75
996.32	210.81
996.61	210.87
996.90	210.94
997.19	210.97
997.48	211.02
997.77	211.03
998.06	211.02
998.34	211.07
998.63	211.12
998.92	211.15
999.21	211.18
999.50	211.07
999.79	210.95
1000.08	210.98
1000.37	210.99
1000.66	210.94
1000.95	210.99
1001.24	211.09
1001.53	211.05
1001.82	211.08
1002.11	211.02
1002.40	211.07
1002.68	211.17
1002.97	211.38
1003.26	211.32
1003.55	211.29
1003.84	211.25
1004.13	211.45
1004.42	211.38
1004.71	211.36
1004.99	211.31
1005.28	211.45
1005.57	211.53
1005.86	211.55
1006.15	211.46
1006.44	211.47
1006.72	211.50
1007.01	211.48
1007.30	211.49
1007.59	211.52
1007.88	211.47
1008.17	211.49
1008.45	211.47
1008.74	211.25
1009.03	211.03
1009.32	210.99
1009.60	210.96
1009.89	211.01
1010.18	210.82
1010.47	210.83
1010.76	210.85
1011.04	210.88
1011.33	210.84
1011.62	210.89
1011.91	210.90
1012.19	210.97
1012.48	210.88
1012.77	210.93
1013.05	211.02
1013.34	211.00
1013.63	210.95
1013.92	211.02
1014.20	211.02
1014.49	210.98
1014.78	211.06
1015.06	211.03
1015.35	211.10
1015.64	211.12
1015.92	211.15
1016.21	211.22
1016.50	211.22
1016.78	211.31
1017.07	211.26
1017.36	211.15
1017.64	211.08
1017.93	211.06
1018.22	211.04
1018.50	211.03
1018.79	211.01
1019.08	210.90
1019.36	210.90
1019.65	210.92
1019.93	210.98
1020.22	211.01
1020.51	211.12
1020.79	211.09
1021.08	210.85
1021.36	210.05
1021.65	211.40
1021.94	210.80
1022.22	210.65
1022.51	211.10
1022.79	212.80
1023.08	211.60
1023.36	213.75
1023.65	210.85
>>>>>End Processed Spectral Data<<<<<
