SpectraSuite Data File
++++++++++++++++++++++++++++++++++++
Date: Mon Feb 25 17:18:42 EST 2013
User: group
Dark Spectrum Present: No
Reference Spectrum Present: No
Number of Sampled Component Spectra: 1
Spectrometers: USB2E7196
Integration Time (usec): 104000 (USB2E7196)
Spectra Averaged: 20 (USB2E7196)
Boxcar Smoothing: 10 (USB2E7196)
Correct for Electrical Dark: No (USB2E7196)
Strobe/Lamp Enabled: No (USB2E7196)
Correct for Detector Non-linearity: No (USB2E7196)
Correct for Stray Light: No (USB2E7196)
Number of Pixels in Processed Spectrum: 2048
>>>>>Begin Processed Spectral Data<<<<<
339.09	0.00
339.48	199.20
339.86	201.10
340.24	203.65
340.63	205.00
341.01	211.45
341.39	206.50
341.78	207.60
342.16	209.65
342.54	210.00
342.93	199.03
343.31	209.06
343.69	209.61
344.07	210.03
344.46	210.41
344.84	210.73
345.22	210.70
345.60	210.99
345.99	211.18
346.37	211.27
346.75	211.34
347.13	211.40
347.52	211.47
347.90	211.57
348.28	211.56
348.66	211.77
349.05	211.67
349.43	211.79
349.81	211.82
350.19	211.94
350.57	211.97
350.96	212.05
351.34	212.09
351.72	212.16
352.10	212.28
352.48	212.31
352.87	212.35
353.25	212.45
353.63	212.50
354.01	212.51
354.39	212.60
354.77	212.67
355.15	212.73
355.54	212.69
355.92	212.61
356.30	212.69
356.68	212.90
357.06	213.00
357.44	212.94
357.82	213.02
358.20	213.09
358.58	213.16
358.97	213.20
359.35	213.34
359.73	213.45
360.11	213.45
360.49	213.55
360.87	213.48
361.25	213.58
361.63	213.72
362.01	213.80
362.39	213.88
362.77	213.95
363.15	214.00
363.53	214.09
363.91	214.15
364.29	214.23
364.67	213.94
365.05	214.02
365.43	214.02
365.81	214.05
366.19	214.14
366.57	214.33
366.95	214.41
367.33	214.37
367.71	214.35
368.09	214.49
368.47	214.42
368.85	214.53
369.23	214.59
369.61	214.48
369.99	214.59
370.37	214.57
370.75	214.76
371.13	214.67
371.51	214.63
371.89	214.66
372.27	214.64
372.65	214.58
373.03	214.56
373.41	214.59
373.78	214.58
374.16	214.38
374.54	214.20
374.92	214.09
375.30	214.11
375.68	214.03
376.06	214.00
376.44	213.99
376.82	213.95
377.19	213.80
377.57	213.78
377.95	213.59
378.33	213.55
378.71	213.28
379.09	213.37
379.47	213.40
379.84	213.26
380.22	213.21
380.60	213.22
380.98	213.13
381.36	213.11
381.73	213.03
382.11	213.09
382.49	213.11
382.87	213.09
383.25	213.01
383.62	213.39
384.00	213.24
384.38	213.24
384.76	213.36
385.13	213.45
385.51	213.35
385.89	213.40
386.27	213.34
386.64	213.31
387.02	213.15
387.40	213.11
387.78	213.23
388.15	213.24
388.53	213.21
388.91	213.25
389.29	213.20
389.66	213.25
390.04	213.20
390.42	213.30
390.79	213.29
391.17	213.28
391.55	212.87
391.92	212.88
392.30	212.90
392.68	212.75
393.05	212.72
393.43	212.72
393.81	212.68
394.18	212.67
394.56	212.74
394.94	212.84
395.31	212.70
395.69	212.75
396.06	212.73
396.44	212.70
396.82	212.62
397.19	212.82
397.57	212.75
397.95	212.88
398.32	212.75
398.70	212.79
399.07	212.90
399.45	212.96
399.82	213.01
400.20	213.01
400.58	213.15
400.95	213.08
401.33	213.21
401.70	213.46
402.08	213.58
402.45	213.64
402.83	213.76
403.20	213.88
403.58	213.92
403.95	214.09
404.33	214.27
404.71	214.47
405.08	214.73
405.46	214.96
405.83	215.03
406.21	215.19
406.58	215.41
406.96	215.53
407.33	215.76
407.70	216.06
408.08	216.57
408.45	216.82
408.83	217.26
409.20	217.60
409.58	217.70
409.95	218.00
410.33	218.42
410.70	218.74
411.08	219.25
411.45	219.74
411.82	220.14
412.20	220.67
412.57	221.36
412.95	221.65
413.32	222.26
413.69	222.95
414.07	223.53
414.44	224.29
414.82	225.15
415.19	226.05
415.56	226.94
415.94	227.75
416.31	228.80
416.68	229.79
417.06	231.09
417.43	232.44
417.81	233.84
418.18	235.22
418.55	236.75
418.93	238.33
419.30	239.93
419.67	241.84
420.04	243.67
420.42	245.49
420.79	247.90
421.16	250.12
421.54	252.50
421.91	254.97
422.28	257.28
422.66	259.87
423.03	262.52
423.40	265.08
423.77	267.89
424.15	270.68
424.52	273.63
424.89	276.73
425.26	279.80
425.64	282.71
426.01	285.95
426.38	289.30
426.75	292.80
427.13	296.32
427.50	299.91
427.87	303.73
428.24	307.67
428.61	311.23
428.99	315.28
429.36	319.66
429.73	323.97
430.10	328.39
430.47	332.85
430.85	337.29
431.22	342.22
431.59	347.52
431.96	352.36
432.33	357.75
432.70	362.91
433.08	368.93
433.45	374.61
433.82	380.41
434.19	386.75
434.56	393.09
434.93	399.05
435.30	405.00
435.68	411.52
436.05	417.86
436.42	424.28
436.79	430.32
437.16	436.62
437.53	443.21
437.90	449.97
438.27	456.46
438.64	463.16
439.01	469.50
439.38	474.82
439.75	480.36
440.13	486.54
440.50	492.38
440.87	497.15
441.24	502.20
441.61	507.52
441.98	511.40
442.35	515.95
442.72	520.61
443.09	525.26
443.46	528.11
443.83	529.98
444.20	531.48
444.57	533.61
444.94	534.62
445.31	535.66
445.68	536.70
446.05	537.07
446.42	536.48
446.79	535.50
447.16	534.49
447.53	533.71
447.90	531.05
448.27	528.45
448.64	524.92
449.01	522.34
449.37	517.70
449.74	513.48
450.11	508.49
450.48	502.84
450.85	496.91
451.22	491.89
451.59	487.24
451.96	482.80
452.33	476.82
452.70	471.39
453.07	465.00
453.43	458.17
453.80	451.81
454.17	445.68
454.54	439.99
454.91	433.88
455.28	427.85
455.65	422.38
456.02	417.23
456.38	412.47
456.75	406.56
457.12	401.81
457.49	397.04
457.86	392.15
458.23	388.38
458.59	384.05
458.96	379.65
459.33	375.65
459.70	371.62
460.07	368.44
460.43	364.85
460.80	361.67
461.17	358.96
461.54	356.02
461.91	353.26
462.27	350.42
462.64	348.01
463.01	345.43
463.38	342.86
463.74	339.78
464.11	337.45
464.48	335.52
464.85	333.35
465.21	331.75
465.58	330.03
465.95	327.76
466.32	326.00
466.68	324.28
467.05	322.62
467.42	321.05
467.78	319.37
468.15	317.85
468.52	316.64
468.88	314.90
469.25	313.43
469.62	312.21
469.98	310.95
470.35	309.90
470.72	308.79
471.08	307.61
471.45	306.80
471.82	306.03
472.18	305.01
472.55	304.38
472.92	303.39
473.28	302.65
473.65	301.86
474.02	301.25
474.38	300.72
474.75	300.34
475.11	299.88
475.48	299.59
475.85	299.26
476.21	299.01
476.58	299.01
476.94	299.01
477.31	299.06
477.67	299.01
478.04	299.10
478.41	299.36
478.77	299.89
479.14	300.08
479.50	300.40
479.87	300.88
480.23	301.43
480.60	301.98
480.96	302.50
481.33	303.48
481.69	304.19
482.06	304.97
482.42	305.83
482.79	306.75
483.15	307.74
483.52	308.97
483.88	310.20
484.25	311.48
484.61	312.89
484.98	314.23
485.34	315.93
485.71	317.70
486.07	319.58
486.44	321.21
486.80	323.25
487.17	325.39
487.53	327.76
487.90	330.22
488.26	332.93
488.62	335.80
488.99	338.66
489.35	341.74
489.72	345.02
490.08	348.40
490.44	351.95
490.81	355.80
491.17	359.53
491.54	363.61
491.90	367.90
492.26	372.37
492.63	377.21
492.99	382.19
493.36	387.37
493.72	392.89
494.08	398.73
494.45	404.89
494.81	411.32
495.17	417.87
495.54	424.76
495.90	431.86
496.26	439.20
496.63	447.00
496.99	455.18
497.35	463.68
497.72	472.55
498.08	481.71
498.44	491.04
498.80	501.20
499.17	511.60
499.53	522.27
499.89	533.41
500.26	544.90
500.62	556.63
500.98	568.81
501.34	581.50
501.71	594.57
502.07	608.05
502.43	621.74
502.79	635.77
503.16	650.50
503.52	665.64
503.88	681.16
504.24	697.17
504.60	713.49
504.97	730.42
505.33	747.54
505.69	765.95
506.05	784.62
506.41	803.12
506.78	822.10
507.14	841.52
507.50	861.58
507.86	881.94
508.22	902.98
508.59	924.19
508.95	946.08
509.31	968.37
509.67	990.91
510.03	1014.11
510.39	1038.21
510.75	1062.12
511.12	1086.45
511.48	1111.51
511.84	1136.86
512.20	1162.34
512.56	1188.33
512.92	1214.72
513.28	1240.78
513.64	1267.46
514.00	1294.51
514.37	1321.63
514.73	1349.33
515.09	1376.79
515.45	1404.79
515.81	1432.65
516.17	1461.13
516.53	1489.35
516.89	1517.72
517.25	1546.36
517.61	1574.85
517.97	1603.19
518.33	1631.49
518.69	1660.35
519.05	1689.19
519.41	1717.98
519.77	1747.30
520.13	1775.80
520.49	1804.30
520.85	1833.39
521.21	1862.28
521.57	1891.34
521.93	1919.76
522.29	1949.37
522.65	1979.12
523.01	2007.45
523.37	2035.72
523.73	2064.09
524.09	2092.54
524.45	2121.01
524.81	2149.26
525.17	2177.94
525.53	2206.19
525.89	2234.92
526.25	2262.71
526.61	2289.13
526.97	2315.94
527.33	2342.63
527.68	2370.01
528.04	2396.36
528.40	2421.64
528.76	2447.38
529.12	2473.51
529.48	2500.47
529.84	2525.70
530.20	2550.50
530.56	2575.97
530.91	2601.88
531.27	2627.39
531.63	2651.95
531.99	2676.41
532.35	2700.00
532.71	2722.94
533.07	2746.20
533.42	2768.38
533.78	2791.11
534.14	2813.72
534.50	2834.47
534.86	2856.27
535.21	2876.25
535.57	2898.09
535.93	2918.65
536.29	2938.46
536.65	2958.23
537.00	2976.23
537.36	2993.98
537.72	3011.25
538.08	3028.83
538.44	3045.99
538.79	3063.08
539.15	3079.99
539.51	3096.07
539.87	3113.18
540.22	3129.01
540.58	3145.49
540.94	3161.25
541.29	3175.27
541.65	3188.99
542.01	3203.50
542.37	3216.39
542.72	3230.14
543.08	3241.53
543.44	3254.76
543.79	3265.79
544.15	3276.18
544.51	3287.91
544.87	3299.48
545.22	3310.00
545.58	3319.15
545.94	3327.13
546.29	3334.15
546.65	3340.64
547.01	3347.73
547.36	3353.91
547.72	3360.39
548.07	3364.92
548.43	3369.50
548.79	3373.82
549.14	3378.51
549.50	3382.89
549.86	3385.76
550.21	3388.32
550.57	3392.36
550.92	3393.74
551.28	3396.20
551.64	3398.55
551.99	3400.54
552.35	3401.20
552.70	3402.42
553.06	3403.59
553.41	3404.55
553.77	3405.58
554.13	3406.32
554.48	3406.90
554.84	3407.28
555.19	3406.60
555.55	3405.51
555.90	3403.65
556.26	3402.46
556.61	3400.78
556.97	3398.30
557.32	3396.92
557.68	3394.32
558.03	3390.92
558.39	3388.25
558.74	3386.87
559.10	3384.41
559.45	3380.87
559.81	3378.27
560.16	3374.09
560.52	3370.65
560.87	3366.89
561.23	3362.05
561.58	3358.35
561.94	3352.94
562.29	3346.79
562.64	3342.34
563.00	3338.31
563.35	3334.78
563.71	3331.05
564.06	3327.11
564.42	3323.20
564.77	3319.10
565.12	3315.18
565.48	3310.58
565.83	3306.56
566.19	3301.79
566.54	3295.53
566.89	3289.54
567.25	3283.89
567.60	3278.98
567.96	3273.25
568.31	3267.57
568.66	3261.28
569.02	3253.83
569.37	3246.59
569.72	3240.29
570.08	3232.82
570.43	3224.93
570.78	3216.89
571.14	3207.81
571.49	3198.50
571.84	3190.55
572.20	3181.03
572.55	3172.79
572.90	3163.30
573.26	3152.86
573.61	3142.34
573.96	3133.02
574.31	3122.65
574.67	3111.41
575.02	3099.93
575.37	3088.73
575.72	3076.83
576.08	3067.14
576.43	3056.28
576.78	3046.06
577.13	3035.99
577.49	3025.70
577.84	3015.13
578.19	3005.18
578.54	2996.07
578.90	2987.03
579.25	2975.81
579.60	2964.64
579.95	2952.62
580.30	2942.64
580.66	2933.20
581.01	2922.24
581.36	2910.43
581.71	2899.61
582.06	2889.23
582.42	2878.92
582.77	2867.56
583.12	2856.87
583.47	2846.36
583.82	2836.69
584.17	2826.56
584.53	2815.80
584.88	2804.71
585.23	2793.69
585.58	2782.58
585.93	2770.91
586.28	2760.20
586.63	2749.68
586.98	2739.64
587.34	2730.16
587.69	2719.14
588.04	2707.89
588.39	2697.38
588.74	2687.12
589.09	2677.14
589.44	2666.37
589.79	2656.59
590.14	2647.23
590.49	2637.43
590.84	2626.75
591.19	2617.20
591.54	2606.49
591.89	2594.45
592.25	2583.74
592.60	2573.06
592.95	2561.61
593.30	2549.81
593.65	2537.94
594.00	2526.47
594.35	2517.13
594.70	2505.99
595.05	2495.81
595.40	2485.43
595.75	2474.20
596.10	2464.16
596.45	2453.86
596.80	2444.13
597.15	2434.20
597.50	2423.48
597.85	2413.41
598.19	2402.76
598.54	2392.09
598.89	2382.42
599.24	2374.25
599.59	2365.05
599.94	2356.49
600.29	2347.55
600.64	2338.75
600.99	2328.90
601.34	2320.41
601.69	2309.69
602.04	2299.67
602.39	2289.79
602.74	2280.26
603.08	2272.54
603.43	2264.12
603.78	2255.02
604.13	2245.92
604.48	2236.59
604.83	2229.05
605.18	2221.18
605.53	2212.40
605.87	2203.00
606.22	2194.15
606.57	2184.87
606.92	2175.35
607.27	2165.38
607.62	2156.00
607.96	2147.62
608.31	2139.56
608.66	2129.61
609.01	2119.79
609.36	2110.20
609.70	2100.07
610.05	2089.86
610.40	2079.55
610.75	2068.97
611.10	2059.65
611.44	2048.30
611.79	2037.43
612.14	2025.63
612.49	2013.92
612.83	2003.29
613.18	1992.06
613.53	1980.91
613.88	1969.32
614.22	1958.75
614.57	1947.96
614.92	1937.03
615.27	1925.54
615.61	1914.37
615.96	1903.82
616.31	1894.16
616.65	1884.95
617.00	1875.28
617.35	1865.18
617.70	1854.09
618.04	1842.93
618.39	1831.13
618.74	1821.12
619.08	1810.22
619.43	1799.80
619.78	1789.85
620.12	1779.54
620.47	1769.85
620.82	1758.88
621.16	1748.36
621.51	1737.80
621.85	1727.67
622.20	1717.28
622.55	1706.82
622.89	1696.23
623.24	1686.13
623.59	1675.09
623.93	1664.10
624.28	1653.87
624.62	1644.04
624.97	1634.36
625.32	1625.21
625.66	1615.87
626.01	1606.28
626.35	1596.95
626.70	1587.56
627.04	1578.26
627.39	1569.05
627.73	1559.49
628.08	1551.06
628.43	1541.45
628.77	1532.21
629.12	1522.38
629.46	1513.80
629.81	1505.17
630.15	1496.20
630.50	1486.70
630.84	1477.56
631.19	1468.75
631.53	1459.77
631.88	1449.86
632.22	1440.24
632.57	1431.04
632.91	1421.97
633.26	1412.91
633.60	1404.02
633.95	1395.56
634.29	1386.30
634.64	1377.65
634.98	1368.51
635.32	1359.80
635.67	1352.06
636.01	1343.61
636.36	1335.12
636.70	1326.71
637.05	1318.08
637.39	1310.05
637.73	1302.56
638.08	1295.34
638.42	1287.53
638.77	1279.49
639.11	1272.05
639.45	1264.14
639.80	1255.90
640.14	1247.62
640.49	1239.40
640.83	1231.59
641.17	1223.19
641.52	1214.99
641.86	1206.45
642.20	1198.41
642.55	1189.78
642.89	1181.16
643.23	1172.72
643.58	1165.12
643.92	1156.30
644.26	1148.17
644.61	1139.98
644.95	1131.44
645.29	1122.91
645.64	1114.57
645.98	1106.54
646.32	1098.77
646.66	1090.93
647.01	1083.08
647.35	1075.47
647.69	1067.56
648.04	1059.65
648.38	1051.93
648.72	1044.18
649.06	1036.50
649.41	1029.09
649.75	1021.50
650.09	1014.17
650.43	1006.80
650.78	998.83
651.12	991.24
651.46	983.73
651.80	976.37
652.14	969.05
652.49	961.70
652.83	954.12
653.17	946.09
653.51	938.40
653.85	931.25
654.20	923.99
654.54	916.64
654.88	909.40
655.22	901.93
655.56	894.48
655.90	887.22
656.25	880.00
656.59	872.72
656.93	865.91
657.27	859.06
657.61	851.81
657.95	845.08
658.29	838.68
658.64	832.30
658.98	825.69
659.32	818.92
659.66	812.30
660.00	805.78
660.34	799.65
660.68	793.08
661.02	786.41
661.36	780.29
661.70	774.05
662.05	768.27
662.39	762.79
662.73	757.17
663.07	751.62
663.41	746.01
663.75	740.60
664.09	734.54
664.43	728.59
664.77	723.27
665.11	717.80
665.45	712.36
665.79	706.77
666.13	701.31
666.47	696.10
666.81	690.78
667.15	685.50
667.49	680.56
667.83	675.80
668.17	671.05
668.51	666.08
668.85	661.30
669.19	656.67
669.53	651.67
669.87	646.97
670.21	642.39
670.55	637.80
670.89	633.41
671.23	629.41
671.57	625.10
671.91	620.69
672.25	616.14
672.58	611.79
672.92	607.70
673.26	603.43
673.60	599.30
673.94	595.18
674.28	591.24
674.62	587.24
674.96	583.11
675.30	579.19
675.64	575.12
675.97	571.29
676.31	567.43
676.65	563.73
676.99	560.20
677.33	556.49
677.67	552.53
678.01	548.57
678.34	544.76
678.68	541.19
679.02	537.45
679.36	534.03
679.70	530.54
680.04	526.80
680.37	523.32
680.71	519.89
681.05	516.72
681.39	513.38
681.73	509.99
682.06	507.01
682.40	503.80
682.74	500.81
683.08	497.60
683.42	494.19
683.75	490.91
684.09	487.44
684.43	484.03
684.77	480.97
685.10	477.83
685.44	474.61
685.78	471.60
686.12	468.91
686.45	465.97
686.79	463.02
687.13	460.31
687.46	457.60
687.80	454.77
688.14	451.66
688.48	448.86
688.81	445.95
689.15	442.99
689.49	440.20
689.82	437.50
690.16	434.61
690.50	431.85
690.83	429.12
691.17	426.36
691.51	423.68
691.84	421.11
692.18	418.60
692.52	416.31
692.85	413.97
693.19	411.51
693.52	409.01
693.86	406.40
694.20	404.01
694.53	401.65
694.87	399.13
695.21	396.86
695.54	394.54
695.88	392.24
696.21	389.92
696.55	387.68
696.88	385.29
697.22	383.09
697.56	381.11
697.89	379.02
698.23	377.09
698.56	375.22
698.90	373.32
699.23	371.28
699.57	369.12
699.90	367.19
700.24	365.09
700.58	363.22
700.91	361.51
701.25	359.87
701.58	357.99
701.92	356.20
702.25	354.40
702.59	352.58
702.92	350.86
703.26	349.17
703.59	347.49
703.93	346.10
704.26	344.49
704.60	342.81
704.93	341.15
705.26	339.30
705.60	337.75
705.93	336.12
706.27	334.76
706.60	333.41
706.94	331.97
707.27	330.38
707.61	328.86
707.94	327.29
708.27	325.51
708.61	323.93
708.94	322.61
709.28	321.21
709.61	319.83
709.94	318.55
710.28	317.16
710.61	315.96
710.95	314.49
711.28	313.49
711.61	312.18
711.95	311.06
712.28	310.03
712.61	308.73
712.95	307.71
713.28	306.57
713.61	305.36
713.95	304.10
714.28	303.14
714.61	302.00
714.95	301.04
715.28	299.95
715.61	298.96
715.95	297.90
716.28	296.78
716.61	295.70
716.95	294.59
717.28	293.68
717.61	292.73
717.94	291.73
718.28	290.48
718.61	289.55
718.94	288.52
719.27	287.60
719.61	286.80
719.94	285.85
720.27	284.79
720.60	283.84
720.94	282.93
721.27	282.05
721.60	281.29
721.93	280.42
722.27	279.79
722.60	279.10
722.93	278.33
723.26	277.63
723.59	276.86
723.93	276.16
724.26	275.35
724.59	274.52
724.92	273.75
725.25	273.23
725.59	272.57
725.92	271.99
726.25	271.24
726.58	270.67
726.91	269.90
727.24	269.33
727.57	268.69
727.91	267.99
728.24	267.44
728.57	266.84
728.90	266.23
729.23	265.46
729.56	264.96
729.89	264.31
730.22	263.67
730.55	263.10
730.89	262.60
731.22	262.08
731.55	261.53
731.88	260.99
732.21	260.32
732.54	259.74
732.87	259.20
733.20	258.75
733.53	258.08
733.86	257.66
734.19	257.09
734.52	256.72
734.85	256.54
735.18	255.92
735.51	255.51
735.84	255.08
736.17	254.70
736.50	253.98
736.83	253.92
737.16	253.49
737.49	253.11
737.82	252.58
738.15	252.14
738.48	251.70
738.81	251.25
739.14	250.79
739.47	250.39
739.80	249.86
740.13	249.45
740.46	248.96
740.79	248.45
741.12	248.02
741.45	247.45
741.78	246.80
742.11	246.53
742.44	246.03
742.77	245.75
743.10	245.36
743.43	245.01
743.75	244.31
744.08	244.39
744.41	243.93
744.74	243.61
745.07	243.18
745.40	242.85
745.73	242.65
746.06	242.31
746.39	241.89
746.71	241.51
747.04	241.08
747.37	240.76
747.70	240.46
748.03	240.14
748.36	239.99
748.68	239.64
749.01	239.26
749.34	238.90
749.67	238.49
750.00	238.15
750.33	238.08
750.65	237.82
750.98	237.09
751.31	236.82
751.64	236.43
751.97	236.37
752.29	235.97
752.62	235.47
752.95	235.24
753.28	234.94
753.60	234.67
753.93	234.45
754.26	234.27
754.59	233.95
754.91	233.70
755.24	233.34
755.57	233.06
755.90	232.75
756.22	232.55
756.55	232.31
756.88	232.04
757.20	231.51
757.53	231.16
757.86	230.90
758.19	230.66
758.51	230.51
758.84	230.11
759.17	229.95
759.49	229.77
759.82	229.56
760.15	229.40
760.47	229.19
760.80	228.89
761.13	228.66
761.45	228.45
761.78	228.20
762.11	227.93
762.43	227.75
762.76	227.58
763.08	227.44
763.41	227.26
763.74	227.13
764.06	226.98
764.39	226.78
764.71	226.56
765.04	226.36
765.37	226.08
765.69	225.86
766.02	225.66
766.34	225.49
766.67	225.23
767.00	225.08
767.32	225.15
767.65	225.23
767.97	225.04
768.30	224.95
768.62	224.89
768.95	224.71
769.27	224.53
769.60	224.37
769.92	224.05
770.25	223.84
770.57	223.58
770.90	223.51
771.22	223.37
771.55	223.28
771.87	223.13
772.20	223.04
772.52	223.22
772.85	223.49
773.17	223.40
773.50	223.31
773.82	223.15
774.15	222.87
774.47	222.57
774.80	222.42
775.12	222.30
775.45	222.13
775.77	222.16
776.09	222.10
776.42	222.02
776.74	222.03
777.07	221.93
777.39	221.89
777.72	221.72
778.04	221.64
778.36	221.55
778.69	221.50
779.01	221.38
779.33	221.00
779.66	220.52
779.98	220.39
780.31	220.30
780.63	220.34
780.95	220.28
781.28	220.14
781.60	220.01
781.92	219.85
782.25	219.70
782.57	219.58
782.89	219.46
783.22	219.35
783.54	219.24
783.86	219.12
784.19	219.04
784.51	218.98
784.83	218.86
785.16	218.80
785.48	218.74
785.80	218.65
786.12	218.62
786.45	218.51
786.77	218.47
787.09	218.33
787.42	218.13
787.74	218.07
788.06	218.08
788.38	218.02
788.71	217.96
789.03	217.89
789.35	217.88
789.67	217.77
789.99	217.74
790.32	217.67
790.64	217.70
790.96	217.82
791.28	217.74
791.61	217.69
791.93	217.58
792.25	217.48
792.57	217.70
792.89	217.55
793.21	217.56
793.54	217.45
793.86	217.37
794.18	217.39
794.50	217.30
794.82	217.26
795.14	217.32
795.47	217.40
795.79	217.40
796.11	217.25
796.43	217.16
796.75	217.09
797.07	217.04
797.39	216.92
797.71	216.71
798.04	216.71
798.36	216.65
798.68	216.62
799.00	216.61
799.32	216.38
799.64	216.46
799.96	216.41
800.28	216.47
800.60	216.46
800.92	216.40
801.24	216.33
801.56	216.25
801.89	216.20
802.21	216.08
802.53	215.97
802.85	216.05
803.17	216.24
803.49	216.19
803.81	216.20
804.13	216.17
804.45	216.04
804.77	216.04
805.09	216.07
805.41	216.00
805.73	215.95
806.05	215.89
806.37	215.82
806.69	215.75
807.01	215.69
807.33	215.63
807.65	215.54
807.97	215.69
808.28	215.74
808.60	215.58
808.92	215.64
809.24	215.84
809.56	215.69
809.88	215.53
810.20	215.50
810.52	215.50
810.84	215.42
811.16	215.45
811.48	215.35
811.80	215.39
812.12	215.38
812.43	215.36
812.75	215.32
813.07	215.20
813.39	215.24
813.71	215.15
814.03	215.14
814.35	215.05
814.67	214.87
814.98	214.76
815.30	214.76
815.62	214.58
815.94	214.29
816.26	214.28
816.58	214.21
816.89	214.27
817.21	214.14
817.53	214.18
817.85	214.17
818.17	214.15
818.48	213.96
818.80	213.99
819.12	213.89
819.44	213.80
819.76	213.81
820.07	213.76
820.39	213.76
820.71	213.78
821.03	213.84
821.34	213.81
821.66	213.84
821.98	213.88
822.30	213.85
822.61	214.06
822.93	214.08
823.25	213.97
823.57	213.83
823.88	213.90
824.20	213.82
824.52	213.83
824.83	213.86
825.15	213.89
825.47	213.88
825.79	213.94
826.10	213.92
826.42	213.90
826.74	213.86
827.05	213.82
827.37	213.87
827.69	213.86
828.00	213.80
828.32	213.85
828.64	213.71
828.95	213.90
829.27	213.82
829.58	213.70
829.90	213.80
830.22	213.91
830.53	213.88
830.85	213.88
831.17	213.76
831.48	213.67
831.80	213.68
832.11	213.63
832.43	213.56
832.75	213.56
833.06	213.72
833.38	213.67
833.69	213.67
834.01	213.56
834.32	213.49
834.64	213.46
834.96	213.40
835.27	213.42
835.59	213.32
835.90	213.26
836.22	213.27
836.53	213.20
836.85	213.05
837.16	213.32
837.48	213.36
837.79	213.48
838.11	213.55
838.42	213.56
838.74	213.58
839.05	213.52
839.37	213.50
839.68	213.25
840.00	213.19
840.31	213.17
840.63	213.15
840.94	213.09
841.26	213.05
841.57	213.07
841.88	213.10
842.20	213.01
842.51	212.91
842.83	212.96
843.14	213.25
843.46	213.29
843.77	213.07
844.08	212.97
844.40	212.82
844.71	212.78
845.03	212.68
845.34	212.65
845.65	212.60
845.97	212.67
846.28	212.75
846.60	212.76
846.91	212.72
847.22	212.69
847.54	212.76
847.85	212.79
848.16	212.70
848.48	212.67
848.79	212.79
849.10	212.85
849.42	212.89
849.73	212.59
850.04	212.61
850.36	212.58
850.67	212.64
850.98	212.61
851.30	212.60
851.61	212.55
851.92	212.54
852.23	212.72
852.55	212.68
852.86	212.66
853.17	212.74
853.49	212.85
853.80	212.95
854.11	212.88
854.42	212.90
854.74	212.83
855.05	212.81
855.36	212.65
855.67	212.64
855.99	212.64
856.30	213.00
856.61	212.99
856.92	212.97
857.23	212.90
857.55	212.95
857.86	212.95
858.17	213.05
858.48	212.97
858.79	212.87
859.11	212.94
859.42	212.86
859.73	212.78
860.04	212.75
860.35	212.63
860.66	212.69
860.98	212.70
861.29	212.71
861.60	212.68
861.91	212.71
862.22	212.65
862.53	212.50
862.84	212.12
863.16	212.11
863.47	212.00
863.78	212.09
864.09	212.08
864.40	212.12
864.71	212.15
865.02	212.23
865.33	212.21
865.64	212.06
865.95	212.15
866.27	212.40
866.58	212.35
866.89	212.40
867.20	212.34
867.51	212.26
867.82	212.30
868.13	212.50
868.44	212.49
868.75	212.64
869.06	212.72
869.37	212.71
869.68	212.65
869.99	212.74
870.30	212.74
870.61	212.81
870.92	212.75
871.23	212.71
871.54	212.79
871.85	212.85
872.16	212.94
872.47	212.86
872.78	212.66
873.09	212.67
873.40	212.60
873.71	212.62
874.02	212.66
874.33	212.67
874.64	212.56
874.95	212.59
875.26	212.52
875.56	212.51
875.87	212.48
876.18	212.45
876.49	212.74
876.80	212.69
877.11	212.58
877.42	212.59
877.73	212.63
878.04	212.54
878.35	212.55
878.66	212.53
878.96	212.45
879.27	212.41
879.58	212.39
879.89	212.42
880.20	212.54
880.51	212.46
880.82	212.42
881.12	212.34
881.43	212.26
881.74	212.15
882.05	212.12
882.36	212.15
882.67	212.16
882.97	211.87
883.28	211.86
883.59	211.82
883.90	211.77
884.21	211.72
884.51	211.65
884.82	211.54
885.13	211.51
885.44	211.56
885.74	211.54
886.05	211.54
886.36	211.50
886.67	211.31
886.98	211.46
887.28	211.46
887.59	211.44
887.90	211.45
888.20	211.46
888.51	211.53
888.82	211.51
889.13	211.53
889.43	211.74
889.74	211.71
890.05	211.73
890.35	211.67
890.66	211.58
890.97	211.56
891.28	211.55
891.58	211.55
891.89	211.52
892.20	211.50
892.50	211.44
892.81	211.36
893.12	211.40
893.42	211.30
893.73	211.31
894.04	211.34
894.34	211.41
894.65	211.38
894.95	211.28
895.26	211.25
895.57	211.41
895.87	211.14
896.18	211.16
896.48	211.16
896.79	211.21
897.10	211.33
897.40	211.37
897.71	211.42
898.01	211.38
898.32	211.47
898.63	211.51
898.93	211.54
899.24	211.60
899.54	211.57
899.85	211.55
900.15	211.55
900.46	211.57
900.76	211.56
901.07	211.56
901.38	211.62
901.68	211.77
901.99	211.58
902.29	211.50
902.60	211.56
902.90	211.58
903.21	211.65
903.51	211.53
903.82	211.60
904.12	211.58
904.43	211.70
904.73	211.64
905.03	211.68
905.34	212.01
905.64	211.98
905.95	211.99
906.25	211.95
906.56	211.93
906.86	211.96
907.17	211.95
907.47	211.99
907.77	211.95
908.08	211.80
908.38	211.85
908.69	211.97
908.99	212.04
909.30	212.02
909.60	211.91
909.90	211.95
910.21	211.85
910.51	211.82
910.81	211.79
911.12	211.84
911.42	211.77
911.73	211.40
912.03	211.46
912.33	211.59
912.64	211.61
912.94	211.55
913.24	211.46
913.55	211.44
913.85	211.48
914.15	211.50
914.46	211.56
914.76	211.56
915.06	211.51
915.37	211.38
915.67	211.35
915.97	211.39
916.27	211.34
916.58	211.37
916.88	211.35
917.18	211.32
917.49	211.56
917.79	211.52
918.09	211.63
918.39	211.64
918.70	211.65
919.00	211.61
919.30	211.86
919.60	211.78
919.91	211.78
920.21	211.75
920.51	211.77
920.81	211.72
921.12	211.75
921.42	211.72
921.72	211.79
922.02	211.86
922.32	211.91
922.63	212.01
922.93	212.14
923.23	212.16
923.53	212.10
923.83	211.82
924.13	211.93
924.44	211.95
924.74	212.07
925.04	212.10
925.34	212.10
925.64	211.92
925.94	211.92
926.24	212.06
926.55	212.03
926.85	212.00
927.15	212.08
927.45	212.04
927.75	212.05
928.05	211.99
928.35	211.95
928.65	212.03
928.95	211.96
929.26	211.91
929.56	211.95
929.86	212.06
930.16	212.04
930.46	211.96
930.76	211.91
931.06	211.79
931.36	211.64
931.66	211.74
931.96	211.68
932.26	211.78
932.56	211.56
932.86	211.53
933.16	211.56
933.46	211.49
933.76	211.42
934.06	211.52
934.36	211.68
934.66	211.65
934.96	211.59
935.26	211.66
935.56	211.64
935.86	211.49
936.16	211.38
936.46	211.42
936.76	211.41
937.06	211.34
937.36	211.35
937.66	211.35
937.96	211.32
938.26	211.35
938.56	211.34
938.86	211.44
939.16	211.58
939.46	211.61
939.76	211.56
940.06	211.57
940.35	211.44
940.65	211.26
940.95	211.26
941.25	211.13
941.55	210.99
941.85	210.96
942.15	211.10
942.45	211.22
942.75	211.19
943.04	211.19
943.34	211.29
943.64	211.23
943.94	211.20
944.24	211.18
944.54	211.19
944.84	211.18
945.13	211.17
945.43	211.03
945.73	210.96
946.03	211.01
946.33	210.99
946.62	210.99
946.92	210.93
947.22	210.98
947.52	211.02
947.82	211.11
948.11	211.00
948.41	210.95
948.71	210.84
949.01	210.80
949.31	210.76
949.60	210.70
949.90	210.74
950.20	210.70
950.50	210.74
950.79	210.59
951.09	210.66
951.39	210.62
951.69	210.60
951.98	210.66
952.28	210.68
952.58	210.74
952.87	210.70
953.17	210.78
953.47	210.72
953.76	210.70
954.06	210.67
954.36	210.69
954.66	210.73
954.95	210.81
955.25	210.84
955.55	210.85
955.84	210.80
956.14	210.86
956.44	210.93
956.73	210.84
957.03	210.91
957.32	210.86
957.62	210.87
957.92	210.97
958.21	210.91
958.51	211.32
958.81	211.33
959.10	211.47
959.40	211.42
959.69	211.47
959.99	211.55
960.29	211.59
960.58	211.64
960.88	211.65
961.17	211.62
961.47	211.63
961.76	211.60
962.06	211.65
962.36	211.56
962.65	211.57
962.95	211.59
963.24	211.60
963.54	211.60
963.83	211.58
964.13	211.51
964.42	211.45
964.72	211.10
965.01	211.11
965.31	210.95
965.60	210.95
965.90	211.12
966.19	211.02
966.49	211.03
966.78	210.95
967.08	210.95
967.37	210.94
967.67	210.92
967.96	211.01
968.26	210.99
968.55	211.10
968.85	211.12
969.14	211.11
969.43	211.14
969.73	211.09
970.02	211.08
970.32	211.12
970.61	211.14
970.91	211.04
971.20	211.00
971.49	211.05
971.79	211.01
972.08	210.77
972.38	210.84
972.67	210.83
972.96	210.93
973.26	210.87
973.55	210.95
973.85	210.89
974.14	210.86
974.43	210.88
974.73	210.78
975.02	210.72
975.31	210.70
975.61	210.70
975.90	210.68
976.19	210.66
976.49	210.70
976.78	210.74
977.07	210.78
977.37	210.72
977.66	210.80
977.95	210.79
978.24	210.84
978.54	210.86
978.83	210.76
979.12	210.72
979.42	210.68
979.71	210.66
980.00	210.67
980.29	210.68
980.59	210.60
980.88	210.67
981.17	210.63
981.46	210.69
981.76	210.68
982.05	210.82
982.34	210.85
982.63	210.79
982.93	210.75
983.22	210.82
983.51	210.85
983.80	210.88
984.09	210.98
984.39	210.99
984.68	210.98
984.97	211.06
985.26	211.06
985.55	211.10
985.85	211.01
986.14	211.12
986.43	211.19
986.72	211.20
987.01	211.06
987.30	211.11
987.59	211.02
987.89	211.12
988.18	211.05
988.47	210.98
988.76	210.92
989.05	210.95
989.34	210.93
989.63	211.07
989.92	210.94
990.22	210.86
990.51	210.82
990.80	210.73
991.09	210.69
991.38	210.75
991.67	210.75
991.96	210.74
992.25	210.71
992.54	210.66
992.83	210.65
993.12	210.73
993.41	210.78
993.70	210.95
993.99	210.92
994.28	210.97
994.58	211.10
994.87	211.14
995.16	211.11
995.45	211.04
995.74	210.97
996.03	211.05
996.32	211.19
996.61	211.25
996.90	211.30
997.19	211.36
997.48	211.31
997.77	211.32
998.06	211.38
998.34	211.37
998.63	211.34
998.92	211.36
999.21	211.40
999.50	211.39
999.79	211.27
1000.08	211.28
1000.37	211.26
1000.66	211.12
1000.95	211.17
1001.24	211.15
1001.53	211.14
1001.82	211.02
1002.11	211.00
1002.40	211.00
1002.68	211.15
1002.97	211.33
1003.26	211.22
1003.55	211.17
1003.84	211.20
1004.13	211.30
1004.42	211.33
1004.71	211.29
1004.99	211.28
1005.28	211.36
1005.57	211.34
1005.86	211.27
1006.15	211.16
1006.44	211.14
1006.72	211.24
1007.01	211.16
1007.30	211.23
1007.59	211.22
1007.88	211.26
1008.17	211.30
1008.45	211.17
1008.74	211.02
1009.03	210.96
1009.32	211.00
1009.60	210.98
1009.89	210.87
1010.18	210.73
1010.47	210.71
1010.76	210.78
1011.04	210.79
1011.33	210.83
1011.62	210.85
1011.91	210.96
1012.19	211.04
1012.48	210.97
1012.77	211.01
1013.05	211.18
1013.34	211.17
1013.63	211.20
1013.92	211.23
1014.20	211.17
1014.49	211.25
1014.78	211.21
1015.06	211.06
1015.35	211.08
1015.64	211.15
1015.92	211.22
1016.21	211.25
1016.50	211.30
1016.78	211.31
1017.07	211.30
1017.36	211.19
1017.64	211.14
1017.93	211.13
1018.22	211.12
1018.50	211.15
1018.79	211.15
1019.08	211.05
1019.36	211.04
1019.65	211.04
1019.93	211.13
1020.22	211.22
1020.51	211.32
1020.79	211.32
1021.08	210.80
1021.36	210.45
1021.65	211.75
1021.94	211.65
1022.22	211.20
1022.51	210.80
1022.79	213.05
1023.08	212.50
1023.36	214.15
1023.65	210.40
>>>>>End Processed Spectral Data<<<<<
