SpectraSuite Data File
++++++++++++++++++++++++++++++++++++
Date: Mon Feb 25 17:15:49 EST 2013
User: group
Dark Spectrum Present: No
Reference Spectrum Present: No
Number of Sampled Component Spectra: 1
Spectrometers: USB2E7196
Integration Time (usec): 104000 (USB2E7196)
Spectra Averaged: 20 (USB2E7196)
Boxcar Smoothing: 10 (USB2E7196)
Correct for Electrical Dark: No (USB2E7196)
Strobe/Lamp Enabled: No (USB2E7196)
Correct for Detector Non-linearity: No (USB2E7196)
Correct for Stray Light: No (USB2E7196)
Number of Pixels in Processed Spectrum: 2048
>>>>>Begin Processed Spectral Data<<<<<
339.09	0.00
339.48	198.35
339.86	198.90
340.24	200.90
340.63	203.55
341.01	209.65
341.39	205.80
341.78	207.80
342.16	209.60
342.54	208.00
342.93	198.03
343.31	208.07
343.69	208.63
344.07	209.08
344.46	209.54
344.84	209.86
345.22	209.89
345.60	210.16
345.99	210.30
346.37	210.37
346.75	210.49
347.13	210.55
347.52	210.62
347.90	210.73
348.28	210.73
348.66	210.83
349.05	210.74
349.43	210.83
349.81	210.90
350.19	210.98
350.57	211.16
350.96	211.28
351.34	211.35
351.72	211.40
352.10	211.60
352.48	211.60
352.87	211.68
353.25	211.75
353.63	211.76
354.01	211.80
354.39	211.85
354.77	211.97
355.15	212.13
355.54	212.13
355.92	212.13
356.30	212.22
356.68	212.56
357.06	212.65
357.44	212.66
357.82	212.73
358.20	212.79
358.58	212.78
358.97	212.89
359.35	212.95
359.73	213.12
360.11	213.18
360.49	213.30
360.87	213.38
361.25	213.49
361.63	213.63
362.01	213.67
362.39	213.70
362.77	213.76
363.15	213.80
363.53	213.82
363.91	213.86
364.29	213.95
364.67	213.57
365.05	213.60
365.43	213.68
365.81	213.78
366.19	213.98
366.57	214.15
366.95	214.13
367.33	214.10
367.71	214.02
368.09	214.05
368.47	214.09
368.85	214.05
369.23	214.10
369.61	214.02
369.99	214.20
370.37	214.27
370.75	214.35
371.13	214.24
371.51	214.20
371.89	214.16
372.27	214.17
372.65	214.17
373.03	214.19
373.41	214.10
373.78	213.99
374.16	213.80
374.54	213.62
374.92	213.55
375.30	213.56
375.68	213.54
376.06	213.54
376.44	213.50
376.82	213.49
377.19	213.43
377.57	213.33
377.95	213.18
378.33	213.09
378.71	212.87
379.09	212.87
379.47	212.86
379.84	212.73
380.22	212.61
380.60	212.53
380.98	212.41
381.36	212.36
381.73	212.29
382.11	212.28
382.49	212.30
382.87	212.31
383.25	212.28
383.62	212.61
384.00	212.52
384.38	212.41
384.76	212.44
385.13	212.54
385.51	212.57
385.89	212.47
386.27	212.42
386.64	212.44
387.02	212.37
387.40	212.33
387.78	212.40
388.15	212.40
388.53	212.32
388.91	212.36
389.29	212.36
389.66	212.39
390.04	212.28
390.42	212.30
390.79	212.20
391.17	212.15
391.55	211.76
391.92	211.65
392.30	211.67
392.68	211.53
393.05	211.54
393.43	211.57
393.81	211.57
394.18	211.54
394.56	211.53
394.94	211.64
395.31	211.66
395.69	211.76
396.06	211.76
396.44	211.84
396.82	211.83
397.19	211.97
397.57	211.98
397.95	212.11
398.32	212.03
398.70	212.06
399.07	212.11
399.45	212.07
399.82	212.09
400.20	212.07
400.58	212.13
400.95	211.99
401.33	211.98
401.70	212.31
402.08	212.37
402.45	212.45
402.83	212.54
403.20	212.51
403.58	212.55
403.95	212.71
404.33	212.87
404.71	212.93
405.08	213.20
405.46	213.34
405.83	213.48
406.21	213.49
406.58	213.65
406.96	213.77
407.33	214.00
407.70	214.28
408.08	214.79
408.45	215.00
408.83	215.26
409.20	215.50
409.58	215.46
409.95	215.82
410.33	216.09
410.70	216.25
411.08	216.65
411.45	216.90
411.82	217.22
412.20	217.62
412.57	218.30
412.95	218.41
413.32	218.84
413.69	219.16
414.07	219.78
414.44	220.31
414.82	220.92
415.19	221.66
415.56	222.27
415.94	222.81
416.31	223.71
416.68	224.53
417.06	225.44
417.43	226.41
417.81	227.35
418.18	228.48
418.55	229.66
418.93	230.90
419.30	232.15
419.67	233.38
420.04	234.68
420.42	235.88
420.79	237.70
421.16	239.28
421.54	241.10
421.91	242.82
422.28	244.64
422.66	246.50
423.03	248.41
423.40	250.43
423.77	252.46
424.15	254.50
424.52	256.72
424.89	259.11
425.26	261.36
425.64	263.53
426.01	265.73
426.38	268.13
426.75	270.73
427.13	273.28
427.50	276.07
427.87	278.82
428.24	281.71
428.61	284.20
428.99	287.35
429.36	290.54
429.73	293.80
430.10	296.98
430.47	300.24
430.85	303.49
431.22	307.00
431.59	310.85
431.96	314.37
432.33	318.21
432.70	322.03
433.08	326.50
433.45	330.68
433.82	335.03
434.19	339.77
434.56	344.21
434.93	348.55
435.30	352.90
435.68	357.84
436.05	362.56
436.42	367.24
436.79	371.43
437.16	376.09
437.53	381.04
437.90	385.90
438.27	390.75
438.64	395.65
439.01	400.22
439.38	404.24
439.75	408.24
440.13	412.73
440.50	416.99
440.87	420.51
441.24	424.18
441.61	428.07
441.98	430.98
442.35	434.28
442.72	437.70
443.09	441.06
443.46	442.89
443.83	444.12
444.20	445.31
444.57	446.92
444.94	447.56
445.31	448.28
445.68	449.29
446.05	449.52
446.42	449.10
446.79	448.49
447.16	447.66
447.53	447.10
447.90	445.16
448.27	443.16
448.64	440.49
449.01	438.55
449.37	435.26
449.74	431.99
450.11	428.41
450.48	424.29
450.85	419.94
451.22	416.42
451.59	413.07
451.96	409.67
452.33	405.46
452.70	401.50
453.07	396.66
453.43	391.57
453.80	386.91
454.17	382.41
454.54	378.21
454.91	373.80
455.28	369.51
455.65	365.48
456.02	361.95
456.38	358.50
456.75	354.22
457.12	350.56
457.49	347.11
457.86	343.50
458.23	340.70
458.59	337.52
458.96	334.26
459.33	331.39
459.70	328.59
460.07	326.21
460.43	323.64
460.80	321.34
461.17	319.26
461.54	317.00
461.91	314.88
462.27	312.70
462.64	310.83
463.01	308.77
463.38	307.03
463.74	304.45
464.11	302.70
464.48	301.25
464.85	299.64
465.21	298.45
465.58	297.17
465.95	295.52
466.32	294.20
466.68	292.85
467.05	291.53
467.42	290.31
467.78	288.96
468.15	287.73
468.52	286.80
468.88	285.52
469.25	284.52
469.62	283.75
469.98	282.84
470.35	282.11
470.72	281.35
471.08	280.29
471.45	279.79
471.82	279.09
472.18	278.30
472.55	277.92
472.92	277.21
473.28	276.75
473.65	276.23
474.02	275.79
474.38	275.54
474.75	275.25
475.11	274.89
475.48	274.80
475.85	274.72
476.21	274.51
476.58	274.45
476.94	274.33
477.31	274.19
477.67	274.17
478.04	274.11
478.41	274.18
478.77	274.73
479.14	274.73
479.50	275.09
479.87	275.42
480.23	275.68
480.60	275.97
480.96	276.28
481.33	276.82
481.69	277.22
482.06	277.63
482.42	278.22
482.79	278.80
483.15	279.46
483.52	280.14
483.88	280.92
484.25	281.66
484.61	282.58
484.98	283.46
485.34	284.66
485.71	285.82
486.07	287.05
486.44	288.04
486.80	289.46
487.17	290.80
487.53	292.40
487.90	294.10
488.26	295.96
488.62	297.95
488.99	299.84
489.35	301.91
489.72	304.11
490.08	306.33
490.44	308.75
490.81	311.17
491.17	313.74
491.54	316.55
491.90	319.59
492.26	322.58
492.63	325.87
492.99	329.03
493.36	332.49
493.72	336.28
494.08	340.13
494.45	344.17
494.81	348.53
495.17	352.82
495.54	357.33
495.90	361.95
496.26	366.77
496.63	371.97
496.99	377.33
497.35	382.83
497.72	388.64
498.08	394.60
498.44	400.82
498.80	407.48
499.17	414.26
499.53	421.14
499.89	428.59
500.26	435.98
500.62	443.75
500.98	451.96
501.34	460.23
501.71	468.92
502.07	477.90
502.43	486.79
502.79	496.17
503.16	505.83
503.52	515.95
503.88	526.19
504.24	536.75
504.60	547.54
504.97	558.87
505.33	570.26
505.69	582.31
506.05	594.59
506.41	606.89
506.78	619.36
507.14	632.37
507.50	645.42
507.86	659.03
508.22	672.84
508.59	686.81
508.95	701.34
509.31	715.78
509.67	730.68
510.03	746.06
510.39	761.69
510.75	777.47
511.12	793.58
511.48	809.93
511.84	826.65
512.20	843.41
512.56	860.71
512.92	878.29
513.28	895.85
513.64	913.50
514.00	931.30
514.37	949.60
514.73	968.03
515.09	986.70
515.45	1005.42
515.81	1024.30
516.17	1043.41
516.53	1062.23
516.89	1081.42
517.25	1100.81
517.61	1120.00
517.97	1139.58
518.33	1158.89
518.69	1178.51
519.05	1198.41
519.41	1218.10
519.77	1238.43
520.13	1257.75
520.49	1277.34
520.85	1297.14
521.21	1317.17
521.57	1337.65
521.93	1357.30
522.29	1377.75
522.65	1398.04
523.01	1417.86
523.37	1437.28
523.73	1456.94
524.09	1476.86
524.45	1496.92
524.81	1516.39
525.17	1536.60
525.53	1556.11
525.89	1576.09
526.25	1595.40
526.61	1614.18
526.97	1633.14
527.33	1651.97
527.68	1671.56
528.04	1689.88
528.40	1707.76
528.76	1725.79
529.12	1744.01
529.48	1762.81
529.84	1780.42
530.20	1798.09
530.56	1815.94
530.91	1834.51
531.27	1852.43
531.63	1869.57
531.99	1886.50
532.35	1903.31
532.71	1919.66
533.07	1936.59
533.42	1952.73
533.78	1969.07
534.14	1985.05
534.50	1999.72
534.86	2015.08
535.21	2029.16
535.57	2044.65
535.93	2059.59
536.29	2074.15
536.65	2088.28
537.00	2101.32
537.36	2114.60
537.72	2127.38
538.08	2140.22
538.44	2152.47
538.79	2164.93
539.15	2177.37
539.51	2189.74
539.87	2202.15
540.22	2213.52
540.58	2225.25
540.94	2236.40
541.29	2246.64
541.65	2256.49
542.01	2267.06
542.37	2276.88
542.72	2287.12
543.08	2296.00
543.44	2305.77
543.79	2314.14
544.15	2321.65
544.51	2330.31
544.87	2338.51
545.22	2346.04
545.58	2353.06
545.94	2359.45
546.29	2364.92
546.65	2370.19
547.01	2375.25
547.36	2380.48
547.72	2385.69
548.07	2389.23
548.43	2392.86
548.79	2396.42
549.14	2400.06
549.50	2403.88
549.86	2406.54
550.21	2408.67
550.57	2411.72
550.92	2413.06
551.28	2414.84
551.64	2417.16
551.99	2419.11
552.35	2420.15
552.70	2421.59
553.06	2422.46
553.41	2423.67
553.77	2424.74
554.13	2425.47
554.48	2426.22
554.84	2426.46
555.19	2426.09
555.55	2425.78
555.90	2425.10
556.26	2424.46
556.61	2423.68
556.97	2421.91
557.32	2420.92
557.68	2419.31
558.03	2416.81
558.39	2415.24
558.74	2414.15
559.10	2412.87
559.45	2410.38
559.81	2408.78
560.16	2405.95
560.52	2404.04
560.87	2401.03
561.23	2398.07
561.58	2395.81
561.94	2392.18
562.29	2388.34
562.64	2385.60
563.00	2383.16
563.35	2380.84
563.71	2378.90
564.06	2376.04
564.42	2373.64
564.77	2370.98
565.12	2368.76
565.48	2366.57
565.83	2364.09
566.19	2361.17
566.54	2356.95
566.89	2353.00
567.25	2349.34
567.60	2346.13
567.96	2342.37
568.31	2339.06
568.66	2334.83
569.02	2329.63
569.37	2324.84
569.72	2320.77
570.08	2315.77
570.43	2310.08
570.78	2304.57
571.14	2298.09
571.49	2292.62
571.84	2287.56
572.20	2281.18
572.55	2275.25
572.90	2268.76
573.26	2261.75
573.61	2254.77
573.96	2248.38
574.31	2241.27
574.67	2233.63
575.02	2226.03
575.37	2218.19
575.72	2210.17
576.08	2203.41
576.43	2196.49
576.78	2189.74
577.13	2182.75
577.49	2175.70
577.84	2168.67
578.19	2162.07
578.54	2155.78
578.90	2149.41
579.25	2141.81
579.60	2134.43
579.95	2126.53
580.30	2119.42
580.66	2112.64
581.01	2105.36
581.36	2097.50
581.71	2090.41
582.06	2083.49
582.42	2076.51
582.77	2068.97
583.12	2061.74
583.47	2054.48
583.82	2047.75
584.17	2040.50
584.53	2033.38
584.88	2026.18
585.23	2019.09
585.58	2011.39
585.93	2003.91
586.28	1996.45
586.63	1989.15
586.98	1982.11
587.34	1975.66
587.69	1968.37
588.04	1961.02
588.39	1953.90
588.74	1946.46
589.09	1939.70
589.44	1931.99
589.79	1925.36
590.14	1919.06
590.49	1912.20
590.84	1905.37
591.19	1898.98
591.54	1892.05
591.89	1883.87
592.25	1876.34
592.60	1868.55
592.95	1861.24
593.30	1852.83
593.65	1844.94
594.00	1837.25
594.35	1831.06
594.70	1823.27
595.05	1816.13
595.40	1809.05
595.75	1801.41
596.10	1794.82
596.45	1787.82
596.80	1781.77
597.15	1774.80
597.50	1767.59
597.85	1760.81
598.19	1753.47
598.54	1746.13
598.89	1739.49
599.24	1733.87
599.59	1727.79
599.94	1722.08
600.29	1715.83
600.64	1710.28
600.99	1703.36
601.34	1697.54
601.69	1689.86
602.04	1683.27
602.39	1676.76
602.74	1670.08
603.08	1664.54
603.43	1658.94
603.78	1652.65
604.13	1646.42
604.48	1639.75
604.83	1634.36
605.18	1628.84
605.53	1622.69
605.87	1616.14
606.22	1610.35
606.57	1603.74
606.92	1596.99
607.27	1590.24
607.62	1583.63
607.96	1577.42
608.31	1571.88
608.66	1564.68
609.01	1558.21
609.36	1551.41
609.70	1544.20
610.05	1537.27
610.40	1530.05
610.75	1522.40
611.10	1515.89
611.44	1507.64
611.79	1500.25
612.14	1492.03
612.49	1483.65
612.83	1476.34
613.18	1468.55
613.53	1460.48
613.88	1452.26
614.22	1444.97
614.57	1437.27
614.92	1429.89
615.27	1421.95
615.61	1414.10
615.96	1406.96
616.31	1399.83
616.65	1393.27
617.00	1386.54
617.35	1379.58
617.70	1372.04
618.04	1364.50
618.39	1356.26
618.74	1349.30
619.08	1342.14
619.43	1334.88
619.78	1328.19
620.12	1320.83
620.47	1313.86
620.82	1306.24
621.16	1298.90
621.51	1291.16
621.85	1284.10
622.20	1276.33
622.55	1268.99
622.89	1261.51
623.24	1254.25
623.59	1246.66
623.93	1239.06
624.28	1231.80
624.62	1224.85
624.97	1218.00
625.32	1211.11
625.66	1204.70
626.01	1197.94
626.35	1191.34
626.70	1184.55
627.04	1177.74
627.39	1171.14
627.73	1164.50
628.08	1158.41
628.43	1151.84
628.77	1145.48
629.12	1138.73
629.46	1132.66
629.81	1126.30
630.15	1119.88
630.50	1113.27
630.84	1106.64
631.19	1100.22
631.53	1093.89
631.88	1086.72
632.22	1080.08
632.57	1074.03
632.91	1067.48
633.26	1060.90
633.60	1054.34
633.95	1048.37
634.29	1042.01
634.64	1035.95
634.98	1029.50
635.32	1023.27
635.67	1017.61
636.01	1011.80
636.36	1005.63
636.70	999.67
637.05	993.69
637.39	988.12
637.73	982.90
638.08	978.00
638.42	972.72
638.77	967.17
639.11	961.77
639.45	956.21
639.80	950.24
640.14	944.15
640.49	938.46
640.83	932.71
641.17	926.80
641.52	921.14
641.86	915.19
642.20	909.87
642.55	903.93
642.89	898.02
643.23	892.10
643.58	886.83
643.92	881.02
644.26	875.63
644.61	869.87
644.95	863.89
645.29	857.71
645.64	851.75
645.98	845.99
646.32	840.53
646.66	834.77
647.01	829.42
647.35	824.29
647.69	818.79
648.04	813.59
648.38	808.19
648.72	802.72
649.06	797.40
649.41	791.85
649.75	786.64
650.09	781.34
650.43	775.89
650.78	770.33
651.12	764.87
651.46	759.52
651.80	754.43
652.14	749.33
652.49	744.31
652.83	739.14
653.17	733.63
653.51	728.45
653.85	723.47
654.20	718.40
654.54	713.39
654.88	708.48
655.22	703.16
655.56	697.97
655.90	693.09
656.25	688.09
656.59	683.26
656.93	678.33
657.27	673.80
657.61	668.88
657.95	664.32
658.29	659.87
658.64	655.32
658.98	650.63
659.32	645.79
659.66	641.18
660.00	636.38
660.34	631.84
660.68	627.13
661.02	622.65
661.36	618.27
661.70	613.91
662.05	609.74
662.39	605.85
662.73	601.93
663.07	597.86
663.41	593.90
663.75	589.75
664.09	585.68
664.43	581.30
664.77	577.60
665.11	573.67
665.45	569.80
665.79	565.90
666.13	562.12
666.47	558.37
666.81	554.66
667.15	551.20
667.49	548.00
667.83	544.84
668.17	541.44
668.51	538.10
668.85	534.71
669.19	531.51
669.53	528.01
669.87	524.62
670.21	521.32
670.55	518.07
670.89	515.29
671.23	512.38
671.57	509.56
671.91	506.46
672.25	503.31
672.58	500.26
672.92	497.25
673.26	494.39
673.60	491.61
673.94	488.75
674.28	485.87
674.62	483.00
674.96	480.06
675.30	477.21
675.64	474.39
675.97	471.78
676.31	469.02
676.65	466.53
676.99	464.20
677.33	461.60
677.67	458.88
678.01	455.92
678.34	453.39
678.68	450.72
679.02	448.10
679.36	445.55
679.70	443.10
680.04	440.65
680.37	437.95
680.71	435.47
681.05	433.09
681.39	430.75
681.73	428.38
682.06	426.15
682.40	423.97
682.74	421.68
683.08	419.43
683.42	417.14
683.75	414.71
684.09	412.21
684.43	409.85
684.77	407.70
685.10	405.46
685.44	403.10
685.78	400.91
686.12	398.93
686.45	396.88
686.79	394.80
687.13	392.82
687.46	390.97
687.80	389.00
688.14	386.86
688.48	384.87
688.81	382.79
689.15	380.75
689.49	378.71
689.82	376.73
690.16	374.53
690.50	372.50
690.83	370.67
691.17	368.77
691.51	366.92
691.84	365.10
692.18	363.40
692.52	361.74
692.85	360.06
693.19	358.36
693.52	356.69
693.86	354.92
694.20	353.24
694.53	351.60
694.87	349.91
695.21	348.35
695.54	346.64
695.88	344.98
696.21	343.33
696.55	341.82
696.88	340.23
697.22	338.76
697.56	337.28
697.89	335.73
698.23	334.27
698.56	332.88
698.90	331.43
699.23	329.85
699.57	328.30
699.90	326.87
700.24	325.40
700.58	323.93
700.91	322.57
701.25	321.29
701.58	320.01
701.92	318.63
702.25	317.37
702.59	316.07
702.92	314.80
703.26	313.52
703.59	312.23
703.93	311.24
704.26	310.03
704.60	308.87
704.93	307.68
705.26	306.48
705.60	305.35
705.93	304.15
706.27	303.24
706.60	302.25
706.94	301.29
707.27	300.07
707.61	298.98
707.94	297.93
708.27	296.68
708.61	295.43
708.94	294.43
709.28	293.43
709.61	292.46
709.94	291.58
710.28	290.66
710.61	289.76
710.95	288.61
711.28	287.94
711.61	287.03
711.95	286.23
712.28	285.34
712.61	284.43
712.95	283.77
713.28	283.03
713.61	282.16
713.95	281.26
714.28	280.68
714.61	279.90
714.95	279.05
715.28	278.27
715.61	277.56
715.95	276.88
716.28	275.99
716.61	275.28
716.95	274.44
717.28	273.76
717.61	272.99
717.94	272.25
718.28	271.28
718.61	270.54
718.94	269.79
719.27	269.15
719.61	268.53
719.94	267.81
720.27	267.02
720.60	266.36
720.94	265.75
721.27	265.07
721.60	264.53
721.93	263.93
722.27	263.49
722.60	262.92
722.93	262.34
723.26	261.94
723.59	261.32
723.93	260.90
724.26	260.38
724.59	259.86
724.92	259.41
725.25	259.00
725.59	258.51
725.92	258.00
726.25	257.49
726.58	256.99
726.91	256.49
727.24	256.02
727.57	255.59
727.91	255.03
728.24	254.57
728.57	254.01
728.90	253.65
729.23	253.11
729.56	252.90
729.89	252.46
730.22	251.98
730.55	251.51
730.89	251.12
731.22	250.68
731.55	250.26
731.88	249.84
732.21	249.34
732.54	248.79
732.87	248.48
733.20	248.05
733.53	247.63
733.86	247.23
734.19	246.77
734.52	246.49
734.85	246.37
735.18	245.91
735.51	245.70
735.84	245.31
736.17	244.99
736.50	244.44
736.83	244.41
737.16	244.01
737.49	243.75
737.82	243.31
738.15	243.01
738.48	242.73
738.81	242.40
739.14	242.01
739.47	241.75
739.80	241.30
740.13	241.06
740.46	240.70
740.79	240.43
741.12	240.15
741.45	239.64
741.78	239.16
742.11	238.97
742.44	238.55
742.77	238.25
743.10	237.96
743.43	237.61
743.75	236.98
744.08	237.10
744.41	236.78
744.74	236.47
745.07	236.13
745.40	235.86
745.73	235.68
746.06	235.38
746.39	235.19
746.71	234.97
747.04	234.67
747.37	234.44
747.70	234.16
748.03	233.87
748.36	233.75
748.68	233.41
749.01	233.15
749.34	232.90
749.67	232.71
750.00	232.47
750.33	232.47
750.65	232.28
750.98	231.64
751.31	231.39
751.64	231.17
751.97	231.08
752.29	230.78
752.62	230.33
752.95	230.14
753.28	229.85
753.60	229.61
753.93	229.42
754.26	229.15
754.59	228.85
754.91	228.60
755.24	228.43
755.57	228.27
755.90	227.99
756.22	227.83
756.55	227.55
756.88	227.34
757.20	226.97
757.53	226.61
757.86	226.45
758.19	226.22
758.51	226.12
758.84	225.82
759.17	225.65
759.49	225.62
759.82	225.58
760.15	225.45
760.47	225.28
760.80	225.06
761.13	225.01
761.45	224.84
761.78	224.71
762.11	224.41
762.43	224.18
762.76	224.05
763.08	223.94
763.41	223.85
763.74	223.63
764.06	223.45
764.39	223.41
764.71	223.28
765.04	223.09
765.37	222.92
765.69	222.76
766.02	222.64
766.34	222.42
766.67	222.25
767.00	222.19
767.32	222.26
767.65	222.39
767.97	222.26
768.30	222.16
768.62	222.05
768.95	221.97
769.27	221.88
769.60	221.81
769.92	221.66
770.25	221.50
770.57	221.42
770.90	221.34
771.22	221.23
771.55	221.11
771.87	221.09
772.20	221.00
772.52	221.21
772.85	221.55
773.17	221.53
773.50	221.44
773.82	221.29
774.15	221.00
774.47	220.65
774.80	220.47
775.12	220.42
775.45	220.35
775.77	220.30
776.09	220.25
776.42	220.20
776.74	220.17
777.07	220.04
777.39	219.95
777.72	219.79
778.04	219.67
778.36	219.50
778.69	219.45
779.01	219.40
779.33	219.00
779.66	218.55
779.98	218.39
780.31	218.28
780.63	218.31
780.95	218.33
781.28	218.24
781.60	218.18
781.92	218.12
782.25	218.08
782.57	217.98
782.89	217.94
783.22	217.81
783.54	217.67
783.86	217.67
784.19	217.58
784.51	217.63
784.83	217.54
785.16	217.48
785.48	217.40
785.80	217.36
786.12	217.37
786.45	217.30
786.77	217.25
787.09	217.23
787.42	217.01
787.74	216.91
788.06	216.86
788.38	216.77
788.71	216.63
789.03	216.59
789.35	216.64
789.67	216.54
789.99	216.46
790.32	216.36
790.64	216.41
790.96	216.63
791.28	216.50
791.61	216.50
791.93	216.51
792.25	216.47
792.57	216.62
792.89	216.55
793.21	216.44
793.54	216.33
793.86	216.18
794.18	216.19
794.50	216.12
794.82	216.09
795.14	216.10
795.47	216.11
795.79	216.07
796.11	215.86
796.43	215.71
796.75	215.79
797.07	215.80
797.39	215.69
797.71	215.40
798.04	215.36
798.36	215.30
798.68	215.24
799.00	215.21
799.32	215.01
799.64	214.96
799.96	214.94
800.28	215.06
800.60	214.97
800.92	214.98
801.24	214.95
801.56	215.00
801.89	214.97
802.21	214.91
802.53	214.84
802.85	214.96
803.17	215.14
803.49	214.95
803.81	214.89
804.13	214.86
804.45	214.89
804.77	214.96
805.09	214.97
805.41	214.94
805.73	214.85
806.05	214.74
806.37	214.71
806.69	214.68
807.01	214.59
807.33	214.67
807.65	214.55
807.97	214.61
808.28	214.51
808.60	214.45
808.92	214.46
809.24	214.59
809.56	214.52
809.88	214.40
810.20	214.47
810.52	214.51
810.84	214.47
811.16	214.40
811.48	214.33
811.80	214.37
812.12	214.39
812.43	214.44
812.75	214.43
813.07	214.40
813.39	214.40
813.71	214.37
814.03	214.33
814.35	214.37
814.67	214.26
814.98	214.20
815.30	214.22
815.62	214.17
815.94	213.95
816.26	213.91
816.58	213.83
816.89	213.81
817.21	213.75
817.53	213.72
817.85	213.64
818.17	213.64
818.48	213.52
818.80	213.53
819.12	213.45
819.44	213.44
819.76	213.40
820.07	213.33
820.39	213.35
820.71	213.38
821.03	213.31
821.34	213.26
821.66	213.35
821.98	213.31
822.30	213.30
822.61	213.49
822.93	213.48
823.25	213.55
823.57	213.52
823.88	213.52
824.20	213.47
824.52	213.58
824.83	213.53
825.15	213.49
825.47	213.42
825.79	213.44
826.10	213.34
826.42	213.28
826.74	213.37
827.05	213.31
827.37	213.28
827.69	213.23
828.00	213.25
828.32	213.26
828.64	213.22
828.95	213.37
829.27	213.30
829.58	213.22
829.90	213.20
830.22	213.14
830.53	213.09
830.85	213.13
831.17	212.94
831.48	212.95
831.80	212.92
832.11	212.93
832.43	212.95
832.75	212.97
833.06	213.20
833.38	213.06
833.69	213.01
834.01	213.00
834.32	213.00
834.64	212.93
834.96	212.90
835.27	212.91
835.59	212.79
835.90	212.65
836.22	212.66
836.53	212.59
836.85	212.60
837.16	212.95
837.48	212.91
837.79	213.04
838.11	212.93
838.42	212.94
838.74	212.93
839.05	212.87
839.37	212.82
839.68	212.59
840.00	212.57
840.31	212.63
840.63	212.58
840.94	212.63
841.26	212.59
841.57	212.51
841.88	212.51
842.20	212.44
842.51	212.40
842.83	212.40
843.14	212.71
843.46	212.70
843.77	212.49
844.08	212.45
844.40	212.39
844.71	212.35
845.03	212.26
845.34	212.23
845.65	212.19
845.97	212.20
846.28	212.18
846.60	212.13
846.91	212.06
847.22	212.05
847.54	212.03
847.85	212.09
848.16	212.09
848.48	212.05
848.79	212.18
849.10	212.22
849.42	212.29
849.73	211.95
850.04	211.90
850.36	211.80
850.67	211.79
850.98	211.74
851.30	211.83
851.61	211.79
851.92	211.81
852.23	211.89
852.55	211.86
852.86	211.82
853.17	211.90
853.49	211.96
853.80	212.00
854.11	212.05
854.42	212.07
854.74	212.09
855.05	212.06
855.36	211.85
855.67	211.83
855.99	211.84
856.30	212.25
856.61	212.31
856.92	212.32
857.23	212.37
857.55	212.33
857.86	212.33
858.17	212.51
858.48	212.43
858.79	212.33
859.11	212.38
859.42	212.40
859.73	212.42
860.04	212.41
860.35	212.37
860.66	212.25
860.98	212.15
861.29	212.13
861.60	212.12
861.91	212.22
862.22	212.21
862.53	212.12
862.84	211.68
863.16	211.65
863.47	211.53
863.78	211.50
864.09	211.57
864.40	211.56
864.71	211.53
865.02	211.60
865.33	211.57
865.64	211.57
865.95	211.59
866.27	211.76
866.58	211.75
866.89	211.75
867.20	211.79
867.51	211.73
867.82	211.71
868.13	211.73
868.44	211.62
868.75	211.66
869.06	211.69
869.37	211.69
869.68	211.63
869.99	211.72
870.30	211.73
870.61	211.79
870.92	211.74
871.23	211.66
871.54	211.66
871.85	211.80
872.16	211.80
872.47	211.75
872.78	211.58
873.09	211.61
873.40	211.56
873.71	211.58
874.02	211.66
874.33	211.62
874.64	211.64
874.95	211.75
875.26	211.75
875.56	211.74
875.87	211.76
876.18	211.83
876.49	212.18
876.80	212.13
877.11	212.05
877.42	212.14
877.73	212.21
878.04	212.14
878.35	212.10
878.66	212.10
878.96	212.12
879.27	212.07
879.58	212.00
879.89	211.98
880.20	212.09
880.51	212.07
880.82	212.07
881.12	212.10
881.43	212.04
881.74	211.93
882.05	211.86
882.36	211.90
882.67	211.86
882.97	211.43
883.28	211.38
883.59	211.36
883.90	211.27
884.21	211.24
884.51	211.27
884.82	211.18
885.13	211.13
885.44	211.09
885.74	211.10
886.05	211.09
886.36	211.12
886.67	210.95
886.98	211.12
887.28	211.17
887.59	211.12
887.90	211.19
888.20	211.24
888.51	211.28
888.82	211.24
889.13	211.22
889.43	211.55
889.74	211.50
890.05	211.45
890.35	211.45
890.66	211.43
890.97	211.43
891.28	211.40
891.58	211.43
891.89	211.45
892.20	211.47
892.50	211.42
892.81	211.39
893.12	211.42
893.42	211.21
893.73	211.19
894.04	211.25
894.34	211.16
894.65	211.15
894.95	211.15
895.26	211.20
895.57	211.40
895.87	211.07
896.18	211.20
896.48	211.32
896.79	211.31
897.10	211.35
897.40	211.40
897.71	211.53
898.01	211.56
898.32	211.59
898.63	211.52
898.93	211.55
899.24	211.54
899.54	211.55
899.85	211.57
900.15	211.58
900.46	211.59
900.76	211.60
901.07	211.61
901.38	211.60
901.68	211.58
901.99	211.35
902.29	211.37
902.60	211.31
902.90	211.21
903.21	211.25
903.51	211.22
903.82	211.26
904.12	211.33
904.43	211.27
904.73	211.28
905.03	211.41
905.34	211.83
905.64	211.89
905.95	211.85
906.25	211.87
906.56	211.81
906.86	211.72
907.17	211.66
907.47	211.67
907.77	211.62
908.08	211.59
908.38	211.62
908.69	211.64
908.99	211.75
909.30	211.78
909.60	211.84
909.90	211.90
910.21	211.77
910.51	211.57
910.81	211.65
911.12	211.64
911.42	211.60
911.73	211.19
912.03	211.23
912.33	211.37
912.64	211.32
912.94	211.35
913.24	211.37
913.55	211.42
913.85	211.36
914.15	211.45
914.46	211.48
914.76	211.48
915.06	211.43
915.37	211.29
915.67	211.24
915.97	211.15
916.27	211.00
916.58	211.00
916.88	210.98
917.18	210.93
917.49	211.19
917.79	211.17
918.09	211.21
918.39	211.25
918.70	211.16
919.00	211.22
919.30	211.30
919.60	211.32
919.91	211.31
920.21	211.40
920.51	211.32
920.81	211.25
921.12	211.31
921.42	211.32
921.72	211.45
922.02	211.53
922.32	211.56
922.63	211.61
922.93	211.79
923.23	211.87
923.53	211.82
923.83	211.53
924.13	211.57
924.44	211.56
924.74	211.59
925.04	211.62
925.34	211.62
925.64	211.57
925.94	211.55
926.24	211.74
926.55	211.70
926.85	211.75
927.15	211.73
927.45	211.70
927.75	211.71
928.05	211.70
928.35	211.67
928.65	211.76
928.95	211.82
929.26	211.67
929.56	211.78
929.86	211.80
930.16	211.81
930.46	211.75
930.76	211.73
931.06	211.55
931.36	211.50
931.66	211.58
931.96	211.57
932.26	211.51
932.56	211.33
932.86	211.37
933.16	211.43
933.46	211.35
933.76	211.36
934.06	211.48
934.36	211.59
934.66	211.59
934.96	211.54
935.26	211.55
935.56	211.60
935.86	211.48
936.16	211.46
936.46	211.43
936.76	211.39
937.06	211.41
937.36	211.48
937.66	211.48
937.96	211.38
938.26	211.29
938.56	211.32
938.86	211.36
939.16	211.29
939.46	211.29
939.76	211.40
940.06	211.38
940.35	211.27
940.65	211.07
940.95	211.06
941.25	210.98
941.55	210.95
941.85	210.98
942.15	211.13
942.45	211.21
942.75	211.22
943.04	211.30
943.34	211.34
943.64	211.26
943.94	211.25
944.24	211.32
944.54	211.37
944.84	211.40
945.13	211.37
945.43	211.44
945.73	211.47
946.03	211.44
946.33	211.38
946.62	211.34
946.92	211.32
947.22	211.36
947.52	211.38
947.82	211.34
948.11	211.30
948.41	211.18
948.71	211.12
949.01	211.16
949.31	211.12
949.60	211.06
949.90	211.14
950.20	211.12
950.50	210.99
950.79	210.96
951.09	211.02
951.39	211.00
951.69	210.99
951.98	211.00
952.28	211.06
952.58	211.05
952.87	211.08
953.17	211.17
953.47	211.11
953.76	211.11
954.06	211.11
954.36	211.09
954.66	211.11
954.95	211.25
955.25	211.23
955.55	211.27
955.84	211.20
956.14	211.23
956.44	211.23
956.73	211.29
957.03	211.38
957.32	211.30
957.62	211.28
957.92	211.36
958.21	211.31
958.51	211.71
958.81	211.80
959.10	211.81
959.40	211.81
959.69	211.91
959.99	211.97
960.29	211.95
960.58	211.91
960.88	211.98
961.17	211.91
961.47	211.89
961.76	211.80
962.06	211.86
962.36	211.77
962.65	211.82
962.95	211.85
963.24	211.75
963.54	211.80
963.83	211.78
964.13	211.74
964.42	211.74
964.72	211.40
965.01	211.35
965.31	211.35
965.60	211.32
965.90	211.48
966.19	211.45
966.49	211.50
966.78	211.49
967.08	211.47
967.37	211.46
967.67	211.43
967.96	211.50
968.26	211.54
968.55	211.58
968.85	211.57
969.14	211.55
969.43	211.55
969.73	211.51
970.02	211.52
970.32	211.41
970.61	211.29
970.91	211.15
971.20	211.16
971.49	211.11
971.79	211.14
972.08	210.90
972.38	210.89
972.67	210.81
972.96	210.91
973.26	210.83
973.55	210.87
973.85	210.92
974.14	210.86
974.43	210.87
974.73	210.85
975.02	210.82
975.31	210.81
975.61	210.85
975.90	210.77
976.19	210.70
976.49	210.80
976.78	210.90
977.07	210.93
977.37	210.92
977.66	210.89
977.95	210.85
978.24	210.85
978.54	210.86
978.83	210.93
979.12	210.86
979.42	210.89
979.71	210.88
980.00	210.87
980.29	210.95
980.59	210.91
980.88	210.97
981.17	210.94
981.46	210.91
981.76	210.91
982.05	211.07
982.34	211.12
982.63	211.06
982.93	211.06
983.22	211.18
983.51	211.18
983.80	211.36
984.09	211.36
984.39	211.35
984.68	211.37
984.97	211.30
985.26	211.24
985.55	211.22
985.85	211.12
986.14	211.12
986.43	211.09
986.72	211.07
987.01	211.02
987.30	211.02
987.59	211.07
987.89	211.06
988.18	210.96
988.47	210.93
988.76	210.98
989.05	210.90
989.34	210.80
989.63	210.92
989.92	210.80
990.22	210.78
990.51	210.77
990.80	210.69
991.09	210.77
991.38	210.83
991.67	210.81
991.96	210.84
992.25	210.84
992.54	210.83
992.83	210.87
993.12	210.84
993.41	210.91
993.70	211.06
993.99	211.12
994.28	211.20
994.58	211.29
994.87	211.17
995.16	211.19
995.45	211.17
995.74	210.99
996.03	211.04
996.32	211.10
996.61	211.20
996.90	211.28
997.19	211.24
997.48	211.27
997.77	211.33
998.06	211.36
998.34	211.37
998.63	211.35
998.92	211.35
999.21	211.41
999.50	211.40
999.79	211.23
1000.08	211.15
1000.37	211.12
1000.66	210.97
1000.95	211.11
1001.24	211.14
1001.53	211.24
1001.82	211.32
1002.11	211.17
1002.40	211.20
1002.68	211.25
1002.97	211.48
1003.26	211.44
1003.55	211.35
1003.84	211.30
1004.13	211.32
1004.42	211.28
1004.71	211.30
1004.99	211.30
1005.28	211.31
1005.57	211.27
1005.86	211.18
1006.15	211.15
1006.44	211.08
1006.72	211.18
1007.01	211.11
1007.30	211.08
1007.59	210.99
1007.88	210.88
1008.17	210.99
1008.45	210.87
1008.74	210.73
1009.03	210.49
1009.32	210.49
1009.60	210.53
1009.89	210.49
1010.18	210.39
1010.47	210.40
1010.76	210.34
1011.04	210.30
1011.33	210.37
1011.62	210.39
1011.91	210.45
1012.19	210.53
1012.48	210.54
1012.77	210.59
1013.05	210.70
1013.34	210.70
1013.63	210.69
1013.92	210.78
1014.20	210.72
1014.49	210.82
1014.78	210.89
1015.06	210.79
1015.35	210.78
1015.64	210.75
1015.92	210.79
1016.21	210.85
1016.50	210.84
1016.78	210.91
1017.07	210.98
1017.36	210.93
1017.64	210.98
1017.93	211.04
1018.22	211.07
1018.50	211.10
1018.79	211.09
1019.08	211.04
1019.36	211.10
1019.65	211.07
1019.93	211.16
1020.22	211.29
1020.51	211.48
1020.79	211.50
1021.08	212.05
1021.36	210.10
1021.65	211.45
1021.94	212.45
1022.22	211.50
1022.51	210.05
1022.79	212.75
1023.08	212.50
1023.36	216.05
1023.65	211.85
>>>>>End Processed Spectral Data<<<<<
