SpectraSuite Data File
++++++++++++++++++++++++++++++++++++
Date: Mon Feb 25 17:01:23 EST 2013
User: group
Dark Spectrum Present: No
Reference Spectrum Present: No
Number of Sampled Component Spectra: 1
Spectrometers: USB2E7196
Integration Time (usec): 104000 (USB2E7196)
Spectra Averaged: 20 (USB2E7196)
Boxcar Smoothing: 10 (USB2E7196)
Correct for Electrical Dark: No (USB2E7196)
Strobe/Lamp Enabled: No (USB2E7196)
Correct for Detector Non-linearity: No (USB2E7196)
Correct for Stray Light: No (USB2E7196)
Number of Pixels in Processed Spectrum: 2048
>>>>>Begin Processed Spectral Data<<<<<
339.09	0.00
339.48	199.10
339.86	199.30
340.24	201.55
340.63	202.70
341.01	209.10
341.39	204.40
341.78	207.40
342.16	209.15
342.54	208.60
342.93	198.17
343.31	208.20
343.69	208.67
344.07	209.20
344.46	209.63
344.84	210.01
345.22	210.05
345.60	210.36
345.99	210.50
346.37	210.57
346.75	210.67
347.13	210.70
347.52	210.80
347.90	210.98
348.28	210.98
348.66	211.03
349.05	210.86
349.43	210.82
349.81	210.80
350.19	210.84
350.57	210.85
350.96	210.97
351.34	211.05
351.72	211.19
352.10	211.26
352.48	211.32
352.87	211.36
353.25	211.48
353.63	211.56
354.01	211.60
354.39	211.67
354.77	211.66
355.15	211.90
355.54	211.87
355.92	211.85
356.30	211.91
356.68	212.22
357.06	212.39
357.44	212.43
357.82	212.50
358.20	212.60
358.58	212.66
358.97	212.68
359.35	212.75
359.73	212.85
360.11	212.83
360.49	212.90
360.87	212.98
361.25	213.03
361.63	213.17
362.01	213.23
362.39	213.26
362.77	213.37
363.15	213.30
363.53	213.35
363.91	213.40
364.29	213.51
364.67	213.21
365.05	213.19
365.43	213.25
365.81	213.27
366.19	213.38
366.57	213.48
366.95	213.49
367.33	213.39
367.71	213.36
368.09	213.45
368.47	213.38
368.85	213.31
369.23	213.35
369.61	213.21
369.99	213.32
370.37	213.31
370.75	213.48
371.13	213.39
371.51	213.34
371.89	213.29
372.27	213.21
372.65	213.20
373.03	213.19
373.41	213.01
373.78	212.89
374.16	212.65
374.54	212.47
374.92	212.41
375.30	212.40
375.68	212.30
376.06	212.25
376.44	212.21
376.82	212.25
377.19	212.16
377.57	212.03
377.95	211.85
378.33	211.74
378.71	211.47
379.09	211.47
379.47	211.47
379.84	211.39
380.22	211.33
380.60	211.15
380.98	211.02
381.36	211.10
381.73	211.06
382.11	211.12
382.49	211.06
382.87	210.91
383.25	210.84
383.62	211.24
384.00	211.12
384.38	211.07
384.76	211.05
385.13	211.13
385.51	211.19
385.89	211.08
386.27	211.13
386.64	211.09
387.02	211.04
387.40	210.94
387.78	210.97
388.15	210.93
388.53	210.95
388.91	210.95
389.29	210.86
389.66	210.89
390.04	210.78
390.42	210.87
390.79	210.92
391.17	210.88
391.55	210.42
391.92	210.46
392.30	210.47
392.68	210.34
393.05	210.29
393.43	210.23
393.81	210.28
394.18	210.19
394.56	210.20
394.94	210.27
395.31	210.20
395.69	210.31
396.06	210.36
396.44	210.41
396.82	210.44
397.19	210.63
397.57	210.61
397.95	210.80
398.32	210.67
398.70	210.73
399.07	210.90
399.45	210.91
399.82	210.94
400.20	211.02
400.58	211.10
400.95	211.05
401.33	211.16
401.70	211.45
402.08	211.56
402.45	211.71
402.83	211.88
403.20	212.02
403.58	212.03
403.95	212.17
404.33	212.33
404.71	212.48
405.08	212.74
405.46	212.98
405.83	213.08
406.21	213.31
406.58	213.47
406.96	213.70
407.33	213.88
407.70	214.13
408.08	214.60
408.45	214.95
408.83	215.30
409.20	215.65
409.58	215.77
409.95	216.22
410.33	216.61
410.70	216.87
411.08	217.50
411.45	218.07
411.82	218.49
412.20	219.15
412.57	219.91
412.95	220.35
413.32	221.07
413.69	221.83
414.07	222.51
414.44	223.38
414.82	224.25
415.19	225.44
415.56	226.44
415.94	227.36
416.31	228.58
416.68	229.85
417.06	231.24
417.43	232.76
417.81	234.32
418.18	235.94
418.55	237.78
418.93	239.45
419.30	241.34
419.67	243.49
420.04	245.48
420.42	247.68
420.79	250.40
421.16	253.00
421.54	255.71
421.91	258.66
422.28	261.55
422.66	264.54
423.03	267.67
423.40	270.92
423.77	274.33
424.15	277.79
424.52	281.38
424.89	285.31
425.26	289.04
425.64	292.59
426.01	296.51
426.38	300.54
426.75	304.79
427.13	309.14
427.50	313.79
427.87	318.59
428.24	323.35
428.61	327.79
428.99	332.93
429.36	338.48
429.73	343.85
430.10	349.31
430.47	354.95
430.85	360.59
431.22	366.65
431.59	373.33
431.96	379.61
432.33	386.51
432.70	393.31
433.08	401.25
433.45	408.76
433.82	416.30
434.19	424.82
434.56	433.13
434.93	441.04
435.30	448.92
435.68	457.77
436.05	466.45
436.42	475.18
436.79	483.18
437.16	491.76
437.53	500.96
437.90	510.09
438.27	519.08
438.64	528.25
439.01	536.94
439.38	544.56
439.75	552.14
440.13	560.68
440.50	568.75
440.87	575.48
441.24	582.60
441.61	590.27
441.98	596.11
442.35	602.70
442.72	609.46
443.09	616.09
443.46	620.37
443.83	623.35
444.20	626.07
444.57	629.73
444.94	631.67
445.31	633.69
445.68	635.86
446.05	637.05
446.42	637.04
446.79	636.76
447.16	636.31
447.53	636.10
447.90	633.47
448.27	630.92
448.64	626.94
449.01	624.03
449.37	618.83
449.74	613.49
450.11	607.67
450.48	600.71
450.85	593.54
451.22	587.37
451.59	581.73
451.96	576.22
452.33	568.52
452.70	561.67
453.07	553.48
453.43	544.91
453.80	536.83
454.17	528.96
454.54	521.47
454.91	513.51
455.28	505.71
455.65	498.42
456.02	491.44
456.38	485.25
456.75	477.65
457.12	471.21
457.49	465.01
457.86	458.42
458.23	453.21
458.59	447.35
458.96	441.51
459.33	436.27
459.70	430.97
460.07	426.88
460.43	422.16
460.80	417.61
461.17	413.71
461.54	409.61
461.91	405.62
462.27	401.59
462.64	398.15
463.01	394.34
463.38	390.85
463.74	386.71
464.11	383.48
464.48	380.62
464.85	377.43
465.21	375.02
465.58	372.53
465.95	369.47
466.32	366.97
466.68	364.39
467.05	361.85
467.42	359.31
467.78	356.67
468.15	354.15
468.52	352.35
468.88	349.88
469.25	347.68
469.62	345.99
469.98	344.12
470.35	342.34
470.72	340.61
471.08	338.64
471.45	337.08
471.82	335.53
472.18	333.78
472.55	332.58
472.92	331.10
473.28	329.75
473.65	328.37
474.02	327.12
474.38	326.09
474.75	325.19
475.11	324.15
475.48	323.42
475.85	322.77
476.21	321.88
476.58	321.21
476.94	320.60
477.31	319.91
477.67	319.35
478.04	318.87
478.41	318.61
478.77	318.69
479.14	318.33
479.50	318.16
479.87	318.10
480.23	317.99
480.60	317.71
480.96	317.60
481.33	317.89
481.69	317.94
482.06	317.96
482.42	317.92
482.79	318.11
483.15	318.31
483.52	318.66
483.88	318.97
484.25	319.35
484.61	319.69
484.98	320.04
485.34	320.66
485.71	321.24
486.07	321.87
486.44	322.10
486.80	322.82
487.17	323.55
487.53	324.43
487.90	325.34
488.26	326.60
488.62	327.75
488.99	328.65
489.35	329.74
489.72	331.05
490.08	332.32
490.44	333.57
490.81	334.82
491.17	336.04
491.54	337.53
491.90	338.94
492.26	340.55
492.63	342.18
492.99	343.75
493.36	345.35
493.72	347.16
494.08	349.05
494.45	351.03
494.81	352.91
495.17	354.80
495.54	356.91
495.90	358.71
496.26	360.66
496.63	362.71
496.99	364.74
497.35	366.84
497.72	369.04
498.08	371.21
498.44	373.40
498.80	375.90
499.17	378.28
499.53	380.56
499.89	382.86
500.26	385.23
500.62	387.37
500.98	389.85
501.34	391.87
501.71	394.22
502.07	396.34
502.43	398.60
502.79	400.79
503.16	402.84
503.52	404.93
503.88	406.94
504.24	409.09
504.60	411.23
504.97	413.27
505.33	415.14
505.69	417.41
506.05	419.46
506.41	421.12
506.78	422.83
507.14	424.42
507.50	426.18
507.86	427.77
508.22	429.54
508.59	430.88
508.95	432.45
509.31	434.00
509.67	435.39
510.03	436.56
510.39	437.69
510.75	438.78
511.12	439.87
511.48	440.94
511.84	441.92
512.20	442.83
512.56	443.80
512.92	444.67
513.28	445.24
513.64	445.90
514.00	446.68
514.37	447.23
514.73	448.04
515.09	448.61
515.45	449.02
515.81	449.23
516.17	449.69
516.53	450.04
516.89	450.09
517.25	450.24
517.61	450.50
517.97	450.60
518.33	450.79
518.69	450.94
519.05	451.05
519.41	451.12
519.77	451.43
520.13	451.23
520.49	451.18
520.85	451.08
521.21	451.07
521.57	450.94
521.93	450.80
522.29	450.67
522.65	450.44
523.01	450.45
523.37	450.35
523.73	450.22
524.09	450.16
524.45	450.10
524.81	450.23
525.17	450.30
525.53	450.55
525.89	450.62
526.25	450.86
526.61	450.94
526.97	451.12
527.33	451.10
527.68	451.72
528.04	452.06
528.40	452.36
528.76	452.72
529.12	453.18
529.48	453.85
529.84	454.46
530.20	455.08
530.56	455.72
530.91	456.82
531.27	457.67
531.63	458.54
531.99	459.45
532.35	460.37
532.71	461.38
533.07	462.45
533.42	463.95
533.78	465.03
534.14	466.38
534.50	467.49
534.86	469.01
535.21	470.07
535.57	471.57
535.93	473.01
536.29	474.74
536.65	476.30
537.00	477.70
537.36	479.24
537.72	480.95
538.08	482.77
538.44	484.34
538.79	486.19
539.15	488.03
539.51	490.06
539.87	492.09
540.22	494.05
540.58	496.21
540.94	497.99
541.29	500.12
541.65	502.05
542.01	504.43
542.37	506.58
542.72	508.90
543.08	511.07
543.44	513.64
543.79	515.57
544.15	518.00
544.51	520.76
544.87	523.39
545.22	526.00
545.58	528.45
545.94	531.09
546.29	533.48
546.65	535.89
547.01	538.41
547.36	540.96
547.72	543.75
548.07	546.32
548.43	548.94
548.79	551.51
549.14	554.22
549.50	556.82
549.86	559.49
550.21	562.21
550.57	564.98
550.92	567.43
551.28	570.47
551.64	573.18
551.99	575.86
552.35	578.39
552.70	580.97
553.06	583.53
553.41	586.10
553.77	589.00
554.13	592.02
554.48	594.90
554.84	597.62
555.19	600.05
555.55	602.88
555.90	605.21
556.26	607.82
556.61	610.25
556.97	612.65
557.32	615.10
557.68	617.49
558.03	620.03
558.39	622.41
558.74	624.55
559.10	626.98
559.45	629.26
559.81	631.74
560.16	633.86
560.52	636.34
560.87	638.77
561.23	640.70
561.58	643.14
561.94	645.06
562.29	647.11
562.64	649.37
563.00	651.33
563.35	653.67
563.71	656.02
564.06	658.31
564.42	660.64
564.77	662.85
565.12	665.08
565.48	667.39
565.83	669.59
566.19	672.01
566.54	673.89
566.89	675.86
567.25	677.99
567.60	680.21
567.96	682.53
568.31	684.53
568.66	686.61
569.02	687.76
569.37	689.14
569.72	690.78
570.08	692.08
570.43	693.37
570.78	694.73
571.14	695.78
571.49	696.99
571.84	698.13
572.20	699.03
572.55	699.92
572.90	700.47
573.26	701.17
573.61	701.59
573.96	702.27
574.31	702.77
574.67	703.04
575.02	703.18
575.37	702.97
575.72	702.81
576.08	703.04
576.43	703.37
576.78	703.79
577.13	704.15
577.49	704.47
577.84	704.66
578.19	704.70
578.54	704.98
578.90	705.24
579.25	705.30
579.60	705.08
579.95	704.83
580.30	704.87
580.66	705.00
581.01	704.88
581.36	704.73
581.71	704.52
582.06	704.30
582.42	704.23
582.77	703.74
583.12	703.67
583.47	703.34
583.82	703.11
584.17	702.75
584.53	702.46
584.88	702.07
585.23	701.64
585.58	701.18
585.93	700.67
586.28	700.32
586.63	699.81
586.98	699.53
587.34	699.35
587.69	698.73
588.04	698.13
588.39	697.75
588.74	697.07
589.09	696.72
589.44	696.07
589.79	695.50
590.14	695.35
590.49	694.54
590.84	693.72
591.19	693.21
591.54	692.47
591.89	691.15
592.25	690.49
592.60	689.56
592.95	688.57
593.30	687.41
593.65	686.14
594.00	684.82
594.35	684.46
594.70	683.31
595.05	682.24
595.40	681.05
595.75	679.64
596.10	678.65
596.45	677.37
596.80	676.32
597.15	675.08
597.50	673.56
597.85	672.43
598.19	671.36
598.54	670.18
598.89	669.05
599.24	668.34
599.59	667.00
599.94	666.04
600.29	664.97
600.64	663.71
600.99	662.46
601.34	661.49
601.69	659.45
602.04	657.98
602.39	656.80
602.74	655.72
603.08	654.77
603.43	653.80
603.78	652.50
604.13	651.40
604.48	650.33
604.83	649.45
605.18	648.50
605.53	647.20
605.87	645.82
606.22	644.65
606.57	643.05
606.92	641.70
607.27	640.12
607.62	638.79
607.96	637.73
608.31	636.63
608.66	635.19
609.01	633.86
609.36	632.55
609.70	630.82
610.05	629.19
610.40	627.55
610.75	625.61
611.10	624.43
611.44	622.56
611.79	620.77
612.14	618.99
612.49	616.89
612.83	615.28
613.18	613.46
613.53	611.67
613.88	609.75
614.22	607.97
614.57	606.28
614.92	604.58
615.27	602.56
615.61	600.56
615.96	598.74
616.31	596.97
616.65	595.33
617.00	593.70
617.35	591.83
617.70	589.88
618.04	588.15
618.39	585.72
618.74	583.80
619.08	581.81
619.43	579.76
619.78	578.01
620.12	576.00
620.47	574.24
620.82	571.91
621.16	569.95
621.51	568.03
621.85	566.13
622.20	564.06
622.55	562.05
622.89	560.00
623.24	557.94
623.59	555.81
623.93	553.69
624.28	551.83
624.62	550.26
624.97	548.40
625.32	546.36
625.66	544.57
626.01	542.62
626.35	540.83
626.70	538.77
627.04	536.97
627.39	535.18
627.73	533.28
628.08	531.85
628.43	530.04
628.77	528.05
629.12	525.97
629.46	524.29
629.81	522.54
630.15	520.71
630.50	518.99
630.84	517.17
631.19	515.38
631.53	513.60
631.88	511.35
632.22	509.38
632.57	507.63
632.91	505.89
633.26	504.08
633.60	502.04
633.95	500.44
634.29	498.48
634.64	496.66
634.98	494.50
635.32	492.61
635.67	491.02
636.01	489.33
636.36	487.76
636.70	486.05
637.05	484.28
637.39	482.67
637.73	481.02
638.08	479.69
638.42	478.13
638.77	476.43
639.11	474.84
639.45	473.19
639.80	471.42
640.14	469.55
640.49	467.95
640.83	466.30
641.17	464.77
641.52	463.04
641.86	461.38
642.20	460.00
642.55	458.11
642.89	456.39
643.23	454.52
643.58	452.88
643.92	450.97
644.26	449.20
644.61	447.45
644.95	445.61
645.29	443.64
645.64	441.94
645.98	440.13
646.32	438.53
646.66	436.74
647.01	435.10
647.35	433.50
647.69	431.72
648.04	430.23
648.38	428.41
648.72	426.75
649.06	424.98
649.41	423.20
649.75	421.67
650.09	420.07
650.43	418.63
650.78	416.85
651.12	415.16
651.46	413.67
651.80	412.15
652.14	410.62
652.49	409.15
652.83	407.50
653.17	405.81
653.51	403.99
653.85	402.70
654.20	401.18
654.54	399.64
654.88	398.04
655.22	396.48
655.56	394.86
655.90	393.33
656.25	391.74
656.59	390.18
656.93	388.72
657.27	387.21
657.61	385.48
657.95	384.01
658.29	382.64
658.64	381.28
658.98	379.77
659.32	378.12
659.66	376.48
660.00	374.87
660.34	373.36
660.68	371.82
661.02	370.08
661.36	368.56
661.70	367.04
662.05	365.67
662.39	364.37
662.73	363.10
663.07	361.93
663.41	360.70
663.75	359.27
664.09	357.84
664.43	356.41
664.77	355.15
665.11	353.78
665.45	352.40
665.79	351.01
666.13	349.57
666.47	348.42
666.81	347.23
667.15	345.97
667.49	344.96
667.83	343.98
668.17	342.80
668.51	341.67
668.85	340.60
669.19	339.63
669.53	338.24
669.87	337.02
670.21	335.76
670.55	334.59
670.89	333.75
671.23	332.71
671.57	331.66
671.91	330.62
672.25	329.56
672.58	328.65
672.92	327.49
673.26	326.63
673.60	325.55
673.94	324.51
674.28	323.61
674.62	322.56
674.96	321.60
675.30	320.77
675.64	319.86
675.97	318.94
676.31	317.90
676.65	317.07
676.99	316.37
677.33	315.28
677.67	314.30
678.01	313.22
678.34	312.21
678.68	311.41
679.02	310.55
679.36	309.62
679.70	308.62
680.04	307.75
680.37	306.75
680.71	306.02
681.05	305.20
681.39	304.25
681.73	303.50
682.06	302.65
682.40	301.78
682.74	300.90
683.08	300.09
683.42	299.32
683.75	298.50
684.09	297.55
684.43	296.88
684.77	296.00
685.10	295.15
685.44	294.36
685.78	293.48
686.12	292.65
686.45	291.92
686.79	291.09
687.13	290.46
687.46	289.59
687.80	288.83
688.14	288.02
688.48	287.34
688.81	286.52
689.15	285.80
689.49	285.01
689.82	284.23
690.16	283.39
690.50	282.49
690.83	281.72
691.17	280.91
691.51	280.16
691.84	279.55
692.18	278.87
692.52	278.15
692.85	277.54
693.19	277.10
693.52	276.44
693.86	275.76
694.20	275.08
694.53	274.56
694.87	273.83
695.21	273.17
695.54	272.50
695.88	271.78
696.21	270.95
696.55	270.41
696.88	269.77
697.22	269.18
697.56	268.70
697.89	268.09
698.23	267.57
698.56	266.89
698.90	266.31
699.23	265.78
699.57	265.22
699.90	264.59
700.24	263.85
700.58	263.30
700.91	262.85
701.25	262.50
701.58	262.11
701.92	261.66
702.25	261.13
702.59	260.58
702.92	260.16
703.26	259.76
703.59	259.23
703.93	259.07
704.26	258.59
704.60	258.04
704.93	257.47
705.26	256.85
705.60	256.54
705.93	256.05
706.27	255.67
706.60	255.37
706.94	255.07
707.27	254.53
707.61	254.12
707.94	253.64
708.27	252.98
708.61	252.35
708.94	251.88
709.28	251.52
709.61	251.12
709.94	250.71
710.28	250.31
710.61	249.87
710.95	249.21
711.28	249.09
711.61	248.78
711.95	248.56
712.28	248.21
712.61	247.80
712.95	247.62
713.28	247.32
713.61	246.92
713.95	246.40
714.28	246.05
714.61	245.64
714.95	245.30
715.28	244.82
715.61	244.59
715.95	244.25
716.28	243.77
716.61	243.47
716.95	243.05
717.28	242.75
717.61	242.47
717.94	242.12
718.28	241.49
718.61	241.22
718.94	240.78
719.27	240.50
719.61	240.26
719.94	239.83
720.27	239.39
720.60	239.06
720.94	238.85
721.27	238.67
721.60	238.45
721.93	238.17
722.27	238.05
722.60	237.74
722.93	237.43
723.26	237.26
723.59	236.95
723.93	236.71
724.26	236.45
724.59	236.19
724.92	235.98
725.25	235.88
725.59	235.54
725.92	235.44
726.25	235.21
726.58	234.97
726.91	234.72
727.24	234.59
727.57	234.40
727.91	234.12
728.24	233.84
728.57	233.62
728.90	233.45
729.23	233.14
729.56	233.15
729.89	232.97
730.22	232.74
730.55	232.59
730.89	232.40
731.22	232.22
731.55	231.98
731.88	231.77
732.21	231.47
732.54	231.25
732.87	231.00
733.20	230.83
733.53	230.58
733.86	230.43
734.19	230.13
734.52	229.93
734.85	229.95
735.18	229.78
735.51	229.67
735.84	229.53
736.17	229.49
736.50	229.07
736.83	229.31
737.16	229.14
737.49	228.94
737.82	228.77
738.15	228.60
738.48	228.39
738.81	228.23
739.14	228.08
739.47	227.87
739.80	227.69
740.13	227.54
740.46	227.32
740.79	227.10
741.12	226.89
741.45	226.66
741.78	226.25
742.11	226.21
742.44	225.93
742.77	225.80
743.10	225.57
743.43	225.48
743.75	224.82
744.08	225.12
744.41	224.89
744.74	224.75
745.07	224.54
745.40	224.50
745.73	224.49
746.06	224.39
746.39	224.28
746.71	224.14
747.04	223.95
747.37	223.88
747.70	223.79
748.03	223.71
748.36	223.72
748.68	223.60
749.01	223.34
749.34	223.26
749.67	223.06
750.00	222.99
750.33	223.10
750.65	223.13
750.98	222.59
751.31	222.47
751.64	222.30
751.97	222.40
752.29	222.30
752.62	221.97
752.95	221.81
753.28	221.74
753.60	221.64
753.93	221.66
754.26	221.52
754.59	221.37
754.91	221.28
755.24	221.14
755.57	221.10
755.90	221.00
756.22	220.84
756.55	220.71
756.88	220.53
757.20	220.18
757.53	220.01
757.86	219.93
758.19	219.94
758.51	219.86
758.84	219.61
759.17	219.49
759.49	219.45
759.82	219.55
760.15	219.44
760.47	219.35
760.80	219.17
761.13	219.20
761.45	219.20
761.78	219.13
762.11	219.00
762.43	218.92
762.76	218.85
763.08	218.82
763.41	218.75
763.74	218.72
764.06	218.65
764.39	218.56
764.71	218.44
765.04	218.35
765.37	218.26
765.69	218.18
766.02	218.09
766.34	217.94
766.67	217.75
767.00	217.75
767.32	217.86
767.65	218.05
767.97	217.93
768.30	217.79
768.62	217.73
768.95	217.66
769.27	217.55
769.60	217.56
769.92	217.44
770.25	217.28
770.57	217.22
770.90	217.12
771.22	217.01
771.55	216.90
771.87	216.84
772.20	216.75
772.52	216.95
772.85	217.32
773.17	217.30
773.50	217.18
773.82	217.06
774.15	216.78
774.47	216.45
774.80	216.31
775.12	216.22
775.45	216.15
775.77	216.14
776.09	216.02
776.42	215.96
776.74	216.06
777.07	216.07
777.39	215.99
777.72	216.03
778.04	216.04
778.36	216.03
778.69	215.93
779.01	215.93
779.33	215.54
779.66	215.04
779.98	215.00
780.31	214.99
780.63	215.10
780.95	215.15
781.28	215.04
781.60	215.01
781.92	214.97
782.25	214.88
782.57	214.81
782.89	214.78
783.22	214.69
783.54	214.50
783.86	214.45
784.19	214.30
784.51	214.21
784.83	214.14
785.16	214.08
785.48	214.17
785.80	214.10
786.12	214.16
786.45	214.13
786.77	214.10
787.09	214.02
787.42	213.82
787.74	213.80
788.06	213.82
788.38	213.75
788.71	213.68
789.03	213.64
789.35	213.64
789.67	213.61
789.99	213.62
790.32	213.52
790.64	213.61
790.96	213.98
791.28	213.90
791.61	213.84
791.93	213.85
792.25	213.72
792.57	213.95
792.89	213.84
793.21	213.86
793.54	213.78
793.86	213.73
794.18	213.76
794.50	213.62
794.82	213.61
795.14	213.65
795.47	213.73
795.79	213.71
796.11	213.57
796.43	213.54
796.75	213.54
797.07	213.58
797.39	213.47
797.71	213.09
798.04	213.06
798.36	213.07
798.68	213.06
799.00	213.10
799.32	212.91
799.64	212.94
799.96	212.91
800.28	213.01
800.60	213.03
800.92	213.00
801.24	212.98
801.56	213.02
801.89	212.94
802.21	212.96
802.53	212.94
802.85	213.07
803.17	213.24
803.49	213.11
803.81	213.15
804.13	213.12
804.45	213.17
804.77	213.20
805.09	213.15
805.41	213.08
805.73	212.95
806.05	212.94
806.37	212.94
806.69	212.89
807.01	212.85
807.33	212.87
807.65	212.80
807.97	212.99
808.28	212.86
808.60	212.92
808.92	212.83
809.24	213.05
809.56	212.98
809.88	212.80
810.20	212.86
810.52	212.87
810.84	212.86
811.16	212.78
811.48	212.81
811.80	212.95
812.12	212.96
812.43	213.09
812.75	213.04
813.07	212.95
813.39	212.92
813.71	212.79
814.03	212.67
814.35	212.65
814.67	212.49
814.98	212.51
815.30	212.49
815.62	212.40
815.94	212.19
816.26	212.14
816.58	212.12
816.89	212.15
817.21	212.12
817.53	212.10
817.85	212.16
818.17	212.07
818.48	211.97
818.80	212.00
819.12	211.91
819.44	211.82
819.76	211.87
820.07	211.90
820.39	211.98
820.71	212.00
821.03	211.98
821.34	211.90
821.66	211.95
821.98	211.92
822.30	211.96
822.61	212.13
822.93	212.12
823.25	212.06
823.57	212.02
823.88	212.13
824.20	212.13
824.52	212.12
824.83	212.15
825.15	212.09
825.47	212.10
825.79	212.14
826.10	212.17
826.42	212.10
826.74	212.17
827.05	212.15
827.37	212.21
827.69	212.22
828.00	212.30
828.32	212.28
828.64	212.29
828.95	212.43
829.27	212.35
829.58	212.33
829.90	212.40
830.22	212.36
830.53	212.18
830.85	212.14
831.17	212.04
831.48	211.98
831.80	212.04
832.11	211.93
832.43	211.85
832.75	211.81
833.06	212.02
833.38	211.86
833.69	211.84
834.01	211.87
834.32	211.87
834.64	211.79
834.96	211.77
835.27	211.80
835.59	211.71
835.90	211.59
836.22	211.60
836.53	211.56
836.85	211.55
837.16	211.92
837.48	211.95
837.79	212.06
838.11	212.13
838.42	212.10
838.74	212.20
839.05	212.25
839.37	212.25
839.68	212.05
840.00	211.99
840.31	212.00
840.63	211.90
840.94	211.80
841.26	211.86
841.57	211.87
841.88	211.80
842.20	211.81
842.51	211.84
842.83	211.81
843.14	212.07
843.46	212.09
843.77	211.90
844.08	211.83
844.40	211.72
844.71	211.70
845.03	211.65
845.34	211.63
845.65	211.63
845.97	211.66
846.28	211.65
846.60	211.71
846.91	211.71
847.22	211.71
847.54	211.85
847.85	211.82
848.16	211.81
848.48	211.79
848.79	211.86
849.10	211.85
849.42	211.91
849.73	211.59
850.04	211.55
850.36	211.40
850.67	211.50
850.98	211.52
851.30	211.51
851.61	211.49
851.92	211.49
852.23	211.59
852.55	211.65
852.86	211.65
853.17	211.67
853.49	211.70
853.80	211.82
854.11	211.78
854.42	211.85
854.74	211.80
855.05	211.80
855.36	211.65
855.67	211.71
855.99	211.61
856.30	212.09
856.61	212.07
856.92	212.11
857.23	212.09
857.55	212.09
857.86	212.14
858.17	212.20
858.48	212.08
858.79	212.00
859.11	211.99
859.42	211.95
859.73	211.96
860.04	211.99
860.35	211.85
860.66	211.81
860.98	211.75
861.29	211.81
861.60	211.82
861.91	211.84
862.22	211.75
862.53	211.73
862.84	211.30
863.16	211.37
863.47	211.28
863.78	211.28
864.09	211.32
864.40	211.26
864.71	211.35
865.02	211.42
865.33	211.32
865.64	211.27
865.95	211.35
866.27	211.54
866.58	211.53
866.89	211.63
867.20	211.61
867.51	211.54
867.82	211.48
868.13	211.51
868.44	211.49
868.75	211.59
869.06	211.66
869.37	211.65
869.68	211.55
869.99	211.67
870.30	211.71
870.61	211.67
870.92	211.63
871.23	211.50
871.54	211.55
871.85	211.65
872.16	211.68
872.47	211.60
872.78	211.41
873.09	211.46
873.40	211.39
873.71	211.44
874.02	211.54
874.33	211.51
874.64	211.47
874.95	211.50
875.26	211.39
875.56	211.38
875.87	211.36
876.18	211.38
876.49	211.66
876.80	211.54
877.11	211.45
877.42	211.48
877.73	211.47
878.04	211.42
878.35	211.40
878.66	211.38
878.96	211.34
879.27	211.29
879.58	211.18
879.89	211.14
880.20	211.20
880.51	211.14
880.82	211.17
881.12	211.22
881.43	211.20
881.74	211.15
882.05	211.14
882.36	211.20
882.67	211.29
882.97	211.00
883.28	210.98
883.59	211.08
883.90	211.08
884.21	211.21
884.51	211.23
884.82	211.22
885.13	211.24
885.44	211.31
885.74	211.33
886.05	211.31
886.36	211.30
886.67	211.20
886.98	211.38
887.28	211.41
887.59	211.37
887.90	211.37
888.20	211.46
888.51	211.50
888.82	211.47
889.13	211.43
889.43	211.66
889.74	211.72
890.05	211.66
890.35	211.67
890.66	211.63
890.97	211.57
891.28	211.53
891.58	211.50
891.89	211.58
892.20	211.58
892.50	211.61
892.81	211.69
893.12	211.70
893.42	211.53
893.73	211.55
894.04	211.60
894.34	211.70
894.65	211.70
894.95	211.70
895.26	211.75
895.57	211.87
895.87	211.60
896.18	211.60
896.48	211.67
896.79	211.67
897.10	211.67
897.40	211.75
897.71	211.75
898.01	211.71
898.32	211.70
898.63	211.68
898.93	211.68
899.24	211.62
899.54	211.60
899.85	211.59
900.15	211.53
900.46	211.50
900.76	211.45
901.07	211.40
901.38	211.41
901.68	211.41
901.99	211.20
902.29	211.23
902.60	211.27
902.90	211.15
903.21	211.13
903.51	211.16
903.82	211.21
904.12	211.23
904.43	211.25
904.73	211.20
905.03	211.16
905.34	211.50
905.64	211.51
905.95	211.46
906.25	211.48
906.56	211.50
906.86	211.49
907.17	211.43
907.47	211.42
907.77	211.36
908.08	211.27
908.38	211.33
908.69	211.31
908.99	211.29
909.30	211.41
909.60	211.44
909.90	211.35
910.21	211.22
910.51	211.15
910.81	211.18
911.12	211.16
911.42	211.18
911.73	210.78
912.03	210.77
912.33	210.90
912.64	210.89
912.94	210.90
913.24	210.83
913.55	210.82
913.85	210.83
914.15	210.88
914.46	210.91
914.76	210.85
915.06	210.76
915.37	210.71
915.67	210.69
915.97	210.65
916.27	210.59
916.58	210.59
916.88	210.57
917.18	210.56
917.49	210.74
917.79	210.68
918.09	210.74
918.39	210.86
918.70	210.85
919.00	210.75
919.30	210.85
919.60	210.86
919.91	210.81
920.21	210.78
920.51	210.75
920.81	210.79
921.12	210.86
921.42	210.89
921.72	210.98
922.02	210.96
922.32	211.05
922.63	211.06
922.93	211.23
923.23	211.28
923.53	211.31
923.83	211.16
924.13	211.23
924.44	211.24
924.74	211.24
925.04	211.25
925.34	211.27
925.64	211.19
925.94	211.20
926.24	211.48
926.55	211.47
926.85	211.51
927.15	211.45
927.45	211.47
927.75	211.46
928.05	211.45
928.35	211.48
928.65	211.52
928.95	211.49
929.26	211.33
929.56	211.35
929.86	211.25
930.16	211.21
930.46	211.22
930.76	211.21
931.06	211.04
931.36	210.94
931.66	211.12
931.96	211.17
932.26	211.18
932.56	211.03
932.86	211.05
933.16	211.10
933.46	211.12
933.76	211.08
934.06	211.14
934.36	211.22
934.66	211.09
934.96	211.02
935.26	211.09
935.56	211.14
935.86	211.11
936.16	211.13
936.46	211.15
936.76	211.13
937.06	211.03
937.36	211.09
937.66	211.19
937.96	211.09
938.26	210.91
938.56	210.87
938.86	210.86
939.16	210.92
939.46	210.87
939.76	210.78
940.06	210.78
940.35	210.64
940.65	210.38
940.95	210.41
941.25	210.27
941.55	210.28
941.85	210.25
942.15	210.30
942.45	210.36
942.75	210.29
943.04	210.27
943.34	210.38
943.64	210.31
943.94	210.17
944.24	210.13
944.54	210.23
944.84	210.22
945.13	210.14
945.43	210.06
945.73	209.99
946.03	210.02
946.33	209.95
946.62	210.00
946.92	210.03
947.22	210.09
947.52	210.10
947.82	210.16
948.11	210.14
948.41	210.05
948.71	209.97
949.01	210.06
949.31	209.99
949.60	210.02
949.90	210.02
950.20	210.04
950.50	210.08
950.79	209.96
951.09	210.07
951.39	210.05
951.69	209.99
951.98	210.08
952.28	210.12
952.58	210.19
952.87	210.16
953.17	210.23
953.47	210.16
953.76	210.28
954.06	210.18
954.36	210.14
954.66	210.15
954.95	210.25
955.25	210.25
955.55	210.33
955.84	210.25
956.14	210.37
956.44	210.41
956.73	210.34
957.03	210.41
957.32	210.40
957.62	210.43
957.92	210.58
958.21	210.57
958.51	210.96
958.81	210.98
959.10	211.08
959.40	211.12
959.69	211.17
959.99	211.14
960.29	211.12
960.58	211.20
960.88	211.35
961.17	211.32
961.47	211.37
961.76	211.30
962.06	211.37
962.36	211.34
962.65	211.30
962.95	211.39
963.24	211.44
963.54	211.43
963.83	211.44
964.13	211.38
964.42	211.31
964.72	211.01
965.01	210.98
965.31	210.93
965.60	210.89
965.90	211.18
966.19	211.16
966.49	211.25
966.78	211.17
967.08	211.11
967.37	211.05
967.67	211.01
967.96	211.15
968.26	211.12
968.55	211.14
968.85	211.17
969.14	211.14
969.43	211.09
969.73	211.05
970.02	211.09
970.32	211.10
970.61	211.11
970.91	211.04
971.20	211.06
971.49	211.08
971.79	211.20
972.08	210.95
972.38	210.95
972.67	210.85
972.96	210.93
973.26	210.82
973.55	210.98
973.85	210.90
974.14	210.87
974.43	210.91
974.73	210.86
975.02	210.76
975.31	210.81
975.61	210.78
975.90	210.84
976.19	210.78
976.49	210.77
976.78	210.87
977.07	210.85
977.37	210.83
977.66	210.84
977.95	210.74
978.24	210.73
978.54	210.78
978.83	210.78
979.12	210.78
979.42	210.85
979.71	210.70
980.00	210.75
980.29	210.77
980.59	210.67
980.88	210.70
981.17	210.76
981.46	210.72
981.76	210.73
982.05	210.73
982.34	210.76
982.63	210.79
982.93	210.69
983.22	210.85
983.51	210.92
983.80	210.97
984.09	211.03
984.39	211.04
984.68	210.99
984.97	211.04
985.26	210.99
985.55	210.98
985.85	210.94
986.14	210.98
986.43	210.97
986.72	210.91
987.01	210.86
987.30	210.81
987.59	210.78
987.89	210.80
988.18	210.70
988.47	210.71
988.76	210.63
989.05	210.63
989.34	210.51
989.63	210.57
989.92	210.47
990.22	210.46
990.51	210.43
990.80	210.41
991.09	210.40
991.38	210.48
991.67	210.43
991.96	210.53
992.25	210.49
992.54	210.44
992.83	210.52
993.12	210.55
993.41	210.65
993.70	210.86
993.99	210.86
994.28	210.94
994.58	210.96
994.87	211.00
995.16	211.01
995.45	211.00
995.74	210.85
996.03	210.90
996.32	210.94
996.61	211.01
996.90	211.06
997.19	211.08
997.48	211.05
997.77	211.06
998.06	211.07
998.34	211.11
998.63	211.10
998.92	211.09
999.21	211.10
999.50	211.08
999.79	210.88
1000.08	210.87
1000.37	210.93
1000.66	210.91
1000.95	210.97
1001.24	211.00
1001.53	211.04
1001.82	211.07
1002.11	211.12
1002.40	211.15
1002.68	211.28
1002.97	211.52
1003.26	211.48
1003.55	211.46
1003.84	211.53
1004.13	211.65
1004.42	211.60
1004.71	211.65
1004.99	211.70
1005.28	211.81
1005.57	211.77
1005.86	211.84
1006.15	211.90
1006.44	211.84
1006.72	211.84
1007.01	211.77
1007.30	211.78
1007.59	211.75
1007.88	211.69
1008.17	211.63
1008.45	211.52
1008.74	211.30
1009.03	211.12
1009.32	211.14
1009.60	211.11
1009.89	211.07
1010.18	210.85
1010.47	210.81
1010.76	210.77
1011.04	210.68
1011.33	210.72
1011.62	210.81
1011.91	210.75
1012.19	210.70
1012.48	210.68
1012.77	210.75
1013.05	210.89
1013.34	210.92
1013.63	210.89
1013.92	210.94
1014.20	210.94
1014.49	210.95
1014.78	211.00
1015.06	210.93
1015.35	210.93
1015.64	211.00
1015.92	211.08
1016.21	211.11
1016.50	211.14
1016.78	211.18
1017.07	211.25
1017.36	211.10
1017.64	211.01
1017.93	211.06
1018.22	211.04
1018.50	210.98
1018.79	210.86
1019.08	210.70
1019.36	210.68
1019.65	210.70
1019.93	210.77
1020.22	210.77
1020.51	210.96
1020.79	210.95
1021.08	210.05
1021.36	209.65
1021.65	209.85
1021.94	210.30
1022.22	211.25
1022.51	211.00
1022.79	211.80
1023.08	211.00
1023.36	214.95
1023.65	210.60
>>>>>End Processed Spectral Data<<<<<
