SpectraSuite Data File
++++++++++++++++++++++++++++++++++++
Date: Mon Feb 25 17:05:54 EST 2013
User: group
Dark Spectrum Present: No
Reference Spectrum Present: No
Number of Sampled Component Spectra: 1
Spectrometers: USB2E7196
Integration Time (usec): 104000 (USB2E7196)
Spectra Averaged: 20 (USB2E7196)
Boxcar Smoothing: 10 (USB2E7196)
Correct for Electrical Dark: No (USB2E7196)
Strobe/Lamp Enabled: No (USB2E7196)
Correct for Detector Non-linearity: No (USB2E7196)
Correct for Stray Light: No (USB2E7196)
Number of Pixels in Processed Spectrum: 2048
>>>>>Begin Processed Spectral Data<<<<<
339.09	0.00
339.48	198.35
339.86	198.05
340.24	201.30
340.63	203.40
341.01	208.60
341.39	205.30
341.78	207.75
342.16	208.45
342.54	208.25
342.93	197.91
343.31	207.99
343.69	208.52
344.07	209.06
344.46	209.53
344.84	209.87
345.22	210.02
345.60	210.31
345.99	210.44
346.37	210.55
346.75	210.66
347.13	210.71
347.52	210.77
347.90	210.94
348.28	211.01
348.66	211.16
349.05	211.07
349.43	211.05
349.81	211.16
350.19	211.19
350.57	211.28
350.96	211.31
351.34	211.34
351.72	211.44
352.10	211.59
352.48	211.62
352.87	211.67
353.25	211.65
353.63	211.66
354.01	211.74
354.39	211.85
354.77	211.93
355.15	212.10
355.54	212.11
355.92	212.07
356.30	212.19
356.68	212.37
357.06	212.48
357.44	212.49
357.82	212.50
358.20	212.59
358.58	212.65
358.97	212.70
359.35	212.76
359.73	212.88
360.11	212.85
360.49	212.89
360.87	212.95
361.25	213.08
361.63	213.22
362.01	213.25
362.39	213.26
362.77	213.32
363.15	213.24
363.53	213.30
363.91	213.31
364.29	213.27
364.67	213.07
365.05	213.03
365.43	213.08
365.81	213.13
366.19	213.23
366.57	213.26
366.95	213.28
367.33	213.21
367.71	213.19
368.09	213.25
368.47	213.29
368.85	213.23
369.23	213.22
369.61	213.10
369.99	213.25
370.37	213.23
370.75	213.36
371.13	213.44
371.51	213.40
371.89	213.36
372.27	213.37
372.65	213.35
373.03	213.40
373.41	213.36
373.78	213.28
374.16	213.09
374.54	212.99
374.92	212.93
375.30	212.95
375.68	212.82
376.06	212.79
376.44	212.70
376.82	212.71
377.19	212.67
377.57	212.61
377.95	212.36
378.33	212.26
378.71	212.01
379.09	211.82
379.47	211.74
379.84	211.69
380.22	211.57
380.60	211.41
380.98	211.24
381.36	211.16
381.73	211.03
382.11	211.09
382.49	211.02
382.87	210.95
383.25	210.82
383.62	211.15
384.00	211.00
384.38	210.96
384.76	211.00
385.13	211.09
385.51	211.09
385.89	211.03
386.27	211.02
386.64	211.00
387.02	211.02
387.40	210.93
387.78	210.93
388.15	210.96
388.53	210.92
388.91	210.87
389.29	210.87
389.66	210.94
390.04	210.85
390.42	210.92
390.79	210.92
391.17	210.92
391.55	210.60
391.92	210.62
392.30	210.62
392.68	210.53
393.05	210.46
393.43	210.41
393.81	210.42
394.18	210.37
394.56	210.38
394.94	210.40
395.31	210.36
395.69	210.44
396.06	210.49
396.44	210.51
396.82	210.55
397.19	210.66
397.57	210.67
397.95	210.78
398.32	210.70
398.70	210.74
399.07	210.88
399.45	210.85
399.82	210.83
400.20	210.75
400.58	210.71
400.95	210.52
401.33	210.63
401.70	210.89
402.08	210.95
402.45	210.97
402.83	211.16
403.20	211.27
403.58	211.23
403.95	211.38
404.33	211.53
404.71	211.57
405.08	211.90
405.46	211.90
405.83	211.93
406.21	212.01
406.58	212.19
406.96	212.19
407.33	212.31
407.70	212.51
408.08	213.02
408.45	213.24
408.83	213.61
409.20	213.77
409.58	213.80
409.95	214.07
410.33	214.36
410.70	214.47
411.08	214.79
411.45	215.13
411.82	215.33
412.20	215.80
412.57	216.36
412.95	216.45
413.32	216.91
413.69	217.34
414.07	217.88
414.44	218.38
414.82	218.99
415.19	219.64
415.56	220.30
415.94	220.76
416.31	221.55
416.68	222.25
417.06	223.09
417.43	223.99
417.81	224.90
418.18	225.90
418.55	226.98
418.93	228.10
419.30	229.28
419.67	230.53
420.04	231.67
420.42	232.98
420.79	234.77
421.16	236.42
421.54	238.14
421.91	239.80
422.28	241.54
422.66	243.35
423.03	245.32
423.40	247.14
423.77	249.09
424.15	251.14
424.52	253.29
424.89	255.69
425.26	257.85
425.64	260.02
426.01	262.34
426.38	264.75
426.75	267.28
427.13	269.95
427.50	272.60
427.87	275.43
428.24	278.24
428.61	280.72
428.99	283.77
429.36	286.97
429.73	290.20
430.10	293.44
430.47	296.80
430.85	300.00
431.22	303.67
431.59	307.74
431.96	311.37
432.33	315.47
432.70	319.38
433.08	323.98
433.45	328.38
433.82	332.73
434.19	337.67
434.56	342.53
434.93	347.01
435.30	351.63
435.68	356.77
436.05	361.75
436.42	366.67
436.79	371.27
437.16	376.21
437.53	381.41
437.90	386.55
438.27	391.66
438.64	396.91
439.01	402.01
439.38	406.37
439.75	410.63
440.13	415.46
440.50	420.05
440.87	423.98
441.24	427.86
441.61	432.25
441.98	435.44
442.35	439.14
442.72	443.06
443.09	446.85
443.46	449.09
443.83	450.83
444.20	452.50
444.57	454.38
444.94	455.45
445.31	456.45
445.68	457.76
446.05	458.34
446.42	458.27
446.79	457.77
447.16	457.23
447.53	457.05
447.90	455.36
448.27	453.80
448.64	451.31
449.01	449.78
449.37	446.64
449.74	443.62
450.11	440.02
450.48	435.85
450.85	431.56
451.22	427.93
451.59	424.46
451.96	421.01
452.33	416.66
452.70	412.75
453.07	407.99
453.43	402.92
453.80	398.28
454.17	393.70
454.54	389.41
454.91	384.81
455.28	380.30
455.65	376.09
456.02	372.19
456.38	368.65
456.75	364.08
457.12	360.30
457.49	356.59
457.86	352.92
458.23	350.11
458.59	346.74
458.96	343.50
459.33	340.40
459.70	337.40
460.07	335.03
460.43	332.20
460.80	329.73
461.17	327.52
461.54	324.98
461.91	322.68
462.27	320.34
462.64	318.34
463.01	316.14
463.38	314.22
463.74	311.68
464.11	309.79
464.48	308.14
464.85	306.36
465.21	305.08
465.58	303.60
465.95	301.59
466.32	300.22
466.68	298.70
467.05	297.27
467.42	295.75
467.78	294.17
468.15	292.72
468.52	291.62
468.88	290.02
469.25	288.83
469.62	287.80
469.98	286.66
470.35	285.64
470.72	284.70
471.08	283.51
471.45	282.71
471.82	281.81
472.18	280.83
472.55	280.10
472.92	279.26
473.28	278.46
473.65	277.70
474.02	276.93
474.38	276.32
474.75	275.78
475.11	275.15
475.48	274.75
475.85	274.25
476.21	273.76
476.58	273.48
476.94	273.16
477.31	272.80
477.67	272.53
478.04	272.23
478.41	271.94
478.77	272.04
479.14	271.67
479.50	271.50
479.87	271.51
480.23	271.36
480.60	271.03
480.96	270.87
481.33	271.10
481.69	271.02
482.06	270.99
482.42	270.95
482.79	271.15
483.15	271.14
483.52	271.34
483.88	271.51
484.25	271.53
484.61	271.65
484.98	271.82
485.34	272.08
485.71	272.38
486.07	272.72
486.44	272.65
486.80	273.05
487.17	273.37
487.53	273.78
487.90	274.30
488.26	275.03
488.62	275.66
488.99	275.98
489.35	276.59
489.72	277.17
490.08	277.92
490.44	278.54
490.81	279.26
491.17	279.93
491.54	280.64
491.90	281.54
492.26	282.41
492.63	283.26
492.99	284.07
493.36	285.05
493.72	286.10
494.08	287.22
494.45	288.38
494.81	289.55
495.17	290.62
495.54	291.84
495.90	292.94
496.26	294.07
496.63	295.34
496.99	296.55
497.35	297.85
497.72	299.11
498.08	300.49
498.44	301.78
498.80	303.19
499.17	304.45
499.53	305.84
499.89	307.26
500.26	308.63
500.62	310.08
500.98	311.52
501.34	312.81
501.71	314.25
502.07	315.56
502.43	316.96
502.79	318.24
503.16	319.53
503.52	320.82
503.88	322.22
504.24	323.50
504.60	324.99
504.97	326.40
505.33	327.74
505.69	329.13
506.05	330.66
506.41	332.13
506.78	333.51
507.14	334.80
507.50	336.23
507.86	337.67
508.22	339.01
508.59	340.19
508.95	341.55
509.31	342.98
509.67	344.27
510.03	345.47
510.39	346.82
510.75	348.16
511.12	349.45
511.48	350.69
511.84	352.07
512.20	353.24
512.56	354.51
512.92	355.86
513.28	357.10
513.64	358.18
514.00	359.32
514.37	360.58
514.73	361.80
515.09	363.05
515.45	364.28
515.81	365.54
516.17	366.77
516.53	367.91
516.89	368.93
517.25	370.19
517.61	371.53
517.97	372.74
518.33	373.99
518.69	375.38
519.05	376.75
519.41	377.99
519.77	379.57
520.13	380.86
520.49	382.18
520.85	383.55
521.21	385.05
521.57	386.54
521.93	387.86
522.29	389.36
522.65	390.69
523.01	392.10
523.37	393.57
523.73	395.23
524.09	396.82
524.45	398.47
524.81	400.06
525.17	401.79
525.53	403.56
525.89	405.35
526.25	407.17
526.61	408.82
526.97	410.74
527.33	412.46
527.68	414.67
528.04	416.54
528.40	418.43
528.76	420.44
529.12	422.36
529.48	424.69
529.84	426.78
530.20	429.08
530.56	431.44
530.91	433.81
531.27	436.14
531.63	438.70
531.99	441.24
532.35	443.68
532.71	446.12
533.07	448.74
533.42	451.65
533.78	454.07
534.14	456.76
534.50	459.28
534.86	462.10
535.21	464.32
535.57	467.04
535.93	469.84
536.29	472.70
536.65	475.52
537.00	478.13
537.36	480.81
537.72	483.46
538.08	486.22
538.44	488.88
538.79	491.74
539.15	494.38
539.51	497.05
539.87	500.14
540.22	502.91
540.58	505.73
540.94	508.32
541.29	511.18
541.65	513.98
542.01	517.02
542.37	519.75
542.72	522.80
543.08	525.56
543.44	528.46
543.79	530.99
544.15	533.96
544.51	537.19
544.87	540.21
545.22	543.21
545.58	546.16
545.94	549.02
546.29	551.73
546.65	554.60
547.01	557.30
547.36	560.08
547.72	562.75
548.07	565.50
548.43	568.19
548.79	570.84
549.14	573.39
549.50	575.90
549.86	578.43
550.21	580.98
550.57	583.80
550.92	586.28
551.28	588.87
551.64	591.20
551.99	593.60
552.35	596.02
552.70	598.25
553.06	600.47
553.41	602.79
553.77	605.23
554.13	607.49
554.48	610.05
554.84	612.23
555.19	614.55
555.55	616.95
555.90	618.80
556.26	620.91
556.61	623.01
556.97	624.87
557.32	626.90
557.68	628.84
558.03	630.61
558.39	632.43
558.74	634.37
559.10	636.36
559.45	638.12
559.81	640.07
560.16	641.88
560.52	643.51
560.87	645.46
561.23	646.99
561.58	648.97
561.94	650.42
562.29	651.87
562.64	653.63
563.00	655.05
563.35	656.66
563.71	658.26
564.06	659.93
564.42	661.65
564.77	663.24
565.12	664.91
565.48	666.80
565.83	668.42
566.19	669.82
566.54	671.02
566.89	672.18
567.25	673.43
567.60	674.83
567.96	676.36
568.31	677.47
568.66	678.72
569.02	679.46
569.37	680.30
569.72	681.23
570.08	681.84
570.43	682.42
570.78	683.20
571.14	683.73
571.49	684.12
571.84	684.62
572.20	685.02
572.55	685.52
572.90	685.21
573.26	685.15
573.61	685.25
573.96	685.35
574.31	685.31
574.67	685.16
575.02	685.01
575.37	684.61
575.72	684.24
576.08	684.10
576.43	683.79
576.78	683.50
577.13	683.32
577.49	683.16
577.84	683.07
578.19	683.00
578.54	682.95
578.90	683.00
579.25	682.70
579.60	682.15
579.95	681.40
580.30	681.31
580.66	681.26
581.01	681.02
581.36	680.65
581.71	680.18
582.06	680.05
582.42	679.59
582.77	679.20
583.12	678.92
583.47	678.42
583.82	677.96
584.17	677.66
584.53	677.43
584.88	676.93
585.23	676.55
585.58	675.86
585.93	675.27
586.28	674.72
586.63	674.10
586.98	673.81
587.34	673.52
587.69	672.87
588.04	672.22
588.39	671.68
588.74	671.03
589.09	670.73
589.44	669.70
589.79	669.10
590.14	668.56
590.49	667.82
590.84	667.05
591.19	666.53
591.54	665.75
591.89	664.47
592.25	663.91
592.60	662.73
592.95	661.80
593.30	660.84
593.65	659.59
594.00	658.47
594.35	658.31
594.70	657.23
595.05	656.25
595.40	655.06
595.75	653.81
596.10	652.75
596.45	651.60
596.80	650.91
597.15	650.04
597.50	648.96
597.85	648.03
598.19	646.92
598.54	645.78
598.89	644.85
599.24	644.10
599.59	642.94
599.94	642.21
600.29	641.11
600.64	640.16
600.99	639.31
601.34	638.60
601.69	636.66
602.04	635.47
602.39	634.43
602.74	633.65
603.08	632.85
603.43	632.11
603.78	631.12
604.13	629.87
604.48	628.80
604.83	627.95
605.18	627.16
605.53	626.14
605.87	625.23
606.22	624.47
606.57	623.45
606.92	622.36
607.27	621.14
607.62	620.15
607.96	619.16
608.31	618.12
608.66	616.88
609.01	615.56
609.36	614.35
609.70	613.09
610.05	611.70
610.40	610.50
610.75	609.10
611.10	607.94
611.44	606.39
611.79	604.78
612.14	603.10
612.49	601.30
612.83	599.78
613.18	598.09
613.53	596.25
613.88	594.49
614.22	592.75
614.57	591.10
614.92	589.45
615.27	587.60
615.61	585.90
615.96	584.24
616.31	582.77
616.65	581.43
617.00	579.76
617.35	578.11
617.70	576.27
618.04	574.37
618.39	572.36
618.74	570.69
619.08	568.91
619.43	567.21
619.78	565.47
620.12	563.79
620.47	562.09
620.82	560.19
621.16	558.38
621.51	556.79
621.85	555.02
622.20	553.28
622.55	551.55
622.89	549.62
623.24	547.82
623.59	545.84
623.93	543.92
624.28	542.27
624.62	540.76
624.97	539.05
625.32	537.47
625.66	535.84
626.01	534.24
626.35	532.57
626.70	530.80
627.04	529.30
627.39	527.59
627.73	525.95
628.08	524.29
628.43	522.52
628.77	520.57
629.12	518.83
629.46	517.20
629.81	515.49
630.15	513.82
630.50	511.94
630.84	510.21
631.19	508.40
631.53	506.69
631.88	504.70
632.22	502.80
632.57	501.07
632.91	499.39
633.26	497.58
633.60	495.85
633.95	494.21
634.29	492.22
634.64	490.61
634.98	488.78
635.32	487.22
635.67	485.77
636.01	484.28
636.36	482.64
636.70	481.06
637.05	479.46
637.39	477.89
637.73	476.50
638.08	475.34
638.42	474.01
638.77	472.47
639.11	470.84
639.45	469.35
639.80	467.65
640.14	465.97
640.49	464.34
640.83	462.61
641.17	460.97
641.52	459.33
641.86	457.54
642.20	456.13
642.55	454.14
642.89	452.31
643.23	450.56
643.58	449.05
643.92	447.16
644.26	445.41
644.61	443.77
644.95	442.10
645.29	440.18
645.64	438.37
645.98	436.55
646.32	435.00
646.66	433.20
647.01	431.51
647.35	430.00
647.69	428.39
648.04	426.92
648.38	425.25
648.72	423.77
649.06	422.19
649.41	420.39
649.75	419.03
650.09	417.60
650.43	416.00
650.78	414.22
651.12	412.60
651.46	410.98
651.80	409.45
652.14	407.86
652.49	406.34
652.83	404.77
653.17	403.17
653.51	401.46
653.85	399.95
654.20	398.48
654.54	396.84
654.88	395.15
655.22	393.61
655.56	392.10
655.90	390.44
656.25	388.82
656.59	387.28
656.93	385.77
657.27	384.34
657.61	382.70
657.95	381.34
658.29	379.94
658.64	378.69
658.98	377.12
659.32	375.53
659.66	374.06
660.00	372.58
660.34	371.13
660.68	369.63
661.02	368.15
661.36	366.73
661.70	365.29
662.05	364.06
662.39	362.77
662.73	361.47
663.07	360.36
663.41	359.26
663.75	357.98
664.09	356.60
664.43	355.07
664.77	353.91
665.11	352.53
665.45	351.22
665.79	349.87
666.13	348.65
666.47	347.48
666.81	346.18
667.15	344.86
667.49	343.75
667.83	342.73
668.17	341.62
668.51	340.44
668.85	339.25
669.19	338.23
669.53	337.02
669.87	335.82
670.21	334.57
670.55	333.29
670.89	332.34
671.23	331.34
671.57	330.40
671.91	329.34
672.25	328.25
672.58	327.35
672.92	326.25
673.26	325.25
673.60	324.27
673.94	323.31
674.28	322.34
674.62	321.49
674.96	320.48
675.30	319.52
675.64	318.63
675.97	317.70
676.31	316.68
676.65	315.73
676.99	315.05
677.33	314.00
677.67	313.10
678.01	312.00
678.34	311.05
678.68	310.15
679.02	309.20
679.36	308.25
679.70	307.23
680.04	306.35
680.37	305.37
680.71	304.44
681.05	303.58
681.39	302.72
681.73	301.71
682.06	300.76
682.40	299.97
682.74	299.11
683.08	298.41
683.42	297.57
683.75	296.78
684.09	295.73
684.43	294.99
684.77	294.06
685.10	293.25
685.44	292.41
685.78	291.49
686.12	290.77
686.45	290.04
686.79	289.25
687.13	288.54
687.46	287.75
687.80	287.01
688.14	286.17
688.48	285.47
688.81	284.70
689.15	284.15
689.49	283.32
689.82	282.50
690.16	281.53
690.50	280.78
690.83	280.02
691.17	279.31
691.51	278.60
691.84	277.94
692.18	277.31
692.52	276.70
692.85	276.12
693.19	275.51
693.52	274.89
693.86	274.13
694.20	273.49
694.53	272.83
694.87	272.24
695.21	271.61
695.54	270.97
695.88	270.25
696.21	269.48
696.55	268.92
696.88	268.28
697.22	267.67
697.56	267.11
697.89	266.49
698.23	265.92
698.56	265.33
698.90	264.83
699.23	264.16
699.57	263.56
699.90	262.92
700.24	262.29
700.58	261.68
700.91	261.26
701.25	260.88
701.58	260.46
701.92	259.99
702.25	259.45
702.59	258.86
702.92	258.41
703.26	257.96
703.59	257.44
703.93	257.31
704.26	256.88
704.60	256.42
704.93	255.92
705.26	255.42
705.60	254.92
705.93	254.36
706.27	254.01
706.60	253.69
706.94	253.48
707.27	252.92
707.61	252.47
707.94	252.01
708.27	251.39
708.61	250.89
708.94	250.42
709.28	250.01
709.61	249.67
709.94	249.29
710.28	248.90
710.61	248.53
710.95	247.81
711.28	247.67
711.61	247.23
711.95	246.95
712.28	246.49
712.61	246.15
712.95	246.06
713.28	245.84
713.61	245.43
713.95	244.91
714.28	244.67
714.61	244.32
714.95	243.97
715.28	243.57
715.61	243.25
715.95	242.86
716.28	242.48
716.61	242.17
716.95	241.85
717.28	241.48
717.61	241.15
717.94	240.83
718.28	240.32
718.61	240.03
718.94	239.56
719.27	239.31
719.61	239.06
719.94	238.71
720.27	238.23
720.60	237.92
720.94	237.63
721.27	237.30
721.60	237.16
721.93	236.90
722.27	236.74
722.60	236.50
722.93	236.20
723.26	236.04
723.59	235.64
723.93	235.36
724.26	235.16
724.59	234.80
724.92	234.61
725.25	234.38
725.59	234.17
725.92	234.06
726.25	233.81
726.58	233.52
726.91	233.32
727.24	233.20
727.57	232.90
727.91	232.67
728.24	232.56
728.57	232.27
728.90	232.04
729.23	231.74
729.56	231.71
729.89	231.60
730.22	231.32
730.55	231.23
730.89	231.08
731.22	230.83
731.55	230.75
731.88	230.56
732.21	230.37
732.54	230.05
732.87	229.85
733.20	229.73
733.53	229.62
733.86	229.43
734.19	229.19
734.52	229.10
734.85	229.10
735.18	228.82
735.51	228.69
735.84	228.58
736.17	228.50
736.50	228.17
736.83	228.40
737.16	228.31
737.49	228.16
737.82	227.92
738.15	227.77
738.48	227.59
738.81	227.40
739.14	227.15
739.47	227.08
739.80	226.98
740.13	226.86
740.46	226.60
740.79	226.34
741.12	226.23
741.45	225.97
741.78	225.70
742.11	225.63
742.44	225.49
742.77	225.41
743.10	225.20
743.43	225.02
743.75	224.49
744.08	224.70
744.41	224.55
744.74	224.45
745.07	224.35
745.40	224.30
745.73	224.31
746.06	224.24
746.39	224.15
746.71	223.97
747.04	223.83
747.37	223.77
747.70	223.75
748.03	223.61
748.36	223.59
748.68	223.43
749.01	223.32
749.34	223.20
749.67	223.09
750.00	223.09
750.33	223.27
750.65	223.20
750.98	222.75
751.31	222.61
751.64	222.54
751.97	222.61
752.29	222.52
752.62	222.26
752.95	222.14
753.28	221.99
753.60	221.82
753.93	221.77
754.26	221.73
754.59	221.51
754.91	221.38
755.24	221.31
755.57	221.20
755.90	221.00
756.22	220.78
756.55	220.64
756.88	220.44
757.20	220.11
757.53	219.91
757.86	219.81
758.19	219.72
758.51	219.63
758.84	219.30
759.17	219.10
759.49	219.05
759.82	219.15
760.15	219.07
760.47	219.01
760.80	218.80
761.13	218.63
761.45	218.52
761.78	218.43
762.11	218.28
762.43	218.29
762.76	218.35
763.08	218.42
763.41	218.30
763.74	218.23
764.06	218.10
764.39	218.03
764.71	217.91
765.04	217.80
765.37	217.70
765.69	217.70
766.02	217.64
766.34	217.50
766.67	217.23
767.00	217.23
767.32	217.37
767.65	217.54
767.97	217.50
768.30	217.45
768.62	217.36
768.95	217.21
769.27	217.12
769.60	217.05
769.92	216.92
770.25	216.84
770.57	216.72
770.90	216.66
771.22	216.53
771.55	216.53
771.87	216.57
772.20	216.46
772.52	216.61
772.85	216.96
773.17	216.91
773.50	216.91
773.82	216.85
774.15	216.56
774.47	216.28
774.80	216.29
775.12	216.24
775.45	216.22
775.77	216.25
776.09	216.14
776.42	215.97
776.74	216.09
777.07	216.04
777.39	216.08
777.72	216.03
778.04	216.12
778.36	215.99
778.69	215.90
779.01	215.90
779.33	215.64
779.66	215.21
779.98	215.20
780.31	215.19
780.63	215.28
780.95	215.36
781.28	215.40
781.60	215.29
781.92	215.25
782.25	215.20
782.57	215.23
782.89	215.26
783.22	215.29
783.54	215.15
783.86	215.11
784.19	215.01
784.51	215.05
784.83	214.95
785.16	214.91
785.48	214.92
785.80	214.89
786.12	214.84
786.45	214.79
786.77	214.82
787.09	214.72
787.42	214.56
787.74	214.57
788.06	214.50
788.38	214.45
788.71	214.41
789.03	214.48
789.35	214.48
789.67	214.34
789.99	214.33
790.32	214.22
790.64	214.25
790.96	214.56
791.28	214.48
791.61	214.46
791.93	214.49
792.25	214.45
792.57	214.65
792.89	214.63
793.21	214.67
793.54	214.56
793.86	214.57
794.18	214.52
794.50	214.45
794.82	214.51
795.14	214.51
795.47	214.61
795.79	214.55
796.11	214.37
796.43	214.39
796.75	214.33
797.07	214.39
797.39	214.38
797.71	214.07
798.04	214.03
798.36	214.05
798.68	214.02
799.00	214.02
799.32	213.80
799.64	213.77
799.96	213.75
800.28	213.82
800.60	213.81
800.92	213.83
801.24	213.73
801.56	213.65
801.89	213.69
802.21	213.59
802.53	213.45
802.85	213.52
803.17	213.60
803.49	213.52
803.81	213.41
804.13	213.36
804.45	213.26
804.77	213.31
805.09	213.25
805.41	213.19
805.73	213.08
806.05	213.06
806.37	213.04
806.69	212.99
807.01	212.96
807.33	212.92
807.65	212.74
807.97	212.93
808.28	212.90
808.60	212.79
808.92	212.75
809.24	212.98
809.56	212.92
809.88	212.78
810.20	212.83
810.52	212.91
810.84	212.84
811.16	212.84
811.48	212.78
811.80	212.96
812.12	212.93
812.43	213.00
812.75	212.97
813.07	212.91
813.39	212.88
813.71	212.73
814.03	212.67
814.35	212.72
814.67	212.53
814.98	212.43
815.30	212.40
815.62	212.33
815.94	212.12
816.26	212.15
816.58	212.07
816.89	212.10
817.21	212.04
817.53	212.11
817.85	212.10
818.17	212.13
818.48	211.95
818.80	212.04
819.12	211.98
819.44	211.95
819.76	211.96
820.07	211.99
820.39	212.10
820.71	212.15
821.03	212.15
821.34	212.14
821.66	212.25
821.98	212.28
822.30	212.23
822.61	212.40
822.93	212.31
823.25	212.43
823.57	212.40
823.88	212.40
824.20	212.30
824.52	212.39
824.83	212.31
825.15	212.21
825.47	212.10
825.79	212.12
826.10	212.05
826.42	211.97
826.74	212.00
827.05	211.94
827.37	211.90
827.69	211.91
828.00	211.90
828.32	211.87
828.64	211.79
828.95	211.98
829.27	211.87
829.58	211.86
829.90	211.80
830.22	211.77
830.53	211.65
830.85	211.66
831.17	211.53
831.48	211.54
831.80	211.60
832.11	211.67
832.43	211.55
832.75	211.55
833.06	211.79
833.38	211.71
833.69	211.63
834.01	211.72
834.32	211.64
834.64	211.60
834.96	211.56
835.27	211.63
835.59	211.49
835.90	211.40
836.22	211.43
836.53	211.41
836.85	211.33
837.16	211.72
837.48	211.75
837.79	211.86
838.11	211.84
838.42	211.82
838.74	211.90
839.05	211.98
839.37	212.02
839.68	211.85
840.00	211.80
840.31	211.90
840.63	211.85
840.94	211.82
841.26	211.80
841.57	211.82
841.88	211.81
842.20	211.85
842.51	211.85
842.83	211.87
843.14	212.15
843.46	212.28
843.77	212.09
844.08	212.03
844.40	211.91
844.71	211.88
845.03	211.85
845.34	211.75
845.65	211.70
845.97	211.70
846.28	211.65
846.60	211.68
846.91	211.62
847.22	211.59
847.54	211.71
847.85	211.80
848.16	211.80
848.48	211.75
848.79	211.80
849.10	211.80
849.42	211.74
849.73	211.41
850.04	211.36
850.36	211.20
850.67	211.33
850.98	211.37
851.30	211.46
851.61	211.45
851.92	211.42
852.23	211.52
852.55	211.52
852.86	211.56
853.17	211.58
853.49	211.70
853.80	211.83
854.11	211.87
854.42	211.86
854.74	211.79
855.05	211.90
855.36	211.79
855.67	211.81
855.99	211.87
856.30	212.37
856.61	212.39
856.92	212.43
857.23	212.34
857.55	212.26
857.86	212.19
858.17	212.24
858.48	212.22
858.79	212.15
859.11	212.24
859.42	212.23
859.73	212.21
860.04	212.20
860.35	212.00
860.66	211.90
860.98	211.86
861.29	211.90
861.60	211.80
861.91	211.80
862.22	211.76
862.53	211.74
862.84	211.25
863.16	211.35
863.47	211.30
863.78	211.30
864.09	211.29
864.40	211.33
864.71	211.34
865.02	211.38
865.33	211.37
865.64	211.25
865.95	211.24
866.27	211.47
866.58	211.42
866.89	211.51
867.20	211.44
867.51	211.42
867.82	211.37
868.13	211.52
868.44	211.44
868.75	211.53
869.06	211.52
869.37	211.56
869.68	211.41
869.99	211.43
870.30	211.36
870.61	211.46
870.92	211.41
871.23	211.38
871.54	211.44
871.85	211.48
872.16	211.51
872.47	211.46
872.78	211.24
873.09	211.28
873.40	211.23
873.71	211.36
874.02	211.35
874.33	211.38
874.64	211.16
874.95	211.30
875.26	211.20
875.56	211.19
875.87	211.13
876.18	211.07
876.49	211.40
876.80	211.47
877.11	211.37
877.42	211.35
877.73	211.30
878.04	211.25
878.35	211.24
878.66	211.25
878.96	211.22
879.27	211.24
879.58	211.18
879.89	211.16
880.20	211.18
880.51	211.15
880.82	211.17
881.12	211.29
881.43	211.16
881.74	211.15
882.05	211.17
882.36	211.24
882.67	211.24
882.97	210.89
883.28	210.85
883.59	210.81
883.90	210.86
884.21	210.97
884.51	210.88
884.82	210.83
885.13	210.79
885.44	210.84
885.74	210.80
886.05	210.80
886.36	210.75
886.67	210.65
886.98	210.89
887.28	210.88
887.59	210.85
887.90	210.93
888.20	210.91
888.51	210.95
888.82	210.91
889.13	210.97
889.43	211.22
889.74	211.22
890.05	211.29
890.35	211.25
890.66	211.23
890.97	211.24
891.28	211.22
891.58	211.19
891.89	211.10
892.20	211.10
892.50	211.07
892.81	211.16
893.12	211.16
893.42	210.93
893.73	210.96
894.04	210.98
894.34	210.97
894.65	210.95
894.95	210.91
895.26	210.93
895.57	211.13
895.87	210.87
896.18	211.00
896.48	211.08
896.79	211.20
897.10	211.25
897.40	211.23
897.71	211.32
898.01	211.31
898.32	211.43
898.63	211.40
898.93	211.40
899.24	211.34
899.54	211.31
899.85	211.34
900.15	211.30
900.46	211.32
900.76	211.36
901.07	211.37
901.38	211.29
901.68	211.30
901.99	211.11
902.29	211.13
902.60	211.01
902.90	210.96
903.21	210.88
903.51	210.80
903.82	210.96
904.12	210.96
904.43	211.04
904.73	211.00
905.03	210.99
905.34	211.41
905.64	211.45
905.95	211.37
906.25	211.33
906.56	211.39
906.86	211.35
907.17	211.40
907.47	211.51
907.77	211.54
908.08	211.54
908.38	211.50
908.69	211.54
908.99	211.67
909.30	211.65
909.60	211.67
909.90	211.71
910.21	211.58
910.51	211.50
910.81	211.49
911.12	211.54
911.42	211.60
911.73	211.20
912.03	211.18
912.33	211.31
912.64	211.33
912.94	211.19
913.24	211.16
913.55	211.13
913.85	210.99
914.15	211.09
914.46	211.17
914.76	211.18
915.06	211.15
915.37	210.99
915.67	210.97
915.97	210.94
916.27	210.84
916.58	210.90
916.88	210.88
917.18	210.83
917.49	211.09
917.79	211.11
918.09	211.18
918.39	211.32
918.70	211.32
919.00	211.27
919.30	211.44
919.60	211.42
919.91	211.27
920.21	211.30
920.51	211.19
920.81	211.08
921.12	211.05
921.42	211.04
921.72	211.08
922.02	211.06
922.32	211.19
922.63	211.22
922.93	211.27
923.23	211.28
923.53	211.22
923.83	210.91
924.13	210.93
924.44	210.91
924.74	210.89
925.04	210.95
925.34	210.99
925.64	210.85
925.94	210.89
926.24	211.10
926.55	211.07
926.85	211.14
927.15	211.16
927.45	211.25
927.75	211.23
928.05	211.22
928.35	211.20
928.65	211.23
928.95	211.20
929.26	211.21
929.56	211.29
929.86	211.34
930.16	211.34
930.46	211.30
930.76	211.25
931.06	211.17
931.36	211.04
931.66	211.11
931.96	211.24
932.26	211.23
932.56	211.10
932.86	211.20
933.16	211.18
933.46	211.12
933.76	211.05
934.06	211.13
934.36	211.26
934.66	211.30
934.96	211.17
935.26	211.24
935.56	211.27
935.86	211.20
936.16	211.11
936.46	211.07
936.76	211.01
937.06	210.97
937.36	210.96
937.66	211.00
937.96	211.00
938.26	210.88
938.56	210.89
938.86	210.96
939.16	211.02
939.46	211.02
939.76	211.11
940.06	211.13
940.35	211.04
940.65	210.87
940.95	210.89
941.25	210.87
941.55	210.82
941.85	210.73
942.15	210.79
942.45	211.00
942.75	210.95
943.04	211.02
943.34	211.11
943.64	211.06
943.94	210.98
944.24	210.92
944.54	210.97
944.84	210.95
945.13	210.87
945.43	210.72
945.73	210.74
946.03	210.65
946.33	210.57
946.62	210.54
946.92	210.56
947.22	210.55
947.52	210.57
947.82	210.62
948.11	210.55
948.41	210.47
948.71	210.32
949.01	210.39
949.31	210.33
949.60	210.27
949.90	210.32
950.20	210.40
950.50	210.42
950.79	210.43
951.09	210.52
951.39	210.42
951.69	210.40
951.98	210.44
952.28	210.52
952.58	210.56
952.87	210.59
953.17	210.60
953.47	210.56
953.76	210.55
954.06	210.43
954.36	210.41
954.66	210.42
954.95	210.41
955.25	210.45
955.55	210.52
955.84	210.55
956.14	210.58
956.44	210.57
956.73	210.59
957.03	210.57
957.32	210.55
957.62	210.64
957.92	210.78
958.21	210.80
958.51	211.14
958.81	211.13
959.10	211.19
959.40	211.35
959.69	211.44
959.99	211.52
960.29	211.58
960.58	211.62
960.88	211.73
961.17	211.81
961.47	211.87
961.76	211.79
962.06	211.81
962.36	211.75
962.65	211.73
962.95	211.67
963.24	211.68
963.54	211.65
963.83	211.66
964.13	211.65
964.42	211.53
964.72	211.24
965.01	211.24
965.31	211.21
965.60	211.05
965.90	211.22
966.19	211.14
966.49	211.17
966.78	211.13
967.08	211.12
967.37	211.14
967.67	211.09
967.96	211.13
968.26	211.15
968.55	211.18
968.85	211.16
969.14	211.20
969.43	211.15
969.73	211.11
970.02	211.08
970.32	211.05
970.61	211.02
970.91	210.95
971.20	210.93
971.49	210.92
971.79	211.00
972.08	210.75
972.38	210.69
972.67	210.69
972.96	210.75
973.26	210.66
973.55	210.75
973.85	210.64
974.14	210.59
974.43	210.54
974.73	210.50
975.02	210.47
975.31	210.43
975.61	210.46
975.90	210.43
976.19	210.40
976.49	210.45
976.78	210.51
977.07	210.47
977.37	210.48
977.66	210.51
977.95	210.48
978.24	210.54
978.54	210.60
978.83	210.62
979.12	210.63
979.42	210.69
979.71	210.62
980.00	210.71
980.29	210.79
980.59	210.74
980.88	210.87
981.17	210.90
981.46	210.89
981.76	210.84
982.05	211.01
982.34	211.05
982.63	211.04
982.93	211.04
983.22	211.18
983.51	211.24
983.80	211.27
984.09	211.27
984.39	211.18
984.68	211.20
984.97	211.22
985.26	211.23
985.55	211.26
985.85	211.22
986.14	211.24
986.43	211.28
986.72	211.33
987.01	211.19
987.30	211.23
987.59	211.24
987.89	211.23
988.18	211.11
988.47	211.14
988.76	211.05
989.05	211.04
989.34	210.88
989.63	210.95
989.92	210.93
990.22	210.94
990.51	211.04
990.80	210.99
991.09	210.96
991.38	210.99
991.67	210.90
991.96	210.88
992.25	210.92
992.54	210.90
992.83	210.85
993.12	210.90
993.41	210.96
993.70	211.04
993.99	211.22
994.28	211.29
994.58	211.32
994.87	211.32
995.16	211.30
995.45	211.37
995.74	211.22
996.03	211.26
996.32	211.22
996.61	211.22
996.90	211.25
997.19	211.23
997.48	211.21
997.77	211.21
998.06	211.24
998.34	211.13
998.63	211.11
998.92	211.15
999.21	211.20
999.50	211.19
999.79	211.15
1000.08	211.04
1000.37	211.01
1000.66	210.94
1000.95	211.00
1001.24	211.01
1001.53	211.03
1001.82	211.07
1002.11	210.97
1002.40	211.07
1002.68	211.16
1002.97	211.44
1003.26	211.35
1003.55	211.28
1003.84	211.29
1004.13	211.31
1004.42	211.36
1004.71	211.32
1004.99	211.28
1005.28	211.32
1005.57	211.23
1005.86	211.10
1006.15	211.10
1006.44	211.10
1006.72	211.10
1007.01	211.09
1007.30	211.06
1007.59	211.05
1007.88	211.02
1008.17	210.97
1008.45	210.86
1008.74	210.68
1009.03	210.49
1009.32	210.58
1009.60	210.58
1009.89	210.56
1010.18	210.47
1010.47	210.45
1010.76	210.49
1011.04	210.46
1011.33	210.81
1011.62	210.85
1011.91	210.96
1012.19	210.92
1012.48	210.86
1012.77	210.81
1013.05	210.93
1013.34	211.00
1013.63	210.93
1013.92	210.93
1014.20	210.96
1014.49	211.00
1014.78	211.09
1015.06	210.94
1015.35	210.91
1015.64	210.95
1015.92	211.01
1016.21	211.00
1016.50	211.00
1016.78	211.00
1017.07	211.04
1017.36	210.64
1017.64	210.61
1017.93	210.63
1018.22	210.70
1018.50	210.65
1018.79	210.70
1019.08	210.52
1019.36	210.49
1019.65	210.48
1019.93	210.60
1020.22	210.65
1020.51	210.79
1020.79	210.72
1021.08	211.45
1021.36	209.00
1021.65	210.70
1021.94	209.60
1022.22	210.50
1022.51	209.80
1022.79	212.35
1023.08	211.20
1023.36	214.30
1023.65	209.70
>>>>>End Processed Spectral Data<<<<<
