SpectraSuite Data File
++++++++++++++++++++++++++++++++++++
Date: Mon Feb 25 17:16:16 EST 2013
User: group
Dark Spectrum Present: No
Reference Spectrum Present: No
Number of Sampled Component Spectra: 1
Spectrometers: USB2E7196
Integration Time (usec): 104000 (USB2E7196)
Spectra Averaged: 20 (USB2E7196)
Boxcar Smoothing: 10 (USB2E7196)
Correct for Electrical Dark: No (USB2E7196)
Strobe/Lamp Enabled: No (USB2E7196)
Correct for Detector Non-linearity: No (USB2E7196)
Correct for Stray Light: No (USB2E7196)
Number of Pixels in Processed Spectrum: 2048
>>>>>Begin Processed Spectral Data<<<<<
339.09	0.00
339.48	197.95
339.86	200.30
340.24	200.10
340.63	203.70
341.01	209.10
341.39	205.90
341.78	207.00
342.16	208.95
342.54	208.60
342.93	198.23
343.31	208.22
343.69	208.77
344.07	209.26
344.46	209.83
344.84	210.24
345.22	210.33
345.60	210.60
345.99	210.83
346.37	210.96
346.75	211.08
347.13	211.18
347.52	211.34
347.90	211.52
348.28	211.58
348.66	211.72
349.05	211.65
349.43	211.63
349.81	211.68
350.19	211.73
350.57	211.83
350.96	211.90
351.34	211.94
351.72	212.05
352.10	212.15
352.48	212.13
352.87	212.13
353.25	212.19
353.63	212.25
354.01	212.32
354.39	212.37
354.77	212.47
355.15	212.57
355.54	212.53
355.92	212.48
356.30	212.52
356.68	212.82
357.06	212.93
357.44	212.94
357.82	212.99
358.20	213.08
358.58	213.14
358.97	213.25
359.35	213.42
359.73	213.64
360.11	213.68
360.49	213.83
360.87	213.91
361.25	213.99
361.63	214.08
362.01	214.13
362.39	214.17
362.77	214.20
363.15	214.21
363.53	214.30
363.91	214.32
364.29	214.43
364.67	214.09
365.05	214.08
365.43	214.20
365.81	214.24
366.19	214.39
366.57	214.48
366.95	214.46
367.33	214.45
367.71	214.35
368.09	214.39
368.47	214.34
368.85	214.34
369.23	214.36
369.61	214.30
369.99	214.38
370.37	214.45
370.75	214.63
371.13	214.55
371.51	214.49
371.89	214.55
372.27	214.52
372.65	214.56
373.03	214.55
373.41	214.54
373.78	214.41
374.16	214.22
374.54	214.12
374.92	214.05
375.30	214.03
375.68	213.86
376.06	213.80
376.44	213.77
376.82	213.75
377.19	213.75
377.57	213.62
377.95	213.38
378.33	213.26
378.71	213.00
379.09	213.02
379.47	213.07
379.84	212.91
380.22	212.79
380.60	212.64
380.98	212.54
381.36	212.41
381.73	212.41
382.11	212.44
382.49	212.39
382.87	212.29
383.25	212.22
383.62	212.63
384.00	212.49
384.38	212.40
384.76	212.47
385.13	212.55
385.51	212.61
385.89	212.65
386.27	212.64
386.64	212.66
387.02	212.57
387.40	212.51
387.78	212.55
388.15	212.55
388.53	212.56
388.91	212.56
389.29	212.53
389.66	212.59
390.04	212.49
390.42	212.47
390.79	212.51
391.17	212.45
391.55	212.03
391.92	212.09
392.30	212.14
392.68	211.99
393.05	211.95
393.43	211.93
393.81	211.96
394.18	211.90
394.56	211.87
394.94	211.93
395.31	211.83
395.69	211.91
396.06	211.92
396.44	211.95
396.82	211.90
397.19	212.19
397.57	212.12
397.95	212.25
398.32	212.25
398.70	212.34
399.07	212.47
399.45	212.54
399.82	212.58
400.20	212.54
400.58	212.56
400.95	212.42
401.33	212.51
401.70	212.73
402.08	212.76
402.45	212.80
402.83	212.94
403.20	213.10
403.58	213.08
403.95	213.26
404.33	213.36
404.71	213.49
405.08	213.71
405.46	213.80
405.83	213.88
406.21	213.99
406.58	214.04
406.96	214.12
407.33	214.29
407.70	214.44
408.08	214.93
408.45	215.19
408.83	215.47
409.20	215.67
409.58	215.72
409.95	216.10
410.33	216.38
410.70	216.57
411.08	216.86
411.45	217.23
411.82	217.55
412.20	218.02
412.57	218.60
412.95	218.66
413.32	219.25
413.69	219.74
414.07	220.30
414.44	220.93
414.82	221.66
415.19	222.31
415.56	223.10
415.94	223.67
416.31	224.47
416.68	225.37
417.06	226.39
417.43	227.36
417.81	228.34
418.18	229.46
418.55	230.59
418.93	231.90
419.30	233.28
419.67	234.57
420.04	235.87
420.42	237.31
420.79	239.29
421.16	240.91
421.54	242.81
421.91	244.59
422.28	246.41
422.66	248.27
423.03	250.47
423.40	252.43
423.77	254.56
424.15	256.70
424.52	259.00
424.89	261.51
425.26	263.88
425.64	266.09
426.01	268.61
426.38	271.25
426.75	273.90
427.13	276.50
427.50	279.37
427.87	282.45
428.24	285.36
428.61	288.00
428.99	291.22
429.36	294.51
429.73	297.82
430.10	301.18
430.47	304.55
430.85	307.85
431.22	311.58
431.59	315.60
431.96	319.36
432.33	323.42
432.70	327.29
433.08	332.05
433.45	336.56
433.82	340.85
434.19	345.75
434.56	350.54
434.93	355.06
435.30	359.64
435.68	364.65
436.05	369.56
436.42	374.45
436.79	379.00
437.16	383.81
437.53	388.97
437.90	394.01
438.27	399.06
438.64	404.28
439.01	409.12
439.38	413.32
439.75	417.47
440.13	422.10
440.50	426.64
440.87	430.13
441.24	433.90
441.61	438.19
441.98	441.22
442.35	444.67
442.72	448.30
443.09	451.94
443.46	453.82
443.83	455.16
444.20	456.39
444.57	457.81
444.94	458.57
445.31	459.53
445.68	460.65
446.05	460.95
446.42	460.25
446.79	459.67
447.16	458.89
447.53	458.42
447.90	456.47
448.27	454.35
448.64	451.62
449.01	449.50
449.37	445.93
449.74	442.50
450.11	438.79
450.48	434.41
450.85	429.72
451.22	426.04
451.59	422.47
451.96	418.94
452.33	414.63
452.70	410.45
453.07	405.40
453.43	400.05
453.80	395.20
454.17	390.73
454.54	386.24
454.91	381.56
455.28	376.80
455.65	372.52
456.02	368.67
456.38	365.06
456.75	360.69
457.12	357.06
457.49	353.40
457.86	349.52
458.23	346.71
458.59	343.38
458.96	340.00
459.33	337.01
459.70	334.13
460.07	331.57
460.43	328.85
460.80	326.22
461.17	324.05
461.54	321.73
461.91	319.40
462.27	317.10
462.64	315.18
463.01	313.18
463.38	311.33
463.74	308.92
464.11	307.10
464.48	305.54
464.85	303.78
465.21	302.60
465.58	301.27
465.95	299.37
466.32	298.05
466.68	296.73
467.05	295.44
467.42	294.09
467.78	292.81
468.15	291.48
468.52	290.54
468.88	289.16
469.25	288.02
469.62	287.26
469.98	286.34
470.35	285.45
470.72	284.64
471.08	283.60
471.45	282.95
471.82	282.24
472.18	281.49
472.55	280.93
472.92	280.17
473.28	279.53
473.65	279.02
474.02	278.44
474.38	277.93
474.75	277.61
475.11	277.27
475.48	277.03
475.85	276.88
476.21	276.67
476.58	276.68
476.94	276.65
477.31	276.54
477.67	276.50
478.04	276.59
478.41	276.77
478.77	277.32
479.14	277.35
479.50	277.63
479.87	277.95
480.23	278.29
480.60	278.61
480.96	279.06
481.33	279.68
481.69	280.25
482.06	280.89
482.42	281.42
482.79	282.01
483.15	282.68
483.52	283.50
483.88	284.32
484.25	285.14
484.61	286.13
484.98	287.13
485.34	288.35
485.71	289.54
486.07	290.77
486.44	291.83
486.80	293.30
487.17	294.79
487.53	296.46
487.90	298.22
488.26	300.26
488.62	302.37
488.99	304.36
489.35	306.50
489.72	308.76
490.08	311.25
490.44	313.76
490.81	316.58
491.17	319.36
491.54	322.38
491.90	325.45
492.26	328.75
492.63	332.13
492.99	335.64
493.36	339.45
493.72	343.47
494.08	347.45
494.45	351.84
494.81	356.55
495.17	361.12
495.54	366.05
495.90	371.03
496.26	376.16
496.63	381.78
496.99	387.51
497.35	393.63
497.72	399.96
498.08	406.48
498.44	413.16
498.80	420.36
499.17	427.64
499.53	435.42
499.89	443.27
500.26	451.36
500.62	459.74
500.98	468.42
501.34	477.39
501.71	486.81
502.07	496.48
502.43	506.26
502.79	516.43
503.16	526.86
503.52	537.56
503.88	548.69
504.24	559.92
504.60	571.71
504.97	583.72
505.33	595.92
505.69	609.11
506.05	622.16
506.41	635.50
506.78	649.04
507.14	662.80
507.50	677.07
507.86	691.65
508.22	706.67
508.59	721.73
508.95	737.21
509.31	753.06
509.67	769.05
510.03	785.45
510.39	802.52
510.75	819.83
511.12	837.40
511.48	854.98
511.84	873.10
512.20	891.16
512.56	909.98
512.92	928.59
513.28	947.26
513.64	966.34
514.00	985.47
514.37	1005.10
514.73	1025.00
515.09	1044.85
515.45	1064.72
515.81	1084.77
516.17	1105.13
516.53	1125.70
516.89	1146.37
517.25	1167.17
517.61	1188.06
517.97	1208.59
518.33	1229.29
518.69	1250.12
519.05	1271.38
519.41	1292.63
519.77	1314.38
520.13	1335.10
520.49	1356.25
520.85	1377.56
521.21	1399.26
521.57	1420.88
521.93	1441.85
522.29	1463.67
522.65	1485.24
523.01	1506.87
523.37	1527.70
523.73	1549.00
524.09	1570.07
524.45	1591.32
524.81	1612.59
525.17	1633.57
525.53	1654.73
525.89	1675.68
526.25	1696.54
526.61	1716.48
526.97	1736.30
527.33	1756.31
527.68	1776.56
528.04	1796.45
528.40	1815.43
528.76	1834.51
529.12	1854.16
529.48	1874.14
529.84	1892.90
530.20	1911.92
530.56	1930.87
530.91	1950.55
531.27	1969.66
531.63	1988.06
531.99	2006.23
532.35	2023.84
532.71	2041.51
533.07	2059.51
533.42	2076.62
533.78	2093.82
534.14	2111.02
534.50	2127.20
534.86	2143.66
535.21	2159.11
535.57	2175.55
535.93	2191.38
536.29	2206.61
536.65	2221.58
537.00	2235.59
537.36	2249.66
537.72	2263.02
538.08	2276.24
538.44	2289.45
538.79	2302.59
539.15	2315.66
539.51	2328.34
539.87	2341.53
540.22	2353.66
540.58	2366.26
540.94	2378.49
541.29	2389.58
541.65	2400.01
542.01	2411.01
542.37	2420.98
542.72	2431.84
543.08	2440.87
543.44	2451.05
543.79	2460.06
544.15	2468.44
544.51	2477.55
544.87	2486.58
545.22	2495.05
545.58	2502.45
545.94	2508.99
546.29	2514.75
546.65	2520.40
547.01	2526.11
547.36	2531.17
547.72	2536.65
548.07	2540.25
548.43	2543.99
548.79	2547.56
549.14	2551.60
549.50	2555.07
549.86	2558.11
550.21	2560.16
550.57	2563.43
550.92	2564.96
551.28	2566.64
551.64	2568.66
551.99	2570.60
552.35	2571.41
552.70	2572.47
553.06	2573.72
553.41	2574.57
553.77	2575.54
554.13	2576.37
554.48	2576.74
554.84	2577.25
555.19	2576.50
555.55	2575.90
555.90	2574.63
556.26	2573.70
556.61	2572.67
556.97	2571.31
557.32	2569.94
557.68	2568.22
558.03	2565.90
558.39	2563.87
558.74	2562.84
559.10	2561.12
559.45	2558.74
559.81	2556.81
560.16	2553.98
560.52	2552.12
560.87	2549.74
561.23	2546.38
561.58	2543.89
561.94	2539.98
562.29	2535.69
562.64	2532.91
563.00	2529.90
563.35	2527.52
563.71	2525.30
564.06	2522.42
564.42	2519.42
564.77	2516.81
565.12	2514.38
565.48	2511.43
565.83	2508.43
566.19	2505.15
566.54	2500.32
566.89	2495.73
567.25	2491.79
567.60	2488.01
567.96	2483.39
568.31	2479.15
568.66	2474.55
569.02	2469.38
569.37	2464.46
569.72	2460.08
570.08	2454.62
570.43	2449.15
570.78	2443.29
571.14	2436.73
571.49	2430.38
571.84	2425.16
572.20	2418.31
572.55	2412.03
572.90	2405.03
573.26	2397.70
573.61	2390.18
573.96	2383.30
574.31	2375.98
574.67	2367.78
575.02	2359.57
575.37	2351.50
575.72	2343.25
576.08	2336.33
576.43	2327.80
576.78	2320.25
577.13	2312.79
577.49	2305.18
577.84	2297.28
578.19	2290.06
578.54	2283.16
578.90	2276.26
579.25	2267.70
579.60	2259.21
579.95	2250.74
580.30	2243.34
580.66	2236.51
581.01	2228.57
581.36	2220.43
581.71	2212.51
582.06	2204.85
582.42	2197.28
582.77	2188.91
583.12	2180.80
583.47	2173.17
583.82	2166.23
584.17	2158.33
584.53	2150.25
584.88	2142.50
585.23	2134.67
585.58	2126.75
585.93	2118.36
586.28	2110.67
586.63	2103.07
586.98	2096.02
587.34	2088.92
587.69	2081.08
588.04	2073.02
588.39	2065.66
588.74	2058.00
589.09	2050.90
589.44	2042.78
589.79	2035.48
590.14	2028.47
590.49	2021.41
590.84	2013.57
591.19	2006.76
591.54	1999.54
591.89	1991.18
592.25	1983.43
592.60	1975.39
592.95	1966.98
593.30	1958.42
593.65	1949.47
594.00	1941.09
594.35	1934.46
594.70	1926.44
595.05	1919.03
595.40	1911.14
595.75	1902.61
596.10	1895.69
596.45	1888.36
596.80	1881.88
597.15	1874.67
597.50	1867.01
597.85	1859.60
598.19	1852.03
598.54	1844.31
598.89	1837.27
599.24	1831.07
599.59	1824.08
599.94	1818.22
600.29	1811.67
600.64	1805.23
600.99	1798.21
601.34	1791.95
601.69	1783.70
602.04	1776.50
602.39	1768.77
602.74	1762.33
603.08	1756.50
603.43	1750.12
603.78	1743.36
604.13	1736.31
604.48	1729.63
604.83	1724.35
605.18	1718.80
605.53	1712.32
605.87	1705.34
606.22	1698.83
606.57	1691.76
606.92	1684.73
607.27	1677.26
607.62	1670.35
607.96	1663.94
608.31	1658.21
608.66	1650.95
609.01	1643.67
609.36	1636.35
609.70	1629.06
610.05	1621.37
610.40	1613.80
610.75	1605.87
611.10	1598.69
611.44	1590.43
611.79	1582.25
612.14	1573.31
612.49	1564.11
612.83	1556.25
613.18	1547.91
613.53	1539.63
613.88	1531.05
614.22	1523.22
614.57	1514.96
614.92	1506.82
615.27	1498.35
615.61	1489.67
615.96	1481.95
616.31	1474.75
616.65	1467.87
617.00	1460.80
617.35	1453.23
617.70	1445.10
618.04	1436.64
618.39	1427.61
618.74	1420.16
619.08	1412.15
619.43	1404.40
619.78	1396.97
620.12	1389.03
620.47	1381.48
620.82	1373.40
621.16	1365.55
621.51	1357.66
621.85	1349.90
622.20	1341.91
622.55	1334.23
622.89	1326.55
623.24	1318.89
623.59	1310.61
623.93	1302.39
624.28	1294.70
624.62	1287.18
624.97	1279.73
625.32	1272.86
625.66	1266.22
626.01	1258.77
626.35	1251.82
626.70	1244.54
627.04	1237.71
627.39	1230.80
627.73	1223.78
628.08	1217.13
628.43	1210.28
628.77	1203.12
629.12	1196.05
629.46	1189.66
629.81	1182.80
630.15	1175.72
630.50	1168.81
630.84	1161.83
631.19	1155.04
631.53	1148.16
631.88	1140.83
632.22	1133.70
632.57	1126.90
632.91	1119.86
633.26	1113.12
633.60	1106.54
633.95	1100.26
634.29	1093.24
634.64	1086.78
634.98	1079.80
635.32	1073.31
635.67	1067.28
636.01	1061.11
636.36	1054.60
636.70	1048.23
637.05	1041.89
637.39	1035.96
637.73	1029.93
638.08	1024.54
638.42	1018.69
638.77	1012.71
639.11	1006.96
639.45	1001.29
639.80	994.90
640.14	988.67
640.49	982.56
640.83	976.34
641.17	970.20
641.52	964.15
641.86	957.78
642.20	952.02
642.55	945.52
642.89	938.90
643.23	932.61
643.58	927.01
643.92	920.60
644.26	914.68
644.61	908.68
644.95	902.50
645.29	896.12
645.64	890.00
645.98	883.90
646.32	878.11
646.66	871.99
647.01	866.47
647.35	860.87
647.69	854.80
648.04	849.08
648.38	843.10
648.72	837.23
649.06	831.50
649.41	825.81
649.75	820.12
650.09	814.97
650.43	809.43
650.78	803.55
651.12	797.93
651.46	792.42
651.80	786.80
652.14	781.50
652.49	776.03
652.83	770.39
653.17	764.52
653.51	758.87
653.85	753.53
654.20	747.91
654.54	742.44
654.88	737.24
655.22	731.87
655.56	726.44
655.90	721.18
656.25	715.77
656.59	710.42
656.93	705.49
657.27	700.43
657.61	694.99
657.95	689.98
658.29	685.21
658.64	680.29
658.98	675.28
659.32	669.91
659.66	665.10
660.00	660.21
660.34	655.48
660.68	650.61
661.02	645.79
661.36	641.21
661.70	636.53
662.05	632.23
662.39	627.97
662.73	623.90
663.07	619.85
663.41	615.78
663.75	611.69
664.09	607.19
664.43	602.62
664.77	598.71
665.11	594.59
665.45	590.54
665.79	586.52
666.13	582.53
666.47	578.81
666.81	574.95
667.15	571.05
667.49	567.73
667.83	564.13
668.17	560.54
668.51	556.99
668.85	553.54
669.19	550.05
669.53	546.37
669.87	542.67
670.21	539.10
670.55	535.59
670.89	532.30
671.23	529.35
671.57	526.15
671.91	522.80
672.25	519.45
672.58	516.11
672.92	512.83
673.26	509.81
673.60	506.75
673.94	503.65
674.28	500.82
674.62	497.70
674.96	494.78
675.30	491.78
675.64	488.82
675.97	485.88
676.31	483.02
676.65	480.23
676.99	477.65
677.33	474.68
677.67	471.84
678.01	468.95
678.34	466.07
678.68	463.42
679.02	460.66
679.36	458.04
679.70	455.45
680.04	452.89
680.37	450.18
680.71	447.52
681.05	445.05
681.39	442.41
681.73	439.74
682.06	437.30
682.40	434.98
682.74	432.64
683.08	430.30
683.42	427.80
683.75	425.43
684.09	422.93
684.43	420.60
684.77	418.18
685.10	415.76
685.44	413.36
685.78	410.98
686.12	408.97
686.45	406.88
686.79	404.70
687.13	402.68
687.46	400.61
687.80	398.55
688.14	396.37
688.48	394.37
688.81	392.32
689.15	390.16
689.49	388.05
689.82	385.96
690.16	383.69
690.50	381.46
690.83	379.47
691.17	377.40
691.51	375.46
691.84	373.69
692.18	372.02
692.52	370.25
692.85	368.55
693.19	366.70
693.52	364.80
693.86	362.84
694.20	360.97
694.53	359.23
694.87	357.45
695.21	355.68
695.54	353.93
695.88	352.12
696.21	350.35
696.55	348.71
696.88	347.04
697.22	345.42
697.56	344.08
697.89	342.36
698.23	340.75
698.56	339.15
698.90	337.70
699.23	335.95
699.57	334.38
699.90	332.78
700.24	331.25
700.58	329.79
700.91	328.53
701.25	327.25
701.58	325.89
701.92	324.50
702.25	323.05
702.59	321.63
702.92	320.35
703.26	319.04
703.59	317.70
703.93	316.72
704.26	315.52
704.60	314.20
704.93	312.92
705.26	311.74
705.60	310.53
705.93	309.10
706.27	308.02
706.60	306.95
706.94	305.95
707.27	304.71
707.61	303.59
707.94	302.39
708.27	301.01
708.61	299.80
708.94	298.72
709.28	297.74
709.61	296.69
709.94	295.79
710.28	294.78
710.61	293.86
710.95	292.52
711.28	291.80
711.61	290.89
711.95	290.13
712.28	289.23
712.61	288.35
712.95	287.74
713.28	287.01
713.61	286.12
713.95	285.14
714.28	284.28
714.61	283.40
714.95	282.60
715.28	281.77
715.61	280.94
715.95	280.00
716.28	279.08
716.61	278.26
716.95	277.35
717.28	276.64
717.61	275.79
717.94	275.10
718.28	274.07
718.61	273.31
718.94	272.45
719.27	271.70
719.61	270.99
719.94	270.19
720.27	269.26
720.60	268.52
720.94	267.78
721.27	267.20
721.60	266.54
721.93	265.90
722.27	265.39
722.60	264.85
722.93	264.24
723.26	263.69
723.59	263.04
723.93	262.45
724.26	261.89
724.59	261.41
724.92	260.86
725.25	260.41
725.59	259.76
725.92	259.23
726.25	258.71
726.58	258.24
726.91	257.67
727.24	257.18
727.57	256.70
727.91	256.18
728.24	255.74
728.57	255.27
728.90	254.79
729.23	254.17
729.56	253.85
729.89	253.39
730.22	253.00
730.55	252.58
730.89	252.11
731.22	251.64
731.55	251.06
731.88	250.60
732.21	250.13
732.54	249.77
732.87	249.34
733.20	248.91
733.53	248.50
733.86	248.12
734.19	247.72
734.52	247.37
734.85	247.27
735.18	246.82
735.51	246.57
735.84	246.22
736.17	245.97
736.50	245.46
736.83	245.51
737.16	245.08
737.49	244.65
737.82	244.27
738.15	243.88
738.48	243.68
738.81	243.29
739.14	242.95
739.47	242.58
739.80	242.27
740.13	241.93
740.46	241.49
740.79	241.09
741.12	240.76
741.45	240.36
741.78	239.79
742.11	239.56
742.44	239.11
742.77	238.80
743.10	238.44
743.43	238.01
743.75	237.34
744.08	237.55
744.41	237.25
744.74	236.97
745.07	236.71
745.40	236.41
745.73	236.30
746.06	235.96
746.39	235.67
746.71	235.33
747.04	234.99
747.37	234.70
747.70	234.51
748.03	234.29
748.36	234.10
748.68	233.99
749.01	233.60
749.34	233.43
749.67	233.19
750.00	232.91
750.33	233.01
750.65	232.73
750.98	232.00
751.31	231.83
751.64	231.59
751.97	231.50
752.29	231.27
752.62	230.89
752.95	230.63
753.28	230.39
753.60	230.15
753.93	230.07
754.26	229.92
754.59	229.55
754.91	229.23
755.24	229.05
755.57	228.68
755.90	228.53
756.22	228.28
756.55	228.04
756.88	227.87
757.20	227.33
757.53	227.14
757.86	226.95
758.19	226.76
758.51	226.60
758.84	226.20
759.17	225.95
759.49	225.77
759.82	225.79
760.15	225.62
760.47	225.45
760.80	225.12
761.13	224.97
761.45	224.84
761.78	224.75
762.11	224.52
762.43	224.34
762.76	224.17
763.08	224.04
763.41	223.87
763.74	223.72
764.06	223.65
764.39	223.51
764.71	223.34
765.04	223.13
765.37	222.89
765.69	222.78
766.02	222.61
766.34	222.51
766.67	222.18
767.00	222.16
767.32	222.21
767.65	222.37
767.97	222.16
768.30	222.06
768.62	221.94
768.95	221.82
769.27	221.74
769.60	221.64
769.92	221.46
770.25	221.36
770.57	221.16
770.90	221.07
771.22	220.88
771.55	220.83
771.87	220.77
772.20	220.70
772.52	220.88
772.85	221.16
773.17	221.09
773.50	220.99
773.82	220.75
774.15	220.46
774.47	220.08
774.80	219.94
775.12	219.80
775.45	219.65
775.77	219.57
776.09	219.45
776.42	219.37
776.74	219.34
777.07	219.20
777.39	219.13
777.72	218.99
778.04	219.00
778.36	218.87
778.69	218.86
779.01	218.83
779.33	218.49
779.66	218.03
779.98	217.90
780.31	217.83
780.63	217.95
780.95	217.98
781.28	217.92
781.60	217.80
781.92	217.84
782.25	217.81
782.57	217.80
782.89	217.72
783.22	217.69
783.54	217.57
783.86	217.53
784.19	217.51
784.51	217.52
784.83	217.40
785.16	217.36
785.48	217.19
785.80	217.09
786.12	217.05
786.45	217.00
786.77	216.97
787.09	216.90
787.42	216.68
787.74	216.64
788.06	216.63
788.38	216.65
788.71	216.52
789.03	216.45
789.35	216.50
789.67	216.42
789.99	216.33
790.32	216.29
790.64	216.24
790.96	216.50
791.28	216.40
791.61	216.33
791.93	216.27
792.25	216.28
792.57	216.43
792.89	216.30
793.21	216.30
793.54	216.21
793.86	216.24
794.18	216.25
794.50	216.11
794.82	216.08
795.14	216.08
795.47	216.14
795.79	216.10
796.11	215.89
796.43	215.87
796.75	215.88
797.07	215.83
797.39	215.82
797.71	215.49
798.04	215.44
798.36	215.43
798.68	215.44
799.00	215.41
799.32	215.24
799.64	215.28
799.96	215.23
800.28	215.29
800.60	215.18
800.92	215.14
801.24	215.08
801.56	215.05
801.89	215.03
802.21	214.94
802.53	214.83
802.85	214.91
803.17	215.05
803.49	214.95
803.81	214.91
804.13	214.89
804.45	214.80
804.77	214.81
805.09	214.81
805.41	214.68
805.73	214.59
806.05	214.46
806.37	214.45
806.69	214.41
807.01	214.33
807.33	214.32
807.65	214.20
807.97	214.42
808.28	214.38
808.60	214.35
808.92	214.29
809.24	214.54
809.56	214.45
809.88	214.30
810.20	214.25
810.52	214.36
810.84	214.24
811.16	214.22
811.48	214.20
811.80	214.29
812.12	214.25
812.43	214.32
812.75	214.35
813.07	214.26
813.39	214.36
813.71	214.30
814.03	214.23
814.35	214.26
814.67	214.10
814.98	214.02
815.30	214.01
815.62	213.97
815.94	213.70
816.26	213.70
816.58	213.59
816.89	213.61
817.21	213.50
817.53	213.53
817.85	213.50
818.17	213.46
818.48	213.30
818.80	213.42
819.12	213.37
819.44	213.24
819.76	213.28
820.07	213.12
820.39	213.10
820.71	213.12
821.03	213.14
821.34	213.04
821.66	213.10
821.98	213.06
822.30	213.01
822.61	213.23
822.93	213.20
823.25	213.22
823.57	213.12
823.88	213.23
824.20	213.20
824.52	213.28
824.83	213.25
825.15	213.22
825.47	213.18
825.79	213.12
826.10	213.12
826.42	213.05
826.74	213.24
827.05	213.21
827.37	213.26
827.69	213.21
828.00	213.25
828.32	213.24
828.64	213.26
828.95	213.52
829.27	213.40
829.58	213.37
829.90	213.45
830.22	213.53
830.53	213.38
830.85	213.36
831.17	213.26
831.48	213.25
831.80	213.25
832.11	213.26
832.43	213.23
832.75	213.26
833.06	213.48
833.38	213.26
833.69	213.23
834.01	213.20
834.32	213.14
834.64	213.08
834.96	213.02
835.27	212.95
835.59	212.74
835.90	212.66
836.22	212.62
836.53	212.51
836.85	212.49
837.16	212.80
837.48	212.83
837.79	212.93
838.11	212.99
838.42	213.04
838.74	213.07
839.05	213.08
839.37	213.07
839.68	212.86
840.00	212.91
840.31	212.97
840.63	212.89
840.94	212.88
841.26	212.86
841.57	212.92
841.88	212.91
842.20	212.87
842.51	212.90
842.83	212.88
843.14	213.20
843.46	213.17
843.77	212.96
844.08	212.85
844.40	212.72
844.71	212.60
845.03	212.52
845.34	212.47
845.65	212.45
845.97	212.44
846.28	212.43
846.60	212.41
846.91	212.40
847.22	212.35
847.54	212.42
847.85	212.39
848.16	212.35
848.48	212.33
848.79	212.48
849.10	212.38
849.42	212.44
849.73	212.09
850.04	212.10
850.36	211.99
850.67	212.10
850.98	212.07
851.30	212.12
851.61	212.16
851.92	212.04
852.23	212.18
852.55	212.19
852.86	212.18
853.17	212.13
853.49	212.18
853.80	212.32
854.11	212.35
854.42	212.45
854.74	212.44
855.05	212.49
855.36	212.21
855.67	212.21
855.99	212.13
856.30	212.54
856.61	212.50
856.92	212.47
857.23	212.48
857.55	212.55
857.86	212.48
858.17	212.49
858.48	212.50
858.79	212.30
859.11	212.28
859.42	212.27
859.73	212.26
860.04	212.12
860.35	212.00
860.66	211.91
860.98	211.86
861.29	211.87
861.60	211.80
861.91	212.00
862.22	212.01
862.53	211.99
862.84	211.54
863.16	211.63
863.47	211.67
863.78	211.66
864.09	211.61
864.40	211.69
864.71	211.61
865.02	211.68
865.33	211.73
865.64	211.64
865.95	211.69
866.27	211.87
866.58	211.87
866.89	211.95
867.20	211.93
867.51	211.87
867.82	211.85
868.13	211.96
868.44	211.79
868.75	211.90
869.06	211.93
869.37	212.03
869.68	211.92
869.99	211.87
870.30	211.87
870.61	211.90
870.92	211.80
871.23	211.80
871.54	211.81
871.85	211.85
872.16	211.95
872.47	211.89
872.78	211.74
873.09	211.81
873.40	211.75
873.71	211.78
874.02	211.85
874.33	211.78
874.64	211.70
874.95	211.75
875.26	211.63
875.56	211.65
875.87	211.60
876.18	211.56
876.49	211.93
876.80	211.88
877.11	211.83
877.42	211.84
877.73	211.82
878.04	211.80
878.35	211.85
878.66	211.90
878.96	211.87
879.27	211.90
879.58	211.90
879.89	211.90
880.20	211.96
880.51	211.96
880.82	212.02
881.12	212.07
881.43	212.02
881.74	212.02
882.05	211.99
882.36	211.99
882.67	212.13
882.97	211.81
883.28	211.78
883.59	211.79
883.90	211.94
884.21	212.04
884.51	212.00
884.82	211.96
885.13	211.90
885.44	211.96
885.74	211.93
886.05	211.93
886.36	211.92
886.67	211.84
886.98	211.97
887.28	212.02
887.59	212.10
887.90	212.15
888.20	212.15
888.51	212.24
888.82	212.17
889.13	212.08
889.43	212.26
889.74	212.25
890.05	212.24
890.35	212.14
890.66	212.08
890.97	212.05
891.28	212.01
891.58	211.99
891.89	211.88
892.20	211.85
892.50	211.75
892.81	211.73
893.12	211.69
893.42	211.54
893.73	211.51
894.04	211.43
894.34	211.45
894.65	211.50
894.95	211.39
895.26	211.45
895.57	211.61
895.87	211.35
896.18	211.38
896.48	211.36
896.79	211.35
897.10	211.38
897.40	211.42
897.71	211.37
898.01	211.43
898.32	211.52
898.63	211.53
898.93	211.52
899.24	211.55
899.54	211.62
899.85	211.54
900.15	211.50
900.46	211.48
900.76	211.59
901.07	211.50
901.38	211.50
901.68	211.50
901.99	211.28
902.29	211.32
902.60	211.24
902.90	211.24
903.21	211.25
903.51	211.24
903.82	211.24
904.12	211.31
904.43	211.27
904.73	211.20
905.03	211.23
905.34	211.62
905.64	211.54
905.95	211.47
906.25	211.55
906.56	211.54
906.86	211.47
907.17	211.29
907.47	211.34
907.77	211.32
908.08	211.25
908.38	211.36
908.69	211.39
908.99	211.50
909.30	211.54
909.60	211.49
909.90	211.49
910.21	211.43
910.51	211.37
910.81	211.39
911.12	211.41
911.42	211.40
911.73	211.09
912.03	211.20
912.33	211.35
912.64	211.35
912.94	211.33
913.24	211.33
913.55	211.33
913.85	211.25
914.15	211.30
914.46	211.40
914.76	211.39
915.06	211.34
915.37	211.30
915.67	211.30
915.97	211.37
916.27	211.33
916.58	211.35
916.88	211.36
917.18	211.36
917.49	211.65
917.79	211.60
918.09	211.61
918.39	211.68
918.70	211.52
919.00	211.50
919.30	211.61
919.60	211.54
919.91	211.55
920.21	211.63
920.51	211.57
920.81	211.58
921.12	211.58
921.42	211.53
921.72	211.54
922.02	211.55
922.32	211.61
922.63	211.65
922.93	211.79
923.23	211.85
923.53	211.80
923.83	211.57
924.13	211.62
924.44	211.60
924.74	211.60
925.04	211.69
925.34	211.74
925.64	211.65
925.94	211.67
926.24	211.81
926.55	211.74
926.85	211.80
927.15	211.81
927.45	211.82
927.75	211.88
928.05	211.87
928.35	211.86
928.65	211.88
928.95	211.88
929.26	211.78
929.56	211.83
929.86	211.82
930.16	211.78
930.46	211.74
930.76	211.75
931.06	211.55
931.36	211.52
931.66	211.51
931.96	211.52
932.26	211.55
932.56	211.50
932.86	211.51
933.16	211.46
933.46	211.33
933.76	211.25
934.06	211.29
934.36	211.43
934.66	211.38
934.96	211.29
935.26	211.24
935.56	211.30
935.86	211.14
936.16	211.17
936.46	211.10
936.76	211.13
937.06	211.14
937.36	211.26
937.66	211.30
937.96	211.28
938.26	211.27
938.56	211.30
938.86	211.26
939.16	211.41
939.46	211.49
939.76	211.66
940.06	211.69
940.35	211.66
940.65	211.49
940.95	211.55
941.25	211.50
941.55	211.47
941.85	211.40
942.15	211.55
942.45	211.63
942.75	211.65
943.04	211.61
943.34	211.62
943.64	211.57
943.94	211.51
944.24	211.53
944.54	211.46
944.84	211.44
945.13	211.41
945.43	211.26
945.73	211.16
946.03	211.09
946.33	210.98
946.62	210.89
946.92	210.85
947.22	210.80
947.52	210.77
947.82	210.83
948.11	210.79
948.41	210.71
948.71	210.57
949.01	210.60
949.31	210.55
949.60	210.51
949.90	210.57
950.20	210.51
950.50	210.55
950.79	210.55
951.09	210.63
951.39	210.60
951.69	210.60
951.98	210.75
952.28	210.78
952.58	210.88
952.87	210.93
953.17	210.98
953.47	210.97
953.76	211.03
954.06	210.95
954.36	210.85
954.66	210.74
954.95	210.83
955.25	210.84
955.55	210.92
955.84	210.90
956.14	210.95
956.44	211.00
956.73	210.98
957.03	211.03
957.32	211.00
957.62	211.01
957.92	211.12
958.21	211.04
958.51	211.40
958.81	211.43
959.10	211.41
959.40	211.48
959.69	211.51
959.99	211.58
960.29	211.64
960.58	211.74
960.88	211.96
961.17	211.96
961.47	211.96
961.76	211.98
962.06	212.00
962.36	211.95
962.65	211.93
962.95	211.90
963.24	211.86
963.54	211.88
963.83	211.92
964.13	211.89
964.42	211.83
964.72	211.51
965.01	211.54
965.31	211.56
965.60	211.49
965.90	211.68
966.19	211.57
966.49	211.53
966.78	211.48
967.08	211.41
967.37	211.41
967.67	211.38
967.96	211.41
968.26	211.43
968.55	211.47
968.85	211.47
969.14	211.45
969.43	211.38
969.73	211.28
970.02	211.23
970.32	211.18
970.61	211.12
970.91	210.98
971.20	210.83
971.49	210.80
971.79	210.85
972.08	210.57
972.38	210.62
972.67	210.62
972.96	210.72
973.26	210.68
973.55	210.79
973.85	210.77
974.14	210.73
974.43	210.72
974.73	210.59
975.02	210.52
975.31	210.50
975.61	210.52
975.90	210.54
976.19	210.52
976.49	210.53
976.78	210.58
977.07	210.57
977.37	210.62
977.66	210.60
977.95	210.54
978.24	210.54
978.54	210.56
978.83	210.54
979.12	210.47
979.42	210.49
979.71	210.41
980.00	210.43
980.29	210.39
980.59	210.30
980.88	210.40
981.17	210.43
981.46	210.48
981.76	210.47
982.05	210.63
982.34	210.60
982.63	210.61
982.93	210.67
983.22	210.80
983.51	210.83
983.80	210.94
984.09	211.01
984.39	211.05
984.68	211.01
984.97	211.04
985.26	210.99
985.55	211.03
985.85	210.93
986.14	210.96
986.43	211.05
986.72	211.05
987.01	211.00
987.30	211.01
987.59	210.94
987.89	211.03
988.18	210.84
988.47	210.86
988.76	210.86
989.05	210.82
989.34	210.74
989.63	210.83
989.92	210.76
990.22	210.70
990.51	210.71
990.80	210.75
991.09	210.79
991.38	210.87
991.67	210.88
991.96	210.88
992.25	210.88
992.54	210.75
992.83	210.77
993.12	210.68
993.41	210.76
993.70	210.95
993.99	211.00
994.28	211.07
994.58	211.17
994.87	211.21
995.16	211.26
995.45	211.29
995.74	211.16
996.03	211.17
996.32	211.24
996.61	211.28
996.90	211.25
997.19	211.19
997.48	211.22
997.77	211.11
998.06	211.17
998.34	211.16
998.63	211.24
998.92	211.28
999.21	211.38
999.50	211.38
999.79	211.26
1000.08	211.23
1000.37	211.29
1000.66	211.22
1000.95	211.23
1001.24	211.24
1001.53	211.28
1001.82	211.28
1002.11	211.21
1002.40	211.26
1002.68	211.39
1002.97	211.68
1003.26	211.67
1003.55	211.58
1003.84	211.64
1004.13	211.73
1004.42	211.73
1004.71	211.77
1004.99	211.81
1005.28	211.85
1005.57	211.79
1005.86	211.71
1006.15	211.72
1006.44	211.64
1006.72	211.68
1007.01	211.67
1007.30	211.67
1007.59	211.66
1007.88	211.66
1008.17	211.73
1008.45	211.60
1008.74	211.44
1009.03	211.22
1009.32	211.23
1009.60	211.29
1009.89	211.29
1010.18	211.15
1010.47	211.11
1010.76	211.08
1011.04	211.04
1011.33	211.26
1011.62	211.37
1011.91	211.40
1012.19	211.35
1012.48	211.41
1012.77	211.40
1013.05	211.55
1013.34	211.49
1013.63	211.45
1013.92	211.50
1014.20	211.47
1014.49	211.51
1014.78	211.57
1015.06	211.56
1015.35	211.54
1015.64	211.57
1015.92	211.60
1016.21	211.55
1016.50	211.56
1016.78	211.58
1017.07	211.54
1017.36	211.32
1017.64	211.21
1017.93	211.30
1018.22	211.35
1018.50	211.32
1018.79	211.28
1019.08	211.11
1019.36	211.19
1019.65	211.18
1019.93	211.21
1020.22	211.24
1020.51	211.41
1020.79	211.34
1021.08	211.75
1021.36	210.60
1021.65	211.00
1021.94	211.10
1022.22	212.45
1022.51	210.70
1022.79	211.90
1023.08	211.15
1023.36	215.10
1023.65	210.45
>>>>>End Processed Spectral Data<<<<<
