SpectraSuite Data File
++++++++++++++++++++++++++++++++++++
Date: Mon Feb 25 17:02:42 EST 2013
User: group
Dark Spectrum Present: No
Reference Spectrum Present: No
Number of Sampled Component Spectra: 1
Spectrometers: USB2E7196
Integration Time (usec): 104000 (USB2E7196)
Spectra Averaged: 20 (USB2E7196)
Boxcar Smoothing: 10 (USB2E7196)
Correct for Electrical Dark: No (USB2E7196)
Strobe/Lamp Enabled: No (USB2E7196)
Correct for Detector Non-linearity: No (USB2E7196)
Correct for Stray Light: No (USB2E7196)
Number of Pixels in Processed Spectrum: 2048
>>>>>Begin Processed Spectral Data<<<<<
339.09	0.00
339.48	198.50
339.86	200.55
340.24	202.15
340.63	204.00
341.01	210.00
341.39	206.25
341.78	207.30
342.16	209.15
342.54	208.25
342.93	198.43
343.31	208.40
343.69	208.97
344.07	209.40
344.46	209.86
344.84	210.12
345.22	210.13
345.60	210.29
345.99	210.50
346.37	210.58
346.75	210.56
347.13	210.72
347.52	210.69
347.90	210.79
348.28	210.80
348.66	210.85
349.05	210.64
349.43	210.67
349.81	210.72
350.19	210.79
350.57	210.83
350.96	210.80
351.34	210.93
351.72	210.98
352.10	211.04
352.48	210.98
352.87	211.10
353.25	211.15
353.63	211.21
354.01	211.22
354.39	211.32
354.77	211.49
355.15	211.57
355.54	211.64
355.92	211.60
356.30	211.65
356.68	211.97
357.06	212.05
357.44	212.07
357.82	212.10
358.20	212.23
358.58	212.29
358.97	212.38
359.35	212.49
359.73	212.54
360.11	212.64
360.49	212.75
360.87	212.80
361.25	212.90
361.63	213.09
362.01	213.10
362.39	213.08
362.77	213.16
363.15	213.19
363.53	213.17
363.91	213.28
364.29	213.40
364.67	213.11
365.05	213.25
365.43	213.25
365.81	213.38
366.19	213.47
366.57	213.57
366.95	213.55
367.33	213.43
367.71	213.45
368.09	213.44
368.47	213.43
368.85	213.34
369.23	213.40
369.61	213.28
369.99	213.35
370.37	213.41
370.75	213.55
371.13	213.50
371.51	213.48
371.89	213.44
372.27	213.35
372.65	213.33
373.03	213.25
373.41	213.17
373.78	213.12
374.16	212.92
374.54	212.75
374.92	212.68
375.30	212.69
375.68	212.64
376.06	212.64
376.44	212.58
376.82	212.69
377.19	212.64
377.57	212.65
377.95	212.51
378.33	212.36
378.71	212.15
379.09	212.11
379.47	212.12
379.84	212.00
380.22	211.97
380.60	211.87
380.98	211.84
381.36	211.78
381.73	211.73
382.11	211.78
382.49	211.74
382.87	211.68
383.25	211.57
383.62	211.93
384.00	211.80
384.38	211.76
384.76	211.71
385.13	211.80
385.51	211.70
385.89	211.67
386.27	211.68
386.64	211.70
387.02	211.65
387.40	211.54
387.78	211.52
388.15	211.42
388.53	211.36
388.91	211.39
389.29	211.37
389.66	211.37
390.04	211.27
390.42	211.32
390.79	211.27
391.17	211.26
391.55	210.78
391.92	210.77
392.30	210.77
392.68	210.63
393.05	210.54
393.43	210.50
393.81	210.52
394.18	210.45
394.56	210.33
394.94	210.37
395.31	210.40
395.69	210.59
396.06	210.67
396.44	210.73
396.82	210.64
397.19	210.81
397.57	210.80
397.95	210.83
398.32	210.75
398.70	210.85
399.07	210.91
399.45	210.95
399.82	211.03
400.20	211.02
400.58	211.07
400.95	210.92
401.33	211.03
401.70	211.27
402.08	211.32
402.45	211.36
402.83	211.53
403.20	211.56
403.58	211.46
403.95	211.61
404.33	211.78
404.71	211.90
405.08	212.18
405.46	212.26
405.83	212.41
406.21	212.56
406.58	212.73
406.96	212.87
407.33	213.07
407.70	213.26
408.08	213.75
408.45	214.10
408.83	214.45
409.20	214.66
409.58	214.79
409.95	215.16
410.33	215.57
410.70	215.81
411.08	216.29
411.45	216.71
411.82	217.08
412.20	217.60
412.57	218.33
412.95	218.59
413.32	219.28
413.69	219.94
414.07	220.67
414.44	221.40
414.82	222.19
415.19	223.18
415.56	224.09
415.94	224.89
416.31	225.96
416.68	227.11
417.06	228.43
417.43	229.69
417.81	231.03
418.18	232.46
418.55	233.97
418.93	235.51
419.30	237.19
419.67	238.98
420.04	240.76
420.42	242.54
420.79	244.93
421.16	247.07
421.54	249.50
421.91	251.83
422.28	254.26
422.66	256.90
423.03	259.61
423.40	262.36
423.77	265.25
424.15	268.09
424.52	271.10
424.89	274.44
425.26	277.63
425.64	280.68
426.01	284.00
426.38	287.42
426.75	291.05
427.13	294.73
427.50	298.56
427.87	302.62
428.24	306.71
428.61	310.46
428.99	314.83
429.36	319.38
429.73	324.04
430.10	328.66
430.47	333.48
430.85	338.24
431.22	343.42
431.59	349.08
431.96	354.39
432.33	360.19
432.70	365.80
433.08	372.50
433.45	378.85
433.82	385.24
434.19	392.38
434.56	399.39
434.93	406.07
435.30	412.84
435.68	420.20
436.05	427.53
436.42	434.84
436.79	441.56
437.16	448.76
437.53	456.47
437.90	464.14
438.27	471.63
438.64	479.25
439.01	486.60
439.38	492.98
439.75	499.40
440.13	506.66
440.50	513.56
440.87	519.26
441.24	525.22
441.61	531.66
441.98	536.46
442.35	541.94
442.72	547.66
443.09	553.02
443.46	556.61
443.83	559.20
444.20	561.35
444.57	564.45
444.94	566.19
445.31	568.04
445.68	569.99
446.05	570.97
446.42	571.02
446.79	570.71
447.16	570.27
447.53	570.10
447.90	567.83
448.27	565.56
448.64	562.12
449.01	559.82
449.37	555.38
449.74	551.20
450.11	546.14
450.48	540.26
450.85	534.38
451.22	529.23
451.59	524.26
451.96	519.75
452.33	513.32
452.70	507.55
453.07	500.42
453.43	493.10
453.80	486.34
454.17	479.70
454.54	473.33
454.91	466.54
455.28	459.90
455.65	453.67
456.02	447.84
456.38	442.57
456.75	435.89
457.12	430.38
457.49	424.92
457.86	419.49
458.23	415.15
458.59	410.21
458.96	405.24
459.33	400.84
459.70	396.34
460.07	392.80
460.43	388.67
460.80	384.88
461.17	381.47
461.54	377.92
461.91	374.53
462.27	371.12
462.64	368.24
463.01	365.10
463.38	362.22
463.74	358.75
464.11	356.01
464.48	353.83
464.85	351.28
465.21	349.34
465.58	347.26
465.95	344.58
466.32	342.38
466.68	340.16
467.05	338.02
467.42	335.93
467.78	333.71
468.15	331.67
468.52	330.14
468.88	328.07
469.25	326.19
469.62	324.66
469.98	323.03
470.35	321.52
470.72	320.07
471.08	318.31
471.45	317.04
471.82	315.71
472.18	314.11
472.55	312.95
472.92	311.64
473.28	310.49
473.65	309.43
474.02	308.41
474.38	307.64
474.75	306.80
475.11	305.92
475.48	305.26
475.85	304.62
476.21	303.90
476.58	303.42
476.94	303.00
477.31	302.45
477.67	302.07
478.04	301.63
478.41	301.27
478.77	301.31
479.14	300.89
479.50	300.67
479.87	300.58
480.23	300.49
480.60	300.23
480.96	300.10
481.33	300.20
481.69	300.25
482.06	300.13
482.42	300.26
482.79	300.34
483.15	300.47
483.52	300.77
483.88	300.97
484.25	301.24
484.61	301.44
484.98	301.80
485.34	302.20
485.71	302.68
486.07	303.15
486.44	303.33
486.80	303.92
487.17	304.61
487.53	305.35
487.90	306.08
488.26	306.98
488.62	307.87
488.99	308.51
489.35	309.32
489.72	310.31
490.08	311.25
490.44	312.16
490.81	313.17
491.17	314.19
491.54	315.45
491.90	316.60
492.26	317.86
492.63	319.05
492.99	320.22
493.36	321.60
493.72	323.04
494.08	324.60
494.45	326.21
494.81	327.77
495.17	329.25
495.54	330.82
495.90	332.29
496.26	333.80
496.63	335.56
496.99	337.22
497.35	338.85
497.72	340.60
498.08	342.35
498.44	344.11
498.80	346.04
499.17	347.67
499.53	349.32
499.89	351.09
500.26	352.80
500.62	354.57
500.98	356.33
501.34	357.93
501.71	359.63
502.07	361.00
502.43	362.43
502.79	363.98
503.16	365.46
503.52	367.03
503.88	368.41
504.24	369.93
504.60	371.36
504.97	372.79
505.33	373.98
505.69	375.53
506.05	376.90
506.41	377.86
506.78	378.90
507.14	380.04
507.50	381.05
507.86	382.25
508.22	383.35
508.59	384.10
508.95	385.00
509.31	385.90
509.67	386.87
510.03	387.70
510.39	388.49
510.75	389.21
511.12	389.91
511.48	390.54
511.84	390.87
512.20	391.35
512.56	391.88
512.92	392.42
513.28	392.69
513.64	392.81
514.00	393.22
514.37	393.56
514.73	393.81
515.09	394.04
515.45	394.06
515.81	393.95
516.17	394.11
516.53	394.11
516.89	393.83
517.25	393.66
517.61	393.50
517.97	393.26
518.33	393.11
518.69	392.83
519.05	392.67
519.41	392.59
519.77	392.57
520.13	392.31
520.49	391.92
520.85	391.54
521.21	391.56
521.57	391.32
521.93	391.09
522.29	390.80
522.65	390.59
523.01	390.51
523.37	390.41
523.73	390.30
524.09	390.19
524.45	390.16
524.81	390.28
525.17	390.42
525.53	390.60
525.89	390.77
526.25	391.09
526.61	391.19
526.97	391.41
527.33	391.59
527.68	392.28
528.04	392.85
528.40	393.39
528.76	393.75
529.12	394.35
529.48	395.03
529.84	395.62
530.20	396.41
530.56	397.15
530.91	398.11
531.27	399.02
531.63	400.07
531.99	401.07
532.35	402.11
532.71	403.24
533.07	404.40
533.42	406.01
533.78	407.08
534.14	408.45
534.50	409.68
534.86	411.30
535.21	412.32
535.57	413.84
535.93	415.37
536.29	417.18
536.65	418.86
537.00	420.37
537.36	422.18
537.72	423.80
538.08	425.63
538.44	427.35
538.79	429.34
539.15	431.11
539.51	433.18
539.87	435.24
540.22	437.29
540.58	439.48
540.94	441.27
541.29	443.55
541.65	445.65
542.01	448.13
542.37	450.41
542.72	452.85
543.08	455.20
543.44	457.65
543.79	459.77
544.15	462.25
544.51	465.13
544.87	467.88
545.22	470.61
545.58	473.19
545.94	475.89
546.29	478.40
546.65	481.21
547.01	483.97
547.36	486.63
547.72	489.22
548.07	491.90
548.43	494.50
548.79	497.18
549.14	499.97
549.50	502.72
549.86	505.19
550.21	508.02
550.57	510.71
550.92	513.25
551.28	516.13
551.64	518.73
551.99	521.27
552.35	523.75
552.70	526.35
553.06	529.01
553.41	531.62
553.77	534.42
554.13	537.15
554.48	539.81
554.84	542.65
555.19	545.39
555.55	548.16
555.90	550.71
556.26	553.30
556.61	555.82
556.97	558.13
557.32	560.67
557.68	562.80
558.03	565.20
558.39	567.62
558.74	569.94
559.10	572.43
559.45	574.93
559.81	577.52
560.16	579.90
560.52	582.35
560.87	584.69
561.23	586.90
561.58	589.25
561.94	591.27
562.29	593.18
562.64	595.40
563.00	597.25
563.35	599.45
563.71	601.65
564.06	603.86
564.42	606.10
564.77	608.30
565.12	610.62
565.48	613.01
565.83	615.18
566.19	617.20
566.54	619.07
566.89	620.89
567.25	622.74
567.60	624.91
567.96	627.00
568.31	629.16
568.66	631.08
569.02	632.57
569.37	634.12
569.72	635.82
570.08	637.15
570.43	638.54
570.78	639.87
571.14	641.10
571.49	642.20
571.84	643.42
572.20	644.27
572.55	645.23
572.90	645.80
573.26	646.69
573.61	647.40
573.96	648.02
574.31	648.51
574.67	649.00
575.02	649.14
575.37	649.10
575.72	648.85
576.08	648.95
576.43	649.23
576.78	649.60
577.13	649.94
577.49	650.28
577.84	650.48
578.19	650.90
578.54	651.18
578.90	651.59
579.25	651.75
579.60	651.96
579.95	651.83
580.30	652.07
580.66	652.15
581.01	652.18
581.36	652.20
581.71	652.17
582.06	652.28
582.42	652.49
582.77	652.51
583.12	652.75
583.47	652.73
583.82	652.70
584.17	652.69
584.53	652.56
584.88	652.40
585.23	652.45
585.58	651.96
585.93	651.51
586.28	651.28
586.63	651.02
586.98	650.83
587.34	650.90
587.69	650.60
588.04	650.35
588.39	650.20
588.74	649.73
589.09	649.57
589.44	648.88
589.79	648.44
590.14	648.10
590.49	647.63
590.84	647.07
591.19	646.78
591.54	646.27
591.89	645.44
592.25	644.98
592.60	644.18
592.95	643.53
593.30	642.77
593.65	641.76
594.00	640.84
594.35	640.96
594.70	639.91
595.05	638.98
595.40	638.03
595.75	636.98
596.10	636.39
596.45	635.54
596.80	634.87
597.15	633.89
597.50	632.83
597.85	631.96
598.19	631.10
598.54	629.95
598.89	628.87
599.24	628.23
599.59	627.19
599.94	626.43
600.29	625.71
600.64	624.91
600.99	624.04
601.34	623.11
601.69	621.13
602.04	620.16
602.39	619.17
602.74	618.25
603.08	617.48
603.43	616.75
603.78	615.75
604.13	614.80
604.48	613.94
604.83	613.38
605.18	612.58
605.53	611.67
605.87	610.66
606.22	609.80
606.57	608.73
606.92	607.61
607.27	606.44
607.62	605.18
607.96	604.28
608.31	603.40
608.66	602.40
609.01	601.25
609.36	600.14
609.70	598.89
610.05	597.61
610.40	596.31
610.75	594.83
611.10	593.61
611.44	592.05
611.79	590.45
612.14	588.70
612.49	587.01
612.83	585.50
613.18	583.86
613.53	582.37
613.88	580.58
614.22	579.07
614.57	577.46
614.92	575.90
615.27	574.20
615.61	572.40
615.96	570.86
616.31	569.32
616.65	567.90
617.00	566.36
617.35	564.73
617.70	562.94
618.04	561.10
618.39	559.14
618.74	557.61
619.08	555.96
619.43	554.29
619.78	552.69
620.12	550.96
620.47	549.42
620.82	547.56
621.16	545.82
621.51	544.15
621.85	542.44
622.20	540.71
622.55	538.84
622.89	537.14
623.24	535.27
623.59	533.39
623.93	531.66
624.28	530.10
624.62	528.73
624.97	527.35
625.32	525.63
625.66	524.10
626.01	522.17
626.35	520.53
626.70	518.78
627.04	517.21
627.39	515.52
627.73	513.92
628.08	512.52
628.43	510.95
628.77	509.22
629.12	507.51
629.46	506.05
629.81	504.50
630.15	502.73
630.50	501.13
630.84	499.42
631.19	497.59
631.53	495.81
631.88	493.72
632.22	491.78
632.57	490.31
632.91	488.67
633.26	487.27
633.60	485.59
633.95	484.09
634.29	482.23
634.64	480.68
634.98	478.90
635.32	477.26
635.67	475.87
636.01	474.34
636.36	472.81
636.70	471.20
637.05	469.56
637.39	468.16
637.73	466.63
638.08	465.50
638.42	464.21
638.77	462.65
639.11	461.21
639.45	459.68
639.80	457.94
640.14	456.24
640.49	454.67
640.83	453.05
641.17	451.44
641.52	449.92
641.86	448.36
642.20	446.94
642.55	445.14
642.89	443.36
643.23	441.72
643.58	440.43
643.92	438.70
644.26	437.23
644.61	435.66
644.95	434.00
645.29	432.21
645.64	430.51
645.98	428.96
646.32	427.44
646.66	425.71
647.01	424.31
647.35	422.90
647.69	421.33
648.04	419.96
648.38	418.46
648.72	416.86
649.06	415.19
649.41	413.50
649.75	412.05
650.09	410.69
650.43	409.29
650.78	407.47
651.12	406.05
651.46	404.37
651.80	402.92
652.14	401.47
652.49	400.04
652.83	398.46
653.17	396.87
653.51	395.31
653.85	394.00
654.20	392.50
654.54	390.93
654.88	389.42
655.22	387.96
655.56	386.37
655.90	384.87
656.25	383.24
656.59	381.79
656.93	380.24
657.27	378.78
657.61	377.13
657.95	375.73
658.29	374.25
658.64	372.98
658.98	371.38
659.32	369.85
659.66	368.45
660.00	367.03
660.34	365.68
660.68	364.29
661.02	362.84
661.36	361.41
661.70	360.14
662.05	358.77
662.39	357.45
662.73	356.27
663.07	355.17
663.41	354.07
663.75	352.75
664.09	351.55
664.43	350.15
664.77	349.00
665.11	347.71
665.45	346.52
665.79	345.29
666.13	344.16
666.47	343.05
666.81	341.81
667.15	340.63
667.49	339.52
667.83	338.43
668.17	337.28
668.51	336.19
668.85	335.11
669.19	334.15
669.53	332.89
669.87	331.67
670.21	330.47
670.55	329.42
670.89	328.55
671.23	327.55
671.57	326.63
671.91	325.60
672.25	324.57
672.58	323.65
672.92	322.59
673.26	321.64
673.60	320.61
673.94	319.62
674.28	318.72
674.62	317.73
674.96	316.81
675.30	315.89
675.64	315.01
675.97	314.06
676.31	313.09
676.65	312.22
676.99	311.53
677.33	310.58
677.67	309.66
678.01	308.61
678.34	307.72
678.68	306.82
679.02	305.89
679.36	305.03
679.70	304.04
680.04	303.21
680.37	302.28
680.71	301.47
681.05	300.71
681.39	299.86
681.73	299.12
682.06	298.31
682.40	297.55
682.74	296.67
683.08	295.99
683.42	295.11
683.75	294.45
684.09	293.50
684.43	292.72
684.77	291.89
685.10	291.13
685.44	290.31
685.78	289.49
686.12	288.73
686.45	288.05
686.79	287.35
687.13	286.70
687.46	286.08
687.80	285.50
688.14	284.77
688.48	284.13
688.81	283.44
689.15	282.76
689.49	282.08
689.82	281.51
690.16	280.64
690.50	279.93
690.83	279.13
691.17	278.34
691.51	277.73
691.84	277.11
692.18	276.59
692.52	276.00
692.85	275.42
693.19	274.81
693.52	274.12
693.86	273.40
694.20	272.80
694.53	272.13
694.87	271.41
695.21	270.60
695.54	269.89
695.88	269.11
696.21	268.38
696.55	267.76
696.88	267.06
697.22	266.48
697.56	265.99
697.89	265.36
698.23	264.91
698.56	264.34
698.90	264.03
699.23	263.34
699.57	262.81
699.90	262.20
700.24	261.66
700.58	261.15
700.91	260.73
701.25	260.36
701.58	259.92
701.92	259.43
702.25	259.04
702.59	258.61
702.92	258.15
703.26	257.71
703.59	257.20
703.93	257.00
704.26	256.58
704.60	256.17
704.93	255.74
705.26	255.22
705.60	254.76
705.93	254.03
706.27	253.69
706.60	253.32
706.94	253.08
707.27	252.70
707.61	252.33
707.94	251.80
708.27	251.15
708.61	250.64
708.94	250.27
709.28	249.76
709.61	249.33
709.94	249.08
710.28	248.71
710.61	248.40
710.95	247.78
711.28	247.63
711.61	247.16
711.95	246.92
712.28	246.57
712.61	246.20
712.95	246.07
713.28	245.85
713.61	245.42
713.95	244.95
714.28	244.54
714.61	244.11
714.95	243.91
715.28	243.59
715.61	243.25
715.95	242.86
716.28	242.57
716.61	242.30
716.95	241.83
717.28	241.44
717.61	241.10
717.94	240.76
718.28	240.25
718.61	239.92
718.94	239.48
719.27	239.14
719.61	238.95
719.94	238.60
720.27	238.21
720.60	237.94
720.94	237.64
721.27	237.40
721.60	237.22
721.93	236.89
722.27	236.78
722.60	236.59
722.93	236.33
723.26	236.14
723.59	235.82
723.93	235.65
724.26	235.55
724.59	235.25
724.92	234.97
725.25	234.87
725.59	234.72
725.92	234.59
726.25	234.48
726.58	234.25
726.91	234.01
727.24	233.82
727.57	233.56
727.91	233.27
728.24	233.06
728.57	232.80
728.90	232.65
729.23	232.31
729.56	232.24
729.89	232.03
730.22	231.83
730.55	231.60
730.89	231.42
731.22	231.18
731.55	230.99
731.88	230.86
732.21	230.54
732.54	230.27
732.87	230.07
733.20	229.80
733.53	229.55
733.86	229.30
734.19	229.04
734.52	228.95
734.85	229.05
735.18	228.81
735.51	228.68
735.84	228.50
736.17	228.39
736.50	228.01
736.83	228.27
737.16	228.10
737.49	227.87
737.82	227.73
738.15	227.60
738.48	227.46
738.81	227.28
739.14	227.04
739.47	226.91
739.80	226.74
740.13	226.63
740.46	226.48
740.79	226.38
741.12	226.26
741.45	225.98
741.78	225.63
742.11	225.67
742.44	225.49
742.77	225.43
743.10	225.25
743.43	225.12
743.75	224.55
744.08	224.93
744.41	224.78
744.74	224.60
745.07	224.31
745.40	224.26
745.73	224.25
746.06	224.15
746.39	224.08
746.71	223.90
747.04	223.69
747.37	223.54
747.70	223.40
748.03	223.28
748.36	223.25
748.68	223.13
749.01	222.87
749.34	222.71
749.67	222.56
750.00	222.45
750.33	222.57
750.65	222.47
750.98	221.85
751.31	221.80
751.64	221.64
751.97	221.76
752.29	221.56
752.62	221.31
752.95	221.21
753.28	221.03
753.60	220.96
753.93	220.97
754.26	220.92
754.59	220.74
754.91	220.53
755.24	220.36
755.57	220.26
755.90	220.13
756.22	220.10
756.55	219.95
756.88	219.84
757.20	219.58
757.53	219.49
757.86	219.40
758.19	219.39
758.51	219.36
758.84	219.10
759.17	219.09
759.49	218.97
759.82	219.10
760.15	219.04
760.47	218.98
760.80	218.79
761.13	218.71
761.45	218.66
761.78	218.71
762.11	218.66
762.43	218.59
762.76	218.57
763.08	218.42
763.41	218.35
763.74	218.25
764.06	218.07
764.39	218.02
764.71	217.96
765.04	217.83
765.37	217.76
765.69	217.69
766.02	217.53
766.34	217.47
766.67	217.29
767.00	217.29
767.32	217.35
767.65	217.53
767.97	217.44
768.30	217.42
768.62	217.30
768.95	217.16
769.27	217.15
769.60	217.13
769.92	217.05
770.25	216.91
770.57	216.84
770.90	216.85
771.22	216.71
771.55	216.68
771.87	216.68
772.20	216.60
772.52	216.84
772.85	217.20
773.17	217.18
773.50	217.07
773.82	216.94
774.15	216.70
774.47	216.43
774.80	216.38
775.12	216.28
775.45	216.23
775.77	216.25
776.09	216.24
776.42	216.17
776.74	216.20
777.07	216.20
777.39	216.18
777.72	216.14
778.04	216.19
778.36	216.11
778.69	216.04
779.01	216.05
779.33	215.67
779.66	215.26
779.98	215.17
780.31	215.16
780.63	215.28
780.95	215.28
781.28	215.29
781.60	215.20
781.92	215.15
782.25	215.17
782.57	215.07
782.89	214.96
783.22	214.88
783.54	214.75
783.86	214.72
784.19	214.54
784.51	214.58
784.83	214.48
785.16	214.45
785.48	214.40
785.80	214.31
786.12	214.33
786.45	214.27
786.77	214.28
787.09	214.23
787.42	214.07
787.74	214.10
788.06	214.05
788.38	214.05
788.71	214.05
789.03	214.03
789.35	214.07
789.67	214.00
789.99	214.03
790.32	214.07
790.64	214.09
790.96	214.42
791.28	214.24
791.61	214.20
791.93	214.24
792.25	214.19
792.57	214.39
792.89	214.30
793.21	214.29
793.54	214.32
793.86	214.23
794.18	214.19
794.50	214.07
794.82	214.05
795.14	214.03
795.47	214.04
795.79	213.98
796.11	213.86
796.43	213.82
796.75	213.82
797.07	213.75
797.39	213.74
797.71	213.51
798.04	213.58
798.36	213.60
798.68	213.51
799.00	213.61
799.32	213.43
799.64	213.51
799.96	213.56
800.28	213.55
800.60	213.57
800.92	213.61
801.24	213.62
801.56	213.64
801.89	213.63
802.21	213.70
802.53	213.68
802.85	213.75
803.17	213.94
803.49	213.84
803.81	213.84
804.13	213.78
804.45	213.72
804.77	213.70
805.09	213.62
805.41	213.63
805.73	213.43
806.05	213.32
806.37	213.25
806.69	213.15
807.01	213.08
807.33	213.10
807.65	212.96
807.97	213.09
808.28	213.06
808.60	213.04
808.92	212.92
809.24	213.05
809.56	213.01
809.88	212.88
810.20	212.86
810.52	212.90
810.84	212.83
811.16	212.80
811.48	212.79
811.80	212.95
812.12	212.90
812.43	212.99
812.75	213.03
813.07	213.03
813.39	213.05
813.71	213.03
814.03	212.94
814.35	212.97
814.67	212.80
814.98	212.75
815.30	212.79
815.62	212.80
815.94	212.57
816.26	212.53
816.58	212.51
816.89	212.50
817.21	212.44
817.53	212.48
817.85	212.42
818.17	212.33
818.48	212.17
818.80	212.20
819.12	212.14
819.44	212.06
819.76	211.99
820.07	211.97
820.39	211.95
820.71	212.03
821.03	212.03
821.34	212.04
821.66	212.01
821.98	211.94
822.30	211.82
822.61	212.07
822.93	212.05
823.25	211.97
823.57	211.97
823.88	212.06
824.20	212.06
824.52	212.15
824.83	212.22
825.15	212.14
825.47	212.12
825.79	212.15
826.10	212.16
826.42	212.17
826.74	212.22
827.05	212.20
827.37	212.15
827.69	212.13
828.00	212.10
828.32	212.04
828.64	212.01
828.95	212.24
829.27	212.11
829.58	212.07
829.90	212.14
830.22	212.10
830.53	211.95
830.85	211.92
831.17	211.80
831.48	211.85
831.80	211.88
832.11	211.83
832.43	211.73
832.75	211.75
833.06	211.95
833.38	211.86
833.69	211.83
834.01	211.81
834.32	211.81
834.64	211.82
834.96	211.90
835.27	211.89
835.59	211.70
835.90	211.61
836.22	211.66
836.53	211.60
836.85	211.60
837.16	211.88
837.48	211.84
837.79	211.98
838.11	211.82
838.42	211.86
838.74	211.95
839.05	211.87
839.37	211.88
839.68	211.72
840.00	211.65
840.31	211.74
840.63	211.68
840.94	211.58
841.26	211.55
841.57	211.59
841.88	211.62
842.20	211.61
842.51	211.57
842.83	211.57
843.14	211.74
843.46	211.76
843.77	211.61
844.08	211.59
844.40	211.51
844.71	211.55
845.03	211.50
845.34	211.40
845.65	211.48
845.97	211.46
846.28	211.44
846.60	211.49
846.91	211.37
847.22	211.38
847.54	211.49
847.85	211.52
848.16	211.48
848.48	211.40
848.79	211.58
849.10	211.62
849.42	211.61
849.73	211.44
850.04	211.43
850.36	211.35
850.67	211.42
850.98	211.36
851.30	211.37
851.61	211.37
851.92	211.42
852.23	211.54
852.55	211.47
852.86	211.45
853.17	211.48
853.49	211.60
853.80	211.65
854.11	211.69
854.42	211.68
854.74	211.60
855.05	211.67
855.36	211.50
855.67	211.50
855.99	211.46
856.30	211.85
856.61	211.85
856.92	211.87
857.23	211.83
857.55	211.85
857.86	211.90
858.17	211.90
858.48	211.84
858.79	211.72
859.11	211.76
859.42	211.77
859.73	211.65
860.04	211.62
860.35	211.59
860.66	211.53
860.98	211.46
861.29	211.48
861.60	211.37
861.91	211.42
862.22	211.39
862.53	211.38
862.84	210.94
863.16	211.04
863.47	210.92
863.78	210.93
864.09	210.96
864.40	210.94
864.71	210.95
865.02	210.93
865.33	210.89
865.64	210.91
865.95	210.86
866.27	211.13
866.58	211.10
866.89	211.10
867.20	211.04
867.51	211.09
867.82	211.07
868.13	211.17
868.44	211.08
868.75	211.22
869.06	211.24
869.37	211.26
869.68	211.07
869.99	211.15
870.30	211.18
870.61	211.18
870.92	211.15
871.23	211.11
871.54	211.18
871.85	211.30
872.16	211.33
872.47	211.32
872.78	211.08
873.09	211.10
873.40	211.08
873.71	211.11
874.02	211.08
874.33	211.13
874.64	211.09
874.95	211.14
875.26	210.92
875.56	210.85
875.87	210.85
876.18	210.95
876.49	211.25
876.80	211.20
877.11	211.12
877.42	211.12
877.73	211.14
878.04	211.09
878.35	211.10
878.66	211.03
878.96	211.06
879.27	211.08
879.58	211.04
879.89	210.99
880.20	211.12
880.51	211.14
880.82	211.13
881.12	211.16
881.43	211.10
881.74	211.11
882.05	211.11
882.36	211.15
882.67	211.15
882.97	210.81
883.28	210.80
883.59	210.80
883.90	210.84
884.21	210.91
884.51	210.96
884.82	210.91
885.13	210.92
885.44	210.88
885.74	210.87
886.05	210.94
886.36	210.97
886.67	210.85
886.98	211.02
887.28	211.04
887.59	211.03
887.90	211.10
888.20	211.15
888.51	211.25
888.82	211.23
889.13	211.20
889.43	211.52
889.74	211.49
890.05	211.58
890.35	211.60
890.66	211.55
890.97	211.45
891.28	211.40
891.58	211.55
891.89	211.51
892.20	211.50
892.50	211.43
892.81	211.40
893.12	211.41
893.42	211.23
893.73	211.26
894.04	211.28
894.34	211.26
894.65	211.30
894.95	211.23
895.26	211.20
895.57	211.36
895.87	211.00
896.18	211.06
896.48	210.96
896.79	210.90
897.10	210.93
897.40	211.00
897.71	211.03
898.01	210.90
898.32	211.04
898.63	211.00
898.93	211.03
899.24	211.04
899.54	210.98
899.85	210.95
900.15	210.85
900.46	210.80
900.76	210.83
901.07	210.77
901.38	210.85
901.68	210.87
901.99	210.71
902.29	210.73
902.60	210.77
902.90	210.80
903.21	210.73
903.51	210.70
903.82	210.70
904.12	210.72
904.43	210.74
904.73	210.66
905.03	210.69
905.34	210.95
905.64	210.98
905.95	211.00
906.25	211.07
906.56	211.09
906.86	211.14
907.17	211.01
907.47	211.01
907.77	210.93
908.08	210.82
908.38	210.84
908.69	210.84
908.99	210.77
909.30	210.78
909.60	210.85
909.90	210.88
910.21	210.87
910.51	210.83
910.81	210.82
911.12	210.85
911.42	210.87
911.73	210.52
912.03	210.48
912.33	210.52
912.64	210.48
912.94	210.47
913.24	210.41
913.55	210.44
913.85	210.42
914.15	210.53
914.46	210.59
914.76	210.55
915.06	210.61
915.37	210.59
915.67	210.56
915.97	210.54
916.27	210.50
916.58	210.50
916.88	210.47
917.18	210.49
917.49	210.69
917.79	210.69
918.09	210.81
918.39	210.86
918.70	210.89
919.00	210.82
919.30	211.02
919.60	211.00
919.91	211.00
920.21	210.96
920.51	210.85
920.81	210.77
921.12	210.82
921.42	210.79
921.72	210.89
922.02	210.93
922.32	210.98
922.63	211.01
922.93	211.17
923.23	211.19
923.53	211.17
923.83	210.99
924.13	210.99
924.44	210.92
924.74	210.99
925.04	211.07
925.34	211.10
925.64	210.95
925.94	210.99
926.24	211.22
926.55	211.23
926.85	211.26
927.15	211.40
927.45	211.37
927.75	211.25
928.05	211.17
928.35	211.15
928.65	211.30
928.95	211.33
929.26	211.20
929.56	211.30
929.86	211.34
930.16	211.31
930.46	211.31
930.76	211.40
931.06	211.23
931.36	211.12
931.66	211.20
931.96	211.22
932.26	211.18
932.56	211.00
932.86	210.99
933.16	211.06
933.46	210.96
933.76	210.94
934.06	211.14
934.36	211.27
934.66	211.30
934.96	211.18
935.26	211.15
935.56	211.16
935.86	210.99
936.16	210.97
936.46	210.93
936.76	210.90
937.06	210.80
937.36	210.84
937.66	210.87
937.96	210.84
938.26	210.81
938.56	210.80
938.86	210.83
939.16	210.93
939.46	210.97
939.76	211.03
940.06	211.05
940.35	210.91
940.65	210.79
940.95	210.77
941.25	210.66
941.55	210.60
941.85	210.55
942.15	210.68
942.45	210.73
942.75	210.71
943.04	210.72
943.34	210.76
943.64	210.70
943.94	210.62
944.24	210.63
944.54	210.62
944.84	210.64
945.13	210.64
945.43	210.58
945.73	210.50
946.03	210.45
946.33	210.41
946.62	210.42
946.92	210.33
947.22	210.38
947.52	210.40
947.82	210.50
948.11	210.50
948.41	210.45
948.71	210.37
949.01	210.39
949.31	210.41
949.60	210.39
949.90	210.42
950.20	210.38
950.50	210.34
950.79	210.30
951.09	210.39
951.39	210.33
951.69	210.28
951.98	210.37
952.28	210.32
952.58	210.35
952.87	210.33
953.17	210.41
953.47	210.33
953.76	210.30
954.06	210.19
954.36	210.12
954.66	210.10
954.95	210.20
955.25	210.23
955.55	210.24
955.84	210.20
956.14	210.29
956.44	210.32
956.73	210.29
957.03	210.42
957.32	210.38
957.62	210.38
957.92	210.52
958.21	210.45
958.51	210.91
958.81	210.94
959.10	210.98
959.40	211.07
959.69	211.15
959.99	211.22
960.29	211.25
960.58	211.30
960.88	211.38
961.17	211.39
961.47	211.45
961.76	211.40
962.06	211.49
962.36	211.48
962.65	211.46
962.95	211.52
963.24	211.43
963.54	211.41
963.83	211.49
964.13	211.40
964.42	211.33
964.72	211.08
965.01	211.10
965.31	211.05
965.60	210.94
965.90	211.10
966.19	211.05
966.49	211.08
966.78	211.06
967.08	211.11
967.37	211.00
967.67	210.87
967.96	210.97
968.26	210.95
968.55	210.94
968.85	210.97
969.14	210.95
969.43	210.93
969.73	210.93
970.02	210.79
970.32	210.80
970.61	210.84
970.91	210.70
971.20	210.63
971.49	210.68
971.79	210.78
972.08	210.56
972.38	210.50
972.67	210.48
972.96	210.52
973.26	210.50
973.55	210.62
973.85	210.67
974.14	210.64
974.43	210.68
974.73	210.70
975.02	210.72
975.31	210.74
975.61	210.78
975.90	210.77
976.19	210.81
976.49	210.87
976.78	210.90
977.07	210.89
977.37	210.92
977.66	210.98
977.95	210.86
978.24	210.85
978.54	210.95
978.83	210.94
979.12	210.95
979.42	210.90
979.71	210.91
980.00	210.90
980.29	210.91
980.59	210.85
980.88	210.86
981.17	210.77
981.46	210.80
981.76	210.81
982.05	210.92
982.34	210.99
982.63	210.89
982.93	210.88
983.22	211.01
983.51	211.01
983.80	211.03
984.09	211.10
984.39	211.12
984.68	211.14
984.97	211.20
985.26	211.12
985.55	211.16
985.85	211.02
986.14	211.04
986.43	211.10
986.72	211.08
987.01	211.03
987.30	211.08
987.59	211.02
987.89	211.01
988.18	210.99
988.47	210.96
988.76	211.06
989.05	210.99
989.34	210.97
989.63	211.01
989.92	210.99
990.22	210.93
990.51	210.93
990.80	210.98
991.09	210.96
991.38	211.08
991.67	211.09
991.96	211.15
992.25	211.16
992.54	211.07
992.83	211.09
993.12	211.05
993.41	211.10
993.70	211.29
993.99	211.33
994.28	211.30
994.58	211.28
994.87	211.15
995.16	211.19
995.45	211.17
995.74	211.15
996.03	211.21
996.32	211.24
996.61	211.36
996.90	211.31
997.19	211.29
997.48	211.29
997.77	211.26
998.06	211.22
998.34	211.27
998.63	211.27
998.92	211.25
999.21	211.38
999.50	211.39
999.79	211.23
1000.08	211.22
1000.37	211.24
1000.66	211.25
1000.95	211.38
1001.24	211.42
1001.53	211.44
1001.82	211.37
1002.11	211.25
1002.40	211.40
1002.68	211.41
1002.97	211.62
1003.26	211.61
1003.55	211.45
1003.84	211.47
1004.13	211.63
1004.42	211.49
1004.71	211.48
1004.99	211.53
1005.28	211.51
1005.57	211.51
1005.86	211.48
1006.15	211.40
1006.44	211.36
1006.72	211.40
1007.01	211.30
1007.30	211.30
1007.59	211.30
1007.88	211.23
1008.17	211.30
1008.45	211.14
1008.74	210.96
1009.03	210.80
1009.32	210.84
1009.60	210.89
1009.89	210.82
1010.18	210.66
1010.47	210.68
1010.76	210.70
1011.04	210.65
1011.33	210.71
1011.62	210.72
1011.91	210.74
1012.19	210.77
1012.48	210.73
1012.77	210.74
1013.05	210.91
1013.34	210.91
1013.63	210.83
1013.92	211.00
1014.20	211.04
1014.49	211.12
1014.78	211.23
1015.06	211.10
1015.35	211.06
1015.64	211.18
1015.92	211.23
1016.21	211.21
1016.50	211.23
1016.78	211.29
1017.07	211.40
1017.36	211.34
1017.64	211.25
1017.93	211.30
1018.22	211.34
1018.50	211.36
1018.79	211.31
1019.08	211.20
1019.36	211.17
1019.65	211.14
1019.93	211.16
1020.22	211.11
1020.51	211.17
1020.79	211.08
1021.08	211.55
1021.36	210.15
1021.65	210.85
1021.94	211.25
1022.22	210.45
1022.51	209.65
1022.79	212.80
1023.08	211.15
1023.36	213.05
1023.65	210.00
>>>>>End Processed Spectral Data<<<<<
