SpectraSuite Data File
++++++++++++++++++++++++++++++++++++
Date: Mon Feb 25 16:55:42 EST 2013
User: group
Dark Spectrum Present: No
Reference Spectrum Present: No
Number of Sampled Component Spectra: 1
Spectrometers: USB2E7196
Integration Time (usec): 104000 (USB2E7196)
Spectra Averaged: 20 (USB2E7196)
Boxcar Smoothing: 10 (USB2E7196)
Correct for Electrical Dark: No (USB2E7196)
Strobe/Lamp Enabled: No (USB2E7196)
Correct for Detector Non-linearity: No (USB2E7196)
Correct for Stray Light: No (USB2E7196)
Number of Pixels in Processed Spectrum: 2048
>>>>>Begin Processed Spectral Data<<<<<
339.09	0.00
339.48	198.50
339.86	201.35
340.24	200.90
340.63	203.40
341.01	209.15
341.39	205.15
341.78	207.15
342.16	209.05
342.54	208.70
342.93	198.23
343.31	208.23
343.69	208.75
344.07	209.18
344.46	209.63
344.84	210.03
345.22	210.09
345.60	210.35
345.99	210.48
346.37	210.63
346.75	210.74
347.13	210.77
347.52	210.84
347.90	211.01
348.28	211.09
348.66	211.23
349.05	211.14
349.43	211.15
349.81	211.17
350.19	211.22
350.57	211.31
350.96	211.41
351.34	211.52
351.72	211.59
352.10	211.64
352.48	211.72
352.87	211.71
353.25	211.83
353.63	211.86
354.01	211.94
354.39	211.95
354.77	211.96
355.15	212.15
355.54	212.14
355.92	212.00
356.30	212.02
356.68	212.24
357.06	212.32
357.44	212.34
357.82	212.38
358.20	212.39
358.58	212.42
358.97	212.49
359.35	212.58
359.73	212.73
360.11	212.80
360.49	212.90
360.87	212.95
361.25	213.02
361.63	213.23
362.01	213.30
362.39	213.32
362.77	213.41
363.15	213.42
363.53	213.50
363.91	213.62
364.29	213.66
364.67	213.45
365.05	213.55
365.43	213.67
365.81	213.68
366.19	213.90
366.57	214.11
366.95	214.07
367.33	213.96
367.71	213.99
368.09	214.06
368.47	214.01
368.85	214.04
369.23	214.08
369.61	213.96
369.99	214.14
370.37	214.19
370.75	214.40
371.13	214.34
371.51	214.25
371.89	214.22
372.27	214.25
372.65	214.23
373.03	214.18
373.41	214.09
373.78	214.12
374.16	213.88
374.54	213.74
374.92	213.77
375.30	213.84
375.68	213.74
376.06	213.73
376.44	213.69
376.82	213.68
377.19	213.67
377.57	213.61
377.95	213.43
378.33	213.41
378.71	213.15
379.09	213.19
379.47	213.20
379.84	213.15
380.22	213.08
380.60	213.01
380.98	212.93
381.36	212.97
381.73	212.91
382.11	212.92
382.49	212.88
382.87	212.76
383.25	212.68
383.62	213.12
384.00	212.99
384.38	213.02
384.76	213.09
385.13	213.15
385.51	213.09
385.89	213.00
386.27	212.98
386.64	213.02
387.02	212.95
387.40	212.96
387.78	212.97
388.15	212.98
388.53	212.91
388.91	212.84
389.29	212.70
389.66	212.68
390.04	212.61
390.42	212.69
390.79	212.73
391.17	212.69
391.55	212.24
391.92	212.28
392.30	212.22
392.68	212.09
393.05	212.08
393.43	212.08
393.81	212.13
394.18	212.01
394.56	212.05
394.94	212.14
395.31	212.10
395.69	212.23
396.06	212.28
396.44	212.42
396.82	212.45
397.19	212.71
397.57	212.71
397.95	212.81
398.32	212.75
398.70	212.80
399.07	213.02
399.45	213.07
399.82	213.05
400.20	213.08
400.58	213.20
400.95	213.16
401.33	213.39
401.70	213.84
402.08	214.06
402.45	214.21
402.83	214.46
403.20	214.67
403.58	214.81
403.95	215.07
404.33	215.23
404.71	215.55
405.08	215.94
405.46	216.24
405.83	216.60
406.21	217.03
406.58	217.43
406.96	217.76
407.33	218.19
407.70	218.76
408.08	219.56
408.45	220.13
408.83	220.80
409.20	221.45
409.58	221.83
409.95	222.60
410.33	223.34
410.70	224.10
411.08	225.04
411.45	226.01
411.82	226.98
412.20	228.12
412.57	229.51
412.95	230.53
413.32	231.99
413.69	233.38
414.07	234.86
414.44	236.59
414.82	238.41
415.19	240.53
415.56	242.64
415.94	244.80
416.31	247.38
416.68	249.89
417.06	252.74
417.43	255.49
417.81	258.61
418.18	261.87
418.55	265.26
418.93	268.86
419.30	272.67
419.67	276.74
420.04	280.95
420.42	285.22
420.79	290.35
421.16	295.45
421.54	300.92
421.91	306.42
422.28	312.07
422.66	318.10
423.03	323.98
423.40	330.15
423.77	336.89
424.15	343.64
424.52	350.61
424.89	358.21
425.26	365.81
425.64	373.01
426.01	380.87
426.38	389.22
426.75	397.74
427.13	406.38
427.50	415.58
427.87	425.24
428.24	434.99
428.61	444.19
428.99	454.37
429.36	465.31
429.73	476.15
430.10	487.00
430.47	498.02
430.85	509.57
431.22	521.91
431.59	534.75
431.96	547.34
432.33	561.23
432.70	574.82
433.08	590.61
433.45	605.44
433.82	620.54
434.19	637.08
434.56	653.49
434.93	669.45
435.30	685.21
435.68	702.81
436.05	720.32
436.42	737.85
436.79	753.86
437.16	771.32
437.53	789.72
437.90	808.04
438.27	826.06
438.64	845.13
439.01	862.91
439.38	878.77
439.75	894.08
440.13	911.66
440.50	928.13
440.87	941.88
441.24	956.42
441.61	972.23
441.98	984.10
442.35	997.95
442.72	1011.90
443.09	1025.50
443.46	1034.24
443.83	1040.41
444.20	1045.96
444.57	1053.61
444.94	1057.75
445.31	1062.23
445.68	1066.60
446.05	1069.49
446.42	1068.92
446.79	1067.92
447.16	1067.03
447.53	1066.73
447.90	1061.43
448.27	1056.12
448.64	1047.90
449.01	1042.26
449.37	1031.12
449.74	1021.02
450.11	1008.14
450.48	994.23
450.85	979.98
451.22	967.79
451.59	956.39
451.96	945.28
452.33	930.02
452.70	916.41
453.07	899.78
453.43	882.88
453.80	866.62
454.17	851.21
454.54	836.48
454.91	820.79
455.28	805.17
455.65	790.61
456.02	775.90
456.38	763.88
456.75	748.45
457.12	735.96
457.49	723.21
457.86	710.94
458.23	700.18
458.59	688.58
458.96	676.68
459.33	666.21
459.70	655.80
460.07	647.61
460.43	637.97
460.80	629.00
461.17	621.00
461.54	612.68
461.91	604.78
462.27	596.68
462.64	589.67
463.01	582.05
463.38	574.73
463.74	567.63
464.11	561.09
464.48	555.57
464.85	549.37
465.21	544.69
465.58	539.74
465.95	533.80
466.32	528.76
466.68	523.86
467.05	518.75
467.42	513.79
467.78	508.47
468.15	503.55
468.52	499.89
468.88	495.15
469.25	490.97
469.62	487.40
469.98	483.75
470.35	480.24
470.72	476.94
471.08	473.33
471.45	470.15
471.82	467.08
472.18	463.58
472.55	461.14
472.92	458.17
473.28	455.73
473.65	453.20
474.02	450.73
474.38	448.75
474.75	447.00
475.11	445.14
475.48	443.87
475.85	442.64
476.21	441.45
476.58	440.47
476.94	439.56
477.31	438.70
477.67	437.90
478.04	437.36
478.41	436.99
478.77	437.12
479.14	436.87
479.50	436.79
479.87	437.01
480.23	437.13
480.60	437.19
480.96	437.16
481.33	438.00
481.69	438.61
482.06	439.04
482.42	439.47
482.79	440.03
483.15	441.00
483.52	442.30
483.88	443.31
484.25	444.35
484.61	445.84
484.98	447.03
485.34	448.74
485.71	450.57
486.07	452.62
486.44	454.28
486.80	456.42
487.17	458.74
487.53	461.48
487.90	464.30
488.26	467.36
488.62	470.56
488.99	473.55
489.35	476.89
489.72	480.52
490.08	484.25
490.44	488.07
490.81	492.06
491.17	496.00
491.54	500.39
491.90	504.82
492.26	509.30
492.63	514.24
492.99	519.24
493.36	524.45
493.72	529.83
494.08	535.60
494.45	541.46
494.81	547.55
495.17	553.45
495.54	559.81
495.90	566.19
496.26	572.77
496.63	579.54
496.99	586.39
497.35	593.75
497.72	601.43
498.08	609.04
498.44	616.63
498.80	624.91
499.17	633.20
499.53	641.65
499.89	650.21
500.26	658.65
500.62	667.12
500.98	675.85
501.34	684.72
501.71	693.69
502.07	702.77
502.43	711.93
502.79	721.21
503.16	730.54
503.52	740.00
503.88	749.43
504.24	758.96
504.60	768.69
504.97	778.43
505.33	788.24
505.69	798.72
506.05	808.83
506.41	818.51
506.78	828.00
507.14	837.75
507.50	847.59
507.86	857.74
508.22	867.85
508.59	877.62
508.95	887.69
509.31	897.64
509.67	907.62
510.03	917.54
510.39	927.81
510.75	937.81
511.12	947.81
511.48	957.73
511.84	967.89
512.20	977.78
512.56	987.56
512.92	997.21
513.28	1006.50
513.64	1015.99
514.00	1025.58
514.37	1035.22
514.73	1044.85
515.09	1054.23
515.45	1063.14
515.81	1072.15
516.17	1081.11
516.53	1089.96
516.89	1098.54
517.25	1106.86
517.61	1115.25
517.97	1123.08
518.33	1130.93
518.69	1138.80
519.05	1146.75
519.41	1154.45
519.77	1162.27
520.13	1169.39
520.49	1176.35
520.85	1183.50
521.21	1190.50
521.57	1197.46
521.93	1203.63
522.29	1210.34
522.65	1216.97
523.01	1223.70
523.37	1229.54
523.73	1235.72
524.09	1241.30
524.45	1247.24
524.81	1253.25
525.17	1259.40
525.53	1265.28
525.89	1271.13
526.25	1276.57
526.61	1281.51
526.97	1286.59
527.33	1291.36
527.68	1296.87
528.04	1301.92
528.40	1306.23
528.76	1310.91
529.12	1315.57
529.48	1321.06
529.84	1325.66
530.20	1329.88
530.56	1333.93
530.91	1338.92
531.27	1343.60
531.63	1347.94
531.99	1352.09
532.35	1356.25
532.71	1359.67
533.07	1363.89
533.42	1367.77
533.78	1371.64
534.14	1375.53
534.50	1378.42
534.86	1382.34
535.21	1385.29
535.57	1388.84
535.93	1392.25
536.29	1395.39
536.65	1398.53
537.00	1400.86
537.36	1403.03
537.72	1405.55
538.08	1408.30
538.44	1410.56
538.79	1412.98
539.15	1415.48
539.51	1417.89
539.87	1420.43
540.22	1422.80
540.58	1425.45
540.94	1427.73
541.29	1429.45
541.65	1430.92
542.01	1433.44
542.37	1434.59
542.72	1436.25
543.08	1437.45
543.44	1439.46
543.79	1440.40
544.15	1441.18
544.51	1442.96
544.87	1444.98
545.22	1446.39
545.58	1447.30
545.94	1448.05
546.29	1448.27
546.65	1448.67
547.01	1448.97
547.36	1449.25
547.72	1449.66
548.07	1449.00
548.43	1448.51
548.79	1448.48
549.14	1448.76
549.50	1448.67
549.86	1448.90
550.21	1448.83
550.57	1449.31
550.92	1448.67
551.28	1448.71
551.64	1448.40
551.99	1448.04
552.35	1447.23
552.70	1446.75
553.06	1446.44
553.41	1446.13
553.77	1446.35
554.13	1446.40
554.48	1446.26
554.84	1446.19
555.19	1446.16
555.55	1446.17
555.90	1445.57
556.26	1445.06
556.61	1444.37
556.97	1443.18
557.32	1442.52
557.68	1441.48
558.03	1440.17
558.39	1439.02
558.74	1438.29
559.10	1437.74
559.45	1436.56
559.81	1435.81
560.16	1434.56
560.52	1433.75
560.87	1432.79
561.23	1431.11
561.58	1430.07
561.94	1428.59
562.29	1426.43
562.64	1425.05
563.00	1423.51
563.35	1422.91
563.71	1422.40
564.06	1421.37
564.42	1420.87
564.77	1419.93
565.12	1419.47
565.48	1418.69
565.83	1417.99
566.19	1417.25
566.54	1415.97
566.89	1414.95
567.25	1414.11
567.60	1413.34
567.96	1412.44
568.31	1411.74
568.66	1410.55
569.02	1408.72
569.37	1407.04
569.72	1406.00
570.08	1404.35
570.43	1402.83
570.78	1400.96
571.14	1398.68
571.49	1396.55
571.84	1394.65
572.20	1392.20
572.55	1389.84
572.90	1387.30
573.26	1384.66
573.61	1381.77
573.96	1379.13
574.31	1376.22
574.67	1372.75
575.02	1369.35
575.37	1365.98
575.72	1361.97
576.08	1359.02
576.43	1355.61
576.78	1352.61
577.13	1349.56
577.49	1346.25
577.84	1342.85
578.19	1339.54
578.54	1336.54
578.90	1334.05
579.25	1330.49
579.60	1326.91
579.95	1323.07
580.30	1319.62
580.66	1316.27
581.01	1312.64
581.36	1308.90
581.71	1305.13
582.06	1301.86
582.42	1298.49
582.77	1294.43
583.12	1290.57
583.47	1286.94
583.82	1283.32
584.17	1279.34
584.53	1275.44
584.88	1271.37
585.23	1267.47
585.58	1263.39
585.93	1259.16
586.28	1254.74
586.63	1250.85
586.98	1247.05
587.34	1243.37
587.69	1239.20
588.04	1235.38
588.39	1231.45
588.74	1227.42
589.09	1223.55
589.44	1218.75
589.79	1214.71
590.14	1210.92
590.49	1207.08
590.84	1202.59
591.19	1199.06
591.54	1195.13
591.89	1190.42
592.25	1186.35
592.60	1181.90
592.95	1177.50
593.30	1172.55
593.65	1167.72
594.00	1162.62
594.35	1159.15
594.70	1154.38
595.05	1150.27
595.40	1145.62
595.75	1141.02
596.10	1136.80
596.45	1132.39
596.80	1128.64
597.15	1124.35
597.50	1119.68
597.85	1115.49
598.19	1111.00
598.54	1106.41
598.89	1102.15
599.24	1098.72
599.59	1094.36
599.94	1090.10
600.29	1085.87
600.64	1081.96
600.99	1077.82
601.34	1074.20
601.69	1068.93
602.04	1064.51
602.39	1059.99
602.74	1055.79
603.08	1051.83
603.43	1047.90
603.78	1043.61
604.13	1039.20
604.48	1035.03
604.83	1031.54
605.18	1027.56
605.53	1023.58
605.87	1019.19
606.22	1015.07
606.57	1010.11
606.92	1005.60
607.27	1001.47
607.62	997.39
607.96	993.36
608.31	989.33
608.66	984.49
609.01	980.04
609.36	975.90
609.70	971.26
610.05	966.60
610.40	962.02
610.75	957.16
611.10	953.01
611.44	948.09
611.79	943.15
612.14	937.98
612.49	932.92
612.83	928.10
613.18	923.30
613.53	918.40
613.88	913.63
614.22	909.08
614.57	904.23
614.92	899.29
615.27	894.29
615.61	889.59
615.96	885.32
616.31	880.96
616.65	876.68
617.00	872.30
617.35	867.80
617.70	863.10
618.04	858.40
618.39	853.34
618.74	848.98
619.08	844.47
619.43	840.03
619.78	835.99
620.12	831.75
620.47	827.50
620.82	823.03
621.16	818.55
621.51	814.22
621.85	809.85
622.20	805.44
622.55	801.10
622.89	796.66
623.24	792.20
623.59	787.55
623.93	783.04
624.28	779.05
624.62	775.23
624.97	770.96
625.32	766.85
625.66	762.99
626.01	758.99
626.35	755.12
626.70	751.05
627.04	746.83
627.39	742.88
627.73	738.88
628.08	735.30
628.43	731.35
628.77	727.45
629.12	723.39
629.46	719.64
629.81	715.76
630.15	711.84
630.50	708.11
630.84	704.32
631.19	700.61
631.53	696.52
631.88	692.31
632.22	688.57
632.57	685.23
632.91	681.34
633.26	677.68
633.60	673.86
633.95	670.34
634.29	666.54
634.64	663.02
634.98	659.33
635.32	655.73
635.67	652.66
636.01	649.20
636.36	645.90
636.70	642.61
637.05	639.42
637.39	636.34
637.73	633.37
638.08	630.57
638.42	627.49
638.77	624.55
639.11	621.69
639.45	618.73
639.80	615.19
640.14	612.10
640.49	608.99
640.83	605.92
641.17	602.86
641.52	599.88
641.86	596.57
642.20	593.63
642.55	590.20
642.89	586.79
643.23	583.57
643.58	580.73
643.92	577.45
644.26	574.50
644.61	571.47
644.95	568.19
645.29	564.90
645.64	561.82
645.98	558.82
646.32	555.72
646.66	552.58
647.01	549.66
647.35	546.81
647.69	543.75
648.04	540.91
648.38	537.95
648.72	535.30
649.06	532.50
649.41	529.62
649.75	526.97
650.09	524.38
650.43	521.67
650.78	518.69
651.12	515.96
651.46	513.11
651.80	510.36
652.14	507.91
652.49	505.33
652.83	502.58
653.17	499.67
653.51	497.01
653.85	494.55
654.20	492.09
654.54	489.35
654.88	486.69
655.22	484.15
655.56	481.41
655.90	478.70
656.25	476.07
656.59	473.46
656.93	470.98
657.27	468.51
657.61	465.89
657.95	463.43
658.29	461.07
658.64	458.82
658.98	456.38
659.32	453.62
659.66	451.15
660.00	448.74
660.34	446.35
660.68	443.80
661.02	441.26
661.36	438.76
661.70	436.63
662.05	434.56
662.39	432.43
662.73	430.59
663.07	428.60
663.41	426.55
663.75	424.46
664.09	422.29
664.43	420.09
664.77	418.07
665.11	416.01
665.45	413.98
665.79	411.86
666.13	409.83
666.47	407.92
666.81	405.97
667.15	404.00
667.49	402.29
667.83	400.64
668.17	398.96
668.51	397.41
668.85	395.66
669.19	394.11
669.53	392.20
669.87	390.12
670.21	388.23
670.55	386.62
670.89	385.23
671.23	383.66
671.57	382.09
671.91	380.55
672.25	378.87
672.58	377.28
672.92	375.71
673.26	374.24
673.60	372.74
673.94	371.28
674.28	369.75
674.62	368.36
674.96	366.86
675.30	365.42
675.64	363.83
675.97	362.29
676.31	360.71
676.65	359.29
676.99	358.22
677.33	356.74
677.67	355.23
678.01	353.45
678.34	352.09
678.68	350.80
679.02	349.33
679.36	348.02
679.70	346.65
680.04	345.32
680.37	344.01
680.71	342.70
681.05	341.48
681.39	340.27
681.73	338.92
682.06	337.75
682.40	336.50
682.74	335.37
683.08	334.42
683.42	333.06
683.75	331.90
684.09	330.46
684.43	329.35
684.77	328.11
685.10	327.12
685.44	325.88
685.78	324.60
686.12	323.50
686.45	322.43
686.79	321.33
687.13	320.25
687.46	319.05
687.80	317.96
688.14	316.69
688.48	315.75
688.81	314.62
689.15	313.49
689.49	312.40
689.82	311.30
690.16	309.96
690.50	309.03
690.83	308.04
691.17	306.97
691.51	305.91
691.84	304.95
692.18	303.91
692.52	302.92
692.85	302.08
693.19	301.28
693.52	300.30
693.86	299.33
694.20	298.42
694.53	297.55
694.87	296.59
695.21	295.70
695.54	294.70
695.88	293.72
696.21	292.71
696.55	291.86
696.88	290.95
697.22	290.01
697.56	289.20
697.89	288.24
698.23	287.48
698.56	286.61
698.90	285.87
699.23	285.02
699.57	284.21
699.90	283.29
700.24	282.42
700.58	281.65
700.91	280.91
701.25	280.37
701.58	279.69
701.92	279.02
702.25	278.34
702.59	277.58
702.92	276.95
703.26	276.27
703.59	275.49
703.93	274.90
704.26	274.31
704.60	273.57
704.93	272.93
705.26	272.20
705.60	271.63
705.93	270.87
706.27	270.32
706.60	269.74
706.94	269.29
707.27	268.51
707.61	267.94
707.94	267.28
708.27	266.35
708.61	265.66
708.94	265.08
709.28	264.45
709.61	263.77
709.94	263.22
710.28	262.61
710.61	262.13
710.95	261.42
711.28	261.12
711.61	260.56
711.95	260.07
712.28	259.54
712.61	259.01
712.95	258.63
713.28	258.24
713.61	257.79
713.95	257.12
714.28	256.80
714.61	256.17
714.95	255.77
715.28	255.26
715.61	254.79
715.95	254.25
716.28	253.65
716.61	253.24
716.95	252.71
717.28	252.35
717.61	251.82
717.94	251.42
718.28	250.72
718.61	250.28
718.94	249.79
719.27	249.35
719.61	248.94
719.94	248.50
720.27	247.97
720.60	247.51
720.94	247.18
721.27	246.76
721.60	246.53
721.93	246.13
722.27	245.92
722.60	245.60
722.93	245.26
723.26	245.04
723.59	244.70
723.93	244.47
724.26	244.15
724.59	243.81
724.92	243.48
725.25	243.25
725.59	243.00
725.92	242.76
726.25	242.43
726.58	242.17
726.91	241.92
727.24	241.65
727.57	241.37
727.91	240.99
728.24	240.72
728.57	240.36
728.90	240.15
729.23	239.76
729.56	239.69
729.89	239.37
730.22	239.12
730.55	238.80
730.89	238.43
731.22	238.18
731.55	237.96
731.88	237.74
732.21	237.39
732.54	237.10
732.87	236.88
733.20	236.71
733.53	236.51
733.86	236.18
734.19	235.84
734.52	235.68
734.85	235.75
735.18	235.43
735.51	235.36
735.84	235.07
736.17	235.03
736.50	234.53
736.83	234.75
737.16	234.46
737.49	234.37
737.82	234.15
738.15	233.95
738.48	233.70
738.81	233.41
739.14	233.22
739.47	232.95
739.80	232.65
740.13	232.41
740.46	232.13
740.79	231.83
741.12	231.63
741.45	231.35
741.78	230.86
742.11	230.77
742.44	230.45
742.77	230.28
743.10	229.95
743.43	229.79
743.75	229.21
744.08	229.48
744.41	229.22
744.74	229.05
745.07	228.83
745.40	228.75
745.73	228.79
746.06	228.63
746.39	228.48
746.71	228.24
747.04	228.03
747.37	227.80
747.70	227.85
748.03	227.70
748.36	227.59
748.68	227.49
749.01	227.19
749.34	227.06
749.67	226.90
750.00	226.75
750.33	226.84
750.65	226.71
750.98	226.16
751.31	225.92
751.64	225.79
751.97	225.79
752.29	225.61
752.62	225.30
752.95	225.09
753.28	224.91
753.60	224.90
753.93	224.84
754.26	224.72
754.59	224.36
754.91	224.20
755.24	223.97
755.57	223.77
755.90	223.66
756.22	223.42
756.55	223.21
756.88	222.99
757.20	222.61
757.53	222.42
757.86	222.22
758.19	222.23
758.51	222.07
758.84	221.67
759.17	221.50
759.49	221.37
759.82	221.37
760.15	221.26
760.47	221.02
760.80	220.83
761.13	220.75
761.45	220.65
761.78	220.49
762.11	220.40
762.43	220.22
762.76	220.10
763.08	220.10
763.41	220.06
763.74	220.01
764.06	219.90
764.39	219.73
764.71	219.65
765.04	219.45
765.37	219.33
765.69	219.35
766.02	219.24
766.34	219.11
766.67	218.93
767.00	218.95
767.32	219.06
767.65	219.15
767.97	219.04
768.30	218.96
768.62	218.86
768.95	218.80
769.27	218.77
769.60	218.74
769.92	218.59
770.25	218.37
770.57	218.27
770.90	218.22
771.22	218.22
771.55	218.14
771.87	218.09
772.20	217.99
772.52	218.12
772.85	218.53
773.17	218.53
773.50	218.41
773.82	218.25
774.15	218.07
774.47	217.80
774.80	217.74
775.12	217.61
775.45	217.55
775.77	217.49
776.09	217.45
776.42	217.38
776.74	217.44
777.07	217.53
777.39	217.50
777.72	217.40
778.04	217.31
778.36	217.29
778.69	217.28
779.01	217.31
779.33	216.97
779.66	216.50
779.98	216.34
780.31	216.35
780.63	216.43
780.95	216.52
781.28	216.51
781.60	216.47
781.92	216.54
782.25	216.57
782.57	216.53
782.89	216.46
783.22	216.39
783.54	216.28
783.86	216.17
784.19	216.09
784.51	216.24
784.83	216.15
785.16	216.07
785.48	215.99
785.80	215.95
786.12	216.00
786.45	215.92
786.77	215.96
787.09	215.88
787.42	215.74
787.74	215.52
788.06	215.44
788.38	215.35
788.71	215.23
789.03	215.17
789.35	215.23
789.67	215.14
789.99	215.18
790.32	215.05
790.64	215.05
790.96	215.34
791.28	215.17
791.61	215.17
791.93	215.11
792.25	215.07
792.57	215.21
792.89	215.13
793.21	215.14
793.54	215.09
793.86	215.06
794.18	214.99
794.50	215.02
794.82	214.96
795.14	215.01
795.47	215.08
795.79	215.15
796.11	214.91
796.43	214.91
796.75	214.83
797.07	214.85
797.39	214.78
797.71	214.45
798.04	214.44
798.36	214.44
798.68	214.45
799.00	214.50
799.32	214.26
799.64	214.28
799.96	214.26
800.28	214.28
800.60	214.25
800.92	214.31
801.24	214.27
801.56	214.40
801.89	214.29
802.21	214.29
802.53	214.13
802.85	214.24
803.17	214.36
803.49	214.35
803.81	214.25
804.13	214.22
804.45	214.20
804.77	214.16
805.09	214.09
805.41	214.04
805.73	213.93
806.05	213.95
806.37	213.87
806.69	213.79
807.01	213.80
807.33	213.82
807.65	213.67
807.97	213.75
808.28	213.65
808.60	213.62
808.92	213.54
809.24	213.75
809.56	213.64
809.88	213.51
810.20	213.50
810.52	213.64
810.84	213.57
811.16	213.52
811.48	213.52
811.80	213.75
812.12	213.75
812.43	213.78
812.75	213.70
813.07	213.68
813.39	213.72
813.71	213.63
814.03	213.55
814.35	213.60
814.67	213.50
814.98	213.47
815.30	213.48
815.62	213.36
815.94	213.18
816.26	213.23
816.58	213.15
816.89	213.12
817.21	213.02
817.53	213.11
817.85	213.09
818.17	213.04
818.48	212.85
818.80	212.86
819.12	212.85
819.44	212.82
819.76	212.79
820.07	212.79
820.39	212.75
820.71	212.75
821.03	212.64
821.34	212.56
821.66	212.61
821.98	212.63
822.30	212.63
822.61	212.74
822.93	212.70
823.25	212.74
823.57	212.66
823.88	212.68
824.20	212.62
824.52	212.74
824.83	212.68
825.15	212.53
825.47	212.58
825.79	212.56
826.10	212.58
826.42	212.52
826.74	212.55
827.05	212.55
827.37	212.56
827.69	212.62
828.00	212.67
828.32	212.63
828.64	212.64
828.95	212.87
829.27	212.79
829.58	212.78
829.90	212.79
830.22	212.85
830.53	212.76
830.85	212.69
831.17	212.51
831.48	212.53
831.80	212.61
832.11	212.50
832.43	212.42
832.75	212.35
833.06	212.59
833.38	212.45
833.69	212.45
834.01	212.52
834.32	212.44
834.64	212.41
834.96	212.43
835.27	212.37
835.59	212.20
835.90	212.11
836.22	212.10
836.53	211.98
836.85	211.95
837.16	212.29
837.48	212.28
837.79	212.37
838.11	212.44
838.42	212.44
838.74	212.52
839.05	212.48
839.37	212.51
839.68	212.22
840.00	212.23
840.31	212.23
840.63	212.16
840.94	212.17
841.26	212.11
841.57	212.09
841.88	212.17
842.20	212.16
842.51	212.16
842.83	212.17
843.14	212.44
843.46	212.41
843.77	212.17
844.08	212.19
844.40	212.11
844.71	212.02
845.03	211.93
845.34	211.87
845.65	211.88
845.97	211.91
846.28	211.95
846.60	211.93
846.91	211.86
847.22	211.86
847.54	211.88
847.85	211.94
848.16	211.94
848.48	211.89
848.79	212.01
849.10	212.05
849.42	212.08
849.73	211.84
850.04	211.83
850.36	211.80
850.67	211.88
850.98	211.92
851.30	211.92
851.61	211.95
851.92	211.97
852.23	212.10
852.55	212.01
852.86	212.02
853.17	212.05
853.49	212.14
853.80	212.20
854.11	212.31
854.42	212.30
854.74	212.26
855.05	212.20
855.36	211.99
855.67	211.95
855.99	211.96
856.30	212.34
856.61	212.38
856.92	212.28
857.23	212.25
857.55	212.18
857.86	212.20
858.17	212.28
858.48	212.26
858.79	212.21
859.11	212.34
859.42	212.35
859.73	212.26
860.04	212.22
860.35	212.12
860.66	212.00
860.98	212.01
861.29	212.02
861.60	211.98
861.91	212.04
862.22	211.98
862.53	211.83
862.84	211.48
863.16	211.50
863.47	211.49
863.78	211.43
864.09	211.46
864.40	211.44
864.71	211.41
865.02	211.42
865.33	211.40
865.64	211.29
865.95	211.30
866.27	211.66
866.58	211.64
866.89	211.69
867.20	211.70
867.51	211.59
867.82	211.56
868.13	211.73
868.44	211.70
868.75	211.80
869.06	211.87
869.37	211.86
869.68	211.79
869.99	211.92
870.30	211.97
870.61	212.01
870.92	211.95
871.23	211.94
871.54	211.90
871.85	211.92
872.16	212.00
872.47	212.00
872.78	211.70
873.09	211.74
873.40	211.65
873.71	211.63
874.02	211.71
874.33	211.70
874.64	211.59
874.95	211.66
875.26	211.60
875.56	211.60
875.87	211.65
876.18	211.65
876.49	211.91
876.80	211.83
877.11	211.80
877.42	211.89
877.73	211.87
878.04	211.87
878.35	211.91
878.66	211.87
878.96	211.86
879.27	211.88
879.58	211.88
879.89	211.92
880.20	212.00
880.51	212.02
880.82	212.03
881.12	212.10
881.43	212.00
881.74	211.96
882.05	211.93
882.36	211.95
882.67	212.01
882.97	211.67
883.28	211.70
883.59	211.70
883.90	211.65
884.21	211.73
884.51	211.67
884.82	211.60
885.13	211.61
885.44	211.56
885.74	211.50
886.05	211.47
886.36	211.45
886.67	211.38
886.98	211.43
887.28	211.48
887.59	211.40
887.90	211.38
888.20	211.38
888.51	211.45
888.82	211.28
889.13	211.21
889.43	211.46
889.74	211.48
890.05	211.45
890.35	211.49
890.66	211.45
890.97	211.40
891.28	211.36
891.58	211.32
891.89	211.33
892.20	211.29
892.50	211.29
892.81	211.22
893.12	211.27
893.42	211.16
893.73	211.13
894.04	211.15
894.34	211.19
894.65	211.11
894.95	211.12
895.26	211.18
895.57	211.40
895.87	211.10
896.18	211.13
896.48	211.16
896.79	211.09
897.10	211.22
897.40	211.34
897.71	211.38
898.01	211.33
898.32	211.39
898.63	211.43
898.93	211.45
899.24	211.51
899.54	211.44
899.85	211.45
900.15	211.44
900.46	211.43
900.76	211.53
901.07	211.60
901.38	211.54
901.68	211.58
901.99	211.36
902.29	211.40
902.60	211.33
902.90	211.31
903.21	211.33
903.51	211.22
903.82	211.23
904.12	211.19
904.43	211.28
904.73	211.22
905.03	211.24
905.34	211.52
905.64	211.51
905.95	211.52
906.25	211.48
906.56	211.49
906.86	211.51
907.17	211.45
907.47	211.44
907.77	211.43
908.08	211.35
908.38	211.39
908.69	211.38
908.99	211.40
909.30	211.44
909.60	211.39
909.90	211.39
910.21	211.25
910.51	211.22
910.81	211.24
911.12	211.28
911.42	211.27
911.73	210.94
912.03	210.99
912.33	211.04
912.64	211.08
912.94	210.96
913.24	210.83
913.55	210.78
913.85	210.76
914.15	210.83
914.46	210.87
914.76	210.85
915.06	210.85
915.37	210.81
915.67	210.74
915.97	210.80
916.27	210.77
916.58	210.85
916.88	210.91
917.18	210.88
917.49	211.08
917.79	211.12
918.09	211.21
918.39	211.26
918.70	211.18
919.00	211.18
919.30	211.36
919.60	211.43
919.91	211.37
920.21	211.40
920.51	211.28
920.81	211.23
921.12	211.29
921.42	211.28
921.72	211.31
922.02	211.31
922.32	211.32
922.63	211.34
922.93	211.49
923.23	211.50
923.53	211.39
923.83	211.13
924.13	211.09
924.44	210.99
924.74	210.98
925.04	211.16
925.34	211.16
925.64	211.05
925.94	211.07
926.24	211.22
926.55	211.18
926.85	211.28
927.15	211.33
927.45	211.29
927.75	211.25
928.05	211.27
928.35	211.25
928.65	211.29
928.95	211.29
929.26	211.10
929.56	211.16
929.86	211.24
930.16	211.20
930.46	211.23
930.76	211.26
931.06	211.15
931.36	211.01
931.66	211.06
931.96	211.06
932.26	211.13
932.56	211.07
932.86	211.06
933.16	211.01
933.46	210.93
933.76	210.94
934.06	211.08
934.36	211.20
934.66	211.24
934.96	211.21
935.26	211.24
935.56	211.36
935.86	211.31
936.16	211.30
936.46	211.35
936.76	211.39
937.06	211.43
937.36	211.44
937.66	211.49
937.96	211.44
938.26	211.42
938.56	211.32
938.86	211.36
939.16	211.47
939.46	211.57
939.76	211.63
940.06	211.58
940.35	211.46
940.65	211.32
940.95	211.38
941.25	211.35
941.55	211.28
941.85	211.26
942.15	211.32
942.45	211.42
942.75	211.37
943.04	211.34
943.34	211.42
943.64	211.42
943.94	211.36
944.24	211.43
944.54	211.45
944.84	211.43
945.13	211.37
945.43	211.32
945.73	211.31
946.03	211.28
946.33	211.32
946.62	211.34
946.92	211.31
947.22	211.32
947.52	211.31
947.82	211.40
948.11	211.31
948.41	211.23
948.71	211.14
949.01	211.22
949.31	211.17
949.60	211.10
949.90	211.14
950.20	211.16
950.50	211.14
950.79	211.09
951.09	211.20
951.39	211.19
951.69	211.17
951.98	211.19
952.28	211.27
952.58	211.23
952.87	211.21
953.17	211.27
953.47	211.25
953.76	211.24
954.06	211.15
954.36	211.24
954.66	211.27
954.95	211.37
955.25	211.38
955.55	211.44
955.84	211.36
956.14	211.37
956.44	211.34
956.73	211.26
957.03	211.37
957.32	211.36
957.62	211.33
957.92	211.40
958.21	211.36
958.51	211.75
958.81	211.89
959.10	211.95
959.40	211.97
959.69	211.92
959.99	211.96
960.29	212.01
960.58	211.89
960.88	212.00
961.17	211.91
961.47	211.94
961.76	211.87
962.06	211.90
962.36	211.91
962.65	211.91
962.95	211.94
963.24	211.84
963.54	211.77
963.83	211.85
964.13	211.85
964.42	211.79
964.72	211.44
965.01	211.36
965.31	211.31
965.60	211.25
965.90	211.51
966.19	211.45
966.49	211.39
966.78	211.35
967.08	211.25
967.37	211.27
967.67	211.21
967.96	211.29
968.26	211.28
968.55	211.29
968.85	211.32
969.14	211.25
969.43	211.25
969.73	211.24
970.02	211.17
970.32	211.18
970.61	211.14
970.91	211.03
971.20	210.97
971.49	210.90
971.79	210.91
972.08	210.60
972.38	210.65
972.67	210.75
972.96	210.86
973.26	210.90
973.55	211.05
973.85	211.05
974.14	211.04
974.43	211.08
974.73	211.05
975.02	211.00
975.31	211.06
975.61	211.05
975.90	211.07
976.19	211.09
976.49	211.06
976.78	211.09
977.07	211.13
977.37	211.16
977.66	211.29
977.95	211.26
978.24	211.30
978.54	211.36
978.83	211.23
979.12	211.20
979.42	211.16
979.71	211.05
980.00	211.02
980.29	211.06
980.59	211.05
980.88	211.12
981.17	211.08
981.46	211.14
981.76	211.14
982.05	211.25
982.34	211.27
982.63	211.24
982.93	211.28
983.22	211.36
983.51	211.33
983.80	211.35
984.09	211.42
984.39	211.42
984.68	211.35
984.97	211.44
985.26	211.43
985.55	211.48
985.85	211.41
986.14	211.42
986.43	211.47
986.72	211.42
987.01	211.34
987.30	211.36
987.59	211.31
987.89	211.35
988.18	211.19
988.47	211.18
988.76	211.21
989.05	211.17
989.34	211.08
989.63	211.22
989.92	211.20
990.22	211.14
990.51	211.15
990.80	211.15
991.09	211.17
991.38	211.25
991.67	211.12
991.96	211.10
992.25	211.12
992.54	211.00
992.83	211.02
993.12	211.01
993.41	211.08
993.70	211.18
993.99	211.26
994.28	211.34
994.58	211.37
994.87	211.35
995.16	211.35
995.45	211.26
995.74	211.19
996.03	211.23
996.32	211.22
996.61	211.25
996.90	211.22
997.19	211.19
997.48	211.13
997.77	211.12
998.06	211.14
998.34	211.14
998.63	211.12
998.92	211.16
999.21	211.19
999.50	211.18
999.79	211.10
1000.08	211.00
1000.37	210.99
1000.66	210.92
1000.95	210.95
1001.24	210.95
1001.53	211.09
1001.82	210.97
1002.11	210.85
1002.40	210.90
1002.68	211.01
1002.97	211.26
1003.26	211.27
1003.55	211.22
1003.84	211.27
1004.13	211.41
1004.42	211.38
1004.71	211.34
1004.99	211.28
1005.28	211.37
1005.57	211.30
1005.86	211.23
1006.15	211.19
1006.44	211.13
1006.72	211.22
1007.01	211.24
1007.30	211.30
1007.59	211.24
1007.88	211.36
1008.17	211.36
1008.45	211.25
1008.74	211.12
1009.03	210.94
1009.32	210.86
1009.60	210.91
1009.89	210.88
1010.18	210.70
1010.47	210.72
1010.76	210.74
1011.04	210.76
1011.33	210.76
1011.62	210.79
1011.91	210.83
1012.19	210.85
1012.48	210.91
1012.77	210.81
1013.05	210.94
1013.34	210.87
1013.63	210.86
1013.92	210.84
1014.20	210.85
1014.49	210.87
1014.78	210.85
1015.06	210.78
1015.35	210.81
1015.64	210.81
1015.92	210.84
1016.21	210.87
1016.50	210.84
1016.78	210.90
1017.07	210.87
1017.36	210.75
1017.64	210.72
1017.93	210.74
1018.22	210.74
1018.50	210.70
1018.79	210.76
1019.08	210.55
1019.36	210.61
1019.65	210.57
1019.93	210.65
1020.22	210.75
1020.51	210.98
1020.79	210.94
1021.08	210.55
1021.36	209.95
1021.65	211.35
1021.94	210.50
1022.22	211.65
1022.51	209.75
1022.79	213.30
1023.08	212.05
1023.36	214.95
1023.65	209.40
>>>>>End Processed Spectral Data<<<<<
