SpectraSuite Data File
++++++++++++++++++++++++++++++++++++
Date: Mon Feb 25 17:14:32 EST 2013
User: group
Dark Spectrum Present: No
Reference Spectrum Present: No
Number of Sampled Component Spectra: 1
Spectrometers: USB2E7196
Integration Time (usec): 104000 (USB2E7196)
Spectra Averaged: 20 (USB2E7196)
Boxcar Smoothing: 10 (USB2E7196)
Correct for Electrical Dark: No (USB2E7196)
Strobe/Lamp Enabled: No (USB2E7196)
Correct for Detector Non-linearity: No (USB2E7196)
Correct for Stray Light: No (USB2E7196)
Number of Pixels in Processed Spectrum: 2048
>>>>>Begin Processed Spectral Data<<<<<
339.09	0.00
339.48	199.25
339.86	200.40
340.24	200.80
340.63	203.30
341.01	210.05
341.39	205.70
341.78	208.40
342.16	210.25
342.54	209.10
342.93	198.81
343.31	208.85
343.69	209.38
344.07	209.84
344.46	210.34
344.84	210.75
345.22	210.79
345.60	211.12
345.99	211.27
346.37	211.37
346.75	211.49
347.13	211.57
347.52	211.58
347.90	211.76
348.28	211.84
348.66	211.92
349.05	211.84
349.43	211.85
349.81	211.78
350.19	211.81
350.57	211.78
350.96	211.83
351.34	211.91
351.72	212.01
352.10	212.03
352.48	212.09
352.87	212.10
353.25	212.18
353.63	212.18
354.01	212.21
354.39	212.19
354.77	212.21
355.15	212.36
355.54	212.32
355.92	212.25
356.30	212.23
356.68	212.54
357.06	212.58
357.44	212.65
357.82	212.84
358.20	212.87
358.58	212.96
358.97	213.02
359.35	213.07
359.73	213.15
360.11	213.23
360.49	213.27
360.87	213.30
361.25	213.38
361.63	213.47
362.01	213.52
362.39	213.57
362.77	213.61
363.15	213.62
363.53	213.73
363.91	213.73
364.29	213.75
364.67	213.42
365.05	213.42
365.43	213.49
365.81	213.48
366.19	213.67
366.57	213.77
366.95	213.81
367.33	213.75
367.71	213.70
368.09	213.81
368.47	213.78
368.85	213.79
369.23	213.82
369.61	213.74
369.99	213.83
370.37	213.84
370.75	214.04
371.13	213.90
371.51	213.79
371.89	213.82
372.27	213.81
372.65	213.78
373.03	213.73
373.41	213.63
373.78	213.59
374.16	213.35
374.54	213.17
374.92	213.10
375.30	213.08
375.68	213.04
376.06	212.99
376.44	212.92
376.82	212.88
377.19	212.85
377.57	212.78
377.95	212.63
378.33	212.61
378.71	212.31
379.09	212.42
379.47	212.43
379.84	212.33
380.22	212.26
380.60	212.13
380.98	212.12
381.36	212.06
381.73	211.95
382.11	211.90
382.49	211.88
382.87	211.79
383.25	211.76
383.62	212.15
384.00	212.02
384.38	212.00
384.76	211.99
385.13	212.09
385.51	212.01
385.89	211.95
386.27	211.91
386.64	211.92
387.02	211.81
387.40	211.78
387.78	211.78
388.15	211.77
388.53	211.74
388.91	211.75
389.29	211.69
389.66	211.78
390.04	211.81
390.42	211.90
390.79	211.89
391.17	211.86
391.55	211.43
391.92	211.52
392.30	211.54
392.68	211.55
393.05	211.44
393.43	211.52
393.81	211.53
394.18	211.49
394.56	211.51
394.94	211.57
395.31	211.55
395.69	211.65
396.06	211.70
396.44	211.80
396.82	211.78
397.19	212.08
397.57	212.08
397.95	212.14
398.32	212.03
398.70	212.12
399.07	212.26
399.45	212.28
399.82	212.24
400.20	212.19
400.58	212.15
400.95	212.08
401.33	212.14
401.70	212.41
402.08	212.43
402.45	212.49
402.83	212.67
403.20	212.79
403.58	212.81
403.95	212.94
404.33	213.05
404.71	213.17
405.08	213.35
405.46	213.36
405.83	213.55
406.21	213.64
406.58	213.77
406.96	213.82
407.33	213.94
407.70	214.09
408.08	214.61
408.45	214.86
408.83	215.13
409.20	215.33
409.58	215.38
409.95	215.78
410.33	216.05
410.70	216.16
411.08	216.50
411.45	216.81
411.82	217.06
412.20	217.48
412.57	218.05
412.95	218.22
413.32	218.69
413.69	219.02
414.07	219.56
414.44	220.08
414.82	220.63
415.19	221.34
415.56	221.96
415.94	222.44
416.31	223.25
416.68	224.00
417.06	224.86
417.43	225.72
417.81	226.52
418.18	227.45
418.55	228.46
418.93	229.53
419.30	230.64
419.67	231.75
420.04	232.88
420.42	233.94
420.79	235.55
421.16	236.98
421.54	238.64
421.91	240.16
422.28	241.75
422.66	243.40
423.03	245.15
423.40	246.85
423.77	248.65
424.15	250.38
424.52	252.32
424.89	254.41
425.26	256.39
425.64	258.32
426.01	260.42
426.38	262.67
426.75	264.91
427.13	267.25
427.50	269.83
427.87	272.32
428.24	274.92
428.61	277.11
428.99	279.93
429.36	282.70
429.73	285.57
430.10	288.34
430.47	291.39
430.85	294.32
431.22	297.58
431.59	301.07
431.96	304.27
432.33	307.76
432.70	311.23
433.08	315.19
433.45	319.02
433.82	322.82
434.19	327.00
434.56	331.05
434.93	334.94
435.30	338.76
435.68	343.09
436.05	347.31
436.42	351.46
436.79	355.27
437.16	359.42
437.53	363.80
437.90	368.20
438.27	372.39
438.64	376.73
439.01	380.73
439.38	384.22
439.75	387.89
440.13	391.94
440.50	395.69
440.87	398.77
441.24	402.04
441.61	405.58
441.98	408.08
442.35	411.09
442.72	414.13
443.09	417.17
443.46	418.86
443.83	420.13
444.20	421.15
444.57	422.55
444.94	423.20
445.31	423.87
445.68	424.80
446.05	424.99
446.42	424.46
446.79	424.10
447.16	423.56
447.53	423.10
447.90	421.40
448.27	419.66
448.64	417.37
449.01	415.52
449.37	412.55
449.74	409.75
450.11	406.56
450.48	402.83
450.85	398.85
451.22	395.71
451.59	392.55
451.96	389.67
452.33	385.76
452.70	382.19
453.07	377.94
453.43	373.26
453.80	369.22
454.17	365.32
454.54	361.44
454.91	357.46
455.28	353.40
455.65	349.76
456.02	346.65
456.38	343.49
456.75	339.71
457.12	336.47
457.49	333.29
457.86	330.00
458.23	327.41
458.59	324.56
458.96	321.66
459.33	319.06
459.70	316.55
460.07	314.46
460.43	312.16
460.80	310.08
461.17	308.35
461.54	306.31
461.91	304.33
462.27	302.25
462.64	300.51
463.01	298.83
463.38	297.16
463.74	294.88
464.11	293.37
464.48	292.02
464.85	290.59
465.21	289.60
465.58	288.48
465.95	287.02
466.32	285.94
466.68	284.76
467.05	283.55
467.42	282.35
467.78	281.12
468.15	279.89
468.52	279.07
468.88	277.86
469.25	276.83
469.62	276.25
469.98	275.54
470.35	274.73
470.72	273.97
471.08	273.07
471.45	272.42
471.82	271.89
472.18	271.26
472.55	270.79
472.92	270.11
473.28	269.52
473.65	269.00
474.02	268.54
474.38	268.26
474.75	268.01
475.11	267.68
475.48	267.54
475.85	267.39
476.21	267.10
476.58	267.00
476.94	267.00
477.31	266.81
477.67	266.75
478.04	266.79
478.41	266.83
478.77	267.24
479.14	267.28
479.50	267.37
479.87	267.53
480.23	267.70
480.60	267.87
480.96	268.22
481.33	268.80
481.69	269.19
482.06	269.56
482.42	270.01
482.79	270.49
483.15	271.00
483.52	271.69
483.88	272.30
484.25	272.94
484.61	273.64
484.98	274.37
485.34	275.40
485.71	276.30
486.07	277.21
486.44	277.90
486.80	279.04
487.17	280.19
487.53	281.65
487.90	283.07
488.26	284.63
488.62	286.25
488.99	287.65
489.35	289.30
489.72	291.06
490.08	292.91
490.44	294.78
490.81	296.85
491.17	298.95
491.54	301.28
491.90	303.81
492.26	306.41
492.63	309.11
492.99	311.70
493.36	314.63
493.72	317.87
494.08	321.08
494.45	324.46
494.81	328.01
495.17	331.39
495.54	335.16
495.90	339.02
496.26	343.02
496.63	347.35
496.99	351.77
497.35	356.40
497.72	361.15
498.08	366.19
498.44	371.41
498.80	376.90
499.17	382.54
499.53	388.26
499.89	394.28
500.26	400.48
500.62	406.89
500.98	413.59
501.34	420.32
501.71	427.60
502.07	434.90
502.43	442.34
502.79	450.09
503.16	458.09
503.52	466.28
503.88	474.63
504.24	483.36
504.60	492.24
504.97	501.44
505.33	510.75
505.69	520.65
506.05	530.65
506.41	540.74
506.78	550.89
507.14	561.46
507.50	572.27
507.86	583.27
508.22	594.70
508.59	606.20
508.95	618.07
509.31	629.82
509.67	642.05
510.03	654.67
510.39	667.70
510.75	680.78
511.12	694.10
511.48	707.75
511.84	721.41
512.20	735.27
512.56	749.56
512.92	764.10
513.28	778.47
513.64	792.97
514.00	807.54
514.37	822.67
514.73	837.94
515.09	853.19
515.45	868.57
515.81	884.16
516.17	899.64
516.53	915.41
516.89	931.23
517.25	947.10
517.61	963.01
517.97	978.73
518.33	994.73
518.69	1010.82
519.05	1027.10
519.41	1043.60
519.77	1060.40
520.13	1076.59
520.49	1092.81
520.85	1109.33
521.21	1126.04
521.57	1142.97
521.93	1159.09
522.29	1175.88
522.65	1192.74
523.01	1209.31
523.37	1225.39
523.73	1242.21
524.09	1258.50
524.45	1275.12
524.81	1291.71
525.17	1308.47
525.53	1325.02
525.89	1341.40
526.25	1357.94
526.61	1373.60
526.97	1389.53
527.33	1405.37
527.68	1421.49
528.04	1437.18
528.40	1452.39
528.76	1467.29
529.12	1482.89
529.48	1499.03
529.84	1514.07
530.20	1528.96
530.56	1543.91
530.91	1559.71
531.27	1574.69
531.63	1589.42
531.99	1604.26
532.35	1618.58
532.71	1632.32
533.07	1646.83
533.42	1660.91
533.78	1674.60
534.14	1688.23
534.50	1701.02
534.86	1714.42
535.21	1726.72
535.57	1740.04
535.93	1752.66
536.29	1765.34
536.65	1777.50
537.00	1788.45
537.36	1799.69
537.72	1810.85
538.08	1822.29
538.44	1832.87
538.79	1843.62
539.15	1854.46
539.51	1864.65
539.87	1875.51
540.22	1885.79
540.58	1895.69
540.94	1905.33
541.29	1914.00
541.65	1922.70
542.01	1931.60
542.37	1939.77
542.72	1948.39
543.08	1955.81
543.44	1964.20
543.79	1971.59
544.15	1978.50
544.51	1986.34
544.87	1993.83
545.22	2000.63
545.58	2006.49
545.94	2011.98
546.29	2016.86
546.65	2021.62
547.01	2026.50
547.36	2030.68
547.72	2035.06
548.07	2038.75
548.43	2042.10
548.79	2045.70
549.14	2049.17
549.50	2052.48
549.86	2054.83
550.21	2057.24
550.57	2059.85
550.92	2061.32
551.28	2062.77
551.64	2064.74
551.99	2066.60
552.35	2067.48
552.70	2068.43
553.06	2069.84
553.41	2071.16
553.77	2072.50
554.13	2073.42
554.48	2073.89
554.84	2074.64
555.19	2074.83
555.55	2074.86
555.90	2074.45
556.26	2074.14
556.61	2073.73
556.97	2072.38
557.32	2071.85
557.68	2070.49
558.03	2069.04
558.39	2067.85
558.74	2067.68
559.10	2066.70
559.45	2065.04
559.81	2063.90
560.16	2062.13
560.52	2060.65
560.87	2058.68
561.23	2056.19
561.58	2054.51
561.94	2052.48
562.29	2049.33
562.64	2046.98
563.00	2044.58
563.35	2042.74
563.71	2041.30
564.06	2039.13
564.42	2038.00
564.77	2036.18
565.12	2034.65
565.48	2032.89
565.83	2030.85
566.19	2028.40
566.54	2024.83
566.89	2021.76
567.25	2019.03
567.60	2016.65
567.96	2013.05
568.31	2010.05
568.66	2006.76
569.02	2002.65
569.37	1998.41
569.72	1995.19
570.08	1990.93
570.43	1986.77
570.78	1982.45
571.14	1977.39
571.49	1972.92
571.84	1968.15
572.20	1962.71
572.55	1958.06
572.90	1952.80
573.26	1947.35
573.61	1941.55
573.96	1936.46
574.31	1930.54
574.67	1924.22
575.02	1917.65
575.37	1911.97
575.72	1905.28
576.08	1899.86
576.43	1893.77
576.78	1888.24
577.13	1882.63
577.49	1876.95
577.84	1871.09
578.19	1865.59
578.54	1860.27
578.90	1854.98
579.25	1848.95
579.60	1842.78
579.95	1836.13
580.30	1830.28
580.66	1824.84
581.01	1818.79
581.36	1812.62
581.71	1806.66
582.06	1800.87
582.42	1794.98
582.77	1788.34
583.12	1782.68
583.47	1776.59
583.82	1771.22
584.17	1765.17
584.53	1759.23
584.88	1753.50
585.23	1747.42
585.58	1741.21
585.93	1734.60
586.28	1728.52
586.63	1722.40
586.98	1716.90
587.34	1711.25
587.69	1705.07
588.04	1699.14
588.39	1693.47
588.74	1687.16
589.09	1681.64
589.44	1675.50
589.79	1670.31
590.14	1664.95
590.49	1659.23
590.84	1653.58
591.19	1648.20
591.54	1642.13
591.89	1635.31
592.25	1629.23
592.60	1623.08
592.95	1616.32
593.30	1609.91
593.65	1603.05
594.00	1596.69
594.35	1591.92
594.70	1585.81
595.05	1580.25
595.40	1574.03
595.75	1567.56
596.10	1562.10
596.45	1556.49
596.80	1551.45
597.15	1545.58
597.50	1539.62
597.85	1533.92
598.19	1527.72
598.54	1521.67
598.89	1516.30
599.24	1511.46
599.59	1505.86
599.94	1501.25
600.29	1496.56
600.64	1491.48
600.99	1485.90
601.34	1480.88
601.69	1473.92
602.04	1468.13
602.39	1462.30
602.74	1457.07
603.08	1452.45
603.43	1447.60
603.78	1442.08
604.13	1436.28
604.48	1431.06
604.83	1426.48
605.18	1421.86
605.53	1416.89
605.87	1411.26
606.22	1406.28
606.57	1400.88
606.92	1395.41
607.27	1389.59
607.62	1383.83
607.96	1378.70
608.31	1374.18
608.66	1368.40
609.01	1362.95
609.36	1357.40
609.70	1351.44
610.05	1345.31
610.40	1339.28
610.75	1333.03
611.10	1327.68
611.44	1321.23
611.79	1314.71
612.14	1308.04
612.49	1301.02
612.83	1294.82
613.18	1288.22
613.53	1281.47
613.88	1274.58
614.22	1268.54
614.57	1261.90
614.92	1255.35
615.27	1248.60
615.61	1241.71
615.96	1235.54
616.31	1229.63
616.65	1224.04
617.00	1218.23
617.35	1212.19
617.70	1205.65
618.04	1198.83
618.39	1191.51
618.74	1185.59
619.08	1179.13
619.43	1172.95
619.78	1166.92
620.12	1160.70
620.47	1154.94
620.82	1148.49
621.16	1142.16
621.51	1135.86
621.85	1129.86
622.20	1123.57
622.55	1117.51
622.89	1111.15
623.24	1104.83
623.59	1098.32
623.93	1091.85
624.28	1085.92
624.62	1080.23
624.97	1074.45
625.32	1068.97
625.66	1063.28
626.01	1057.34
626.35	1051.92
626.70	1046.17
627.04	1040.61
627.39	1035.05
627.73	1029.24
628.08	1024.13
628.43	1018.47
628.77	1012.70
629.12	1006.71
629.46	1001.86
629.81	996.33
630.15	991.04
630.50	985.43
630.84	979.80
631.19	974.43
631.53	968.71
631.88	962.55
632.22	956.68
632.57	951.41
632.91	945.91
633.26	940.66
633.60	935.12
633.95	930.07
634.29	924.56
634.64	919.12
634.98	913.72
635.32	908.60
635.67	904.11
636.01	899.28
636.36	894.07
636.70	888.96
637.05	884.07
637.39	879.17
637.73	874.69
638.08	870.40
638.42	865.82
638.77	861.24
639.11	856.67
639.45	852.09
639.80	847.03
640.14	842.11
640.49	837.23
640.83	832.27
641.17	827.36
641.52	822.53
641.86	817.61
642.20	812.89
642.55	807.54
642.89	802.06
643.23	796.89
643.58	792.57
643.92	787.42
644.26	782.46
644.61	777.65
644.95	772.70
645.29	767.75
645.64	762.64
645.98	757.76
646.32	753.07
646.66	748.26
647.01	743.66
647.35	739.38
647.69	734.50
648.04	730.18
648.38	725.40
648.72	720.80
649.06	716.19
649.41	711.59
649.75	707.25
650.09	703.22
650.43	698.67
650.78	693.88
651.12	689.36
651.46	685.00
651.80	680.69
652.14	676.25
652.49	671.81
652.83	667.37
653.17	662.62
653.51	658.20
653.85	654.00
654.20	649.61
654.54	645.10
654.88	641.02
655.22	636.58
655.56	632.16
655.90	627.92
656.25	623.62
656.59	619.42
656.93	615.45
657.27	611.30
657.61	607.19
657.95	603.29
658.29	599.30
658.64	595.25
658.98	591.23
659.32	587.04
659.66	583.09
660.00	579.14
660.34	575.47
660.68	571.41
661.02	567.38
661.36	563.75
661.70	560.11
662.05	556.46
662.39	552.98
662.73	549.76
663.07	546.54
663.41	543.28
663.75	539.86
664.09	536.17
664.43	532.60
664.77	529.31
665.11	526.02
665.45	522.99
665.79	519.81
666.13	516.49
666.47	513.52
666.81	510.23
667.15	507.12
667.49	504.15
667.83	501.40
668.17	498.52
668.51	495.55
668.85	492.81
669.19	490.01
669.53	487.10
669.87	484.16
670.21	481.17
670.55	478.30
670.89	475.72
671.23	473.19
671.57	470.59
671.91	467.90
672.25	465.07
672.58	462.37
672.92	459.72
673.26	457.35
673.60	454.90
673.94	452.54
674.28	450.04
674.62	447.66
674.96	445.16
675.30	442.82
675.64	440.50
675.97	438.09
676.31	435.80
676.65	433.59
676.99	431.58
677.33	429.25
677.67	427.05
678.01	424.66
678.34	422.38
678.68	420.16
679.02	417.96
679.36	415.94
679.70	413.65
680.04	411.54
680.37	409.34
680.71	407.27
681.05	405.22
681.39	403.24
681.73	401.14
682.06	399.26
682.40	397.24
682.74	395.21
683.08	393.26
683.42	391.10
683.75	389.22
684.09	387.07
684.43	385.17
684.77	383.20
685.10	381.36
685.44	379.37
685.78	377.45
686.12	375.72
686.45	373.87
686.79	372.18
687.13	370.51
687.46	368.73
687.80	366.87
688.14	365.09
688.48	363.50
688.81	361.77
689.15	360.08
689.49	358.36
689.82	356.66
690.16	354.87
690.50	353.24
690.83	351.43
691.17	349.72
691.51	348.07
691.84	346.50
692.18	344.93
692.52	343.51
692.85	342.23
693.19	340.81
693.52	339.33
693.86	337.76
694.20	336.31
694.53	334.89
694.87	333.51
695.21	332.08
695.54	330.50
695.88	328.96
696.21	327.46
696.55	326.13
696.88	324.77
697.22	323.42
697.56	322.21
697.89	320.90
698.23	319.66
698.56	318.36
698.90	317.19
699.23	315.96
699.57	314.78
699.90	313.35
700.24	312.02
700.58	310.71
700.91	309.58
701.25	308.69
701.58	307.54
701.92	306.34
702.25	305.15
702.59	304.04
702.92	303.04
703.26	301.98
703.59	300.93
703.93	300.16
704.26	299.16
704.60	298.12
704.93	297.10
705.26	296.04
705.60	295.13
705.93	293.94
706.27	293.02
706.60	292.17
706.94	291.40
707.27	290.47
707.61	289.64
707.94	288.68
708.27	287.37
708.61	286.39
708.94	285.49
709.28	284.60
709.61	283.69
709.94	282.89
710.28	282.07
710.61	281.26
710.95	280.08
711.28	279.45
711.61	278.64
711.95	277.90
712.28	277.05
712.61	276.21
712.95	275.74
713.28	275.07
713.61	274.21
713.95	273.38
714.28	272.64
714.61	271.82
714.95	271.13
715.28	270.44
715.61	269.77
715.95	269.20
716.28	268.50
716.61	267.93
716.95	267.25
717.28	266.58
717.61	265.89
717.94	265.31
718.28	264.52
718.61	263.83
718.94	263.25
719.27	262.80
719.61	262.32
719.94	261.56
720.27	260.85
720.60	260.29
720.94	259.69
721.27	259.13
721.60	258.72
721.93	258.20
722.27	257.78
722.60	257.30
722.93	256.68
723.26	256.26
723.59	255.70
723.93	255.20
724.26	254.81
724.59	254.44
724.92	254.03
725.25	253.73
725.59	253.36
725.92	252.95
726.25	252.33
726.58	251.82
726.91	251.45
727.24	251.09
727.57	250.62
727.91	250.12
728.24	249.71
728.57	249.20
728.90	248.86
729.23	248.32
729.56	248.09
729.89	247.66
730.22	247.31
730.55	246.93
730.89	246.54
731.22	246.02
731.55	245.60
731.88	245.23
732.21	244.78
732.54	244.29
732.87	243.87
733.20	243.56
733.53	243.24
733.86	242.92
734.19	242.48
734.52	242.19
734.85	242.15
735.18	241.82
735.51	241.65
735.84	241.33
736.17	241.15
736.50	240.62
736.83	240.78
737.16	240.35
737.49	240.05
737.82	239.66
738.15	239.45
738.48	239.10
738.81	238.77
739.14	238.37
739.47	238.16
739.80	237.83
740.13	237.62
740.46	237.30
740.79	236.90
741.12	236.61
741.45	236.36
741.78	235.86
742.11	235.66
742.44	235.28
742.77	235.00
743.10	234.69
743.43	234.37
743.75	233.74
744.08	234.00
744.41	233.72
744.74	233.52
745.07	233.18
745.40	233.03
745.73	232.93
746.06	232.66
746.39	232.39
746.71	232.12
747.04	231.80
747.37	231.55
747.70	231.42
748.03	231.23
748.36	230.95
748.68	230.80
749.01	230.40
749.34	230.22
749.67	229.98
750.00	229.83
750.33	229.90
750.65	229.68
750.98	229.12
751.31	228.95
751.64	228.79
751.97	228.86
752.29	228.65
752.62	228.23
752.95	228.13
753.28	227.91
753.60	227.75
753.93	227.73
754.26	227.55
754.59	227.28
754.91	227.06
755.24	227.00
755.57	226.69
755.90	226.65
756.22	226.50
756.55	226.34
756.88	226.10
757.20	225.71
757.53	225.45
757.86	225.19
758.19	225.11
758.51	224.95
758.84	224.58
759.17	224.37
759.49	224.30
759.82	224.27
760.15	224.12
760.47	223.95
760.80	223.70
761.13	223.56
761.45	223.37
761.78	223.25
762.11	222.99
762.43	222.86
762.76	222.69
763.08	222.53
763.41	222.48
763.74	222.38
764.06	222.27
764.39	222.13
764.71	222.02
765.04	221.79
765.37	221.61
765.69	221.44
766.02	221.32
766.34	221.20
766.67	220.94
767.00	220.91
767.32	221.02
767.65	221.06
767.97	220.94
768.30	220.86
768.62	220.75
768.95	220.65
769.27	220.56
769.60	220.54
769.92	220.38
770.25	220.18
770.57	219.99
770.90	219.86
771.22	219.77
771.55	219.69
771.87	219.60
772.20	219.54
772.52	219.80
772.85	220.09
773.17	220.02
773.50	219.96
773.82	219.81
774.15	219.52
774.47	219.23
774.80	219.19
775.12	219.15
775.45	219.09
775.77	219.02
776.09	219.06
776.42	218.91
776.74	218.98
777.07	218.90
777.39	218.78
777.72	218.72
778.04	218.72
778.36	218.60
778.69	218.57
779.01	218.52
779.33	218.09
779.66	217.69
779.98	217.55
780.31	217.42
780.63	217.55
780.95	217.59
781.28	217.61
781.60	217.52
781.92	217.46
782.25	217.40
782.57	217.36
782.89	217.24
783.22	217.24
783.54	217.00
783.86	217.01
784.19	217.06
784.51	217.10
784.83	217.02
785.16	216.99
785.48	216.92
785.80	216.95
786.12	217.04
786.45	216.93
786.77	216.93
787.09	216.86
787.42	216.64
787.74	216.60
788.06	216.56
788.38	216.53
788.71	216.49
789.03	216.43
789.35	216.39
789.67	216.22
789.99	216.16
790.32	216.18
790.64	216.13
790.96	216.34
791.28	216.23
791.61	216.09
791.93	216.06
792.25	216.06
792.57	216.14
792.89	215.94
793.21	215.99
793.54	215.94
793.86	215.93
794.18	215.90
794.50	215.80
794.82	215.70
795.14	215.71
795.47	215.69
795.79	215.64
796.11	215.55
796.43	215.58
796.75	215.55
797.07	215.53
797.39	215.43
797.71	215.14
798.04	215.09
798.36	215.10
798.68	215.06
799.00	215.06
799.32	214.94
799.64	214.97
799.96	214.92
800.28	214.94
800.60	214.88
800.92	214.82
801.24	214.78
801.56	214.78
801.89	214.71
802.21	214.70
802.53	214.63
802.85	214.68
803.17	214.81
803.49	214.77
803.81	214.71
804.13	214.67
804.45	214.63
804.77	214.65
805.09	214.61
805.41	214.59
805.73	214.46
806.05	214.28
806.37	214.27
806.69	214.21
807.01	214.19
807.33	214.21
807.65	214.13
807.97	214.26
808.28	214.23
808.60	214.17
808.92	214.17
809.24	214.34
809.56	214.26
809.88	214.09
810.20	214.06
810.52	214.10
810.84	214.05
811.16	214.00
811.48	213.91
811.80	214.06
812.12	213.99
812.43	214.00
812.75	214.03
813.07	213.99
813.39	213.99
813.71	213.91
814.03	213.79
814.35	213.86
814.67	213.64
814.98	213.56
815.30	213.48
815.62	213.36
815.94	213.18
816.26	213.12
816.58	213.06
816.89	213.04
817.21	212.95
817.53	212.94
817.85	212.91
818.17	212.87
818.48	212.72
818.80	212.82
819.12	212.76
819.44	212.69
819.76	212.65
820.07	212.62
820.39	212.57
820.71	212.67
821.03	212.59
821.34	212.68
821.66	212.67
821.98	212.86
822.30	212.89
822.61	213.12
822.93	213.16
823.25	213.14
823.57	213.14
823.88	213.27
824.20	213.31
824.52	213.40
824.83	213.35
825.15	213.38
825.47	213.28
825.79	213.27
826.10	213.29
826.42	213.26
826.74	213.40
827.05	213.40
827.37	213.40
827.69	213.38
828.00	213.29
828.32	213.29
828.64	213.20
828.95	213.33
829.27	213.19
829.58	213.10
829.90	213.18
830.22	213.16
830.53	212.98
830.85	212.90
831.17	212.80
831.48	212.84
831.80	212.80
832.11	212.87
832.43	212.87
832.75	212.83
833.06	213.04
833.38	212.85
833.69	212.85
834.01	212.80
834.32	212.79
834.64	212.81
834.96	212.85
835.27	212.73
835.59	212.64
835.90	212.50
836.22	212.53
836.53	212.41
836.85	212.40
837.16	212.77
837.48	212.86
837.79	212.93
838.11	212.97
838.42	212.92
838.74	212.92
839.05	212.89
839.37	212.91
839.68	212.71
840.00	212.71
840.31	212.72
840.63	212.73
840.94	212.66
841.26	212.63
841.57	212.60
841.88	212.70
842.20	212.63
842.51	212.66
842.83	212.61
843.14	212.95
843.46	212.88
843.77	212.64
844.08	212.46
844.40	212.39
844.71	212.33
845.03	212.23
845.34	212.11
845.65	212.10
845.97	212.04
846.28	212.01
846.60	211.99
846.91	211.90
847.22	211.85
847.54	211.92
847.85	211.96
848.16	211.96
848.48	211.87
848.79	212.01
849.10	211.97
849.42	212.00
849.73	211.70
850.04	211.73
850.36	211.59
850.67	211.72
850.98	211.70
851.30	211.69
851.61	211.74
851.92	211.83
852.23	211.86
852.55	211.95
852.86	211.97
853.17	212.02
853.49	212.16
853.80	212.18
854.11	212.18
854.42	212.13
854.74	212.10
855.05	212.16
855.36	211.86
855.67	211.93
855.99	211.99
856.30	212.39
856.61	212.36
856.92	212.44
857.23	212.48
857.55	212.45
857.86	212.50
858.17	212.60
858.48	212.56
858.79	212.54
859.11	212.54
859.42	212.48
859.73	212.38
860.04	212.39
860.35	212.35
860.66	212.29
860.98	212.33
861.29	212.33
861.60	212.30
861.91	212.39
862.22	212.34
862.53	212.25
862.84	211.86
863.16	211.99
863.47	211.86
863.78	211.74
864.09	211.84
864.40	211.84
864.71	211.81
865.02	211.80
865.33	211.75
865.64	211.72
865.95	211.74
866.27	211.97
866.58	211.88
866.89	211.87
867.20	211.92
867.51	211.83
867.82	211.77
868.13	211.85
868.44	211.85
868.75	211.91
869.06	211.90
869.37	211.92
869.68	211.78
869.99	211.87
870.30	211.90
870.61	211.89
870.92	211.76
871.23	211.72
871.54	211.75
871.85	211.86
872.16	211.83
872.47	211.80
872.78	211.62
873.09	211.63
873.40	211.62
873.71	211.59
874.02	211.58
874.33	211.52
874.64	211.35
874.95	211.43
875.26	211.30
875.56	211.34
875.87	211.29
876.18	211.30
876.49	211.66
876.80	211.66
877.11	211.65
877.42	211.73
877.73	211.72
878.04	211.64
878.35	211.65
878.66	211.68
878.96	211.70
879.27	211.65
879.58	211.68
879.89	211.70
880.20	211.85
880.51	211.89
880.82	211.92
881.12	212.06
881.43	212.03
881.74	212.05
882.05	211.98
882.36	212.02
882.67	212.00
882.97	211.65
883.28	211.63
883.59	211.55
883.90	211.55
884.21	211.59
884.51	211.59
884.82	211.52
885.13	211.50
885.44	211.53
885.74	211.55
886.05	211.50
886.36	211.45
886.67	211.26
886.98	211.41
887.28	211.53
887.59	211.45
887.90	211.47
888.20	211.45
888.51	211.55
888.82	211.54
889.13	211.62
889.43	211.92
889.74	211.95
890.05	211.97
890.35	211.98
890.66	212.01
890.97	212.01
891.28	212.00
891.58	212.00
891.89	211.98
892.20	211.95
892.50	211.97
892.81	212.02
893.12	212.05
893.42	211.94
893.73	211.92
894.04	211.91
894.34	211.90
894.65	211.91
894.95	211.91
895.26	211.86
895.57	212.02
895.87	211.69
896.18	211.67
896.48	211.65
896.79	211.60
897.10	211.55
897.40	211.55
897.71	211.61
898.01	211.58
898.32	211.66
898.63	211.66
898.93	211.64
899.24	211.59
899.54	211.60
899.85	211.55
900.15	211.54
900.46	211.57
900.76	211.60
901.07	211.60
901.38	211.52
901.68	211.56
901.99	211.27
902.29	211.31
902.60	211.31
902.90	211.30
903.21	211.30
903.51	211.27
903.82	211.22
904.12	211.10
904.43	211.10
904.73	211.05
905.03	211.13
905.34	211.43
905.64	211.51
905.95	211.46
906.25	211.44
906.56	211.39
906.86	211.37
907.17	211.33
907.47	211.35
907.77	211.32
908.08	211.29
908.38	211.35
908.69	211.34
908.99	211.39
909.30	211.43
909.60	211.44
909.90	211.54
910.21	211.64
910.51	211.67
910.81	211.68
911.12	211.71
911.42	211.72
911.73	211.39
912.03	211.44
912.33	211.54
912.64	211.53
912.94	211.56
913.24	211.54
913.55	211.57
913.85	211.56
914.15	211.64
914.46	211.66
914.76	211.69
915.06	211.65
915.37	211.61
915.67	211.57
915.97	211.56
916.27	211.46
916.58	211.38
916.88	211.34
917.18	211.34
917.49	211.59
917.79	211.56
918.09	211.61
918.39	211.60
918.70	211.54
919.00	211.58
919.30	211.69
919.60	211.71
919.91	211.58
920.21	211.63
920.51	211.60
920.81	211.58
921.12	211.65
921.42	211.69
921.72	211.73
922.02	211.80
922.32	211.87
922.63	211.91
922.93	212.09
923.23	212.14
923.53	212.11
923.83	211.83
924.13	211.80
924.44	211.79
924.74	211.86
925.04	212.00
925.34	212.02
925.64	211.84
925.94	211.81
926.24	212.08
926.55	212.04
926.85	212.06
927.15	212.10
927.45	212.03
927.75	211.95
928.05	211.96
928.35	211.92
928.65	211.96
928.95	211.95
929.26	211.86
929.56	211.94
929.86	211.97
930.16	211.94
930.46	211.98
930.76	212.04
931.06	211.91
931.36	211.75
931.66	211.73
931.96	211.83
932.26	211.84
932.56	211.73
932.86	211.75
933.16	211.77
933.46	211.69
933.76	211.73
934.06	211.88
934.36	211.99
934.66	211.95
934.96	211.89
935.26	211.89
935.56	211.95
935.86	211.81
936.16	211.81
936.46	211.77
936.76	211.77
937.06	211.75
937.36	211.73
937.66	211.78
937.96	211.73
938.26	211.63
938.56	211.55
938.86	211.51
939.16	211.53
939.46	211.53
939.76	211.56
940.06	211.48
940.35	211.38
940.65	211.17
940.95	211.23
941.25	211.21
941.55	211.20
941.85	211.12
942.15	211.18
942.45	211.26
942.75	211.29
943.04	211.24
943.34	211.17
943.64	211.22
943.94	211.10
944.24	211.12
944.54	211.12
944.84	211.15
945.13	211.05
945.43	210.99
945.73	210.94
946.03	210.95
946.33	210.92
946.62	210.87
946.92	210.80
947.22	210.78
947.52	210.85
947.82	210.89
948.11	210.83
948.41	210.78
948.71	210.65
949.01	210.62
949.31	210.55
949.60	210.55
949.90	210.55
950.20	210.60
950.50	210.56
950.79	210.64
951.09	210.77
951.39	210.81
951.69	210.80
951.98	210.88
952.28	210.87
952.58	210.90
952.87	210.87
953.17	211.00
953.47	210.88
953.76	210.82
954.06	210.76
954.36	210.74
954.66	210.74
954.95	210.76
955.25	210.80
955.55	210.92
955.84	210.89
956.14	210.94
956.44	210.93
956.73	210.91
957.03	210.92
957.32	210.79
957.62	210.74
957.92	210.85
958.21	210.77
958.51	211.22
958.81	211.24
959.10	211.31
959.40	211.38
959.69	211.49
959.99	211.54
960.29	211.54
960.58	211.54
960.88	211.69
961.17	211.66
961.47	211.74
961.76	211.65
962.06	211.67
962.36	211.58
962.65	211.58
962.95	211.58
963.24	211.51
963.54	211.60
963.83	211.69
964.13	211.57
964.42	211.56
964.72	211.23
965.01	211.26
965.31	211.19
965.60	211.09
965.90	211.31
966.19	211.21
966.49	211.23
966.78	211.17
967.08	211.09
967.37	211.16
967.67	211.09
967.96	211.18
968.26	211.14
968.55	211.16
968.85	211.20
969.14	211.25
969.43	211.24
969.73	211.17
970.02	211.17
970.32	211.19
970.61	211.19
970.91	211.07
971.20	210.97
971.49	210.95
971.79	211.00
972.08	210.70
972.38	210.73
972.67	210.79
972.96	210.88
973.26	210.76
973.55	210.85
973.85	210.83
974.14	210.74
974.43	210.77
974.73	210.75
975.02	210.66
975.31	210.68
975.61	210.71
975.90	210.67
976.19	210.58
976.49	210.56
976.78	210.59
977.07	210.64
977.37	210.69
977.66	210.76
977.95	210.70
978.24	210.73
978.54	210.76
978.83	210.63
979.12	210.59
979.42	210.70
979.71	210.60
980.00	210.62
980.29	210.66
980.59	210.65
980.88	210.74
981.17	210.72
981.46	210.65
981.76	210.63
982.05	210.75
982.34	210.80
982.63	210.87
982.93	210.84
983.22	210.92
983.51	210.98
983.80	211.05
984.09	211.06
984.39	211.07
984.68	211.06
984.97	211.07
985.26	211.15
985.55	211.23
985.85	211.20
986.14	211.21
986.43	211.22
986.72	211.28
987.01	211.19
987.30	211.31
987.59	211.32
987.89	211.33
988.18	211.28
988.47	211.30
988.76	211.24
989.05	211.19
989.34	211.12
989.63	211.10
989.92	211.07
990.22	211.09
990.51	211.02
990.80	211.03
991.09	211.07
991.38	211.00
991.67	210.94
991.96	210.89
992.25	210.83
992.54	210.85
992.83	210.82
993.12	210.79
993.41	210.74
993.70	210.86
993.99	210.93
994.28	210.90
994.58	210.95
994.87	210.90
995.16	210.95
995.45	210.89
995.74	210.83
996.03	210.82
996.32	210.89
996.61	211.02
996.90	210.97
997.19	211.03
997.48	211.12
997.77	211.03
998.06	211.09
998.34	211.09
998.63	211.03
998.92	210.98
999.21	211.07
999.50	211.10
999.79	211.08
1000.08	211.01
1000.37	211.09
1000.66	211.01
1000.95	211.15
1001.24	211.15
1001.53	211.24
1001.82	211.30
1002.11	211.25
1002.40	211.22
1002.68	211.37
1002.97	211.64
1003.26	211.54
1003.55	211.42
1003.84	211.46
1004.13	211.59
1004.42	211.66
1004.71	211.69
1004.99	211.70
1005.28	211.80
1005.57	211.75
1005.86	211.67
1006.15	211.66
1006.44	211.55
1006.72	211.62
1007.01	211.51
1007.30	211.57
1007.59	211.48
1007.88	211.40
1008.17	211.40
1008.45	211.30
1008.74	211.10
1009.03	210.96
1009.32	211.02
1009.60	211.04
1009.89	211.02
1010.18	210.90
1010.47	210.81
1010.76	210.84
1011.04	210.89
1011.33	210.87
1011.62	210.92
1011.91	210.94
1012.19	211.06
1012.48	211.13
1012.77	211.09
1013.05	211.28
1013.34	211.25
1013.63	211.29
1013.92	211.36
1014.20	211.37
1014.49	211.40
1014.78	211.41
1015.06	211.27
1015.35	211.26
1015.64	211.36
1015.92	211.50
1016.21	211.47
1016.50	211.54
1016.78	211.56
1017.07	211.56
1017.36	211.48
1017.64	211.42
1017.93	211.51
1018.22	211.44
1018.50	211.44
1018.79	211.44
1019.08	211.27
1019.36	211.28
1019.65	211.20
1019.93	211.22
1020.22	211.26
1020.51	211.49
1020.79	211.48
1021.08	211.10
1021.36	211.35
1021.65	210.80
1021.94	210.65
1022.22	211.15
1022.51	209.90
1022.79	211.95
1023.08	211.75
1023.36	215.10
1023.65	211.20
>>>>>End Processed Spectral Data<<<<<
