SpectraSuite Data File
++++++++++++++++++++++++++++++++++++
Date: Mon Feb 25 17:06:29 EST 2013
User: group
Dark Spectrum Present: No
Reference Spectrum Present: No
Number of Sampled Component Spectra: 1
Spectrometers: USB2E7196
Integration Time (usec): 104000 (USB2E7196)
Spectra Averaged: 20 (USB2E7196)
Boxcar Smoothing: 10 (USB2E7196)
Correct for Electrical Dark: No (USB2E7196)
Strobe/Lamp Enabled: No (USB2E7196)
Correct for Detector Non-linearity: No (USB2E7196)
Correct for Stray Light: No (USB2E7196)
Number of Pixels in Processed Spectrum: 2048
>>>>>Begin Processed Spectral Data<<<<<
339.09	0.00
339.48	197.60
339.86	200.85
340.24	200.60
340.63	202.65
341.01	208.30
341.39	204.50
341.78	207.35
342.16	209.15
342.54	208.35
342.93	197.87
343.31	207.85
343.69	208.44
344.07	208.81
344.46	209.36
344.84	209.71
345.22	209.81
345.60	210.09
345.99	210.29
346.37	210.39
346.75	210.49
347.13	210.60
347.52	210.62
347.90	210.83
348.28	210.80
348.66	210.91
349.05	210.81
349.43	210.88
349.81	210.88
350.19	211.00
350.57	211.03
350.96	211.06
351.34	211.11
351.72	211.20
352.10	211.33
352.48	211.36
352.87	211.43
353.25	211.53
353.63	211.61
354.01	211.59
354.39	211.65
354.77	211.74
355.15	211.93
355.54	211.99
355.92	211.93
356.30	212.13
356.68	212.36
357.06	212.47
357.44	212.49
357.82	212.51
358.20	212.59
358.58	212.61
358.97	212.73
359.35	212.90
359.73	212.98
360.11	213.01
360.49	213.01
360.87	213.10
361.25	213.17
361.63	213.32
362.01	213.41
362.39	213.41
362.77	213.46
363.15	213.44
363.53	213.47
363.91	213.51
364.29	213.42
364.67	213.12
365.05	213.16
365.43	213.15
365.81	213.23
366.19	213.40
366.57	213.55
366.95	213.51
367.33	213.40
367.71	213.39
368.09	213.51
368.47	213.51
368.85	213.47
369.23	213.47
369.61	213.37
369.99	213.50
370.37	213.50
370.75	213.62
371.13	213.48
371.51	213.45
371.89	213.53
372.27	213.55
372.65	213.50
373.03	213.43
373.41	213.38
373.78	213.35
374.16	213.10
374.54	212.98
374.92	212.84
375.30	212.75
375.68	212.71
376.06	212.58
376.44	212.48
376.82	212.40
377.19	212.27
377.57	212.20
377.95	212.00
378.33	211.94
378.71	211.69
379.09	211.71
379.47	211.67
379.84	211.54
380.22	211.44
380.60	211.40
380.98	211.32
381.36	211.25
381.73	211.11
382.11	211.12
382.49	211.07
382.87	211.01
383.25	211.07
383.62	211.38
384.00	211.30
384.38	211.31
384.76	211.38
385.13	211.54
385.51	211.47
385.89	211.39
386.27	211.38
386.64	211.36
387.02	211.27
387.40	211.21
387.78	211.21
388.15	211.18
388.53	211.08
388.91	211.05
389.29	211.00
389.66	211.04
390.04	210.93
390.42	210.96
390.79	210.99
391.17	210.93
391.55	210.51
391.92	210.47
392.30	210.50
392.68	210.45
393.05	210.37
393.43	210.33
393.81	210.36
394.18	210.27
394.56	210.26
394.94	210.37
395.31	210.34
395.69	210.39
396.06	210.43
396.44	210.47
396.82	210.48
397.19	210.64
397.57	210.56
397.95	210.63
398.32	210.49
398.70	210.53
399.07	210.64
399.45	210.60
399.82	210.61
400.20	210.55
400.58	210.45
400.95	210.34
401.33	210.39
401.70	210.58
402.08	210.60
402.45	210.66
402.83	210.72
403.20	210.83
403.58	210.80
403.95	210.89
404.33	211.02
404.71	211.10
405.08	211.45
405.46	211.54
405.83	211.56
406.21	211.68
406.58	211.74
406.96	211.85
407.33	211.99
407.70	212.15
408.08	212.57
408.45	212.80
408.83	213.11
409.20	213.24
409.58	213.30
409.95	213.55
410.33	213.81
410.70	214.00
411.08	214.24
411.45	214.49
411.82	214.70
412.20	215.06
412.57	215.51
412.95	215.49
413.32	216.02
413.69	216.38
414.07	216.85
414.44	217.40
414.82	217.85
415.19	218.42
415.56	219.03
415.94	219.51
416.31	220.30
416.68	220.88
417.06	221.78
417.43	222.70
417.81	223.60
418.18	224.60
418.55	225.57
418.93	226.65
419.30	227.84
419.67	229.10
420.04	230.28
420.42	231.46
420.79	233.19
421.16	234.55
421.54	236.33
421.91	237.93
422.28	239.60
422.66	241.37
423.03	243.36
423.40	245.19
423.77	247.06
424.15	248.92
424.52	251.01
424.89	253.19
425.26	255.21
425.64	257.30
426.01	259.45
426.38	261.81
426.75	264.27
427.13	266.66
427.50	269.26
427.87	271.94
428.24	274.75
428.61	277.09
428.99	280.14
429.36	282.97
429.73	286.00
430.10	289.05
430.47	292.09
430.85	295.09
431.22	298.45
431.59	302.29
431.96	305.80
432.33	309.59
432.70	313.39
433.08	317.78
433.45	321.99
433.82	326.15
434.19	330.65
434.56	335.17
434.93	339.61
435.30	343.92
435.68	348.69
436.05	353.30
436.42	358.02
436.79	362.27
437.16	367.05
437.53	371.93
437.90	376.70
438.27	381.54
438.64	386.60
439.01	391.26
439.38	395.30
439.75	399.35
440.13	404.06
440.50	408.45
440.87	412.03
441.24	415.71
441.61	419.76
441.98	422.89
442.35	426.25
442.72	429.77
443.09	433.32
443.46	435.60
443.83	437.25
444.20	438.70
444.57	440.64
444.94	441.67
445.31	442.86
445.68	444.34
446.05	445.02
446.42	444.63
446.79	444.41
447.16	443.92
447.53	443.75
447.90	442.17
448.27	440.41
448.64	438.03
449.01	436.45
449.37	433.50
449.74	430.69
450.11	427.55
450.48	423.66
450.85	419.50
451.22	416.04
451.59	412.84
451.96	409.65
452.33	405.37
452.70	401.58
453.07	396.85
453.43	391.84
453.80	387.31
454.17	383.13
454.54	378.96
454.91	374.60
455.28	370.22
455.65	366.16
456.02	362.70
456.38	359.31
456.75	355.07
457.12	351.46
457.49	347.94
457.86	344.25
458.23	341.38
458.59	338.30
458.96	335.14
459.33	332.13
459.70	329.37
460.07	327.09
460.43	324.47
460.80	322.13
461.17	320.09
461.54	317.80
461.91	315.63
462.27	313.46
462.64	311.55
463.01	309.61
463.38	307.73
463.74	305.26
464.11	303.43
464.48	301.86
464.85	300.18
465.21	298.85
465.58	297.55
465.95	295.80
466.32	294.43
466.68	293.01
467.05	291.67
467.42	290.22
467.78	288.79
468.15	287.33
468.52	286.36
468.88	284.90
469.25	283.70
469.62	282.75
469.98	281.60
470.35	280.61
470.72	279.70
471.08	278.56
471.45	277.75
471.82	277.03
472.18	276.06
472.55	275.37
472.92	274.54
473.28	273.71
473.65	273.01
474.02	272.28
474.38	271.69
474.75	271.21
475.11	270.69
475.48	270.30
475.85	269.98
476.21	269.46
476.58	269.15
476.94	268.98
477.31	268.65
477.67	268.40
478.04	268.17
478.41	267.93
478.77	268.13
479.14	267.93
479.50	267.85
479.87	267.80
480.23	267.79
480.60	267.65
480.96	267.67
481.33	267.83
481.69	267.85
482.06	267.86
482.42	267.86
482.79	267.82
483.15	267.84
483.52	268.02
483.88	268.17
484.25	268.29
484.61	268.41
484.98	268.66
485.34	269.09
485.71	269.46
486.07	269.71
486.44	269.68
486.80	270.01
487.17	270.29
487.53	270.78
487.90	271.26
488.26	271.96
488.62	272.54
488.99	273.00
489.35	273.63
489.72	274.27
490.08	275.01
490.44	275.76
490.81	276.57
491.17	277.25
491.54	278.13
491.90	279.03
492.26	279.94
492.63	280.80
492.99	281.62
493.36	282.56
493.72	283.66
494.08	284.75
494.45	285.89
494.81	287.09
495.17	288.22
495.54	289.44
495.90	290.43
496.26	291.64
496.63	292.91
496.99	294.19
497.35	295.57
497.72	296.94
498.08	298.20
498.44	299.60
498.80	301.02
499.17	302.41
499.53	303.79
499.89	305.24
500.26	306.69
500.62	308.13
500.98	309.66
501.34	311.01
501.71	312.57
502.07	314.10
502.43	315.56
502.79	316.98
503.16	318.38
503.52	319.94
503.88	321.35
504.24	322.90
504.60	324.49
504.97	326.05
505.33	327.54
505.69	329.34
506.05	330.90
506.41	332.47
506.78	333.93
507.14	335.51
507.50	337.01
507.86	338.72
508.22	340.37
508.59	341.88
508.95	343.55
509.31	345.25
509.67	346.86
510.03	348.45
510.39	350.08
510.75	351.75
511.12	353.52
511.48	355.26
511.84	356.87
512.20	358.46
512.56	360.08
512.92	361.68
513.28	363.24
513.64	364.82
514.00	366.51
514.37	368.22
514.73	369.85
515.09	371.65
515.45	373.20
515.81	374.77
516.17	376.50
516.53	378.10
516.89	379.65
517.25	381.27
517.61	383.10
517.97	384.76
518.33	386.45
518.69	388.09
519.05	389.88
519.41	391.74
519.77	393.78
520.13	395.53
520.49	397.36
520.85	399.22
521.21	401.30
521.57	403.24
521.93	405.03
522.29	407.09
522.65	408.87
523.01	410.84
523.37	413.01
523.73	415.10
524.09	417.25
524.45	419.42
524.81	421.74
525.17	423.85
525.53	426.32
525.89	428.65
526.25	431.07
526.61	433.24
526.97	435.64
527.33	437.87
527.68	440.64
528.04	443.04
528.40	445.45
528.76	447.88
529.12	450.48
529.48	453.41
529.84	456.04
530.20	458.91
530.56	461.78
530.91	464.57
531.27	467.38
531.63	470.33
531.99	473.14
532.35	475.90
532.71	478.80
533.07	481.68
533.42	484.89
533.78	487.88
534.14	491.03
534.50	493.86
534.86	497.10
535.21	499.72
535.57	503.02
535.93	505.95
536.29	509.14
536.65	512.18
537.00	515.01
537.36	518.01
537.72	520.87
538.08	523.85
538.44	526.86
538.79	529.94
539.15	532.86
539.51	535.97
539.87	539.15
540.22	542.25
540.58	545.41
540.94	548.24
541.29	551.27
541.65	554.23
542.01	557.27
542.37	560.14
542.72	563.24
543.08	566.08
543.44	569.47
543.79	572.19
544.15	575.44
544.51	578.60
544.87	581.70
545.22	584.86
545.58	587.79
545.94	590.57
546.29	593.28
546.65	596.15
547.01	598.95
547.36	601.73
547.72	604.57
548.07	607.05
548.43	609.79
548.79	612.33
549.14	614.89
549.50	617.62
549.86	620.05
550.21	622.79
550.57	625.60
550.92	627.96
551.28	630.53
551.64	632.79
551.99	635.22
552.35	637.60
552.70	639.75
553.06	642.17
553.41	644.33
553.77	646.84
554.13	649.03
554.48	651.36
554.84	653.68
555.19	655.75
555.55	658.30
555.90	660.27
556.26	662.21
556.61	664.14
556.97	665.85
557.32	667.75
557.68	669.38
558.03	670.79
558.39	672.39
558.74	674.28
559.10	675.79
559.45	677.52
559.81	679.29
560.16	680.91
560.52	682.31
560.87	684.00
561.23	685.36
561.58	687.17
561.94	688.54
562.29	689.84
562.64	691.35
563.00	692.29
563.35	693.73
563.71	695.34
564.06	696.85
564.42	698.48
564.77	699.94
565.12	701.33
565.48	703.01
565.83	704.36
566.19	705.51
566.54	706.70
566.89	707.61
567.25	708.68
567.60	710.07
567.96	711.61
568.31	712.86
568.66	713.94
569.02	714.42
569.37	715.00
569.72	715.64
570.08	716.28
570.43	717.03
570.78	717.45
571.14	717.68
571.49	718.06
571.84	718.28
572.20	718.37
572.55	718.68
572.90	718.45
573.26	718.48
573.61	718.32
573.96	718.24
574.31	718.00
574.67	717.36
575.02	716.83
575.37	716.00
575.72	715.32
576.08	714.95
576.43	714.55
576.78	714.14
577.13	713.82
577.49	713.39
577.84	712.97
578.19	712.39
578.54	712.03
578.90	711.66
579.25	711.18
579.60	710.71
579.95	709.86
580.30	709.57
580.66	709.12
581.01	708.63
581.36	708.06
581.71	707.50
582.06	707.38
582.42	706.81
582.77	706.36
583.12	705.82
583.47	705.10
583.82	704.54
584.17	703.95
584.53	703.52
584.88	702.77
585.23	702.22
585.58	701.78
585.93	701.02
586.28	700.41
586.63	699.77
586.98	699.03
587.34	698.60
587.69	697.77
588.04	697.01
588.39	696.26
588.74	695.31
589.09	694.83
589.44	693.70
589.79	693.01
590.14	692.15
590.49	691.29
590.84	690.41
591.19	689.83
591.54	689.04
591.89	687.63
592.25	686.87
592.60	685.65
592.95	684.21
593.30	683.11
593.65	681.53
594.00	680.21
594.35	680.32
594.70	679.09
595.05	677.96
595.40	676.83
595.75	675.50
596.10	674.64
596.45	673.37
596.80	672.55
597.15	671.51
597.50	670.21
597.85	669.15
598.19	667.94
598.54	666.74
598.89	665.50
599.24	664.65
599.59	663.42
599.94	662.40
600.29	661.59
600.64	660.42
600.99	659.59
601.34	658.56
601.69	656.22
602.04	654.90
602.39	653.64
602.74	652.55
603.08	651.74
603.43	650.92
603.78	649.87
604.13	648.60
604.48	647.38
604.83	646.63
605.18	645.72
605.53	644.67
605.87	643.52
606.22	642.57
606.57	641.33
606.92	640.06
607.27	638.86
607.62	637.89
607.96	636.85
608.31	635.86
608.66	634.72
609.01	633.52
609.36	632.43
609.70	631.19
610.05	629.59
610.40	628.12
610.75	626.42
611.10	625.00
611.44	623.26
611.79	621.67
612.14	619.83
612.49	617.90
612.83	616.31
613.18	614.45
613.53	612.76
613.88	610.96
614.22	609.41
614.57	607.72
614.92	605.68
615.27	604.03
615.61	602.11
615.96	600.23
616.31	598.65
616.65	597.06
617.00	595.31
617.35	593.70
617.70	591.82
618.04	589.88
618.39	587.81
618.74	586.17
619.08	584.18
619.43	582.32
619.78	580.55
620.12	578.73
620.47	577.00
620.82	574.96
621.16	573.08
621.51	571.13
621.85	569.13
622.20	567.27
622.55	565.22
622.89	563.19
623.24	561.35
623.59	559.21
623.93	557.19
624.28	555.29
624.62	553.79
624.97	552.02
625.32	550.20
625.66	548.57
626.01	546.76
626.35	545.05
626.70	543.15
627.04	541.71
627.39	539.74
627.73	537.94
628.08	536.41
628.43	534.55
628.77	532.61
629.12	530.74
629.46	529.14
629.81	527.34
630.15	525.51
630.50	523.55
630.84	521.62
631.19	519.74
631.53	517.99
631.88	515.76
632.22	513.78
632.57	512.13
632.91	510.17
633.26	508.37
633.60	506.61
633.95	504.90
634.29	502.82
634.64	501.22
634.98	499.21
635.32	497.40
635.67	495.75
636.01	494.07
636.36	492.35
636.70	490.73
637.05	488.99
637.39	487.45
637.73	486.07
638.08	484.76
638.42	483.18
638.77	481.46
639.11	479.80
639.45	478.26
639.80	476.40
640.14	474.70
640.49	472.94
640.83	471.04
641.17	469.43
641.52	467.64
641.86	465.91
642.20	464.42
642.55	462.50
642.89	460.64
643.23	458.93
643.58	457.39
643.92	455.34
644.26	453.70
644.61	451.95
644.95	449.98
645.29	448.05
645.64	446.28
645.98	444.47
646.32	442.71
646.66	440.77
647.01	439.15
647.35	437.54
647.69	435.72
648.04	434.22
648.38	432.43
648.72	430.73
649.06	428.85
649.41	427.03
649.75	425.33
650.09	423.85
650.43	422.17
650.78	420.34
651.12	418.70
651.46	417.00
651.80	415.34
652.14	413.74
652.49	412.19
652.83	410.41
653.17	408.75
653.51	407.12
653.85	405.56
654.20	403.88
654.54	402.17
654.88	400.61
655.22	399.07
655.56	397.44
655.90	395.98
656.25	394.40
656.59	392.80
656.93	391.20
657.27	389.65
657.61	387.93
657.95	386.40
658.29	384.97
658.64	383.48
658.98	381.83
659.32	380.20
659.66	378.63
660.00	377.11
660.34	375.48
660.68	373.92
661.02	372.37
661.36	370.85
661.70	369.40
662.05	367.96
662.39	366.60
662.73	365.30
663.07	363.94
663.41	362.56
663.75	361.20
664.09	359.86
664.43	358.33
664.77	356.91
665.11	355.50
665.45	354.09
665.79	352.76
666.13	351.45
666.47	350.26
666.81	348.94
667.15	347.73
667.49	346.73
667.83	345.68
668.17	344.51
668.51	343.42
668.85	342.35
669.19	341.39
669.53	340.04
669.87	338.70
670.21	337.48
670.55	336.34
670.89	335.36
671.23	334.37
671.57	333.33
671.91	332.38
672.25	331.34
672.58	330.39
672.92	329.25
673.26	328.35
673.60	327.35
673.94	326.36
674.28	325.33
674.62	324.32
674.96	323.18
675.30	322.18
675.64	321.17
675.97	320.09
676.31	318.97
676.65	318.00
676.99	317.34
677.33	316.29
677.67	315.27
678.01	314.14
678.34	313.14
678.68	312.28
679.02	311.34
679.36	310.47
679.70	309.50
680.04	308.62
680.37	307.56
680.71	306.55
681.05	305.68
681.39	304.80
681.73	303.88
682.06	303.06
682.40	302.20
682.74	301.34
683.08	300.55
683.42	299.70
683.75	298.87
684.09	297.89
684.43	297.12
684.77	296.40
685.10	295.65
685.44	294.78
685.78	293.91
686.12	293.15
686.45	292.30
686.79	291.50
687.13	290.76
687.46	290.03
687.80	289.37
688.14	288.52
688.48	287.78
688.81	287.01
689.15	286.30
689.49	285.47
689.82	284.73
690.16	283.85
690.50	283.06
690.83	282.25
691.17	281.43
691.51	280.64
691.84	279.88
692.18	279.14
692.52	278.43
692.85	277.77
693.19	277.17
693.52	276.46
693.86	275.67
694.20	275.03
694.53	274.26
694.87	273.52
695.21	272.84
695.54	272.15
695.88	271.35
696.21	270.60
696.55	270.03
696.88	269.45
697.22	268.80
697.56	268.25
697.89	267.62
698.23	267.10
698.56	266.53
698.90	266.01
699.23	265.38
699.57	264.87
699.90	264.17
700.24	263.42
700.58	262.90
700.91	262.38
701.25	262.09
701.58	261.73
701.92	261.23
702.25	260.72
702.59	260.12
702.92	259.71
703.26	259.21
703.59	258.68
703.93	258.40
704.26	258.05
704.60	257.50
704.93	257.07
705.26	256.49
705.60	256.00
705.93	255.43
706.27	255.17
706.60	254.73
706.94	254.40
707.27	253.93
707.61	253.55
707.94	253.15
708.27	252.27
708.61	251.80
708.94	251.41
709.28	251.00
709.61	250.65
709.94	250.27
710.28	249.86
710.61	249.56
710.95	248.75
711.28	248.49
711.61	248.11
711.95	247.81
712.28	247.44
712.61	247.02
712.95	246.83
713.28	246.46
713.61	245.98
713.95	245.65
714.28	245.43
714.61	245.04
714.95	244.67
715.28	244.42
715.61	243.97
715.95	243.60
716.28	243.23
716.61	242.90
716.95	242.48
717.28	242.18
717.61	241.80
717.94	241.60
718.28	241.02
718.61	240.68
718.94	240.30
719.27	240.03
719.61	239.75
719.94	239.32
720.27	238.92
720.60	238.73
720.94	238.37
721.27	238.06
721.60	237.83
721.93	237.47
722.27	237.31
722.60	237.08
722.93	236.80
723.26	236.58
723.59	236.29
723.93	236.09
724.26	235.81
724.59	235.56
724.92	235.32
725.25	235.20
725.59	235.02
725.92	234.81
726.25	234.62
726.58	234.48
726.91	234.28
727.24	234.09
727.57	233.81
727.91	233.53
728.24	233.35
728.57	233.01
728.90	232.97
729.23	232.67
729.56	232.64
729.89	232.46
730.22	232.20
730.55	231.97
730.89	231.79
731.22	231.66
731.55	231.44
731.88	231.20
732.21	230.90
732.54	230.67
732.87	230.44
733.20	230.21
733.53	230.06
733.86	229.84
734.19	229.59
734.52	229.45
734.85	229.52
735.18	229.22
735.51	229.21
735.84	228.97
736.17	228.93
736.50	228.60
736.83	228.74
737.16	228.60
737.49	228.49
737.82	228.33
738.15	228.14
738.48	228.02
738.81	227.78
739.14	227.60
739.47	227.34
739.80	227.27
740.13	227.04
740.46	226.75
740.79	226.59
741.12	226.41
741.45	226.22
741.78	225.86
742.11	225.82
742.44	225.57
742.77	225.51
743.10	225.20
743.43	224.96
743.75	224.54
744.08	224.85
744.41	224.69
744.74	224.62
745.07	224.39
745.40	224.32
745.73	224.39
746.06	224.24
746.39	224.23
746.71	223.93
747.04	223.81
747.37	223.70
747.70	223.70
748.03	223.59
748.36	223.50
748.68	223.45
749.01	223.27
749.34	223.16
749.67	223.02
750.00	222.99
750.33	223.22
750.65	223.06
750.98	222.46
751.31	222.32
751.64	222.11
751.97	222.25
752.29	222.05
752.62	221.75
752.95	221.65
753.28	221.44
753.60	221.39
753.93	221.36
754.26	221.30
754.59	221.03
754.91	220.93
755.24	220.80
755.57	220.74
755.90	220.63
756.22	220.50
756.55	220.34
756.88	220.20
757.20	219.84
757.53	219.67
757.86	219.65
758.19	219.58
758.51	219.51
758.84	219.25
759.17	219.18
759.49	219.08
759.82	219.19
760.15	219.20
760.47	219.16
760.80	219.02
761.13	219.01
761.45	218.93
761.78	218.83
762.11	218.72
762.43	218.55
762.76	218.40
763.08	218.32
763.41	218.25
763.74	218.22
764.06	218.18
764.39	218.11
764.71	218.00
765.04	217.91
765.37	217.82
765.69	217.69
766.02	217.57
766.34	217.50
766.67	217.35
767.00	217.28
767.32	217.35
767.65	217.50
767.97	217.39
768.30	217.41
768.62	217.32
768.95	217.29
769.27	217.25
769.60	217.30
769.92	217.19
770.25	217.08
770.57	217.04
770.90	216.97
771.22	216.83
771.55	216.76
771.87	216.77
772.20	216.68
772.52	217.00
772.85	217.41
773.17	217.52
773.50	217.34
773.82	217.30
774.15	217.09
774.47	216.77
774.80	216.66
775.12	216.61
775.45	216.59
775.77	216.50
776.09	216.45
776.42	216.41
776.74	216.49
777.07	216.42
777.39	216.34
777.72	216.27
778.04	216.37
778.36	216.30
778.69	216.18
779.01	216.18
779.33	215.77
779.66	215.32
779.98	215.12
780.31	215.20
780.63	215.23
780.95	215.24
781.28	215.23
781.60	215.19
781.92	215.12
782.25	215.06
782.57	215.12
782.89	215.09
783.22	215.00
783.54	214.88
783.86	214.88
784.19	214.81
784.51	214.88
784.83	214.76
785.16	214.75
785.48	214.75
785.80	214.74
786.12	214.73
786.45	214.76
786.77	214.74
787.09	214.70
787.42	214.56
787.74	214.55
788.06	214.56
788.38	214.52
788.71	214.43
789.03	214.50
789.35	214.45
789.67	214.31
789.99	214.31
790.32	214.27
790.64	214.31
790.96	214.61
791.28	214.45
791.61	214.49
791.93	214.46
792.25	214.41
792.57	214.65
792.89	214.60
793.21	214.57
793.54	214.53
793.86	214.42
794.18	214.51
794.50	214.47
794.82	214.42
795.14	214.50
795.47	214.56
795.79	214.55
796.11	214.47
796.43	214.51
796.75	214.54
797.07	214.53
797.39	214.48
797.71	214.19
798.04	214.20
798.36	214.17
798.68	214.16
799.00	214.19
799.32	213.94
799.64	214.00
799.96	213.96
800.28	214.13
800.60	214.10
800.92	214.08
801.24	213.98
801.56	214.09
801.89	213.98
802.21	214.00
802.53	213.85
802.85	213.89
803.17	214.04
803.49	213.92
803.81	213.97
804.13	213.93
804.45	213.84
804.77	213.86
805.09	213.82
805.41	213.80
805.73	213.71
806.05	213.60
806.37	213.53
806.69	213.49
807.01	213.31
807.33	213.37
807.65	213.17
807.97	213.37
808.28	213.23
808.60	213.21
808.92	213.14
809.24	213.35
809.56	213.33
809.88	213.18
810.20	213.17
810.52	213.18
810.84	213.14
811.16	213.18
811.48	213.14
811.80	213.21
812.12	213.18
812.43	213.24
812.75	213.31
813.07	213.25
813.39	213.26
813.71	213.27
814.03	213.18
814.35	213.19
814.67	212.99
814.98	213.00
815.30	212.97
815.62	212.91
815.94	212.71
816.26	212.74
816.58	212.68
816.89	212.68
817.21	212.55
817.53	212.57
817.85	212.48
818.17	212.48
818.48	212.38
818.80	212.39
819.12	212.35
819.44	212.26
819.76	212.20
820.07	212.22
820.39	212.20
820.71	212.17
821.03	212.16
821.34	212.15
821.66	212.16
821.98	212.17
822.30	212.14
822.61	212.33
822.93	212.26
823.25	212.23
823.57	212.18
823.88	212.25
824.20	212.20
824.52	212.29
824.83	212.20
825.15	212.14
825.47	212.14
825.79	212.16
826.10	212.14
826.42	212.18
826.74	212.15
827.05	212.04
827.37	212.10
827.69	212.07
828.00	212.04
828.32	212.05
828.64	212.01
828.95	212.14
829.27	212.02
829.58	211.98
829.90	212.01
830.22	212.09
830.53	211.88
830.85	211.85
831.17	211.75
831.48	211.77
831.80	211.76
832.11	211.74
832.43	211.67
832.75	211.61
833.06	211.80
833.38	211.65
833.69	211.64
834.01	211.67
834.32	211.74
834.64	211.71
834.96	211.66
835.27	211.65
835.59	211.57
835.90	211.52
836.22	211.51
836.53	211.41
836.85	211.33
837.16	211.73
837.48	211.71
837.79	211.78
838.11	211.76
838.42	211.70
838.74	211.79
839.05	211.81
839.37	211.85
839.68	211.65
840.00	211.69
840.31	211.82
840.63	211.72
840.94	211.65
841.26	211.59
841.57	211.57
841.88	211.59
842.20	211.51
842.51	211.45
842.83	211.50
843.14	211.83
843.46	211.88
843.77	211.67
844.08	211.69
844.40	211.56
844.71	211.56
845.03	211.59
845.34	211.47
845.65	211.37
845.97	211.32
846.28	211.35
846.60	211.34
846.91	211.22
847.22	211.23
847.54	211.25
847.85	211.34
848.16	211.36
848.48	211.24
848.79	211.42
849.10	211.42
849.42	211.37
849.73	211.09
850.04	211.05
850.36	210.96
850.67	211.02
850.98	211.07
851.30	211.12
851.61	211.08
851.92	211.15
852.23	211.23
852.55	211.28
852.86	211.26
853.17	211.32
853.49	211.42
853.80	211.45
854.11	211.56
854.42	211.56
854.74	211.51
855.05	211.60
855.36	211.35
855.67	211.39
855.99	211.37
856.30	211.71
856.61	211.65
856.92	211.68
857.23	211.67
857.55	211.63
857.86	211.58
858.17	211.70
858.48	211.60
858.79	211.57
859.11	211.61
859.42	211.60
859.73	211.55
860.04	211.60
860.35	211.55
860.66	211.45
860.98	211.42
861.29	211.43
861.60	211.39
861.91	211.50
862.22	211.45
862.53	211.40
862.84	211.07
863.16	211.20
863.47	211.11
863.78	211.02
864.09	211.05
864.40	211.07
864.71	211.01
865.02	211.06
865.33	211.07
865.64	210.97
865.95	210.89
866.27	211.09
866.58	210.94
866.89	211.01
867.20	210.97
867.51	210.95
867.82	211.00
868.13	211.09
868.44	211.05
868.75	211.15
869.06	211.17
869.37	211.23
869.68	211.15
869.99	211.21
870.30	211.31
870.61	211.38
870.92	211.34
871.23	211.30
871.54	211.34
871.85	211.40
872.16	211.48
872.47	211.48
872.78	211.31
873.09	211.43
873.40	211.37
873.71	211.36
874.02	211.37
874.33	211.34
874.64	211.26
874.95	211.34
875.26	211.28
875.56	211.25
875.87	211.13
876.18	211.08
876.49	211.40
876.80	211.33
877.11	211.26
877.42	211.30
877.73	211.35
878.04	211.29
878.35	211.28
878.66	211.25
878.96	211.35
879.27	211.33
879.58	211.21
879.89	211.17
880.20	211.32
880.51	211.34
880.82	211.33
881.12	211.39
881.43	211.28
881.74	211.19
882.05	211.25
882.36	211.36
882.67	211.33
882.97	210.99
883.28	211.02
883.59	210.98
883.90	210.97
884.21	211.02
884.51	211.00
884.82	210.96
885.13	210.98
885.44	210.90
885.74	210.91
886.05	210.93
886.36	210.93
886.67	210.72
886.98	210.82
887.28	210.83
887.59	210.81
887.90	210.87
888.20	210.85
888.51	210.91
888.82	210.81
889.13	210.90
889.43	211.18
889.74	211.10
890.05	211.10
890.35	211.04
890.66	210.93
890.97	210.89
891.28	210.84
891.58	210.78
891.89	210.79
892.20	210.79
892.50	210.84
892.81	210.85
893.12	210.92
893.42	210.83
893.73	210.85
894.04	210.87
894.34	210.93
894.65	210.95
894.95	210.85
895.26	210.90
895.57	211.05
895.87	210.78
896.18	210.90
896.48	210.94
896.79	211.02
897.10	211.09
897.40	211.19
897.71	211.30
898.01	211.41
898.32	211.43
898.63	211.38
898.93	211.36
899.24	211.43
899.54	211.45
899.85	211.45
900.15	211.42
900.46	211.43
900.76	211.40
901.07	211.43
901.38	211.49
901.68	211.53
901.99	211.36
902.29	211.38
902.60	211.36
902.90	211.36
903.21	211.33
903.51	211.30
903.82	211.29
904.12	211.21
904.43	211.20
904.73	211.25
905.03	211.27
905.34	211.59
905.64	211.52
905.95	211.46
906.25	211.40
906.56	211.42
906.86	211.39
907.17	211.35
907.47	211.37
907.77	211.29
908.08	211.25
908.38	211.26
908.69	211.29
908.99	211.31
909.30	211.24
909.60	211.23
909.90	211.27
910.21	211.18
910.51	211.14
910.81	211.14
911.12	211.12
911.42	211.15
911.73	210.85
912.03	210.90
912.33	211.04
912.64	211.01
912.94	210.99
913.24	210.99
913.55	210.97
913.85	211.01
914.15	211.13
914.46	211.10
914.76	211.08
915.06	211.01
915.37	210.91
915.67	210.94
915.97	210.92
916.27	210.85
916.58	210.87
916.88	210.84
917.18	210.80
917.49	210.98
917.79	210.97
918.09	211.00
918.39	211.02
918.70	210.96
919.00	210.97
919.30	211.08
919.60	211.06
919.91	211.00
920.21	210.94
920.51	210.86
920.81	210.87
921.12	210.88
921.42	210.90
921.72	211.01
922.02	211.04
922.32	211.14
922.63	211.11
922.93	211.31
923.23	211.41
923.53	211.32
923.83	211.12
924.13	211.18
924.44	211.10
924.74	211.16
925.04	211.24
925.34	211.27
925.64	211.18
925.94	211.18
926.24	211.40
926.55	211.35
926.85	211.43
927.15	211.41
927.45	211.48
927.75	211.45
928.05	211.43
928.35	211.42
928.65	211.44
928.95	211.58
929.26	211.47
929.56	211.45
929.86	211.53
930.16	211.52
930.46	211.50
930.76	211.54
931.06	211.42
931.36	211.33
931.66	211.38
931.96	211.35
932.26	211.42
932.56	211.26
932.86	211.34
933.16	211.26
933.46	211.26
933.76	211.13
934.06	211.19
934.36	211.30
934.66	211.37
934.96	211.34
935.26	211.29
935.56	211.32
935.86	211.25
936.16	211.18
936.46	211.10
936.76	211.07
937.06	211.00
937.36	211.02
937.66	210.99
937.96	210.95
938.26	210.86
938.56	210.74
938.86	210.77
939.16	210.80
939.46	210.86
939.76	210.87
940.06	210.91
940.35	210.85
940.65	210.62
940.95	210.56
941.25	210.52
941.55	210.50
941.85	210.48
942.15	210.51
942.45	210.70
942.75	210.78
943.04	210.75
943.34	210.87
943.64	210.84
943.94	210.88
944.24	210.82
944.54	210.95
944.84	211.05
945.13	211.07
945.43	211.00
945.73	210.93
946.03	210.95
946.33	210.88
946.62	210.87
946.92	210.90
947.22	210.92
947.52	210.89
947.82	210.95
948.11	210.86
948.41	210.78
948.71	210.60
949.01	210.63
949.31	210.59
949.60	210.52
949.90	210.56
950.20	210.55
950.50	210.57
950.79	210.52
951.09	210.44
951.39	210.41
951.69	210.43
951.98	210.53
952.28	210.48
952.58	210.56
952.87	210.47
953.17	210.55
953.47	210.48
953.76	210.57
954.06	210.44
954.36	210.44
954.66	210.51
954.95	210.71
955.25	210.67
955.55	210.77
955.84	210.70
956.14	210.70
956.44	210.66
956.73	210.68
957.03	210.66
957.32	210.71
957.62	210.73
957.92	210.77
958.21	210.72
958.51	211.15
958.81	211.19
959.10	211.28
959.40	211.33
959.69	211.43
959.99	211.35
960.29	211.41
960.58	211.40
960.88	211.49
961.17	211.32
961.47	211.38
961.76	211.31
962.06	211.45
962.36	211.44
962.65	211.48
962.95	211.46
963.24	211.42
963.54	211.41
963.83	211.46
964.13	211.39
964.42	211.25
964.72	210.94
965.01	210.94
965.31	210.94
965.60	210.81
965.90	210.93
966.19	210.90
966.49	210.93
966.78	210.93
967.08	210.95
967.37	211.03
967.67	210.97
967.96	210.99
968.26	210.91
968.55	210.96
968.85	211.00
969.14	211.04
969.43	211.08
969.73	211.01
970.02	210.98
970.32	211.02
970.61	211.09
970.91	211.00
971.20	210.89
971.49	210.89
971.79	210.96
972.08	210.72
972.38	210.75
972.67	210.75
972.96	210.80
973.26	210.63
973.55	210.74
973.85	210.78
974.14	210.85
974.43	210.85
974.73	210.80
975.02	210.73
975.31	210.68
975.61	210.66
975.90	210.67
976.19	210.61
976.49	210.59
976.78	210.57
977.07	210.56
977.37	210.62
977.66	210.71
977.95	210.67
978.24	210.73
978.54	210.80
978.83	210.77
979.12	210.75
979.42	210.77
979.71	210.72
980.00	210.66
980.29	210.64
980.59	210.64
980.88	210.76
981.17	210.73
981.46	210.73
981.76	210.78
982.05	210.92
982.34	210.96
982.63	210.99
982.93	211.00
983.22	211.10
983.51	211.13
983.80	211.07
984.09	211.12
984.39	211.09
984.68	210.97
984.97	210.98
985.26	210.89
985.55	211.00
985.85	210.93
986.14	211.02
986.43	211.11
986.72	211.11
987.01	210.95
987.30	210.98
987.59	210.94
987.89	210.95
988.18	210.78
988.47	210.75
988.76	210.75
989.05	210.75
989.34	210.70
989.63	210.77
989.92	210.78
990.22	210.70
990.51	210.73
990.80	210.73
991.09	210.74
991.38	210.89
991.67	210.80
991.96	210.72
992.25	210.72
992.54	210.56
992.83	210.54
993.12	210.50
993.41	210.56
993.70	210.75
993.99	210.86
994.28	211.00
994.58	211.04
994.87	210.99
995.16	210.98
995.45	211.01
995.74	210.88
996.03	210.88
996.32	210.95
996.61	211.04
996.90	211.12
997.19	211.12
997.48	211.04
997.77	210.99
998.06	211.06
998.34	211.05
998.63	211.09
998.92	211.16
999.21	211.22
999.50	211.28
999.79	211.11
1000.08	210.96
1000.37	210.93
1000.66	210.94
1000.95	211.01
1001.24	211.06
1001.53	211.08
1001.82	211.05
1002.11	211.01
1002.40	211.12
1002.68	211.24
1002.97	211.47
1003.26	211.43
1003.55	211.51
1003.84	211.60
1004.13	211.71
1004.42	211.70
1004.71	211.59
1004.99	211.56
1005.28	211.64
1005.57	211.60
1005.86	211.58
1006.15	211.60
1006.44	211.51
1006.72	211.47
1007.01	211.42
1007.30	211.40
1007.59	211.32
1007.88	211.33
1008.17	211.34
1008.45	211.23
1008.74	211.02
1009.03	210.84
1009.32	210.77
1009.60	210.72
1009.89	210.76
1010.18	210.54
1010.47	210.47
1010.76	210.57
1011.04	210.54
1011.33	210.64
1011.62	210.61
1011.91	210.68
1012.19	210.70
1012.48	210.72
1012.77	210.80
1013.05	210.96
1013.34	210.93
1013.63	210.99
1013.92	211.04
1014.20	211.02
1014.49	211.05
1014.78	211.05
1015.06	210.87
1015.35	210.90
1015.64	210.93
1015.92	210.90
1016.21	211.04
1016.50	211.04
1016.78	211.07
1017.07	211.07
1017.36	210.92
1017.64	210.90
1017.93	210.92
1018.22	210.84
1018.50	210.87
1018.79	210.79
1019.08	210.57
1019.36	210.63
1019.65	210.50
1019.93	210.58
1020.22	210.59
1020.51	210.73
1020.79	210.75
1021.08	209.75
1021.36	210.30
1021.65	210.60
1021.94	209.30
1022.22	210.95
1022.51	209.35
1022.79	212.45
1023.08	210.50
1023.36	214.65
1023.65	210.75
>>>>>End Processed Spectral Data<<<<<
