SpectraSuite Data File
++++++++++++++++++++++++++++++++++++
Date: Mon Feb 25 16:59:33 EST 2013
User: group
Dark Spectrum Present: No
Reference Spectrum Present: No
Number of Sampled Component Spectra: 1
Spectrometers: USB2E7196
Integration Time (usec): 104000 (USB2E7196)
Spectra Averaged: 20 (USB2E7196)
Boxcar Smoothing: 10 (USB2E7196)
Correct for Electrical Dark: No (USB2E7196)
Strobe/Lamp Enabled: No (USB2E7196)
Correct for Detector Non-linearity: No (USB2E7196)
Correct for Stray Light: No (USB2E7196)
Number of Pixels in Processed Spectrum: 2048
>>>>>Begin Processed Spectral Data<<<<<
339.09	0.00
339.48	199.05
339.86	201.10
340.24	200.65
340.63	204.15
341.01	209.20
341.39	205.55
341.78	207.55
342.16	208.95
342.54	209.60
342.93	198.44
343.31	208.47
343.69	209.00
344.07	209.42
344.46	209.95
344.84	210.31
345.22	210.32
345.60	210.56
345.99	210.76
346.37	210.84
346.75	210.86
347.13	210.98
347.52	210.98
347.90	211.09
348.28	211.10
348.66	211.21
349.05	211.08
349.43	211.18
349.81	211.21
350.19	211.17
350.57	211.17
350.96	211.17
351.34	211.21
351.72	211.29
352.10	211.39
352.48	211.31
352.87	211.39
353.25	211.49
353.63	211.47
354.01	211.43
354.39	211.51
354.77	211.56
355.15	211.70
355.54	211.75
355.92	211.76
356.30	211.85
356.68	212.09
357.06	212.24
357.44	212.22
357.82	212.26
358.20	212.36
358.58	212.44
358.97	212.51
359.35	212.61
359.73	212.70
360.11	212.72
360.49	212.86
360.87	212.88
361.25	212.96
361.63	213.17
362.01	213.25
362.39	213.30
362.77	213.40
363.15	213.39
363.53	213.39
363.91	213.37
364.29	213.45
364.67	213.19
365.05	213.12
365.43	213.20
365.81	213.31
366.19	213.46
366.57	213.63
366.95	213.66
367.33	213.55
367.71	213.56
368.09	213.62
368.47	213.61
368.85	213.56
369.23	213.62
369.61	213.53
369.99	213.66
370.37	213.70
370.75	213.84
371.13	213.74
371.51	213.74
371.89	213.76
372.27	213.73
372.65	213.73
373.03	213.78
373.41	213.76
373.78	213.72
374.16	213.56
374.54	213.41
374.92	213.44
375.30	213.43
375.68	213.33
376.06	213.31
376.44	213.23
376.82	213.24
377.19	213.18
377.57	213.14
377.95	212.99
378.33	212.84
378.71	212.64
379.09	212.70
379.47	212.69
379.84	212.62
380.22	212.52
380.60	212.44
380.98	212.42
381.36	212.33
381.73	212.22
382.11	212.20
382.49	212.13
382.87	211.95
383.25	211.90
383.62	212.27
384.00	212.09
384.38	212.08
384.76	212.11
385.13	212.22
385.51	212.22
385.89	212.15
386.27	212.17
386.64	212.17
387.02	212.11
387.40	212.01
387.78	211.98
388.15	211.95
388.53	211.91
388.91	211.83
389.29	211.78
389.66	211.79
390.04	211.74
390.42	211.73
390.79	211.71
391.17	211.70
391.55	211.37
391.92	211.40
392.30	211.42
392.68	211.31
393.05	211.27
393.43	211.19
393.81	211.23
394.18	211.18
394.56	211.14
394.94	211.20
395.31	211.22
395.69	211.34
396.06	211.33
396.44	211.31
396.82	211.32
397.19	211.49
397.57	211.48
397.95	211.50
398.32	211.48
398.70	211.56
399.07	211.70
399.45	211.62
399.82	211.66
400.20	211.68
400.58	211.72
400.95	211.56
401.33	211.72
401.70	212.02
402.08	212.13
402.45	212.23
402.83	212.46
403.20	212.59
403.58	212.65
403.95	212.88
404.33	213.08
404.71	213.21
405.08	213.60
405.46	213.79
405.83	214.07
406.21	214.22
406.58	214.44
406.96	214.66
407.33	215.03
407.70	215.37
408.08	215.90
408.45	216.33
408.83	216.82
409.20	217.19
409.58	217.35
409.95	217.88
410.33	218.42
410.70	218.76
411.08	219.37
411.45	220.04
411.82	220.69
412.20	221.40
412.57	222.45
412.95	222.93
413.32	223.83
413.69	224.77
414.07	225.85
414.44	226.91
414.82	227.97
415.19	229.19
415.56	230.56
415.94	231.91
416.31	233.50
416.68	235.08
417.06	236.88
417.43	238.66
417.81	240.61
418.18	242.63
418.55	244.80
418.93	247.13
419.30	249.50
419.67	252.07
420.04	254.65
420.42	257.30
420.79	260.60
421.16	263.83
421.54	267.19
421.91	270.74
422.28	274.39
422.66	278.28
423.03	282.19
423.40	286.14
423.77	290.25
424.15	294.39
424.52	298.74
424.89	303.57
425.26	308.26
425.64	312.71
426.01	317.60
426.38	322.88
426.75	328.18
427.13	333.59
427.50	339.25
427.87	345.32
428.24	351.31
428.61	357.05
428.99	363.39
429.36	370.22
429.73	376.90
430.10	383.71
430.47	390.57
430.85	397.64
431.22	405.36
431.59	413.66
431.96	421.56
432.33	430.36
432.70	438.77
433.08	448.65
433.45	458.05
433.82	467.35
434.19	477.74
434.56	487.87
434.93	497.81
435.30	507.71
435.68	518.70
436.05	529.59
436.42	540.38
436.79	550.34
437.16	561.12
437.53	572.53
437.90	583.97
438.27	595.31
438.64	606.95
439.01	617.74
439.38	627.36
439.75	636.83
440.13	647.60
440.50	657.79
440.87	666.29
441.24	675.10
441.61	685.05
441.98	692.35
442.35	701.04
442.72	709.58
443.09	717.87
443.46	722.96
443.83	726.90
444.20	730.32
444.57	735.03
444.94	737.74
445.31	740.54
445.68	743.11
446.05	744.71
446.42	744.60
446.79	744.17
447.16	743.62
447.53	743.48
447.90	740.19
448.27	736.80
448.64	731.89
449.01	728.55
449.37	721.89
449.74	715.59
450.11	707.86
450.48	699.30
450.85	690.50
451.22	683.05
451.59	675.73
451.96	668.88
452.33	659.43
452.70	650.78
453.07	640.46
453.43	629.88
453.80	619.82
454.17	610.09
454.54	600.82
454.91	590.85
455.28	581.08
455.65	571.95
456.02	563.24
456.38	555.52
456.75	545.78
457.12	537.69
457.49	529.62
457.86	521.60
458.23	514.85
458.59	507.54
458.96	500.24
459.33	493.77
459.70	487.16
460.07	481.99
460.43	476.00
460.80	470.25
461.17	465.20
461.54	459.97
461.91	454.89
462.27	449.87
462.64	445.65
463.01	441.00
463.38	436.53
463.74	431.64
464.11	427.53
464.48	424.10
464.85	420.08
465.21	417.19
465.58	414.06
465.95	410.27
466.32	407.18
466.68	404.07
467.05	400.88
467.42	397.79
467.78	394.56
468.15	391.41
468.52	389.14
468.88	386.15
469.25	383.34
469.62	381.27
469.98	378.93
470.35	376.66
470.72	374.51
471.08	372.22
471.45	370.42
471.82	368.45
472.18	366.24
472.55	364.74
472.92	362.80
473.28	361.14
473.65	359.57
474.02	357.93
474.38	356.62
474.75	355.50
475.11	354.32
475.48	353.32
475.85	352.58
476.21	351.63
476.58	350.96
476.94	350.50
477.31	349.75
477.67	349.04
478.04	348.52
478.41	348.12
478.77	348.03
479.14	347.52
479.50	347.45
479.87	347.38
480.23	347.33
480.60	347.23
480.96	347.06
481.33	347.32
481.69	347.54
482.06	347.62
482.42	347.62
482.79	347.75
483.15	348.11
483.52	348.65
483.88	349.16
484.25	349.68
484.61	350.26
484.98	350.83
485.34	351.69
485.71	352.51
486.07	353.41
486.44	354.06
486.80	355.15
487.17	356.11
487.53	357.50
487.90	358.81
488.26	360.28
488.62	361.92
488.99	363.32
489.35	364.85
489.72	366.65
490.08	368.52
490.44	370.43
490.81	372.21
491.17	373.97
491.54	375.98
491.90	378.04
492.26	380.23
492.63	382.53
492.99	384.82
493.36	387.29
493.72	389.81
494.08	392.48
494.45	395.14
494.81	398.04
495.17	400.66
495.54	403.57
495.90	406.44
496.26	409.33
496.63	412.46
496.99	415.66
497.35	418.85
497.72	422.17
498.08	425.41
498.44	429.00
498.80	432.58
499.17	436.26
499.53	439.85
499.89	443.45
500.26	446.99
500.62	450.54
500.98	454.21
501.34	457.80
501.71	461.41
502.07	465.09
502.43	468.54
502.79	472.10
503.16	475.67
503.52	479.15
503.88	482.68
504.24	486.03
504.60	489.48
504.97	492.89
505.33	496.25
505.69	500.00
506.05	503.30
506.41	506.65
506.78	509.74
507.14	512.69
507.50	515.77
507.86	518.84
508.22	521.93
508.59	524.62
508.95	527.47
509.31	530.52
509.67	533.26
510.03	536.05
510.39	538.74
510.75	541.39
511.12	543.95
511.48	546.50
511.84	549.18
512.20	551.66
512.56	554.14
512.92	556.46
513.28	558.51
513.64	560.59
514.00	562.59
514.37	564.59
514.73	566.75
515.09	568.68
515.45	570.52
515.81	572.21
516.17	574.09
516.53	575.68
516.89	576.96
517.25	578.28
517.61	579.79
517.97	581.12
518.33	582.26
518.69	583.53
519.05	584.76
519.41	585.73
519.77	587.05
520.13	587.88
520.49	588.72
520.85	589.62
521.21	590.62
521.57	591.63
521.93	592.15
522.29	593.08
522.65	593.77
523.01	594.54
523.37	595.31
523.73	596.24
524.09	596.89
524.45	597.61
524.81	598.45
525.17	599.22
525.53	600.05
525.89	600.83
526.25	601.81
526.61	602.35
526.97	603.18
527.33	603.72
527.68	605.06
528.04	605.90
528.40	606.69
528.76	607.40
529.12	608.38
529.48	609.78
529.84	610.49
530.20	611.53
530.56	612.75
530.91	613.93
531.27	614.95
531.63	616.32
531.99	617.56
532.35	618.76
532.71	619.95
533.07	621.40
533.42	623.13
533.78	624.43
534.14	626.15
534.50	627.46
534.86	629.11
535.21	630.28
535.57	632.18
535.93	633.83
536.29	635.71
536.65	637.44
537.00	639.00
537.36	640.77
537.72	642.47
538.08	644.22
538.44	646.01
538.79	647.93
539.15	649.95
539.51	651.98
539.87	654.16
540.22	656.23
540.58	658.41
540.94	660.41
541.29	662.52
541.65	664.31
542.01	666.77
542.37	668.94
542.72	671.17
543.08	673.01
543.44	675.35
543.79	677.37
544.15	679.65
544.51	682.14
544.87	684.71
545.22	687.32
545.58	689.65
545.94	692.04
546.29	694.16
546.65	696.30
547.01	698.63
547.36	700.97
547.72	703.29
548.07	705.66
548.43	707.71
548.79	709.92
549.14	712.47
549.50	714.70
549.86	716.81
550.21	719.14
550.57	721.97
550.92	724.23
551.28	726.75
551.64	728.96
551.99	731.32
552.35	733.66
552.70	735.85
553.06	738.13
553.41	740.41
553.77	743.18
554.13	745.60
554.48	748.03
554.84	750.61
555.19	753.00
555.55	755.34
555.90	757.81
556.26	759.95
556.61	762.07
556.97	764.13
557.32	766.54
557.68	768.55
558.03	770.41
558.39	772.27
558.74	774.29
559.10	776.21
559.45	778.28
559.81	780.33
560.16	782.17
560.52	784.16
560.87	786.14
561.23	787.59
561.58	789.78
561.94	791.48
562.29	792.75
562.64	794.66
563.00	796.32
563.35	797.99
563.71	800.20
564.06	802.20
564.42	804.18
564.77	806.04
565.12	808.16
565.48	810.13
565.83	812.06
566.19	813.92
566.54	815.69
566.89	817.26
567.25	819.00
567.60	820.98
567.96	823.00
568.31	824.87
568.66	826.80
569.02	827.96
569.37	829.43
569.72	831.06
570.08	832.27
570.43	833.55
570.78	834.87
571.14	835.57
571.49	836.40
571.84	837.28
572.20	837.85
572.55	838.18
572.90	838.51
573.26	839.05
573.61	839.21
573.96	839.55
574.31	839.73
574.67	839.51
575.02	839.28
575.37	838.77
575.72	838.32
576.08	837.93
576.43	837.56
576.78	837.23
577.13	836.93
577.49	836.60
577.84	836.21
578.19	835.79
578.54	835.80
578.90	835.71
579.25	835.07
579.60	834.20
579.95	833.61
580.30	833.13
580.66	832.58
581.01	831.99
581.36	831.07
581.71	830.12
582.06	829.58
582.42	828.75
582.77	827.62
583.12	826.78
583.47	825.75
583.82	824.80
584.17	823.77
584.53	822.97
584.88	821.94
585.23	820.70
585.58	819.18
585.93	817.85
586.28	816.58
586.63	815.59
586.98	814.76
587.34	813.89
587.69	812.65
588.04	811.23
588.39	810.15
588.74	808.88
589.09	807.93
589.44	806.43
589.79	805.21
590.14	804.30
590.49	803.16
590.84	802.06
591.19	801.16
591.54	799.96
591.89	798.09
592.25	796.72
592.60	795.10
592.95	793.91
593.30	792.07
593.65	790.06
594.00	788.32
594.35	787.70
594.70	785.91
595.05	784.27
595.40	782.70
595.75	780.81
596.10	779.39
596.45	777.75
596.80	776.34
597.15	774.81
597.50	772.86
597.85	770.95
598.19	769.03
598.54	767.14
598.89	765.41
599.24	764.08
599.59	762.26
599.94	760.76
600.29	758.85
600.64	757.17
600.99	755.45
601.34	753.84
601.69	750.84
602.04	748.68
602.39	746.76
602.74	744.84
603.08	743.21
603.43	741.49
603.78	739.44
604.13	737.40
604.48	735.36
604.83	733.97
605.18	732.23
605.53	730.40
605.87	728.40
606.22	726.44
606.57	724.22
606.92	722.06
607.27	719.98
607.62	718.07
607.96	716.32
608.31	714.44
608.66	712.13
609.01	710.00
609.36	708.04
609.70	705.89
610.05	703.62
610.40	701.36
610.75	698.77
611.10	696.66
611.44	694.07
611.79	691.66
612.14	689.07
612.49	686.49
612.83	684.10
613.18	681.48
613.53	678.84
613.88	676.48
614.22	674.05
614.57	671.48
614.92	669.05
615.27	666.35
615.61	663.77
615.96	661.40
616.31	659.23
616.65	657.14
617.00	654.72
617.35	652.32
617.70	649.60
618.04	647.05
618.39	644.25
618.74	642.10
619.08	639.57
619.43	637.15
619.78	634.86
620.12	632.43
620.47	630.09
620.82	627.64
621.16	624.97
621.51	622.61
621.85	620.30
622.20	617.78
622.55	615.28
622.89	612.87
623.24	610.41
623.59	607.71
623.93	605.02
624.28	602.60
624.62	600.59
624.97	598.33
625.32	596.05
625.66	593.76
626.01	591.23
626.35	588.93
626.70	586.38
627.04	584.03
627.39	581.60
627.73	579.28
628.08	577.15
628.43	574.66
628.77	572.22
629.12	569.70
629.46	567.41
629.81	565.19
630.15	562.93
630.50	560.49
630.84	558.21
631.19	555.98
631.53	553.68
631.88	551.00
632.22	548.61
632.57	546.57
632.91	544.34
633.26	542.17
633.60	540.01
633.95	537.90
634.29	535.47
634.64	533.35
634.98	530.92
635.32	528.79
635.67	527.06
636.01	525.05
636.36	522.93
636.70	520.86
637.05	518.80
637.39	516.67
637.73	514.84
638.08	513.12
638.42	511.17
638.77	509.39
639.11	507.51
639.45	505.54
639.80	503.28
640.14	501.17
640.49	499.10
640.83	496.90
641.17	494.87
641.52	492.86
641.86	490.75
642.20	489.10
642.55	486.84
642.89	484.65
643.23	482.56
643.58	480.84
643.92	478.71
644.26	476.69
644.61	474.82
644.95	472.85
645.29	470.68
645.64	468.50
645.98	466.28
646.32	464.27
646.66	462.21
647.01	460.38
647.35	458.58
647.69	456.51
648.04	454.78
648.38	452.88
648.72	451.01
649.06	448.96
649.41	446.83
649.75	444.93
650.09	443.07
650.43	441.23
650.78	439.03
651.12	437.11
651.46	435.16
651.80	433.40
652.14	431.59
652.49	429.77
652.83	428.01
653.17	425.99
653.51	423.98
653.85	422.30
654.20	420.53
654.54	418.55
654.88	416.81
655.22	414.81
655.56	412.89
655.90	410.99
656.25	409.22
656.59	407.51
656.93	405.86
657.27	404.19
657.61	402.28
657.95	400.66
658.29	399.05
658.64	397.47
658.98	395.46
659.32	393.47
659.66	391.76
660.00	390.00
660.34	388.45
660.68	386.92
661.02	385.19
661.36	383.32
661.70	381.84
662.05	380.28
662.39	378.91
662.73	377.61
663.07	376.32
663.41	374.96
663.75	373.41
664.09	371.83
664.43	370.10
664.77	368.78
665.11	367.31
665.45	365.81
665.79	364.51
666.13	363.21
666.47	361.91
666.81	360.44
667.15	359.03
667.49	357.76
667.83	356.56
668.17	355.24
668.51	354.04
668.85	352.76
669.19	351.59
669.53	350.14
669.87	348.75
670.21	347.33
670.55	346.07
670.89	345.15
671.23	343.94
671.57	342.89
671.91	341.58
672.25	340.37
672.58	339.32
672.92	338.06
673.26	336.96
673.60	335.86
673.94	334.74
674.28	333.72
674.62	332.66
674.96	331.52
675.30	330.49
675.64	329.43
675.97	328.36
676.31	327.25
676.65	326.33
676.99	325.40
677.33	324.36
677.67	323.24
678.01	321.87
678.34	320.91
678.68	319.88
679.02	318.94
679.36	317.97
679.70	316.95
680.04	315.86
680.37	314.84
680.71	313.80
681.05	312.95
681.39	312.02
681.73	311.05
682.06	310.11
682.40	309.21
682.74	308.37
683.08	307.48
683.42	306.54
683.75	305.66
684.09	304.68
684.43	303.85
684.77	302.95
685.10	302.08
685.44	301.12
685.78	300.27
686.12	299.38
686.45	298.59
686.79	297.60
687.13	296.92
687.46	296.10
687.80	295.40
688.14	294.48
688.48	293.61
688.81	292.80
689.15	291.97
689.49	291.11
689.82	290.20
690.16	289.25
690.50	288.50
690.83	287.69
691.17	286.72
691.51	285.84
691.84	285.12
692.18	284.34
692.52	283.71
692.85	283.07
693.19	282.45
693.52	281.58
693.86	280.80
694.20	280.10
694.53	279.27
694.87	278.49
695.21	277.83
695.54	277.10
695.88	276.25
696.21	275.45
696.55	274.75
696.88	274.14
697.22	273.49
697.56	272.88
697.89	272.12
698.23	271.66
698.56	271.08
698.90	270.43
699.23	269.83
699.57	269.09
699.90	268.33
700.24	267.62
700.58	267.12
700.91	266.69
701.25	266.24
701.58	265.85
701.92	265.32
702.25	264.65
702.59	264.07
702.92	263.55
703.26	263.03
703.59	262.48
703.93	262.19
704.26	261.65
704.60	261.12
704.93	260.58
705.26	259.93
705.60	259.35
705.93	258.82
706.27	258.40
706.60	258.02
706.94	257.73
707.27	257.25
707.61	256.77
707.94	256.21
708.27	255.48
708.61	254.95
708.94	254.46
709.28	254.14
709.61	253.75
709.94	253.38
710.28	252.99
710.61	252.63
710.95	251.92
711.28	251.78
711.61	251.35
711.95	251.13
712.28	250.78
712.61	250.42
712.95	250.24
713.28	250.06
713.61	249.59
713.95	249.12
714.28	248.77
714.61	248.30
714.95	247.89
715.28	247.48
715.61	247.03
715.95	246.66
716.28	246.17
716.61	245.83
716.95	245.40
717.28	245.01
717.61	244.68
717.94	244.34
718.28	243.66
718.61	243.32
718.94	242.81
719.27	242.45
719.61	242.16
719.94	241.65
720.27	241.11
720.60	240.84
720.94	240.43
721.27	240.16
721.60	239.99
721.93	239.79
722.27	239.61
722.60	239.42
722.93	239.07
723.26	238.89
723.59	238.56
723.93	238.39
724.26	238.15
724.59	237.82
724.92	237.58
725.25	237.52
725.59	237.26
725.92	237.16
726.25	236.92
726.58	236.74
726.91	236.50
727.24	236.26
727.57	236.00
727.91	235.72
728.24	235.54
728.57	235.21
728.90	234.93
729.23	234.62
729.56	234.49
729.89	234.35
730.22	234.15
730.55	233.98
730.89	233.70
731.22	233.54
731.55	233.29
731.88	233.14
732.21	232.76
732.54	232.51
732.87	232.26
733.20	232.05
733.53	231.84
733.86	231.70
734.19	231.39
734.52	231.27
734.85	231.35
735.18	231.11
735.51	231.07
735.84	230.90
736.17	230.85
736.50	230.46
736.83	230.59
737.16	230.35
737.49	230.11
737.82	229.88
738.15	229.73
738.48	229.55
738.81	229.31
739.14	229.15
739.47	228.93
739.80	228.69
740.13	228.60
740.46	228.31
740.79	228.12
741.12	228.01
741.45	227.70
741.78	227.33
742.11	227.24
742.44	226.96
742.77	226.90
743.10	226.66
743.43	226.49
743.75	226.04
744.08	226.35
744.41	226.15
744.74	225.99
745.07	225.72
745.40	225.69
745.73	225.70
746.06	225.60
746.39	225.48
746.71	225.41
747.04	225.13
747.37	225.03
747.70	224.92
748.03	224.77
748.36	224.70
748.68	224.55
749.01	224.27
749.34	224.13
749.67	223.98
750.00	223.84
750.33	223.98
750.65	223.85
750.98	223.29
751.31	223.16
751.64	223.01
751.97	223.06
752.29	222.87
752.62	222.60
752.95	222.49
753.28	222.29
753.60	222.10
753.93	222.10
754.26	221.98
754.59	221.76
754.91	221.63
755.24	221.52
755.57	221.44
755.90	221.34
756.22	221.16
756.55	220.99
756.88	220.93
757.20	220.59
757.53	220.35
757.86	220.20
758.19	220.12
758.51	220.02
758.84	219.74
759.17	219.63
759.49	219.52
759.82	219.62
760.15	219.60
760.47	219.55
760.80	219.33
761.13	219.30
761.45	219.26
761.78	219.19
762.11	219.14
762.43	218.96
762.76	218.85
763.08	218.90
763.41	218.90
763.74	218.82
764.06	218.76
764.39	218.73
764.71	218.68
765.04	218.63
765.37	218.56
765.69	218.49
766.02	218.40
766.34	218.36
766.67	218.09
767.00	218.10
767.32	218.18
767.65	218.40
767.97	218.32
768.30	218.27
768.62	218.26
768.95	218.09
769.27	218.10
769.60	218.08
769.92	217.92
770.25	217.73
770.57	217.57
770.90	217.54
771.22	217.41
771.55	217.33
771.87	217.22
772.20	217.20
772.52	217.41
772.85	217.78
773.17	217.71
773.50	217.67
773.82	217.58
774.15	217.40
774.47	217.06
774.80	216.92
775.12	216.84
775.45	216.70
775.77	216.73
776.09	216.72
776.42	216.69
776.74	216.75
777.07	216.68
777.39	216.68
777.72	216.46
778.04	216.45
778.36	216.37
778.69	216.38
779.01	216.30
779.33	215.99
779.66	215.55
779.98	215.37
780.31	215.30
780.63	215.40
780.95	215.30
781.28	215.22
781.60	215.26
781.92	215.21
782.25	215.19
782.57	215.10
782.89	215.02
783.22	215.00
783.54	214.80
783.86	214.80
784.19	214.72
784.51	214.84
784.83	214.79
785.16	214.75
785.48	214.71
785.80	214.65
786.12	214.63
786.45	214.61
786.77	214.75
787.09	214.75
787.42	214.58
787.74	214.60
788.06	214.66
788.38	214.58
788.71	214.52
789.03	214.52
789.35	214.53
789.67	214.45
789.99	214.39
790.32	214.36
790.64	214.37
790.96	214.61
791.28	214.49
791.61	214.46
791.93	214.41
792.25	214.33
792.57	214.61
792.89	214.48
793.21	214.46
793.54	214.30
793.86	214.21
794.18	214.15
794.50	214.01
794.82	213.97
795.14	214.02
795.47	214.07
795.79	214.00
796.11	213.95
796.43	213.87
796.75	213.85
797.07	213.86
797.39	213.85
797.71	213.64
798.04	213.65
798.36	213.60
798.68	213.59
799.00	213.61
799.32	213.33
799.64	213.47
799.96	213.43
800.28	213.54
800.60	213.56
800.92	213.59
801.24	213.60
801.56	213.61
801.89	213.53
802.21	213.51
802.53	213.42
802.85	213.46
803.17	213.66
803.49	213.59
803.81	213.50
804.13	213.43
804.45	213.32
804.77	213.34
805.09	213.39
805.41	213.37
805.73	213.31
806.05	213.19
806.37	213.06
806.69	213.02
807.01	213.00
807.33	212.96
807.65	212.84
807.97	213.04
808.28	213.00
808.60	213.05
808.92	213.02
809.24	213.28
809.56	213.22
809.88	213.05
810.20	213.07
810.52	213.17
810.84	213.10
811.16	213.07
811.48	212.99
811.80	213.06
812.12	213.06
812.43	213.13
812.75	213.20
813.07	213.25
813.39	213.29
813.71	213.15
814.03	213.15
814.35	213.15
814.67	212.91
814.98	212.83
815.30	212.72
815.62	212.58
815.94	212.33
816.26	212.32
816.58	212.21
816.89	212.19
817.21	212.06
817.53	212.11
817.85	212.11
818.17	212.17
818.48	212.06
818.80	212.16
819.12	212.13
819.44	212.06
819.76	211.90
820.07	211.87
820.39	211.92
820.71	211.94
821.03	211.95
821.34	211.98
821.66	212.05
821.98	212.15
822.30	212.15
822.61	212.41
822.93	212.36
823.25	212.38
823.57	212.38
823.88	212.55
824.20	212.60
824.52	212.64
824.83	212.60
825.15	212.47
825.47	212.40
825.79	212.39
826.10	212.41
826.42	212.45
826.74	212.53
827.05	212.52
827.37	212.50
827.69	212.47
828.00	212.43
828.32	212.38
828.64	212.28
828.95	212.51
829.27	212.39
829.58	212.36
829.90	212.50
830.22	212.47
830.53	212.35
830.85	212.24
831.17	212.14
831.48	212.10
831.80	212.21
832.11	212.20
832.43	212.18
832.75	212.17
833.06	212.36
833.38	212.17
833.69	212.19
834.01	212.26
834.32	212.27
834.64	212.27
834.96	212.25
835.27	212.31
835.59	212.20
835.90	212.16
836.22	212.14
836.53	212.08
836.85	212.05
837.16	212.39
837.48	212.38
837.79	212.53
838.11	212.56
838.42	212.53
838.74	212.61
839.05	212.53
839.37	212.55
839.68	212.33
840.00	212.29
840.31	212.29
840.63	212.16
840.94	212.07
841.26	211.99
841.57	212.01
841.88	212.02
842.20	211.93
842.51	211.86
842.83	211.93
843.14	212.20
843.46	212.15
843.77	211.94
844.08	211.93
844.40	211.81
844.71	211.74
845.03	211.71
845.34	211.62
845.65	211.60
845.97	211.56
846.28	211.64
846.60	211.75
846.91	211.67
847.22	211.66
847.54	211.81
847.85	211.90
848.16	211.86
848.48	211.76
848.79	211.94
849.10	211.93
849.42	211.86
849.73	211.51
850.04	211.53
850.36	211.37
850.67	211.50
850.98	211.46
851.30	211.52
851.61	211.53
851.92	211.48
852.23	211.61
852.55	211.67
852.86	211.72
853.17	211.70
853.49	211.82
853.80	211.86
854.11	211.84
854.42	211.88
854.74	211.82
855.05	211.78
855.36	211.59
855.67	211.68
855.99	211.77
856.30	212.16
856.61	212.19
856.92	212.14
857.23	212.07
857.55	212.10
857.86	212.00
858.17	212.05
858.48	212.06
858.79	211.96
859.11	211.91
859.42	211.79
859.73	211.73
860.04	211.69
860.35	211.66
860.66	211.55
860.98	211.51
861.29	211.56
861.60	211.57
861.91	211.66
862.22	211.54
862.53	211.48
862.84	211.10
863.16	211.15
863.47	211.22
863.78	211.15
864.09	211.13
864.40	211.22
864.71	211.17
865.02	211.19
865.33	211.17
865.64	211.08
865.95	211.13
866.27	211.32
866.58	211.23
866.89	211.21
867.20	211.21
867.51	211.17
867.82	211.21
868.13	211.32
868.44	211.21
868.75	211.26
869.06	211.21
869.37	211.32
869.68	211.19
869.99	211.17
870.30	211.19
870.61	211.27
870.92	211.25
871.23	211.19
871.54	211.24
871.85	211.38
872.16	211.50
872.47	211.45
872.78	211.29
873.09	211.36
873.40	211.39
873.71	211.43
874.02	211.50
874.33	211.46
874.64	211.42
874.95	211.53
875.26	211.48
875.56	211.47
875.87	211.34
876.18	211.39
876.49	211.83
876.80	211.83
877.11	211.76
877.42	211.71
877.73	211.77
878.04	211.78
878.35	211.73
878.66	211.74
878.96	211.86
879.27	211.82
879.58	211.81
879.89	211.77
880.20	211.92
880.51	211.87
880.82	211.90
881.12	211.92
881.43	211.90
881.74	211.86
882.05	211.90
882.36	212.02
882.67	212.08
882.97	211.70
883.28	211.75
883.59	211.73
883.90	211.76
884.21	211.81
884.51	211.78
884.82	211.73
885.13	211.71
885.44	211.61
885.74	211.67
886.05	211.70
886.36	211.74
886.67	211.57
886.98	211.79
887.28	211.80
887.59	211.75
887.90	211.73
888.20	211.72
888.51	211.77
888.82	211.68
889.13	211.67
889.43	211.93
889.74	211.84
890.05	211.83
890.35	211.81
890.66	211.75
890.97	211.72
891.28	211.76
891.58	211.74
891.89	211.71
892.20	211.56
892.50	211.42
892.81	211.35
893.12	211.31
893.42	211.10
893.73	211.11
894.04	211.18
894.34	211.19
894.65	211.20
894.95	211.12
895.26	211.13
895.57	211.30
895.87	210.96
896.18	211.05
896.48	211.06
896.79	211.08
897.10	211.08
897.40	211.05
897.71	211.03
898.01	211.01
898.32	211.07
898.63	211.12
898.93	211.23
899.24	211.25
899.54	211.27
899.85	211.19
900.15	211.13
900.46	211.08
900.76	211.11
901.07	211.07
901.38	211.12
901.68	211.18
901.99	210.98
902.29	211.03
902.60	211.01
902.90	211.02
903.21	211.01
903.51	211.05
903.82	211.13
904.12	211.10
904.43	211.08
904.73	210.98
905.03	210.98
905.34	211.29
905.64	211.30
905.95	211.22
906.25	211.22
906.56	211.21
906.86	211.24
907.17	211.20
907.47	211.30
907.77	211.21
908.08	211.14
908.38	211.15
908.69	211.16
908.99	211.19
909.30	211.19
909.60	211.18
909.90	211.20
910.21	211.07
910.51	211.05
910.81	211.11
911.12	211.21
911.42	211.28
911.73	210.85
912.03	210.93
912.33	211.05
912.64	211.10
912.94	211.06
913.24	211.02
913.55	211.02
913.85	210.93
914.15	210.94
914.46	211.04
914.76	210.98
915.06	210.96
915.37	210.88
915.67	210.93
915.97	210.93
916.27	210.82
916.58	210.89
916.88	210.88
917.18	210.82
917.49	211.05
917.79	211.04
918.09	211.20
918.39	211.20
918.70	211.16
919.00	211.22
919.30	211.43
919.60	211.46
919.91	211.42
920.21	211.45
920.51	211.46
920.81	211.40
921.12	211.51
921.42	211.54
921.72	211.61
922.02	211.54
922.32	211.62
922.63	211.66
922.93	211.83
923.23	211.88
923.53	211.88
923.83	211.65
924.13	211.68
924.44	211.66
924.74	211.78
925.04	211.85
925.34	211.74
925.64	211.58
925.94	211.53
926.24	211.67
926.55	211.72
926.85	211.81
927.15	211.78
927.45	211.75
927.75	211.81
928.05	211.72
928.35	211.78
928.65	211.82
928.95	211.85
929.26	211.70
929.56	211.77
929.86	211.81
930.16	211.81
930.46	211.70
930.76	211.70
931.06	211.50
931.36	211.46
931.66	211.57
931.96	211.57
932.26	211.61
932.56	211.49
932.86	211.49
933.16	211.45
933.46	211.40
933.76	211.37
934.06	211.36
934.36	211.55
934.66	211.49
934.96	211.44
935.26	211.47
935.56	211.53
935.86	211.46
936.16	211.47
936.46	211.38
936.76	211.39
937.06	211.28
937.36	211.34
937.66	211.40
937.96	211.44
938.26	211.41
938.56	211.33
938.86	211.40
939.16	211.44
939.46	211.50
939.76	211.57
940.06	211.60
940.35	211.56
940.65	211.41
940.95	211.40
941.25	211.36
941.55	211.27
941.85	211.30
942.15	211.33
942.45	211.41
942.75	211.48
943.04	211.53
943.34	211.64
943.64	211.59
943.94	211.50
944.24	211.51
944.54	211.53
944.84	211.55
945.13	211.40
945.43	211.37
945.73	211.27
946.03	211.22
946.33	211.15
946.62	211.08
946.92	211.03
947.22	211.08
947.52	211.11
947.82	211.12
948.11	211.03
948.41	210.97
948.71	210.90
949.01	210.91
949.31	210.88
949.60	210.82
949.90	210.87
950.20	210.80
950.50	210.78
950.79	210.71
951.09	210.75
951.39	210.83
951.69	210.78
951.98	210.89
952.28	210.90
952.58	210.82
952.87	210.85
953.17	210.91
953.47	210.84
953.76	210.78
954.06	210.82
954.36	210.74
954.66	210.74
954.95	210.78
955.25	210.84
955.55	210.83
955.84	210.85
956.14	210.85
956.44	210.94
956.73	210.83
957.03	210.90
957.32	210.92
957.62	210.83
957.92	210.86
958.21	210.82
958.51	211.20
958.81	211.27
959.10	211.31
959.40	211.33
959.69	211.37
959.99	211.48
960.29	211.36
960.58	211.37
960.88	211.49
961.17	211.46
961.47	211.50
961.76	211.45
962.06	211.48
962.36	211.45
962.65	211.42
962.95	211.46
963.24	211.36
963.54	211.33
963.83	211.40
964.13	211.38
964.42	211.34
964.72	211.08
965.01	211.15
965.31	211.10
965.60	211.06
965.90	211.26
966.19	211.15
966.49	211.25
966.78	211.28
967.08	211.22
967.37	211.19
967.67	211.06
967.96	211.16
968.26	211.09
968.55	211.10
968.85	211.08
969.14	211.09
969.43	211.17
969.73	211.16
970.02	211.17
970.32	211.18
970.61	211.12
970.91	211.04
971.20	210.96
971.49	211.00
971.79	211.06
972.08	210.81
972.38	210.87
972.67	210.86
972.96	210.98
973.26	210.94
973.55	211.13
973.85	211.09
974.14	211.10
974.43	211.18
974.73	211.17
975.02	211.14
975.31	211.12
975.61	211.02
975.90	211.03
976.19	211.00
976.49	210.96
976.78	210.97
977.07	210.93
977.37	210.96
977.66	210.95
977.95	210.85
978.24	210.90
978.54	210.93
978.83	210.87
979.12	210.77
979.42	210.70
979.71	210.56
980.00	210.62
980.29	210.57
980.59	210.50
980.88	210.55
981.17	210.63
981.46	210.70
981.76	210.73
982.05	210.78
982.34	210.75
982.63	210.82
982.93	210.86
983.22	210.96
983.51	210.99
983.80	210.97
984.09	211.09
984.39	211.08
984.68	211.04
984.97	211.09
985.26	211.04
985.55	211.12
985.85	211.03
986.14	211.05
986.43	211.15
986.72	211.14
987.01	211.06
987.30	211.04
987.59	211.01
987.89	211.03
988.18	210.92
988.47	210.93
988.76	210.84
989.05	210.78
989.34	210.68
989.63	210.75
989.92	210.75
990.22	210.66
990.51	210.65
990.80	210.62
991.09	210.61
991.38	210.66
991.67	210.65
991.96	210.62
992.25	210.62
992.54	210.52
992.83	210.50
993.12	210.49
993.41	210.55
993.70	210.57
993.99	210.61
994.28	210.66
994.58	210.72
994.87	210.73
995.16	210.83
995.45	210.84
995.74	210.70
996.03	210.72
996.32	210.76
996.61	210.82
996.90	210.73
997.19	210.74
997.48	210.74
997.77	210.66
998.06	210.71
998.34	210.67
998.63	210.59
998.92	210.59
999.21	210.63
999.50	210.61
999.79	210.59
1000.08	210.65
1000.37	210.67
1000.66	210.65
1000.95	210.74
1001.24	210.65
1001.53	210.75
1001.82	210.75
1002.11	210.73
1002.40	210.85
1002.68	210.92
1002.97	211.24
1003.26	211.19
1003.55	211.12
1003.84	211.18
1004.13	211.26
1004.42	211.32
1004.71	211.40
1004.99	211.43
1005.28	211.49
1005.57	211.51
1005.86	211.45
1006.15	211.41
1006.44	211.37
1006.72	211.44
1007.01	211.37
1007.30	211.51
1007.59	211.46
1007.88	211.48
1008.17	211.44
1008.45	211.26
1008.74	211.15
1009.03	211.04
1009.32	211.11
1009.60	211.16
1009.89	211.06
1010.18	210.96
1010.47	210.94
1010.76	210.91
1011.04	210.91
1011.33	210.87
1011.62	210.89
1011.91	210.96
1012.19	210.92
1012.48	210.91
1012.77	210.89
1013.05	210.98
1013.34	210.84
1013.63	210.81
1013.92	210.79
1014.20	210.76
1014.49	210.80
1014.78	210.85
1015.06	210.70
1015.35	210.67
1015.64	210.69
1015.92	210.76
1016.21	210.80
1016.50	210.81
1016.78	210.88
1017.07	210.89
1017.36	210.93
1017.64	210.78
1017.93	210.74
1018.22	210.78
1018.50	210.89
1018.79	210.92
1019.08	210.86
1019.36	210.95
1019.65	210.90
1019.93	211.03
1020.22	211.05
1020.51	211.30
1020.79	211.23
1021.08	210.95
1021.36	212.45
1021.65	212.25
1021.94	211.70
1022.22	211.30
1022.51	210.05
1022.79	212.60
1023.08	210.20
1023.36	216.05
1023.65	210.20
>>>>>End Processed Spectral Data<<<<<
