SpectraSuite Data File
++++++++++++++++++++++++++++++++++++
Date: Mon Feb 25 17:05:59 EST 2013
User: group
Dark Spectrum Present: No
Reference Spectrum Present: No
Number of Sampled Component Spectra: 1
Spectrometers: USB2E7196
Integration Time (usec): 104000 (USB2E7196)
Spectra Averaged: 20 (USB2E7196)
Boxcar Smoothing: 10 (USB2E7196)
Correct for Electrical Dark: No (USB2E7196)
Strobe/Lamp Enabled: No (USB2E7196)
Correct for Detector Non-linearity: No (USB2E7196)
Correct for Stray Light: No (USB2E7196)
Number of Pixels in Processed Spectrum: 2048
>>>>>Begin Processed Spectral Data<<<<<
339.09	0.00
339.48	199.90
339.86	199.20
340.24	201.85
340.63	203.15
341.01	209.10
341.39	205.05
341.78	206.90
342.16	210.40
342.54	209.65
342.93	198.23
343.31	208.17
343.69	208.59
344.07	209.06
344.46	209.49
344.84	209.81
345.22	209.84
345.60	210.10
345.99	210.19
346.37	210.17
346.75	210.14
347.13	210.09
347.52	210.09
347.90	210.24
348.28	210.18
348.66	210.21
349.05	210.06
349.43	210.09
349.81	210.03
350.19	210.12
350.57	210.05
350.96	210.04
351.34	210.12
351.72	210.21
352.10	210.26
352.48	210.23
352.87	210.30
353.25	210.32
353.63	210.36
354.01	210.49
354.39	210.59
354.77	210.71
355.15	210.92
355.54	211.01
355.92	210.96
356.30	211.15
356.68	211.48
357.06	211.68
357.44	211.65
357.82	211.75
358.20	211.81
358.58	211.91
358.97	212.01
359.35	212.21
359.73	212.35
360.11	212.53
360.49	212.66
360.87	212.67
361.25	212.80
361.63	212.95
362.01	212.99
362.39	212.96
362.77	213.09
363.15	213.12
363.53	213.15
363.91	213.18
364.29	213.11
364.67	212.87
365.05	212.78
365.43	212.85
365.81	212.94
366.19	213.15
366.57	213.34
366.95	213.34
367.33	213.26
367.71	213.29
368.09	213.31
368.47	213.31
368.85	213.36
369.23	213.47
369.61	213.35
369.99	213.51
370.37	213.58
370.75	213.71
371.13	213.65
371.51	213.60
371.89	213.61
372.27	213.68
372.65	213.69
373.03	213.74
373.41	213.70
373.78	213.69
374.16	213.47
374.54	213.32
374.92	213.27
375.30	213.21
375.68	213.09
376.06	213.02
376.44	212.98
376.82	212.94
377.19	212.85
377.57	212.87
377.95	212.73
378.33	212.72
378.71	212.43
379.09	212.50
379.47	212.56
379.84	212.52
380.22	212.44
380.60	212.34
380.98	212.25
381.36	212.22
381.73	212.06
382.11	212.10
382.49	212.03
382.87	211.98
383.25	211.94
383.62	212.33
384.00	212.25
384.38	212.23
384.76	212.24
385.13	212.35
385.51	212.21
385.89	212.03
386.27	211.95
386.64	212.01
387.02	211.80
387.40	211.63
387.78	211.55
388.15	211.51
388.53	211.46
388.91	211.44
389.29	211.41
389.66	211.47
390.04	211.37
390.42	211.42
390.79	211.40
391.17	211.35
391.55	210.90
391.92	210.83
392.30	210.82
392.68	210.75
393.05	210.65
393.43	210.65
393.81	210.70
394.18	210.56
394.56	210.46
394.94	210.55
395.31	210.54
395.69	210.61
396.06	210.69
396.44	210.71
396.82	210.67
397.19	210.79
397.57	210.76
397.95	210.85
398.32	210.72
398.70	210.73
399.07	210.84
399.45	210.81
399.82	210.85
400.20	210.81
400.58	210.83
400.95	210.69
401.33	210.77
401.70	211.08
402.08	211.14
402.45	211.21
402.83	211.31
403.20	211.40
403.58	211.44
403.95	211.49
404.33	211.54
404.71	211.63
405.08	211.92
405.46	211.96
405.83	211.97
406.21	212.05
406.58	212.17
406.96	212.20
407.33	212.45
407.70	212.63
408.08	213.09
408.45	213.25
408.83	213.52
409.20	213.74
409.58	213.80
409.95	214.14
410.33	214.39
410.70	214.62
411.08	214.92
411.45	215.20
411.82	215.50
412.20	215.96
412.57	216.50
412.95	216.56
413.32	217.09
413.69	217.55
414.07	218.05
414.44	218.60
414.82	219.17
415.19	219.73
415.56	220.39
415.94	220.84
416.31	221.58
416.68	222.35
417.06	223.19
417.43	224.01
417.81	224.97
418.18	226.00
418.55	227.00
418.93	228.15
419.30	229.35
419.67	230.54
420.04	231.79
420.42	233.01
420.79	234.79
421.16	236.25
421.54	238.10
421.91	239.75
422.28	241.49
422.66	243.34
423.03	245.36
423.40	247.23
423.77	249.20
424.15	251.17
424.52	253.30
424.89	255.69
425.26	257.96
425.64	260.04
426.01	262.30
426.38	264.80
426.75	267.35
427.13	269.91
427.50	272.65
427.87	275.47
428.24	278.27
428.61	280.82
428.99	283.94
429.36	286.88
429.73	290.12
430.10	293.17
430.47	296.47
430.85	299.68
431.22	303.21
431.59	307.27
431.96	310.98
432.33	314.98
432.70	318.87
433.08	323.27
433.45	327.57
433.82	331.91
434.19	336.62
434.56	341.28
434.93	345.82
435.30	350.33
435.68	355.26
436.05	360.26
436.42	365.19
436.79	369.69
437.16	374.69
437.53	379.88
437.90	385.13
438.27	390.23
438.64	395.48
439.01	400.41
439.38	404.56
439.75	408.84
440.13	413.72
440.50	418.29
440.87	422.26
441.24	426.28
441.61	430.67
441.98	434.00
442.35	437.79
442.72	441.60
443.09	445.44
443.46	447.98
443.83	449.65
444.20	451.13
444.57	453.09
444.94	454.20
445.31	455.22
445.68	456.52
446.05	457.12
446.42	456.98
446.79	456.67
447.16	456.24
447.53	456.15
447.90	454.45
448.27	452.77
448.64	450.33
449.01	448.56
449.37	445.35
449.74	442.29
450.11	438.87
450.48	434.86
450.85	430.56
451.22	426.85
451.59	423.43
451.96	420.12
452.33	415.77
452.70	411.67
453.07	406.89
453.43	401.66
453.80	396.92
454.17	392.33
454.54	388.02
454.91	383.43
455.28	378.84
455.65	374.65
456.02	370.79
456.38	367.11
456.75	362.73
457.12	358.99
457.49	355.29
457.86	351.41
458.23	348.33
458.59	344.98
458.96	341.67
459.33	338.70
459.70	335.68
460.07	333.28
460.43	330.58
460.80	328.08
461.17	325.98
461.54	323.59
461.91	321.33
462.27	319.03
462.64	317.02
463.01	314.79
463.38	312.84
463.74	310.37
464.11	308.54
464.48	306.88
464.85	305.16
465.21	303.87
465.58	302.37
465.95	300.57
466.32	299.11
466.68	297.56
467.05	296.06
467.42	294.71
467.78	293.05
468.15	291.63
468.52	290.52
468.88	289.05
469.25	287.75
469.62	286.68
469.98	285.57
470.35	284.58
470.72	283.62
471.08	282.32
471.45	281.41
471.82	280.57
472.18	279.64
472.55	278.94
472.92	277.95
473.28	277.29
473.65	276.49
474.02	275.73
474.38	275.16
474.75	274.66
475.11	273.97
475.48	273.66
475.85	273.22
476.21	272.67
476.58	272.35
476.94	272.04
477.31	271.70
477.67	271.36
478.04	271.08
478.41	270.85
478.77	271.00
479.14	270.74
479.50	270.54
479.87	270.42
480.23	270.34
480.60	270.26
480.96	270.08
481.33	270.20
481.69	270.21
482.06	270.17
482.42	270.12
482.79	270.20
483.15	270.22
483.52	270.38
483.88	270.53
484.25	270.58
484.61	270.78
484.98	270.94
485.34	271.35
485.71	271.68
486.07	272.02
486.44	272.02
486.80	272.44
487.17	272.83
487.53	273.39
487.90	273.85
488.26	274.49
488.62	275.20
488.99	275.73
489.35	276.33
489.72	276.97
490.08	277.62
490.44	278.34
490.81	279.15
491.17	279.91
491.54	280.81
491.90	281.76
492.26	282.69
492.63	283.59
492.99	284.41
493.36	285.37
493.72	286.34
494.08	287.46
494.45	288.56
494.81	289.73
495.17	290.72
495.54	291.92
495.90	292.98
496.26	294.02
496.63	295.24
496.99	296.51
497.35	297.83
497.72	299.12
498.08	300.40
498.44	301.74
498.80	303.08
499.17	304.43
499.53	305.71
499.89	307.07
500.26	308.52
500.62	309.85
500.98	311.27
501.34	312.69
501.71	314.24
502.07	315.52
502.43	316.84
502.79	318.30
503.16	319.55
503.52	321.02
503.88	322.47
504.24	323.94
504.60	325.38
504.97	326.83
505.33	328.19
505.69	329.73
506.05	331.09
506.41	332.47
506.78	333.82
507.14	335.19
507.50	336.50
507.86	337.89
508.22	339.24
508.59	340.52
508.95	341.91
509.31	343.25
509.67	344.70
510.03	346.13
510.39	347.44
510.75	348.84
511.12	350.12
511.48	351.42
511.84	352.61
512.20	353.87
512.56	355.02
512.92	356.38
513.28	357.62
513.64	358.76
514.00	359.99
514.37	361.23
514.73	362.48
515.09	363.95
515.45	365.15
515.81	366.32
516.17	367.59
516.53	368.78
516.89	370.00
517.25	371.25
517.61	372.47
517.97	373.78
518.33	375.05
518.69	376.40
519.05	377.76
519.41	379.18
519.77	380.84
520.13	382.21
520.49	383.56
520.85	384.98
521.21	386.63
521.57	388.14
521.93	389.50
522.29	391.14
522.65	392.43
523.01	394.06
523.37	395.72
523.73	397.39
524.09	398.98
524.45	400.55
524.81	402.26
525.17	404.01
525.53	405.86
525.89	407.66
526.25	409.55
526.61	411.29
526.97	413.13
527.33	414.80
527.68	417.11
528.04	419.10
528.40	421.03
528.76	423.08
529.12	425.28
529.48	427.64
529.84	429.86
530.20	432.25
530.56	434.56
530.91	436.90
531.27	439.42
531.63	441.97
531.99	444.42
532.35	446.84
532.71	449.38
533.07	451.95
533.42	454.93
533.78	457.53
534.14	460.17
534.50	462.73
534.86	465.69
535.21	468.06
535.57	470.90
535.93	473.59
536.29	476.37
536.65	479.17
537.00	481.82
537.36	484.52
537.72	487.18
538.08	489.88
538.44	492.70
538.79	495.38
539.15	498.12
539.51	500.96
539.87	503.87
540.22	506.70
540.58	509.66
540.94	512.32
541.29	515.24
541.65	518.10
542.01	521.08
542.37	523.81
542.72	526.85
543.08	529.65
543.44	532.65
543.79	535.43
544.15	538.27
544.51	541.28
544.87	544.20
545.22	547.30
545.58	550.27
545.94	553.12
546.29	556.01
546.65	558.79
547.01	561.56
547.36	564.50
547.72	567.25
548.07	569.88
548.43	572.36
548.79	575.00
549.14	577.60
549.50	580.39
549.86	582.79
550.21	585.27
550.57	587.95
550.92	590.35
551.28	592.85
551.64	595.24
551.99	597.79
552.35	600.15
552.70	602.32
553.06	604.68
553.41	607.17
553.77	609.57
554.13	611.92
554.48	614.35
554.84	616.49
555.19	618.75
555.55	620.97
555.90	622.95
556.26	624.95
556.61	627.00
556.97	628.68
557.32	630.70
557.68	632.45
558.03	634.19
558.39	636.21
558.74	638.11
559.10	640.06
559.45	641.89
559.81	643.77
560.16	645.49
560.52	647.19
560.87	648.85
561.23	650.23
561.58	652.19
561.94	653.73
562.29	655.25
562.64	656.80
563.00	658.15
563.35	659.93
563.71	661.71
564.06	663.27
564.42	664.87
564.77	666.53
565.12	668.38
565.48	670.31
565.83	671.74
566.19	673.22
566.54	674.32
566.89	675.47
567.25	676.78
567.60	678.33
567.96	679.83
568.31	681.15
568.66	682.39
569.02	683.09
569.37	683.76
569.72	684.61
570.08	685.39
570.43	686.19
570.78	686.78
571.14	687.05
571.49	687.42
571.84	688.05
572.20	688.31
572.55	688.66
572.90	688.32
573.26	688.33
573.61	688.25
573.96	688.41
574.31	688.46
574.67	688.29
575.02	687.82
575.37	687.15
575.72	686.65
576.08	686.50
576.43	686.20
576.78	686.16
577.13	685.97
577.49	685.77
577.84	685.56
578.19	685.42
578.54	685.35
578.90	685.44
579.25	685.11
579.60	684.61
579.95	684.00
580.30	683.99
580.66	683.83
581.01	683.63
581.36	683.27
581.71	682.75
582.06	682.46
582.42	682.17
582.77	681.79
583.12	681.31
583.47	680.85
583.82	680.53
584.17	680.08
584.53	679.91
584.88	679.44
585.23	679.07
585.58	678.51
585.93	677.80
586.28	677.17
586.63	676.67
586.98	676.42
587.34	676.13
587.69	675.45
588.04	674.80
588.39	674.04
588.74	673.23
589.09	672.80
589.44	671.88
589.79	671.20
590.14	670.61
590.49	669.82
590.84	669.02
591.19	668.43
591.54	667.74
591.89	666.46
592.25	665.67
592.60	664.44
592.95	663.49
593.30	662.62
593.65	661.46
594.00	660.25
594.35	660.02
594.70	658.79
595.05	657.66
595.40	656.68
595.75	655.61
596.10	654.82
596.45	653.68
596.80	652.96
597.15	652.21
597.50	651.07
597.85	650.32
598.19	649.23
598.54	648.07
598.89	647.11
599.24	646.30
599.59	645.12
599.94	644.44
600.29	643.42
600.64	642.29
600.99	641.26
601.34	640.55
601.69	638.72
602.04	637.60
602.39	636.62
602.74	635.64
603.08	634.88
603.43	634.12
603.78	633.09
604.13	631.95
604.48	630.91
604.83	630.28
605.18	629.50
605.53	628.53
605.87	627.31
606.22	626.29
606.57	625.39
606.92	624.39
607.27	623.28
607.62	622.20
607.96	621.26
608.31	620.46
608.66	619.10
609.01	617.92
609.36	616.79
609.70	615.50
610.05	614.03
610.40	612.57
610.75	610.89
611.10	609.86
611.44	608.23
611.79	606.46
612.14	604.78
612.49	602.92
612.83	601.30
613.18	599.84
613.53	598.16
613.88	596.16
614.22	594.55
614.57	592.76
614.92	591.02
615.27	589.42
615.61	587.58
615.96	586.03
616.31	584.29
616.65	582.85
617.00	581.11
617.35	579.52
617.70	577.78
618.04	576.01
618.39	573.75
618.74	572.35
619.08	570.58
619.43	568.70
619.78	566.86
620.12	565.17
620.47	563.40
620.82	561.50
621.16	559.82
621.51	558.15
621.85	556.32
622.20	554.59
622.55	552.43
622.89	550.52
623.24	548.67
623.59	546.69
623.93	544.62
624.28	542.96
624.62	541.42
624.97	539.89
625.32	538.16
625.66	536.56
626.01	534.66
626.35	532.97
626.70	531.27
627.04	529.67
627.39	527.97
627.73	526.32
628.08	524.74
628.43	522.88
628.77	521.00
629.12	519.20
629.46	517.55
629.81	516.12
630.15	514.50
630.50	512.88
630.84	511.22
631.19	509.66
631.53	507.93
631.88	505.94
632.22	503.98
632.57	502.50
632.91	500.90
633.26	499.30
633.60	497.64
633.95	496.02
634.29	494.35
634.64	492.81
634.98	490.95
635.32	489.39
635.67	487.91
636.01	486.35
636.36	484.74
636.70	483.14
637.05	481.44
637.39	479.77
637.73	478.24
638.08	476.91
638.42	475.25
638.77	473.81
639.11	472.30
639.45	470.81
639.80	468.94
640.14	467.13
640.49	465.36
640.83	463.73
641.17	462.16
641.52	460.40
641.86	458.59
642.20	457.10
642.55	455.14
642.89	453.44
643.23	451.66
643.58	450.35
643.92	448.63
644.26	446.96
644.61	445.20
644.95	443.37
645.29	441.57
645.64	439.86
645.98	438.06
646.32	436.38
646.66	434.47
647.01	432.92
647.35	431.40
647.69	429.80
648.04	428.20
648.38	426.48
648.72	424.84
649.06	423.12
649.41	421.50
649.75	420.03
650.09	418.46
650.43	416.80
650.78	414.96
651.12	413.16
651.46	411.53
651.80	410.11
652.14	408.55
652.49	407.03
652.83	405.50
653.17	403.79
653.51	402.14
653.85	400.82
654.20	399.27
654.54	397.68
654.88	396.03
655.22	394.50
655.56	392.80
655.90	391.22
656.25	389.71
656.59	388.07
656.93	386.43
657.27	384.97
657.61	383.44
657.95	381.87
658.29	380.42
658.64	379.06
658.98	377.43
659.32	375.78
659.66	374.19
660.00	372.64
660.34	371.13
660.68	369.52
661.02	367.88
661.36	366.30
661.70	364.86
662.05	363.48
662.39	362.17
662.73	361.02
663.07	359.85
663.41	358.52
663.75	357.14
664.09	355.86
664.43	354.41
664.77	353.11
665.11	351.81
665.45	350.61
665.79	349.36
666.13	348.15
666.47	346.94
666.81	345.56
667.15	344.36
667.49	343.41
667.83	342.52
668.17	341.31
668.51	340.36
668.85	339.34
669.19	338.29
669.53	337.00
669.87	335.80
670.21	334.53
670.55	333.53
670.89	332.67
671.23	331.63
671.57	330.61
671.91	329.59
672.25	328.54
672.58	327.48
672.92	326.31
673.26	325.37
673.60	324.43
673.94	323.56
674.28	322.61
674.62	321.63
674.96	320.52
675.30	319.64
675.64	318.58
675.97	317.49
676.31	316.57
676.65	315.66
676.99	314.88
677.33	314.01
677.67	313.01
678.01	311.81
678.34	310.83
678.68	309.95
679.02	308.97
679.36	308.09
679.70	307.24
680.04	306.36
680.37	305.35
680.71	304.42
681.05	303.60
681.39	302.60
681.73	301.67
682.06	300.78
682.40	299.96
682.74	299.17
683.08	298.46
683.42	297.51
683.75	296.71
684.09	295.61
684.43	294.80
684.77	293.92
685.10	293.24
685.44	292.43
685.78	291.50
686.12	290.84
686.45	290.10
686.79	289.23
687.13	288.64
687.46	287.94
687.80	287.25
688.14	286.38
688.48	285.79
688.81	285.05
689.15	284.38
689.49	283.59
689.82	282.80
690.16	281.94
690.50	281.17
690.83	280.41
691.17	279.80
691.51	279.09
691.84	278.44
692.18	277.75
692.52	277.12
692.85	276.61
693.19	276.02
693.52	275.39
693.86	274.72
694.20	274.02
694.53	273.41
694.87	272.78
695.21	272.15
695.54	271.40
695.88	270.66
696.21	269.95
696.55	269.35
696.88	268.68
697.22	268.05
697.56	267.55
697.89	266.90
698.23	266.35
698.56	265.71
698.90	265.11
699.23	264.46
699.57	263.86
699.90	263.16
700.24	262.53
700.58	261.89
700.91	261.37
701.25	260.99
701.58	260.44
701.92	259.87
702.25	259.38
702.59	258.92
702.92	258.50
703.26	258.06
703.59	257.52
703.93	257.33
704.26	256.85
704.60	256.40
704.93	255.98
705.26	255.41
705.60	255.03
705.93	254.57
706.27	254.24
706.60	253.91
706.94	253.66
707.27	253.10
707.61	252.65
707.94	252.21
708.27	251.57
708.61	251.07
708.94	250.65
709.28	250.17
709.61	249.76
709.94	249.28
710.28	248.81
710.61	248.51
710.95	247.87
711.28	247.73
711.61	247.31
711.95	246.99
712.28	246.71
712.61	246.36
712.95	246.21
713.28	245.99
713.61	245.50
713.95	245.05
714.28	244.74
714.61	244.49
714.95	244.24
715.28	243.87
715.61	243.50
715.95	243.23
716.28	242.88
716.61	242.55
716.95	242.25
717.28	241.96
717.61	241.63
717.94	241.31
718.28	240.79
718.61	240.46
718.94	240.07
719.27	239.71
719.61	239.46
719.94	239.08
720.27	238.53
720.60	238.31
720.94	238.05
721.27	237.88
721.60	237.56
721.93	237.20
722.27	237.07
722.60	236.95
722.93	236.59
723.26	236.44
723.59	236.17
723.93	236.00
724.26	235.76
724.59	235.47
724.92	235.20
725.25	235.10
725.59	234.86
725.92	234.69
726.25	234.53
726.58	234.25
726.91	234.00
727.24	233.89
727.57	233.63
727.91	233.36
728.24	233.09
728.57	232.89
728.90	232.77
729.23	232.40
729.56	232.34
729.89	232.21
730.22	231.94
730.55	231.72
730.89	231.48
731.22	231.24
731.55	231.07
731.88	230.98
732.21	230.80
732.54	230.56
732.87	230.41
733.20	230.15
733.53	229.91
733.86	229.74
734.19	229.45
734.52	229.33
734.85	229.41
735.18	229.26
735.51	229.14
735.84	228.95
736.17	228.93
736.50	228.54
736.83	228.76
737.16	228.70
737.49	228.60
737.82	228.37
738.15	228.31
738.48	228.11
738.81	227.85
739.14	227.52
739.47	227.39
739.80	227.24
740.13	227.14
740.46	226.93
740.79	226.69
741.12	226.62
741.45	226.35
741.78	225.92
742.11	225.80
742.44	225.62
742.77	225.45
743.10	225.26
743.43	225.11
743.75	224.60
744.08	224.88
744.41	224.66
744.74	224.57
745.07	224.33
745.40	224.24
745.73	224.29
746.06	224.22
746.39	224.15
746.71	223.98
747.04	223.79
747.37	223.68
747.70	223.64
748.03	223.49
748.36	223.48
748.68	223.40
749.01	223.13
749.34	223.05
749.67	222.99
750.00	222.86
750.33	223.01
750.65	222.94
750.98	222.28
751.31	222.20
751.64	222.10
751.97	222.20
752.29	222.05
752.62	221.74
752.95	221.58
753.28	221.36
753.60	221.16
753.93	221.19
754.26	221.16
754.59	220.93
754.91	220.82
755.24	220.65
755.57	220.55
755.90	220.53
756.22	220.32
756.55	220.13
756.88	220.01
757.20	219.65
757.53	219.43
757.86	219.36
758.19	219.32
758.51	219.23
758.84	218.98
759.17	218.90
759.49	218.82
759.82	218.93
760.15	218.89
760.47	218.79
760.80	218.55
761.13	218.50
761.45	218.48
761.78	218.40
762.11	218.38
762.43	218.28
762.76	218.11
763.08	218.08
763.41	218.10
763.74	218.04
764.06	217.94
764.39	217.95
764.71	217.84
765.04	217.68
765.37	217.55
765.69	217.41
766.02	217.30
766.34	217.25
766.67	217.00
767.00	217.05
767.32	217.14
767.65	217.37
767.97	217.18
768.30	217.10
768.62	217.01
768.95	216.91
769.27	216.92
769.60	216.96
769.92	216.78
770.25	216.60
770.57	216.45
770.90	216.42
771.22	216.27
771.55	216.33
771.87	216.38
772.20	216.33
772.52	216.55
772.85	216.86
773.17	216.86
773.50	216.85
773.82	216.68
774.15	216.59
774.47	216.25
774.80	216.28
775.12	216.25
775.45	216.23
775.77	216.17
776.09	216.11
776.42	216.01
776.74	216.18
777.07	216.13
777.39	216.06
777.72	216.01
778.04	216.00
778.36	215.94
778.69	215.91
779.01	215.93
779.33	215.66
779.66	215.30
779.98	215.16
780.31	215.14
780.63	215.30
780.95	215.27
781.28	215.24
781.60	215.18
781.92	215.09
782.25	215.02
782.57	215.01
782.89	214.91
783.22	214.88
783.54	214.73
783.86	214.70
784.19	214.73
784.51	214.74
784.83	214.68
785.16	214.59
785.48	214.52
785.80	214.44
786.12	214.41
786.45	214.33
786.77	214.40
787.09	214.32
787.42	214.10
787.74	214.06
788.06	214.05
788.38	213.99
788.71	213.89
789.03	213.94
789.35	213.95
789.67	213.84
789.99	213.85
790.32	213.76
790.64	213.83
790.96	214.08
791.28	213.99
791.61	213.90
791.93	213.89
792.25	213.82
792.57	214.08
792.89	213.92
793.21	213.95
793.54	213.82
793.86	213.77
794.18	213.82
794.50	213.71
794.82	213.71
795.14	213.74
795.47	213.81
795.79	213.77
796.11	213.59
796.43	213.60
796.75	213.59
797.07	213.72
797.39	213.67
797.71	213.41
798.04	213.37
798.36	213.43
798.68	213.35
799.00	213.38
799.32	213.19
799.64	213.32
799.96	213.29
800.28	213.37
800.60	213.30
800.92	213.28
801.24	213.29
801.56	213.30
801.89	213.23
802.21	213.24
802.53	213.14
802.85	213.24
803.17	213.42
803.49	213.34
803.81	213.23
804.13	213.18
804.45	213.08
804.77	213.14
805.09	213.11
805.41	213.09
805.73	213.01
806.05	212.87
806.37	212.77
806.69	212.74
807.01	212.67
807.33	212.74
807.65	212.61
807.97	212.72
808.28	212.69
808.60	212.66
808.92	212.66
809.24	212.87
809.56	212.81
809.88	212.60
810.20	212.66
810.52	212.70
810.84	212.69
811.16	212.71
811.48	212.73
811.80	212.81
812.12	212.81
812.43	212.91
812.75	213.00
813.07	212.90
813.39	212.91
813.71	212.88
814.03	212.89
814.35	212.88
814.67	212.80
814.98	212.66
815.30	212.66
815.62	212.60
815.94	212.33
816.26	212.33
816.58	212.31
816.89	212.31
817.21	212.23
817.53	212.19
817.85	212.19
818.17	212.13
818.48	212.00
818.80	212.10
819.12	211.98
819.44	211.86
819.76	211.89
820.07	211.91
820.39	211.89
820.71	211.88
821.03	211.90
821.34	211.85
821.66	211.88
821.98	211.92
822.30	211.86
822.61	212.13
822.93	212.12
823.25	212.14
823.57	212.01
823.88	212.07
824.20	212.10
824.52	212.08
824.83	212.04
825.15	211.98
825.47	211.88
825.79	211.93
826.10	211.92
826.42	211.95
826.74	212.05
827.05	212.06
827.37	212.07
827.69	212.06
828.00	212.05
828.32	212.06
828.64	211.99
828.95	212.21
829.27	212.11
829.58	212.07
829.90	212.17
830.22	212.26
830.53	212.16
830.85	212.09
831.17	212.08
831.48	212.07
831.80	212.12
832.11	212.18
832.43	212.11
832.75	212.08
833.06	212.24
833.38	212.05
833.69	212.02
834.01	211.99
834.32	211.95
834.64	211.93
834.96	211.99
835.27	212.03
835.59	211.95
835.90	211.86
836.22	211.84
836.53	211.68
836.85	211.60
837.16	212.00
837.48	212.02
837.79	212.10
838.11	212.14
838.42	212.11
838.74	212.09
839.05	212.07
839.37	212.07
839.68	211.90
840.00	211.86
840.31	211.97
840.63	211.96
840.94	211.95
841.26	211.89
841.57	211.80
841.88	211.84
842.20	211.74
842.51	211.70
842.83	211.73
843.14	212.07
843.46	212.16
843.77	211.89
844.08	211.91
844.40	211.80
844.71	211.71
845.03	211.64
845.34	211.62
845.65	211.62
845.97	211.68
846.28	211.70
846.60	211.74
846.91	211.66
847.22	211.58
847.54	211.67
847.85	211.75
848.16	211.73
848.48	211.68
848.79	211.80
849.10	211.85
849.42	211.92
849.73	211.57
850.04	211.54
850.36	211.46
850.67	211.47
850.98	211.50
851.30	211.58
851.61	211.64
851.92	211.67
852.23	211.74
852.55	211.66
852.86	211.73
853.17	211.80
853.49	211.85
853.80	212.00
854.11	212.03
854.42	212.04
854.74	212.01
855.05	212.04
855.36	211.83
855.67	211.80
855.99	211.72
856.30	212.16
856.61	212.13
856.92	212.19
857.23	212.19
857.55	212.15
857.86	212.15
858.17	212.18
858.48	212.12
858.79	212.09
859.11	212.16
859.42	212.05
859.73	212.02
860.04	212.02
860.35	211.91
860.66	211.76
860.98	211.75
861.29	211.80
861.60	211.71
861.91	211.83
862.22	211.80
862.53	211.69
862.84	211.26
863.16	211.36
863.47	211.22
863.78	211.17
864.09	211.20
864.40	211.19
864.71	211.22
865.02	211.27
865.33	211.24
865.64	211.21
865.95	211.28
866.27	211.46
866.58	211.49
866.89	211.48
867.20	211.55
867.51	211.50
867.82	211.48
868.13	211.62
868.44	211.58
868.75	211.68
869.06	211.79
869.37	211.82
869.68	211.66
869.99	211.72
870.30	211.77
870.61	211.74
870.92	211.70
871.23	211.67
871.54	211.65
871.85	211.71
872.16	211.74
872.47	211.67
872.78	211.42
873.09	211.35
873.40	211.26
873.71	211.20
874.02	211.17
874.33	211.18
874.64	211.10
874.95	211.15
875.26	211.06
875.56	211.01
875.87	211.02
876.18	211.05
876.49	211.42
876.80	211.36
877.11	211.31
877.42	211.32
877.73	211.33
878.04	211.31
878.35	211.37
878.66	211.36
878.96	211.31
879.27	211.38
879.58	211.34
879.89	211.39
880.20	211.54
880.51	211.59
880.82	211.58
881.12	211.51
881.43	211.38
881.74	211.30
882.05	211.29
882.36	211.33
882.67	211.37
882.97	210.97
883.28	210.98
883.59	211.01
883.90	211.05
884.21	211.11
884.51	211.07
884.82	210.91
885.13	210.97
885.44	210.99
885.74	210.94
886.05	210.96
886.36	210.92
886.67	210.74
886.98	210.91
887.28	210.96
887.59	210.94
887.90	211.00
888.20	211.03
888.51	211.08
888.82	211.01
889.13	211.02
889.43	211.26
889.74	211.16
890.05	211.11
890.35	211.05
890.66	210.97
890.97	210.97
891.28	210.98
891.58	210.90
891.89	211.01
892.20	211.04
892.50	210.98
892.81	211.07
893.12	211.12
893.42	210.92
893.73	210.90
894.04	211.00
894.34	210.93
894.65	210.88
894.95	210.84
895.26	210.86
895.57	211.02
895.87	210.73
896.18	210.87
896.48	210.85
896.79	210.82
897.10	210.91
897.40	210.89
897.71	210.93
898.01	210.93
898.32	210.86
898.63	210.77
898.93	210.77
899.24	210.69
899.54	210.63
899.85	210.74
900.15	210.71
900.46	210.64
900.76	210.78
901.07	210.84
901.38	210.89
901.68	210.91
901.99	210.68
902.29	210.76
902.60	210.73
902.90	210.78
903.21	210.83
903.51	210.72
903.82	210.78
904.12	210.70
904.43	210.67
904.73	210.69
905.03	210.78
905.34	211.13
905.64	211.17
905.95	211.18
906.25	211.05
906.56	211.02
906.86	211.11
907.17	211.13
907.47	211.21
907.77	211.18
908.08	211.14
908.38	211.25
908.69	211.29
908.99	211.40
909.30	211.45
909.60	211.49
909.90	211.53
910.21	211.47
910.51	211.53
910.81	211.59
911.12	211.59
911.42	211.60
911.73	211.28
912.03	211.30
912.33	211.38
912.64	211.39
912.94	211.41
913.24	211.30
913.55	211.20
913.85	211.12
914.15	211.16
914.46	211.21
914.76	211.23
915.06	211.19
915.37	211.07
915.67	211.05
915.97	211.01
916.27	210.92
916.58	210.99
916.88	211.00
917.18	210.99
917.49	211.21
917.79	211.24
918.09	211.29
918.39	211.41
918.70	211.40
919.00	211.47
919.30	211.60
919.60	211.57
919.91	211.57
920.21	211.60
920.51	211.51
920.81	211.47
921.12	211.43
921.42	211.39
921.72	211.45
922.02	211.50
922.32	211.63
922.63	211.70
922.93	211.90
923.23	211.99
923.53	211.94
923.83	211.70
924.13	211.69
924.44	211.69
924.74	211.75
925.04	211.87
925.34	211.82
925.64	211.66
925.94	211.75
926.24	211.98
926.55	211.90
926.85	211.98
927.15	211.95
927.45	211.92
927.75	211.94
928.05	211.87
928.35	211.75
928.65	211.69
928.95	211.72
929.26	211.58
929.56	211.53
929.86	211.57
930.16	211.60
930.46	211.64
930.76	211.70
931.06	211.55
931.36	211.47
931.66	211.53
931.96	211.63
932.26	211.64
932.56	211.50
932.86	211.58
933.16	211.57
933.46	211.59
933.76	211.59
934.06	211.66
934.36	211.80
934.66	211.83
934.96	211.87
935.26	211.89
935.56	211.97
935.86	211.88
936.16	211.88
936.46	211.81
936.76	211.73
937.06	211.66
937.36	211.66
937.66	211.69
937.96	211.66
938.26	211.66
938.56	211.63
938.86	211.61
939.16	211.67
939.46	211.71
939.76	211.75
940.06	211.75
940.35	211.70
940.65	211.59
940.95	211.59
941.25	211.45
941.55	211.41
941.85	211.26
942.15	211.35
942.45	211.46
942.75	211.49
943.04	211.54
943.34	211.62
943.64	211.57
943.94	211.42
944.24	211.43
944.54	211.41
944.84	211.46
945.13	211.42
945.43	211.27
945.73	211.26
946.03	211.20
946.33	211.16
946.62	211.13
946.92	211.06
947.22	211.13
947.52	211.23
947.82	211.27
948.11	211.25
948.41	211.15
948.71	210.93
949.01	210.91
949.31	210.84
949.60	210.71
949.90	210.78
950.20	210.82
950.50	210.87
950.79	210.80
951.09	210.76
951.39	210.80
951.69	210.81
951.98	210.87
952.28	210.87
952.58	210.89
952.87	210.88
953.17	211.01
953.47	210.96
953.76	210.93
954.06	210.83
954.36	210.77
954.66	210.80
954.95	210.91
955.25	210.97
955.55	210.95
955.84	210.99
956.14	210.97
956.44	210.95
956.73	210.87
957.03	210.91
957.32	211.00
957.62	210.95
957.92	211.03
958.21	210.98
958.51	211.36
958.81	211.39
959.10	211.39
959.40	211.47
959.69	211.48
959.99	211.49
960.29	211.52
960.58	211.58
960.88	211.71
961.17	211.69
961.47	211.67
961.76	211.65
962.06	211.70
962.36	211.73
962.65	211.78
962.95	211.82
963.24	211.79
963.54	211.70
963.83	211.72
964.13	211.69
964.42	211.60
964.72	211.33
965.01	211.29
965.31	211.27
965.60	211.10
965.90	211.28
966.19	211.20
966.49	211.20
966.78	211.09
967.08	211.04
967.37	211.09
967.67	211.05
967.96	211.12
968.26	211.05
968.55	211.08
968.85	211.10
969.14	211.12
969.43	211.10
969.73	211.11
970.02	211.07
970.32	211.08
970.61	211.10
970.91	210.98
971.20	210.93
971.49	210.94
971.79	211.00
972.08	210.76
972.38	210.74
972.67	210.71
972.96	210.82
973.26	210.77
973.55	210.86
973.85	210.92
974.14	210.93
974.43	210.94
974.73	210.88
975.02	210.79
975.31	210.72
975.61	210.72
975.90	210.66
976.19	210.62
976.49	210.56
976.78	210.59
977.07	210.59
977.37	210.68
977.66	210.67
977.95	210.62
978.24	210.64
978.54	210.75
978.83	210.77
979.12	210.77
979.42	210.80
979.71	210.66
980.00	210.57
980.29	210.55
980.59	210.50
980.88	210.57
981.17	210.58
981.46	210.58
981.76	210.59
982.05	210.70
982.34	210.71
982.63	210.73
982.93	210.72
983.22	210.82
983.51	210.80
983.80	210.89
984.09	210.97
984.39	210.99
984.68	210.91
984.97	210.90
985.26	210.86
985.55	210.90
985.85	210.89
986.14	210.97
986.43	211.01
986.72	211.00
987.01	210.91
987.30	210.92
987.59	210.96
987.89	211.03
988.18	210.95
988.47	210.97
988.76	210.95
989.05	210.91
989.34	210.86
989.63	210.93
989.92	210.76
990.22	210.72
990.51	210.64
990.80	210.70
991.09	210.72
991.38	210.72
991.67	210.62
991.96	210.55
992.25	210.53
992.54	210.47
992.83	210.51
993.12	210.47
993.41	210.48
993.70	210.59
993.99	210.57
994.28	210.64
994.58	210.72
994.87	210.69
995.16	210.67
995.45	210.61
995.74	210.46
996.03	210.60
996.32	210.54
996.61	210.71
996.90	210.65
997.19	210.71
997.48	210.78
997.77	210.73
998.06	210.76
998.34	210.76
998.63	210.78
998.92	210.77
999.21	210.82
999.50	210.81
999.79	210.66
1000.08	210.65
1000.37	210.62
1000.66	210.49
1000.95	210.63
1001.24	210.64
1001.53	210.67
1001.82	210.73
1002.11	210.66
1002.40	210.76
1002.68	210.73
1002.97	211.01
1003.26	210.97
1003.55	210.83
1003.84	210.89
1004.13	211.01
1004.42	210.93
1004.71	210.89
1004.99	210.91
1005.28	211.07
1005.57	211.09
1005.86	211.08
1006.15	211.06
1006.44	210.97
1006.72	211.05
1007.01	210.91
1007.30	210.94
1007.59	211.02
1007.88	210.97
1008.17	210.99
1008.45	210.94
1008.74	210.86
1009.03	210.70
1009.32	210.69
1009.60	210.76
1009.89	210.75
1010.18	210.68
1010.47	210.66
1010.76	210.67
1011.04	210.68
1011.33	210.72
1011.62	210.74
1011.91	210.72
1012.19	210.75
1012.48	210.82
1012.77	210.87
1013.05	211.08
1013.34	211.06
1013.63	210.99
1013.92	211.08
1014.20	211.08
1014.49	211.04
1014.78	211.06
1015.06	210.92
1015.35	210.85
1015.64	210.86
1015.92	210.93
1016.21	210.88
1016.50	210.89
1016.78	210.92
1017.07	210.94
1017.36	210.72
1017.64	210.64
1017.93	210.72
1018.22	210.67
1018.50	210.67
1018.79	210.63
1019.08	210.49
1019.36	210.58
1019.65	210.50
1019.93	210.55
1020.22	210.64
1020.51	210.84
1020.79	210.78
1021.08	209.90
1021.36	210.85
1021.65	211.15
1021.94	211.00
1022.22	211.90
1022.51	209.35
1022.79	211.85
1023.08	212.30
1023.36	214.85
1023.65	209.45
>>>>>End Processed Spectral Data<<<<<
