SpectraSuite Data File
++++++++++++++++++++++++++++++++++++
Date: Mon Feb 25 16:59:38 EST 2013
User: group
Dark Spectrum Present: No
Reference Spectrum Present: No
Number of Sampled Component Spectra: 1
Spectrometers: USB2E7196
Integration Time (usec): 104000 (USB2E7196)
Spectra Averaged: 20 (USB2E7196)
Boxcar Smoothing: 10 (USB2E7196)
Correct for Electrical Dark: No (USB2E7196)
Strobe/Lamp Enabled: No (USB2E7196)
Correct for Detector Non-linearity: No (USB2E7196)
Correct for Stray Light: No (USB2E7196)
Number of Pixels in Processed Spectrum: 2048
>>>>>Begin Processed Spectral Data<<<<<
339.09	0.00
339.48	197.45
339.86	199.40
340.24	202.05
340.63	203.70
341.01	208.55
341.39	204.95
341.78	208.50
342.16	208.50
342.54	209.00
342.93	198.29
343.31	208.28
343.69	208.92
344.07	209.41
344.46	209.95
344.84	210.30
345.22	210.36
345.60	210.73
345.99	210.80
346.37	211.00
346.75	211.14
347.13	211.21
347.52	211.29
347.90	211.49
348.28	211.45
348.66	211.62
349.05	211.57
349.43	211.64
349.81	211.65
350.19	211.69
350.57	211.75
350.96	211.74
351.34	211.84
351.72	211.92
352.10	212.07
352.48	212.03
352.87	212.05
353.25	212.17
353.63	212.15
354.01	212.23
354.39	212.26
354.77	212.24
355.15	212.47
355.54	212.56
355.92	212.51
356.30	212.59
356.68	212.80
357.06	212.84
357.44	212.83
357.82	212.93
358.20	213.05
358.58	213.15
358.97	213.24
359.35	213.33
359.73	213.39
360.11	213.41
360.49	213.47
360.87	213.54
361.25	213.58
361.63	213.73
362.01	213.77
362.39	213.77
362.77	213.82
363.15	213.75
363.53	213.70
363.91	213.76
364.29	213.78
364.67	213.46
365.05	213.53
365.43	213.55
365.81	213.54
366.19	213.66
366.57	213.74
366.95	213.72
367.33	213.68
367.71	213.73
368.09	213.81
368.47	213.79
368.85	213.75
369.23	213.82
369.61	213.64
369.99	213.75
370.37	213.80
370.75	213.98
371.13	213.90
371.51	213.85
371.89	213.85
372.27	213.85
372.65	213.83
373.03	213.81
373.41	213.79
373.78	213.70
374.16	213.54
374.54	213.35
374.92	213.28
375.30	213.20
375.68	213.06
376.06	212.94
376.44	212.87
376.82	212.86
377.19	212.79
377.57	212.79
377.95	212.64
378.33	212.50
378.71	212.25
379.09	212.26
379.47	212.26
379.84	212.04
380.22	211.92
380.60	211.85
380.98	211.70
381.36	211.66
381.73	211.58
382.11	211.55
382.49	211.57
382.87	211.48
383.25	211.45
383.62	211.77
384.00	211.66
384.38	211.54
384.76	211.59
385.13	211.70
385.51	211.58
385.89	211.47
386.27	211.50
386.64	211.52
387.02	211.44
387.40	211.35
387.78	211.41
388.15	211.41
388.53	211.37
388.91	211.37
389.29	211.27
389.66	211.29
390.04	211.19
390.42	211.15
390.79	211.18
391.17	211.20
391.55	210.82
391.92	210.84
392.30	210.92
392.68	210.87
393.05	210.78
393.43	210.77
393.81	210.77
394.18	210.62
394.56	210.64
394.94	210.71
395.31	210.65
395.69	210.70
396.06	210.77
396.44	210.80
396.82	210.78
397.19	211.05
397.57	211.10
397.95	211.12
398.32	211.05
398.70	211.07
399.07	211.16
399.45	211.15
399.82	211.24
400.20	211.22
400.58	211.23
400.95	211.19
401.33	211.41
401.70	211.75
402.08	211.87
402.45	211.96
402.83	212.09
403.20	212.23
403.58	212.40
403.95	212.50
404.33	212.70
404.71	212.89
405.08	213.22
405.46	213.33
405.83	213.58
406.21	213.86
406.58	214.15
406.96	214.36
407.33	214.70
407.70	215.03
408.08	215.59
408.45	215.95
408.83	216.38
409.20	216.71
409.58	216.87
409.95	217.44
410.33	217.96
410.70	218.43
411.08	219.05
411.45	219.64
411.82	220.31
412.20	221.07
412.57	222.02
412.95	222.55
413.32	223.46
413.69	224.34
414.07	225.26
414.44	226.28
414.82	227.44
415.19	228.72
415.56	230.00
415.94	231.35
416.31	232.93
416.68	234.50
417.06	236.30
417.43	238.15
417.81	240.12
418.18	242.14
418.55	244.27
418.93	246.61
419.30	248.93
419.67	251.40
420.04	253.92
420.42	256.55
420.79	259.83
421.16	263.10
421.54	266.48
421.91	269.92
422.28	273.55
422.66	277.38
423.03	281.20
423.40	285.22
423.77	289.37
424.15	293.60
424.52	298.05
424.89	302.90
425.26	307.51
425.64	311.95
426.01	316.85
426.38	322.11
426.75	327.38
427.13	332.78
427.50	338.57
427.87	344.66
428.24	350.68
428.61	356.29
428.99	362.67
429.36	369.53
429.73	376.40
430.10	383.15
430.47	390.04
430.85	397.24
431.22	404.80
431.59	412.88
431.96	420.71
432.33	429.30
432.70	437.60
433.08	447.52
433.45	456.74
433.82	466.02
434.19	476.25
434.56	486.20
434.93	496.03
435.30	505.82
435.68	516.75
436.05	527.72
436.42	538.56
436.79	548.32
437.16	558.94
437.53	570.11
437.90	581.42
438.27	592.59
438.64	604.06
439.01	614.77
439.38	624.38
439.75	633.72
440.13	644.40
440.50	654.52
440.87	662.81
441.24	671.74
441.61	681.33
441.98	688.66
442.35	697.36
442.72	705.88
443.09	714.07
443.46	719.27
443.83	722.85
444.20	726.30
444.57	731.03
444.94	733.58
445.31	736.52
445.68	739.20
446.05	740.76
446.42	740.61
446.79	740.18
447.16	739.51
447.53	739.36
447.90	736.03
448.27	732.77
448.64	727.99
449.01	724.51
449.37	718.06
449.74	711.80
450.11	704.03
450.48	695.53
450.85	686.71
451.22	679.21
451.59	672.13
451.96	665.31
452.33	655.98
452.70	647.72
453.07	637.49
453.43	626.90
453.80	617.00
454.17	607.41
454.54	598.27
454.91	588.52
455.28	578.88
455.65	570.00
456.02	561.24
456.38	553.59
456.75	543.87
457.12	535.76
457.49	527.71
457.86	519.89
458.23	513.32
458.59	506.07
458.96	498.73
459.33	492.19
459.70	485.57
460.07	480.35
460.43	474.35
460.80	468.70
461.17	463.83
461.54	458.56
461.91	453.54
462.27	448.56
462.64	444.37
463.01	439.68
463.38	435.25
463.74	430.45
464.11	426.37
464.48	423.00
464.85	419.18
465.21	416.41
465.58	413.29
465.95	409.54
466.32	406.47
466.68	403.38
467.05	400.27
467.42	397.07
467.78	393.77
468.15	390.64
468.52	388.24
468.88	385.20
469.25	382.38
469.62	380.18
469.98	377.86
470.35	375.61
470.72	373.50
471.08	371.10
471.45	369.21
471.82	367.25
472.18	365.08
472.55	363.70
472.92	361.66
473.28	359.98
473.65	358.31
474.02	356.81
474.38	355.55
474.75	354.52
475.11	353.43
475.48	352.55
475.85	351.71
476.21	350.84
476.58	350.12
476.94	349.64
477.31	348.89
477.67	348.18
478.04	347.67
478.41	347.28
478.77	347.19
479.14	346.80
479.50	346.64
479.87	346.68
480.23	346.44
480.60	346.42
480.96	346.35
481.33	346.70
481.69	346.91
482.06	347.09
482.42	347.14
482.79	347.26
483.15	347.59
483.52	348.14
483.88	348.53
484.25	349.02
484.61	349.50
484.98	349.98
485.34	350.85
485.71	351.74
486.07	352.67
486.44	353.31
486.80	354.32
487.17	355.26
487.53	356.47
487.90	357.79
488.26	359.30
488.62	360.89
488.99	362.23
489.35	363.70
489.72	365.17
490.08	366.94
490.44	368.73
490.81	370.52
491.17	372.23
491.54	374.27
491.90	376.30
492.26	378.51
492.63	380.95
492.99	383.14
493.36	385.51
493.72	388.00
494.08	390.65
494.45	393.32
494.81	396.23
495.17	398.93
495.54	401.84
495.90	404.60
496.26	407.39
496.63	410.43
496.99	413.45
497.35	416.71
497.72	419.93
498.08	423.20
498.44	426.65
498.80	430.36
499.17	433.90
499.53	437.40
499.89	441.09
500.26	444.54
500.62	448.00
500.98	451.56
501.34	455.04
501.71	458.59
502.07	462.04
502.43	465.48
502.79	468.90
503.16	472.39
503.52	475.81
503.88	479.38
504.24	482.76
504.60	486.32
504.97	489.77
505.33	493.08
505.69	496.75
506.05	500.16
506.41	503.23
506.78	506.28
507.14	509.31
507.50	512.29
507.86	515.41
508.22	518.46
508.59	521.40
508.95	524.19
509.31	527.14
509.67	529.94
510.03	532.60
510.39	535.46
510.75	538.03
511.12	540.76
511.48	543.20
511.84	545.57
512.20	547.83
512.56	550.15
512.92	552.54
513.28	554.54
513.64	556.34
514.00	558.33
514.37	560.29
514.73	562.35
515.09	564.10
515.45	565.81
515.81	567.49
516.17	569.02
516.53	570.64
516.89	571.85
517.25	573.04
517.61	574.39
517.97	575.41
518.33	576.47
518.69	577.38
519.05	578.49
519.41	579.78
519.77	581.07
520.13	581.92
520.49	582.72
520.85	583.55
521.21	584.55
521.57	585.43
521.93	586.08
522.29	586.83
522.65	587.57
523.01	588.20
523.37	588.85
523.73	589.62
524.09	590.23
524.45	591.02
524.81	592.02
525.17	592.81
525.53	593.69
525.89	594.63
526.25	595.52
526.61	596.12
526.97	596.67
527.33	597.16
527.68	598.29
528.04	599.11
528.40	599.86
528.76	600.62
529.12	601.58
529.48	602.61
529.84	603.50
530.20	604.53
530.56	605.67
530.91	606.92
531.27	608.06
531.63	609.24
531.99	610.59
532.35	611.77
532.71	612.97
533.07	614.37
533.42	615.95
533.78	617.29
534.14	618.93
534.50	620.38
534.86	622.10
535.21	623.25
535.57	624.93
535.93	626.53
536.29	628.42
536.65	630.14
537.00	631.77
537.36	633.47
537.72	635.28
538.08	637.13
538.44	639.03
538.79	640.84
539.15	642.86
539.51	644.77
539.87	646.85
540.22	648.85
540.58	651.12
540.94	652.98
541.29	654.99
541.65	656.98
542.01	659.07
542.37	661.16
542.72	663.50
543.08	665.59
543.44	668.15
543.79	670.21
544.15	672.50
544.51	675.18
544.87	677.80
545.22	680.15
545.58	682.42
545.94	684.51
546.29	686.80
546.65	689.07
547.01	691.40
547.36	693.87
547.72	696.28
548.07	698.42
548.43	700.55
548.79	702.87
549.14	705.28
549.50	707.76
549.86	709.93
550.21	712.28
550.57	714.74
550.92	716.92
551.28	719.32
551.64	721.77
551.99	724.10
552.35	726.33
552.70	728.70
553.06	731.09
553.41	733.61
553.77	736.32
554.13	738.86
554.48	741.40
554.84	743.91
555.19	746.35
555.55	748.93
555.90	751.36
556.26	753.79
556.61	755.90
556.97	758.15
557.32	760.41
557.68	762.46
558.03	764.52
558.39	766.51
558.74	768.65
559.10	770.60
559.45	772.66
559.81	774.95
560.16	776.72
560.52	778.81
560.87	780.79
561.23	782.19
561.58	784.30
561.94	785.83
562.29	787.37
562.64	789.29
563.00	791.00
563.35	792.78
563.71	794.85
564.06	797.08
564.42	798.99
564.77	801.09
565.12	803.08
565.48	805.24
565.83	807.03
566.19	808.86
566.54	810.58
566.89	812.09
567.25	813.67
567.60	815.75
567.96	817.67
568.31	819.48
568.66	821.30
569.02	822.44
569.37	823.76
569.72	825.23
570.08	826.50
570.43	827.72
570.78	828.80
571.14	829.57
571.49	829.99
571.84	830.93
572.20	831.39
572.55	832.17
572.90	832.44
573.26	832.92
573.61	833.18
573.96	833.61
574.31	833.71
574.67	833.72
575.02	833.29
575.37	832.80
575.72	832.18
576.08	831.97
576.43	831.65
576.78	831.54
577.13	831.24
577.49	830.86
577.84	830.15
578.19	829.86
578.54	829.78
578.90	829.82
579.25	829.26
579.60	828.65
579.95	827.87
580.30	827.23
580.66	826.79
581.01	826.17
581.36	825.01
581.71	824.12
582.06	823.48
582.42	822.90
582.77	821.88
583.12	821.31
583.47	820.58
583.82	819.71
584.17	818.71
584.53	817.94
584.88	816.75
585.23	816.00
585.58	814.90
585.93	813.50
586.28	812.27
586.63	811.24
586.98	810.28
587.34	809.55
587.69	808.35
588.04	807.14
588.39	806.01
588.74	804.88
589.09	804.06
589.44	802.52
589.79	801.44
590.14	800.54
590.49	799.32
590.84	797.88
591.19	796.82
591.54	795.65
591.89	793.64
592.25	792.60
592.60	790.99
592.95	789.44
593.30	787.81
593.65	786.05
594.00	784.21
594.35	783.44
594.70	781.45
595.05	780.04
595.40	778.48
595.75	776.58
596.10	775.11
596.45	773.44
596.80	771.94
597.15	770.03
597.50	768.08
597.85	766.36
598.19	764.57
598.54	762.84
598.89	761.10
599.24	760.06
599.59	758.01
599.94	756.45
600.29	754.81
600.64	753.03
600.99	751.22
601.34	749.55
601.69	746.78
602.04	744.67
602.39	742.66
602.74	740.68
603.08	738.94
603.43	737.39
603.78	735.40
604.13	733.43
604.48	731.71
604.83	730.27
605.18	728.54
605.53	726.74
605.87	724.64
606.22	722.61
606.57	720.21
606.92	718.10
607.27	716.06
607.62	714.01
607.96	712.13
608.31	710.30
608.66	708.25
609.01	706.06
609.36	704.23
609.70	702.05
610.05	699.75
610.40	697.62
610.75	695.08
611.10	693.11
611.44	690.80
611.79	688.32
612.14	685.70
612.49	683.04
612.83	680.55
613.18	678.07
613.53	675.72
613.88	673.27
614.22	670.96
614.57	668.41
614.92	665.91
615.27	663.44
615.61	660.92
615.96	658.33
616.31	656.27
616.65	654.09
617.00	651.77
617.35	649.38
617.70	646.85
618.04	644.17
618.39	641.20
618.74	638.88
619.08	636.44
619.43	634.18
619.78	632.03
620.12	629.78
620.47	627.51
620.82	624.81
621.16	622.23
621.51	619.91
621.85	617.48
622.20	615.17
622.55	612.70
622.89	610.19
623.24	607.90
623.59	605.19
623.93	602.60
624.28	600.14
624.62	598.07
624.97	595.79
625.32	593.63
625.66	591.43
626.01	589.01
626.35	586.75
626.70	584.13
627.04	581.75
627.39	579.34
627.73	577.12
628.08	575.10
628.43	572.96
628.77	570.50
629.12	568.16
629.46	565.95
629.81	563.70
630.15	561.48
630.50	559.07
630.84	556.81
631.19	554.48
631.53	552.29
631.88	549.80
632.22	547.49
632.57	545.41
632.91	543.19
633.26	540.86
633.60	538.66
633.95	536.48
634.29	534.05
634.64	531.88
634.98	529.31
635.32	527.28
635.67	525.21
636.01	523.20
636.36	520.95
636.70	518.87
637.05	516.83
637.39	514.86
637.73	513.02
638.08	511.38
638.42	509.53
638.77	507.74
639.11	505.80
639.45	503.84
639.80	501.72
640.14	499.80
640.49	497.89
640.83	495.85
641.17	494.07
641.52	492.14
641.86	490.10
642.20	488.35
642.55	486.00
642.89	483.95
643.23	481.92
643.58	480.37
643.92	478.25
644.26	476.30
644.61	474.34
644.95	472.39
645.29	470.12
645.64	468.16
645.98	466.08
646.32	464.16
646.66	462.14
647.01	460.14
647.35	458.25
647.69	456.09
648.04	454.23
648.38	452.27
648.72	450.33
649.06	448.37
649.41	446.41
649.75	444.63
650.09	442.90
650.43	441.00
650.78	438.90
651.12	436.98
651.46	435.00
651.80	433.17
652.14	431.27
652.49	429.57
652.83	427.58
653.17	425.60
653.51	423.61
653.85	421.83
654.20	420.15
654.54	418.24
654.88	416.59
655.22	414.80
655.56	412.89
655.90	411.07
656.25	409.33
656.59	407.65
656.93	405.85
657.27	404.17
657.61	402.24
657.95	400.58
658.29	398.86
658.64	397.32
658.98	395.53
659.32	393.66
659.66	391.97
660.00	390.27
660.34	388.52
660.68	386.83
661.02	385.05
661.36	383.32
661.70	381.67
662.05	380.08
662.39	378.62
662.73	377.20
663.07	375.92
663.41	374.43
663.75	372.76
664.09	371.36
664.43	369.59
664.77	368.33
665.11	366.79
665.45	365.30
665.79	363.85
666.13	362.38
666.47	361.02
666.81	359.53
667.15	358.13
667.49	357.00
667.83	355.78
668.17	354.53
668.51	353.27
668.85	352.04
669.19	351.00
669.53	349.55
669.87	348.14
670.21	346.68
670.55	345.50
670.89	344.60
671.23	343.45
671.57	342.23
671.91	341.00
672.25	339.78
672.58	338.64
672.92	337.40
673.26	336.35
673.60	335.22
673.94	334.13
674.28	333.02
674.62	331.92
674.96	330.82
675.30	329.79
675.64	328.69
675.97	327.69
676.31	326.38
676.65	325.36
676.99	324.52
677.33	323.51
677.67	322.39
678.01	321.11
678.34	320.02
678.68	319.23
679.02	318.08
679.36	317.14
679.70	316.16
680.04	315.29
680.37	314.23
680.71	313.30
681.05	312.35
681.39	311.42
681.73	310.35
682.06	309.50
682.40	308.58
682.74	307.61
683.08	306.74
683.42	305.86
683.75	304.97
684.09	303.87
684.43	302.94
684.77	302.05
685.10	301.19
685.44	300.28
685.78	299.36
686.12	298.59
686.45	297.61
686.79	296.76
687.13	295.90
687.46	295.15
687.80	294.35
688.14	293.57
688.48	292.81
688.81	292.03
689.15	291.22
689.49	290.43
689.82	289.77
690.16	288.75
690.50	287.94
690.83	287.16
691.17	286.38
691.51	285.66
691.84	284.92
692.18	284.28
692.52	283.56
692.85	282.79
693.19	282.25
693.52	281.58
693.86	280.82
694.20	280.02
694.53	279.34
694.87	278.62
695.21	277.84
695.54	277.10
695.88	276.31
696.21	275.51
696.55	274.75
696.88	274.02
697.22	273.47
697.56	272.91
697.89	272.16
698.23	271.57
698.56	270.90
698.90	270.37
699.23	269.58
699.57	269.01
699.90	268.36
700.24	267.60
700.58	267.00
700.91	266.44
701.25	266.12
701.58	265.53
701.92	264.98
702.25	264.46
702.59	263.90
702.92	263.43
703.26	262.87
703.59	262.38
703.93	262.10
704.26	261.54
704.60	260.99
704.93	260.51
705.26	259.94
705.60	259.48
705.93	258.90
706.27	258.53
706.60	258.13
706.94	257.81
707.27	257.26
707.61	256.82
707.94	256.37
708.27	255.67
708.61	255.10
708.94	254.62
709.28	254.15
709.61	253.64
709.94	253.21
710.28	252.83
710.61	252.53
710.95	251.83
711.28	251.63
711.61	251.19
711.95	250.86
712.28	250.45
712.61	250.10
712.95	249.83
713.28	249.56
713.61	249.11
713.95	248.61
714.28	248.31
714.61	247.92
714.95	247.49
715.28	247.03
715.61	246.63
715.95	246.25
716.28	245.84
716.61	245.55
716.95	245.12
717.28	244.63
717.61	244.12
717.94	243.77
718.28	243.17
718.61	242.83
718.94	242.44
719.27	242.08
719.61	241.68
719.94	241.20
720.27	240.63
720.60	240.16
720.94	239.80
721.27	239.56
721.60	239.26
721.93	239.02
722.27	238.88
722.60	238.75
722.93	238.52
723.26	238.25
723.59	237.94
723.93	237.71
724.26	237.54
724.59	237.32
724.92	237.05
725.25	237.01
725.59	236.80
725.92	236.64
726.25	236.43
726.58	236.18
726.91	235.96
727.24	235.84
727.57	235.68
727.91	235.41
728.24	235.19
728.57	234.97
728.90	234.86
729.23	234.56
729.56	234.37
729.89	234.07
730.22	233.80
730.55	233.55
730.89	233.37
731.22	233.08
731.55	232.80
731.88	232.62
732.21	232.28
732.54	232.00
732.87	231.73
733.20	231.53
733.53	231.36
733.86	231.20
734.19	230.91
734.52	230.75
734.85	230.84
735.18	230.60
735.51	230.52
735.84	230.34
736.17	230.20
736.50	229.86
736.83	230.09
737.16	229.90
737.49	229.71
737.82	229.47
738.15	229.40
738.48	229.23
738.81	229.02
739.14	228.82
739.47	228.62
739.80	228.41
740.13	228.22
740.46	228.02
740.79	227.81
741.12	227.70
741.45	227.47
741.78	227.07
742.11	226.97
742.44	226.74
742.77	226.56
743.10	226.39
743.43	226.28
743.75	225.78
744.08	226.16
744.41	226.04
744.74	225.86
745.07	225.61
745.40	225.53
745.73	225.58
746.06	225.40
746.39	225.25
746.71	225.14
747.04	224.94
747.37	224.78
747.70	224.67
748.03	224.54
748.36	224.44
748.68	224.33
749.01	224.09
749.34	223.91
749.67	223.74
750.00	223.61
750.33	223.80
750.65	223.76
750.98	223.14
751.31	223.02
751.64	222.94
751.97	223.05
752.29	222.93
752.62	222.69
752.95	222.57
753.28	222.51
753.60	222.35
753.93	222.34
754.26	222.27
754.59	222.01
754.91	221.82
755.24	221.74
755.57	221.58
755.90	221.48
756.22	221.35
756.55	221.20
756.88	221.07
757.20	220.66
757.53	220.37
757.86	220.29
758.19	220.19
758.51	220.05
758.84	219.73
759.17	219.57
759.49	219.41
759.82	219.48
760.15	219.37
760.47	219.28
760.80	219.09
761.13	219.00
761.45	219.02
761.78	218.93
762.11	218.74
762.43	218.63
762.76	218.56
763.08	218.53
763.41	218.49
763.74	218.37
764.06	218.22
764.39	218.14
764.71	218.03
765.04	217.93
765.37	217.87
765.69	217.79
766.02	217.84
766.34	217.80
766.67	217.56
767.00	217.61
767.32	217.78
767.65	217.96
767.97	217.90
768.30	217.81
768.62	217.78
768.95	217.82
769.27	217.80
769.60	217.78
769.92	217.66
770.25	217.51
770.57	217.46
770.90	217.49
771.22	217.43
771.55	217.42
771.87	217.34
772.20	217.26
772.52	217.52
772.85	217.80
773.17	217.75
773.50	217.73
773.82	217.61
774.15	217.28
774.47	217.00
774.80	216.87
775.12	216.80
775.45	216.71
775.77	216.62
776.09	216.60
776.42	216.50
776.74	216.59
777.07	216.56
777.39	216.45
777.72	216.33
778.04	216.37
778.36	216.31
778.69	216.33
779.01	216.34
779.33	215.95
779.66	215.54
779.98	215.41
780.31	215.37
780.63	215.50
780.95	215.63
781.28	215.60
781.60	215.59
781.92	215.52
782.25	215.46
782.57	215.48
782.89	215.43
783.22	215.34
783.54	215.25
783.86	215.23
784.19	215.24
784.51	215.35
784.83	215.24
785.16	215.17
785.48	215.14
785.80	215.13
786.12	215.19
786.45	215.18
786.77	215.24
787.09	215.17
787.42	214.95
787.74	214.88
788.06	214.82
788.38	214.72
788.71	214.67
789.03	214.74
789.35	214.75
789.67	214.66
789.99	214.75
790.32	214.63
790.64	214.63
790.96	214.93
791.28	214.78
791.61	214.81
791.93	214.83
792.25	214.74
792.57	214.96
792.89	214.81
793.21	214.76
793.54	214.64
793.86	214.65
794.18	214.66
794.50	214.46
794.82	214.45
795.14	214.50
795.47	214.59
795.79	214.54
796.11	214.37
796.43	214.31
796.75	214.23
797.07	214.25
797.39	214.29
797.71	213.92
798.04	213.87
798.36	213.86
798.68	213.82
799.00	213.90
799.32	213.62
799.64	213.74
799.96	213.63
800.28	213.71
800.60	213.60
800.92	213.61
801.24	213.66
801.56	213.72
801.89	213.69
802.21	213.63
802.53	213.59
802.85	213.67
803.17	213.83
803.49	213.76
803.81	213.69
804.13	213.60
804.45	213.51
804.77	213.57
805.09	213.50
805.41	213.48
805.73	213.37
806.05	213.31
806.37	213.27
806.69	213.29
807.01	213.22
807.33	213.25
807.65	213.12
807.97	213.26
808.28	213.14
808.60	213.18
808.92	213.13
809.24	213.30
809.56	213.31
809.88	213.17
810.20	213.19
810.52	213.21
810.84	213.15
811.16	213.13
811.48	213.04
811.80	213.18
812.12	213.11
812.43	213.18
812.75	213.22
813.07	213.16
813.39	213.12
813.71	213.08
814.03	212.99
814.35	212.99
814.67	212.86
814.98	212.84
815.30	212.74
815.62	212.69
815.94	212.42
816.26	212.37
816.58	212.34
816.89	212.38
817.21	212.36
817.53	212.45
817.85	212.50
818.17	212.50
818.48	212.31
818.80	212.41
819.12	212.33
819.44	212.29
819.76	212.30
820.07	212.33
820.39	212.29
820.71	212.29
821.03	212.29
821.34	212.31
821.66	212.39
821.98	212.44
822.30	212.45
822.61	212.72
822.93	212.62
823.25	212.55
823.57	212.55
823.88	212.63
824.20	212.58
824.52	212.64
824.83	212.66
825.15	212.67
825.47	212.62
825.79	212.59
826.10	212.54
826.42	212.44
826.74	212.46
827.05	212.47
827.37	212.62
827.69	212.58
828.00	212.52
828.32	212.41
828.64	212.34
828.95	212.49
829.27	212.33
829.58	212.35
829.90	212.44
830.22	212.40
830.53	212.28
830.85	212.26
831.17	212.11
831.48	212.07
831.80	212.01
832.11	212.01
832.43	212.03
832.75	211.98
833.06	212.24
833.38	212.11
833.69	212.14
834.01	212.10
834.32	212.11
834.64	212.08
834.96	212.10
835.27	212.06
835.59	211.96
835.90	211.90
836.22	211.86
836.53	211.81
836.85	211.76
837.16	212.06
837.48	212.00
837.79	212.15
838.11	212.15
838.42	212.21
838.74	212.19
839.05	212.12
839.37	212.11
839.68	211.82
840.00	211.80
840.31	211.76
840.63	211.67
840.94	211.60
841.26	211.57
841.57	211.60
841.88	211.69
842.20	211.59
842.51	211.59
842.83	211.62
843.14	211.92
843.46	211.94
843.77	211.70
844.08	211.75
844.40	211.63
844.71	211.55
845.03	211.48
845.34	211.47
845.65	211.45
845.97	211.50
846.28	211.55
846.60	211.62
846.91	211.62
847.22	211.61
847.54	211.63
847.85	211.70
848.16	211.69
848.48	211.65
848.79	211.85
849.10	211.87
849.42	211.88
849.73	211.57
850.04	211.56
850.36	211.50
850.67	211.45
850.98	211.53
851.30	211.59
851.61	211.55
851.92	211.55
852.23	211.72
852.55	211.72
852.86	211.76
853.17	211.80
853.49	211.82
853.80	211.91
854.11	212.00
854.42	211.97
854.74	211.92
855.05	211.90
855.36	211.67
855.67	211.70
855.99	211.72
856.30	212.11
856.61	212.10
856.92	212.15
857.23	212.22
857.55	212.09
857.86	212.09
858.17	212.21
858.48	212.15
858.79	212.02
859.11	212.06
859.42	212.01
859.73	211.95
860.04	211.92
860.35	211.80
860.66	211.70
860.98	211.63
861.29	211.68
861.60	211.66
861.91	211.72
862.22	211.60
862.53	211.48
862.84	211.00
863.16	211.04
863.47	210.88
863.78	210.87
864.09	210.99
864.40	210.99
864.71	210.93
865.02	210.92
865.33	210.84
865.64	210.78
865.95	210.75
866.27	211.02
866.58	211.00
866.89	211.15
867.20	211.14
867.51	211.18
867.82	211.09
868.13	211.13
868.44	211.07
868.75	211.19
869.06	211.21
869.37	211.35
869.68	211.22
869.99	211.35
870.30	211.38
870.61	211.36
870.92	211.29
871.23	211.27
871.54	211.36
871.85	211.48
872.16	211.59
872.47	211.62
872.78	211.33
873.09	211.34
873.40	211.18
873.71	211.23
874.02	211.26
874.33	211.34
874.64	211.31
874.95	211.42
875.26	211.29
875.56	211.35
875.87	211.34
876.18	211.35
876.49	211.66
876.80	211.52
877.11	211.42
877.42	211.42
877.73	211.43
878.04	211.35
878.35	211.30
878.66	211.21
878.96	211.19
879.27	211.23
879.58	211.20
879.89	211.24
880.20	211.29
880.51	211.29
880.82	211.23
881.12	211.20
881.43	211.13
881.74	211.12
882.05	211.11
882.36	211.02
882.67	211.05
882.97	210.69
883.28	210.69
883.59	210.66
883.90	210.74
884.21	210.81
884.51	210.86
884.82	210.83
885.13	210.82
885.44	210.82
885.74	210.82
886.05	210.80
886.36	210.76
886.67	210.65
886.98	210.83
887.28	210.92
887.59	210.96
887.90	210.93
888.20	210.92
888.51	211.01
888.82	211.01
889.13	211.00
889.43	211.25
889.74	211.28
890.05	211.29
890.35	211.23
890.66	211.15
890.97	211.07
891.28	211.11
891.58	211.14
891.89	211.19
892.20	211.10
892.50	211.13
892.81	211.17
893.12	211.17
893.42	210.96
893.73	210.95
894.04	210.94
894.34	210.96
894.65	210.93
894.95	210.85
895.26	210.94
895.57	211.12
895.87	210.93
896.18	210.99
896.48	211.00
896.79	210.96
897.10	211.04
897.40	211.14
897.71	211.15
898.01	211.17
898.32	211.16
898.63	211.20
898.93	211.24
899.24	211.22
899.54	211.21
899.85	211.20
900.15	211.14
900.46	211.14
900.76	211.20
901.07	211.22
901.38	211.11
901.68	211.10
901.99	210.92
902.29	210.89
902.60	210.86
902.90	210.84
903.21	210.89
903.51	210.86
903.82	210.89
904.12	210.86
904.43	210.87
904.73	210.90
905.03	210.85
905.34	211.14
905.64	211.09
905.95	211.10
906.25	211.11
906.56	211.15
906.86	211.17
907.17	211.13
907.47	211.22
907.77	211.31
908.08	211.24
908.38	211.25
908.69	211.29
908.99	211.36
909.30	211.44
909.60	211.48
909.90	211.47
910.21	211.40
910.51	211.34
910.81	211.25
911.12	211.23
911.42	211.24
911.73	210.90
912.03	210.97
912.33	211.04
912.64	211.05
912.94	210.98
913.24	210.86
913.55	210.82
913.85	210.79
914.15	210.78
914.46	210.83
914.76	210.83
915.06	210.74
915.37	210.60
915.67	210.57
915.97	210.48
916.27	210.44
916.58	210.39
916.88	210.42
917.18	210.40
917.49	210.55
917.79	210.59
918.09	210.62
918.39	210.71
918.70	210.69
919.00	210.68
919.30	210.86
919.60	210.95
919.91	210.90
920.21	210.90
920.51	210.89
920.81	210.81
921.12	210.81
921.42	210.91
921.72	210.98
922.02	210.99
922.32	211.12
922.63	211.13
922.93	211.33
923.23	211.32
923.53	211.28
923.83	211.10
924.13	211.11
924.44	211.13
924.74	211.18
925.04	211.22
925.34	211.16
925.64	211.01
925.94	210.99
926.24	211.22
926.55	211.22
926.85	211.25
927.15	211.28
927.45	211.32
927.75	211.25
928.05	211.28
928.35	211.25
928.65	211.30
928.95	211.33
929.26	211.20
929.56	211.29
929.86	211.38
930.16	211.41
930.46	211.38
930.76	211.35
931.06	211.18
931.36	211.06
931.66	211.15
931.96	211.20
932.26	211.22
932.56	211.11
932.86	211.10
933.16	211.16
933.46	211.16
933.76	211.10
934.06	211.18
934.36	211.27
934.66	211.30
934.96	211.25
935.26	211.23
935.56	211.31
935.86	211.26
936.16	211.26
936.46	211.19
936.76	211.12
937.06	211.12
937.36	211.21
937.66	211.27
937.96	211.25
938.26	211.20
938.56	211.21
938.86	211.20
939.16	211.30
939.46	211.30
939.76	211.30
940.06	211.31
940.35	211.27
940.65	211.05
940.95	210.97
941.25	210.86
941.55	210.90
941.85	210.81
942.15	210.86
942.45	210.90
942.75	211.00
943.04	211.08
943.34	211.19
943.64	211.09
943.94	211.09
944.24	211.10
944.54	211.03
944.84	211.02
945.13	211.02
945.43	210.92
945.73	210.85
946.03	210.89
946.33	210.82
946.62	210.80
946.92	210.85
947.22	210.94
947.52	210.96
947.82	210.94
948.11	210.98
948.41	210.80
948.71	210.71
949.01	210.66
949.31	210.60
949.60	210.47
949.90	210.50
950.20	210.53
950.50	210.58
950.79	210.66
951.09	210.69
951.39	210.70
951.69	210.65
951.98	210.65
952.28	210.65
952.58	210.71
952.87	210.69
953.17	210.77
953.47	210.75
953.76	210.75
954.06	210.70
954.36	210.61
954.66	210.68
954.95	210.78
955.25	210.78
955.55	210.85
955.84	210.79
956.14	210.81
956.44	210.75
956.73	210.73
957.03	210.73
957.32	210.71
957.62	210.70
957.92	210.78
958.21	210.81
958.51	211.20
958.81	211.23
959.10	211.25
959.40	211.30
959.69	211.35
959.99	211.40
960.29	211.42
960.58	211.45
960.88	211.61
961.17	211.54
961.47	211.58
961.76	211.60
962.06	211.69
962.36	211.71
962.65	211.73
962.95	211.71
963.24	211.68
963.54	211.70
963.83	211.67
964.13	211.62
964.42	211.54
964.72	211.25
965.01	211.25
965.31	211.21
965.60	211.14
965.90	211.34
966.19	211.26
966.49	211.26
966.78	211.26
967.08	211.24
967.37	211.30
967.67	211.24
967.96	211.28
968.26	211.26
968.55	211.30
968.85	211.32
969.14	211.32
969.43	211.40
969.73	211.36
970.02	211.35
970.32	211.36
970.61	211.35
970.91	211.18
971.20	211.09
971.49	211.09
971.79	211.14
972.08	210.85
972.38	210.88
972.67	210.86
972.96	210.88
973.26	210.77
973.55	210.84
973.85	210.87
974.14	210.78
974.43	210.79
974.73	210.70
975.02	210.69
975.31	210.66
975.61	210.58
975.90	210.49
976.19	210.46
976.49	210.52
976.78	210.60
977.07	210.62
977.37	210.60
977.66	210.65
977.95	210.61
978.24	210.65
978.54	210.69
978.83	210.64
979.12	210.60
979.42	210.61
979.71	210.58
980.00	210.51
980.29	210.55
980.59	210.57
980.88	210.71
981.17	210.67
981.46	210.65
981.76	210.66
982.05	210.84
982.34	210.89
982.63	210.91
982.93	210.90
983.22	210.95
983.51	211.07
983.80	211.13
984.09	211.12
984.39	211.15
984.68	211.16
984.97	211.17
985.26	211.08
985.55	211.13
985.85	211.06
986.14	211.11
986.43	211.16
986.72	211.10
987.01	211.00
987.30	210.93
987.59	210.92
987.89	210.88
988.18	210.70
988.47	210.74
988.76	210.64
989.05	210.61
989.34	210.64
989.63	210.71
989.92	210.63
990.22	210.60
990.51	210.58
990.80	210.53
991.09	210.60
991.38	210.78
991.67	210.71
991.96	210.68
992.25	210.75
992.54	210.72
992.83	210.68
993.12	210.62
993.41	210.78
993.70	210.91
993.99	211.04
994.28	211.17
994.58	211.12
994.87	211.11
995.16	211.15
995.45	211.09
995.74	210.97
996.03	211.02
996.32	211.10
996.61	211.24
996.90	211.21
997.19	211.17
997.48	211.17
997.77	211.12
998.06	211.17
998.34	211.09
998.63	211.05
998.92	211.10
999.21	211.20
999.50	211.16
999.79	211.12
1000.08	211.09
1000.37	211.09
1000.66	211.06
1000.95	211.17
1001.24	211.13
1001.53	211.23
1001.82	211.23
1002.11	211.16
1002.40	211.20
1002.68	211.20
1002.97	211.46
1003.26	211.43
1003.55	211.39
1003.84	211.50
1004.13	211.62
1004.42	211.65
1004.71	211.71
1004.99	211.73
1005.28	211.87
1005.57	211.94
1005.86	211.93
1006.15	211.98
1006.44	211.89
1006.72	211.96
1007.01	211.88
1007.30	211.86
1007.59	211.77
1007.88	211.78
1008.17	211.80
1008.45	211.76
1008.74	211.69
1009.03	211.59
1009.32	211.57
1009.60	211.62
1009.89	211.55
1010.18	211.40
1010.47	211.36
1010.76	211.38
1011.04	211.34
1011.33	211.29
1011.62	211.25
1011.91	211.19
1012.19	211.18
1012.48	211.26
1012.77	211.26
1013.05	211.39
1013.34	211.52
1013.63	211.54
1013.92	211.54
1014.20	211.51
1014.49	211.47
1014.78	211.49
1015.06	211.33
1015.35	211.34
1015.64	211.35
1015.92	211.38
1016.21	211.40
1016.50	211.50
1016.78	211.45
1017.07	211.51
1017.36	211.38
1017.64	211.26
1017.93	211.35
1018.22	211.33
1018.50	211.25
1018.79	211.24
1019.08	211.04
1019.36	211.04
1019.65	211.00
1019.93	211.08
1020.22	211.15
1020.51	211.34
1020.79	211.25
1021.08	211.70
1021.36	210.10
1021.65	211.30
1021.94	209.25
1022.22	212.60
1022.51	210.50
1022.79	212.50
1023.08	211.75
1023.36	215.25
1023.65	210.00
>>>>>End Processed Spectral Data<<<<<
