SpectraSuite Data File
++++++++++++++++++++++++++++++++++++
Date: Mon Feb 25 17:16:13 EST 2013
User: group
Dark Spectrum Present: No
Reference Spectrum Present: No
Number of Sampled Component Spectra: 1
Spectrometers: USB2E7196
Integration Time (usec): 104000 (USB2E7196)
Spectra Averaged: 20 (USB2E7196)
Boxcar Smoothing: 10 (USB2E7196)
Correct for Electrical Dark: No (USB2E7196)
Strobe/Lamp Enabled: No (USB2E7196)
Correct for Detector Non-linearity: No (USB2E7196)
Correct for Stray Light: No (USB2E7196)
Number of Pixels in Processed Spectrum: 2048
>>>>>Begin Processed Spectral Data<<<<<
339.09	0.00
339.48	199.95
339.86	199.05
340.24	201.95
340.63	201.40
341.01	209.05
341.39	206.60
341.78	207.75
342.16	209.15
342.54	208.70
342.93	198.25
343.31	208.26
343.69	208.73
344.07	209.26
344.46	209.66
344.84	210.18
345.22	210.31
345.60	210.57
345.99	210.76
346.37	210.89
346.75	211.04
347.13	211.09
347.52	211.26
347.90	211.38
348.28	211.44
348.66	211.59
349.05	211.63
349.43	211.73
349.81	211.78
350.19	211.83
350.57	211.90
350.96	211.96
351.34	212.05
351.72	212.20
352.10	212.26
352.48	212.37
352.87	212.43
353.25	212.50
353.63	212.54
354.01	212.56
354.39	212.62
354.77	212.63
355.15	212.82
355.54	212.85
355.92	212.85
356.30	212.94
356.68	213.22
357.06	213.27
357.44	213.34
357.82	213.50
358.20	213.60
358.58	213.69
358.97	213.72
359.35	213.86
359.73	213.92
360.11	213.99
360.49	214.06
360.87	214.03
361.25	214.07
361.63	214.19
362.01	214.27
362.39	214.29
362.77	214.39
363.15	214.35
363.53	214.32
363.91	214.35
364.29	214.39
364.67	214.09
365.05	214.09
365.43	214.10
365.81	214.05
366.19	214.19
366.57	214.34
366.95	214.39
367.33	214.30
367.71	214.36
368.09	214.43
368.47	214.45
368.85	214.48
369.23	214.53
369.61	214.46
369.99	214.55
370.37	214.55
370.75	214.68
371.13	214.60
371.51	214.52
371.89	214.52
372.27	214.42
372.65	214.43
373.03	214.44
373.41	214.42
373.78	214.38
374.16	214.17
374.54	213.98
374.92	213.90
375.30	213.85
375.68	213.66
376.06	213.65
376.44	213.53
376.82	213.51
377.19	213.45
377.57	213.38
377.95	213.21
378.33	213.18
378.71	212.94
379.09	212.97
379.47	212.97
379.84	212.92
380.22	212.88
380.60	212.75
380.98	212.70
381.36	212.61
381.73	212.50
382.11	212.55
382.49	212.58
382.87	212.42
383.25	212.42
383.62	212.80
384.00	212.68
384.38	212.61
384.76	212.69
385.13	212.81
385.51	212.78
385.89	212.77
386.27	212.71
386.64	212.70
387.02	212.68
387.40	212.61
387.78	212.56
388.15	212.55
388.53	212.54
388.91	212.46
389.29	212.39
389.66	212.39
390.04	212.28
390.42	212.27
390.79	212.30
391.17	212.22
391.55	211.82
391.92	211.78
392.30	211.80
392.68	211.66
393.05	211.61
393.43	211.54
393.81	211.56
394.18	211.52
394.56	211.52
394.94	211.56
395.31	211.57
395.69	211.70
396.06	211.83
396.44	211.82
396.82	211.76
397.19	212.01
397.57	211.98
397.95	212.07
398.32	211.92
398.70	212.03
399.07	212.12
399.45	212.10
399.82	212.15
400.20	212.15
400.58	212.14
400.95	211.99
401.33	212.15
401.70	212.41
402.08	212.50
402.45	212.55
402.83	212.63
403.20	212.70
403.58	212.67
403.95	212.80
404.33	213.00
404.71	213.13
405.08	213.35
405.46	213.46
405.83	213.56
406.21	213.75
406.58	213.85
406.96	213.96
407.33	214.19
407.70	214.47
408.08	215.02
408.45	215.30
408.83	215.60
409.20	215.71
409.58	215.74
409.95	216.07
410.33	216.41
410.70	216.66
411.08	217.08
411.45	217.45
411.82	217.68
412.20	218.08
412.57	218.71
412.95	218.88
413.32	219.48
413.69	220.01
414.07	220.62
414.44	221.18
414.82	221.79
415.19	222.47
415.56	223.13
415.94	223.62
416.31	224.48
416.68	225.25
417.06	226.29
417.43	227.33
417.81	228.32
418.18	229.44
418.55	230.47
418.93	231.63
419.30	232.89
419.67	234.23
420.04	235.64
420.42	237.00
420.79	238.90
421.16	240.53
421.54	242.36
421.91	244.10
422.28	245.98
422.66	248.04
423.03	250.26
423.40	252.24
423.77	254.21
424.15	256.33
424.52	258.66
424.89	261.15
425.26	263.45
425.64	265.72
426.01	268.08
426.38	270.76
426.75	273.47
427.13	276.17
427.50	279.00
427.87	281.90
428.24	284.90
428.61	287.56
428.99	290.73
429.36	293.99
429.73	297.34
430.10	300.63
430.47	304.00
430.85	307.25
431.22	310.98
431.59	315.24
431.96	318.92
432.33	323.07
432.70	327.04
433.08	331.71
433.45	336.16
433.82	340.54
434.19	345.43
434.56	350.17
434.93	354.72
435.30	359.31
435.68	364.27
436.05	369.05
436.42	373.83
436.79	378.27
437.16	383.16
437.53	388.18
437.90	393.14
438.27	397.99
438.64	403.03
439.01	407.85
439.38	411.91
439.75	415.98
440.13	420.62
440.50	424.94
440.87	428.45
441.24	432.22
441.61	436.39
441.98	439.29
442.35	442.70
442.72	446.33
443.09	449.81
443.46	451.89
443.83	453.33
444.20	454.60
444.57	456.25
444.94	456.90
445.31	457.74
445.68	458.91
446.05	459.27
446.42	458.61
446.79	457.93
447.16	457.13
447.53	456.72
447.90	454.79
448.27	452.81
448.64	450.18
449.01	448.04
449.37	444.54
449.74	441.27
450.11	437.61
450.48	433.22
450.85	428.65
451.22	424.77
451.59	421.18
451.96	417.77
452.33	413.28
452.70	409.19
453.07	404.33
453.43	399.03
453.80	394.27
454.17	389.86
454.54	385.34
454.91	380.73
455.28	376.12
455.65	371.80
456.02	368.03
456.38	364.46
456.75	360.12
457.12	356.38
457.49	352.76
457.86	349.04
458.23	346.08
458.59	342.78
458.96	339.52
459.33	336.58
459.70	333.66
460.07	331.24
460.43	328.54
460.80	325.94
461.17	323.80
461.54	321.49
461.91	319.21
462.27	317.05
462.64	315.10
463.01	313.10
463.38	311.18
463.74	308.59
464.11	306.63
464.48	305.05
464.85	303.42
465.21	302.20
465.58	300.82
465.95	298.96
466.32	297.68
466.68	296.37
467.05	294.94
467.42	293.58
467.78	292.14
468.15	290.79
468.52	289.86
468.88	288.48
469.25	287.26
469.62	286.50
469.98	285.53
470.35	284.66
470.72	283.82
471.08	282.83
471.45	282.24
471.82	281.72
472.18	280.89
472.55	280.33
472.92	279.57
473.28	278.95
473.65	278.51
474.02	278.03
474.38	277.55
474.75	277.35
475.11	277.00
475.48	276.94
475.85	276.82
476.21	276.56
476.58	276.50
476.94	276.54
477.31	276.41
477.67	276.45
478.04	276.57
478.41	276.72
478.77	277.26
479.14	277.32
479.50	277.46
479.87	277.78
480.23	278.17
480.60	278.46
480.96	278.88
481.33	279.57
481.69	280.06
482.06	280.73
482.42	281.20
482.79	281.78
483.15	282.46
483.52	283.26
483.88	284.16
484.25	284.99
484.61	285.98
484.98	286.95
485.34	288.13
485.71	289.33
486.07	290.52
486.44	291.49
486.80	293.02
487.17	294.38
487.53	296.16
487.90	297.89
488.26	299.85
488.62	301.90
488.99	303.80
489.35	305.92
489.72	308.10
490.08	310.52
490.44	313.12
490.81	315.79
491.17	318.50
491.54	321.37
491.90	324.48
492.26	327.69
492.63	331.16
492.99	334.63
493.36	338.41
493.72	342.41
494.08	346.50
494.45	350.73
494.81	355.46
495.17	360.06
495.54	364.91
495.90	369.92
496.26	374.98
496.63	380.45
496.99	386.04
497.35	392.12
497.72	398.44
498.08	404.88
498.44	411.62
498.80	418.90
499.17	426.22
499.53	433.70
499.89	441.68
500.26	449.57
500.62	457.76
500.98	466.30
501.34	475.05
501.71	484.35
502.07	493.93
502.43	503.60
502.79	513.56
503.16	523.98
503.52	534.54
503.88	545.66
504.24	556.94
504.60	568.50
504.97	580.40
505.33	592.40
505.69	605.21
506.05	618.17
506.41	631.09
506.78	644.45
507.14	658.22
507.50	672.10
507.86	686.70
508.22	701.63
508.59	716.46
508.95	731.91
509.31	747.52
509.67	763.38
510.03	779.68
510.39	796.36
510.75	813.44
511.12	830.80
511.48	848.12
511.84	866.02
512.20	883.94
512.56	902.53
512.92	921.25
513.28	939.96
513.64	958.92
514.00	978.15
514.37	997.70
514.73	1017.50
515.09	1037.38
515.45	1057.13
515.81	1077.06
516.17	1097.30
516.53	1117.67
516.89	1138.26
517.25	1159.07
517.61	1179.81
517.97	1200.46
518.33	1220.89
518.69	1241.42
519.05	1262.51
519.41	1283.61
519.77	1305.36
520.13	1326.09
520.49	1346.75
520.85	1368.11
521.21	1389.31
521.57	1410.55
521.93	1431.55
522.29	1453.13
522.65	1474.52
523.01	1495.97
523.37	1516.45
523.73	1537.70
524.09	1558.31
524.45	1579.14
524.81	1599.89
525.17	1620.95
525.53	1641.75
525.89	1662.61
526.25	1683.42
526.61	1703.05
526.97	1722.92
527.33	1742.78
527.68	1762.98
528.04	1782.81
528.40	1801.28
528.76	1820.37
529.12	1839.81
529.48	1859.41
529.84	1878.19
530.20	1896.91
530.56	1915.63
530.91	1935.42
531.27	1954.23
531.63	1972.86
531.99	1991.19
532.35	2009.14
532.71	2026.23
533.07	2043.98
533.42	2060.94
533.78	2078.26
534.14	2095.33
534.50	2111.52
534.86	2127.85
535.21	2142.87
535.57	2159.18
535.93	2175.12
536.29	2190.06
536.65	2205.09
537.00	2219.04
537.36	2232.56
537.72	2246.30
538.08	2259.34
538.44	2272.36
538.79	2285.31
539.15	2298.06
539.51	2310.66
539.87	2323.61
540.22	2335.91
540.58	2348.22
540.94	2360.20
541.29	2370.78
541.65	2381.33
542.01	2391.84
542.37	2401.86
542.72	2412.72
543.08	2421.90
543.44	2431.96
543.79	2440.65
544.15	2448.65
544.51	2457.98
544.87	2467.10
545.22	2475.05
545.58	2482.58
545.94	2489.08
546.29	2494.99
546.65	2500.82
547.01	2506.48
547.36	2511.36
547.72	2516.45
548.07	2520.07
548.43	2523.72
548.79	2527.32
549.14	2531.30
549.50	2534.84
549.86	2537.36
550.21	2539.54
550.57	2542.67
550.92	2544.00
551.28	2546.08
551.64	2548.19
551.99	2549.83
552.35	2550.69
552.70	2551.65
553.06	2552.94
553.41	2554.11
553.77	2554.97
554.13	2555.86
554.48	2556.21
554.84	2556.78
555.19	2556.78
555.55	2556.64
555.90	2555.64
556.26	2555.16
556.61	2553.89
556.97	2552.15
557.32	2551.28
557.68	2549.39
558.03	2547.02
558.39	2545.29
558.74	2544.46
559.10	2542.94
559.45	2540.53
559.81	2538.62
560.16	2535.57
560.52	2533.22
560.87	2530.60
561.23	2526.96
561.58	2524.35
561.94	2520.90
562.29	2516.82
562.64	2513.54
563.00	2510.27
563.35	2507.95
563.71	2505.02
564.06	2502.33
564.42	2499.99
564.77	2497.28
565.12	2494.97
565.48	2492.08
565.83	2488.99
566.19	2485.65
566.54	2481.31
566.89	2476.62
567.25	2472.86
567.60	2469.60
567.96	2465.40
568.31	2461.16
568.66	2457.10
569.02	2451.87
569.37	2446.57
569.72	2441.76
570.08	2436.51
570.43	2431.27
570.78	2425.71
571.14	2419.83
571.49	2413.49
571.84	2407.86
572.20	2400.51
572.55	2394.13
572.90	2387.11
573.26	2380.36
573.61	2372.75
573.96	2365.59
574.31	2358.28
574.67	2350.17
575.02	2341.79
575.37	2333.88
575.72	2325.20
576.08	2318.13
576.43	2310.11
576.78	2302.59
577.13	2295.16
577.49	2287.32
577.84	2279.78
578.19	2272.25
578.54	2265.63
578.90	2259.02
579.25	2251.07
579.60	2243.43
579.95	2235.11
580.30	2227.79
580.66	2220.56
581.01	2212.62
581.36	2204.59
581.71	2197.20
582.06	2189.59
582.42	2181.96
582.77	2173.67
583.12	2166.03
583.47	2158.55
583.82	2151.48
584.17	2144.00
584.53	2136.61
584.88	2129.28
585.23	2121.43
585.58	2113.51
585.93	2105.16
586.28	2097.54
586.63	2089.72
586.98	2082.60
587.34	2075.65
587.69	2067.86
588.04	2059.94
588.39	2052.70
588.74	2045.18
589.09	2037.81
589.44	2029.84
589.79	2023.09
590.14	2016.26
590.49	2009.09
590.84	2001.47
591.19	1994.71
591.54	1987.15
591.89	1978.29
592.25	1970.36
592.60	1962.08
592.95	1953.66
593.30	1944.93
593.65	1936.08
594.00	1928.02
594.35	1921.30
594.70	1913.06
595.05	1905.41
595.40	1897.53
595.75	1889.32
596.10	1882.10
596.45	1874.66
596.80	1868.00
597.15	1860.71
597.50	1853.19
597.85	1846.02
598.19	1838.20
598.54	1830.14
598.89	1823.26
599.24	1817.68
599.59	1810.75
599.94	1804.80
600.29	1798.65
600.64	1792.15
600.99	1784.94
601.34	1778.56
601.69	1770.50
602.04	1763.18
602.39	1756.18
602.74	1749.53
603.08	1743.53
603.43	1737.54
603.78	1730.55
604.13	1723.77
604.48	1716.75
604.83	1710.95
605.18	1705.35
605.53	1698.91
605.87	1692.24
606.22	1685.88
606.57	1678.42
606.92	1671.83
607.27	1664.56
607.62	1657.55
607.96	1651.48
608.31	1645.51
608.66	1638.28
609.01	1631.12
609.36	1624.40
609.70	1616.98
610.05	1609.32
610.40	1601.86
610.75	1594.00
611.10	1587.30
611.44	1579.01
611.79	1571.20
612.14	1562.37
612.49	1553.25
612.83	1545.50
613.18	1537.08
613.53	1528.65
613.88	1520.32
614.22	1512.13
614.57	1503.96
614.92	1496.07
615.27	1487.48
615.61	1479.36
615.96	1471.71
616.31	1464.39
616.65	1457.14
617.00	1449.95
617.35	1442.39
617.70	1434.51
618.04	1426.01
618.39	1417.26
618.74	1409.78
619.08	1401.87
619.43	1394.33
619.78	1387.14
620.12	1379.52
620.47	1372.58
620.82	1364.49
621.16	1356.62
621.51	1348.84
621.85	1341.65
622.20	1333.55
622.55	1325.76
622.89	1317.99
623.24	1310.07
623.59	1301.82
623.93	1294.07
624.28	1286.27
624.62	1278.97
624.97	1271.30
625.32	1264.40
625.66	1257.53
626.01	1250.35
626.35	1243.39
626.70	1236.44
627.04	1229.67
627.39	1222.66
627.73	1215.40
628.08	1208.95
628.43	1202.07
628.77	1195.03
629.12	1187.66
629.46	1181.53
629.81	1174.86
630.15	1168.07
630.50	1161.35
630.84	1154.52
631.19	1147.58
631.53	1141.18
631.88	1134.02
632.22	1127.25
632.57	1120.61
632.91	1113.72
633.26	1107.01
633.60	1100.39
633.95	1093.98
634.29	1087.00
634.64	1080.43
634.98	1073.59
635.32	1067.12
635.67	1061.19
636.01	1055.07
636.36	1048.67
636.70	1042.14
637.05	1036.00
637.39	1029.98
637.73	1024.12
638.08	1018.91
638.42	1013.23
638.77	1006.96
639.11	1001.34
639.45	995.31
639.80	988.93
640.14	982.78
640.49	976.79
640.83	970.75
641.17	964.54
641.52	958.59
641.86	952.43
642.20	946.60
642.55	940.20
642.89	934.00
643.23	927.76
643.58	922.11
643.92	915.86
644.26	909.83
644.61	903.91
644.95	897.82
645.29	891.54
645.64	885.42
645.98	879.62
646.32	873.86
646.66	868.13
647.01	862.63
647.35	857.10
647.69	851.04
648.04	845.28
648.38	839.37
648.72	833.67
649.06	827.90
649.41	822.24
649.75	816.70
650.09	811.27
650.43	805.86
650.78	800.03
651.12	794.53
651.46	789.18
651.80	783.78
652.14	778.20
652.49	772.56
652.83	767.11
653.17	761.20
653.51	755.40
653.85	750.04
654.20	744.59
654.54	739.02
654.88	733.82
655.22	728.41
655.56	723.10
655.90	717.85
656.25	712.60
656.59	707.38
656.93	702.29
657.27	697.07
657.61	691.62
657.95	686.76
658.29	681.87
658.64	676.96
658.98	671.69
659.32	666.62
659.66	661.95
660.00	657.02
660.34	652.36
660.68	647.51
661.02	642.63
661.36	638.03
661.70	633.63
662.05	629.19
662.39	625.15
662.73	620.97
663.07	616.73
663.41	612.52
663.75	608.41
664.09	604.09
664.43	599.65
664.77	595.91
665.11	591.66
665.45	587.64
665.79	583.63
666.13	579.86
666.47	576.08
666.81	572.11
667.15	568.19
667.49	564.82
667.83	561.49
668.17	557.97
668.51	554.51
668.85	551.03
669.19	547.80
669.53	544.06
669.87	540.52
670.21	537.01
670.55	533.66
670.89	530.45
671.23	527.42
671.57	524.30
671.91	520.86
672.25	517.70
672.58	514.49
672.92	511.19
673.26	508.23
673.60	505.30
673.94	502.28
674.28	499.42
674.62	496.46
674.96	493.53
675.30	490.55
675.64	487.62
675.97	484.74
676.31	481.78
676.65	479.12
676.99	476.68
677.33	473.86
677.67	471.09
678.01	468.15
678.34	465.39
678.68	462.74
679.02	460.06
679.36	457.40
679.70	454.75
680.04	452.17
680.37	449.45
680.71	446.73
681.05	444.35
681.39	441.75
681.73	439.09
682.06	436.56
682.40	434.35
682.74	431.94
683.08	429.61
683.42	427.10
683.75	424.66
684.09	422.01
684.43	419.70
684.77	417.29
685.10	414.99
685.44	412.53
685.78	410.22
686.12	408.16
686.45	406.08
686.79	403.94
687.13	401.97
687.46	399.83
687.80	397.77
688.14	395.43
688.48	393.43
688.81	391.31
689.15	389.25
689.49	386.96
689.82	384.84
690.16	382.50
690.50	380.42
690.83	378.39
691.17	376.20
691.51	374.17
691.84	372.36
692.18	370.39
692.52	368.69
692.85	366.94
693.19	365.15
693.52	363.19
693.86	361.30
694.20	359.40
694.53	357.65
694.87	355.80
695.21	353.97
695.54	352.10
695.88	350.32
696.21	348.55
696.55	346.96
696.88	345.33
697.22	343.82
697.56	342.33
697.89	340.73
698.23	339.27
698.56	337.83
698.90	336.37
699.23	334.90
699.57	333.36
699.90	331.81
700.24	330.22
700.58	328.85
700.91	327.53
701.25	326.31
701.58	324.88
701.92	323.56
702.25	322.35
702.59	321.02
702.92	319.78
703.26	318.39
703.59	317.09
703.93	316.11
704.26	314.84
704.60	313.53
704.93	312.22
705.26	311.04
705.60	309.82
705.93	308.42
706.27	307.30
706.60	306.28
706.94	305.31
707.27	304.08
707.61	302.97
707.94	301.88
708.27	300.55
708.61	299.34
708.94	298.29
709.28	297.25
709.61	296.26
709.94	295.25
710.28	294.34
710.61	293.35
710.95	292.08
711.28	291.35
711.61	290.39
711.95	289.59
712.28	288.62
712.61	287.73
712.95	287.09
713.28	286.32
713.61	285.30
713.95	284.29
714.28	283.56
714.61	282.60
714.95	281.65
715.28	280.75
715.61	279.98
715.95	279.18
716.28	278.33
716.61	277.47
716.95	276.56
717.28	275.75
717.61	274.99
717.94	274.16
718.28	273.25
718.61	272.55
718.94	271.87
719.27	271.14
719.61	270.45
719.94	269.68
720.27	268.82
720.60	268.13
720.94	267.50
721.27	266.85
721.60	266.30
721.93	265.72
722.27	265.25
722.60	264.70
722.93	264.03
723.26	263.49
723.59	262.92
723.93	262.46
724.26	261.90
724.59	261.36
724.92	260.94
725.25	260.50
725.59	259.97
725.92	259.43
726.25	258.97
726.58	258.43
726.91	257.86
727.24	257.45
727.57	256.98
727.91	256.41
728.24	255.93
728.57	255.45
728.90	255.02
729.23	254.45
729.56	254.17
729.89	253.75
730.22	253.26
730.55	252.76
730.89	252.32
731.22	251.90
731.55	251.37
731.88	250.90
732.21	250.27
732.54	249.74
732.87	249.22
733.20	248.74
733.53	248.40
733.86	248.08
734.19	247.66
734.52	247.40
734.85	247.32
735.18	246.86
735.51	246.55
735.84	246.17
736.17	245.85
736.50	245.24
736.83	245.30
737.16	245.02
737.49	244.71
737.82	244.25
738.15	243.95
738.48	243.64
738.81	243.26
739.14	242.96
739.47	242.67
739.80	242.26
740.13	241.95
740.46	241.45
740.79	241.10
741.12	240.64
741.45	240.25
741.78	239.70
742.11	239.54
742.44	239.11
742.77	238.82
743.10	238.52
743.43	238.25
743.75	237.53
744.08	237.62
744.41	237.23
744.74	236.96
745.07	236.60
745.40	236.40
745.73	236.36
746.06	236.05
746.39	235.78
746.71	235.53
747.04	235.25
747.37	235.06
747.70	234.80
748.03	234.60
748.36	234.30
748.68	233.94
749.01	233.55
749.34	233.35
749.67	233.09
750.00	232.91
750.33	232.91
750.65	232.72
750.98	232.02
751.31	231.91
751.64	231.66
751.97	231.57
752.29	231.32
752.62	230.84
752.95	230.61
753.28	230.33
753.60	230.15
753.93	230.05
754.26	229.80
754.59	229.47
754.91	229.20
755.24	228.95
755.57	228.83
755.90	228.66
756.22	228.45
756.55	228.20
756.88	227.87
757.20	227.48
757.53	227.19
757.86	226.98
758.19	226.74
758.51	226.58
758.84	226.24
759.17	226.03
759.49	225.78
759.82	225.77
760.15	225.64
760.47	225.48
760.80	225.18
761.13	225.01
761.45	224.81
761.78	224.75
762.11	224.67
762.43	224.49
762.76	224.27
763.08	224.21
763.41	224.02
763.74	223.89
764.06	223.76
764.39	223.62
764.71	223.46
765.04	223.33
765.37	223.15
765.69	223.01
766.02	222.84
766.34	222.81
766.67	222.54
767.00	222.50
767.32	222.54
767.65	222.57
767.97	222.51
768.30	222.46
768.62	222.31
768.95	222.13
769.27	221.98
769.60	221.93
769.92	221.66
770.25	221.46
770.57	221.28
770.90	221.05
771.22	220.94
771.55	220.88
771.87	220.77
772.20	220.68
772.52	220.87
772.85	221.25
773.17	221.11
773.50	220.95
773.82	220.76
774.15	220.50
774.47	220.13
774.80	219.98
775.12	219.90
775.45	219.75
775.77	219.73
776.09	219.70
776.42	219.57
776.74	219.60
777.07	219.64
777.39	219.62
777.72	219.54
778.04	219.51
778.36	219.40
778.69	219.35
779.01	219.31
779.33	218.98
779.66	218.45
779.98	218.40
780.31	218.36
780.63	218.40
780.95	218.31
781.28	218.31
781.60	218.20
781.92	218.15
782.25	218.08
782.57	217.92
782.89	217.83
783.22	217.80
783.54	217.74
783.86	217.70
784.19	217.51
784.51	217.58
784.83	217.42
785.16	217.40
785.48	217.28
785.80	217.25
786.12	217.24
786.45	217.15
786.77	217.13
787.09	217.08
787.42	216.88
787.74	216.89
788.06	216.84
788.38	216.77
788.71	216.70
789.03	216.76
789.35	216.79
789.67	216.74
789.99	216.68
790.32	216.56
790.64	216.46
790.96	216.84
791.28	216.69
791.61	216.59
791.93	216.49
792.25	216.42
792.57	216.63
792.89	216.50
793.21	216.55
793.54	216.41
793.86	216.36
794.18	216.34
794.50	216.15
794.82	216.20
795.14	216.26
795.47	216.25
795.79	216.15
796.11	216.04
796.43	216.00
796.75	215.93
797.07	215.95
797.39	215.86
797.71	215.54
798.04	215.56
798.36	215.62
798.68	215.69
799.00	215.65
799.32	215.42
799.64	215.44
799.96	215.40
800.28	215.46
800.60	215.38
800.92	215.41
801.24	215.39
801.56	215.35
801.89	215.25
802.21	215.27
802.53	215.21
802.85	215.23
803.17	215.38
803.49	215.40
803.81	215.32
804.13	215.33
804.45	215.24
804.77	215.21
805.09	215.23
805.41	215.10
805.73	215.13
806.05	214.97
806.37	214.89
806.69	214.83
807.01	214.78
807.33	214.79
807.65	214.65
807.97	214.86
808.28	214.76
808.60	214.71
808.92	214.60
809.24	214.77
809.56	214.71
809.88	214.51
810.20	214.41
810.52	214.42
810.84	214.42
811.16	214.32
811.48	214.22
811.80	214.31
812.12	214.28
812.43	214.28
812.75	214.28
813.07	214.22
813.39	214.25
813.71	214.16
814.03	214.11
814.35	214.16
814.67	214.03
814.98	214.02
815.30	214.05
815.62	214.04
815.94	213.74
816.26	213.72
816.58	213.65
816.89	213.67
817.21	213.54
817.53	213.47
817.85	213.55
818.17	213.55
818.48	213.37
818.80	213.34
819.12	213.25
819.44	213.17
819.76	213.11
820.07	213.05
820.39	213.04
820.71	213.10
821.03	212.99
821.34	212.88
821.66	212.86
821.98	212.87
822.30	212.78
822.61	213.02
822.93	213.02
823.25	212.98
823.57	212.93
823.88	212.99
824.20	212.96
824.52	213.02
824.83	212.98
825.15	212.89
825.47	212.91
825.79	212.98
826.10	212.98
826.42	213.02
826.74	213.05
827.05	212.97
827.37	212.94
827.69	212.96
828.00	213.01
828.32	212.98
828.64	212.96
828.95	213.14
829.27	213.01
829.58	212.98
829.90	212.98
830.22	213.02
830.53	212.99
830.85	213.03
831.17	212.84
831.48	212.83
831.80	212.86
832.11	212.80
832.43	212.74
832.75	212.72
833.06	212.86
833.38	212.69
833.69	212.67
834.01	212.68
834.32	212.61
834.64	212.53
834.96	212.50
835.27	212.45
835.59	212.27
835.90	212.22
836.22	212.16
836.53	212.17
836.85	212.09
837.16	212.45
837.48	212.42
837.79	212.61
838.11	212.67
838.42	212.63
838.74	212.68
839.05	212.66
839.37	212.67
839.68	212.48
840.00	212.55
840.31	212.62
840.63	212.58
840.94	212.61
841.26	212.57
841.57	212.60
841.88	212.62
842.20	212.60
842.51	212.57
842.83	212.59
843.14	212.83
843.46	212.90
843.77	212.67
844.08	212.66
844.40	212.54
844.71	212.48
845.03	212.47
845.34	212.43
845.65	212.38
845.97	212.40
846.28	212.47
846.60	212.47
846.91	212.44
847.22	212.37
847.54	212.45
847.85	212.55
848.16	212.58
848.48	212.55
848.79	212.73
849.10	212.74
849.42	212.81
849.73	212.51
850.04	212.42
850.36	212.30
850.67	212.38
850.98	212.36
851.30	212.37
851.61	212.34
851.92	212.39
852.23	212.50
852.55	212.53
852.86	212.50
853.17	212.50
853.49	212.59
853.80	212.72
854.11	212.65
854.42	212.64
854.74	212.52
855.05	212.51
855.36	212.31
855.67	212.31
855.99	212.26
856.30	212.70
856.61	212.71
856.92	212.64
857.23	212.62
857.55	212.60
857.86	212.58
858.17	212.66
858.48	212.57
858.79	212.46
859.11	212.46
859.42	212.45
859.73	212.45
860.04	212.39
860.35	212.27
860.66	212.23
860.98	212.19
861.29	212.22
861.60	212.25
861.91	212.30
862.22	212.23
862.53	212.15
862.84	211.75
863.16	211.83
863.47	211.82
863.78	211.80
864.09	211.87
864.40	211.89
864.71	211.89
865.02	211.97
865.33	211.93
865.64	211.83
865.95	211.79
866.27	211.96
866.58	211.97
866.89	212.06
867.20	212.06
867.51	212.08
867.82	212.11
868.13	212.17
868.44	212.20
868.75	212.31
869.06	212.30
869.37	212.31
869.68	212.17
869.99	212.22
870.30	212.16
870.61	212.16
870.92	212.12
871.23	212.11
871.54	212.08
871.85	212.19
872.16	212.24
872.47	212.22
872.78	212.08
873.09	212.10
873.40	211.95
873.71	211.98
874.02	211.93
874.33	211.80
874.64	211.72
874.95	211.70
875.26	211.58
875.56	211.65
875.87	211.58
876.18	211.62
876.49	211.94
876.80	211.93
877.11	211.81
877.42	211.84
877.73	211.82
878.04	211.80
878.35	211.84
878.66	211.86
878.96	211.86
879.27	211.87
879.58	211.80
879.89	211.86
880.20	211.94
880.51	212.01
880.82	212.13
881.12	212.16
881.43	212.11
881.74	212.09
882.05	212.05
882.36	212.13
882.67	212.18
882.97	211.88
883.28	211.82
883.59	211.84
883.90	211.86
884.21	211.94
884.51	211.95
884.82	211.79
885.13	211.75
885.44	211.77
885.74	211.69
886.05	211.71
886.36	211.70
886.67	211.55
886.98	211.68
887.28	211.69
887.59	211.71
887.90	211.70
888.20	211.68
888.51	211.73
888.82	211.65
889.13	211.68
889.43	211.91
889.74	211.94
890.05	211.99
890.35	211.95
890.66	211.80
890.97	211.73
891.28	211.79
891.58	211.82
891.89	211.80
892.20	211.77
892.50	211.75
892.81	211.83
893.12	211.90
893.42	211.68
893.73	211.69
894.04	211.60
894.34	211.68
894.65	211.70
894.95	211.61
895.26	211.61
895.57	211.74
895.87	211.44
896.18	211.53
896.48	211.50
896.79	211.50
897.10	211.53
897.40	211.58
897.71	211.64
898.01	211.57
898.32	211.55
898.63	211.54
898.93	211.53
899.24	211.53
899.54	211.43
899.85	211.44
900.15	211.42
900.46	211.50
900.76	211.58
901.07	211.51
901.38	211.56
901.68	211.59
901.99	211.43
902.29	211.38
902.60	211.35
902.90	211.31
903.21	211.29
903.51	211.33
903.82	211.40
904.12	211.37
904.43	211.43
904.73	211.40
905.03	211.46
905.34	211.78
905.64	211.70
905.95	211.72
906.25	211.73
906.56	211.70
906.86	211.68
907.17	211.60
907.47	211.68
907.77	211.65
908.08	211.63
908.38	211.60
908.69	211.65
908.99	211.68
909.30	211.66
909.60	211.66
909.90	211.64
910.21	211.55
910.51	211.42
910.81	211.37
911.12	211.51
911.42	211.46
911.73	211.13
912.03	211.10
912.33	211.19
912.64	211.18
912.94	211.16
913.24	211.08
913.55	211.02
913.85	210.97
914.15	211.03
914.46	211.03
914.76	211.05
915.06	211.00
915.37	210.99
915.67	210.99
915.97	210.94
916.27	210.95
916.58	210.97
916.88	211.06
917.18	211.09
917.49	211.24
917.79	211.24
918.09	211.29
918.39	211.40
918.70	211.33
919.00	211.32
919.30	211.38
919.60	211.37
919.91	211.31
920.21	211.30
920.51	211.20
920.81	211.27
921.12	211.33
921.42	211.44
921.72	211.43
922.02	211.49
922.32	211.60
922.63	211.56
922.93	211.70
923.23	211.69
923.53	211.66
923.83	211.44
924.13	211.43
924.44	211.47
924.74	211.57
925.04	211.65
925.34	211.69
925.64	211.70
925.94	211.68
926.24	211.86
926.55	211.83
926.85	211.91
927.15	211.85
927.45	211.81
927.75	211.70
928.05	211.74
928.35	211.67
928.65	211.68
928.95	211.62
929.26	211.52
929.56	211.59
929.86	211.63
930.16	211.66
930.46	211.68
930.76	211.60
931.06	211.39
931.36	211.35
931.66	211.35
931.96	211.32
932.26	211.33
932.56	211.27
932.86	211.32
933.16	211.30
933.46	211.25
933.76	211.22
934.06	211.32
934.36	211.40
934.66	211.45
934.96	211.50
935.26	211.64
935.56	211.64
935.86	211.61
936.16	211.55
936.46	211.45
936.76	211.43
937.06	211.39
937.36	211.45
937.66	211.50
937.96	211.46
938.26	211.40
938.56	211.43
938.86	211.37
939.16	211.44
939.46	211.46
939.76	211.53
940.06	211.53
940.35	211.48
940.65	211.40
940.95	211.38
941.25	211.23
941.55	211.11
941.85	211.14
942.15	211.20
942.45	211.33
942.75	211.35
943.04	211.44
943.34	211.52
943.64	211.52
943.94	211.40
944.24	211.41
944.54	211.42
944.84	211.41
945.13	211.43
945.43	211.38
945.73	211.39
946.03	211.30
946.33	211.28
946.62	211.14
946.92	211.05
947.22	211.10
947.52	211.10
947.82	211.15
948.11	211.07
948.41	210.98
948.71	210.86
949.01	210.86
949.31	210.79
949.60	210.74
949.90	210.77
950.20	210.77
950.50	210.77
950.79	210.76
951.09	210.81
951.39	210.82
951.69	210.81
951.98	210.90
952.28	210.89
952.58	210.92
952.87	211.00
953.17	211.06
953.47	211.02
953.76	211.09
954.06	211.03
954.36	211.00
954.66	210.97
954.95	211.03
955.25	211.01
955.55	211.02
955.84	211.00
956.14	211.02
956.44	211.01
956.73	211.00
957.03	211.08
957.32	211.04
957.62	210.97
957.92	211.05
958.21	210.99
958.51	211.46
958.81	211.48
959.10	211.58
959.40	211.60
959.69	211.65
959.99	211.63
960.29	211.72
960.58	211.72
960.88	211.86
961.17	211.90
961.47	211.99
961.76	211.99
962.06	212.05
962.36	212.05
962.65	212.16
962.95	212.19
963.24	212.10
963.54	212.10
963.83	212.20
964.13	212.15
964.42	212.01
964.72	211.71
965.01	211.68
965.31	211.66
965.60	211.63
965.90	211.84
966.19	211.84
966.49	211.79
966.78	211.78
967.08	211.73
967.37	211.67
967.67	211.59
967.96	211.59
968.26	211.63
968.55	211.55
968.85	211.48
969.14	211.43
969.43	211.40
969.73	211.35
970.02	211.27
970.32	211.21
970.61	211.28
970.91	211.18
971.20	211.16
971.49	211.10
971.79	211.11
972.08	210.82
972.38	210.85
972.67	210.88
972.96	210.95
973.26	210.90
973.55	211.03
973.85	211.00
974.14	211.02
974.43	210.96
974.73	211.01
975.02	210.99
975.31	211.01
975.61	211.04
975.90	211.01
976.19	211.06
976.49	211.18
976.78	211.21
977.07	211.17
977.37	211.17
977.66	211.21
977.95	211.15
978.24	211.18
978.54	211.23
978.83	211.15
979.12	211.12
979.42	211.15
979.71	211.06
980.00	211.07
980.29	211.09
980.59	211.02
980.88	211.08
981.17	211.04
981.46	211.00
981.76	211.01
982.05	211.09
982.34	210.99
982.63	210.88
982.93	210.83
983.22	210.94
983.51	210.95
983.80	210.99
984.09	211.03
984.39	210.98
984.68	210.86
984.97	210.92
985.26	210.88
985.55	210.92
985.85	210.86
986.14	210.91
986.43	210.98
986.72	211.00
987.01	210.90
987.30	210.94
987.59	210.94
987.89	210.94
988.18	210.92
988.47	210.92
988.76	210.93
989.05	210.88
989.34	210.79
989.63	210.92
989.92	210.87
990.22	210.85
990.51	210.90
990.80	211.03
991.09	211.06
991.38	211.09
991.67	211.00
991.96	210.96
992.25	210.98
992.54	210.93
992.83	210.95
993.12	210.92
993.41	211.02
993.70	211.20
993.99	211.31
994.28	211.40
994.58	211.50
994.87	211.51
995.16	211.55
995.45	211.52
995.74	211.42
996.03	211.48
996.32	211.53
996.61	211.67
996.90	211.63
997.19	211.65
997.48	211.71
997.77	211.66
998.06	211.73
998.34	211.71
998.63	211.66
998.92	211.63
999.21	211.72
999.50	211.62
999.79	211.39
1000.08	211.28
1000.37	211.30
1000.66	211.25
1000.95	211.27
1001.24	211.29
1001.53	211.40
1001.82	211.30
1002.11	211.17
1002.40	211.23
1002.68	211.22
1002.97	211.42
1003.26	211.25
1003.55	211.14
1003.84	211.15
1004.13	211.25
1004.42	211.25
1004.71	211.23
1004.99	211.20
1005.28	211.30
1005.57	211.28
1005.86	211.36
1006.15	211.43
1006.44	211.30
1006.72	211.32
1007.01	211.34
1007.30	211.41
1007.59	211.35
1007.88	211.37
1008.17	211.41
1008.45	211.29
1008.74	211.11
1009.03	210.91
1009.32	210.98
1009.60	211.01
1009.89	211.04
1010.18	210.86
1010.47	210.85
1010.76	210.88
1011.04	210.86
1011.33	211.20
1011.62	211.22
1011.91	211.21
1012.19	211.17
1012.48	211.20
1012.77	211.27
1013.05	211.37
1013.34	211.30
1013.63	211.21
1013.92	211.28
1014.20	211.32
1014.49	211.34
1014.78	211.46
1015.06	211.39
1015.35	211.40
1015.64	211.47
1015.92	211.50
1016.21	211.54
1016.50	211.50
1016.78	211.56
1017.07	211.68
1017.36	211.21
1017.64	211.19
1017.93	211.21
1018.22	211.13
1018.50	211.12
1018.79	210.99
1019.08	210.84
1019.36	210.91
1019.65	210.94
1019.93	210.94
1020.22	210.91
1020.51	211.15
1020.79	211.06
1021.08	209.15
1021.36	210.40
1021.65	209.65
1021.94	210.55
1022.22	212.15
1022.51	210.15
1022.79	211.45
1023.08	210.45
1023.36	216.30
1023.65	210.50
>>>>>End Processed Spectral Data<<<<<
