SpectraSuite Data File
++++++++++++++++++++++++++++++++++++
Date: Mon Feb 25 17:02:48 EST 2013
User: group
Dark Spectrum Present: No
Reference Spectrum Present: No
Number of Sampled Component Spectra: 1
Spectrometers: USB2E7196
Integration Time (usec): 104000 (USB2E7196)
Spectra Averaged: 20 (USB2E7196)
Boxcar Smoothing: 10 (USB2E7196)
Correct for Electrical Dark: No (USB2E7196)
Strobe/Lamp Enabled: No (USB2E7196)
Correct for Detector Non-linearity: No (USB2E7196)
Correct for Stray Light: No (USB2E7196)
Number of Pixels in Processed Spectrum: 2048
>>>>>Begin Processed Spectral Data<<<<<
339.09	0.00
339.48	198.05
339.86	199.45
340.24	201.35
340.63	201.75
341.01	208.80
341.39	206.10
341.78	207.90
342.16	210.15
342.54	208.80
342.93	198.32
343.31	208.30
343.69	208.88
344.07	209.39
344.46	209.88
344.84	210.31
345.22	210.36
345.60	210.60
345.99	210.73
346.37	210.80
346.75	210.88
347.13	210.91
347.52	210.94
347.90	211.10
348.28	211.07
348.66	211.16
349.05	211.14
349.43	211.18
349.81	211.22
350.19	211.26
350.57	211.33
350.96	211.41
351.34	211.54
351.72	211.60
352.10	211.60
352.48	211.60
352.87	211.62
353.25	211.70
353.63	211.76
354.01	211.79
354.39	211.83
354.77	211.88
355.15	212.11
355.54	212.12
355.92	212.00
356.30	212.14
356.68	212.35
357.06	212.34
357.44	212.29
357.82	212.25
358.20	212.35
358.58	212.33
358.97	212.38
359.35	212.47
359.73	212.56
360.11	212.65
360.49	212.69
360.87	212.75
361.25	212.80
361.63	212.92
362.01	213.03
362.39	212.99
362.77	213.07
363.15	212.97
363.53	213.08
363.91	213.14
364.29	213.08
364.67	212.80
365.05	212.90
365.43	212.94
365.81	213.10
366.19	213.25
366.57	213.31
366.95	213.25
367.33	213.16
367.71	213.17
368.09	213.23
368.47	213.22
368.85	213.24
369.23	213.35
369.61	213.18
369.99	213.24
370.37	213.31
370.75	213.45
371.13	213.38
371.51	213.18
371.89	213.17
372.27	213.18
372.65	213.12
373.03	213.01
373.41	212.98
373.78	212.85
374.16	212.61
374.54	212.53
374.92	212.47
375.30	212.40
375.68	212.20
376.06	212.15
376.44	212.04
376.82	211.90
377.19	211.80
377.57	211.78
377.95	211.55
378.33	211.42
378.71	211.10
379.09	211.17
379.47	211.15
379.84	211.05
380.22	211.00
380.60	210.99
380.98	210.95
381.36	210.85
381.73	210.78
382.11	210.80
382.49	210.71
382.87	210.66
383.25	210.57
383.62	210.99
384.00	210.97
384.38	211.00
384.76	211.07
385.13	211.08
385.51	211.08
385.89	211.04
386.27	211.04
386.64	211.12
387.02	211.00
387.40	210.94
387.78	210.89
388.15	210.85
388.53	210.79
388.91	210.68
389.29	210.65
389.66	210.65
390.04	210.59
390.42	210.68
390.79	210.73
391.17	210.79
391.55	210.43
391.92	210.37
392.30	210.40
392.68	210.30
393.05	210.31
393.43	210.31
393.81	210.35
394.18	210.25
394.56	210.21
394.94	210.30
395.31	210.31
395.69	210.44
396.06	210.46
396.44	210.46
396.82	210.52
397.19	210.80
397.57	210.83
397.95	210.88
398.32	210.85
398.70	210.84
399.07	210.98
399.45	210.95
399.82	210.95
400.20	210.92
400.58	210.97
400.95	210.91
401.33	210.97
401.70	211.27
402.08	211.39
402.45	211.46
402.83	211.62
403.20	211.74
403.58	211.80
403.95	211.96
404.33	212.18
404.71	212.31
405.08	212.59
405.46	212.67
405.83	212.79
406.21	212.95
406.58	213.11
406.96	213.20
407.33	213.42
407.70	213.69
408.08	214.14
408.45	214.44
408.83	214.74
409.20	214.96
409.58	215.04
409.95	215.49
410.33	215.89
410.70	216.10
411.08	216.57
411.45	217.04
411.82	217.38
412.20	217.83
412.57	218.49
412.95	218.65
413.32	219.35
413.69	220.02
414.07	220.66
414.44	221.41
414.82	222.21
415.19	223.22
415.56	224.05
415.94	224.88
416.31	225.89
416.68	226.94
417.06	228.19
417.43	229.45
417.81	230.78
418.18	232.18
418.55	233.68
418.93	235.19
419.30	236.80
419.67	238.60
420.04	240.38
420.42	242.13
420.79	244.55
421.16	246.78
421.54	249.14
421.91	251.52
422.28	253.91
422.66	256.47
423.03	259.01
423.40	261.70
423.77	264.51
424.15	267.40
424.52	270.46
424.89	273.74
425.26	276.79
425.64	279.72
426.01	282.98
426.38	286.50
426.75	290.12
427.13	293.78
427.50	297.67
427.87	301.68
428.24	305.80
428.61	309.53
428.99	313.85
429.36	318.38
429.73	322.89
430.10	327.54
430.47	332.25
430.85	336.98
431.22	342.18
431.59	347.85
431.96	353.00
432.33	358.72
432.70	364.32
433.08	370.96
433.45	377.35
433.82	383.62
434.19	390.53
434.56	397.43
434.93	404.15
435.30	410.65
435.68	417.95
436.05	425.13
436.42	432.30
436.79	438.96
437.16	446.12
437.53	453.74
437.90	461.28
438.27	468.86
438.64	476.54
439.01	483.71
439.38	490.02
439.75	496.50
440.13	503.70
440.50	510.49
440.87	516.20
441.24	521.98
441.61	528.40
441.98	533.18
442.35	538.70
442.72	544.22
443.09	549.75
443.46	553.25
443.83	555.81
444.20	558.04
444.57	561.00
444.94	562.71
445.31	564.50
445.68	566.51
446.05	567.30
446.42	567.18
446.79	566.86
447.16	566.41
447.53	566.28
447.90	563.93
448.27	561.66
448.64	558.22
449.01	555.96
449.37	551.47
449.74	547.15
450.11	542.07
450.48	536.23
450.85	530.26
451.22	525.15
451.59	520.42
451.96	515.99
452.33	509.54
452.70	503.76
453.07	496.78
453.43	489.39
453.80	482.77
454.17	476.29
454.54	470.13
454.91	463.35
455.28	456.77
455.65	450.78
456.02	445.02
456.38	439.98
456.75	433.46
457.12	428.09
457.49	422.82
457.86	417.48
458.23	413.12
458.59	408.28
458.96	403.47
459.33	398.96
459.70	394.35
460.07	390.97
460.43	387.05
460.80	383.38
461.17	380.14
461.54	376.60
461.91	373.26
462.27	369.84
462.64	367.05
463.01	363.92
463.38	360.93
463.74	357.57
464.11	354.77
464.48	352.44
464.85	349.84
465.21	347.93
465.58	345.73
465.95	343.14
466.32	340.94
466.68	338.80
467.05	336.65
467.42	334.60
467.78	332.32
468.15	330.18
468.52	328.59
468.88	326.44
469.25	324.60
469.62	323.17
469.98	321.58
470.35	320.11
470.72	318.63
471.08	317.04
471.45	315.71
471.82	314.40
472.18	312.93
472.55	311.95
472.92	310.63
473.28	309.52
473.65	308.36
474.02	307.33
474.38	306.39
474.75	305.56
475.11	304.75
475.48	304.01
475.85	303.36
476.21	302.67
476.58	302.23
476.94	301.78
477.31	301.30
477.67	300.82
478.04	300.30
478.41	300.06
478.77	300.05
479.14	299.65
479.50	299.39
479.87	299.28
480.23	299.12
480.60	298.91
480.96	298.78
481.33	298.99
481.69	298.98
482.06	298.95
482.42	299.02
482.79	299.01
483.15	299.23
483.52	299.54
483.88	299.73
484.25	299.90
484.61	300.09
484.98	300.17
485.34	300.63
485.71	301.17
486.07	301.55
486.44	301.77
486.80	302.35
487.17	302.95
487.53	303.68
487.90	304.42
488.26	305.36
488.62	306.26
488.99	306.95
489.35	307.87
489.72	308.83
490.08	309.92
490.44	310.86
490.81	311.87
491.17	312.81
491.54	313.98
491.90	315.11
492.26	316.38
492.63	317.74
492.99	318.88
493.36	320.20
493.72	321.53
494.08	322.95
494.45	324.44
494.81	326.02
495.17	327.44
495.54	328.97
495.90	330.40
496.26	331.88
496.63	333.53
496.99	335.06
497.35	336.61
497.72	338.23
498.08	339.91
498.44	341.64
498.80	343.38
499.17	345.06
499.53	346.82
499.89	348.58
500.26	350.32
500.62	352.07
500.98	353.88
501.34	355.56
501.71	357.28
502.07	358.91
502.43	360.38
502.79	361.93
503.16	363.47
503.52	364.92
503.88	366.38
504.24	367.76
504.60	369.23
504.97	370.74
505.33	371.89
505.69	373.49
506.05	374.82
506.41	376.15
506.78	377.37
507.14	378.43
507.50	379.51
507.86	380.52
508.22	381.52
508.59	382.32
508.95	383.22
509.31	384.12
509.67	384.85
510.03	385.63
510.39	386.36
510.75	386.91
511.12	387.63
511.48	388.19
511.84	388.70
512.20	389.21
512.56	389.60
512.92	390.13
513.28	390.34
513.64	390.58
514.00	390.79
514.37	390.98
514.73	391.11
515.09	391.25
515.45	391.25
515.81	391.20
516.17	391.17
516.53	391.06
516.89	390.75
517.25	390.67
517.61	390.62
517.97	390.30
518.33	390.06
518.69	389.88
519.05	389.74
519.41	389.54
519.77	389.50
520.13	389.25
520.49	388.94
520.85	388.66
521.21	388.60
521.57	388.46
521.93	388.18
522.29	388.20
522.65	388.05
523.01	387.96
523.37	387.98
523.73	388.00
524.09	388.04
524.45	388.16
524.81	388.20
525.17	388.20
525.53	388.58
525.89	388.82
526.25	389.02
526.61	389.14
526.97	389.38
527.33	389.62
527.68	390.37
528.04	390.91
528.40	391.31
528.76	391.78
529.12	392.22
529.48	392.95
529.84	393.51
530.20	394.26
530.56	395.14
530.91	396.02
531.27	396.85
531.63	397.75
531.99	398.74
532.35	399.82
532.71	400.99
533.07	402.03
533.42	403.74
533.78	405.02
534.14	406.44
534.50	407.78
534.86	409.30
535.21	410.39
535.57	411.87
535.93	413.48
536.29	415.21
536.65	417.04
537.00	418.54
537.36	420.24
537.72	421.87
538.08	423.67
538.44	425.49
538.79	427.38
539.15	429.46
539.51	431.43
539.87	433.45
540.22	435.68
540.58	437.85
540.94	439.63
541.29	441.84
541.65	444.01
542.01	446.40
542.37	448.72
542.72	451.20
543.08	453.62
543.44	456.13
543.79	458.26
544.15	460.73
544.51	463.56
544.87	466.25
545.22	468.89
545.58	471.53
545.94	474.18
546.29	476.83
546.65	479.31
547.01	481.99
547.36	484.79
547.72	487.25
548.07	489.98
548.43	492.48
548.79	495.01
549.14	497.65
549.50	500.31
549.86	502.86
550.21	505.54
550.57	508.31
550.92	510.97
551.28	513.81
551.64	516.38
551.99	518.95
552.35	521.48
552.70	524.09
553.06	526.84
553.41	529.35
553.77	532.13
554.13	534.90
554.48	537.70
554.84	540.39
555.19	543.01
555.55	545.78
555.90	548.41
556.26	551.00
556.61	553.57
556.97	556.02
557.32	558.57
557.68	560.94
558.03	563.21
558.39	565.53
558.74	567.98
559.10	570.45
559.45	572.86
559.81	575.47
560.16	577.73
560.52	579.97
560.87	582.51
561.23	584.67
561.58	587.03
561.94	589.02
562.29	591.08
562.64	593.21
563.00	595.16
563.35	597.44
563.71	599.72
564.06	601.98
564.42	604.16
564.77	606.20
565.12	608.36
565.48	610.76
565.83	612.84
566.19	614.90
566.54	616.57
566.89	618.52
567.25	620.57
567.60	622.68
567.96	624.64
568.31	626.41
568.66	628.38
569.02	629.88
569.37	631.27
569.72	632.89
570.08	634.59
570.43	635.94
570.78	637.28
571.14	638.40
571.49	639.39
571.84	640.60
572.20	641.64
572.55	642.68
572.90	643.22
573.26	644.06
573.61	644.62
573.96	645.54
574.31	646.04
574.67	646.22
575.02	646.41
575.37	646.51
575.72	646.67
576.08	646.74
576.43	646.87
576.78	647.32
577.13	647.63
577.49	647.78
577.84	648.02
578.19	648.26
578.54	648.75
578.90	649.23
579.25	649.28
579.60	649.23
579.95	649.20
580.30	649.47
580.66	649.67
581.01	649.89
581.36	649.83
581.71	649.81
582.06	649.92
582.42	649.92
582.77	650.01
583.12	649.90
583.47	649.99
583.82	650.14
584.17	650.25
584.53	650.21
584.88	650.04
585.23	649.91
585.58	649.47
585.93	648.99
586.28	648.76
586.63	648.65
586.98	648.68
587.34	648.64
587.69	648.36
588.04	647.97
588.39	647.63
588.74	647.23
589.09	647.04
589.44	646.48
589.79	646.33
590.14	645.91
590.49	645.32
590.84	644.88
591.19	644.49
591.54	643.81
591.89	642.91
592.25	642.51
592.60	641.70
592.95	641.12
593.30	640.24
593.65	639.23
594.00	638.13
594.35	638.10
594.70	637.08
595.05	636.24
595.40	635.32
595.75	634.29
596.10	633.51
596.45	632.66
596.80	632.04
597.15	631.13
597.50	630.04
597.85	629.50
598.19	628.43
598.54	627.41
598.89	626.49
599.24	625.95
599.59	624.90
599.94	624.29
600.29	623.33
600.64	622.44
600.99	621.58
601.34	620.90
601.69	619.05
602.04	617.95
602.39	616.88
602.74	616.03
603.08	615.18
603.43	614.57
603.78	613.57
604.13	612.54
604.48	611.57
604.83	610.97
605.18	610.07
605.53	609.14
605.87	608.17
606.22	607.31
606.57	606.11
606.92	605.02
607.27	603.83
607.62	602.91
607.96	602.13
608.31	601.15
608.66	600.18
609.01	599.01
609.36	597.90
609.70	596.75
610.05	595.47
610.40	594.23
610.75	592.59
611.10	591.52
611.44	589.85
611.79	588.32
612.14	586.82
612.49	585.18
612.83	583.66
613.18	582.01
613.53	580.51
613.88	578.90
614.22	577.46
614.57	575.96
614.92	574.30
615.27	572.64
615.61	571.05
615.96	569.47
616.31	568.00
616.65	566.81
617.00	565.29
617.35	563.63
617.70	561.95
618.04	560.21
618.39	558.11
618.74	556.70
619.08	555.20
619.43	553.49
619.78	551.86
620.12	550.17
620.47	548.57
620.82	546.67
621.16	544.92
621.51	543.43
621.85	541.68
622.20	540.05
622.55	538.33
622.89	536.48
623.24	534.65
623.59	532.74
623.93	530.75
624.28	529.19
624.62	527.93
624.97	526.49
625.32	524.87
625.66	523.25
626.01	521.58
626.35	519.93
626.70	518.29
627.04	516.85
627.39	515.18
627.73	513.76
628.08	512.20
628.43	510.43
628.77	508.46
629.12	506.83
629.46	505.33
629.81	503.64
630.15	502.12
630.50	500.50
630.84	498.93
631.19	497.34
631.53	495.53
631.88	493.49
632.22	491.50
632.57	490.14
632.91	488.56
633.26	486.93
633.60	485.12
633.95	483.57
634.29	481.75
634.64	480.28
634.98	478.35
635.32	476.91
635.67	475.56
636.01	473.97
636.36	472.24
636.70	470.72
637.05	469.21
637.39	467.63
637.73	466.10
638.08	464.90
638.42	463.51
638.77	462.12
639.11	460.57
639.45	459.19
639.80	457.42
640.14	455.93
640.49	454.32
640.83	452.80
641.17	451.21
641.52	449.50
641.86	447.82
642.20	446.55
642.55	444.78
642.89	443.11
643.23	441.55
643.58	440.30
643.92	438.42
644.26	436.72
644.61	435.28
644.95	433.61
645.29	431.74
645.64	430.12
645.98	428.51
646.32	427.00
646.66	425.33
647.01	423.80
647.35	422.30
647.69	420.75
648.04	419.29
648.38	417.68
648.72	416.28
649.06	414.73
649.41	412.98
649.75	411.52
650.09	410.12
650.43	408.57
650.78	406.75
651.12	405.30
651.46	403.84
651.80	402.22
652.14	400.75
652.49	399.36
652.83	397.80
653.17	396.18
653.51	394.61
653.85	393.24
654.20	391.77
654.54	390.13
654.88	388.56
655.22	387.12
655.56	385.57
655.90	383.97
656.25	382.55
656.59	381.16
656.93	379.68
657.27	378.30
657.61	376.72
657.95	375.42
658.29	374.03
658.64	372.86
658.98	371.40
659.32	369.90
659.66	368.51
660.00	367.12
660.34	365.64
660.68	364.24
661.02	362.77
661.36	361.43
661.70	360.17
662.05	358.94
662.39	357.67
662.73	356.57
663.07	355.55
663.41	354.25
663.75	352.81
664.09	351.56
664.43	350.09
664.77	348.98
665.11	347.74
665.45	346.45
665.79	345.10
666.13	343.93
666.47	342.81
666.81	341.65
667.15	340.35
667.49	339.32
667.83	338.42
668.17	337.36
668.51	336.21
668.85	335.11
669.19	334.18
669.53	332.91
669.87	331.70
670.21	330.45
670.55	329.38
670.89	328.55
671.23	327.59
671.57	326.59
671.91	325.46
672.25	324.46
672.58	323.54
672.92	322.54
673.26	321.57
673.60	320.64
673.94	319.54
674.28	318.64
674.62	317.76
674.96	316.69
675.30	315.77
675.64	314.93
675.97	313.94
676.31	312.96
676.65	312.04
676.99	311.31
677.33	310.40
677.67	309.54
678.01	308.51
678.34	307.59
678.68	306.77
679.02	306.00
679.36	305.13
679.70	304.18
680.04	303.25
680.37	302.28
680.71	301.36
681.05	300.63
681.39	299.80
681.73	298.92
682.06	298.06
682.40	297.22
682.74	296.39
683.08	295.77
683.42	294.85
683.75	294.17
684.09	293.24
684.43	292.53
684.77	291.81
685.10	291.07
685.44	290.28
685.78	289.55
686.12	288.85
686.45	288.09
686.79	287.50
687.13	286.86
687.46	286.24
687.80	285.70
688.14	284.84
688.48	284.24
688.81	283.49
689.15	282.84
689.49	282.07
689.82	281.39
690.16	280.52
690.50	279.87
690.83	279.12
691.17	278.40
691.51	277.70
691.84	276.98
692.18	276.37
692.52	275.71
692.85	275.13
693.19	274.57
693.52	273.87
693.86	273.03
694.20	272.39
694.53	271.71
694.87	270.91
695.21	270.39
695.54	269.75
695.88	269.11
696.21	268.44
696.55	267.89
696.88	267.24
697.22	266.65
697.56	266.17
697.89	265.54
698.23	265.00
698.56	264.41
698.90	263.95
699.23	263.35
699.57	262.84
699.90	262.22
700.24	261.57
700.58	261.07
700.91	260.65
701.25	260.39
701.58	260.05
701.92	259.59
702.25	259.03
702.59	258.45
702.92	257.95
703.26	257.51
703.59	257.03
703.93	256.88
704.26	256.36
704.60	255.90
704.93	255.55
705.26	255.06
705.60	254.65
705.93	254.04
706.27	253.69
706.60	253.40
706.94	253.06
707.27	252.61
707.61	252.16
707.94	251.74
708.27	251.06
708.61	250.54
708.94	250.13
709.28	249.80
709.61	249.37
709.94	249.05
710.28	248.66
710.61	248.25
710.95	247.48
711.28	247.45
711.61	247.03
711.95	246.71
712.28	246.31
712.61	245.92
712.95	245.80
713.28	245.52
713.61	245.01
713.95	244.61
714.28	244.29
714.61	243.90
714.95	243.51
715.28	243.12
715.61	242.72
715.95	242.42
716.28	242.04
716.61	241.74
716.95	241.31
717.28	240.98
717.61	240.65
717.94	240.42
718.28	239.85
718.61	239.52
718.94	239.16
719.27	238.95
719.61	238.66
719.94	238.29
720.27	237.81
720.60	237.55
720.94	237.21
721.27	236.89
721.60	236.76
721.93	236.53
722.27	236.38
722.60	236.19
722.93	235.89
723.26	235.69
723.59	235.37
723.93	235.22
724.26	234.97
724.59	234.76
724.92	234.60
725.25	234.45
725.59	234.28
725.92	234.08
726.25	233.82
726.58	233.66
726.91	233.45
727.24	233.33
727.57	233.08
727.91	232.83
728.24	232.67
728.57	232.47
728.90	232.35
729.23	232.09
729.56	232.05
729.89	231.84
730.22	231.58
730.55	231.44
730.89	231.22
731.22	231.05
731.55	230.87
731.88	230.62
732.21	230.38
732.54	230.08
732.87	229.82
733.20	229.67
733.53	229.49
733.86	229.35
734.19	229.11
734.52	229.03
734.85	229.15
735.18	228.96
735.51	228.90
735.84	228.71
736.17	228.60
736.50	228.26
736.83	228.59
737.16	228.41
737.49	228.30
737.82	228.14
738.15	228.09
738.48	227.95
738.81	227.77
739.14	227.61
739.47	227.46
739.80	227.29
740.13	227.17
740.46	226.96
740.79	226.71
741.12	226.49
741.45	226.28
741.78	225.89
742.11	225.83
742.44	225.53
742.77	225.45
743.10	225.22
743.43	225.06
743.75	224.47
744.08	224.90
744.41	224.78
744.74	224.65
745.07	224.40
745.40	224.30
745.73	224.37
746.06	224.24
746.39	224.18
746.71	224.11
747.04	223.94
747.37	223.80
747.70	223.75
748.03	223.68
748.36	223.60
748.68	223.47
749.01	223.18
749.34	223.03
749.67	222.89
750.00	222.87
750.33	223.02
750.65	222.92
750.98	222.24
751.31	222.03
751.64	221.85
751.97	221.92
752.29	221.79
752.62	221.45
752.95	221.31
753.28	221.05
753.60	220.89
753.93	220.92
754.26	220.81
754.59	220.64
754.91	220.52
755.24	220.29
755.57	220.18
755.90	220.19
756.22	220.07
756.55	219.88
756.88	219.68
757.20	219.34
757.53	219.22
757.86	219.11
758.19	219.08
758.51	218.96
758.84	218.69
759.17	218.49
759.49	218.44
759.82	218.53
760.15	218.54
760.47	218.46
760.80	218.24
761.13	218.23
761.45	218.14
761.78	218.05
762.11	218.06
762.43	218.03
762.76	217.94
763.08	217.92
763.41	217.83
763.74	217.73
764.06	217.65
764.39	217.55
764.71	217.52
765.04	217.35
765.37	217.29
765.69	217.21
766.02	217.18
766.34	217.12
766.67	216.93
767.00	216.95
767.32	217.04
767.65	217.14
767.97	216.98
768.30	216.95
768.62	216.89
768.95	216.77
769.27	216.70
769.60	216.68
769.92	216.59
770.25	216.52
770.57	216.46
770.90	216.39
771.22	216.32
771.55	216.30
771.87	216.29
772.20	216.21
772.52	216.39
772.85	216.80
773.17	216.71
773.50	216.64
773.82	216.51
774.15	216.30
774.47	216.04
774.80	215.97
775.12	215.84
775.45	215.81
775.77	215.80
776.09	215.82
776.42	215.71
776.74	215.73
777.07	215.66
777.39	215.66
777.72	215.64
778.04	215.67
778.36	215.65
778.69	215.67
779.01	215.72
779.33	215.46
779.66	215.05
779.98	214.95
780.31	214.95
780.63	215.09
780.95	215.15
781.28	215.15
781.60	215.09
781.92	215.05
782.25	214.98
782.57	214.90
782.89	214.75
783.22	214.75
783.54	214.75
783.86	214.80
784.19	214.69
784.51	214.81
784.83	214.69
785.16	214.68
785.48	214.68
785.80	214.63
786.12	214.64
786.45	214.63
786.77	214.75
787.09	214.74
787.42	214.60
787.74	214.59
788.06	214.58
788.38	214.60
788.71	214.54
789.03	214.60
789.35	214.62
789.67	214.58
789.99	214.55
790.32	214.41
790.64	214.35
790.96	214.65
791.28	214.45
791.61	214.41
791.93	214.38
792.25	214.27
792.57	214.46
792.89	214.35
793.21	214.22
793.54	214.10
793.86	213.99
794.18	213.94
794.50	213.84
794.82	213.79
795.14	213.79
795.47	213.87
795.79	213.80
796.11	213.78
796.43	213.73
796.75	213.71
797.07	213.70
797.39	213.71
797.71	213.49
798.04	213.44
798.36	213.47
798.68	213.32
799.00	213.38
799.32	213.20
799.64	213.21
799.96	213.22
800.28	213.24
800.60	213.23
800.92	213.29
801.24	213.20
801.56	213.26
801.89	213.22
802.21	213.19
802.53	213.15
802.85	213.16
803.17	213.40
803.49	213.33
803.81	213.27
804.13	213.28
804.45	213.14
804.77	213.20
805.09	213.17
805.41	213.22
805.73	213.11
806.05	213.02
806.37	213.01
806.69	212.96
807.01	212.96
807.33	212.94
807.65	212.78
807.97	213.06
808.28	212.98
808.60	212.93
808.92	212.87
809.24	213.08
809.56	212.97
809.88	212.83
810.20	212.80
810.52	212.90
810.84	212.77
811.16	212.74
811.48	212.70
811.80	212.82
812.12	212.76
812.43	212.87
812.75	212.84
813.07	212.78
813.39	212.88
813.71	212.75
814.03	212.68
814.35	212.68
814.67	212.41
814.98	212.38
815.30	212.41
815.62	212.38
815.94	212.17
816.26	212.25
816.58	212.13
816.89	212.12
817.21	212.00
817.53	212.05
817.85	212.05
818.17	212.00
818.48	211.78
818.80	211.87
819.12	211.78
819.44	211.77
819.76	211.75
820.07	211.66
820.39	211.68
820.71	211.76
821.03	211.75
821.34	211.78
821.66	211.82
821.98	211.81
822.30	211.81
822.61	211.95
822.93	211.90
823.25	211.91
823.57	211.87
823.88	211.99
824.20	211.97
824.52	211.99
824.83	212.04
825.15	212.05
825.47	212.00
825.79	211.99
826.10	211.97
826.42	211.96
826.74	212.05
827.05	212.05
827.37	212.05
827.69	212.06
828.00	212.01
828.32	211.97
828.64	211.97
828.95	212.17
829.27	212.02
829.58	211.94
829.90	211.96
830.22	212.04
830.53	211.89
830.85	211.85
831.17	211.78
831.48	211.76
831.80	211.77
832.11	211.70
832.43	211.63
832.75	211.55
833.06	211.74
833.38	211.59
833.69	211.59
834.01	211.57
834.32	211.53
834.64	211.51
834.96	211.53
835.27	211.52
835.59	211.38
835.90	211.35
836.22	211.45
836.53	211.39
836.85	211.40
837.16	211.74
837.48	211.76
837.79	211.90
838.11	211.90
838.42	211.83
838.74	211.86
839.05	211.81
839.37	211.87
839.68	211.65
840.00	211.66
840.31	211.74
840.63	211.77
840.94	211.67
841.26	211.55
841.57	211.55
841.88	211.50
842.20	211.48
842.51	211.49
842.83	211.48
843.14	211.82
843.46	211.73
843.77	211.55
844.08	211.55
844.40	211.46
844.71	211.44
845.03	211.49
845.34	211.51
845.65	211.56
845.97	211.61
846.28	211.64
846.60	211.62
846.91	211.55
847.22	211.50
847.54	211.60
847.85	211.74
848.16	211.70
848.48	211.72
848.79	211.79
849.10	211.81
849.42	211.84
849.73	211.52
850.04	211.58
850.36	211.44
850.67	211.50
850.98	211.51
851.30	211.54
851.61	211.53
851.92	211.50
852.23	211.66
852.55	211.64
852.86	211.66
853.17	211.76
853.49	211.82
853.80	211.91
854.11	211.97
854.42	212.02
854.74	211.97
855.05	211.95
855.36	211.72
855.67	211.75
855.99	211.66
856.30	212.04
856.61	212.01
856.92	212.13
857.23	212.09
857.55	212.06
857.86	212.06
858.17	212.07
858.48	212.07
858.79	211.96
859.11	211.97
859.42	212.03
859.73	211.95
860.04	211.87
860.35	211.78
860.66	211.67
860.98	211.62
861.29	211.75
861.60	211.77
861.91	211.97
862.22	211.85
862.53	211.76
862.84	211.36
863.16	211.43
863.47	211.31
863.78	211.26
864.09	211.29
864.40	211.33
864.71	211.36
865.02	211.37
865.33	211.33
865.64	211.25
865.95	211.15
866.27	211.38
866.58	211.40
866.89	211.38
867.20	211.37
867.51	211.31
867.82	211.20
868.13	211.25
868.44	211.14
868.75	211.28
869.06	211.36
869.37	211.40
869.68	211.29
869.99	211.34
870.30	211.42
870.61	211.44
870.92	211.34
871.23	211.29
871.54	211.26
871.85	211.36
872.16	211.42
872.47	211.42
872.78	211.23
873.09	211.27
873.40	211.22
873.71	211.24
874.02	211.27
874.33	211.26
874.64	211.24
874.95	211.28
875.26	211.15
875.56	211.17
875.87	211.15
876.18	211.13
876.49	211.48
876.80	211.47
877.11	211.37
877.42	211.35
877.73	211.32
878.04	211.31
878.35	211.33
878.66	211.30
878.96	211.29
879.27	211.18
879.58	211.17
879.89	211.19
880.20	211.29
880.51	211.32
880.82	211.31
881.12	211.30
881.43	211.25
881.74	211.25
882.05	211.17
882.36	211.19
882.67	211.20
882.97	210.82
883.28	210.79
883.59	210.86
883.90	210.88
884.21	210.95
884.51	210.99
884.82	210.86
885.13	210.85
885.44	210.86
885.74	210.86
886.05	210.87
886.36	210.90
886.67	210.75
886.98	210.87
887.28	210.89
887.59	210.86
887.90	210.86
888.20	210.86
888.51	211.02
888.82	210.94
889.13	211.04
889.43	211.28
889.74	211.23
890.05	211.22
890.35	211.30
890.66	211.22
890.97	211.12
891.28	211.11
891.58	211.17
891.89	211.14
892.20	211.17
892.50	211.06
892.81	211.00
893.12	210.97
893.42	210.84
893.73	210.85
894.04	210.85
894.34	210.85
894.65	210.84
894.95	210.82
895.26	210.91
895.57	211.01
895.87	210.78
896.18	210.88
896.48	210.85
896.79	210.85
897.10	210.85
897.40	210.94
897.71	211.02
898.01	210.91
898.32	210.97
898.63	211.01
898.93	211.04
899.24	211.11
899.54	211.19
899.85	211.15
900.15	211.17
900.46	211.19
900.76	211.21
901.07	211.17
901.38	211.12
901.68	211.11
901.99	210.89
902.29	210.85
902.60	210.77
902.90	210.71
903.21	210.64
903.51	210.71
903.82	210.78
904.12	210.81
904.43	210.93
904.73	210.86
905.03	210.84
905.34	211.31
905.64	211.32
905.95	211.25
906.25	211.24
906.56	211.26
906.86	211.26
907.17	211.27
907.47	211.32
907.77	211.31
908.08	211.22
908.38	211.29
908.69	211.31
908.99	211.36
909.30	211.41
909.60	211.37
909.90	211.36
910.21	211.21
910.51	211.06
910.81	211.06
911.12	211.11
911.42	211.07
911.73	210.53
912.03	210.50
912.33	210.61
912.64	210.61
912.94	210.55
913.24	210.49
913.55	210.50
913.85	210.46
914.15	210.56
914.46	210.68
914.76	210.61
915.06	210.61
915.37	210.60
915.67	210.62
915.97	210.67
916.27	210.50
916.58	210.50
916.88	210.51
917.18	210.44
917.49	210.72
917.79	210.73
918.09	210.89
918.39	210.97
918.70	210.95
919.00	211.01
919.30	211.21
919.60	211.20
919.91	211.10
920.21	211.13
920.51	211.01
920.81	210.92
921.12	210.95
921.42	210.90
921.72	210.90
922.02	210.94
922.32	210.97
922.63	211.14
922.93	211.36
923.23	211.45
923.53	211.40
923.83	211.22
924.13	211.25
924.44	211.20
924.74	211.26
925.04	211.33
925.34	211.29
925.64	211.10
925.94	211.10
926.24	211.24
926.55	211.18
926.85	211.20
927.15	211.26
927.45	211.31
927.75	211.38
928.05	211.40
928.35	211.29
928.65	211.38
928.95	211.28
929.26	211.11
929.56	211.19
929.86	211.23
930.16	211.13
930.46	211.15
930.76	211.19
931.06	211.02
931.36	210.96
931.66	211.01
931.96	211.07
932.26	211.13
932.56	211.07
932.86	211.14
933.16	211.18
933.46	211.13
933.76	211.07
934.06	211.09
934.36	211.23
934.66	211.26
934.96	211.24
935.26	211.32
935.56	211.42
935.86	211.25
936.16	211.26
936.46	211.28
936.76	211.25
937.06	211.20
937.36	211.25
937.66	211.28
937.96	211.25
938.26	211.21
938.56	211.14
938.86	211.17
939.16	211.29
939.46	211.27
939.76	211.35
940.06	211.39
940.35	211.35
940.65	211.16
940.95	211.24
941.25	211.06
941.55	211.05
941.85	210.98
942.15	211.07
942.45	211.19
942.75	211.11
943.04	211.09
943.34	211.19
943.64	211.15
943.94	211.03
944.24	211.07
944.54	211.08
944.84	211.10
945.13	211.02
945.43	210.96
945.73	211.00
946.03	210.95
946.33	210.93
946.62	210.90
946.92	210.83
947.22	210.81
947.52	210.91
947.82	210.95
948.11	210.90
948.41	210.91
948.71	210.81
949.01	210.85
949.31	210.85
949.60	210.72
949.90	210.80
950.20	210.81
950.50	210.78
950.79	210.74
951.09	210.79
951.39	210.77
951.69	210.71
951.98	210.70
952.28	210.68
952.58	210.65
952.87	210.65
953.17	210.70
953.47	210.68
953.76	210.70
954.06	210.60
954.36	210.61
954.66	210.52
954.95	210.59
955.25	210.62
955.55	210.63
955.84	210.60
956.14	210.60
956.44	210.72
956.73	210.62
957.03	210.65
957.32	210.62
957.62	210.52
957.92	210.60
958.21	210.61
958.51	211.06
958.81	211.10
959.10	211.07
959.40	211.19
959.69	211.14
959.99	211.17
960.29	211.27
960.58	211.21
960.88	211.33
961.17	211.28
961.47	211.35
961.76	211.36
962.06	211.43
962.36	211.38
962.65	211.32
962.95	211.43
963.24	211.38
963.54	211.43
963.83	211.56
964.13	211.54
964.42	211.48
964.72	211.08
965.01	211.15
965.31	211.17
965.60	211.08
965.90	211.39
966.19	211.32
966.49	211.24
966.78	211.27
967.08	211.29
967.37	211.21
967.67	211.08
967.96	211.17
968.26	211.13
968.55	211.20
968.85	211.16
969.14	211.15
969.43	211.19
969.73	211.19
970.02	211.10
970.32	211.02
970.61	210.97
970.91	210.97
971.20	210.89
971.49	210.86
971.79	210.94
972.08	210.62
972.38	210.61
972.67	210.66
972.96	210.72
973.26	210.58
973.55	210.78
973.85	210.86
974.14	210.73
974.43	210.77
974.73	210.72
975.02	210.72
975.31	210.70
975.61	210.71
975.90	210.68
976.19	210.70
976.49	210.81
976.78	210.85
977.07	210.80
977.37	210.79
977.66	210.87
977.95	210.72
978.24	210.73
978.54	210.84
978.83	210.77
979.12	210.75
979.42	210.75
979.71	210.69
980.00	210.63
980.29	210.65
980.59	210.54
980.88	210.64
981.17	210.64
981.46	210.61
981.76	210.52
982.05	210.60
982.34	210.63
982.63	210.63
982.93	210.60
983.22	210.68
983.51	210.73
983.80	210.71
984.09	210.78
984.39	210.79
984.68	210.73
984.97	210.79
985.26	210.73
985.55	210.77
985.85	210.72
986.14	210.75
986.43	210.78
986.72	210.86
987.01	210.70
987.30	210.64
987.59	210.61
987.89	210.67
988.18	210.54
988.47	210.46
988.76	210.35
989.05	210.33
989.34	210.24
989.63	210.32
989.92	210.31
990.22	210.26
990.51	210.28
990.80	210.26
991.09	210.31
991.38	210.34
991.67	210.29
991.96	210.28
992.25	210.32
992.54	210.28
992.83	210.24
993.12	210.27
993.41	210.42
993.70	210.56
993.99	210.60
994.28	210.69
994.58	210.76
994.87	210.78
995.16	210.79
995.45	210.79
995.74	210.66
996.03	210.69
996.32	210.77
996.61	210.84
996.90	210.85
997.19	210.81
997.48	210.90
997.77	210.88
998.06	210.81
998.34	210.79
998.63	210.76
998.92	210.83
999.21	210.83
999.50	210.83
999.79	210.67
1000.08	210.71
1000.37	210.64
1000.66	210.69
1000.95	210.70
1001.24	210.74
1001.53	210.85
1001.82	210.84
1002.11	210.79
1002.40	210.84
1002.68	210.94
1002.97	211.18
1003.26	211.13
1003.55	211.10
1003.84	211.14
1004.13	211.31
1004.42	211.29
1004.71	211.36
1004.99	211.33
1005.28	211.48
1005.57	211.46
1005.86	211.51
1006.15	211.41
1006.44	211.38
1006.72	211.30
1007.01	211.34
1007.30	211.37
1007.59	211.31
1007.88	211.32
1008.17	211.30
1008.45	211.24
1008.74	211.05
1009.03	210.91
1009.32	210.89
1009.60	210.80
1009.89	210.79
1010.18	210.69
1010.47	210.69
1010.76	210.67
1011.04	210.66
1011.33	210.65
1011.62	210.64
1011.91	210.64
1012.19	210.78
1012.48	210.85
1012.77	210.86
1013.05	210.97
1013.34	210.91
1013.63	210.92
1013.92	210.90
1014.20	210.88
1014.49	210.88
1014.78	210.95
1015.06	210.83
1015.35	210.84
1015.64	210.91
1015.92	210.95
1016.21	210.90
1016.50	210.82
1016.78	210.82
1017.07	210.90
1017.36	210.75
1017.64	210.65
1017.93	210.70
1018.22	210.57
1018.50	210.55
1018.79	210.57
1019.08	210.39
1019.36	210.46
1019.65	210.43
1019.93	210.47
1020.22	210.53
1020.51	210.69
1020.79	210.61
1021.08	209.55
1021.36	210.40
1021.65	210.30
1021.94	210.10
1022.22	211.35
1022.51	210.65
1022.79	211.10
1023.08	210.85
1023.36	214.40
1023.65	209.60
>>>>>End Processed Spectral Data<<<<<
