SpectraSuite Data File
++++++++++++++++++++++++++++++++++++
Date: Mon Feb 25 17:06:10 EST 2013
User: group
Dark Spectrum Present: No
Reference Spectrum Present: No
Number of Sampled Component Spectra: 1
Spectrometers: USB2E7196
Integration Time (usec): 104000 (USB2E7196)
Spectra Averaged: 20 (USB2E7196)
Boxcar Smoothing: 10 (USB2E7196)
Correct for Electrical Dark: No (USB2E7196)
Strobe/Lamp Enabled: No (USB2E7196)
Correct for Detector Non-linearity: No (USB2E7196)
Correct for Stray Light: No (USB2E7196)
Number of Pixels in Processed Spectrum: 2048
>>>>>Begin Processed Spectral Data<<<<<
339.09	0.00
339.48	199.05
339.86	201.35
340.24	201.70
340.63	203.35
341.01	209.80
341.39	205.60
341.78	208.70
342.16	209.40
342.54	207.55
342.93	198.37
343.31	208.35
343.69	208.89
344.07	209.25
344.46	209.68
344.84	210.03
345.22	210.07
345.60	210.28
345.99	210.37
346.37	210.42
346.75	210.44
347.13	210.49
347.52	210.51
347.90	210.69
348.28	210.63
348.66	210.70
349.05	210.50
349.43	210.56
349.81	210.62
350.19	210.52
350.57	210.61
350.96	210.65
351.34	210.74
351.72	210.77
352.10	210.83
352.48	210.81
352.87	210.86
353.25	210.82
353.63	210.86
354.01	210.82
354.39	210.87
354.77	211.00
355.15	211.20
355.54	211.17
355.92	211.09
356.30	211.26
356.68	211.49
357.06	211.54
357.44	211.59
357.82	211.63
358.20	211.75
358.58	211.73
358.97	211.76
359.35	211.91
359.73	212.02
360.11	212.09
360.49	212.14
360.87	212.15
361.25	212.33
361.63	212.48
362.01	212.57
362.39	212.57
362.77	212.70
363.15	212.67
363.53	212.72
363.91	212.83
364.29	212.87
364.67	212.59
365.05	212.64
365.43	212.71
365.81	212.80
366.19	212.99
366.57	213.10
366.95	213.10
367.33	212.95
367.71	213.01
368.09	213.10
368.47	213.15
368.85	213.16
369.23	213.18
369.61	213.11
369.99	213.27
370.37	213.26
370.75	213.33
371.13	213.27
371.51	213.30
371.89	213.29
372.27	213.28
372.65	213.27
373.03	213.25
373.41	213.15
373.78	213.07
374.16	212.81
374.54	212.70
374.92	212.66
375.30	212.70
375.68	212.53
376.06	212.44
376.44	212.30
376.82	212.27
377.19	212.22
377.57	212.14
377.95	211.94
378.33	211.93
378.71	211.73
379.09	211.76
379.47	211.68
379.84	211.54
380.22	211.38
380.60	211.32
380.98	211.26
381.36	211.21
381.73	211.05
382.11	211.10
382.49	211.06
382.87	210.93
383.25	210.81
383.62	211.22
384.00	211.12
384.38	211.19
384.76	211.18
385.13	211.28
385.51	211.28
385.89	211.20
386.27	211.21
386.64	211.24
387.02	211.14
387.40	211.10
387.78	211.08
388.15	211.12
388.53	211.05
388.91	211.00
389.29	210.96
389.66	211.06
390.04	210.95
390.42	211.05
390.79	211.14
391.17	211.16
391.55	210.66
391.92	210.68
392.30	210.69
392.68	210.63
393.05	210.56
393.43	210.56
393.81	210.60
394.18	210.50
394.56	210.49
394.94	210.55
395.31	210.48
395.69	210.61
396.06	210.62
396.44	210.65
396.82	210.61
397.19	210.82
397.57	210.74
397.95	210.83
398.32	210.72
398.70	210.68
399.07	210.78
399.45	210.82
399.82	210.84
400.20	210.77
400.58	210.83
400.95	210.67
401.33	210.70
401.70	210.93
402.08	210.99
402.45	210.97
402.83	211.13
403.20	211.17
403.58	211.17
403.95	211.27
404.33	211.40
404.71	211.49
405.08	211.69
405.46	211.83
405.83	212.00
406.21	212.07
406.58	212.22
406.96	212.27
407.33	212.40
407.70	212.59
408.08	213.08
408.45	213.28
408.83	213.53
409.20	213.71
409.58	213.77
409.95	213.97
410.33	214.33
410.70	214.47
411.08	214.87
411.45	215.20
411.82	215.48
412.20	215.84
412.57	216.41
412.95	216.49
413.32	216.95
413.69	217.31
414.07	217.81
414.44	218.30
414.82	218.93
415.19	219.60
415.56	220.19
415.94	220.62
416.31	221.40
416.68	222.17
417.06	223.04
417.43	223.91
417.81	224.94
418.18	225.85
418.55	226.81
418.93	227.88
419.30	229.06
419.67	230.25
420.04	231.47
420.42	232.69
420.79	234.40
421.16	235.87
421.54	237.63
421.91	239.23
422.28	240.98
422.66	242.65
423.03	244.62
423.40	246.49
423.77	248.39
424.15	250.31
424.52	252.46
424.89	254.79
425.26	256.94
425.64	259.06
426.01	261.36
426.38	263.81
426.75	266.23
427.13	268.61
427.50	271.21
427.87	273.91
428.24	276.63
428.61	279.16
428.99	282.18
429.36	285.16
429.73	288.34
430.10	291.41
430.47	294.66
430.85	297.70
431.22	301.20
431.59	305.26
431.96	308.80
432.33	312.75
432.70	316.59
433.08	321.07
433.45	325.31
433.82	329.58
434.19	334.35
434.56	339.09
434.93	343.54
435.30	348.04
435.68	353.03
436.05	357.98
436.42	362.84
436.79	367.27
437.16	372.11
437.53	377.10
437.90	382.10
438.27	387.15
438.64	392.31
439.01	397.16
439.38	401.30
439.75	405.54
440.13	410.28
440.50	414.71
440.87	418.40
441.24	422.27
441.61	426.58
441.98	429.70
442.35	433.39
442.72	437.27
443.09	441.01
443.46	443.32
443.83	444.98
444.20	446.42
444.57	448.35
444.94	449.31
445.31	450.48
445.68	451.93
446.05	452.57
446.42	452.43
446.79	452.09
447.16	451.58
447.53	451.37
447.90	449.68
448.27	448.11
448.64	445.85
449.01	444.23
449.37	441.00
449.74	438.03
450.11	434.53
450.48	430.47
450.85	426.27
451.22	422.80
451.59	419.45
451.96	416.21
452.33	411.94
452.70	408.08
453.07	403.35
453.43	398.21
453.80	393.53
454.17	389.11
454.54	384.89
454.91	380.47
455.28	376.05
455.65	371.97
456.02	368.29
456.38	364.74
456.75	360.26
457.12	356.63
457.49	353.09
457.86	349.39
458.23	346.45
458.59	343.20
458.96	339.85
459.33	336.83
459.70	333.89
460.07	331.55
460.43	328.89
460.80	326.43
461.17	324.31
461.54	321.96
461.91	319.73
462.27	317.53
462.64	315.55
463.01	313.44
463.38	311.47
463.74	308.84
464.11	306.93
464.48	305.44
464.85	303.65
465.21	302.31
465.58	300.90
465.95	299.09
466.32	297.62
466.68	296.14
467.05	294.67
467.42	293.20
467.78	291.61
468.15	290.16
468.52	289.06
468.88	287.56
469.25	286.34
469.62	285.37
469.98	284.20
470.35	283.16
470.72	282.15
471.08	280.95
471.45	280.14
471.82	279.33
472.18	278.30
472.55	277.68
472.92	276.80
473.28	276.01
473.65	275.36
474.02	274.58
474.38	274.07
474.75	273.63
475.11	273.03
475.48	272.63
475.85	272.19
476.21	271.68
476.58	271.33
476.94	270.98
477.31	270.60
477.67	270.31
478.04	269.99
478.41	269.82
478.77	269.95
479.14	269.71
479.50	269.64
479.87	269.60
480.23	269.44
480.60	269.25
480.96	269.15
481.33	269.25
481.69	269.31
482.06	269.29
482.42	269.28
482.79	269.38
483.15	269.41
483.52	269.75
483.88	269.91
484.25	270.13
484.61	270.38
484.98	270.55
485.34	270.85
485.71	271.22
486.07	271.48
486.44	271.60
486.80	271.96
487.17	272.18
487.53	272.67
487.90	273.25
488.26	273.89
488.62	274.51
488.99	275.05
489.35	275.65
489.72	276.23
490.08	276.85
490.44	277.53
490.81	278.33
491.17	278.93
491.54	279.57
491.90	280.31
492.26	281.18
492.63	282.06
492.99	282.96
493.36	283.90
493.72	284.90
494.08	285.91
494.45	287.00
494.81	288.19
495.17	289.22
495.54	290.33
495.90	291.41
496.26	292.63
496.63	293.70
496.99	294.96
497.35	296.26
497.72	297.62
498.08	298.86
498.44	300.22
498.80	301.59
499.17	303.06
499.53	304.45
499.89	305.85
500.26	307.25
500.62	308.63
500.98	310.21
501.34	311.64
501.71	313.15
502.07	314.60
502.43	315.97
502.79	317.42
503.16	318.82
503.52	320.37
503.88	321.75
504.24	323.24
504.60	324.68
504.97	326.24
505.33	327.56
505.69	329.37
506.05	330.73
506.41	332.23
506.78	333.72
507.14	335.23
507.50	336.62
507.86	338.08
508.22	339.57
508.59	340.82
508.95	342.36
509.31	343.84
509.67	345.27
510.03	346.83
510.39	348.28
510.75	349.88
511.12	351.24
511.48	352.65
511.84	354.07
512.20	355.45
512.56	356.77
512.92	358.35
513.28	359.59
513.64	361.10
514.00	362.49
514.37	363.85
514.73	365.31
515.09	366.85
515.45	368.25
515.81	369.56
516.17	371.04
516.53	372.41
516.89	373.55
517.25	374.99
517.61	376.43
517.97	377.80
518.33	379.17
518.69	380.80
519.05	382.35
519.41	384.00
519.77	385.74
520.13	387.20
520.49	388.62
520.85	390.13
521.21	391.86
521.57	393.47
521.93	395.04
522.29	396.74
522.65	398.35
523.01	400.11
523.37	401.93
523.73	403.72
524.09	405.50
524.45	407.50
524.81	409.31
525.17	411.20
525.53	413.24
525.89	415.17
526.25	417.16
526.61	419.08
526.97	421.09
527.33	423.25
527.68	425.84
528.04	428.19
528.40	430.42
528.76	432.61
529.12	434.98
529.48	437.53
529.84	439.84
530.20	442.21
530.56	444.70
530.91	447.45
531.27	449.96
531.63	452.58
531.99	455.26
532.35	458.02
532.71	460.72
533.07	463.47
533.42	466.70
533.78	469.36
534.14	472.27
534.50	474.88
534.86	477.58
535.21	480.04
535.57	482.84
535.93	485.68
536.29	488.69
536.65	491.58
537.00	494.37
537.36	497.17
537.72	500.00
538.08	502.91
538.44	505.68
538.79	508.68
539.15	511.52
539.51	514.36
539.87	517.29
540.22	520.20
540.58	523.20
540.94	525.72
541.29	528.64
541.65	531.41
542.01	534.53
542.37	537.61
542.72	540.66
543.08	543.57
543.44	546.56
543.79	549.26
544.15	552.18
544.51	555.35
544.87	558.45
545.22	561.48
545.58	564.37
545.94	567.08
546.29	569.85
546.65	572.61
547.01	575.35
547.36	578.20
547.72	581.10
548.07	583.86
548.43	586.45
548.79	589.09
549.14	591.62
549.50	594.39
549.86	596.69
550.21	599.20
550.57	601.80
550.92	604.25
551.28	606.74
551.64	609.16
551.99	611.51
552.35	613.79
552.70	616.07
553.06	618.27
553.41	620.55
553.77	623.02
554.13	625.41
554.48	627.88
554.84	630.05
555.19	632.13
555.55	634.40
555.90	636.45
556.26	638.41
556.61	640.48
556.97	642.15
557.32	644.06
557.68	645.84
558.03	647.60
558.39	649.26
558.74	651.22
559.10	653.01
559.45	654.75
559.81	656.56
560.16	658.32
560.52	660.19
560.87	661.86
561.23	663.24
561.58	664.97
561.94	666.28
562.29	667.40
562.64	668.87
563.00	670.10
563.35	671.64
563.71	673.40
564.06	674.92
564.42	676.56
564.77	678.19
565.12	679.70
565.48	681.30
565.83	682.85
566.19	684.25
566.54	685.35
566.89	686.29
567.25	687.72
567.60	689.05
567.96	690.39
568.31	691.69
568.66	692.79
569.02	693.44
569.37	694.20
569.72	695.28
570.08	696.03
570.43	696.68
570.78	697.08
571.14	697.39
571.49	697.82
571.84	698.26
572.20	698.53
572.55	698.85
572.90	698.85
573.26	699.00
573.61	698.88
573.96	698.93
574.31	698.95
574.67	698.61
575.02	698.14
575.37	697.56
575.72	696.97
576.08	696.64
576.43	696.43
576.78	696.16
577.13	695.84
577.49	695.51
577.84	695.19
578.19	695.28
578.54	695.10
578.90	695.02
579.25	694.37
579.60	693.88
579.95	693.34
580.30	693.01
580.66	692.60
581.01	692.07
581.36	691.61
581.71	691.22
582.06	690.77
582.42	690.43
582.77	689.96
583.12	689.54
583.47	689.06
583.82	688.70
584.17	688.47
584.53	688.22
584.88	687.74
585.23	687.23
585.58	686.42
585.93	685.76
586.28	685.07
586.63	684.75
586.98	684.19
587.34	683.94
587.69	683.32
588.04	682.57
588.39	682.18
588.74	681.40
589.09	680.89
589.44	679.93
589.79	679.35
590.14	678.72
590.49	677.90
590.84	677.07
591.19	676.30
591.54	675.47
591.89	674.26
592.25	673.41
592.60	672.28
592.95	671.38
593.30	670.30
593.65	669.11
594.00	667.91
594.35	667.91
594.70	666.37
595.05	665.32
595.40	664.26
595.75	662.84
596.10	662.00
596.45	660.94
596.80	660.21
597.15	659.07
597.50	657.96
597.85	657.15
598.19	656.03
598.54	655.01
598.89	653.90
599.24	653.14
599.59	651.98
599.94	651.35
600.29	650.41
600.64	649.50
600.99	648.33
601.34	647.48
601.69	645.41
602.04	644.34
602.39	643.21
602.74	642.40
603.08	641.72
603.43	641.01
603.78	639.97
604.13	638.86
604.48	637.79
604.83	636.85
605.18	635.91
605.53	634.95
605.87	633.65
606.22	632.53
606.57	631.35
606.92	630.23
607.27	628.80
607.62	627.49
607.96	626.30
608.31	625.54
608.66	624.26
609.01	622.95
609.36	621.86
609.70	620.54
610.05	619.06
610.40	617.55
610.75	615.93
611.10	614.62
611.44	612.96
611.79	611.43
612.14	609.84
612.49	608.06
612.83	606.46
613.18	604.61
613.53	602.89
613.88	601.05
614.22	599.37
614.57	597.78
614.92	596.12
615.27	594.45
615.61	592.68
615.96	590.99
616.31	589.35
616.65	587.89
617.00	586.07
617.35	584.32
617.70	582.51
618.04	580.65
618.39	578.51
618.74	576.90
619.08	574.98
619.43	573.19
619.78	571.41
620.12	569.67
620.47	568.33
620.82	566.40
621.16	564.54
621.51	562.79
621.85	560.86
622.20	559.01
622.55	557.11
622.89	555.03
623.24	553.12
623.59	551.21
623.93	549.20
624.28	547.58
624.62	546.19
624.97	544.55
625.32	542.61
625.66	541.00
626.01	539.14
626.35	537.48
626.70	535.66
627.04	534.14
627.39	532.34
627.73	530.55
628.08	529.09
628.43	527.38
628.77	525.58
629.12	523.78
629.46	522.18
629.81	520.51
630.15	518.80
630.50	517.01
630.84	515.16
631.19	513.34
631.53	511.56
631.88	509.30
632.22	507.14
632.57	505.73
632.91	503.85
633.26	502.11
633.60	500.33
633.95	498.63
634.29	496.67
634.64	495.08
634.98	493.15
635.32	491.40
635.67	489.92
636.01	488.22
636.36	486.52
636.70	484.92
637.05	483.17
637.39	481.63
637.73	480.10
638.08	478.83
638.42	477.41
638.77	475.84
639.11	474.34
639.45	472.93
639.80	470.99
640.14	469.30
640.49	467.60
640.83	465.88
641.17	464.14
641.52	462.37
641.86	460.57
642.20	459.00
642.55	457.09
642.89	455.32
643.23	453.67
643.58	452.16
643.92	450.28
644.26	448.52
644.61	446.82
644.95	445.06
645.29	443.17
645.64	441.52
645.98	439.86
646.32	438.27
646.66	436.51
647.01	434.99
647.35	433.57
647.69	431.77
648.04	430.19
648.38	428.62
648.72	427.00
649.06	425.41
649.41	423.78
649.75	422.31
650.09	420.63
650.43	418.92
650.78	417.16
651.12	415.49
651.46	413.85
651.80	412.28
652.14	410.73
652.49	409.08
652.83	407.37
653.17	405.55
653.51	403.67
653.85	402.20
654.20	400.59
654.54	398.87
654.88	397.36
655.22	395.78
655.56	394.16
655.90	392.59
656.25	390.92
656.59	389.30
656.93	387.67
657.27	386.29
657.61	384.61
657.95	383.21
658.29	381.63
658.64	380.25
658.98	378.62
659.32	376.93
659.66	375.42
660.00	373.92
660.34	372.39
660.68	370.94
661.02	369.37
661.36	367.92
661.70	366.49
662.05	365.18
662.39	363.92
662.73	362.74
663.07	361.50
663.41	360.22
663.75	358.88
664.09	357.58
664.43	356.00
664.77	354.79
665.11	353.32
665.45	352.17
665.79	350.93
666.13	349.65
666.47	348.41
666.81	347.19
667.15	345.75
667.49	344.70
667.83	343.66
668.17	342.49
668.51	341.28
668.85	340.13
669.19	339.04
669.53	337.62
669.87	336.39
670.21	335.18
670.55	333.94
670.89	333.02
671.23	332.00
671.57	331.00
671.91	329.92
672.25	328.95
672.58	328.04
672.92	326.87
673.26	325.89
673.60	324.92
673.94	323.94
674.28	323.12
674.62	322.16
674.96	321.16
675.30	320.19
675.64	319.19
675.97	318.21
676.31	317.26
676.65	316.51
676.99	315.61
677.33	314.64
677.67	313.79
678.01	312.65
678.34	311.62
678.68	310.71
679.02	309.83
679.36	308.85
679.70	307.75
680.04	306.86
680.37	305.97
680.71	305.08
681.05	304.27
681.39	303.32
681.73	302.38
682.06	301.53
682.40	300.73
682.74	299.95
683.08	299.28
683.42	298.24
683.75	297.43
684.09	296.47
684.43	295.69
684.77	294.80
685.10	294.00
685.44	293.18
685.78	292.34
686.12	291.55
686.45	290.80
686.79	290.05
687.13	289.34
687.46	288.56
687.80	287.83
688.14	286.98
688.48	286.29
688.81	285.53
689.15	284.91
689.49	284.08
689.82	283.33
690.16	282.37
690.50	281.66
690.83	280.79
691.17	279.99
691.51	279.28
691.84	278.70
692.18	278.04
692.52	277.29
692.85	276.75
693.19	276.25
693.52	275.56
693.86	274.80
694.20	274.16
694.53	273.49
694.87	272.93
695.21	272.25
695.54	271.56
695.88	270.87
696.21	270.05
696.55	269.50
696.88	268.82
697.22	268.30
697.56	267.80
697.89	267.31
698.23	266.82
698.56	266.20
698.90	265.64
699.23	265.00
699.57	264.55
699.90	263.84
700.24	263.16
700.58	262.70
700.91	262.20
701.25	261.92
701.58	261.49
701.92	260.98
702.25	260.48
702.59	259.87
702.92	259.40
703.26	258.90
703.59	258.40
703.93	258.21
704.26	257.73
704.60	257.26
704.93	256.78
705.26	256.28
705.60	255.89
705.93	255.29
706.27	254.98
706.60	254.57
706.94	254.33
707.27	253.92
707.61	253.43
707.94	252.99
708.27	252.28
708.61	251.76
708.94	251.21
709.28	250.86
709.61	250.49
709.94	250.10
710.28	249.74
710.61	249.33
710.95	248.58
711.28	248.42
711.61	247.98
711.95	247.61
712.28	247.20
712.61	246.77
712.95	246.61
713.28	246.35
713.61	245.90
713.95	245.44
714.28	245.08
714.61	244.73
714.95	244.40
715.28	244.03
715.61	243.79
715.95	243.54
716.28	243.10
716.61	242.85
716.95	242.46
717.28	242.14
717.61	241.77
717.94	241.49
718.28	240.91
718.61	240.62
718.94	240.32
719.27	239.95
719.61	239.70
719.94	239.37
720.27	238.87
720.60	238.59
720.94	238.24
721.27	237.92
721.60	237.62
721.93	237.40
722.27	237.23
722.60	236.95
722.93	236.61
723.26	236.45
723.59	236.14
723.93	235.97
724.26	235.75
724.59	235.58
724.92	235.44
725.25	235.35
725.59	235.10
725.92	234.90
726.25	234.70
726.58	234.44
726.91	234.14
727.24	234.04
727.57	233.82
727.91	233.52
728.24	233.35
728.57	233.18
728.90	232.96
729.23	232.71
729.56	232.63
729.89	232.40
730.22	232.18
730.55	231.90
730.89	231.71
731.22	231.54
731.55	231.30
731.88	231.08
732.21	230.80
732.54	230.58
732.87	230.31
733.20	230.17
733.53	230.02
733.86	229.87
734.19	229.61
734.52	229.51
734.85	229.71
735.18	229.43
735.51	229.37
735.84	229.14
736.17	229.01
736.50	228.66
736.83	228.98
737.16	228.88
737.49	228.76
737.82	228.52
738.15	228.35
738.48	228.20
738.81	227.97
739.14	227.75
739.47	227.52
739.80	227.31
740.13	227.15
740.46	226.90
740.79	226.68
741.12	226.52
741.45	226.31
741.78	225.88
742.11	225.91
742.44	225.64
742.77	225.62
743.10	225.43
743.43	225.29
743.75	224.73
744.08	224.92
744.41	224.73
744.74	224.60
745.07	224.45
745.40	224.36
745.73	224.37
746.06	224.29
746.39	224.29
746.71	224.16
747.04	224.02
747.37	223.89
747.70	223.82
748.03	223.65
748.36	223.58
748.68	223.50
749.01	223.25
749.34	223.17
749.67	223.04
750.00	222.99
750.33	223.12
750.65	223.10
750.98	222.57
751.31	222.53
751.64	222.42
751.97	222.49
752.29	222.33
752.62	222.06
752.95	221.92
753.28	221.79
753.60	221.68
753.93	221.66
754.26	221.61
754.59	221.36
754.91	221.31
755.24	221.21
755.57	221.11
755.90	221.03
756.22	220.87
756.55	220.67
756.88	220.47
757.20	220.09
757.53	219.85
757.86	219.74
758.19	219.70
758.51	219.62
758.84	219.32
759.17	219.20
759.49	219.13
759.82	219.21
760.15	219.13
760.47	219.07
760.80	218.84
761.13	218.82
761.45	218.74
761.78	218.62
762.11	218.51
762.43	218.41
762.76	218.31
763.08	218.31
763.41	218.29
763.74	218.28
764.06	218.26
764.39	218.25
764.71	218.20
765.04	218.10
765.37	218.03
765.69	217.99
766.02	217.92
766.34	217.80
766.67	217.57
767.00	217.55
767.32	217.73
767.65	217.88
767.97	217.75
768.30	217.77
768.62	217.75
768.95	217.64
769.27	217.59
769.60	217.53
769.92	217.28
770.25	217.16
770.57	216.97
770.90	216.91
771.22	216.79
771.55	216.74
771.87	216.68
772.20	216.51
772.52	216.68
772.85	217.07
773.17	217.08
773.50	217.01
773.82	216.92
774.15	216.62
774.47	216.37
774.80	216.29
775.12	216.27
775.45	216.21
775.77	216.21
776.09	216.16
776.42	216.11
776.74	216.19
777.07	216.19
777.39	216.19
777.72	216.14
778.04	216.15
778.36	216.05
778.69	215.99
779.01	216.05
779.33	215.72
779.66	215.31
779.98	215.21
780.31	215.19
780.63	215.28
780.95	215.30
781.28	215.30
781.60	215.20
781.92	215.09
782.25	215.07
782.57	214.92
782.89	214.84
783.22	214.81
783.54	214.77
783.86	214.75
784.19	214.67
784.51	214.71
784.83	214.63
785.16	214.59
785.48	214.59
785.80	214.54
786.12	214.44
786.45	214.35
786.77	214.39
787.09	214.32
787.42	214.15
787.74	214.14
788.06	214.12
788.38	214.10
788.71	214.07
789.03	214.06
789.35	214.13
789.67	214.05
789.99	214.00
790.32	213.91
790.64	213.85
790.96	214.12
791.28	213.94
791.61	213.93
791.93	213.97
792.25	213.88
792.57	214.14
792.89	214.15
793.21	214.18
793.54	214.09
793.86	214.07
794.18	214.05
794.50	213.95
794.82	213.90
795.14	213.97
795.47	213.95
795.79	213.87
796.11	213.75
796.43	213.74
796.75	213.78
797.07	213.80
797.39	213.78
797.71	213.52
798.04	213.54
798.36	213.51
798.68	213.41
799.00	213.45
799.32	213.27
799.64	213.35
799.96	213.29
800.28	213.33
800.60	213.33
800.92	213.38
801.24	213.39
801.56	213.46
801.89	213.42
802.21	213.50
802.53	213.50
802.85	213.59
803.17	213.70
803.49	213.58
803.81	213.55
804.13	213.49
804.45	213.43
804.77	213.43
805.09	213.35
805.41	213.33
805.73	213.28
806.05	213.20
806.37	213.17
806.69	213.11
807.01	213.08
807.33	213.07
807.65	212.89
807.97	213.01
808.28	212.95
808.60	212.89
808.92	212.81
809.24	212.93
809.56	212.91
809.88	212.79
810.20	212.83
810.52	212.86
810.84	212.83
811.16	212.77
811.48	212.71
811.80	212.90
812.12	212.90
812.43	212.98
812.75	212.92
813.07	212.81
813.39	212.86
813.71	212.79
814.03	212.76
814.35	212.80
814.67	212.66
814.98	212.64
815.30	212.66
815.62	212.64
815.94	212.44
816.26	212.44
816.58	212.41
816.89	212.42
817.21	212.36
817.53	212.32
817.85	212.36
818.17	212.35
818.48	212.21
818.80	212.26
819.12	212.15
819.44	212.12
819.76	212.14
820.07	212.12
820.39	212.14
820.71	212.09
821.03	212.10
821.34	212.01
821.66	211.98
821.98	211.95
822.30	211.93
822.61	212.14
822.93	212.08
823.25	212.06
823.57	212.00
823.88	212.04
824.20	212.12
824.52	212.12
824.83	212.19
825.15	212.17
825.47	212.16
825.79	212.21
826.10	212.22
826.42	212.20
826.74	212.24
827.05	212.22
827.37	212.27
827.69	212.24
828.00	212.33
828.32	212.36
828.64	212.36
828.95	212.51
829.27	212.40
829.58	212.44
829.90	212.48
830.22	212.56
830.53	212.53
830.85	212.45
831.17	212.45
831.48	212.40
831.80	212.40
832.11	212.41
832.43	212.33
832.75	212.34
833.06	212.47
833.38	212.43
833.69	212.44
834.01	212.49
834.32	212.53
834.64	212.43
834.96	212.42
835.27	212.41
835.59	212.29
835.90	212.19
836.22	212.15
836.53	212.07
836.85	212.00
837.16	212.30
837.48	212.33
837.79	212.38
838.11	212.35
838.42	212.27
838.74	212.28
839.05	212.24
839.37	212.15
839.68	212.02
840.00	212.00
840.31	212.06
840.63	212.01
840.94	211.94
841.26	211.96
841.57	211.94
841.88	211.96
842.20	211.85
842.51	211.83
842.83	211.83
843.14	212.16
843.46	212.14
843.77	211.90
844.08	211.87
844.40	211.75
844.71	211.74
845.03	211.76
845.34	211.74
845.65	211.79
845.97	211.83
846.28	211.80
846.60	211.77
846.91	211.68
847.22	211.61
847.54	211.66
847.85	211.62
848.16	211.63
848.48	211.61
848.79	211.79
849.10	211.82
849.42	211.82
849.73	211.46
850.04	211.47
850.36	211.32
850.67	211.36
850.98	211.33
851.30	211.35
851.61	211.30
851.92	211.26
852.23	211.34
852.55	211.37
852.86	211.40
853.17	211.42
853.49	211.45
853.80	211.61
854.11	211.64
854.42	211.65
854.74	211.63
855.05	211.57
855.36	211.31
855.67	211.28
855.99	211.30
856.30	211.79
856.61	211.75
856.92	211.84
857.23	211.84
857.55	211.86
857.86	211.85
858.17	211.90
858.48	211.87
858.79	211.72
859.11	211.69
859.42	211.70
859.73	211.61
860.04	211.65
860.35	211.50
860.66	211.35
860.98	211.39
861.29	211.44
861.60	211.44
861.91	211.65
862.22	211.63
862.53	211.59
862.84	211.11
863.16	211.21
863.47	211.12
863.78	211.09
864.09	211.15
864.40	211.18
864.71	211.12
865.02	211.24
865.33	211.25
865.64	211.20
865.95	211.20
866.27	211.42
866.58	211.31
866.89	211.32
867.20	211.38
867.51	211.28
867.82	211.23
868.13	211.35
868.44	211.18
868.75	211.23
869.06	211.25
869.37	211.25
869.68	211.10
869.99	211.22
870.30	211.20
870.61	211.21
870.92	211.14
871.23	211.22
871.54	211.26
871.85	211.38
872.16	211.42
872.47	211.32
872.78	211.21
873.09	211.33
873.40	211.33
873.71	211.34
874.02	211.41
874.33	211.40
874.64	211.32
874.95	211.42
875.26	211.37
875.56	211.35
875.87	211.39
876.18	211.38
876.49	211.71
876.80	211.72
877.11	211.57
877.42	211.65
877.73	211.59
878.04	211.47
878.35	211.39
878.66	211.39
878.96	211.42
879.27	211.36
879.58	211.30
879.89	211.32
880.20	211.42
880.51	211.37
880.82	211.40
881.12	211.43
881.43	211.36
881.74	211.28
882.05	211.26
882.36	211.39
882.67	211.42
882.97	210.99
883.28	210.98
883.59	211.14
883.90	211.16
884.21	211.25
884.51	211.24
884.82	211.13
885.13	211.19
885.44	211.19
885.74	211.16
886.05	211.19
886.36	211.05
886.67	210.96
886.98	211.16
887.28	211.16
887.59	211.11
887.90	211.17
888.20	211.22
888.51	211.27
888.82	211.15
889.13	211.20
889.43	211.50
889.74	211.42
890.05	211.34
890.35	211.25
890.66	211.16
890.97	211.11
891.28	211.12
891.58	211.06
891.89	211.04
892.20	211.02
892.50	210.96
892.81	211.05
893.12	210.98
893.42	210.80
893.73	210.83
894.04	210.82
894.34	210.79
894.65	210.77
894.95	210.72
895.26	210.71
895.57	210.85
895.87	210.50
896.18	210.60
896.48	210.64
896.79	210.65
897.10	210.74
897.40	210.76
897.71	210.81
898.01	210.85
898.32	210.87
898.63	210.86
898.93	210.88
899.24	210.81
899.54	210.78
899.85	210.74
900.15	210.65
900.46	210.68
900.76	210.72
901.07	210.70
901.38	210.78
901.68	210.85
901.99	210.64
902.29	210.71
902.60	210.69
902.90	210.67
903.21	210.69
903.51	210.61
903.82	210.71
904.12	210.74
904.43	210.66
904.73	210.61
905.03	210.68
905.34	211.01
905.64	211.07
905.95	211.09
906.25	211.12
906.56	211.15
906.86	211.10
907.17	211.09
907.47	211.14
907.77	211.04
908.08	210.95
908.38	211.00
908.69	210.98
908.99	211.05
909.30	211.06
909.60	210.99
909.90	211.06
910.21	210.98
910.51	210.95
910.81	211.03
911.12	211.07
911.42	211.04
911.73	210.74
912.03	210.78
912.33	210.86
912.64	210.90
912.94	210.87
913.24	210.83
913.55	210.81
913.85	210.81
914.15	210.85
914.46	210.94
914.76	210.93
915.06	210.93
915.37	210.81
915.67	210.79
915.97	210.85
916.27	210.78
916.58	210.73
916.88	210.74
917.18	210.68
917.49	210.94
917.79	210.93
918.09	210.93
918.39	211.01
918.70	210.99
919.00	210.97
919.30	211.13
919.60	211.14
919.91	211.09
920.21	211.10
920.51	211.09
920.81	211.03
921.12	211.08
921.42	211.08
921.72	211.14
922.02	211.11
922.32	211.14
922.63	211.14
922.93	211.34
923.23	211.30
923.53	211.31
923.83	211.02
924.13	211.11
924.44	211.04
924.74	211.10
925.04	211.19
925.34	211.15
925.64	211.02
925.94	211.07
926.24	211.23
926.55	211.19
926.85	211.23
927.15	211.23
927.45	211.23
927.75	211.24
928.05	211.18
928.35	211.25
928.65	211.27
928.95	211.27
929.26	211.12
929.56	211.23
929.86	211.30
930.16	211.33
930.46	211.24
930.76	211.27
931.06	211.07
931.36	210.93
931.66	211.02
931.96	211.01
932.26	211.01
932.56	210.87
932.86	210.94
933.16	210.85
933.46	210.83
933.76	210.78
934.06	210.87
934.36	211.03
934.66	211.03
934.96	210.96
935.26	210.98
935.56	211.08
935.86	211.02
936.16	210.88
936.46	210.80
936.76	210.85
937.06	210.78
937.36	210.83
937.66	210.96
937.96	210.88
938.26	210.86
938.56	210.81
938.86	210.78
939.16	210.79
939.46	210.85
939.76	210.81
940.06	210.81
940.35	210.73
940.65	210.55
940.95	210.59
941.25	210.59
941.55	210.59
941.85	210.57
942.15	210.55
942.45	210.68
942.75	210.76
943.04	210.74
943.34	210.93
943.64	210.91
943.94	210.81
944.24	210.83
944.54	210.89
944.84	210.90
945.13	210.88
945.43	210.85
945.73	210.91
946.03	210.85
946.33	210.82
946.62	210.81
946.92	210.80
947.22	210.83
947.52	210.82
947.82	210.84
948.11	210.78
948.41	210.69
948.71	210.66
949.01	210.68
949.31	210.60
949.60	210.48
949.90	210.50
950.20	210.49
950.50	210.51
950.79	210.49
951.09	210.55
951.39	210.63
951.69	210.53
951.98	210.55
952.28	210.66
952.58	210.66
952.87	210.69
953.17	210.76
953.47	210.70
953.76	210.77
954.06	210.70
954.36	210.65
954.66	210.69
954.95	210.76
955.25	210.79
955.55	210.95
955.84	210.91
956.14	210.95
956.44	210.99
956.73	210.97
957.03	210.94
957.32	210.92
957.62	210.86
957.92	211.05
958.21	211.03
958.51	211.46
958.81	211.45
959.10	211.48
959.40	211.52
959.69	211.52
959.99	211.47
960.29	211.45
960.58	211.49
960.88	211.64
961.17	211.58
961.47	211.64
961.76	211.55
962.06	211.60
962.36	211.55
962.65	211.51
962.95	211.51
963.24	211.49
963.54	211.52
963.83	211.60
964.13	211.47
964.42	211.40
964.72	211.11
965.01	211.16
965.31	211.09
965.60	211.02
965.90	211.27
966.19	211.23
966.49	211.32
966.78	211.23
967.08	211.20
967.37	211.24
967.67	211.13
967.96	211.23
968.26	211.27
968.55	211.29
968.85	211.28
969.14	211.22
969.43	211.19
969.73	211.15
970.02	211.06
970.32	211.06
970.61	211.06
970.91	210.90
971.20	210.88
971.49	210.90
971.79	211.00
972.08	210.72
972.38	210.79
972.67	210.70
972.96	210.80
973.26	210.75
973.55	210.74
973.85	210.70
974.14	210.63
974.43	210.61
974.73	210.62
975.02	210.59
975.31	210.64
975.61	210.66
975.90	210.64
976.19	210.59
976.49	210.68
976.78	210.74
977.07	210.77
977.37	210.77
977.66	210.77
977.95	210.72
978.24	210.66
978.54	210.76
978.83	210.72
979.12	210.75
979.42	210.72
979.71	210.72
980.00	210.72
980.29	210.71
980.59	210.67
980.88	210.77
981.17	210.77
981.46	210.76
981.76	210.73
982.05	210.86
982.34	210.88
982.63	210.87
982.93	210.83
983.22	210.94
983.51	210.93
983.80	211.00
984.09	211.01
984.39	211.08
984.68	211.01
984.97	211.13
985.26	211.06
985.55	211.14
985.85	211.04
986.14	211.15
986.43	211.15
986.72	211.12
987.01	211.00
987.30	211.00
987.59	211.05
987.89	211.17
988.18	211.05
988.47	211.18
988.76	211.16
989.05	211.18
989.34	211.10
989.63	211.22
989.92	211.13
990.22	211.08
990.51	211.09
990.80	210.95
991.09	210.98
991.38	211.02
991.67	210.95
991.96	210.92
992.25	210.91
992.54	210.90
992.83	210.95
993.12	210.97
993.41	211.02
993.70	211.12
993.99	211.22
994.28	211.29
994.58	211.28
994.87	211.15
995.16	211.08
995.45	211.10
995.74	210.95
996.03	211.06
996.32	211.04
996.61	211.04
996.90	211.21
997.19	211.19
997.48	211.21
997.77	211.30
998.06	211.37
998.34	211.33
998.63	211.35
998.92	211.39
999.21	211.46
999.50	211.46
999.79	211.31
1000.08	211.18
1000.37	211.16
1000.66	211.06
1000.95	211.25
1001.24	211.31
1001.53	211.34
1001.82	211.33
1002.11	211.22
1002.40	211.27
1002.68	211.39
1002.97	211.58
1003.26	211.54
1003.55	211.44
1003.84	211.36
1004.13	211.50
1004.42	211.47
1004.71	211.50
1004.99	211.44
1005.28	211.46
1005.57	211.49
1005.86	211.48
1006.15	211.49
1006.44	211.46
1006.72	211.56
1007.01	211.39
1007.30	211.38
1007.59	211.31
1007.88	211.27
1008.17	211.36
1008.45	211.38
1008.74	211.27
1009.03	211.08
1009.32	211.03
1009.60	211.10
1009.89	211.08
1010.18	210.87
1010.47	210.91
1010.76	210.85
1011.04	210.86
1011.33	210.87
1011.62	210.90
1011.91	210.94
1012.19	210.90
1012.48	210.86
1012.77	210.81
1013.05	210.98
1013.34	211.06
1013.63	211.04
1013.92	211.07
1014.20	210.97
1014.49	210.98
1014.78	211.04
1015.06	210.97
1015.35	210.96
1015.64	211.02
1015.92	211.10
1016.21	211.23
1016.50	211.17
1016.78	211.21
1017.07	211.17
1017.36	211.10
1017.64	211.08
1017.93	211.13
1018.22	211.09
1018.50	211.11
1018.79	211.13
1019.08	211.01
1019.36	210.99
1019.65	211.03
1019.93	211.10
1020.22	211.21
1020.51	211.40
1020.79	211.33
1021.08	209.60
1021.36	210.35
1021.65	210.95
1021.94	210.75
1022.22	211.65
1022.51	211.70
1022.79	211.55
1023.08	211.80
1023.36	215.90
1023.65	210.75
>>>>>End Processed Spectral Data<<<<<
