SpectraSuite Data File
++++++++++++++++++++++++++++++++++++
Date: Mon Feb 25 17:18:22 EST 2013
User: group
Dark Spectrum Present: No
Reference Spectrum Present: No
Number of Sampled Component Spectra: 1
Spectrometers: USB2E7196
Integration Time (usec): 104000 (USB2E7196)
Spectra Averaged: 20 (USB2E7196)
Boxcar Smoothing: 10 (USB2E7196)
Correct for Electrical Dark: No (USB2E7196)
Strobe/Lamp Enabled: No (USB2E7196)
Correct for Detector Non-linearity: No (USB2E7196)
Correct for Stray Light: No (USB2E7196)
Number of Pixels in Processed Spectrum: 2048
>>>>>Begin Processed Spectral Data<<<<<
339.09	0.00
339.48	198.15
339.86	199.80
340.24	201.80
340.63	203.55
341.01	210.25
341.39	206.90
341.78	207.80
342.16	209.30
342.54	210.35
342.93	198.76
343.31	208.76
343.69	209.39
344.07	209.88
344.46	210.29
344.84	210.69
345.22	210.70
345.60	210.93
345.99	211.06
346.37	211.20
346.75	211.26
347.13	211.31
347.52	211.34
347.90	211.49
348.28	211.50
348.66	211.61
349.05	211.47
349.43	211.56
349.81	211.61
350.19	211.61
350.57	211.70
350.96	211.82
351.34	212.00
351.72	212.08
352.10	212.18
352.48	212.28
352.87	212.39
353.25	212.53
353.63	212.60
354.01	212.67
354.39	212.72
354.77	212.79
355.15	212.96
355.54	213.11
355.92	213.08
356.30	213.20
356.68	213.40
357.06	213.54
357.44	213.55
357.82	213.59
358.20	213.71
358.58	213.77
358.97	213.87
359.35	213.88
359.73	213.96
360.11	213.98
360.49	214.04
360.87	214.02
361.25	214.11
361.63	214.20
362.01	214.25
362.39	214.29
362.77	214.33
363.15	214.40
363.53	214.33
363.91	214.38
364.29	214.34
364.67	214.05
365.05	214.14
365.43	214.17
365.81	214.28
366.19	214.39
366.57	214.51
366.95	214.48
367.33	214.44
367.71	214.46
368.09	214.56
368.47	214.58
368.85	214.56
369.23	214.60
369.61	214.48
369.99	214.62
370.37	214.66
370.75	214.82
371.13	214.69
371.51	214.66
371.89	214.69
372.27	214.74
372.65	214.76
373.03	214.70
373.41	214.69
373.78	214.63
374.16	214.43
374.54	214.34
374.92	214.24
375.30	214.25
375.68	214.18
376.06	214.15
376.44	214.06
376.82	214.10
377.19	214.02
377.57	214.05
377.95	213.90
378.33	213.82
378.71	213.55
379.09	213.50
379.47	213.44
379.84	213.37
380.22	213.25
380.60	213.17
380.98	213.05
381.36	212.99
381.73	212.89
382.11	212.92
382.49	212.90
382.87	212.79
383.25	212.71
383.62	213.11
384.00	213.00
384.38	213.02
384.76	212.95
385.13	213.07
385.51	213.01
385.89	212.94
386.27	212.91
386.64	212.99
387.02	213.00
387.40	212.99
387.78	212.86
388.15	212.83
388.53	212.83
388.91	212.88
389.29	212.87
389.66	212.92
390.04	212.86
390.42	212.83
390.79	212.90
391.17	212.95
391.55	212.49
391.92	212.45
392.30	212.47
392.68	212.45
393.05	212.39
393.43	212.38
393.81	212.38
394.18	212.36
394.56	212.28
394.94	212.31
395.31	212.32
395.69	212.50
396.06	212.53
396.44	212.50
396.82	212.43
397.19	212.61
397.57	212.58
397.95	212.71
398.32	212.65
398.70	212.74
399.07	212.75
399.45	212.74
399.82	212.78
400.20	212.77
400.58	212.80
400.95	212.69
401.33	212.81
401.70	213.15
402.08	213.13
402.45	213.23
402.83	213.36
403.20	213.40
403.58	213.46
403.95	213.69
404.33	213.88
404.71	214.05
405.08	214.35
405.46	214.50
405.83	214.59
406.21	214.71
406.58	214.88
406.96	215.07
407.33	215.30
407.70	215.57
408.08	216.09
408.45	216.36
408.83	216.75
409.20	216.99
409.58	217.10
409.95	217.53
410.33	217.88
410.70	218.14
411.08	218.62
411.45	219.06
411.82	219.44
412.20	219.98
412.57	220.75
412.95	220.99
413.32	221.61
413.69	222.23
414.07	222.96
414.44	223.66
414.82	224.43
415.19	225.35
415.56	226.27
415.94	227.02
416.31	228.03
416.68	229.10
417.06	230.32
417.43	231.52
417.81	232.96
418.18	234.39
418.55	235.94
418.93	237.48
419.30	239.03
419.67	240.73
420.04	242.39
420.42	244.00
420.79	246.26
421.16	248.37
421.54	250.67
421.91	252.94
422.28	255.21
422.66	257.64
423.03	260.27
423.40	262.74
423.77	265.40
424.15	268.11
424.52	270.86
424.89	274.00
425.26	276.94
425.64	279.69
426.01	282.69
426.38	285.88
426.75	289.26
427.13	292.50
427.50	296.08
427.87	299.80
428.24	303.51
428.61	306.95
428.99	310.83
429.36	314.93
429.73	319.09
430.10	323.28
430.47	327.47
430.85	331.63
431.22	336.25
431.59	341.28
431.96	346.06
432.33	351.28
432.70	356.23
433.08	362.16
433.45	367.71
433.82	373.29
434.19	379.43
434.56	385.27
434.93	391.13
435.30	396.76
435.68	403.12
436.05	409.33
436.42	415.37
436.79	421.17
437.16	427.28
437.53	433.63
437.90	440.00
438.27	446.30
438.64	452.74
439.01	458.67
439.38	463.83
439.75	469.00
440.13	474.89
440.50	480.33
440.87	484.86
441.24	489.59
441.61	494.86
441.98	498.58
442.35	503.03
442.72	507.40
443.09	511.82
443.46	514.32
443.83	516.10
444.20	517.57
444.57	519.58
444.94	520.53
445.31	521.63
445.68	522.94
446.05	523.33
446.42	522.75
446.79	521.99
447.16	520.98
447.53	520.29
447.90	517.63
448.27	515.11
448.64	511.58
449.01	508.92
449.37	504.47
449.74	500.25
450.11	495.48
450.48	490.24
450.85	484.64
451.22	479.86
451.59	475.39
451.96	471.18
452.33	465.45
452.70	460.21
453.07	453.94
453.43	447.32
453.80	441.40
454.17	435.48
454.54	430.05
454.91	424.34
455.28	418.61
455.65	413.50
456.02	408.73
456.38	404.28
456.75	398.79
457.12	394.11
457.49	389.58
457.86	384.91
458.23	381.07
458.59	376.81
458.96	372.67
459.33	368.87
459.70	365.19
460.07	362.22
460.43	358.90
460.80	355.75
461.17	353.02
461.54	350.05
461.91	347.35
462.27	344.55
462.64	342.05
463.01	339.39
463.38	336.94
463.74	333.91
464.11	331.57
464.48	329.65
464.85	327.50
465.21	325.95
465.58	324.28
465.95	322.26
466.32	320.64
466.68	318.95
467.05	317.26
467.42	315.53
467.78	313.75
468.15	312.14
468.52	311.01
468.88	309.34
469.25	307.87
469.62	306.85
469.98	305.72
470.35	304.76
470.72	303.81
471.08	302.63
471.45	301.90
471.82	301.16
472.18	300.06
472.55	299.50
472.92	298.66
473.28	298.01
473.65	297.31
474.02	296.62
474.38	296.24
474.75	295.85
475.11	295.37
475.48	295.13
475.85	294.95
476.21	294.76
476.58	294.77
476.94	294.90
477.31	294.78
477.67	294.70
478.04	294.85
478.41	295.04
478.77	295.58
479.14	295.70
479.50	296.01
479.87	296.54
480.23	296.98
480.60	297.40
480.96	297.87
481.33	298.66
481.69	299.49
482.06	300.20
482.42	301.10
482.79	302.08
483.15	303.17
483.52	304.37
483.88	305.50
484.25	306.60
484.61	307.85
484.98	309.26
485.34	310.91
485.71	312.54
486.07	314.30
486.44	315.80
486.80	317.85
487.17	319.89
487.53	322.36
487.90	324.82
488.26	327.46
488.62	330.28
488.99	332.97
489.35	335.91
489.72	338.95
490.08	342.22
490.44	345.59
490.81	349.24
491.17	352.91
491.54	356.90
491.90	361.05
492.26	365.28
492.63	369.75
492.99	374.55
493.36	379.66
493.72	384.95
494.08	390.57
494.45	396.25
494.81	402.38
495.17	408.38
495.54	414.98
495.90	421.79
496.26	428.72
496.63	436.19
496.99	444.07
497.35	452.22
497.72	460.57
498.08	469.18
498.44	478.10
498.80	487.67
499.17	497.50
499.53	507.67
499.89	518.40
500.26	529.34
500.62	540.33
500.98	552.09
501.34	563.96
501.71	576.47
502.07	589.32
502.43	602.41
502.79	615.96
503.16	629.72
503.52	644.17
503.88	659.11
504.24	674.22
504.60	689.82
504.97	705.92
505.33	722.28
505.69	740.08
506.05	757.68
506.41	775.32
506.78	793.50
507.14	812.09
507.50	831.10
507.86	850.53
508.22	870.62
508.59	890.53
508.95	911.27
509.31	932.16
509.67	953.87
510.03	976.12
510.39	998.99
510.75	1022.17
511.12	1045.46
511.48	1068.89
511.84	1092.86
512.20	1116.83
512.56	1141.59
512.92	1167.01
513.28	1191.84
513.64	1217.38
514.00	1243.18
514.37	1269.12
514.73	1295.80
515.09	1322.47
515.45	1349.14
515.81	1375.87
516.17	1403.10
516.53	1430.33
516.89	1457.71
517.25	1484.69
517.61	1511.95
517.97	1538.83
518.33	1566.19
518.69	1593.50
519.05	1621.41
519.41	1649.20
519.77	1677.41
520.13	1704.83
520.49	1731.95
520.85	1759.55
521.21	1787.34
521.57	1815.36
521.93	1842.14
522.29	1870.11
522.65	1897.94
523.01	1925.54
523.37	1952.48
523.73	1979.77
524.09	2006.95
524.45	2034.22
524.81	2061.76
525.17	2089.24
525.53	2116.51
525.89	2143.54
526.25	2170.26
526.61	2195.83
526.97	2221.69
527.33	2247.21
527.68	2273.58
528.04	2298.87
528.40	2323.22
528.76	2347.76
529.12	2372.83
529.48	2398.90
529.84	2423.24
530.20	2447.25
530.56	2471.54
530.91	2496.62
531.27	2520.86
531.63	2544.61
531.99	2567.98
532.35	2590.45
532.71	2612.44
533.07	2635.03
533.42	2656.50
533.78	2678.51
534.14	2700.16
534.50	2720.50
534.86	2741.45
535.21	2760.48
535.57	2781.35
535.93	2801.49
536.29	2820.82
536.65	2839.72
537.00	2857.11
537.36	2874.39
537.72	2891.44
538.08	2908.09
538.44	2924.52
538.79	2940.93
539.15	2957.21
539.51	2972.98
539.87	2989.52
540.22	3004.99
540.58	3020.60
540.94	3035.90
541.29	3048.92
541.65	3061.84
542.01	3075.56
542.37	3088.25
542.72	3101.35
543.08	3112.57
543.44	3125.22
543.79	3136.25
544.15	3146.18
544.51	3157.57
544.87	3168.56
545.22	3178.58
545.58	3187.68
545.94	3195.24
546.29	3202.32
546.65	3208.77
547.01	3215.53
547.36	3221.27
547.72	3227.04
548.07	3231.35
548.43	3235.34
548.79	3240.31
549.14	3244.80
549.50	3248.71
549.86	3251.65
550.21	3254.95
550.57	3258.44
550.92	3259.63
551.28	3261.25
551.64	3263.66
551.99	3265.60
552.35	3266.34
552.70	3267.56
553.06	3268.88
553.41	3270.25
553.77	3271.10
554.13	3271.66
554.48	3272.32
554.84	3273.05
555.19	3272.53
555.55	3271.72
555.90	3270.45
556.26	3268.90
556.61	3267.49
556.97	3265.43
557.32	3264.06
557.68	3261.06
558.03	3258.19
558.39	3255.85
558.74	3254.59
559.10	3252.08
559.45	3248.73
559.81	3246.25
560.16	3242.38
560.52	3238.94
560.87	3235.07
561.23	3230.54
561.58	3227.07
561.94	3221.73
562.29	3215.88
562.64	3211.46
563.00	3207.50
563.35	3203.70
563.71	3200.41
564.06	3196.48
564.42	3192.65
564.77	3188.44
565.12	3184.67
565.48	3180.21
565.83	3176.27
566.19	3171.54
566.54	3165.58
566.89	3160.10
567.25	3154.62
567.60	3149.30
567.96	3143.50
568.31	3138.11
568.66	3132.25
569.02	3125.32
569.37	3118.32
569.72	3112.44
570.08	3105.45
570.43	3097.81
570.78	3090.00
571.14	3081.54
571.49	3073.15
571.84	3065.55
572.20	3056.32
572.55	3048.38
572.90	3039.14
573.26	3029.25
573.61	3019.49
573.96	3010.45
574.31	3000.22
574.67	2989.53
575.02	2978.74
575.37	2968.27
575.72	2957.12
576.08	2947.67
576.43	2937.05
576.78	2927.40
577.13	2917.79
577.49	2907.95
577.84	2897.96
578.19	2888.83
578.54	2879.94
578.90	2871.27
579.25	2860.95
579.60	2850.73
579.95	2839.34
580.30	2830.00
580.66	2820.87
581.01	2810.13
581.36	2799.29
581.71	2789.00
582.06	2779.34
582.42	2769.49
582.77	2758.73
583.12	2748.23
583.47	2738.24
583.82	2728.89
584.17	2718.85
584.53	2708.40
584.88	2697.99
585.23	2687.49
585.58	2676.70
585.93	2665.58
586.28	2655.12
586.63	2644.58
586.98	2634.76
587.34	2625.47
587.69	2614.65
588.04	2604.05
588.39	2594.52
588.74	2583.97
589.09	2574.77
589.44	2564.20
589.79	2554.70
590.14	2545.57
590.49	2536.15
590.84	2525.85
591.19	2516.75
591.54	2507.05
591.89	2495.60
592.25	2485.26
592.60	2474.78
592.95	2464.03
593.30	2452.64
593.65	2441.31
594.00	2430.75
594.35	2421.70
594.70	2410.93
595.05	2401.31
595.40	2390.93
595.75	2379.87
596.10	2370.73
596.45	2360.82
596.80	2351.84
597.15	2342.64
597.50	2332.25
597.85	2322.87
598.19	2312.46
598.54	2302.05
598.89	2292.43
599.24	2284.42
599.59	2275.75
599.94	2267.94
600.29	2259.46
600.64	2251.32
600.99	2242.00
601.34	2233.73
601.69	2223.57
602.04	2214.30
602.39	2204.95
602.74	2196.13
603.08	2188.59
603.43	2180.84
603.78	2171.94
604.13	2162.88
604.48	2153.90
604.83	2146.75
605.18	2139.43
605.53	2131.20
605.87	2122.26
606.22	2113.86
606.57	2104.91
606.92	2095.50
607.27	2085.76
607.62	2076.60
607.96	2067.84
608.31	2060.01
608.66	2050.35
609.01	2041.07
609.36	2032.24
609.70	2022.56
610.05	2012.99
610.40	2003.33
610.75	1992.85
611.10	1983.84
611.44	1972.64
611.79	1961.99
612.14	1950.77
612.49	1938.94
612.83	1928.81
613.18	1918.20
613.53	1907.71
613.88	1896.32
614.22	1886.46
614.57	1876.00
614.92	1865.54
615.27	1854.60
615.61	1843.78
615.96	1833.90
616.31	1824.43
616.65	1814.90
617.00	1805.44
617.35	1795.82
617.70	1785.18
618.04	1774.42
618.39	1762.89
618.74	1753.65
619.08	1743.28
619.43	1733.55
619.78	1724.45
620.12	1714.89
620.47	1705.59
620.82	1695.02
621.16	1685.15
621.51	1674.78
621.85	1665.07
622.20	1654.81
622.55	1644.98
622.89	1634.99
623.24	1624.82
623.59	1614.50
623.93	1604.20
624.28	1594.60
624.62	1584.67
624.97	1575.38
625.32	1566.66
625.66	1557.86
626.01	1548.69
626.35	1540.12
626.70	1530.75
627.04	1521.74
627.39	1512.43
627.73	1503.23
628.08	1494.95
628.43	1485.84
628.77	1476.98
629.12	1467.76
629.46	1459.82
629.81	1451.32
630.15	1442.55
630.50	1434.00
630.84	1424.87
631.19	1416.28
631.53	1407.62
631.88	1398.49
632.22	1389.39
632.57	1380.62
632.91	1372.02
633.26	1363.26
633.60	1354.44
633.95	1346.43
634.29	1337.51
634.64	1329.43
634.98	1320.93
635.32	1312.42
635.67	1305.08
636.01	1297.11
636.36	1288.90
636.70	1280.78
637.05	1272.69
637.39	1264.96
637.73	1257.34
638.08	1250.56
638.42	1243.29
638.77	1235.62
639.11	1228.15
639.45	1220.50
639.80	1212.37
640.14	1204.03
640.49	1196.22
640.83	1188.65
641.17	1180.65
641.52	1172.89
641.86	1164.75
642.20	1156.99
642.55	1148.79
642.89	1140.47
643.23	1132.44
643.58	1125.27
643.92	1117.13
644.26	1109.44
644.61	1101.55
644.95	1093.71
645.29	1085.45
645.64	1077.46
645.98	1069.58
646.32	1062.26
646.66	1054.69
647.01	1047.37
647.35	1040.37
647.69	1032.58
648.04	1025.16
648.38	1017.69
648.72	1010.10
649.06	1002.76
649.41	995.53
649.75	988.50
650.09	981.45
650.43	974.38
650.78	966.65
651.12	959.32
651.46	952.24
651.80	945.35
652.14	938.24
652.49	931.26
652.83	923.93
653.17	916.20
653.51	908.99
653.85	902.07
654.20	895.03
654.54	887.84
654.88	881.13
655.22	874.13
655.56	867.08
655.90	860.21
656.25	853.41
656.59	846.70
656.93	840.08
657.27	833.62
657.61	826.72
657.95	820.36
658.29	813.96
658.64	807.70
658.98	801.11
659.32	794.36
659.66	788.16
660.00	781.92
660.34	775.90
660.68	769.37
661.02	763.09
661.36	757.01
661.70	751.34
662.05	745.76
662.39	740.30
662.73	734.83
663.07	729.59
663.41	724.09
663.75	718.45
664.09	712.90
664.43	707.10
664.77	701.76
665.11	696.39
665.45	691.23
665.79	685.94
666.13	680.87
666.47	675.90
666.81	670.65
667.15	665.63
667.49	661.14
667.83	656.69
668.17	652.00
668.51	647.71
668.85	643.10
669.19	638.61
669.53	633.81
669.87	629.29
670.21	624.69
670.55	620.15
670.89	616.13
671.23	612.05
671.57	608.02
671.91	603.75
672.25	599.58
672.58	595.41
672.92	591.34
673.26	587.35
673.60	583.63
673.94	579.66
674.28	575.85
674.62	572.09
674.96	568.23
675.30	564.57
675.64	560.60
675.97	556.91
676.31	553.28
676.65	549.60
676.99	546.14
677.33	542.38
677.67	538.66
678.01	534.91
678.34	531.44
678.68	527.98
679.02	524.65
679.36	521.47
679.70	518.13
680.04	514.67
680.37	511.36
680.71	507.84
681.05	504.73
681.39	501.57
681.73	498.25
682.06	495.36
682.40	492.34
682.74	489.17
683.08	485.99
683.42	482.82
683.75	479.82
684.09	476.65
684.43	473.78
684.77	470.95
685.10	467.88
685.44	464.75
685.78	461.84
686.12	459.04
686.45	455.99
686.79	453.15
687.13	450.44
687.46	447.66
687.80	445.11
688.14	442.25
688.48	439.64
688.81	436.83
689.15	433.93
689.49	431.18
689.82	428.64
690.16	425.89
690.50	423.00
690.83	420.41
691.17	417.70
691.51	415.05
691.84	412.58
692.18	410.23
692.52	408.01
692.85	405.84
693.19	403.71
693.52	401.47
693.86	399.09
694.20	396.87
694.53	394.60
694.87	392.21
695.21	390.07
695.54	387.57
695.88	385.37
696.21	383.18
696.55	381.13
696.88	379.04
697.22	376.93
697.56	375.11
697.89	373.09
698.23	371.17
698.56	369.30
698.90	367.38
699.23	365.44
699.57	363.34
699.90	361.29
700.24	359.17
700.58	357.27
700.91	355.62
701.25	354.00
701.58	352.26
701.92	350.62
702.25	348.90
702.59	347.28
702.92	345.64
703.26	343.98
703.59	342.26
703.93	340.93
704.26	339.49
704.60	337.90
704.93	336.29
705.26	334.73
705.60	333.29
705.93	331.72
706.27	330.32
706.60	329.07
706.94	327.78
707.27	326.34
707.61	324.85
707.94	323.37
708.27	321.70
708.61	320.19
708.94	318.78
709.28	317.43
709.61	316.15
709.94	314.96
710.28	313.76
710.61	312.58
710.95	311.00
711.28	309.99
711.61	308.82
711.95	307.78
712.28	306.64
712.61	305.46
712.95	304.59
713.28	303.62
713.61	302.39
713.95	301.10
714.28	300.15
714.61	299.16
714.95	298.08
715.28	297.07
715.61	296.07
715.95	295.01
716.28	293.99
716.61	293.03
716.95	292.00
717.28	291.04
717.61	290.16
717.94	289.28
718.28	288.14
718.61	287.25
718.94	286.28
719.27	285.40
719.61	284.61
719.94	283.66
720.27	282.61
720.60	281.86
720.94	281.02
721.27	280.17
721.60	279.44
721.93	278.65
722.27	278.01
722.60	277.33
722.93	276.62
723.26	275.92
723.59	275.13
723.93	274.41
724.26	273.69
724.59	272.89
724.92	272.17
725.25	271.55
725.59	270.88
725.92	270.29
726.25	269.71
726.58	268.96
726.91	268.30
727.24	267.75
727.57	267.16
727.91	266.53
728.24	265.91
728.57	265.34
728.90	264.82
729.23	264.14
729.56	263.73
729.89	263.21
730.22	262.57
730.55	261.99
730.89	261.43
731.22	260.85
731.55	260.35
731.88	259.79
732.21	259.21
732.54	258.61
732.87	258.06
733.20	257.46
733.53	256.95
733.86	256.44
734.19	255.81
734.52	255.28
734.85	255.12
735.18	254.67
735.51	254.23
735.84	253.73
736.17	253.32
736.50	252.61
736.83	252.46
737.16	252.01
737.49	251.57
737.82	251.10
738.15	250.69
738.48	250.17
738.81	249.83
739.14	249.31
739.47	248.85
739.80	248.36
740.13	247.93
740.46	247.45
740.79	247.01
741.12	246.60
741.45	246.15
741.78	245.50
742.11	245.16
742.44	244.65
742.77	244.33
743.10	243.94
743.43	243.55
743.75	242.80
744.08	242.95
744.41	242.59
744.74	242.23
745.07	241.82
745.40	241.63
745.73	241.37
746.06	241.01
746.39	240.70
746.71	240.38
747.04	240.06
747.37	239.76
747.70	239.43
748.03	239.16
748.36	238.86
748.68	238.58
749.01	238.09
749.34	237.82
749.67	237.52
750.00	237.19
750.33	237.16
750.65	236.93
750.98	236.15
751.31	235.90
751.64	235.67
751.97	235.57
752.29	235.19
752.62	234.80
752.95	234.53
753.28	234.18
753.60	233.95
753.93	233.78
754.26	233.53
754.59	233.25
754.91	232.95
755.24	232.70
755.57	232.42
755.90	232.23
756.22	232.02
756.55	231.72
756.88	231.50
757.20	231.11
757.53	230.72
757.86	230.60
758.19	230.32
758.51	230.04
758.84	229.68
759.17	229.48
759.49	229.25
759.82	229.34
760.15	229.17
760.47	228.92
760.80	228.61
761.13	228.57
761.45	228.36
761.78	228.16
762.11	228.03
762.43	227.82
762.76	227.67
763.08	227.43
763.41	227.27
763.74	227.08
764.06	226.86
764.39	226.75
764.71	226.50
765.04	226.34
765.37	226.16
765.69	226.01
766.02	225.81
766.34	225.61
766.67	225.29
767.00	225.26
767.32	225.31
767.65	225.35
767.97	225.12
768.30	225.06
768.62	224.95
768.95	224.70
769.27	224.52
769.60	224.40
769.92	224.23
770.25	224.04
770.57	223.86
770.90	223.70
771.22	223.58
771.55	223.50
771.87	223.38
772.20	223.33
772.52	223.53
772.85	223.86
773.17	223.82
773.50	223.62
773.82	223.37
774.15	223.11
774.47	222.78
774.80	222.57
775.12	222.44
775.45	222.25
775.77	222.14
776.09	222.14
776.42	222.02
776.74	222.08
777.07	221.94
777.39	221.89
777.72	221.75
778.04	221.68
778.36	221.56
778.69	221.50
779.01	221.40
779.33	220.97
779.66	220.47
779.98	220.30
780.31	220.24
780.63	220.29
780.95	220.20
781.28	220.14
781.60	220.03
781.92	219.88
782.25	219.83
782.57	219.77
782.89	219.62
783.22	219.54
783.54	219.35
783.86	219.31
784.19	219.14
784.51	219.19
784.83	219.05
785.16	218.95
785.48	218.78
785.80	218.67
786.12	218.64
786.45	218.57
786.77	218.54
787.09	218.49
787.42	218.32
787.74	218.25
788.06	218.20
788.38	218.16
788.71	218.03
789.03	217.95
789.35	217.93
789.67	217.74
789.99	217.67
790.32	217.55
790.64	217.53
790.96	217.74
791.28	217.50
791.61	217.38
791.93	217.32
792.25	217.36
792.57	217.53
792.89	217.35
793.21	217.29
793.54	217.19
793.86	217.10
794.18	217.06
794.50	216.92
794.82	216.80
795.14	216.82
795.47	216.89
795.79	216.84
796.11	216.80
796.43	216.81
796.75	216.76
797.07	216.71
797.39	216.63
797.71	216.36
798.04	216.38
798.36	216.35
798.68	216.27
799.00	216.19
799.32	215.95
799.64	215.99
799.96	215.93
800.28	215.88
800.60	215.74
800.92	215.67
801.24	215.63
801.56	215.65
801.89	215.46
802.21	215.37
802.53	215.25
802.85	215.25
803.17	215.31
803.49	215.22
803.81	215.17
804.13	215.16
804.45	215.08
804.77	214.99
805.09	215.01
805.41	214.89
805.73	214.86
806.05	214.73
806.37	214.65
806.69	214.56
807.01	214.53
807.33	214.60
807.65	214.56
807.97	214.72
808.28	214.65
808.60	214.77
808.92	214.74
809.24	214.95
809.56	214.85
809.88	214.76
810.20	214.74
810.52	214.77
810.84	214.62
811.16	214.62
811.48	214.65
811.80	214.73
812.12	214.74
812.43	214.75
812.75	214.79
813.07	214.77
813.39	214.76
813.71	214.69
814.03	214.59
814.35	214.52
814.67	214.30
814.98	214.20
815.30	214.05
815.62	213.93
815.94	213.65
816.26	213.57
816.58	213.47
816.89	213.43
817.21	213.33
817.53	213.29
817.85	213.30
818.17	213.34
818.48	213.12
818.80	213.20
819.12	213.12
819.44	212.99
819.76	212.91
820.07	212.98
820.39	212.94
820.71	212.91
821.03	212.89
821.34	212.90
821.66	213.00
821.98	213.02
822.30	213.00
822.61	213.23
822.93	213.25
823.25	213.27
823.57	213.26
823.88	213.31
824.20	213.40
824.52	213.42
824.83	213.37
825.15	213.38
825.47	213.30
825.79	213.29
826.10	213.36
826.42	213.36
826.74	213.39
827.05	213.44
827.37	213.49
827.69	213.48
828.00	213.47
828.32	213.44
828.64	213.43
828.95	213.65
829.27	213.55
829.58	213.56
829.90	213.62
830.22	213.65
830.53	213.52
830.85	213.45
831.17	213.36
831.48	213.36
831.80	213.39
832.11	213.40
832.43	213.32
832.75	213.26
833.06	213.41
833.38	213.23
833.69	213.21
834.01	213.14
834.32	213.13
834.64	213.11
834.96	213.10
835.27	213.07
835.59	212.93
835.90	212.83
836.22	212.78
836.53	212.74
836.85	212.70
837.16	213.08
837.48	213.06
837.79	213.17
838.11	213.16
838.42	213.14
838.74	213.17
839.05	213.14
839.37	213.09
839.68	212.88
840.00	212.93
840.31	212.89
840.63	212.88
840.94	212.82
841.26	212.80
841.57	212.77
841.88	212.81
842.20	212.78
842.51	212.77
842.83	212.76
843.14	213.05
843.46	213.12
843.77	212.85
844.08	212.84
844.40	212.72
844.71	212.66
845.03	212.64
845.34	212.56
845.65	212.58
845.97	212.66
846.28	212.74
846.60	212.68
846.91	212.68
847.22	212.67
847.54	212.74
847.85	212.73
848.16	212.64
848.48	212.59
848.79	212.73
849.10	212.75
849.42	212.73
849.73	212.32
850.04	212.24
850.36	212.19
850.67	212.19
850.98	212.12
851.30	212.07
851.61	212.09
851.92	212.08
852.23	212.22
852.55	212.21
852.86	212.18
853.17	212.21
853.49	212.29
853.80	212.40
854.11	212.48
854.42	212.53
854.74	212.56
855.05	212.57
855.36	212.40
855.67	212.40
855.99	212.41
856.30	212.89
856.61	212.86
856.92	212.85
857.23	212.89
857.55	212.94
857.86	212.93
858.17	212.90
858.48	212.88
858.79	212.80
859.11	212.78
859.42	212.77
859.73	212.70
860.04	212.64
860.35	212.56
860.66	212.44
860.98	212.41
861.29	212.45
861.60	212.36
861.91	212.40
862.22	212.33
862.53	212.28
862.84	211.83
863.16	211.93
863.47	211.87
863.78	211.84
864.09	211.78
864.40	211.81
864.71	211.86
865.02	211.85
865.33	211.76
865.64	211.70
865.95	211.72
866.27	211.99
866.58	211.97
866.89	211.98
867.20	211.89
867.51	211.84
867.82	211.79
868.13	211.94
868.44	211.83
868.75	211.91
869.06	211.89
869.37	211.93
869.68	211.75
869.99	211.81
870.30	211.81
870.61	211.88
870.92	211.86
871.23	211.78
871.54	211.78
871.85	211.92
872.16	211.98
872.47	211.81
872.78	211.60
873.09	211.59
873.40	211.54
873.71	211.62
874.02	211.70
874.33	211.62
874.64	211.49
874.95	211.60
875.26	211.59
875.56	211.59
875.87	211.59
876.18	211.74
876.49	212.00
876.80	212.01
877.11	211.92
877.42	211.94
877.73	212.00
878.04	212.01
878.35	211.96
878.66	211.99
878.96	212.11
879.27	212.09
879.58	212.07
879.89	212.11
880.20	212.21
880.51	212.17
880.82	212.31
881.12	212.31
881.43	212.24
881.74	212.15
882.05	212.19
882.36	212.17
882.67	212.13
882.97	211.81
883.28	211.80
883.59	211.87
883.90	211.90
884.21	211.92
884.51	211.96
884.82	211.96
885.13	211.90
885.44	211.89
885.74	211.89
886.05	211.93
886.36	212.00
886.67	211.93
886.98	212.06
887.28	211.97
887.59	212.07
887.90	212.10
888.20	212.08
888.51	212.11
888.82	212.15
889.13	212.18
889.43	212.49
889.74	212.36
890.05	212.27
890.35	212.19
890.66	212.16
890.97	212.12
891.28	212.15
891.58	212.16
891.89	212.19
892.20	212.18
892.50	212.14
892.81	212.05
893.12	212.02
893.42	211.88
893.73	211.93
894.04	211.94
894.34	211.92
894.65	211.96
894.95	211.92
895.26	211.85
895.57	211.95
895.87	211.61
896.18	211.79
896.48	211.89
896.79	211.94
897.10	211.94
897.40	211.94
897.71	211.87
898.01	211.84
898.32	211.83
898.63	211.80
898.93	211.80
899.24	211.78
899.54	211.74
899.85	211.70
900.15	211.70
900.46	211.69
900.76	211.73
901.07	211.70
901.38	211.66
901.68	211.73
901.99	211.50
902.29	211.53
902.60	211.44
902.90	211.37
903.21	211.34
903.51	211.29
903.82	211.34
904.12	211.35
904.43	211.40
904.73	211.42
905.03	211.40
905.34	211.74
905.64	211.74
905.95	211.71
906.25	211.79
906.56	211.79
906.86	211.73
907.17	211.73
907.47	211.72
907.77	211.74
908.08	211.70
908.38	211.76
908.69	211.83
908.99	211.85
909.30	211.93
909.60	211.94
909.90	211.95
910.21	211.83
910.51	211.81
910.81	211.76
911.12	211.80
911.42	211.81
911.73	211.46
912.03	211.48
912.33	211.55
912.64	211.48
912.94	211.42
913.24	211.38
913.55	211.40
913.85	211.42
914.15	211.46
914.46	211.44
914.76	211.45
915.06	211.39
915.37	211.37
915.67	211.31
915.97	211.29
916.27	211.24
916.58	211.19
916.88	211.13
917.18	211.16
917.49	211.31
917.79	211.32
918.09	211.39
918.39	211.47
918.70	211.50
919.00	211.56
919.30	211.71
919.60	211.73
919.91	211.63
920.21	211.68
920.51	211.63
920.81	211.62
921.12	211.66
921.42	211.65
921.72	211.74
922.02	211.74
922.32	211.81
922.63	211.90
922.93	212.09
923.23	212.14
923.53	212.09
923.83	211.90
924.13	211.97
924.44	211.88
924.74	211.93
925.04	211.92
925.34	211.86
925.64	211.75
925.94	211.68
926.24	211.81
926.55	211.71
926.85	211.71
927.15	211.67
927.45	211.67
927.75	211.65
928.05	211.63
928.35	211.60
928.65	211.63
928.95	211.60
929.26	211.53
929.56	211.60
929.86	211.61
930.16	211.56
930.46	211.50
930.76	211.54
931.06	211.38
931.36	211.30
931.66	211.43
931.96	211.36
932.26	211.38
932.56	211.26
932.86	211.29
933.16	211.34
933.46	211.29
933.76	211.22
934.06	211.24
934.36	211.33
934.66	211.32
934.96	211.25
935.26	211.26
935.56	211.26
935.86	211.18
936.16	211.16
936.46	211.17
936.76	211.08
937.06	210.96
937.36	210.97
937.66	210.92
937.96	210.81
938.26	210.79
938.56	210.80
938.86	210.87
939.16	210.98
939.46	211.03
939.76	211.10
940.06	211.05
940.35	211.03
940.65	210.81
940.95	210.90
941.25	210.85
941.55	210.83
941.85	210.84
942.15	210.94
942.45	210.97
942.75	210.94
943.04	211.05
943.34	211.19
943.64	211.20
943.94	211.23
944.24	211.30
944.54	211.37
944.84	211.36
945.13	211.30
945.43	211.19
945.73	211.12
946.03	211.12
946.33	211.14
946.62	211.15
946.92	211.17
947.22	211.17
947.52	211.19
947.82	211.16
948.11	211.09
948.41	210.96
948.71	210.90
949.01	210.96
949.31	210.91
949.60	210.92
949.90	210.91
950.20	210.89
950.50	210.88
950.79	210.76
951.09	210.80
951.39	210.78
951.69	210.74
951.98	210.78
952.28	210.74
952.58	210.75
952.87	210.80
953.17	210.80
953.47	210.71
953.76	210.79
954.06	210.76
954.36	210.78
954.66	210.79
954.95	210.91
955.25	210.91
955.55	210.91
955.84	210.82
956.14	210.84
956.44	210.90
956.73	210.82
957.03	210.92
957.32	210.98
957.62	211.00
957.92	211.17
958.21	211.17
958.51	211.64
958.81	211.77
959.10	211.72
959.40	211.85
959.69	211.91
959.99	211.92
960.29	211.93
960.58	211.93
960.88	212.05
961.17	212.03
961.47	212.14
961.76	212.16
962.06	212.21
962.36	212.23
962.65	212.25
962.95	212.24
963.24	212.19
963.54	212.17
963.83	212.08
964.13	212.06
964.42	211.97
964.72	211.60
965.01	211.53
965.31	211.53
965.60	211.40
965.90	211.64
966.19	211.56
966.49	211.60
966.78	211.48
967.08	211.50
967.37	211.55
967.67	211.39
967.96	211.42
968.26	211.40
968.55	211.43
968.85	211.43
969.14	211.49
969.43	211.52
969.73	211.50
970.02	211.60
970.32	211.49
970.61	211.45
970.91	211.40
971.20	211.39
971.49	211.41
971.79	211.49
972.08	211.27
972.38	211.24
972.67	211.23
972.96	211.42
973.26	211.30
973.55	211.43
973.85	211.54
974.14	211.47
974.43	211.51
974.73	211.47
975.02	211.40
975.31	211.38
975.61	211.39
975.90	211.30
976.19	211.27
976.49	211.40
976.78	211.46
977.07	211.42
977.37	211.41
977.66	211.39
977.95	211.34
978.24	211.30
978.54	211.43
978.83	211.36
979.12	211.34
979.42	211.38
979.71	211.18
980.00	211.06
980.29	211.13
980.59	211.12
980.88	211.21
981.17	211.18
981.46	211.17
981.76	211.12
982.05	211.37
982.34	211.30
982.63	211.25
982.93	211.20
983.22	211.30
983.51	211.29
983.80	211.38
984.09	211.48
984.39	211.46
984.68	211.39
984.97	211.46
985.26	211.40
985.55	211.38
985.85	211.43
986.14	211.55
986.43	211.62
986.72	211.55
987.01	211.45
987.30	211.53
987.59	211.55
987.89	211.58
988.18	211.37
988.47	211.38
988.76	211.36
989.05	211.43
989.34	211.41
989.63	211.52
989.92	211.46
990.22	211.35
990.51	211.29
990.80	211.31
991.09	211.35
991.38	211.38
991.67	211.33
991.96	211.26
992.25	211.24
992.54	211.10
992.83	211.09
993.12	211.05
993.41	211.12
993.70	211.28
993.99	211.38
994.28	211.44
994.58	211.45
994.87	211.36
995.16	211.38
995.45	211.36
995.74	211.25
996.03	211.29
996.32	211.35
996.61	211.43
996.90	211.43
997.19	211.38
997.48	211.40
997.77	211.41
998.06	211.47
998.34	211.44
998.63	211.41
998.92	211.43
999.21	211.47
999.50	211.42
999.79	211.23
1000.08	211.11
1000.37	211.11
1000.66	211.17
1000.95	211.29
1001.24	211.19
1001.53	211.18
1001.82	211.15
1002.11	211.02
1002.40	210.99
1002.68	211.10
1002.97	211.27
1003.26	211.26
1003.55	211.26
1003.84	211.34
1004.13	211.34
1004.42	211.32
1004.71	211.33
1004.99	211.33
1005.28	211.44
1005.57	211.36
1005.86	211.37
1006.15	211.47
1006.44	211.40
1006.72	211.40
1007.01	211.33
1007.30	211.39
1007.59	211.36
1007.88	211.34
1008.17	211.39
1008.45	211.33
1008.74	211.18
1009.03	210.98
1009.32	210.97
1009.60	210.94
1009.89	210.82
1010.18	210.75
1010.47	210.74
1010.76	210.73
1011.04	210.75
1011.33	210.76
1011.62	210.79
1011.91	210.74
1012.19	210.66
1012.48	210.76
1012.77	210.73
1013.05	210.87
1013.34	210.83
1013.63	210.77
1013.92	210.83
1014.20	210.80
1014.49	210.82
1014.78	210.85
1015.06	210.78
1015.35	210.84
1015.64	210.83
1015.92	210.97
1016.21	210.99
1016.50	210.95
1016.78	211.02
1017.07	210.99
1017.36	210.91
1017.64	210.95
1017.93	211.03
1018.22	211.03
1018.50	211.00
1018.79	211.01
1019.08	210.89
1019.36	210.93
1019.65	210.94
1019.93	211.01
1020.22	211.16
1020.51	211.32
1020.79	211.26
1021.08	210.55
1021.36	210.85
1021.65	211.30
1021.94	210.90
1022.22	211.55
1022.51	209.70
1022.79	212.35
1023.08	213.15
1023.36	214.30
1023.65	209.70
>>>>>End Processed Spectral Data<<<<<
