SpectraSuite Data File
++++++++++++++++++++++++++++++++++++
Date: Mon Feb 25 17:07:29 EST 2013
User: group
Dark Spectrum Present: No
Reference Spectrum Present: No
Number of Sampled Component Spectra: 1
Spectrometers: USB2E7196
Integration Time (usec): 104000 (USB2E7196)
Spectra Averaged: 20 (USB2E7196)
Boxcar Smoothing: 10 (USB2E7196)
Correct for Electrical Dark: No (USB2E7196)
Strobe/Lamp Enabled: No (USB2E7196)
Correct for Detector Non-linearity: No (USB2E7196)
Correct for Stray Light: No (USB2E7196)
Number of Pixels in Processed Spectrum: 2048
>>>>>Begin Processed Spectral Data<<<<<
339.09	0.00
339.48	198.20
339.86	200.20
340.24	199.95
340.63	202.70
341.01	209.10
341.39	205.00
341.78	208.10
342.16	209.65
342.54	208.00
342.93	198.17
343.31	208.16
343.69	208.72
344.07	209.22
344.46	209.74
344.84	210.17
345.22	210.23
345.60	210.46
345.99	210.56
346.37	210.56
346.75	210.64
347.13	210.70
347.52	210.71
347.90	210.85
348.28	210.86
348.66	210.86
349.05	210.73
349.43	210.85
349.81	210.91
350.19	211.02
350.57	211.03
350.96	211.17
351.34	211.27
351.72	211.40
352.10	211.44
352.48	211.49
352.87	211.53
353.25	211.54
353.63	211.66
354.01	211.74
354.39	211.91
354.77	212.03
355.15	212.18
355.54	212.25
355.92	212.21
356.30	212.31
356.68	212.60
357.06	212.67
357.44	212.56
357.82	212.61
358.20	212.67
358.58	212.69
358.97	212.73
359.35	212.80
359.73	212.86
360.11	212.91
360.49	212.91
360.87	212.83
361.25	212.93
361.63	213.05
362.01	213.08
362.39	213.07
362.77	213.11
363.15	213.10
363.53	213.10
363.91	213.11
364.29	213.15
364.67	212.80
365.05	212.87
365.43	212.99
365.81	213.07
366.19	213.12
366.57	213.22
366.95	213.16
367.33	213.08
367.71	213.04
368.09	213.06
368.47	213.08
368.85	213.15
369.23	213.21
369.61	213.01
369.99	213.15
370.37	213.12
370.75	213.26
371.13	213.14
371.51	213.05
371.89	213.06
372.27	212.99
372.65	212.98
373.03	212.94
373.41	212.86
373.78	212.73
374.16	212.55
374.54	212.35
374.92	212.25
375.30	212.25
375.68	212.09
376.06	212.08
376.44	211.96
376.82	211.93
377.19	211.87
377.57	211.84
377.95	211.65
378.33	211.63
378.71	211.37
379.09	211.43
379.47	211.45
379.84	211.38
380.22	211.35
380.60	211.33
380.98	211.27
381.36	211.20
381.73	211.15
382.11	211.17
382.49	211.25
382.87	211.17
383.25	211.13
383.62	211.58
384.00	211.46
384.38	211.40
384.76	211.38
385.13	211.43
385.51	211.34
385.89	211.24
386.27	211.25
386.64	211.28
387.02	211.15
387.40	211.12
387.78	211.14
388.15	211.13
388.53	211.06
388.91	210.99
389.29	211.02
389.66	211.06
390.04	210.97
390.42	210.95
390.79	210.97
391.17	210.91
391.55	210.42
391.92	210.39
392.30	210.47
392.68	210.40
393.05	210.35
393.43	210.44
393.81	210.40
394.18	210.27
394.56	210.21
394.94	210.35
395.31	210.32
395.69	210.40
396.06	210.46
396.44	210.41
396.82	210.39
397.19	210.54
397.57	210.56
397.95	210.63
398.32	210.55
398.70	210.61
399.07	210.67
399.45	210.70
399.82	210.75
400.20	210.77
400.58	210.78
400.95	210.67
401.33	210.73
401.70	211.07
402.08	211.14
402.45	211.17
402.83	211.27
403.20	211.23
403.58	211.14
403.95	211.16
404.33	211.36
404.71	211.47
405.08	211.61
405.46	211.64
405.83	211.75
406.21	211.83
406.58	211.88
406.96	212.03
407.33	212.26
407.70	212.40
408.08	212.79
408.45	213.01
408.83	213.28
409.20	213.41
409.58	213.36
409.95	213.60
410.33	213.83
410.70	213.90
411.08	214.29
411.45	214.55
411.82	214.81
412.20	215.11
412.57	215.55
412.95	215.61
413.32	215.96
413.69	216.33
414.07	216.74
414.44	217.18
414.82	217.69
415.19	218.25
415.56	218.87
415.94	219.23
416.31	219.95
416.68	220.58
417.06	221.42
417.43	222.22
417.81	223.06
418.18	223.97
418.55	225.00
418.93	225.99
419.30	227.00
419.67	228.11
420.04	229.22
420.42	230.35
420.79	231.99
421.16	233.39
421.54	234.98
421.91	236.46
422.28	237.95
422.66	239.56
423.03	241.24
423.40	242.79
423.77	244.60
424.15	246.34
424.52	248.24
424.89	250.18
425.26	252.13
425.64	253.93
426.01	255.93
426.38	258.07
426.75	260.32
427.13	262.62
427.50	265.04
427.87	267.54
428.24	269.98
428.61	272.17
428.99	274.91
429.36	277.61
429.73	280.39
430.10	283.24
430.47	286.02
430.85	288.79
431.22	291.90
431.59	295.28
431.96	298.37
432.33	301.85
432.70	305.35
433.08	309.35
433.45	313.31
433.82	317.24
434.19	321.34
434.56	325.44
434.93	329.39
435.30	333.28
435.68	337.69
436.05	342.03
436.42	346.26
436.79	350.29
437.16	354.53
437.53	358.96
437.90	363.42
438.27	367.89
438.64	372.55
439.01	376.87
439.38	380.62
439.75	384.36
440.13	388.50
440.50	392.50
440.87	395.69
441.24	398.91
441.61	402.51
441.98	405.36
442.35	408.50
442.72	411.77
443.09	415.15
443.46	416.96
443.83	418.41
444.20	419.71
444.57	421.22
444.94	422.06
445.31	423.08
445.68	424.37
446.05	424.79
446.42	424.53
446.79	424.26
447.16	423.90
447.53	423.82
447.90	422.42
448.27	420.87
448.64	418.75
449.01	417.24
449.37	414.41
449.74	411.72
450.11	408.78
450.48	405.16
450.85	401.15
451.22	398.14
451.59	395.09
451.96	392.16
452.33	388.42
452.70	384.91
453.07	380.72
453.43	376.08
453.80	372.03
454.17	368.09
454.54	364.35
454.91	360.32
455.28	356.24
455.65	352.55
456.02	349.37
456.38	346.31
456.75	342.47
457.12	339.33
457.49	336.14
457.86	332.78
458.23	330.22
458.59	327.43
458.96	324.46
459.33	321.85
459.70	319.28
460.07	317.17
460.43	314.85
460.80	312.60
461.17	310.84
461.54	308.77
461.91	306.81
462.27	304.66
462.64	302.88
463.01	301.05
463.38	299.38
463.74	297.03
464.11	295.39
464.48	293.99
464.85	292.44
465.21	291.30
465.58	290.00
465.95	288.46
466.32	287.27
466.68	286.04
467.05	284.71
467.42	283.44
467.78	282.04
468.15	280.76
468.52	279.85
468.88	278.47
469.25	277.32
469.62	276.48
469.98	275.54
470.35	274.71
470.72	273.78
471.08	272.71
471.45	271.97
471.82	271.24
472.18	270.42
472.55	269.80
472.92	268.98
473.28	268.33
473.65	267.67
474.02	266.97
474.38	266.49
474.75	266.20
475.11	265.60
475.48	265.25
475.85	264.89
476.21	264.56
476.58	264.23
476.94	264.07
477.31	263.70
477.67	263.55
478.04	263.27
478.41	263.14
478.77	263.32
479.14	263.07
479.50	262.95
479.87	262.95
480.23	262.84
480.60	262.74
480.96	262.70
481.33	262.85
481.69	262.82
482.06	262.82
482.42	262.84
482.79	263.04
483.15	263.11
483.52	263.32
483.88	263.42
484.25	263.58
484.61	263.68
484.98	263.89
485.34	264.14
485.71	264.48
486.07	264.84
486.44	264.86
486.80	265.29
487.17	265.75
487.53	266.24
487.90	266.84
488.26	267.52
488.62	268.16
488.99	268.72
489.35	269.50
489.72	270.14
490.08	270.76
490.44	271.36
490.81	272.19
491.17	272.85
491.54	273.71
491.90	274.68
492.26	275.62
492.63	276.61
492.99	277.64
493.36	278.73
493.72	279.81
494.08	280.93
494.45	282.13
494.81	283.31
495.17	284.48
495.54	285.67
495.90	286.92
496.26	288.24
496.63	289.52
496.99	290.82
497.35	292.23
497.72	293.67
498.08	295.26
498.44	296.80
498.80	298.54
499.17	300.09
499.53	301.62
499.89	303.35
500.26	304.91
500.62	306.55
500.98	308.24
501.34	309.97
501.71	311.73
502.07	313.50
502.43	315.17
502.79	316.92
503.16	318.80
503.52	320.59
503.88	322.37
504.24	324.37
504.60	326.46
504.97	328.51
505.33	330.42
505.69	332.68
506.05	334.81
506.41	336.86
506.78	338.99
507.14	341.01
507.50	343.15
507.86	345.41
508.22	347.70
508.59	349.92
508.95	352.25
509.31	354.75
509.67	357.16
510.03	359.61
510.39	362.09
510.75	364.43
511.12	366.84
511.48	369.34
511.84	371.79
512.20	374.11
512.56	376.61
512.92	379.33
513.28	381.73
513.64	384.15
514.00	386.63
514.37	389.23
514.73	392.01
515.09	394.63
515.45	397.24
515.81	399.84
516.17	402.54
516.53	405.09
516.89	407.63
517.25	410.26
517.61	413.06
517.97	415.71
518.33	418.59
518.69	421.43
519.05	424.30
519.41	427.24
519.77	430.45
520.13	433.28
520.49	436.10
520.85	439.05
521.21	442.25
521.57	445.35
521.93	448.21
522.29	451.28
522.65	454.25
523.01	457.40
523.37	460.35
523.73	463.59
524.09	466.98
524.45	470.16
524.81	473.45
525.17	476.85
525.53	480.25
525.89	483.59
526.25	487.02
526.61	490.21
526.97	493.44
527.33	496.74
527.68	500.51
528.04	504.08
528.40	507.51
528.76	510.94
529.12	514.61
529.48	518.42
529.84	521.98
530.20	525.75
530.56	529.48
530.91	533.40
531.27	537.09
531.63	540.71
531.99	544.41
532.35	548.04
532.71	551.68
533.07	555.51
533.42	559.54
533.78	563.31
534.14	567.05
534.50	570.70
534.86	574.49
535.21	578.05
535.57	581.89
535.93	585.51
536.29	589.51
536.65	593.18
537.00	596.75
537.36	600.35
537.72	603.99
538.08	607.63
538.44	611.17
538.79	614.76
539.15	618.40
539.51	622.19
539.87	625.85
540.22	629.34
540.58	633.15
540.94	636.54
541.29	639.98
541.65	643.52
542.01	647.27
542.37	650.59
542.72	653.92
543.08	657.17
543.44	660.75
543.79	663.61
544.15	666.93
544.51	670.57
544.87	674.11
545.22	677.29
545.58	680.38
545.94	683.48
546.29	686.43
546.65	689.31
547.01	692.18
547.36	695.18
547.72	698.13
548.07	700.55
548.43	703.16
548.79	705.62
549.14	708.26
549.50	710.79
549.86	713.35
550.21	715.83
550.57	718.44
550.92	720.67
551.28	723.08
551.64	725.38
551.99	727.37
552.35	729.13
552.70	731.18
553.06	733.31
553.41	735.43
553.77	737.87
554.13	739.81
554.48	741.91
554.84	743.88
555.19	745.61
555.55	747.58
555.90	749.30
556.26	751.17
556.61	752.70
556.97	754.15
557.32	755.65
557.68	757.08
558.03	758.40
558.39	759.70
558.74	761.48
559.10	762.76
559.45	764.34
559.81	766.09
560.16	767.24
560.52	768.64
560.87	769.87
561.23	770.76
561.58	772.38
561.94	773.31
562.29	774.27
562.64	775.43
563.00	776.38
563.35	777.63
563.71	778.93
564.06	780.11
564.42	781.20
564.77	782.27
565.12	783.47
565.48	784.75
565.83	786.04
566.19	786.93
566.54	787.78
566.89	788.35
567.25	789.19
567.60	790.20
567.96	791.03
568.31	791.77
568.66	792.43
569.02	792.51
569.37	792.66
569.72	793.00
570.08	793.30
570.43	793.57
570.78	793.31
571.14	793.03
571.49	792.88
571.84	792.85
572.20	792.68
572.55	792.56
572.90	791.97
573.26	791.31
573.61	790.72
573.96	790.11
574.31	789.44
574.67	788.47
575.02	787.62
575.37	786.51
575.72	785.58
576.08	784.96
576.43	783.98
576.78	783.37
577.13	782.76
577.49	782.10
577.84	781.15
578.19	780.73
578.54	780.17
578.90	779.68
579.25	779.09
579.60	777.95
579.95	776.76
580.30	775.85
580.66	775.17
581.01	774.06
581.36	773.16
581.71	772.25
582.06	771.52
582.42	770.82
582.77	769.85
583.12	768.90
583.47	767.86
583.82	767.19
584.17	766.22
584.53	765.49
584.88	764.34
585.23	763.48
585.58	762.25
585.93	761.20
586.28	760.17
586.63	758.75
586.98	757.97
587.34	757.36
587.69	756.40
588.04	755.25
588.39	754.33
588.74	753.21
589.09	752.35
589.44	751.04
589.79	749.83
590.14	748.81
590.49	747.58
590.84	746.17
591.19	745.22
591.54	744.07
591.89	742.26
592.25	741.14
592.60	739.53
592.95	738.14
593.30	736.54
593.65	735.08
594.00	733.60
594.35	732.89
594.70	731.02
595.05	729.53
595.40	728.13
595.75	726.54
596.10	725.14
596.45	723.55
596.80	722.49
597.15	721.18
597.50	719.54
597.85	718.31
598.19	716.85
598.54	715.15
598.89	713.82
599.24	712.67
599.59	711.16
599.94	710.16
600.29	708.80
600.64	707.49
600.99	706.06
601.34	704.91
601.69	702.88
602.04	701.40
602.39	700.02
602.74	698.72
603.08	697.62
603.43	696.63
603.78	695.16
604.13	693.69
604.48	692.24
604.83	691.43
605.18	690.37
605.53	688.98
605.87	687.62
606.22	686.31
606.57	684.88
606.92	683.33
607.27	681.77
607.62	680.41
607.96	679.21
608.31	677.96
608.66	676.28
609.01	674.68
609.36	673.16
609.70	671.52
610.05	669.58
610.40	667.83
610.75	665.93
611.10	664.52
611.44	662.41
611.79	660.59
612.14	658.42
612.49	656.07
612.83	654.25
613.18	652.31
613.53	650.22
613.88	648.21
614.22	646.34
614.57	644.24
614.92	642.10
615.27	639.83
615.61	637.68
615.96	635.75
616.31	633.71
616.65	632.21
617.00	630.24
617.35	628.35
617.70	626.23
618.04	623.98
618.39	621.63
618.74	619.74
619.08	617.47
619.43	615.53
619.78	613.53
620.12	611.44
620.47	609.42
620.82	607.12
621.16	604.71
621.51	602.78
621.85	600.71
622.20	598.69
622.55	596.59
622.89	594.19
623.24	592.10
623.59	589.83
623.93	587.37
624.28	585.31
624.62	583.49
624.97	581.63
625.32	579.53
625.66	577.62
626.01	575.47
626.35	573.54
626.70	571.35
627.04	569.58
627.39	567.48
627.73	565.55
628.08	563.85
628.43	562.01
628.77	559.77
629.12	557.78
629.46	555.82
629.81	553.96
630.15	552.01
630.50	550.03
630.84	548.03
631.19	546.01
631.53	543.98
631.88	541.62
632.22	539.35
632.57	537.66
632.91	535.51
633.26	533.60
633.60	531.68
633.95	529.72
634.29	527.48
634.64	525.72
634.98	523.47
635.32	521.49
635.67	519.69
636.01	517.78
636.36	515.74
636.70	513.93
637.05	511.83
637.39	509.99
637.73	508.14
638.08	506.60
638.42	504.95
638.77	503.21
639.11	501.38
639.45	499.48
639.80	497.21
640.14	495.21
640.49	493.27
640.83	491.28
641.17	489.42
641.52	487.47
641.86	485.41
642.20	483.82
642.55	481.70
642.89	479.59
643.23	477.64
643.58	476.03
643.92	473.96
644.26	472.13
644.61	470.28
644.95	468.26
645.29	466.24
645.64	464.16
645.98	462.30
646.32	460.54
646.66	458.54
647.01	456.74
647.35	455.04
647.69	453.14
648.04	451.38
648.38	449.50
648.72	447.70
649.06	445.96
649.41	443.87
649.75	442.09
650.09	440.44
650.43	438.64
650.78	436.58
651.12	434.82
651.46	433.03
651.80	431.23
652.14	429.55
652.49	427.70
652.83	425.91
653.17	423.95
653.51	422.10
653.85	420.53
654.20	418.87
654.54	417.12
654.88	415.35
655.22	413.57
655.56	411.71
655.90	409.97
656.25	408.11
656.59	406.45
656.93	404.81
657.27	403.10
657.61	401.28
657.95	399.68
658.29	397.91
658.64	396.44
658.98	394.76
659.32	392.84
659.66	391.24
660.00	389.43
660.34	387.70
660.68	385.95
661.02	384.20
661.36	382.59
661.70	380.93
662.05	379.33
662.39	377.85
662.73	376.44
663.07	374.99
663.41	373.48
663.75	371.96
664.09	370.32
664.43	368.67
664.77	367.29
665.11	365.73
665.45	364.43
665.79	362.81
666.13	361.37
666.47	360.01
666.81	358.56
667.15	357.18
667.49	355.96
667.83	354.77
668.17	353.43
668.51	352.13
668.85	350.90
669.19	349.79
669.53	348.45
669.87	347.17
670.21	345.90
670.55	344.67
670.89	343.66
671.23	342.57
671.57	341.48
671.91	340.31
672.25	339.18
672.58	337.96
672.92	336.81
673.26	335.75
673.60	334.62
673.94	333.54
674.28	332.54
674.62	331.54
674.96	330.39
675.30	329.39
675.64	328.18
675.97	326.98
676.31	325.89
676.65	324.81
676.99	323.95
677.33	322.81
677.67	321.70
678.01	320.47
678.34	319.43
678.68	318.41
679.02	317.30
679.36	316.29
679.70	315.19
680.04	314.11
680.37	313.03
680.71	312.00
681.05	311.04
681.39	310.02
681.73	308.99
682.06	308.10
682.40	307.17
682.74	306.38
683.08	305.68
683.42	304.67
683.75	303.86
684.09	302.79
684.43	301.98
684.77	301.08
685.10	300.19
685.44	299.33
685.78	298.35
686.12	297.59
686.45	296.66
686.79	295.79
687.13	295.06
687.46	294.22
687.80	293.48
688.14	292.68
688.48	291.95
688.81	291.06
689.15	290.25
689.49	289.36
689.82	288.51
690.16	287.53
690.50	286.68
690.83	285.81
691.17	284.94
691.51	284.11
691.84	283.52
692.18	282.80
692.52	281.99
692.85	281.34
693.19	280.74
693.52	280.09
693.86	279.46
694.20	278.79
694.53	278.18
694.87	277.46
695.21	276.74
695.54	276.05
695.88	275.31
696.21	274.50
696.55	273.91
696.88	273.26
697.22	272.55
697.56	271.99
697.89	271.32
698.23	270.67
698.56	269.98
698.90	269.36
699.23	268.68
699.57	268.04
699.90	267.37
700.24	266.61
700.58	266.02
700.91	265.35
701.25	264.95
701.58	264.41
701.92	263.94
702.25	263.37
702.59	262.79
702.92	262.32
703.26	261.86
703.59	261.28
703.93	261.02
704.26	260.57
704.60	259.97
704.93	259.42
705.26	258.96
705.60	258.54
705.93	257.90
706.27	257.44
706.60	257.15
706.94	256.75
707.27	256.22
707.61	255.71
707.94	255.26
708.27	254.57
708.61	253.93
708.94	253.39
709.28	252.90
709.61	252.40
709.94	251.92
710.28	251.50
710.61	251.12
710.95	250.42
711.28	250.20
711.61	249.80
711.95	249.50
712.28	248.99
712.61	248.60
712.95	248.37
713.28	248.11
713.61	247.63
713.95	247.26
714.28	246.90
714.61	246.50
714.95	246.15
715.28	245.69
715.61	245.40
715.95	245.13
716.28	244.71
716.61	244.37
716.95	244.01
717.28	243.70
717.61	243.43
717.94	243.06
718.28	242.52
718.61	242.15
718.94	241.74
719.27	241.46
719.61	241.15
719.94	240.71
720.27	240.26
720.60	239.97
720.94	239.60
721.27	239.35
721.60	239.14
721.93	238.79
722.27	238.64
722.60	238.41
722.93	238.10
723.26	237.87
723.59	237.58
723.93	237.31
724.26	237.01
724.59	236.64
724.92	236.42
725.25	236.29
725.59	236.10
725.92	235.93
726.25	235.75
726.58	235.51
726.91	235.31
727.24	235.16
727.57	234.79
727.91	234.54
728.24	234.37
728.57	234.13
728.90	234.00
729.23	233.75
729.56	233.66
729.89	233.45
730.22	233.27
730.55	233.04
730.89	232.85
731.22	232.62
731.55	232.37
731.88	232.21
732.21	231.87
732.54	231.64
732.87	231.39
733.20	231.14
733.53	230.95
733.86	230.81
734.19	230.54
734.52	230.47
734.85	230.57
735.18	230.24
735.51	230.19
735.84	230.03
736.17	229.90
736.50	229.52
736.83	229.79
737.16	229.55
737.49	229.39
737.82	229.20
738.15	229.10
738.48	229.00
738.81	228.84
739.14	228.73
739.47	228.50
739.80	228.34
740.13	228.20
740.46	227.95
740.79	227.68
741.12	227.51
741.45	227.26
741.78	226.81
742.11	226.79
742.44	226.48
742.77	226.41
743.10	226.18
743.43	226.04
743.75	225.40
744.08	225.73
744.41	225.58
744.74	225.37
745.07	225.08
745.40	224.97
745.73	224.94
746.06	224.82
746.39	224.76
746.71	224.65
747.04	224.46
747.37	224.34
747.70	224.31
748.03	224.16
748.36	224.14
748.68	224.04
749.01	223.83
749.34	223.72
749.67	223.54
750.00	223.46
750.33	223.58
750.65	223.54
750.98	223.01
751.31	222.90
751.64	222.86
751.97	223.00
752.29	222.85
752.62	222.54
752.95	222.32
753.28	222.15
753.60	222.06
753.93	222.06
754.26	221.97
754.59	221.74
754.91	221.66
755.24	221.50
755.57	221.43
755.90	221.32
756.22	221.20
756.55	221.04
756.88	220.85
757.20	220.55
757.53	220.31
757.86	220.15
758.19	220.06
758.51	219.91
758.84	219.60
759.17	219.45
759.49	219.40
759.82	219.53
760.15	219.49
760.47	219.29
760.80	219.07
761.13	219.05
761.45	218.93
761.78	218.82
762.11	218.72
762.43	218.59
762.76	218.45
763.08	218.39
763.41	218.29
763.74	218.19
764.06	218.09
764.39	217.99
764.71	217.96
765.04	217.83
765.37	217.73
765.69	217.67
766.02	217.58
766.34	217.52
766.67	217.30
767.00	217.31
767.32	217.40
767.65	217.54
767.97	217.42
768.30	217.45
768.62	217.39
768.95	217.34
769.27	217.22
769.60	217.25
769.92	217.11
770.25	217.06
770.57	216.96
770.90	216.86
771.22	216.80
771.55	216.73
771.87	216.72
772.20	216.66
772.52	216.92
772.85	217.33
773.17	217.15
773.50	217.10
773.82	216.93
774.15	216.76
774.47	216.53
774.80	216.40
775.12	216.40
775.45	216.29
775.77	216.22
776.09	216.24
776.42	216.14
776.74	216.21
777.07	216.12
777.39	216.12
777.72	216.04
778.04	216.06
778.36	215.99
778.69	215.93
779.01	215.89
779.33	215.52
779.66	215.03
779.98	215.05
780.31	214.98
780.63	215.04
780.95	215.05
781.28	214.98
781.60	214.97
781.92	214.84
782.25	214.88
782.57	214.92
782.89	214.83
783.22	214.76
783.54	214.65
783.86	214.62
784.19	214.56
784.51	214.67
784.83	214.52
785.16	214.46
785.48	214.45
785.80	214.39
786.12	214.38
786.45	214.43
786.77	214.40
787.09	214.35
787.42	214.23
787.74	214.23
788.06	214.27
788.38	214.25
788.71	214.21
789.03	214.18
789.35	214.16
789.67	214.10
789.99	214.17
790.32	214.14
790.64	214.17
790.96	214.45
791.28	214.31
791.61	214.31
791.93	214.35
792.25	214.29
792.57	214.60
792.89	214.49
793.21	214.46
793.54	214.39
793.86	214.38
794.18	214.34
794.50	214.28
794.82	214.16
795.14	214.15
795.47	214.22
795.79	214.21
796.11	214.09
796.43	214.10
796.75	214.04
797.07	214.03
797.39	214.03
797.71	213.78
798.04	213.74
798.36	213.81
798.68	213.78
799.00	213.80
799.32	213.61
799.64	213.68
799.96	213.67
800.28	213.72
800.60	213.72
800.92	213.85
801.24	213.75
801.56	213.81
801.89	213.75
802.21	213.75
802.53	213.65
802.85	213.72
803.17	213.92
803.49	213.84
803.81	213.82
804.13	213.78
804.45	213.66
804.77	213.74
805.09	213.68
805.41	213.63
805.73	213.62
806.05	213.44
806.37	213.46
806.69	213.38
807.01	213.36
807.33	213.34
807.65	213.19
807.97	213.34
808.28	213.25
808.60	213.26
808.92	213.09
809.24	213.29
809.56	213.26
809.88	213.06
810.20	213.13
810.52	213.16
810.84	213.11
811.16	213.09
811.48	213.07
811.80	213.26
812.12	213.21
812.43	213.21
812.75	213.29
813.07	213.17
813.39	213.17
813.71	213.13
814.03	213.07
814.35	213.04
814.67	212.89
814.98	212.89
815.30	212.82
815.62	212.85
815.94	212.57
816.26	212.51
816.58	212.45
816.89	212.43
817.21	212.32
817.53	212.36
817.85	212.36
818.17	212.27
818.48	212.06
818.80	212.15
819.12	212.08
819.44	211.93
819.76	211.90
820.07	211.88
820.39	211.84
820.71	211.85
821.03	211.89
821.34	211.88
821.66	211.86
821.98	211.95
822.30	211.85
822.61	212.14
822.93	212.05
823.25	212.01
823.57	211.98
823.88	212.07
824.20	211.97
824.52	212.01
824.83	212.01
825.15	212.05
825.47	212.05
825.79	212.03
826.10	212.02
826.42	211.97
826.74	212.05
827.05	212.07
827.37	212.06
827.69	211.99
828.00	212.04
828.32	212.10
828.64	212.06
828.95	212.30
829.27	212.08
829.58	212.12
829.90	212.22
830.22	212.25
830.53	212.10
830.85	212.12
831.17	212.00
831.48	212.06
831.80	211.98
832.11	212.01
832.43	212.06
832.75	212.10
833.06	212.32
833.38	212.11
833.69	212.10
834.01	212.17
834.32	212.18
834.64	212.09
834.96	212.10
835.27	212.05
835.59	211.96
835.90	211.91
836.22	211.88
836.53	211.84
836.85	211.75
837.16	212.14
837.48	212.12
837.79	212.21
838.11	212.18
838.42	212.16
838.74	212.14
839.05	212.05
839.37	212.02
839.68	211.79
840.00	211.89
840.31	211.97
840.63	211.86
840.94	211.91
841.26	211.89
841.57	211.85
841.88	211.93
842.20	211.89
842.51	211.90
842.83	211.89
843.14	212.14
843.46	212.12
843.77	211.86
844.08	211.84
844.40	211.79
844.71	211.66
845.03	211.66
845.34	211.61
845.65	211.55
845.97	211.58
846.28	211.64
846.60	211.61
846.91	211.52
847.22	211.49
847.54	211.48
847.85	211.43
848.16	211.42
848.48	211.33
848.79	211.45
849.10	211.46
849.42	211.50
849.73	211.15
850.04	211.22
850.36	211.14
850.67	211.18
850.98	211.22
851.30	211.30
851.61	211.28
851.92	211.27
852.23	211.40
852.55	211.46
852.86	211.48
853.17	211.49
853.49	211.60
853.80	211.68
854.11	211.75
854.42	211.79
854.74	211.76
855.05	211.82
855.36	211.66
855.67	211.66
855.99	211.68
856.30	212.10
856.61	212.02
856.92	212.06
857.23	212.06
857.55	212.06
857.86	212.02
858.17	212.15
858.48	212.05
858.79	212.01
859.11	211.98
859.42	211.91
859.73	211.87
860.04	211.80
860.35	211.71
860.66	211.52
860.98	211.55
861.29	211.52
861.60	211.42
861.91	211.35
862.22	211.27
862.53	211.19
862.84	210.87
863.16	210.92
863.47	210.85
863.78	210.86
864.09	210.81
864.40	210.88
864.71	210.76
865.02	210.82
865.33	210.74
865.64	210.71
865.95	210.74
866.27	210.93
866.58	210.89
866.89	211.02
867.20	211.07
867.51	211.05
867.82	210.99
868.13	211.13
868.44	211.22
868.75	211.34
869.06	211.39
869.37	211.34
869.68	211.26
869.99	211.29
870.30	211.24
870.61	211.36
870.92	211.30
871.23	211.32
871.54	211.32
871.85	211.45
872.16	211.48
872.47	211.45
872.78	211.25
873.09	211.24
873.40	211.15
873.71	211.19
874.02	211.22
874.33	211.27
874.64	211.21
874.95	211.25
875.26	211.11
875.56	211.06
875.87	211.07
876.18	211.09
876.49	211.48
876.80	211.45
877.11	211.25
877.42	211.28
877.73	211.29
878.04	211.31
878.35	211.29
878.66	211.31
878.96	211.30
879.27	211.35
879.58	211.39
879.89	211.41
880.20	211.42
880.51	211.38
880.82	211.41
881.12	211.43
881.43	211.34
881.74	211.39
882.05	211.42
882.36	211.41
882.67	211.46
882.97	211.02
883.28	211.05
883.59	211.10
883.90	211.11
884.21	211.12
884.51	211.11
884.82	211.07
885.13	211.07
885.44	211.05
885.74	211.04
886.05	210.98
886.36	211.02
886.67	210.92
886.98	211.12
887.28	211.17
887.59	211.13
887.90	211.12
888.20	211.05
888.51	211.13
888.82	211.12
889.13	211.12
889.43	211.44
889.74	211.44
890.05	211.41
890.35	211.35
890.66	211.35
890.97	211.33
891.28	211.35
891.58	211.40
891.89	211.39
892.20	211.32
892.50	211.29
892.81	211.27
893.12	211.37
893.42	211.19
893.73	211.20
894.04	211.23
894.34	211.39
894.65	211.46
894.95	211.39
895.26	211.43
895.57	211.59
895.87	211.32
896.18	211.34
896.48	211.40
896.79	211.39
897.10	211.43
897.40	211.47
897.71	211.52
898.01	211.40
898.32	211.48
898.63	211.48
898.93	211.53
899.24	211.43
899.54	211.44
899.85	211.43
900.15	211.40
900.46	211.30
900.76	211.21
901.07	211.18
901.38	211.20
901.68	211.22
901.99	211.06
902.29	210.99
902.60	210.98
902.90	210.94
903.21	210.98
903.51	210.97
903.82	210.98
904.12	210.91
904.43	210.98
904.73	210.95
905.03	210.95
905.34	211.31
905.64	211.33
905.95	211.29
906.25	211.22
906.56	211.19
906.86	211.30
907.17	211.28
907.47	211.33
907.77	211.26
908.08	211.25
908.38	211.26
908.69	211.32
908.99	211.41
909.30	211.51
909.60	211.55
909.90	211.52
910.21	211.41
910.51	211.38
910.81	211.34
911.12	211.35
911.42	211.40
911.73	210.99
912.03	211.08
912.33	211.16
912.64	211.16
912.94	211.12
913.24	211.00
913.55	210.94
913.85	210.86
914.15	210.94
914.46	210.94
914.76	210.86
915.06	210.83
915.37	210.71
915.67	210.62
915.97	210.61
916.27	210.56
916.58	210.54
916.88	210.50
917.18	210.57
917.49	210.85
917.79	210.80
918.09	210.88
918.39	210.94
918.70	210.89
919.00	210.96
919.30	211.10
919.60	211.10
919.91	211.10
920.21	211.12
920.51	211.01
920.81	210.99
921.12	211.06
921.42	211.08
921.72	211.15
922.02	211.12
922.32	211.13
922.63	211.13
922.93	211.33
923.23	211.40
923.53	211.30
923.83	211.03
924.13	211.06
924.44	211.05
924.74	211.12
925.04	211.14
925.34	211.10
925.64	211.02
925.94	211.11
926.24	211.27
926.55	211.27
926.85	211.37
927.15	211.33
927.45	211.36
927.75	211.36
928.05	211.30
928.35	211.29
928.65	211.36
928.95	211.36
929.26	211.33
929.56	211.35
929.86	211.34
930.16	211.36
930.46	211.30
930.76	211.27
931.06	211.03
931.36	211.00
931.66	211.03
931.96	211.05
932.26	211.03
932.56	210.90
932.86	210.95
933.16	210.86
933.46	210.90
933.76	210.83
934.06	210.90
934.36	211.07
934.66	211.11
934.96	211.08
935.26	211.15
935.56	211.12
935.86	211.06
936.16	211.12
936.46	211.11
936.76	211.15
937.06	211.14
937.36	211.13
937.66	211.15
937.96	211.12
938.26	211.07
938.56	211.04
938.86	211.02
939.16	211.15
939.46	211.22
939.76	211.19
940.06	211.29
940.35	211.14
940.65	210.95
940.95	210.97
941.25	210.86
941.55	210.84
941.85	210.84
942.15	210.90
942.45	211.01
942.75	210.92
943.04	210.95
943.34	211.03
943.64	211.02
943.94	211.03
944.24	211.09
944.54	211.10
944.84	211.11
945.13	211.14
945.43	211.05
945.73	211.07
946.03	211.03
946.33	210.89
946.62	210.88
946.92	210.91
947.22	211.05
947.52	211.10
947.82	211.10
948.11	211.04
948.41	210.95
948.71	210.75
949.01	210.79
949.31	210.74
949.60	210.74
949.90	210.83
950.20	210.68
950.50	210.70
950.79	210.68
951.09	210.72
951.39	210.63
951.69	210.59
951.98	210.70
952.28	210.76
952.58	210.75
952.87	210.77
953.17	210.85
953.47	210.72
953.76	210.73
954.06	210.62
954.36	210.55
954.66	210.51
954.95	210.57
955.25	210.60
955.55	210.66
955.84	210.62
956.14	210.71
956.44	210.85
956.73	210.75
957.03	210.78
957.32	210.77
957.62	210.92
957.92	210.90
958.21	210.75
958.51	211.14
958.81	211.21
959.10	211.28
959.40	211.25
959.69	211.29
959.99	211.36
960.29	211.44
960.58	211.46
960.88	211.68
961.17	211.72
961.47	211.80
961.76	211.75
962.06	211.79
962.36	211.69
962.65	211.66
962.95	211.68
963.24	211.69
963.54	211.72
963.83	211.68
964.13	211.70
964.42	211.69
964.72	211.42
965.01	211.33
965.31	211.29
965.60	211.24
965.90	211.47
966.19	211.33
966.49	211.30
966.78	211.26
967.08	211.22
967.37	211.17
967.67	211.14
967.96	211.19
968.26	211.11
968.55	211.07
968.85	211.05
969.14	211.05
969.43	211.01
969.73	210.93
970.02	210.95
970.32	210.96
970.61	210.96
970.91	210.91
971.20	210.99
971.49	211.00
971.79	211.07
972.08	210.81
972.38	210.86
972.67	210.90
972.96	211.01
973.26	210.98
973.55	211.16
973.85	211.17
974.14	211.13
974.43	211.20
974.73	211.17
975.02	211.19
975.31	211.19
975.61	211.25
975.90	211.25
976.19	211.11
976.49	211.17
976.78	211.19
977.07	211.11
977.37	211.10
977.66	211.10
977.95	210.98
978.24	211.04
978.54	211.16
978.83	211.10
979.12	211.01
979.42	211.01
979.71	210.89
980.00	210.74
980.29	210.74
980.59	210.67
980.88	210.77
981.17	210.66
981.46	210.62
981.76	210.56
982.05	210.64
982.34	210.73
982.63	210.70
982.93	210.65
983.22	210.79
983.51	210.72
983.80	210.72
984.09	210.84
984.39	210.71
984.68	210.62
984.97	210.59
985.26	210.65
985.55	210.67
985.85	210.63
986.14	210.81
986.43	210.93
986.72	210.92
987.01	210.83
987.30	210.89
987.59	210.83
987.89	210.81
988.18	210.71
988.47	210.62
988.76	210.57
989.05	210.61
989.34	210.49
989.63	210.60
989.92	210.66
990.22	210.59
990.51	210.53
990.80	210.49
991.09	210.57
991.38	210.58
991.67	210.48
991.96	210.44
992.25	210.31
992.54	210.19
992.83	210.12
993.12	210.18
993.41	210.26
993.70	210.42
993.99	210.51
994.28	210.57
994.58	210.65
994.87	210.64
995.16	210.60
995.45	210.60
995.74	210.49
996.03	210.51
996.32	210.58
996.61	210.73
996.90	210.65
997.19	210.60
997.48	210.58
997.77	210.62
998.06	210.60
998.34	210.63
998.63	210.56
998.92	210.64
999.21	210.64
999.50	210.61
999.79	210.49
1000.08	210.48
1000.37	210.50
1000.66	210.39
1000.95	210.47
1001.24	210.45
1001.53	210.48
1001.82	210.50
1002.11	210.35
1002.40	210.36
1002.68	210.48
1002.97	210.74
1003.26	210.76
1003.55	210.73
1003.84	210.69
1004.13	210.80
1004.42	210.84
1004.71	210.92
1004.99	210.91
1005.28	211.02
1005.57	211.00
1005.86	211.04
1006.15	211.00
1006.44	210.92
1006.72	210.99
1007.01	210.96
1007.30	211.03
1007.59	211.00
1007.88	211.01
1008.17	211.07
1008.45	211.03
1008.74	210.88
1009.03	210.73
1009.32	210.70
1009.60	210.74
1009.89	210.70
1010.18	210.58
1010.47	210.54
1010.76	210.52
1011.04	210.51
1011.33	210.43
1011.62	210.45
1011.91	210.48
1012.19	210.49
1012.48	210.52
1012.77	210.54
1013.05	210.66
1013.34	210.53
1013.63	210.56
1013.92	210.59
1014.20	210.59
1014.49	210.59
1014.78	210.55
1015.06	210.41
1015.35	210.37
1015.64	210.46
1015.92	210.57
1016.21	210.62
1016.50	210.65
1016.78	210.68
1017.07	210.72
1017.36	210.74
1017.64	210.71
1017.93	210.76
1018.22	210.73
1018.50	210.76
1018.79	210.77
1019.08	210.64
1019.36	210.80
1019.65	210.77
1019.93	210.90
1020.22	210.94
1020.51	211.13
1020.79	211.12
1021.08	210.15
1021.36	210.70
1021.65	211.15
1021.94	210.70
1022.22	211.80
1022.51	210.95
1022.79	213.25
1023.08	211.15
1023.36	215.15
1023.65	209.40
>>>>>End Processed Spectral Data<<<<<
