SpectraSuite Data File
++++++++++++++++++++++++++++++++++++
Date: Mon Feb 25 16:57:48 EST 2013
User: group
Dark Spectrum Present: No
Reference Spectrum Present: No
Number of Sampled Component Spectra: 1
Spectrometers: USB2E7196
Integration Time (usec): 104000 (USB2E7196)
Spectra Averaged: 20 (USB2E7196)
Boxcar Smoothing: 10 (USB2E7196)
Correct for Electrical Dark: No (USB2E7196)
Strobe/Lamp Enabled: No (USB2E7196)
Correct for Detector Non-linearity: No (USB2E7196)
Correct for Stray Light: No (USB2E7196)
Number of Pixels in Processed Spectrum: 2048
>>>>>Begin Processed Spectral Data<<<<<
339.09	0.00
339.48	198.55
339.86	200.30
340.24	201.75
340.63	203.00
341.01	209.20
341.39	205.70
341.78	209.15
342.16	209.60
342.54	209.45
342.93	198.74
343.31	208.75
343.69	209.28
344.07	209.76
344.46	210.23
344.84	210.63
345.22	210.77
345.60	211.04
345.99	211.14
346.37	211.21
346.75	211.28
347.13	211.27
347.52	211.35
347.90	211.45
348.28	211.48
348.66	211.61
349.05	211.46
349.43	211.56
349.81	211.55
350.19	211.59
350.57	211.64
350.96	211.68
351.34	211.79
351.72	211.91
352.10	212.02
352.48	212.07
352.87	212.06
353.25	212.05
353.63	212.13
354.01	212.11
354.39	212.21
354.77	212.26
355.15	212.46
355.54	212.49
355.92	212.46
356.30	212.53
356.68	212.80
357.06	212.93
357.44	212.89
357.82	212.94
358.20	212.96
358.58	213.00
358.97	213.05
359.35	213.16
359.73	213.27
360.11	213.29
360.49	213.34
360.87	213.39
361.25	213.53
361.63	213.65
362.01	213.80
362.39	213.85
362.77	213.92
363.15	213.82
363.53	213.82
363.91	213.86
364.29	213.83
364.67	213.50
365.05	213.54
365.43	213.53
365.81	213.60
366.19	213.79
366.57	213.95
366.95	213.96
367.33	213.90
367.71	213.82
368.09	213.84
368.47	213.80
368.85	213.86
369.23	213.85
369.61	213.69
369.99	213.76
370.37	213.76
370.75	213.86
371.13	213.87
371.51	213.86
371.89	213.90
372.27	213.97
372.65	214.05
373.03	214.02
373.41	213.99
373.78	213.89
374.16	213.74
374.54	213.56
374.92	213.40
375.30	213.35
375.68	213.35
376.06	213.42
376.44	213.38
376.82	213.30
377.19	213.27
377.57	213.29
377.95	213.15
378.33	213.07
378.71	212.90
379.09	212.93
379.47	212.91
379.84	212.85
380.22	212.65
380.60	212.45
380.98	212.37
381.36	212.34
381.73	212.30
382.11	212.32
382.49	212.36
382.87	212.34
383.25	212.35
383.62	212.67
384.00	212.49
384.38	212.47
384.76	212.58
385.13	212.68
385.51	212.60
385.89	212.52
386.27	212.45
386.64	212.44
387.02	212.33
387.40	212.26
387.78	212.23
388.15	212.33
388.53	212.36
388.91	212.30
389.29	212.23
389.66	212.29
390.04	212.19
390.42	212.15
390.79	212.13
391.17	212.10
391.55	211.71
391.92	211.74
392.30	211.75
392.68	211.60
393.05	211.50
393.43	211.61
393.81	211.61
394.18	211.55
394.56	211.58
394.94	211.61
395.31	211.58
395.69	211.67
396.06	211.73
396.44	211.75
396.82	211.76
397.19	212.03
397.57	211.95
397.95	212.10
398.32	212.04
398.70	212.17
399.07	212.29
399.45	212.31
399.82	212.35
400.20	212.40
400.58	212.49
400.95	212.42
401.33	212.46
401.70	212.79
402.08	212.94
402.45	213.00
402.83	213.18
403.20	213.32
403.58	213.35
403.95	213.51
404.33	213.71
404.71	213.96
405.08	214.27
405.46	214.54
405.83	214.69
406.21	215.05
406.58	215.27
406.96	215.51
407.33	215.92
407.70	216.27
408.08	217.00
408.45	217.50
408.83	218.13
409.20	218.67
409.58	219.00
409.95	219.66
410.33	220.36
410.70	220.95
411.08	221.77
411.45	222.50
411.82	223.21
412.20	224.17
412.57	225.35
412.95	226.07
413.32	227.22
413.69	228.44
414.07	229.67
414.44	231.13
414.82	232.50
415.19	234.07
415.56	235.75
415.94	237.36
416.31	239.35
416.68	241.23
417.06	243.43
417.43	245.62
417.81	248.04
418.18	250.52
418.55	253.32
418.93	256.18
419.30	259.35
419.67	262.61
420.04	265.84
420.42	269.25
420.79	273.39
421.16	277.55
421.54	281.80
421.91	286.16
422.28	290.70
422.66	295.65
423.03	300.46
423.40	305.45
423.77	310.70
424.15	316.20
424.52	321.84
424.89	327.98
425.26	334.02
425.64	339.75
426.01	346.10
426.38	352.74
426.75	359.48
427.13	366.51
427.50	373.93
427.87	381.58
428.24	389.24
428.61	396.64
428.99	404.60
429.36	413.32
429.73	421.80
430.10	430.33
430.47	439.12
430.85	448.28
431.22	458.04
431.59	468.33
431.96	478.18
432.33	489.17
432.70	499.90
433.08	512.40
433.45	524.18
433.82	536.01
434.19	548.99
434.56	561.95
434.93	574.47
435.30	586.96
435.68	600.85
436.05	614.60
436.42	628.50
436.79	641.26
437.16	654.94
437.53	669.69
437.90	684.16
438.27	698.42
438.64	713.40
439.01	727.16
439.38	739.47
439.75	751.59
440.13	765.39
440.50	778.47
440.87	789.53
441.24	800.91
441.61	813.51
441.98	823.13
442.35	834.16
442.72	845.06
443.09	855.50
443.46	862.29
443.83	867.30
444.20	871.55
444.57	877.39
444.94	880.81
445.31	884.29
445.68	887.71
446.05	889.78
446.42	889.47
446.79	888.93
447.16	888.39
447.53	888.12
447.90	884.06
448.27	879.85
448.64	873.32
449.01	869.01
449.37	860.40
449.74	852.15
450.11	842.15
450.48	831.28
450.85	820.13
451.22	810.55
451.59	801.45
451.96	792.69
452.33	780.79
452.70	769.97
453.07	756.80
453.43	743.50
453.80	730.57
454.17	718.18
454.54	706.54
454.91	693.87
455.28	681.47
455.65	670.10
456.02	658.54
456.38	648.82
456.75	636.55
457.12	626.34
457.49	616.28
457.86	606.31
458.23	597.74
458.59	588.50
458.96	579.25
459.33	571.10
459.70	562.69
460.07	556.23
460.43	548.57
460.80	541.47
461.17	535.06
461.54	528.65
461.91	522.50
462.27	516.16
462.64	510.88
463.01	504.90
463.38	498.96
463.74	493.13
464.11	488.01
464.48	483.60
464.85	478.57
465.21	474.91
465.58	471.04
465.95	466.32
466.32	462.47
466.68	458.62
467.05	454.47
467.42	450.64
467.78	446.35
468.15	442.41
468.52	439.49
468.88	435.78
469.25	432.34
469.62	429.50
469.98	426.43
470.35	423.50
470.72	420.85
471.08	417.93
471.45	415.52
471.82	412.96
472.18	410.24
472.55	408.45
472.92	406.07
473.28	403.92
473.65	401.87
474.02	399.76
474.38	398.03
474.75	396.59
475.11	395.11
475.48	394.00
475.85	393.00
476.21	391.90
476.58	390.97
476.94	390.30
477.31	389.45
477.67	388.77
478.04	388.44
478.41	388.09
478.77	388.11
479.14	387.62
479.50	387.50
479.87	387.61
480.23	387.66
480.60	387.59
480.96	387.61
481.33	388.05
481.69	388.49
482.06	388.77
482.42	388.99
482.79	389.29
483.15	390.02
483.52	390.94
483.88	391.69
484.25	392.40
484.61	393.33
484.98	394.20
485.34	395.46
485.71	396.60
486.07	397.89
486.44	398.92
486.80	400.46
487.17	402.08
487.53	403.96
487.90	405.92
488.26	408.10
488.62	410.37
488.99	412.52
489.35	414.74
489.72	417.16
490.08	419.90
490.44	422.50
490.81	425.06
491.17	427.72
491.54	430.70
491.90	433.88
492.26	437.04
492.63	440.47
492.99	443.78
493.36	447.37
493.72	451.14
494.08	454.96
494.45	459.11
494.81	463.35
495.17	467.42
495.54	471.83
495.90	476.25
496.26	480.80
496.63	485.37
496.99	490.15
497.35	495.19
497.72	500.25
498.08	505.37
498.44	510.60
498.80	516.12
499.17	521.68
499.53	527.35
499.89	532.94
500.26	538.52
500.62	544.17
500.98	549.98
501.34	555.71
501.71	561.80
502.07	567.51
502.43	573.31
502.79	579.10
503.16	584.99
503.52	590.92
503.88	596.83
504.24	602.90
504.60	608.90
504.97	615.04
505.33	620.96
505.69	627.31
506.05	633.60
506.41	639.55
506.78	645.18
507.14	650.75
507.50	656.80
507.86	662.69
508.22	668.57
508.59	674.14
508.95	679.93
509.31	685.66
509.67	691.55
510.03	697.18
510.39	702.91
510.75	708.48
511.12	713.92
511.48	719.35
511.84	724.72
512.20	729.90
512.56	734.96
512.92	740.32
513.28	745.39
513.64	750.26
514.00	755.05
514.37	760.00
514.73	765.01
515.09	769.66
515.45	774.19
515.81	778.77
516.17	783.17
516.53	787.62
516.89	791.68
517.25	795.57
517.61	799.59
517.97	803.31
518.33	806.85
518.69	810.46
519.05	814.11
519.41	817.63
519.77	821.43
520.13	824.70
520.49	827.83
520.85	830.82
521.21	833.95
521.57	837.20
521.93	840.03
522.29	843.14
522.65	845.82
523.01	848.74
523.37	851.40
523.73	854.35
524.09	856.67
524.45	859.26
524.81	862.14
525.17	864.85
525.53	867.65
525.89	870.25
526.25	872.80
526.61	874.91
526.97	877.06
527.33	879.44
527.68	882.07
528.04	884.35
528.40	886.36
528.76	888.40
529.12	890.64
529.48	893.27
529.84	895.51
530.20	897.97
530.56	900.36
530.91	902.88
531.27	905.10
531.63	907.64
531.99	909.89
532.35	911.81
532.71	913.76
533.07	916.13
533.42	918.56
533.78	921.06
534.14	923.55
534.50	925.68
534.86	927.74
535.21	929.54
535.57	931.97
535.93	934.29
536.29	936.75
536.65	938.91
537.00	940.74
537.36	942.52
537.72	944.26
538.08	946.22
538.44	948.19
538.79	950.36
539.15	952.32
539.51	954.65
539.87	957.14
540.22	959.41
540.58	961.69
540.94	963.95
541.29	965.61
541.65	967.18
542.01	969.44
542.37	971.53
542.72	973.60
543.08	975.20
543.44	977.41
543.79	978.86
544.15	980.75
544.51	983.19
544.87	985.55
545.22	987.73
545.58	989.58
545.94	991.18
546.29	992.51
546.65	994.20
547.01	995.50
547.36	997.03
547.72	998.66
548.07	1000.05
548.43	1001.22
548.79	1002.65
549.14	1004.64
549.50	1006.16
549.86	1007.47
550.21	1009.07
550.57	1010.93
550.92	1012.22
551.28	1013.97
551.64	1015.41
551.99	1016.51
552.35	1017.63
552.70	1018.83
553.06	1020.21
553.41	1021.62
553.77	1023.44
554.13	1024.82
554.48	1026.46
554.84	1028.03
555.19	1029.33
555.55	1030.67
555.90	1031.90
556.26	1033.12
556.61	1034.01
556.97	1035.11
557.32	1036.51
557.68	1037.48
558.03	1038.29
558.39	1039.08
558.74	1040.05
559.10	1040.89
559.45	1041.91
559.81	1043.10
560.16	1043.95
560.52	1044.92
560.87	1045.80
561.23	1046.19
561.58	1047.36
561.94	1047.75
562.29	1047.81
562.64	1048.70
563.00	1049.25
563.35	1050.16
563.71	1051.47
564.06	1052.56
564.42	1053.43
564.77	1054.37
565.12	1055.45
565.48	1056.51
565.83	1057.53
566.19	1058.63
566.54	1059.20
566.89	1059.74
567.25	1060.62
567.60	1061.61
567.96	1062.52
568.31	1063.43
568.66	1064.33
569.02	1064.24
569.37	1064.44
569.72	1065.14
570.08	1065.12
570.43	1065.17
570.78	1065.10
571.14	1064.50
571.49	1064.13
571.84	1064.05
572.20	1063.19
572.55	1062.73
572.90	1061.87
573.26	1061.15
573.61	1060.04
573.96	1059.49
574.31	1058.46
574.67	1057.01
575.02	1055.57
575.37	1053.98
575.72	1052.17
576.08	1050.86
576.43	1049.60
576.78	1048.54
577.13	1047.12
577.49	1045.91
577.84	1044.50
578.19	1043.02
578.54	1042.11
578.90	1040.95
579.25	1039.32
579.60	1037.68
579.95	1035.68
580.30	1034.05
580.66	1032.64
581.01	1030.77
581.36	1028.77
581.71	1026.75
582.06	1024.91
582.42	1022.98
582.77	1020.78
583.12	1018.68
583.47	1016.70
583.82	1014.66
584.17	1012.55
584.53	1010.46
584.88	1007.92
585.23	1005.75
585.58	1003.57
585.93	1001.01
586.28	998.73
586.63	996.22
586.98	993.99
587.34	991.90
587.69	989.52
588.04	987.06
588.39	984.91
588.74	982.43
589.09	980.39
589.44	977.79
589.79	975.70
590.14	973.63
590.49	971.47
590.84	968.88
591.19	966.79
591.54	964.31
591.89	961.40
592.25	959.10
592.60	956.33
592.95	953.34
593.30	950.36
593.65	947.06
594.00	944.11
594.35	942.35
594.70	939.50
595.05	936.74
595.40	933.90
595.75	930.79
596.10	928.15
596.45	925.26
596.80	922.70
597.15	919.78
597.50	916.55
597.85	913.72
598.19	910.55
598.54	907.50
598.89	904.75
599.24	902.35
599.59	899.68
599.94	897.00
600.29	894.40
600.64	891.65
600.99	889.10
601.34	886.50
601.69	882.48
602.04	879.34
602.39	876.35
602.74	873.18
603.08	870.76
603.43	868.17
603.78	865.23
604.13	862.17
604.48	859.24
604.83	856.89
605.18	854.10
605.53	851.36
605.87	848.14
606.22	845.22
606.57	842.09
606.92	838.66
607.27	835.56
607.62	832.42
607.96	829.56
608.31	826.68
608.66	823.66
609.01	820.67
609.36	817.55
609.70	814.21
610.05	811.19
610.40	807.82
610.75	804.27
611.10	801.18
611.44	797.55
611.79	793.87
612.14	790.20
612.49	786.56
612.83	783.07
613.18	779.63
613.53	776.02
613.88	772.41
614.22	769.12
614.57	765.55
614.92	762.16
615.27	758.66
615.61	754.97
615.96	751.51
616.31	748.33
616.65	745.33
617.00	742.34
617.35	738.92
617.70	735.50
618.04	731.86
618.39	728.07
618.74	724.85
619.08	721.47
619.43	718.26
619.78	715.20
620.12	712.05
620.47	708.98
620.82	705.50
621.16	701.95
621.51	698.73
621.85	695.48
622.20	692.17
622.55	688.70
622.89	685.50
623.24	682.20
623.59	678.69
623.93	675.38
624.28	672.12
624.62	669.29
624.97	665.96
625.32	662.95
625.66	660.03
626.01	656.95
626.35	654.10
626.70	650.72
627.04	647.66
627.39	644.76
627.73	641.79
628.08	639.18
628.43	636.40
628.77	633.37
629.12	630.20
629.46	627.47
629.81	624.79
630.15	621.83
630.50	618.83
630.84	615.93
631.19	612.83
631.53	609.90
631.88	606.55
632.22	603.57
632.57	600.97
632.91	598.00
633.26	595.16
633.60	592.30
633.95	589.63
634.29	586.71
634.64	583.85
634.98	580.80
635.32	578.10
635.67	575.67
636.01	573.00
636.36	570.57
636.70	567.90
637.05	565.31
637.39	562.71
637.73	560.41
638.08	558.15
638.42	556.02
638.77	553.57
639.11	551.25
639.45	548.95
639.80	546.16
640.14	543.78
640.49	541.37
640.83	538.88
641.17	536.52
641.52	533.95
641.86	531.45
642.20	529.25
642.55	526.35
642.89	523.57
643.23	521.02
643.58	518.82
643.92	516.24
644.26	513.75
644.61	511.53
644.95	508.98
645.29	506.55
645.64	503.98
645.98	501.40
646.32	499.08
646.66	496.71
647.01	494.45
647.35	492.30
647.69	489.81
648.04	487.72
648.38	485.36
648.72	483.22
649.06	480.85
649.41	478.37
649.75	476.34
650.09	474.25
650.43	472.00
650.78	469.55
651.12	467.28
651.46	465.00
651.80	462.78
652.14	460.60
652.49	458.48
652.83	456.16
653.17	453.99
653.51	451.72
653.85	449.67
654.20	447.64
654.54	445.33
654.88	443.25
655.22	441.05
655.56	438.82
655.90	436.65
656.25	434.56
656.59	432.55
656.93	430.45
657.27	428.44
657.61	426.34
657.95	424.40
658.29	422.40
658.64	420.58
658.98	418.45
659.32	416.41
659.66	414.25
660.00	412.36
660.34	410.46
660.68	408.50
661.02	406.37
661.36	404.30
661.70	402.47
662.05	400.77
662.39	398.96
662.73	397.41
663.07	395.81
663.41	394.04
663.75	392.31
664.09	390.64
664.43	388.87
664.77	387.22
665.11	385.35
665.45	383.76
665.79	382.01
666.13	380.45
666.47	378.89
666.81	377.26
667.15	375.64
667.49	374.14
667.83	372.76
668.17	371.40
668.51	369.97
668.85	368.62
669.19	367.30
669.53	365.73
669.87	364.17
670.21	362.63
670.55	361.22
670.89	360.08
671.23	358.78
671.57	357.45
671.91	356.15
672.25	354.91
672.58	353.66
672.92	352.27
673.26	351.03
673.60	349.75
673.94	348.43
674.28	347.16
674.62	345.97
674.96	344.66
675.30	343.45
675.64	342.29
675.97	341.01
676.31	339.71
676.65	338.55
676.99	337.52
677.33	336.29
677.67	335.20
678.01	333.79
678.34	332.58
678.68	331.47
679.02	330.30
679.36	329.18
679.70	328.01
680.04	326.97
680.37	325.78
680.71	324.65
681.05	323.66
681.39	322.63
681.73	321.53
682.06	320.55
682.40	319.55
682.74	318.53
683.08	317.57
683.42	316.49
683.75	315.50
684.09	314.37
684.43	313.35
684.77	312.24
685.10	311.35
685.44	310.33
685.78	309.31
686.12	308.45
686.45	307.50
686.79	306.52
687.13	305.61
687.46	304.64
687.80	303.76
688.14	302.82
688.48	301.92
688.81	301.00
689.15	300.11
689.49	299.13
689.82	298.22
690.16	297.22
690.50	296.30
690.83	295.43
691.17	294.45
691.51	293.62
691.84	292.81
692.18	291.86
692.52	291.07
692.85	290.31
693.19	289.52
693.52	288.70
693.86	287.79
694.20	286.97
694.53	286.23
694.87	285.42
695.21	284.61
695.54	283.75
695.88	282.89
696.21	282.04
696.55	281.33
696.88	280.57
697.22	279.80
697.56	279.12
697.89	278.34
698.23	277.67
698.56	276.91
698.90	276.34
699.23	275.67
699.57	274.90
699.90	274.20
700.24	273.48
700.58	272.83
700.91	272.30
701.25	271.91
701.58	271.32
701.92	270.67
702.25	270.11
702.59	269.59
702.92	269.03
703.26	268.42
703.59	267.84
703.93	267.53
704.26	267.03
704.60	266.41
704.93	265.79
705.26	265.19
705.60	264.72
705.93	263.98
706.27	263.52
706.60	263.10
706.94	262.60
707.27	262.00
707.61	261.46
707.94	260.86
708.27	260.03
708.61	259.41
708.94	258.95
709.28	258.41
709.61	257.81
709.94	257.36
710.28	256.93
710.61	256.45
710.95	255.65
711.28	255.40
711.61	254.90
711.95	254.66
712.28	254.19
712.61	253.72
712.95	253.54
713.28	253.16
713.61	252.61
713.95	252.16
714.28	251.79
714.61	251.32
714.95	250.92
715.28	250.50
715.61	249.98
715.95	249.61
716.28	249.12
716.61	248.79
716.95	248.27
717.28	247.76
717.61	247.31
717.94	246.93
718.28	246.26
718.61	245.89
718.94	245.34
719.27	244.94
719.61	244.52
719.94	244.02
720.27	243.50
720.60	243.20
720.94	242.86
721.27	242.43
721.60	242.16
721.93	241.79
722.27	241.54
722.60	241.36
722.93	240.96
723.26	240.75
723.59	240.36
723.93	240.15
724.26	239.90
724.59	239.60
724.92	239.33
725.25	239.19
725.59	238.94
725.92	238.75
726.25	238.49
726.58	238.30
726.91	238.03
727.24	237.82
727.57	237.50
727.91	237.10
728.24	236.96
728.57	236.63
728.90	236.53
729.23	236.22
729.56	236.18
729.89	235.97
730.22	235.65
730.55	235.43
730.89	235.16
731.22	234.88
731.55	234.59
731.88	234.36
732.21	234.01
732.54	233.78
732.87	233.53
733.20	233.34
733.53	233.15
733.86	232.96
734.19	232.69
734.52	232.55
734.85	232.69
735.18	232.46
735.51	232.39
735.84	232.13
736.17	232.08
736.50	231.56
736.83	231.75
737.16	231.62
737.49	231.47
737.82	231.24
738.15	231.10
738.48	230.93
738.81	230.77
739.14	230.58
739.47	230.36
739.80	230.14
740.13	230.06
740.46	229.72
740.79	229.53
741.12	229.38
741.45	229.15
741.78	228.68
742.11	228.54
742.44	228.22
742.77	228.12
743.10	227.80
743.43	227.72
743.75	227.14
744.08	227.34
744.41	227.16
744.74	226.97
745.07	226.81
745.40	226.78
745.73	226.67
746.06	226.48
746.39	226.34
746.71	226.17
747.04	225.91
747.37	225.76
747.70	225.62
748.03	225.46
748.36	225.43
748.68	225.26
749.01	225.06
749.34	224.98
749.67	224.91
750.00	224.85
750.33	224.95
750.65	224.95
750.98	224.38
751.31	224.20
751.64	224.10
751.97	224.15
752.29	223.93
752.62	223.75
752.95	223.58
753.28	223.35
753.60	223.31
753.93	223.25
754.26	223.25
754.59	222.99
754.91	222.83
755.24	222.61
755.57	222.59
755.90	222.42
756.22	222.25
756.55	222.05
756.88	221.82
757.20	221.45
757.53	221.12
757.86	221.04
758.19	220.99
758.51	220.96
758.84	220.64
759.17	220.54
759.49	220.47
759.82	220.60
760.15	220.65
760.47	220.49
760.80	220.32
761.13	220.20
761.45	220.19
761.78	220.07
762.11	220.00
762.43	219.83
762.76	219.76
763.08	219.74
763.41	219.60
763.74	219.60
764.06	219.49
764.39	219.46
764.71	219.40
765.04	219.26
765.37	219.12
765.69	219.10
766.02	218.99
766.34	218.83
766.67	218.65
767.00	218.54
767.32	218.57
767.65	218.75
767.97	218.73
768.30	218.61
768.62	218.60
768.95	218.46
769.27	218.40
769.60	218.40
769.92	218.28
770.25	218.17
770.57	218.04
770.90	218.01
771.22	217.92
771.55	217.80
771.87	217.77
772.20	217.67
772.52	217.89
772.85	218.24
773.17	218.17
773.50	218.09
773.82	218.01
774.15	217.82
774.47	217.47
774.80	217.35
775.12	217.29
775.45	217.20
775.77	217.21
776.09	217.20
776.42	217.08
776.74	217.11
777.07	217.06
777.39	217.01
777.72	216.90
778.04	216.85
778.36	216.81
778.69	216.69
779.01	216.65
779.33	216.30
779.66	215.87
779.98	215.76
780.31	215.70
780.63	215.80
780.95	215.76
781.28	215.71
781.60	215.60
781.92	215.57
782.25	215.57
782.57	215.50
782.89	215.35
783.22	215.31
783.54	215.14
783.86	215.11
784.19	215.08
784.51	215.22
784.83	215.27
785.16	215.27
785.48	215.33
785.80	215.29
786.12	215.23
786.45	215.22
786.77	215.22
787.09	215.13
787.42	214.96
787.74	215.02
788.06	215.08
788.38	215.00
788.71	214.89
789.03	214.86
789.35	214.88
789.67	214.83
789.99	214.79
790.32	214.74
790.64	214.78
790.96	214.96
791.28	214.74
791.61	214.59
791.93	214.52
792.25	214.54
792.57	214.78
792.89	214.70
793.21	214.62
793.54	214.60
793.86	214.55
794.18	214.51
794.50	214.37
794.82	214.24
795.14	214.24
795.47	214.31
795.79	214.26
796.11	214.16
796.43	214.13
796.75	214.18
797.07	214.23
797.39	214.20
797.71	213.94
798.04	213.93
798.36	213.99
798.68	213.97
799.00	213.92
799.32	213.72
799.64	213.79
799.96	213.78
800.28	213.89
800.60	213.90
800.92	213.94
801.24	213.89
801.56	213.96
801.89	214.03
802.21	214.06
802.53	213.96
802.85	214.04
803.17	214.22
803.49	214.04
803.81	214.05
804.13	213.95
804.45	213.92
804.77	213.98
805.09	213.95
805.41	213.91
805.73	213.85
806.05	213.74
806.37	213.72
806.69	213.65
807.01	213.57
807.33	213.58
807.65	213.51
807.97	213.68
808.28	213.60
808.60	213.51
808.92	213.46
809.24	213.70
809.56	213.61
809.88	213.44
810.20	213.56
810.52	213.58
810.84	213.55
811.16	213.54
811.48	213.44
811.80	213.50
812.12	213.47
812.43	213.45
812.75	213.47
813.07	213.37
813.39	213.39
813.71	213.24
814.03	213.15
814.35	213.13
814.67	212.93
814.98	212.91
815.30	212.90
815.62	212.77
815.94	212.57
816.26	212.53
816.58	212.43
816.89	212.33
817.21	212.21
817.53	212.23
817.85	212.19
818.17	212.24
818.48	212.09
818.80	212.17
819.12	212.14
819.44	212.05
819.76	212.04
820.07	212.03
820.39	212.01
820.71	212.04
821.03	212.00
821.34	211.98
821.66	212.03
821.98	212.08
822.30	212.06
822.61	212.29
822.93	212.31
823.25	212.35
823.57	212.32
823.88	212.37
824.20	212.34
824.52	212.34
824.83	212.30
825.15	212.25
825.47	212.26
825.79	212.29
826.10	212.28
826.42	212.22
826.74	212.31
827.05	212.37
827.37	212.38
827.69	212.35
828.00	212.39
828.32	212.30
828.64	212.21
828.95	212.41
829.27	212.22
829.58	212.17
829.90	212.25
830.22	212.30
830.53	212.21
830.85	212.16
831.17	212.13
831.48	212.11
831.80	212.20
832.11	212.08
832.43	212.04
832.75	212.04
833.06	212.24
833.38	212.11
833.69	212.16
834.01	212.17
834.32	212.22
834.64	212.16
834.96	212.21
835.27	212.29
835.59	212.17
835.90	212.12
836.22	212.12
836.53	211.99
836.85	211.98
837.16	212.36
837.48	212.39
837.79	212.48
838.11	212.52
838.42	212.50
838.74	212.62
839.05	212.55
839.37	212.54
839.68	212.33
840.00	212.25
840.31	212.21
840.63	212.18
840.94	212.11
841.26	212.17
841.57	212.17
841.88	212.12
842.20	212.06
842.51	212.08
842.83	212.10
843.14	212.41
843.46	212.35
843.77	212.14
844.08	212.14
844.40	211.98
844.71	211.94
845.03	211.93
845.34	211.84
845.65	211.93
845.97	212.00
846.28	212.07
846.60	212.20
846.91	212.15
847.22	212.13
847.54	212.26
847.85	212.27
848.16	212.25
848.48	212.20
848.79	212.37
849.10	212.37
849.42	212.42
849.73	212.06
850.04	212.11
850.36	212.07
850.67	212.20
850.98	212.27
851.30	212.20
851.61	212.18
851.92	212.14
852.23	212.17
852.55	212.11
852.86	212.08
853.17	212.02
853.49	212.11
853.80	212.15
854.11	212.11
854.42	212.15
854.74	212.16
855.05	212.17
855.36	211.97
855.67	211.97
855.99	211.96
856.30	212.37
856.61	212.32
856.92	212.24
857.23	212.12
857.55	212.08
857.86	212.14
858.17	212.12
858.48	212.10
858.79	212.04
859.11	212.08
859.42	212.06
859.73	212.01
860.04	212.01
860.35	211.93
860.66	211.80
860.98	211.74
861.29	211.73
861.60	211.75
861.91	211.83
862.22	211.80
862.53	211.68
862.84	211.31
863.16	211.40
863.47	211.40
863.78	211.40
864.09	211.36
864.40	211.40
864.71	211.47
865.02	211.56
865.33	211.55
865.64	211.53
865.95	211.52
866.27	211.72
866.58	211.66
866.89	211.70
867.20	211.70
867.51	211.65
867.82	211.63
868.13	211.66
868.44	211.55
868.75	211.55
869.06	211.56
869.37	211.59
869.68	211.42
869.99	211.43
870.30	211.43
870.61	211.57
870.92	211.48
871.23	211.44
871.54	211.42
871.85	211.45
872.16	211.46
872.47	211.48
872.78	211.30
873.09	211.37
873.40	211.36
873.71	211.39
874.02	211.39
874.33	211.31
874.64	211.24
874.95	211.30
875.26	211.28
875.56	211.29
875.87	211.26
876.18	211.25
876.49	211.63
876.80	211.64
877.11	211.50
877.42	211.55
877.73	211.59
878.04	211.58
878.35	211.57
878.66	211.59
878.96	211.56
879.27	211.57
879.58	211.55
879.89	211.53
880.20	211.65
880.51	211.57
880.82	211.68
881.12	211.76
881.43	211.67
881.74	211.60
882.05	211.65
882.36	211.63
882.67	211.75
882.97	211.34
883.28	211.33
883.59	211.36
883.90	211.31
884.21	211.34
884.51	211.26
884.82	211.24
885.13	211.15
885.44	211.15
885.74	211.15
886.05	211.08
886.36	211.09
886.67	211.04
886.98	211.31
887.28	211.29
887.59	211.19
887.90	211.22
888.20	211.25
888.51	211.25
888.82	211.29
889.13	211.23
889.43	211.48
889.74	211.45
890.05	211.47
890.35	211.45
890.66	211.36
890.97	211.37
891.28	211.36
891.58	211.43
891.89	211.42
892.20	211.39
892.50	211.39
892.81	211.32
893.12	211.26
893.42	211.08
893.73	211.09
894.04	211.15
894.34	211.23
894.65	211.25
894.95	211.29
895.26	211.27
895.57	211.46
895.87	211.24
896.18	211.27
896.48	211.30
896.79	211.33
897.10	211.41
897.40	211.39
897.71	211.39
898.01	211.30
898.32	211.34
898.63	211.32
898.93	211.33
899.24	211.46
899.54	211.46
899.85	211.48
900.15	211.45
900.46	211.48
900.76	211.52
901.07	211.49
901.38	211.43
901.68	211.47
901.99	211.33
902.29	211.29
902.60	211.29
902.90	211.24
903.21	211.21
903.51	211.14
903.82	211.30
904.12	211.38
904.43	211.50
904.73	211.50
905.03	211.50
905.34	211.84
905.64	211.69
905.95	211.69
906.25	211.61
906.56	211.67
906.86	211.68
907.17	211.63
907.47	211.64
907.77	211.65
908.08	211.53
908.38	211.59
908.69	211.61
908.99	211.66
909.30	211.73
909.60	211.74
909.90	211.83
910.21	211.71
910.51	211.66
910.81	211.62
911.12	211.66
911.42	211.70
911.73	211.35
912.03	211.46
912.33	211.53
912.64	211.60
912.94	211.54
913.24	211.43
913.55	211.37
913.85	211.35
914.15	211.40
914.46	211.50
914.76	211.45
915.06	211.42
915.37	211.33
915.67	211.31
915.97	211.34
916.27	211.21
916.58	211.23
916.88	211.18
917.18	211.15
917.49	211.31
917.79	211.30
918.09	211.37
918.39	211.44
918.70	211.42
919.00	211.39
919.30	211.58
919.60	211.63
919.91	211.64
920.21	211.70
920.51	211.60
920.81	211.56
921.12	211.62
921.42	211.64
921.72	211.69
922.02	211.71
922.32	211.73
922.63	211.77
922.93	211.94
923.23	211.97
923.53	212.00
923.83	211.80
924.13	211.85
924.44	211.91
924.74	212.02
925.04	212.06
925.34	212.05
925.64	211.85
925.94	211.79
926.24	212.03
926.55	212.00
926.85	212.08
927.15	212.10
927.45	212.13
927.75	212.16
928.05	212.13
928.35	212.08
928.65	212.18
928.95	212.18
929.26	212.05
929.56	212.16
929.86	212.17
930.16	212.15
930.46	212.14
930.76	212.10
931.06	211.94
931.36	211.90
931.66	212.01
931.96	212.05
932.26	212.11
932.56	211.95
932.86	211.95
933.16	211.92
933.46	211.91
933.76	211.80
934.06	211.86
934.36	212.06
934.66	212.07
934.96	211.99
935.26	212.01
935.56	212.10
935.86	211.92
936.16	211.89
936.46	211.89
936.76	211.78
937.06	211.75
937.36	211.73
937.66	211.75
937.96	211.72
938.26	211.71
938.56	211.59
938.86	211.54
939.16	211.57
939.46	211.67
939.76	211.68
940.06	211.70
940.35	211.60
940.65	211.38
940.95	211.36
941.25	211.30
941.55	211.22
941.85	211.16
942.15	211.29
942.45	211.31
942.75	211.26
943.04	211.31
943.34	211.33
943.64	211.33
943.94	211.28
944.24	211.32
944.54	211.38
944.84	211.46
945.13	211.43
945.43	211.38
945.73	211.34
946.03	211.34
946.33	211.29
946.62	211.28
946.92	211.31
947.22	211.37
947.52	211.35
947.82	211.47
948.11	211.44
948.41	211.31
948.71	211.27
949.01	211.34
949.31	211.34
949.60	211.27
949.90	211.32
950.20	211.32
950.50	211.28
950.79	211.13
951.09	211.16
951.39	211.21
951.69	211.16
951.98	211.16
952.28	211.13
952.58	211.14
952.87	211.13
953.17	211.09
953.47	211.04
953.76	211.03
954.06	210.90
954.36	210.82
954.66	210.82
954.95	210.93
955.25	210.95
955.55	210.97
955.84	210.98
956.14	210.95
956.44	210.89
956.73	210.79
957.03	210.89
957.32	210.83
957.62	210.82
957.92	210.94
958.21	210.91
958.51	211.30
958.81	211.35
959.10	211.38
959.40	211.55
959.69	211.53
959.99	211.60
960.29	211.69
960.58	211.69
960.88	211.84
961.17	211.70
961.47	211.74
961.76	211.62
962.06	211.64
962.36	211.61
962.65	211.70
962.95	211.70
963.24	211.61
963.54	211.67
963.83	211.73
964.13	211.66
964.42	211.60
964.72	211.33
965.01	211.33
965.31	211.26
965.60	211.15
965.90	211.30
966.19	211.20
966.49	211.20
966.78	211.21
967.08	211.19
967.37	211.24
967.67	211.09
967.96	211.17
968.26	211.15
968.55	211.16
968.85	211.09
969.14	211.08
969.43	211.06
969.73	210.99
970.02	210.95
970.32	210.93
970.61	210.92
970.91	210.81
971.20	210.75
971.49	210.80
971.79	210.84
972.08	210.71
972.38	210.76
972.67	210.70
972.96	210.79
973.26	210.71
973.55	210.83
973.85	210.83
974.14	210.87
974.43	210.92
974.73	210.87
975.02	210.87
975.31	210.92
975.61	210.96
975.90	210.94
976.19	210.87
976.49	210.91
976.78	210.96
977.07	210.98
977.37	211.00
977.66	211.03
977.95	210.91
978.24	210.86
978.54	210.93
978.83	210.90
979.12	210.81
979.42	210.82
979.71	210.76
980.00	210.81
980.29	210.74
980.59	210.63
980.88	210.78
981.17	210.74
981.46	210.80
981.76	210.79
982.05	210.89
982.34	210.90
982.63	210.91
982.93	210.88
983.22	210.97
983.51	210.99
983.80	211.02
984.09	211.11
984.39	211.17
984.68	211.14
984.97	211.16
985.26	211.12
985.55	211.12
985.85	211.02
986.14	211.00
986.43	211.05
986.72	211.05
987.01	210.89
987.30	210.90
987.59	210.78
987.89	210.84
988.18	210.76
988.47	210.77
988.76	210.68
989.05	210.66
989.34	210.65
989.63	210.75
989.92	210.70
990.22	210.64
990.51	210.58
990.80	210.56
991.09	210.57
991.38	210.63
991.67	210.61
991.96	210.56
992.25	210.63
992.54	210.60
992.83	210.64
993.12	210.65
993.41	210.72
993.70	210.85
993.99	210.82
994.28	210.91
994.58	210.94
994.87	210.95
995.16	210.96
995.45	210.87
995.74	210.70
996.03	210.72
996.32	210.80
996.61	210.83
996.90	210.78
997.19	210.88
997.48	210.93
997.77	210.92
998.06	210.99
998.34	210.91
998.63	210.92
998.92	210.89
999.21	210.90
999.50	210.93
999.79	210.73
1000.08	210.75
1000.37	210.77
1000.66	210.72
1000.95	210.83
1001.24	210.80
1001.53	210.84
1001.82	210.81
1002.11	210.69
1002.40	210.78
1002.68	210.85
1002.97	211.10
1003.26	210.96
1003.55	210.85
1003.84	210.85
1004.13	211.00
1004.42	210.99
1004.71	211.02
1004.99	210.98
1005.28	211.13
1005.57	211.09
1005.86	211.21
1006.15	211.21
1006.44	211.12
1006.72	211.09
1007.01	211.01
1007.30	211.02
1007.59	210.98
1007.88	211.03
1008.17	211.15
1008.45	210.97
1008.74	210.88
1009.03	210.70
1009.32	210.72
1009.60	210.75
1009.89	210.67
1010.18	210.51
1010.47	210.51
1010.76	210.46
1011.04	210.50
1011.33	210.81
1011.62	210.78
1011.91	210.73
1012.19	210.72
1012.48	210.73
1012.77	210.81
1013.05	210.96
1013.34	210.93
1013.63	210.95
1013.92	210.93
1014.20	210.87
1014.49	210.94
1014.78	210.96
1015.06	210.90
1015.35	210.93
1015.64	210.98
1015.92	211.05
1016.21	211.07
1016.50	211.05
1016.78	211.10
1017.07	211.12
1017.36	210.71
1017.64	210.73
1017.93	210.73
1018.22	210.73
1018.50	210.73
1018.79	210.70
1019.08	210.53
1019.36	210.60
1019.65	210.57
1019.93	210.69
1020.22	210.68
1020.51	210.84
1020.79	210.80
1021.08	210.90
1021.36	210.05
1021.65	210.55
1021.94	210.25
1022.22	211.05
1022.51	210.05
1022.79	212.05
1023.08	210.60
1023.36	214.55
1023.65	209.80
>>>>>End Processed Spectral Data<<<<<
