SpectraSuite Data File
++++++++++++++++++++++++++++++++++++
Date: Mon Feb 25 17:01:07 EST 2013
User: group
Dark Spectrum Present: No
Reference Spectrum Present: No
Number of Sampled Component Spectra: 1
Spectrometers: USB2E7196
Integration Time (usec): 104000 (USB2E7196)
Spectra Averaged: 20 (USB2E7196)
Boxcar Smoothing: 10 (USB2E7196)
Correct for Electrical Dark: No (USB2E7196)
Strobe/Lamp Enabled: No (USB2E7196)
Correct for Detector Non-linearity: No (USB2E7196)
Correct for Stray Light: No (USB2E7196)
Number of Pixels in Processed Spectrum: 2048
>>>>>Begin Processed Spectral Data<<<<<
339.09	0.00
339.48	197.40
339.86	199.10
340.24	200.85
340.63	201.40
341.01	209.90
341.39	204.80
341.78	206.85
342.16	209.40
342.54	209.05
342.93	197.86
343.31	207.87
343.69	208.46
344.07	208.94
344.46	209.41
344.84	209.81
345.22	209.79
345.60	210.09
345.99	210.29
346.37	210.40
346.75	210.46
347.13	210.54
347.52	210.55
347.90	210.71
348.28	210.73
348.66	210.79
349.05	210.83
349.43	210.95
349.81	211.03
350.19	211.06
350.57	210.99
350.96	211.15
351.34	211.22
351.72	211.31
352.10	211.43
352.48	211.50
352.87	211.62
353.25	211.74
353.63	211.77
354.01	211.83
354.39	211.88
354.77	211.96
355.15	212.14
355.54	212.16
355.92	212.09
356.30	212.12
356.68	212.41
357.06	212.48
357.44	212.38
357.82	212.40
358.20	212.52
358.58	212.70
358.97	212.76
359.35	212.93
359.73	213.04
360.11	213.07
360.49	213.11
360.87	213.19
361.25	213.26
361.63	213.41
362.01	213.43
362.39	213.43
362.77	213.43
363.15	213.39
363.53	213.44
363.91	213.54
364.29	213.62
364.67	213.34
365.05	213.28
365.43	213.36
365.81	213.50
366.19	213.59
366.57	213.69
366.95	213.70
367.33	213.58
367.71	213.59
368.09	213.61
368.47	213.65
368.85	213.59
369.23	213.71
369.61	213.56
369.99	213.66
370.37	213.70
370.75	213.90
371.13	213.80
371.51	213.70
371.89	213.70
372.27	213.65
372.65	213.64
373.03	213.67
373.41	213.63
373.78	213.45
374.16	213.23
374.54	213.06
374.92	212.96
375.30	212.94
375.68	212.78
376.06	212.84
376.44	212.71
376.82	212.72
377.19	212.56
377.57	212.49
377.95	212.29
378.33	212.23
378.71	212.00
379.09	212.01
379.47	212.01
379.84	211.94
380.22	211.85
380.60	211.73
380.98	211.60
381.36	211.56
381.73	211.53
382.11	211.53
382.49	211.52
382.87	211.42
383.25	211.34
383.62	211.71
384.00	211.53
384.38	211.45
384.76	211.38
385.13	211.49
385.51	211.47
385.89	211.45
386.27	211.42
386.64	211.42
387.02	211.38
387.40	211.37
387.78	211.33
388.15	211.34
388.53	211.30
388.91	211.30
389.29	211.28
389.66	211.28
390.04	211.30
390.42	211.37
390.79	211.44
391.17	211.44
391.55	211.06
391.92	211.05
392.30	211.11
392.68	211.09
393.05	211.07
393.43	211.08
393.81	211.04
394.18	210.93
394.56	210.93
394.94	211.01
395.31	210.90
395.69	211.05
396.06	211.06
396.44	211.15
396.82	211.16
397.19	211.37
397.57	211.32
397.95	211.31
398.32	211.15
398.70	211.15
399.07	211.23
399.45	211.25
399.82	211.30
400.20	211.34
400.58	211.37
400.95	211.21
401.33	211.36
401.70	211.60
402.08	211.73
402.45	211.70
402.83	211.81
403.20	212.00
403.58	212.00
403.95	212.22
404.33	212.34
404.71	212.44
405.08	212.67
405.46	212.86
405.83	213.06
406.21	213.27
406.58	213.54
406.96	213.72
407.33	213.94
407.70	214.15
408.08	214.71
408.45	214.99
408.83	215.52
409.20	215.81
409.58	216.07
409.95	216.48
410.33	216.97
410.70	217.26
411.08	217.78
411.45	218.25
411.82	218.67
412.20	219.34
412.57	220.17
412.95	220.54
413.32	221.28
413.69	222.01
414.07	222.90
414.44	223.68
414.82	224.63
415.19	225.73
415.56	226.83
415.94	227.83
416.31	229.28
416.68	230.45
417.06	231.91
417.43	233.37
417.81	235.03
418.18	236.72
418.55	238.54
418.93	240.45
419.30	242.45
419.67	244.54
420.04	246.60
420.42	248.80
420.79	251.71
421.16	254.37
421.54	257.34
421.91	260.21
422.28	263.22
422.66	266.40
423.03	269.60
423.40	272.83
423.77	276.29
424.15	279.59
424.52	283.31
424.89	287.42
425.26	291.29
425.64	295.06
426.01	299.15
426.38	303.44
426.75	307.74
427.13	312.23
427.50	316.91
427.87	321.95
428.24	326.94
428.61	331.54
428.99	336.85
429.36	342.36
429.73	347.90
430.10	353.47
430.47	359.21
430.85	365.09
431.22	371.35
431.59	378.25
431.96	384.87
432.33	392.01
432.70	398.83
433.08	406.95
433.45	414.63
433.82	422.37
434.19	430.97
434.56	439.53
434.93	447.78
435.30	456.02
435.68	465.09
436.05	474.03
436.42	482.85
436.79	491.00
437.16	499.84
437.53	509.39
437.90	518.86
438.27	528.17
438.64	537.78
439.01	546.81
439.38	554.60
439.75	562.23
440.13	571.03
440.50	579.32
440.87	586.46
441.24	593.76
441.61	601.68
441.98	607.81
442.35	614.74
442.72	621.68
443.09	628.50
443.46	632.85
443.83	635.98
444.20	638.85
444.57	642.74
444.94	644.84
445.31	646.87
445.68	649.05
446.05	650.38
446.42	650.07
446.79	649.69
447.16	649.25
447.53	649.21
447.90	646.51
448.27	643.84
448.64	639.55
449.01	636.67
449.37	631.28
449.74	625.94
450.11	619.55
450.48	612.41
450.85	604.99
451.22	598.68
451.59	592.78
451.96	587.13
452.33	579.28
452.70	572.32
453.07	563.80
453.43	555.08
453.80	546.65
454.17	538.70
454.54	531.18
454.91	522.96
455.28	514.92
455.65	507.48
456.02	500.35
456.38	494.00
456.75	486.07
457.12	479.35
457.49	472.73
457.86	466.20
458.23	460.73
458.59	454.85
458.96	448.85
459.33	443.42
459.70	437.91
460.07	433.67
460.43	428.81
460.80	424.28
461.17	420.15
461.54	415.77
461.91	411.73
462.27	407.49
462.64	403.96
463.01	400.07
463.38	396.33
463.74	392.25
464.11	388.97
464.48	386.11
464.85	382.91
465.21	380.60
465.58	378.05
465.95	374.88
466.32	372.23
466.68	369.61
467.05	366.99
467.42	364.47
467.78	361.72
468.15	359.04
468.52	357.06
468.88	354.47
469.25	352.35
469.62	350.46
469.98	348.51
470.35	346.64
470.72	344.94
471.08	343.01
471.45	341.45
471.82	339.77
472.18	337.91
472.55	336.70
472.92	334.97
473.28	333.57
473.65	332.37
474.02	331.06
474.38	330.03
474.75	329.13
475.11	328.10
475.48	327.30
475.85	326.54
476.21	325.79
476.58	325.21
476.94	324.57
477.31	323.95
477.67	323.40
478.04	322.95
478.41	322.57
478.77	322.51
479.14	322.08
479.50	321.79
479.87	321.67
480.23	321.43
480.60	321.27
480.96	321.24
481.33	321.39
481.69	321.52
482.06	321.53
482.42	321.49
482.79	321.72
483.15	321.99
483.52	322.42
483.88	322.71
484.25	323.05
484.61	323.48
484.98	323.95
485.34	324.59
485.71	325.19
486.07	325.78
486.44	326.18
486.80	326.93
487.17	327.83
487.53	328.73
487.90	329.77
488.26	330.91
488.62	331.94
488.99	332.93
489.35	334.04
489.72	335.30
490.08	336.76
490.44	337.97
490.81	339.52
491.17	340.77
491.54	342.34
491.90	343.92
492.26	345.48
492.63	347.10
492.99	348.67
493.36	350.56
493.72	352.39
494.08	354.23
494.45	356.30
494.81	358.30
495.17	360.33
495.54	362.44
495.90	364.54
496.26	366.76
496.63	368.99
496.99	371.14
497.35	373.43
497.72	375.55
498.08	377.91
498.44	380.10
498.80	382.70
499.17	385.14
499.53	387.45
499.89	390.03
500.26	392.42
500.62	394.84
500.98	397.18
501.34	399.63
501.71	402.22
502.07	404.51
502.43	406.90
502.79	409.07
503.16	411.27
503.52	413.52
503.88	415.57
504.24	417.72
504.60	420.04
504.97	422.21
505.33	424.35
505.69	426.61
506.05	428.70
506.41	430.56
506.78	432.28
507.14	434.09
507.50	435.96
507.86	437.79
508.22	439.64
508.59	441.11
508.95	442.78
509.31	444.47
509.67	445.96
510.03	447.34
510.39	448.99
510.75	450.46
511.12	451.82
511.48	453.05
511.84	454.19
512.20	455.22
512.56	456.18
512.92	457.13
513.28	457.97
513.64	458.73
514.00	459.60
514.37	460.39
514.73	461.31
515.09	461.99
515.45	462.53
515.81	462.94
516.17	463.50
516.53	463.69
516.89	463.64
517.25	464.02
517.61	464.41
517.97	464.56
518.33	464.58
518.69	464.63
519.05	464.83
519.41	464.96
519.77	465.37
520.13	465.56
520.49	465.60
520.85	465.64
521.21	465.83
521.57	465.73
521.93	465.65
522.29	465.48
522.65	465.34
523.01	465.35
523.37	465.34
523.73	465.50
524.09	465.62
524.45	465.76
524.81	465.92
525.17	466.09
525.53	466.26
525.89	466.57
526.25	466.92
526.61	466.99
526.97	467.17
527.33	467.16
527.68	467.80
528.04	468.20
528.40	468.41
528.76	468.77
529.12	469.29
529.48	470.07
529.84	470.71
530.20	471.38
530.56	472.20
530.91	473.17
531.27	473.93
531.63	474.83
531.99	475.88
532.35	476.72
532.71	477.62
533.07	478.75
533.42	480.10
533.78	481.16
534.14	482.53
534.50	483.83
534.86	485.25
535.21	486.32
535.57	487.95
535.93	489.36
536.29	490.89
536.65	492.54
537.00	493.99
537.36	495.68
537.72	497.10
538.08	498.78
538.44	500.27
538.79	502.15
539.15	503.97
539.51	505.77
539.87	507.80
540.22	509.73
540.58	511.80
540.94	513.82
541.29	515.88
541.65	517.93
542.01	520.23
542.37	522.54
542.72	524.73
543.08	526.86
543.44	529.45
543.79	531.71
544.15	534.12
544.51	536.70
544.87	539.21
545.22	542.03
545.58	544.58
545.94	547.13
546.29	549.57
546.65	552.10
547.01	554.58
547.36	557.22
547.72	559.77
548.07	562.28
548.43	564.60
548.79	567.10
549.14	569.72
549.50	572.33
549.86	574.91
550.21	577.60
550.57	580.37
550.92	582.90
551.28	585.64
551.64	588.28
551.99	591.03
552.35	593.50
552.70	595.97
553.06	598.57
553.41	601.28
553.77	604.02
554.13	606.88
554.48	609.72
554.84	612.40
555.19	615.21
555.55	618.03
555.90	620.70
556.26	623.35
556.61	625.90
556.97	628.28
557.32	630.66
557.68	632.89
558.03	635.16
558.39	637.32
558.74	639.60
559.10	641.97
559.45	644.20
559.81	646.68
560.16	648.98
560.52	651.28
560.87	653.59
561.23	655.78
561.58	658.05
561.94	660.10
562.29	662.04
562.64	664.10
563.00	665.91
563.35	668.19
563.71	670.45
564.06	672.57
564.42	674.84
564.77	677.05
565.12	679.47
565.48	681.87
565.83	684.28
566.19	686.45
566.54	688.31
566.89	690.19
567.25	692.35
567.60	694.57
567.96	696.58
568.31	698.67
568.66	700.43
569.02	701.91
569.37	703.48
569.72	705.17
570.08	706.64
570.43	708.15
570.78	709.28
571.14	710.49
571.49	711.62
571.84	712.84
572.20	713.77
572.55	714.65
572.90	715.01
573.26	715.42
573.61	716.00
573.96	716.87
574.31	717.34
574.67	717.55
575.02	717.58
575.37	717.64
575.72	717.56
576.08	717.71
576.43	717.78
576.78	717.87
577.13	717.97
577.49	718.03
577.84	718.01
578.19	718.26
578.54	718.60
578.90	718.88
579.25	718.59
579.60	718.40
579.95	718.07
580.30	718.23
580.66	718.52
581.01	718.35
581.36	717.80
581.71	717.74
582.06	717.56
582.42	717.39
582.77	716.99
583.12	716.69
583.47	716.53
583.82	716.15
584.17	715.76
584.53	715.46
584.88	715.20
585.23	714.97
585.58	714.26
585.93	713.57
586.28	713.07
586.63	712.82
586.98	712.51
587.34	712.35
587.69	711.55
588.04	710.90
588.39	710.46
588.74	709.72
589.09	709.10
589.44	708.29
589.79	707.72
590.14	707.14
590.49	706.54
590.84	705.71
591.19	705.25
591.54	704.80
591.89	703.46
592.25	702.72
592.60	701.53
592.95	700.43
593.30	699.13
593.65	697.67
594.00	696.31
594.35	695.95
594.70	694.44
595.05	693.52
595.40	692.13
595.75	690.73
596.10	689.88
596.45	688.67
596.80	687.67
597.15	686.56
597.50	685.30
597.85	683.95
598.19	682.67
598.54	681.26
598.89	679.87
599.24	679.21
599.59	677.79
599.94	676.75
600.29	675.70
600.64	674.45
600.99	673.18
601.34	672.10
601.69	669.87
602.04	668.47
602.39	667.10
602.74	666.00
603.08	664.87
603.43	663.82
603.78	662.52
604.13	661.17
604.48	659.70
604.83	658.70
605.18	657.59
605.53	656.24
605.87	654.74
606.22	653.38
606.57	651.85
606.92	650.27
607.27	648.65
607.62	647.18
607.96	646.02
608.31	644.91
608.66	643.32
609.01	641.85
609.36	640.49
609.70	638.76
610.05	637.04
610.40	635.47
610.75	633.42
611.10	632.01
611.44	630.06
611.79	628.19
612.14	626.31
612.49	624.15
612.83	622.38
613.18	620.65
613.53	618.64
613.88	616.49
614.22	614.68
614.57	612.88
614.92	611.02
615.27	609.02
615.61	606.90
615.96	605.15
616.31	603.23
616.65	601.52
617.00	599.82
617.35	597.99
617.70	595.83
618.04	593.79
618.39	591.32
618.74	589.41
619.08	587.52
619.43	585.58
619.78	583.98
620.12	581.99
620.47	580.11
620.82	578.10
621.16	576.02
621.51	574.13
621.85	572.18
622.20	570.11
622.55	568.06
622.89	566.05
623.24	563.85
623.59	561.85
623.93	559.78
624.28	557.78
624.62	556.07
624.97	554.29
625.32	552.50
625.66	550.79
626.01	548.88
626.35	546.91
626.70	544.76
627.04	542.82
627.39	540.93
627.73	539.14
628.08	537.52
628.43	535.82
628.77	533.79
629.12	531.81
629.46	530.14
629.81	528.34
630.15	526.51
630.50	524.70
630.84	522.77
631.19	520.83
631.53	518.89
631.88	516.61
632.22	514.53
632.57	512.84
632.91	510.84
633.26	509.05
633.60	507.18
633.95	505.51
634.29	503.59
634.64	501.79
634.98	499.78
635.32	498.00
635.67	496.29
636.01	494.59
636.36	492.77
636.70	490.85
637.05	488.96
637.39	487.46
637.73	485.80
638.08	484.43
638.42	482.87
638.77	481.39
639.11	479.84
639.45	478.16
639.80	476.16
640.14	474.46
640.49	472.58
640.83	470.90
641.17	469.07
641.52	467.20
641.86	465.44
642.20	463.94
642.55	461.96
642.89	460.16
643.23	458.33
643.58	456.85
643.92	455.10
644.26	453.42
644.61	451.53
644.95	449.71
645.29	447.76
645.64	446.06
645.98	444.24
646.32	442.46
646.66	440.72
647.01	439.02
647.35	437.37
647.69	435.83
648.04	434.15
648.38	432.57
648.72	430.88
649.06	429.00
649.41	427.12
649.75	425.35
650.09	423.74
650.43	422.06
650.78	420.16
651.12	418.45
651.46	416.73
651.80	415.10
652.14	413.44
652.49	411.86
652.83	410.14
653.17	408.27
653.51	406.74
653.85	405.24
654.20	403.78
654.54	402.00
654.88	400.20
655.22	398.61
655.56	396.77
655.90	395.10
656.25	393.48
656.59	391.81
656.93	390.38
657.27	388.83
657.61	387.12
657.95	385.62
658.29	384.02
658.64	382.71
658.98	381.05
659.32	379.45
659.66	377.81
660.00	376.10
660.34	374.71
660.68	373.08
661.02	371.45
661.36	369.93
661.70	368.57
662.05	367.22
662.39	365.89
662.73	364.71
663.07	363.61
663.41	362.42
663.75	361.15
664.09	359.81
664.43	358.39
664.77	357.12
665.11	355.73
665.45	354.54
665.79	353.09
666.13	351.77
666.47	350.50
666.81	349.28
667.15	348.13
667.49	346.89
667.83	345.71
668.17	344.51
668.51	343.35
668.85	342.23
669.19	341.22
669.53	339.91
669.87	338.70
670.21	337.42
670.55	336.22
670.89	335.30
671.23	334.19
671.57	333.09
671.91	332.08
672.25	331.01
672.58	329.98
672.92	328.84
673.26	327.89
673.60	326.86
673.94	325.83
674.28	324.80
674.62	323.86
674.96	322.78
675.30	321.82
675.64	320.67
675.97	319.62
676.31	318.54
676.65	317.65
676.99	316.85
677.33	315.81
677.67	314.91
678.01	313.72
678.34	312.79
678.68	311.87
679.02	310.86
679.36	309.95
679.70	308.98
680.04	308.08
680.37	307.17
680.71	306.32
681.05	305.47
681.39	304.54
681.73	303.64
682.06	302.87
682.40	302.01
682.74	301.30
683.08	300.68
683.42	299.76
683.75	298.93
684.09	297.90
684.43	297.16
684.77	296.29
685.10	295.49
685.44	294.62
685.78	293.88
686.12	293.18
686.45	292.36
686.79	291.58
687.13	290.97
687.46	290.20
687.80	289.46
688.14	288.67
688.48	287.99
688.81	287.24
689.15	286.57
689.49	285.78
689.82	285.07
690.16	284.11
690.50	283.32
690.83	282.57
691.17	281.85
691.51	281.07
691.84	280.39
692.18	279.64
692.52	278.93
692.85	278.26
693.19	277.66
693.52	276.98
693.86	276.23
694.20	275.46
694.53	274.83
694.87	274.09
695.21	273.42
695.54	272.77
695.88	271.95
696.21	271.17
696.55	270.63
696.88	270.01
697.22	269.33
697.56	268.90
697.89	268.20
698.23	267.70
698.56	267.05
698.90	266.51
699.23	265.91
699.57	265.31
699.90	264.69
700.24	263.97
700.58	263.37
700.91	262.90
701.25	262.63
701.58	262.15
701.92	261.71
702.25	261.21
702.59	260.64
702.92	260.16
703.26	259.70
703.59	259.12
703.93	258.85
704.26	258.41
704.60	257.90
704.93	257.46
705.26	256.89
705.60	256.43
705.93	255.85
706.27	255.55
706.60	255.19
706.94	254.94
707.27	254.48
707.61	254.07
707.94	253.61
708.27	252.83
708.61	252.28
708.94	251.80
709.28	251.37
709.61	250.95
709.94	250.61
710.28	250.25
710.61	249.92
710.95	249.18
711.28	249.07
711.61	248.59
711.95	248.35
712.28	247.91
712.61	247.59
712.95	247.44
713.28	247.16
713.61	246.79
713.95	246.24
714.28	245.97
714.61	245.65
714.95	245.26
715.28	244.85
715.61	244.49
715.95	244.25
716.28	243.89
716.61	243.60
716.95	243.21
717.28	242.77
717.61	242.43
717.94	242.14
718.28	241.52
718.61	241.25
718.94	240.82
719.27	240.52
719.61	240.23
719.94	239.82
720.27	239.33
720.60	238.94
720.94	238.66
721.27	238.41
721.60	238.17
721.93	237.92
722.27	237.91
722.60	237.75
722.93	237.40
723.26	237.12
723.59	236.80
723.93	236.59
724.26	236.41
724.59	236.13
724.92	235.93
725.25	235.80
725.59	235.58
725.92	235.36
726.25	235.19
726.58	235.01
726.91	234.81
727.24	234.69
727.57	234.55
727.91	234.27
728.24	234.01
728.57	233.75
728.90	233.60
729.23	233.20
729.56	233.07
729.89	232.87
730.22	232.67
730.55	232.48
730.89	232.28
731.22	232.02
731.55	231.76
731.88	231.53
732.21	231.29
732.54	231.00
732.87	230.82
733.20	230.55
733.53	230.36
733.86	230.14
734.19	229.80
734.52	229.66
734.85	229.73
735.18	229.51
735.51	229.47
735.84	229.28
736.17	229.20
736.50	228.86
736.83	229.05
737.16	228.88
737.49	228.69
737.82	228.51
738.15	228.44
738.48	228.38
738.81	228.14
739.14	227.96
739.47	227.80
739.80	227.60
740.13	227.50
740.46	227.20
740.79	226.99
741.12	226.88
741.45	226.62
741.78	226.25
742.11	226.25
742.44	225.95
742.77	225.83
743.10	225.62
743.43	225.43
743.75	224.88
744.08	225.17
744.41	225.05
744.74	224.89
745.07	224.62
745.40	224.49
745.73	224.54
746.06	224.38
746.39	224.32
746.71	224.16
747.04	223.98
747.37	223.92
747.70	223.85
748.03	223.79
748.36	223.77
748.68	223.61
749.01	223.34
749.34	223.25
749.67	223.09
750.00	223.02
750.33	223.22
750.65	223.15
750.98	222.60
751.31	222.44
751.64	222.28
751.97	222.43
752.29	222.29
752.62	222.07
752.95	221.94
753.28	221.70
753.60	221.60
753.93	221.69
754.26	221.51
754.59	221.28
754.91	221.10
755.24	220.95
755.57	220.92
755.90	220.79
756.22	220.77
756.55	220.66
756.88	220.48
757.20	220.11
757.53	219.92
757.86	219.88
758.19	219.81
758.51	219.81
758.84	219.47
759.17	219.33
759.49	219.27
759.82	219.38
760.15	219.44
760.47	219.39
760.80	219.14
761.13	219.19
761.45	219.11
761.78	219.00
762.11	218.85
762.43	218.70
762.76	218.66
763.08	218.51
763.41	218.45
763.74	218.45
764.06	218.36
764.39	218.31
764.71	218.20
765.04	218.09
765.37	217.98
765.69	217.91
766.02	217.86
766.34	217.74
766.67	217.50
767.00	217.36
767.32	217.47
767.65	217.59
767.97	217.52
768.30	217.48
768.62	217.42
768.95	217.37
769.27	217.34
769.60	217.25
769.92	217.15
770.25	217.00
770.57	216.81
770.90	216.76
771.22	216.70
771.55	216.65
771.87	216.68
772.20	216.60
772.52	216.84
772.85	217.28
773.17	217.25
773.50	217.23
773.82	217.21
774.15	216.97
774.47	216.65
774.80	216.55
775.12	216.60
775.45	216.55
775.77	216.56
776.09	216.48
776.42	216.45
776.74	216.50
777.07	216.48
777.39	216.48
777.72	216.41
778.04	216.39
778.36	216.35
778.69	216.27
779.01	216.28
779.33	215.94
779.66	215.42
779.98	215.36
780.31	215.26
780.63	215.45
780.95	215.47
781.28	215.48
781.60	215.35
781.92	215.21
782.25	215.16
782.57	215.09
782.89	215.11
783.22	215.07
783.54	215.00
783.86	214.92
784.19	214.90
784.51	215.01
784.83	214.98
785.16	214.87
785.48	214.81
785.80	214.78
786.12	214.79
786.45	214.83
786.77	214.80
787.09	214.83
787.42	214.63
787.74	214.57
788.06	214.55
788.38	214.61
788.71	214.56
789.03	214.62
789.35	214.67
789.67	214.60
789.99	214.63
790.32	214.51
790.64	214.60
790.96	214.89
791.28	214.73
791.61	214.64
791.93	214.69
792.25	214.68
792.57	214.85
792.89	214.79
793.21	214.68
793.54	214.66
793.86	214.55
794.18	214.48
794.50	214.45
794.82	214.46
795.14	214.44
795.47	214.52
795.79	214.50
796.11	214.37
796.43	214.30
796.75	214.25
797.07	214.23
797.39	214.21
797.71	213.89
798.04	213.85
798.36	213.90
798.68	213.87
799.00	213.84
799.32	213.66
799.64	213.68
799.96	213.68
800.28	213.74
800.60	213.78
800.92	213.82
801.24	213.78
801.56	213.68
801.89	213.62
802.21	213.60
802.53	213.51
802.85	213.58
803.17	213.71
803.49	213.71
803.81	213.72
804.13	213.58
804.45	213.57
804.77	213.60
805.09	213.52
805.41	213.44
805.73	213.41
806.05	213.35
806.37	213.32
806.69	213.34
807.01	213.25
807.33	213.14
807.65	212.98
807.97	213.19
808.28	213.23
808.60	213.23
808.92	213.18
809.24	213.36
809.56	213.28
809.88	213.19
810.20	213.13
810.52	213.19
810.84	213.21
811.16	213.11
811.48	213.12
811.80	213.24
812.12	213.31
812.43	213.40
812.75	213.39
813.07	213.36
813.39	213.36
813.71	213.30
814.03	213.29
814.35	213.31
814.67	213.07
814.98	212.95
815.30	212.92
815.62	212.83
815.94	212.60
816.26	212.58
816.58	212.48
816.89	212.49
817.21	212.44
817.53	212.45
817.85	212.45
818.17	212.37
818.48	212.24
818.80	212.21
819.12	212.14
819.44	212.02
819.76	211.95
820.07	211.98
820.39	212.03
820.71	212.12
821.03	212.07
821.34	211.93
821.66	212.02
821.98	212.00
822.30	212.00
822.61	212.22
822.93	212.13
823.25	212.05
823.57	211.93
823.88	212.00
824.20	211.97
824.52	212.02
824.83	212.09
825.15	212.04
825.47	212.02
825.79	212.01
826.10	212.03
826.42	212.03
826.74	212.03
827.05	212.00
827.37	212.00
827.69	212.01
828.00	212.20
828.32	212.23
828.64	212.25
828.95	212.42
829.27	212.25
829.58	212.31
829.90	212.45
830.22	212.50
830.53	212.36
830.85	212.37
831.17	212.35
831.48	212.31
831.80	212.30
832.11	212.29
832.43	212.27
832.75	212.23
833.06	212.45
833.38	212.31
833.69	212.23
834.01	212.18
834.32	212.14
834.64	212.08
834.96	212.03
835.27	211.99
835.59	211.93
835.90	211.95
836.22	211.89
836.53	211.81
836.85	211.85
837.16	212.24
837.48	212.20
837.79	212.28
838.11	212.30
838.42	212.32
838.74	212.34
839.05	212.24
839.37	212.20
839.68	211.91
840.00	211.91
840.31	211.99
840.63	211.94
840.94	211.96
841.26	211.89
841.57	211.88
841.88	211.95
842.20	211.86
842.51	211.75
842.83	211.77
843.14	212.05
843.46	212.05
843.77	211.82
844.08	211.77
844.40	211.62
844.71	211.60
845.03	211.56
845.34	211.50
845.65	211.53
845.97	211.60
846.28	211.66
846.60	211.67
846.91	211.67
847.22	211.66
847.54	211.72
847.85	211.66
848.16	211.64
848.48	211.56
848.79	211.68
849.10	211.75
849.42	211.70
849.73	211.41
850.04	211.34
850.36	211.21
850.67	211.28
850.98	211.30
851.30	211.24
851.61	211.22
851.92	211.18
852.23	211.20
852.55	211.18
852.86	211.25
853.17	211.25
853.49	211.27
853.80	211.36
854.11	211.38
854.42	211.56
854.74	211.51
855.05	211.48
855.36	211.30
855.67	211.31
855.99	211.40
856.30	211.74
856.61	211.75
856.92	211.68
857.23	211.70
857.55	211.66
857.86	211.71
858.17	211.84
858.48	211.87
858.79	211.90
859.11	211.99
859.42	211.95
859.73	211.88
860.04	211.90
860.35	211.80
860.66	211.67
860.98	211.59
861.29	211.70
861.60	211.65
861.91	211.75
862.22	211.65
862.53	211.58
862.84	211.22
863.16	211.30
863.47	211.30
863.78	211.26
864.09	211.25
864.40	211.28
864.71	211.22
865.02	211.26
865.33	211.21
865.64	211.07
865.95	211.05
866.27	211.29
866.58	211.24
866.89	211.32
867.20	211.33
867.51	211.27
867.82	211.23
868.13	211.36
868.44	211.31
868.75	211.40
869.06	211.44
869.37	211.47
869.68	211.33
869.99	211.38
870.30	211.36
870.61	211.41
870.92	211.38
871.23	211.34
871.54	211.34
871.85	211.47
872.16	211.53
872.47	211.46
872.78	211.27
873.09	211.28
873.40	211.23
873.71	211.26
874.02	211.32
874.33	211.25
874.64	211.16
874.95	211.27
875.26	211.25
875.56	211.22
875.87	211.20
876.18	211.19
876.49	211.53
876.80	211.52
877.11	211.53
877.42	211.46
877.73	211.49
878.04	211.41
878.35	211.32
878.66	211.30
878.96	211.35
879.27	211.29
879.58	211.26
879.89	211.25
880.20	211.29
880.51	211.24
880.82	211.31
881.12	211.33
881.43	211.19
881.74	211.19
882.05	211.15
882.36	211.20
882.67	211.30
882.97	210.94
883.28	210.92
883.59	210.82
883.90	210.85
884.21	210.87
884.51	210.89
884.82	210.88
885.13	210.91
885.44	210.86
885.74	210.93
886.05	210.89
886.36	210.90
886.67	210.85
886.98	211.07
887.28	211.04
887.59	211.02
887.90	211.07
888.20	211.00
888.51	211.11
888.82	211.03
889.13	211.03
889.43	211.36
889.74	211.36
890.05	211.36
890.35	211.43
890.66	211.35
890.97	211.34
891.28	211.38
891.58	211.42
891.89	211.51
892.20	211.42
892.50	211.40
892.81	211.40
893.12	211.37
893.42	211.19
893.73	211.14
894.04	211.17
894.34	211.11
894.65	211.07
894.95	211.01
895.26	211.02
895.57	211.09
895.87	210.65
896.18	210.71
896.48	210.79
896.79	210.68
897.10	210.76
897.40	210.73
897.71	210.75
898.01	210.71
898.32	210.66
898.63	210.73
898.93	210.84
899.24	210.79
899.54	210.78
899.85	210.81
900.15	210.82
900.46	210.85
900.76	210.87
901.07	210.89
901.38	210.93
901.68	211.00
901.99	210.79
902.29	210.90
902.60	210.75
902.90	210.73
903.21	210.80
903.51	210.70
903.82	210.78
904.12	210.73
904.43	210.70
904.73	210.75
905.03	210.73
905.34	210.99
905.64	211.01
905.95	211.04
906.25	210.97
906.56	210.91
906.86	210.90
907.17	210.88
907.47	210.88
907.77	210.77
908.08	210.71
908.38	210.83
908.69	210.84
908.99	211.01
909.30	211.03
909.60	211.02
909.90	211.14
910.21	211.04
910.51	211.01
910.81	211.02
911.12	210.95
911.42	210.98
911.73	210.63
912.03	210.65
912.33	210.72
912.64	210.76
912.94	210.87
913.24	210.87
913.55	210.89
913.85	210.91
914.15	211.02
914.46	211.06
914.76	211.12
915.06	211.11
915.37	211.05
915.67	211.07
915.97	211.10
916.27	211.01
916.58	211.00
916.88	211.00
917.18	211.01
917.49	211.24
917.79	211.17
918.09	211.27
918.39	211.38
918.70	211.30
919.00	211.23
919.30	211.36
919.60	211.31
919.91	211.30
920.21	211.35
920.51	211.28
920.81	211.34
921.12	211.26
921.42	211.24
921.72	211.29
922.02	211.27
922.32	211.29
922.63	211.29
922.93	211.51
923.23	211.55
923.53	211.57
923.83	211.42
924.13	211.51
924.44	211.44
924.74	211.51
925.04	211.59
925.34	211.60
925.64	211.43
925.94	211.39
926.24	211.53
926.55	211.45
926.85	211.50
927.15	211.49
927.45	211.47
927.75	211.52
928.05	211.49
928.35	211.51
928.65	211.69
928.95	211.76
929.26	211.70
929.56	211.74
929.86	211.75
930.16	211.75
930.46	211.71
930.76	211.74
931.06	211.57
931.36	211.46
931.66	211.54
931.96	211.63
932.26	211.65
932.56	211.56
932.86	211.53
933.16	211.58
933.46	211.55
933.76	211.50
934.06	211.48
934.36	211.63
934.66	211.57
934.96	211.45
935.26	211.44
935.56	211.40
935.86	211.33
936.16	211.29
936.46	211.21
936.76	211.20
937.06	211.18
937.36	211.25
937.66	211.29
937.96	211.24
938.26	211.20
938.56	211.18
938.86	211.16
939.16	211.31
939.46	211.32
939.76	211.19
940.06	211.27
940.35	211.25
940.65	211.07
940.95	211.10
941.25	210.97
941.55	210.89
941.85	210.89
942.15	211.00
942.45	211.05
942.75	211.08
943.04	211.12
943.34	211.16
943.64	211.04
943.94	210.95
944.24	210.96
944.54	210.89
944.84	210.92
945.13	210.89
945.43	210.84
945.73	210.81
946.03	210.82
946.33	210.74
946.62	210.64
946.92	210.57
947.22	210.61
947.52	210.64
947.82	210.66
948.11	210.60
948.41	210.48
948.71	210.47
949.01	210.42
949.31	210.29
949.60	210.23
949.90	210.30
950.20	210.33
950.50	210.36
950.79	210.40
951.09	210.44
951.39	210.39
951.69	210.37
951.98	210.44
952.28	210.48
952.58	210.51
952.87	210.59
953.17	210.69
953.47	210.65
953.76	210.62
954.06	210.61
954.36	210.58
954.66	210.53
954.95	210.60
955.25	210.66
955.55	210.75
955.84	210.70
956.14	210.72
956.44	210.76
956.73	210.68
957.03	210.75
957.32	210.72
957.62	210.70
957.92	210.75
958.21	210.73
958.51	211.18
958.81	211.25
959.10	211.32
959.40	211.45
959.69	211.44
959.99	211.50
960.29	211.50
960.58	211.45
960.88	211.64
961.17	211.53
961.47	211.58
961.76	211.52
962.06	211.60
962.36	211.61
962.65	211.53
962.95	211.59
963.24	211.46
963.54	211.50
963.83	211.61
964.13	211.64
964.42	211.62
964.72	211.33
965.01	211.32
965.31	211.33
965.60	211.23
965.90	211.43
966.19	211.40
966.49	211.38
966.78	211.41
967.08	211.35
967.37	211.46
967.67	211.35
967.96	211.47
968.26	211.50
968.55	211.55
968.85	211.67
969.14	211.67
969.43	211.73
969.73	211.72
970.02	211.65
970.32	211.55
970.61	211.42
970.91	211.35
971.20	211.21
971.49	211.13
971.79	211.12
972.08	210.87
972.38	210.87
972.67	210.89
972.96	210.91
973.26	210.88
973.55	210.94
973.85	211.07
974.14	211.00
974.43	211.03
974.73	210.90
975.02	210.87
975.31	210.90
975.61	210.90
975.90	210.90
976.19	210.93
976.49	210.93
976.78	210.89
977.07	210.85
977.37	210.92
977.66	210.92
977.95	210.91
978.24	210.92
978.54	211.02
978.83	210.96
979.12	210.96
979.42	210.92
979.71	210.77
980.00	210.68
980.29	210.66
980.59	210.60
980.88	210.67
981.17	210.67
981.46	210.63
981.76	210.63
982.05	210.72
982.34	210.73
982.63	210.82
982.93	210.90
983.22	210.92
983.51	210.93
983.80	211.01
984.09	211.06
984.39	211.08
984.68	210.96
984.97	211.04
985.26	211.03
985.55	211.05
985.85	211.03
986.14	211.05
986.43	211.16
986.72	211.14
987.01	211.03
987.30	210.98
987.59	210.94
987.89	210.96
988.18	210.83
988.47	210.76
988.76	210.70
989.05	210.66
989.34	210.67
989.63	210.78
989.92	210.70
990.22	210.58
990.51	210.58
990.80	210.65
991.09	210.66
991.38	210.64
991.67	210.54
991.96	210.51
992.25	210.52
992.54	210.37
992.83	210.33
993.12	210.33
993.41	210.37
993.70	210.54
993.99	210.61
994.28	210.67
994.58	210.72
994.87	210.67
995.16	210.70
995.45	210.66
995.74	210.48
996.03	210.59
996.32	210.68
996.61	210.75
996.90	210.71
997.19	210.61
997.48	210.71
997.77	210.68
998.06	210.67
998.34	210.61
998.63	210.65
998.92	210.68
999.21	210.72
999.50	210.72
999.79	210.58
1000.08	210.47
1000.37	210.33
1000.66	210.30
1000.95	210.35
1001.24	210.33
1001.53	210.33
1001.82	210.41
1002.11	210.30
1002.40	210.37
1002.68	210.40
1002.97	210.68
1003.26	210.69
1003.55	210.63
1003.84	210.69
1004.13	210.83
1004.42	210.85
1004.71	210.90
1004.99	210.95
1005.28	211.02
1005.57	211.05
1005.86	211.00
1006.15	211.00
1006.44	211.06
1006.72	211.12
1007.01	211.08
1007.30	211.08
1007.59	211.08
1007.88	210.99
1008.17	211.02
1008.45	210.85
1008.74	210.80
1009.03	210.60
1009.32	210.57
1009.60	210.55
1009.89	210.59
1010.18	210.48
1010.47	210.43
1010.76	210.28
1011.04	210.18
1011.33	210.20
1011.62	210.11
1011.91	210.18
1012.19	210.20
1012.48	210.21
1012.77	210.13
1013.05	210.31
1013.34	210.33
1013.63	210.31
1013.92	210.37
1014.20	210.27
1014.49	210.37
1014.78	210.33
1015.06	210.21
1015.35	210.23
1015.64	210.24
1015.92	210.22
1016.21	210.30
1016.50	210.29
1016.78	210.41
1017.07	210.45
1017.36	210.45
1017.64	210.42
1017.93	210.43
1018.22	210.46
1018.50	210.50
1018.79	210.53
1019.08	210.40
1019.36	210.41
1019.65	210.36
1019.93	210.47
1020.22	210.59
1020.51	210.75
1020.79	210.70
1021.08	211.20
1021.36	211.00
1021.65	210.35
1021.94	210.95
1022.22	210.30
1022.51	209.20
1022.79	212.50
1023.08	211.25
1023.36	214.90
1023.65	209.30
>>>>>End Processed Spectral Data<<<<<
