SpectraSuite Data File
++++++++++++++++++++++++++++++++++++
Date: Mon Feb 25 17:01:21 EST 2013
User: group
Dark Spectrum Present: No
Reference Spectrum Present: No
Number of Sampled Component Spectra: 1
Spectrometers: USB2E7196
Integration Time (usec): 104000 (USB2E7196)
Spectra Averaged: 20 (USB2E7196)
Boxcar Smoothing: 10 (USB2E7196)
Correct for Electrical Dark: No (USB2E7196)
Strobe/Lamp Enabled: No (USB2E7196)
Correct for Detector Non-linearity: No (USB2E7196)
Correct for Stray Light: No (USB2E7196)
Number of Pixels in Processed Spectrum: 2048
>>>>>Begin Processed Spectral Data<<<<<
339.09	0.00
339.48	198.65
339.86	199.65
340.24	200.70
340.63	203.30
341.01	209.20
341.39	204.70
341.78	207.35
342.16	210.20
342.54	208.95
342.93	198.16
343.31	208.19
343.69	208.76
344.07	209.25
344.46	209.70
344.84	210.06
345.22	210.13
345.60	210.44
345.99	210.58
346.37	210.56
346.75	210.57
347.13	210.64
347.52	210.72
347.90	210.84
348.28	210.85
348.66	210.83
349.05	210.85
349.43	210.91
349.81	210.99
350.19	210.99
350.57	211.04
350.96	211.05
351.34	211.11
351.72	211.15
352.10	211.18
352.48	211.22
352.87	211.21
353.25	211.17
353.63	211.21
354.01	211.29
354.39	211.39
354.77	211.46
355.15	211.56
355.54	211.54
355.92	211.49
356.30	211.52
356.68	211.68
357.06	211.73
357.44	211.70
357.82	211.74
358.20	211.87
358.58	211.91
358.97	212.01
359.35	212.15
359.73	212.30
360.11	212.40
360.49	212.44
360.87	212.53
361.25	212.66
361.63	212.76
362.01	212.71
362.39	212.74
362.77	212.84
363.15	212.78
363.53	212.80
363.91	212.83
364.29	212.81
364.67	212.58
365.05	212.62
365.43	212.69
365.81	212.73
366.19	212.86
366.57	213.01
366.95	213.00
367.33	212.84
367.71	212.78
368.09	212.79
368.47	212.78
368.85	212.77
369.23	212.82
369.61	212.65
369.99	212.81
370.37	212.84
370.75	212.97
371.13	212.98
371.51	212.89
371.89	212.80
372.27	212.83
372.65	212.81
373.03	212.74
373.41	212.65
373.78	212.60
374.16	212.35
374.54	212.19
374.92	212.15
375.30	212.14
375.68	212.06
376.06	212.03
376.44	212.01
376.82	212.00
377.19	211.96
377.57	212.00
377.95	211.85
378.33	211.76
378.71	211.50
379.09	211.52
379.47	211.63
379.84	211.55
380.22	211.54
380.60	211.50
380.98	211.45
381.36	211.43
381.73	211.31
382.11	211.36
382.49	211.36
382.87	211.26
383.25	211.22
383.62	211.48
384.00	211.44
384.38	211.39
384.76	211.36
385.13	211.39
385.51	211.40
385.89	211.38
386.27	211.40
386.64	211.40
387.02	211.33
387.40	211.25
387.78	211.32
388.15	211.29
388.53	211.20
388.91	211.20
389.29	211.13
389.66	211.17
390.04	211.08
390.42	211.12
390.79	211.16
391.17	211.12
391.55	210.78
391.92	210.74
392.30	210.78
392.68	210.74
393.05	210.76
393.43	210.66
393.81	210.59
394.18	210.54
394.56	210.56
394.94	210.54
395.31	210.47
395.69	210.59
396.06	210.63
396.44	210.65
396.82	210.60
397.19	210.84
397.57	210.83
397.95	210.94
398.32	210.80
398.70	210.80
399.07	210.90
399.45	210.98
399.82	210.93
400.20	210.92
400.58	210.90
400.95	210.79
401.33	210.92
401.70	211.26
402.08	211.29
402.45	211.41
402.83	211.63
403.20	211.79
403.58	211.78
403.95	211.81
404.33	212.03
404.71	212.18
405.08	212.41
405.46	212.56
405.83	212.72
406.21	212.95
406.58	213.20
406.96	213.39
407.33	213.60
407.70	213.91
408.08	214.44
408.45	214.91
408.83	215.33
409.20	215.56
409.58	215.65
409.95	216.05
410.33	216.35
410.70	216.68
411.08	217.15
411.45	217.68
411.82	218.23
412.20	218.81
412.57	219.66
412.95	219.98
413.32	220.81
413.69	221.53
414.07	222.28
414.44	223.09
414.82	223.98
415.19	224.98
415.56	226.10
415.94	227.06
416.31	228.27
416.68	229.45
417.06	230.99
417.43	232.50
417.81	234.05
418.18	235.83
418.55	237.62
418.93	239.47
419.30	241.37
419.67	243.53
420.04	245.62
420.42	247.72
420.79	250.57
421.16	253.07
421.54	255.88
421.91	258.72
422.28	261.71
422.66	264.87
423.03	268.09
423.40	271.15
423.77	274.47
424.15	277.87
424.52	281.55
424.89	285.46
425.26	289.25
425.64	292.90
426.01	296.85
426.38	301.01
426.75	305.36
427.13	309.79
427.50	314.36
427.87	319.25
428.24	324.12
428.61	328.68
428.99	333.98
429.36	339.44
429.73	344.91
430.10	350.25
430.47	355.97
430.85	361.60
431.22	367.92
431.59	374.61
431.96	380.83
432.33	387.77
432.70	394.46
433.08	402.29
433.45	409.80
433.82	417.31
434.19	425.57
434.56	433.86
434.93	441.84
435.30	449.78
435.68	458.45
436.05	467.27
436.42	475.91
436.79	483.82
437.16	492.40
437.53	501.50
437.90	510.65
438.27	519.54
438.64	528.91
439.01	537.53
439.38	545.21
439.75	552.99
440.13	561.67
440.50	569.81
440.87	576.55
441.24	583.58
441.61	591.29
441.98	597.28
442.35	603.90
442.72	610.73
443.09	617.45
443.46	621.80
443.83	624.80
444.20	627.49
444.57	631.09
444.94	633.19
445.31	635.31
445.68	637.46
446.05	638.83
446.42	638.60
446.79	638.19
447.16	637.62
447.53	637.33
447.90	634.60
448.27	632.16
448.64	628.28
449.01	625.51
449.37	620.22
449.74	614.97
450.11	608.86
450.48	601.83
450.85	594.66
451.22	588.48
451.59	582.67
451.96	577.16
452.33	569.67
452.70	562.84
453.07	554.66
453.43	546.13
453.80	537.81
454.17	530.03
454.54	522.64
454.91	514.70
455.28	506.95
455.65	499.67
456.02	492.42
456.38	486.21
456.75	478.60
457.12	472.01
457.49	465.79
457.86	459.38
458.23	454.19
458.59	448.27
458.96	442.42
459.33	437.14
459.70	431.81
460.07	427.56
460.43	422.71
460.80	418.13
461.17	414.18
461.54	410.04
461.91	406.07
462.27	402.00
462.64	398.66
463.01	394.82
463.38	391.24
463.74	387.42
464.11	384.16
464.48	381.27
464.85	378.26
465.21	375.87
465.58	373.40
465.95	370.13
466.32	367.57
466.68	365.13
467.05	362.57
467.42	360.05
467.78	357.39
468.15	354.95
468.52	353.09
468.88	350.64
469.25	348.50
469.62	346.76
469.98	344.80
470.35	342.93
470.72	341.21
471.08	339.21
471.45	337.63
471.82	336.07
472.18	334.28
472.55	332.98
472.92	331.42
473.28	330.07
473.65	328.86
474.02	327.59
474.38	326.43
474.75	325.51
475.11	324.53
475.48	323.69
475.85	322.86
476.21	322.04
476.58	321.44
476.94	320.94
477.31	320.28
477.67	319.81
478.04	319.38
478.41	319.01
478.77	319.04
479.14	318.59
479.50	318.43
479.87	318.46
480.23	318.34
480.60	318.05
480.96	317.94
481.33	318.17
481.69	318.24
482.06	318.26
482.42	318.30
482.79	318.38
483.15	318.69
483.52	319.06
483.88	319.38
484.25	319.62
484.61	319.98
484.98	320.35
485.34	320.98
485.71	321.69
486.07	322.39
486.44	322.75
486.80	323.44
487.17	324.10
487.53	324.92
487.90	325.90
488.26	327.04
488.62	328.16
488.99	329.02
489.35	330.13
489.72	331.37
490.08	332.67
490.44	333.92
490.81	335.31
491.17	336.72
491.54	338.16
491.90	339.64
492.26	341.02
492.63	342.64
492.99	344.18
493.36	345.76
493.72	347.41
494.08	349.22
494.45	351.18
494.81	353.19
495.17	355.03
495.54	357.10
495.90	359.09
496.26	361.08
496.63	363.26
496.99	365.41
497.35	367.57
497.72	369.71
498.08	371.99
498.44	374.27
498.80	376.64
499.17	378.95
499.53	381.35
499.89	383.84
500.26	386.13
500.62	388.38
500.98	390.78
501.34	393.11
501.71	395.38
502.07	397.56
502.43	399.77
502.79	401.86
503.16	403.98
503.52	406.18
503.88	408.21
504.24	410.27
504.60	412.23
504.97	414.25
505.33	416.23
505.69	418.34
506.05	420.16
506.41	421.85
506.78	423.49
507.14	425.16
507.50	426.79
507.86	428.49
508.22	430.11
508.59	431.45
508.95	432.89
509.31	434.34
509.67	435.76
510.03	437.03
510.39	438.40
510.75	439.65
511.12	440.82
511.48	441.89
511.84	442.94
512.20	443.85
512.56	444.78
512.92	445.73
513.28	446.46
513.64	447.07
514.00	447.89
514.37	448.72
514.73	449.32
515.09	449.89
515.45	450.30
515.81	450.76
516.17	451.22
516.53	451.51
516.89	451.77
517.25	451.88
517.61	452.13
517.97	452.19
518.33	452.15
518.69	452.14
519.05	452.25
519.41	452.41
519.77	452.76
520.13	452.76
520.49	452.57
520.85	452.46
521.21	452.57
521.57	452.45
521.93	452.24
522.29	452.21
522.65	452.13
523.01	452.05
523.37	451.80
523.73	451.76
524.09	451.75
524.45	451.77
524.81	451.93
525.17	452.06
525.53	452.41
525.89	452.64
526.25	452.84
526.61	452.88
526.97	452.87
527.33	453.00
527.68	453.61
528.04	454.07
528.40	454.39
528.76	454.74
529.12	455.35
529.48	456.03
529.84	456.60
530.20	457.23
530.56	457.88
530.91	458.85
531.27	459.69
531.63	460.54
531.99	461.37
532.35	462.36
532.71	463.29
533.07	464.35
533.42	465.77
533.78	466.84
534.14	468.18
534.50	469.46
534.86	470.77
535.21	471.77
535.57	473.27
535.93	474.74
536.29	476.41
536.65	477.95
537.00	479.44
537.36	480.98
537.72	482.63
538.08	484.50
538.44	486.14
538.79	487.95
539.15	489.69
539.51	491.63
539.87	493.57
540.22	495.54
540.58	497.58
540.94	499.41
541.29	501.60
541.65	503.59
542.01	505.88
542.37	508.15
542.72	510.46
543.08	512.62
543.44	515.18
543.79	517.44
544.15	519.84
544.51	522.53
544.87	525.14
545.22	527.73
545.58	530.22
545.94	532.82
546.29	535.39
546.65	538.14
547.01	540.76
547.36	543.59
547.72	546.24
548.07	548.81
548.43	551.45
548.79	554.05
549.14	556.69
549.50	559.37
549.86	561.92
550.21	564.57
550.57	567.43
550.92	570.01
551.28	572.71
551.64	575.35
551.99	577.85
552.35	580.35
552.70	582.90
553.06	585.65
553.41	588.30
553.77	591.10
554.13	593.80
554.48	596.60
554.84	599.27
555.19	601.86
555.55	604.77
555.90	607.22
556.26	609.79
556.61	612.38
556.97	614.72
557.32	617.20
557.68	619.76
558.03	622.05
558.39	624.32
558.74	626.76
559.10	629.11
559.45	631.61
559.81	634.08
560.16	636.46
560.52	638.75
560.87	641.24
561.23	643.26
561.58	645.67
561.94	647.70
562.29	649.76
562.64	651.99
563.00	653.85
563.35	656.14
563.71	658.42
564.06	660.73
564.42	663.05
564.77	665.31
565.12	667.53
565.48	669.98
565.83	672.27
566.19	674.40
566.54	676.35
566.89	678.27
567.25	680.59
567.60	682.81
567.96	684.99
568.31	687.09
568.66	689.08
569.02	690.45
569.37	691.97
569.72	693.28
570.08	694.86
570.43	696.22
570.78	697.57
571.14	698.72
571.49	699.67
571.84	700.84
572.20	701.83
572.55	702.77
572.90	703.27
573.26	703.85
573.61	704.38
573.96	705.08
574.31	705.37
574.67	705.58
575.02	705.54
575.37	705.48
575.72	705.27
576.08	705.39
576.43	705.44
576.78	705.75
577.13	706.19
577.49	706.27
577.84	706.38
578.19	706.34
578.54	706.70
578.90	707.05
579.25	707.10
579.60	706.93
579.95	706.60
580.30	706.71
580.66	706.80
581.01	706.70
581.36	706.49
581.71	706.48
582.06	706.32
582.42	706.30
582.77	706.00
583.12	705.77
583.47	705.69
583.82	705.60
584.17	705.29
584.53	705.16
584.88	704.77
585.23	704.58
585.58	704.33
585.93	703.79
586.28	703.40
586.63	702.99
586.98	702.61
587.34	702.44
587.69	701.86
588.04	701.14
588.39	700.67
588.74	699.97
589.09	699.63
589.44	698.70
589.79	698.13
590.14	697.53
590.49	696.80
590.84	695.73
591.19	695.36
591.54	694.56
591.89	693.23
592.25	692.59
592.60	691.50
592.95	690.43
593.30	689.04
593.65	687.73
594.00	686.38
594.35	685.99
594.70	684.57
595.05	683.43
595.40	682.38
595.75	680.94
596.10	679.88
596.45	678.69
596.80	677.77
597.15	676.59
597.50	675.25
597.85	674.19
598.19	673.14
598.54	671.80
598.89	670.63
599.24	669.76
599.59	668.27
599.94	667.17
600.29	665.98
600.64	664.96
600.99	664.00
601.34	663.00
601.69	660.84
602.04	659.69
602.39	658.37
602.74	657.19
603.08	656.14
603.43	655.21
603.78	653.81
604.13	652.58
604.48	651.35
604.83	650.57
605.18	649.50
605.53	648.31
605.87	647.04
606.22	645.77
606.57	644.34
606.92	642.97
607.27	641.50
607.62	640.10
607.96	638.97
608.31	637.59
608.66	636.08
609.01	634.78
609.36	633.27
609.70	631.86
610.05	630.32
610.40	628.88
610.75	627.15
611.10	625.75
611.44	623.91
611.79	622.08
612.14	620.17
612.49	618.09
612.83	616.44
613.18	614.38
613.53	612.61
613.88	610.71
614.22	609.02
614.57	607.27
614.92	605.50
615.27	603.53
615.61	601.60
615.96	599.69
616.31	598.03
616.65	596.46
617.00	594.48
617.35	592.70
617.70	590.62
618.04	588.62
618.39	586.35
618.74	584.50
619.08	582.41
619.43	580.49
619.78	578.71
620.12	576.73
620.47	574.94
620.82	572.68
621.16	570.63
621.51	568.69
621.85	566.66
622.20	564.47
622.55	562.33
622.89	560.27
623.24	558.29
623.59	556.13
623.93	554.00
624.28	552.21
624.62	550.38
624.97	548.75
625.32	546.79
625.66	545.01
626.01	543.19
626.35	541.55
626.70	539.68
627.04	537.90
627.39	536.08
627.73	534.35
628.08	532.75
628.43	530.90
628.77	528.93
629.12	527.03
629.46	525.44
629.81	523.73
630.15	521.80
630.50	520.04
630.84	518.11
631.19	516.29
631.53	514.50
631.88	512.36
632.22	510.20
632.57	508.47
632.91	506.64
633.26	504.81
633.60	502.92
633.95	501.13
634.29	499.15
634.64	497.29
634.98	495.22
635.32	493.55
635.67	491.93
636.01	490.31
636.36	488.53
636.70	486.84
637.05	485.02
637.39	483.44
637.73	481.81
638.08	480.52
638.42	479.04
638.77	477.25
639.11	475.67
639.45	474.10
639.80	472.25
640.14	470.43
640.49	468.72
640.83	466.92
641.17	465.30
641.52	463.60
641.86	461.78
642.20	460.15
642.55	458.22
642.89	456.41
643.23	454.56
643.58	453.14
643.92	451.32
644.26	449.71
644.61	448.01
644.95	446.35
645.29	444.39
645.64	442.41
645.98	440.74
646.32	439.08
646.66	437.23
647.01	435.52
647.35	434.08
647.69	432.33
648.04	430.82
648.38	428.93
648.72	427.19
649.06	425.40
649.41	423.78
649.75	422.25
650.09	420.75
650.43	419.18
650.78	417.20
651.12	415.55
651.46	413.95
651.80	412.25
652.14	410.53
652.49	409.01
652.83	407.49
653.17	405.84
653.51	404.15
653.85	402.72
654.20	401.25
654.54	399.42
654.88	397.77
655.22	396.26
655.56	394.68
655.90	393.24
656.25	391.67
656.59	390.06
656.93	388.39
657.27	386.92
657.61	385.28
657.95	383.87
658.29	382.40
658.64	380.89
658.98	379.38
659.32	377.75
659.66	376.25
660.00	374.76
660.34	373.14
660.68	371.52
661.02	369.91
661.36	368.34
661.70	366.96
662.05	365.66
662.39	364.28
662.73	363.00
663.07	361.80
663.41	360.65
663.75	359.29
664.09	358.01
664.43	356.47
664.77	355.21
665.11	353.90
665.45	352.60
665.79	351.33
666.13	350.04
666.47	348.79
666.81	347.45
667.15	346.10
667.49	345.10
667.83	344.14
668.17	343.07
668.51	341.93
668.85	340.82
669.19	339.68
669.53	338.32
669.87	337.07
670.21	335.77
670.55	334.55
670.89	333.59
671.23	332.44
671.57	331.43
671.91	330.28
672.25	329.18
672.58	328.16
672.92	327.04
673.26	326.02
673.60	325.00
673.94	323.95
674.28	322.94
674.62	321.93
674.96	320.90
675.30	319.90
675.64	318.98
675.97	318.01
676.31	317.04
676.65	316.14
676.99	315.42
677.33	314.50
677.67	313.54
678.01	312.44
678.34	311.55
678.68	310.64
679.02	309.75
679.36	308.88
679.70	307.92
680.04	307.04
680.37	306.16
680.71	305.28
681.05	304.48
681.39	303.68
681.73	302.82
682.06	301.99
682.40	301.23
682.74	300.41
683.08	299.69
683.42	298.87
683.75	298.14
684.09	297.22
684.43	296.40
684.77	295.64
685.10	294.93
685.44	294.10
685.78	293.44
686.12	292.70
686.45	291.93
686.79	291.11
687.13	290.47
687.46	289.67
687.80	289.00
688.14	288.20
688.48	287.53
688.81	286.81
689.15	286.00
689.49	285.22
689.82	284.48
690.16	283.54
690.50	282.82
690.83	282.03
691.17	281.24
691.51	280.48
691.84	279.79
692.18	279.06
692.52	278.38
692.85	277.65
693.19	277.10
693.52	276.48
693.86	275.83
694.20	275.14
694.53	274.53
694.87	273.81
695.21	273.25
695.54	272.58
695.88	271.77
696.21	271.02
696.55	270.49
696.88	269.77
697.22	269.23
697.56	268.72
697.89	268.06
698.23	267.46
698.56	266.92
698.90	266.35
699.23	265.72
699.57	265.23
699.90	264.53
700.24	263.78
700.58	263.18
700.91	262.70
701.25	262.39
701.58	261.94
701.92	261.50
702.25	260.99
702.59	260.41
702.92	259.98
703.26	259.55
703.59	258.92
703.93	258.85
704.26	258.38
704.60	257.80
704.93	257.32
705.26	256.90
705.60	256.46
705.93	255.97
706.27	255.61
706.60	255.22
706.94	255.03
707.27	254.66
707.61	254.24
707.94	253.71
708.27	252.94
708.61	252.46
708.94	252.08
709.28	251.60
709.61	251.18
709.94	250.80
710.28	250.40
710.61	250.10
710.95	249.39
711.28	249.16
711.61	248.72
711.95	248.52
712.28	247.95
712.61	247.56
712.95	247.32
713.28	247.11
713.61	246.63
713.95	246.05
714.28	245.66
714.61	245.25
714.95	244.82
715.28	244.55
715.61	244.11
715.95	243.67
716.28	243.26
716.61	243.02
716.95	242.59
717.28	242.29
717.61	241.96
717.94	241.58
718.28	241.04
718.61	240.78
718.94	240.35
719.27	240.14
719.61	239.81
719.94	239.47
720.27	239.00
720.60	238.69
720.94	238.42
721.27	238.12
721.60	238.01
721.93	237.79
722.27	237.64
722.60	237.44
722.93	237.15
723.26	237.03
723.59	236.68
723.93	236.52
724.26	236.29
724.59	235.95
724.92	235.73
725.25	235.60
725.59	235.40
725.92	235.18
726.25	234.98
726.58	234.74
726.91	234.45
727.24	234.20
727.57	234.01
727.91	233.76
728.24	233.59
728.57	233.25
728.90	233.08
729.23	232.71
729.56	232.59
729.89	232.40
730.22	232.15
730.55	231.94
730.89	231.70
731.22	231.46
731.55	231.28
731.88	231.13
732.21	230.93
732.54	230.63
732.87	230.44
733.20	230.29
733.53	230.09
733.86	229.95
734.19	229.80
734.52	229.67
734.85	229.68
735.18	229.54
735.51	229.49
735.84	229.39
736.17	229.27
736.50	228.89
736.83	229.13
737.16	228.89
737.49	228.67
737.82	228.54
738.15	228.38
738.48	228.21
738.81	227.98
739.14	227.73
739.47	227.51
739.80	227.34
740.13	227.08
740.46	226.91
740.79	226.70
741.12	226.50
741.45	226.28
741.78	225.96
742.11	225.78
742.44	225.46
742.77	225.30
743.10	225.13
743.43	225.09
743.75	224.51
744.08	224.85
744.41	224.69
744.74	224.48
745.07	224.32
745.40	224.21
745.73	224.22
746.06	224.06
746.39	224.09
746.71	223.95
747.04	223.85
747.37	223.68
747.70	223.55
748.03	223.42
748.36	223.32
748.68	223.22
749.01	222.97
749.34	222.86
749.67	222.72
750.00	222.65
750.33	222.76
750.65	222.69
750.98	222.16
751.31	222.14
751.64	222.05
751.97	222.13
752.29	222.05
752.62	221.76
752.95	221.62
753.28	221.36
753.60	221.23
753.93	221.20
754.26	221.03
754.59	220.88
754.91	220.77
755.24	220.67
755.57	220.52
755.90	220.49
756.22	220.35
756.55	220.23
756.88	220.07
757.20	219.75
757.53	219.61
757.86	219.49
758.19	219.39
758.51	219.25
758.84	219.01
759.17	218.88
759.49	218.84
759.82	219.00
760.15	219.00
760.47	218.90
760.80	218.70
761.13	218.78
761.45	218.69
761.78	218.59
762.11	218.46
762.43	218.36
762.76	218.31
763.08	218.40
763.41	218.38
763.74	218.31
764.06	218.26
764.39	218.15
764.71	218.08
765.04	217.93
765.37	217.89
765.69	217.72
766.02	217.62
766.34	217.54
766.67	217.28
767.00	217.32
767.32	217.45
767.65	217.61
767.97	217.48
768.30	217.46
768.62	217.45
768.95	217.40
769.27	217.41
769.60	217.39
769.92	217.16
770.25	217.01
770.57	216.91
770.90	216.81
771.22	216.74
771.55	216.69
771.87	216.65
772.20	216.55
772.52	216.80
772.85	217.15
773.17	217.12
773.50	217.01
773.82	216.83
774.15	216.60
774.47	216.41
774.80	216.29
775.12	216.21
775.45	216.08
775.77	216.02
776.09	216.00
776.42	215.97
776.74	216.08
777.07	216.05
777.39	215.98
777.72	215.89
778.04	215.94
778.36	215.82
778.69	215.81
779.01	215.78
779.33	215.50
779.66	215.09
779.98	215.01
780.31	215.05
780.63	215.11
780.95	215.17
781.28	215.07
781.60	215.08
781.92	215.07
782.25	215.10
782.57	215.09
782.89	214.95
783.22	214.85
783.54	214.73
783.86	214.64
784.19	214.59
784.51	214.66
784.83	214.48
785.16	214.48
785.48	214.46
785.80	214.45
786.12	214.44
786.45	214.36
786.77	214.38
787.09	214.28
787.42	214.14
787.74	214.12
788.06	214.11
788.38	214.02
788.71	213.95
789.03	213.91
789.35	213.91
789.67	213.92
789.99	213.94
790.32	213.88
790.64	213.91
790.96	214.17
791.28	214.05
791.61	214.05
791.93	214.06
792.25	214.02
792.57	214.28
792.89	214.21
793.21	214.20
793.54	214.12
793.86	214.09
794.18	214.13
794.50	214.04
794.82	213.99
795.14	214.09
795.47	214.11
795.79	214.15
796.11	214.06
796.43	213.96
796.75	213.97
797.07	213.96
797.39	213.96
797.71	213.66
798.04	213.63
798.36	213.72
798.68	213.67
799.00	213.67
799.32	213.43
799.64	213.49
799.96	213.47
800.28	213.52
800.60	213.52
800.92	213.46
801.24	213.40
801.56	213.40
801.89	213.28
802.21	213.34
802.53	213.20
802.85	213.27
803.17	213.39
803.49	213.28
803.81	213.26
804.13	213.17
804.45	213.15
804.77	213.20
805.09	213.13
805.41	213.10
805.73	213.00
806.05	212.89
806.37	212.84
806.69	212.79
807.01	212.72
807.33	212.73
807.65	212.60
807.97	212.79
808.28	212.79
808.60	212.81
808.92	212.70
809.24	212.94
809.56	212.89
809.88	212.80
810.20	212.79
810.52	212.82
810.84	212.84
811.16	212.81
811.48	212.75
811.80	212.86
812.12	212.80
812.43	212.94
812.75	213.04
813.07	212.94
813.39	212.97
813.71	212.88
814.03	212.85
814.35	212.88
814.67	212.74
814.98	212.65
815.30	212.64
815.62	212.61
815.94	212.29
816.26	212.26
816.58	212.20
816.89	212.20
817.21	212.10
817.53	212.10
817.85	212.04
818.17	212.00
818.48	211.88
818.80	211.96
819.12	211.85
819.44	211.68
819.76	211.61
820.07	211.59
820.39	211.60
820.71	211.65
821.03	211.68
821.34	211.62
821.66	211.61
821.98	211.56
822.30	211.58
822.61	211.80
822.93	211.77
823.25	211.74
823.57	211.73
823.88	211.80
824.20	211.79
824.52	211.88
824.83	211.86
825.15	211.75
825.47	211.77
825.79	211.70
826.10	211.77
826.42	211.81
826.74	211.87
827.05	211.89
827.37	211.80
827.69	211.80
828.00	211.80
828.32	211.84
828.64	211.89
828.95	212.03
829.27	212.01
829.58	211.97
829.90	212.02
830.22	212.11
830.53	212.01
830.85	211.99
831.17	211.98
831.48	211.99
831.80	212.05
832.11	212.00
832.43	212.05
832.75	212.02
833.06	212.22
833.38	212.16
833.69	212.16
834.01	212.18
834.32	212.17
834.64	212.13
834.96	212.08
835.27	212.04
835.59	211.90
835.90	211.71
836.22	211.72
836.53	211.65
836.85	211.59
837.16	211.94
837.48	211.96
837.79	212.05
838.11	212.11
838.42	212.06
838.74	212.12
839.05	212.06
839.37	212.00
839.68	211.75
840.00	211.72
840.31	211.75
840.63	211.81
840.94	211.70
841.26	211.66
841.57	211.76
841.88	211.76
842.20	211.70
842.51	211.72
842.83	211.75
843.14	212.03
843.46	211.97
843.77	211.86
844.08	211.79
844.40	211.62
844.71	211.55
845.03	211.48
845.34	211.46
845.65	211.46
845.97	211.45
846.28	211.47
846.60	211.45
846.91	211.41
847.22	211.36
847.54	211.45
847.85	211.49
848.16	211.38
848.48	211.34
848.79	211.45
849.10	211.51
849.42	211.50
849.73	211.20
850.04	211.24
850.36	211.10
850.67	211.20
850.98	211.24
851.30	211.30
851.61	211.34
851.92	211.32
852.23	211.40
852.55	211.48
852.86	211.57
853.17	211.59
853.49	211.61
853.80	211.66
854.11	211.73
854.42	211.76
854.74	211.78
855.05	211.82
855.36	211.71
855.67	211.68
855.99	211.65
856.30	212.09
856.61	212.06
856.92	212.02
857.23	212.02
857.55	211.97
857.86	211.94
858.17	212.00
858.48	211.93
858.79	211.86
859.11	211.85
859.42	211.82
859.73	211.77
860.04	211.79
860.35	211.66
860.66	211.53
860.98	211.45
861.29	211.46
861.60	211.38
861.91	211.40
862.22	211.32
862.53	211.30
862.84	210.87
863.16	210.99
863.47	210.88
863.78	210.80
864.09	210.84
864.40	210.82
864.71	210.77
865.02	210.75
865.33	210.71
865.64	210.67
865.95	210.63
866.27	210.89
866.58	210.87
866.89	210.95
867.20	210.95
867.51	210.94
867.82	210.96
868.13	211.05
868.44	211.05
868.75	211.15
869.06	211.17
869.37	211.21
869.68	211.07
869.99	211.12
870.30	211.15
870.61	211.14
870.92	211.13
871.23	211.15
871.54	211.25
871.85	211.41
872.16	211.46
872.47	211.41
872.78	211.22
873.09	211.24
873.40	211.18
873.71	211.24
874.02	211.24
874.33	211.25
874.64	211.19
874.95	211.18
875.26	211.14
875.56	211.07
875.87	210.99
876.18	210.95
876.49	211.35
876.80	211.27
877.11	211.15
877.42	211.10
877.73	211.13
878.04	211.05
878.35	211.08
878.66	211.17
878.96	211.16
879.27	211.17
879.58	211.09
879.89	211.04
880.20	211.17
880.51	211.20
880.82	211.19
881.12	211.20
881.43	211.15
881.74	211.10
882.05	211.11
882.36	211.17
882.67	211.23
882.97	210.86
883.28	210.89
883.59	210.96
883.90	211.07
884.21	211.15
884.51	211.16
884.82	211.06
885.13	210.96
885.44	210.94
885.74	210.87
886.05	210.96
886.36	210.98
886.67	210.89
886.98	211.11
887.28	211.07
887.59	211.11
887.90	211.20
888.20	211.21
888.51	211.28
888.82	211.28
889.13	211.30
889.43	211.55
889.74	211.51
890.05	211.52
890.35	211.45
890.66	211.40
890.97	211.39
891.28	211.26
891.58	211.28
891.89	211.31
892.20	211.30
892.50	211.29
892.81	211.35
893.12	211.30
893.42	211.08
893.73	211.10
894.04	211.04
894.34	211.04
894.65	210.98
894.95	210.99
895.26	211.04
895.57	211.21
895.87	210.90
896.18	211.04
896.48	211.08
896.79	211.07
897.10	211.08
897.40	211.09
897.71	211.21
898.01	211.22
898.32	211.22
898.63	211.21
898.93	211.14
899.24	211.10
899.54	211.07
899.85	211.04
900.15	211.00
900.46	210.99
900.76	210.97
901.07	210.96
901.38	210.99
901.68	210.94
901.99	210.73
902.29	210.71
902.60	210.62
902.90	210.63
903.21	210.66
903.51	210.59
903.82	210.64
904.12	210.69
904.43	210.67
904.73	210.70
905.03	210.71
905.34	211.03
905.64	211.06
905.95	210.97
906.25	210.96
906.56	210.98
906.86	211.05
907.17	210.99
907.47	211.13
907.77	211.04
908.08	211.04
908.38	211.06
908.69	211.15
908.99	211.22
909.30	211.17
909.60	211.16
909.90	211.20
910.21	211.08
910.51	210.94
910.81	210.95
911.12	210.97
911.42	211.00
911.73	210.61
912.03	210.62
912.33	210.72
912.64	210.70
912.94	210.72
913.24	210.67
913.55	210.73
913.85	210.61
914.15	210.67
914.46	210.65
914.76	210.61
915.06	210.51
915.37	210.48
915.67	210.47
915.97	210.44
916.27	210.40
916.58	210.46
916.88	210.51
917.18	210.46
917.49	210.65
917.79	210.65
918.09	210.71
918.39	210.76
918.70	210.83
919.00	210.83
919.30	210.99
919.60	210.96
919.91	210.92
920.21	210.96
920.51	210.93
920.81	210.89
921.12	210.93
921.42	210.95
921.72	210.94
922.02	210.93
922.32	210.96
922.63	210.95
922.93	211.06
923.23	211.00
923.53	211.03
923.83	210.82
924.13	210.84
924.44	210.86
924.74	210.90
925.04	210.86
925.34	210.91
925.64	210.75
925.94	210.76
926.24	210.96
926.55	210.92
926.85	210.95
927.15	211.05
927.45	211.10
927.75	211.14
928.05	211.13
928.35	211.17
928.65	211.27
928.95	211.35
929.26	211.27
929.56	211.43
929.86	211.41
930.16	211.42
930.46	211.39
930.76	211.45
931.06	211.32
931.36	211.27
931.66	211.36
931.96	211.38
932.26	211.43
932.56	211.28
932.86	211.35
933.16	211.38
933.46	211.34
933.76	211.30
934.06	211.42
934.36	211.55
934.66	211.54
934.96	211.54
935.26	211.51
935.56	211.59
935.86	211.49
936.16	211.47
936.46	211.42
936.76	211.43
937.06	211.44
937.36	211.50
937.66	211.53
937.96	211.50
938.26	211.54
938.56	211.42
938.86	211.38
939.16	211.37
939.46	211.41
939.76	211.38
940.06	211.37
940.35	211.33
940.65	211.15
940.95	211.18
941.25	211.06
941.55	211.08
941.85	210.97
942.15	211.05
942.45	211.15
942.75	211.15
943.04	211.14
943.34	211.17
943.64	211.12
943.94	211.04
944.24	211.06
944.54	211.00
944.84	211.05
945.13	211.01
945.43	211.00
945.73	210.94
946.03	210.93
946.33	210.93
946.62	210.78
946.92	210.81
947.22	210.80
947.52	210.84
947.82	210.80
948.11	210.78
948.41	210.64
948.71	210.60
949.01	210.60
949.31	210.56
949.60	210.50
949.90	210.54
950.20	210.55
950.50	210.52
950.79	210.46
951.09	210.50
951.39	210.46
951.69	210.36
951.98	210.43
952.28	210.46
952.58	210.43
952.87	210.45
953.17	210.41
953.47	210.33
953.76	210.30
954.06	210.23
954.36	210.18
954.66	210.24
954.95	210.31
955.25	210.35
955.55	210.39
955.84	210.27
956.14	210.37
956.44	210.35
956.73	210.24
957.03	210.29
957.32	210.34
957.62	210.37
957.92	210.53
958.21	210.47
958.51	210.91
958.81	210.96
959.10	211.03
959.40	211.20
959.69	211.19
959.99	211.26
960.29	211.34
960.58	211.32
960.88	211.48
961.17	211.34
961.47	211.38
961.76	211.31
962.06	211.45
962.36	211.33
962.65	211.42
962.95	211.47
963.24	211.42
963.54	211.38
963.83	211.36
964.13	211.29
964.42	211.25
964.72	210.86
965.01	210.81
965.31	210.80
965.60	210.74
965.90	211.04
966.19	211.00
966.49	211.07
966.78	211.10
967.08	211.01
967.37	211.08
967.67	211.04
967.96	211.13
968.26	211.08
968.55	211.13
968.85	211.13
969.14	211.11
969.43	211.09
969.73	211.10
970.02	211.17
970.32	211.14
970.61	211.07
970.91	211.08
971.20	211.11
971.49	211.08
971.79	211.11
972.08	210.81
972.38	210.77
972.67	210.66
972.96	210.74
973.26	210.74
973.55	210.90
973.85	210.87
974.14	210.83
974.43	210.86
974.73	210.83
975.02	210.79
975.31	210.85
975.61	210.84
975.90	210.89
976.19	210.89
976.49	210.94
976.78	210.98
977.07	210.94
977.37	210.95
977.66	211.01
977.95	210.92
978.24	210.93
978.54	211.04
978.83	211.05
979.12	210.99
979.42	210.95
979.71	210.81
980.00	210.78
980.29	210.86
980.59	210.80
980.88	210.86
981.17	210.88
981.46	210.95
981.76	210.99
982.05	211.00
982.34	210.99
982.63	211.02
982.93	211.05
983.22	211.17
983.51	211.16
983.80	211.18
984.09	211.20
984.39	211.25
984.68	211.20
984.97	211.20
985.26	211.14
985.55	211.14
985.85	211.05
986.14	211.12
986.43	211.09
986.72	211.10
987.01	211.02
987.30	211.03
987.59	210.92
987.89	210.97
988.18	210.91
988.47	210.90
988.76	210.85
989.05	210.89
989.34	210.79
989.63	210.90
989.92	210.88
990.22	210.92
990.51	210.94
990.80	210.86
991.09	210.92
991.38	210.99
991.67	210.96
991.96	210.98
992.25	210.97
992.54	210.93
992.83	210.96
993.12	210.89
993.41	210.85
993.70	211.01
993.99	211.00
994.28	210.98
994.58	211.04
994.87	211.02
995.16	210.99
995.45	210.95
995.74	210.79
996.03	210.82
996.32	210.80
996.61	210.84
996.90	210.88
997.19	210.85
997.48	210.91
997.77	210.92
998.06	210.99
998.34	210.92
998.63	210.84
998.92	210.90
999.21	210.98
999.50	211.01
999.79	210.95
1000.08	211.00
1000.37	211.00
1000.66	210.90
1000.95	210.94
1001.24	210.96
1001.53	211.03
1001.82	210.97
1002.11	210.83
1002.40	210.82
1002.68	210.88
1002.97	211.11
1003.26	211.12
1003.55	211.06
1003.84	211.09
1004.13	211.23
1004.42	211.23
1004.71	211.30
1004.99	211.24
1005.28	211.30
1005.57	211.28
1005.86	211.14
1006.15	211.11
1006.44	211.08
1006.72	211.19
1007.01	211.13
1007.30	211.15
1007.59	211.12
1007.88	211.14
1008.17	211.22
1008.45	211.19
1008.74	211.00
1009.03	210.84
1009.32	210.79
1009.60	210.82
1009.89	210.83
1010.18	210.59
1010.47	210.61
1010.76	210.59
1011.04	210.55
1011.33	210.56
1011.62	210.61
1011.91	210.66
1012.19	210.59
1012.48	210.60
1012.77	210.53
1013.05	210.73
1013.34	210.67
1013.63	210.65
1013.92	210.70
1014.20	210.66
1014.49	210.61
1014.78	210.77
1015.06	210.64
1015.35	210.65
1015.64	210.61
1015.92	210.61
1016.21	210.65
1016.50	210.66
1016.78	210.71
1017.07	210.77
1017.36	210.70
1017.64	210.61
1017.93	210.65
1018.22	210.70
1018.50	210.70
1018.79	210.75
1019.08	210.54
1019.36	210.60
1019.65	210.59
1019.93	210.67
1020.22	210.72
1020.51	210.91
1020.79	210.80
1021.08	210.70
1021.36	210.05
1021.65	211.45
1021.94	210.30
1022.22	211.35
1022.51	210.70
1022.79	212.20
1023.08	210.75
1023.36	213.85
1023.65	209.80
>>>>>End Processed Spectral Data<<<<<
