SpectraSuite Data File
++++++++++++++++++++++++++++++++++++
Date: Mon Feb 25 17:04:31 EST 2013
User: group
Dark Spectrum Present: No
Reference Spectrum Present: No
Number of Sampled Component Spectra: 1
Spectrometers: USB2E7196
Integration Time (usec): 104000 (USB2E7196)
Spectra Averaged: 20 (USB2E7196)
Boxcar Smoothing: 10 (USB2E7196)
Correct for Electrical Dark: No (USB2E7196)
Strobe/Lamp Enabled: No (USB2E7196)
Correct for Detector Non-linearity: No (USB2E7196)
Correct for Stray Light: No (USB2E7196)
Number of Pixels in Processed Spectrum: 2048
>>>>>Begin Processed Spectral Data<<<<<
339.09	0.00
339.48	196.95
339.86	199.05
340.24	202.00
340.63	202.30
341.01	209.75
341.39	205.30
341.78	206.90
342.16	208.15
342.54	208.00
342.93	198.03
343.31	208.00
343.69	208.56
344.07	209.09
344.46	209.56
344.84	209.89
345.22	209.88
345.60	210.10
345.99	210.24
346.37	210.32
346.75	210.42
347.13	210.40
347.52	210.36
347.90	210.57
348.28	210.48
348.66	210.58
349.05	210.47
349.43	210.49
349.81	210.53
350.19	210.57
350.57	210.65
350.96	210.69
351.34	210.77
351.72	210.92
352.10	210.99
352.48	210.96
352.87	211.08
353.25	211.21
353.63	211.24
354.01	211.35
354.39	211.43
354.77	211.48
355.15	211.66
355.54	211.73
355.92	211.68
356.30	211.85
356.68	212.09
357.06	212.19
357.44	212.20
357.82	212.19
358.20	212.30
358.58	212.31
358.97	212.34
359.35	212.55
359.73	212.65
360.11	212.71
360.49	212.75
360.87	212.82
361.25	212.83
361.63	213.02
362.01	213.13
362.39	213.24
362.77	213.35
363.15	213.33
363.53	213.40
363.91	213.42
364.29	213.43
364.67	213.05
365.05	213.09
365.43	213.24
365.81	213.34
366.19	213.49
366.57	213.69
366.95	213.70
367.33	213.54
367.71	213.49
368.09	213.56
368.47	213.62
368.85	213.57
369.23	213.68
369.61	213.59
369.99	213.61
370.37	213.62
370.75	213.77
371.13	213.80
371.51	213.71
371.89	213.70
372.27	213.58
372.65	213.70
373.03	213.65
373.41	213.53
373.78	213.46
374.16	213.21
374.54	213.02
374.92	212.95
375.30	212.94
375.68	212.88
376.06	212.86
376.44	212.74
376.82	212.73
377.19	212.60
377.57	212.53
377.95	212.35
378.33	212.25
378.71	212.02
379.09	211.99
379.47	212.03
379.84	211.91
380.22	211.86
380.60	211.72
380.98	211.63
381.36	211.57
381.73	211.49
382.11	211.55
382.49	211.53
382.87	211.42
383.25	211.34
383.62	211.68
384.00	211.51
384.38	211.49
384.76	211.51
385.13	211.60
385.51	211.50
385.89	211.39
386.27	211.34
386.64	211.30
387.02	211.18
387.40	211.05
387.78	211.08
388.15	211.10
388.53	211.07
388.91	211.06
389.29	211.00
389.66	211.01
390.04	210.86
390.42	210.82
390.79	210.86
391.17	210.84
391.55	210.43
391.92	210.42
392.30	210.39
392.68	210.29
393.05	210.25
393.43	210.25
393.81	210.27
394.18	210.19
394.56	210.19
394.94	210.28
395.31	210.27
395.69	210.35
396.06	210.38
396.44	210.38
396.82	210.38
397.19	210.61
397.57	210.57
397.95	210.67
398.32	210.57
398.70	210.55
399.07	210.63
399.45	210.63
399.82	210.68
400.20	210.69
400.58	210.69
400.95	210.62
401.33	210.74
401.70	211.02
402.08	211.11
402.45	211.07
402.83	211.13
403.20	211.27
403.58	211.24
403.95	211.33
404.33	211.45
404.71	211.56
405.08	211.78
405.46	211.89
405.83	211.99
406.21	212.17
406.58	212.35
406.96	212.46
407.33	212.69
407.70	212.88
408.08	213.34
408.45	213.60
408.83	213.87
409.20	214.03
409.58	214.07
409.95	214.38
410.33	214.75
410.70	214.91
411.08	215.16
411.45	215.55
411.82	215.86
412.20	216.28
412.57	216.86
412.95	216.98
413.32	217.51
413.69	218.00
414.07	218.53
414.44	219.15
414.82	219.85
415.19	220.56
415.56	221.27
415.94	221.87
416.31	222.78
416.68	223.69
417.06	224.73
417.43	225.74
417.81	226.86
418.18	228.01
418.55	229.24
418.93	230.62
419.30	231.96
419.67	233.45
420.04	234.92
420.42	236.33
420.79	238.39
421.16	240.23
421.54	242.26
421.91	244.18
422.28	246.05
422.66	248.05
423.03	250.24
423.40	252.37
423.77	254.61
424.15	256.85
424.52	259.22
424.89	261.90
425.26	264.40
425.64	266.75
426.01	269.48
426.38	272.30
426.75	275.20
427.13	278.13
427.50	281.15
427.87	284.40
428.24	287.64
428.61	290.54
428.99	293.97
429.36	297.39
429.73	301.01
430.10	304.81
430.47	308.66
430.85	312.40
431.22	316.55
431.59	321.07
431.96	325.32
432.33	329.96
432.70	334.48
433.08	339.89
433.45	344.97
433.82	349.90
434.19	355.42
434.56	360.87
434.93	366.20
435.30	371.43
435.68	377.23
436.05	382.96
436.42	388.64
436.79	393.99
437.16	399.79
437.53	405.93
437.90	411.87
438.27	417.83
438.64	423.93
439.01	429.76
439.38	434.76
439.75	439.82
440.13	445.51
440.50	451.00
440.87	455.38
441.24	460.03
441.61	465.12
441.98	469.04
442.35	473.49
442.72	477.90
443.09	482.41
443.46	485.30
443.83	487.40
444.20	489.22
444.57	491.48
444.94	493.04
445.31	494.43
445.68	496.07
446.05	496.74
446.42	496.49
446.79	496.18
447.16	495.76
447.53	495.56
447.90	493.62
448.27	491.59
448.64	488.89
449.01	486.93
449.37	483.27
449.74	479.77
450.11	475.70
450.48	471.02
450.85	466.10
451.22	461.90
451.59	457.99
451.96	454.20
452.33	449.13
452.70	444.40
453.07	438.76
453.43	432.70
453.80	427.30
454.17	422.19
454.54	417.15
454.91	411.85
455.28	406.55
455.65	401.66
456.02	397.23
456.38	393.10
456.75	387.90
457.12	383.63
457.49	379.43
457.86	375.15
458.23	371.67
458.59	367.78
458.96	363.81
459.33	360.25
459.70	356.77
460.07	353.94
460.43	350.66
460.80	347.69
461.17	345.17
461.54	342.45
461.91	339.80
462.27	337.05
462.64	334.70
463.01	332.19
463.38	329.91
463.74	326.95
464.11	324.66
464.48	322.87
464.85	320.83
465.21	319.25
465.58	317.47
465.95	315.40
466.32	313.70
466.68	311.99
467.05	310.29
467.42	308.55
467.78	306.75
468.15	305.17
468.52	303.86
468.88	302.14
469.25	300.57
469.62	299.37
469.98	298.05
470.35	296.88
470.72	295.69
471.08	294.40
471.45	293.41
471.82	292.45
472.18	291.23
472.55	290.31
472.92	289.11
473.28	288.14
473.65	287.17
474.02	286.31
474.38	285.71
474.75	285.17
475.11	284.50
475.48	283.95
475.85	283.33
476.21	282.87
476.58	282.49
476.94	282.13
477.31	281.67
477.67	281.35
478.04	281.03
478.41	280.80
478.77	280.85
479.14	280.58
479.50	280.42
479.87	280.28
480.23	280.19
480.60	280.03
480.96	279.94
481.33	280.12
481.69	280.09
482.06	280.03
482.42	280.00
482.79	280.09
483.15	280.28
483.52	280.65
483.88	280.70
484.25	280.75
484.61	280.95
484.98	281.21
485.34	281.56
485.71	282.01
486.07	282.38
486.44	282.45
486.80	282.85
487.17	283.23
487.53	283.81
487.90	284.39
488.26	285.15
488.62	285.86
488.99	286.44
489.35	287.12
489.72	287.77
490.08	288.45
490.44	289.15
490.81	289.97
491.17	290.55
491.54	291.44
491.90	292.48
492.26	293.51
492.63	294.43
492.99	295.38
493.36	296.32
493.72	297.41
494.08	298.51
494.45	299.70
494.81	300.94
495.17	302.03
495.54	303.27
495.90	304.42
496.26	305.59
496.63	306.75
496.99	307.98
497.35	309.32
497.72	310.66
498.08	311.96
498.44	313.28
498.80	314.76
499.17	316.08
499.53	317.31
499.89	318.67
500.26	319.99
500.62	321.27
500.98	322.61
501.34	323.89
501.71	325.35
502.07	326.54
502.43	327.81
502.79	329.16
503.16	330.36
503.52	331.54
503.88	332.73
504.24	333.98
504.60	335.21
504.97	336.43
505.33	337.48
505.69	338.80
506.05	339.75
506.41	340.85
506.78	341.88
507.14	343.01
507.50	343.88
507.86	344.93
508.22	345.87
508.59	346.73
508.95	347.71
509.31	348.67
509.67	349.48
510.03	350.27
510.39	351.02
510.75	351.82
511.12	352.58
511.48	353.25
511.84	353.94
512.20	354.58
512.56	355.18
512.92	355.90
513.28	356.37
513.64	357.10
514.00	357.67
514.37	358.22
514.73	358.63
515.09	359.25
515.45	359.65
515.81	360.06
516.17	360.45
516.53	360.71
516.89	360.83
517.25	361.34
517.61	361.86
517.97	362.23
518.33	362.54
518.69	362.95
519.05	363.49
519.41	363.91
519.77	364.60
520.13	364.98
520.49	365.40
520.85	365.77
521.21	366.23
521.57	366.65
521.93	366.99
522.29	367.57
522.65	368.03
523.01	368.70
523.37	369.20
523.73	369.82
524.09	370.55
524.45	371.22
524.81	371.86
525.17	372.53
525.53	373.37
525.89	374.24
526.25	375.20
526.61	375.94
526.97	376.83
527.33	377.73
527.68	379.10
528.04	380.15
528.40	381.40
528.76	382.52
529.12	383.84
529.48	385.40
529.84	386.64
530.20	388.09
530.56	389.59
530.91	391.32
531.27	392.88
531.63	394.49
531.99	396.30
532.35	398.09
532.71	399.74
533.07	401.54
533.42	403.75
533.78	405.50
534.14	407.52
534.50	409.30
534.86	411.21
535.21	412.79
535.57	414.91
535.93	416.79
536.29	419.03
536.65	421.10
537.00	423.05
537.36	425.32
537.72	427.46
538.08	429.72
538.44	431.84
538.79	434.20
539.15	436.48
539.51	438.82
539.87	441.21
540.22	443.74
540.58	446.19
540.94	448.30
541.29	450.84
541.65	453.19
542.01	455.92
542.37	458.51
542.72	461.24
543.08	463.68
543.44	466.63
543.79	469.13
544.15	471.71
544.51	474.54
544.87	477.44
545.22	480.20
545.58	482.83
545.94	485.60
546.29	488.32
546.65	490.99
547.01	493.65
547.36	496.38
547.72	499.05
548.07	501.88
548.43	504.55
548.79	507.05
549.14	509.82
549.50	512.66
549.86	515.12
550.21	517.74
550.57	520.57
550.92	522.98
551.28	525.62
551.64	528.38
551.99	530.94
552.35	533.32
552.70	535.78
553.06	538.32
553.41	540.78
553.77	543.53
554.13	546.10
554.48	548.63
554.84	551.17
555.19	553.67
555.55	556.15
555.90	558.35
556.26	560.82
556.61	563.10
556.97	565.16
557.32	567.47
557.68	569.60
558.03	571.85
558.39	574.00
558.74	576.25
559.10	578.40
559.45	580.65
559.81	582.80
560.16	584.86
560.52	586.91
560.87	588.95
561.23	590.70
561.58	593.02
561.94	594.89
562.29	596.61
562.64	598.46
563.00	600.13
563.35	602.25
563.71	604.27
564.06	606.22
564.42	608.18
564.77	610.08
565.12	612.22
565.48	614.11
565.83	616.13
566.19	617.88
566.54	619.36
566.89	620.96
567.25	622.74
567.60	624.52
567.96	626.24
568.31	627.95
568.66	629.43
569.02	630.36
569.37	631.53
569.72	633.03
570.08	634.18
570.43	635.25
570.78	636.13
571.14	636.82
571.49	637.55
571.84	638.42
572.20	639.03
572.55	639.50
572.90	639.91
573.26	640.28
573.61	640.69
573.96	641.20
574.31	641.37
574.67	641.47
575.02	641.33
575.37	641.28
575.72	641.29
576.08	641.59
576.43	641.77
576.78	642.06
577.13	642.07
577.49	642.13
577.84	642.19
578.19	642.39
578.54	642.85
578.90	643.13
579.25	643.18
579.60	643.24
579.95	643.12
580.30	643.26
580.66	643.22
581.01	643.22
581.36	643.01
581.71	642.95
582.06	642.97
582.42	643.03
582.77	643.00
583.12	642.87
583.47	642.62
583.82	642.53
584.17	642.26
584.53	642.26
584.88	642.07
585.23	642.11
585.58	641.80
585.93	641.31
586.28	641.05
586.63	640.71
586.98	640.58
587.34	640.68
587.69	640.13
588.04	639.81
588.39	639.39
588.74	639.00
589.09	638.80
589.44	638.05
589.79	637.71
590.14	637.38
590.49	636.79
590.84	636.12
591.19	635.64
591.54	635.15
591.89	634.06
592.25	633.70
592.60	632.70
592.95	631.98
593.30	631.19
593.65	630.25
594.00	629.35
594.35	629.31
594.70	628.18
595.05	627.45
595.40	626.51
595.75	625.45
596.10	624.75
596.45	623.82
596.80	623.39
597.15	622.72
597.50	621.61
597.85	620.85
598.19	619.97
598.54	619.18
598.89	618.27
599.24	617.71
599.59	616.70
599.94	616.14
600.29	615.23
600.64	614.39
600.99	613.50
601.34	612.80
601.69	611.00
602.04	610.04
602.39	609.18
602.74	608.48
603.08	607.87
603.43	607.18
603.78	606.44
604.13	605.45
604.48	604.52
604.83	603.95
605.18	603.29
605.53	602.63
605.87	601.58
606.22	600.66
606.57	599.73
606.92	598.59
607.27	597.45
607.62	596.60
607.96	595.60
608.31	594.85
608.66	593.80
609.01	592.80
609.36	591.68
609.70	590.51
610.05	589.18
610.40	587.97
610.75	586.59
611.10	585.40
611.44	583.85
611.79	582.46
612.14	580.95
612.49	579.19
612.83	577.75
613.18	576.29
613.53	574.85
613.88	573.18
614.22	571.77
614.57	570.19
614.92	568.73
615.27	567.37
615.61	565.81
615.96	564.24
616.31	562.79
616.65	561.55
617.00	559.90
617.35	558.40
617.70	556.79
618.04	555.13
618.39	553.25
618.74	551.93
619.08	550.23
619.43	548.59
619.78	547.13
620.12	545.50
620.47	544.14
620.82	542.49
621.16	540.96
621.51	539.50
621.85	537.89
622.20	536.15
622.55	534.43
622.89	532.60
623.24	530.95
623.59	529.21
623.93	527.50
624.28	526.00
624.62	524.76
624.97	523.31
625.32	521.74
625.66	520.22
626.01	518.41
626.35	516.93
626.70	515.25
627.04	513.83
627.39	512.13
627.73	510.54
628.08	509.08
628.43	507.40
628.77	505.59
629.12	503.96
629.46	502.49
629.81	500.92
630.15	499.37
630.50	497.74
630.84	496.02
631.19	494.40
631.53	492.82
631.88	490.80
632.22	488.86
632.57	487.43
632.91	485.98
633.26	484.51
633.60	482.85
633.95	481.40
634.29	479.66
634.64	478.31
634.98	476.58
635.32	475.08
635.67	473.82
636.01	472.40
636.36	470.93
636.70	469.40
637.05	467.77
637.39	466.27
637.73	464.82
638.08	463.66
638.42	462.34
638.77	460.94
639.11	459.52
639.45	458.23
639.80	456.45
640.14	454.78
640.49	453.27
640.83	451.75
641.17	450.22
641.52	448.71
641.86	446.96
642.20	445.44
642.55	443.62
642.89	441.87
643.23	440.18
643.58	438.76
643.92	437.01
644.26	435.44
644.61	433.90
644.95	432.21
645.29	430.43
645.64	428.86
645.98	427.07
646.32	425.59
646.66	423.92
647.01	422.42
647.35	420.90
647.69	419.28
648.04	417.76
648.38	416.15
648.72	414.58
649.06	412.98
649.41	411.49
649.75	410.03
650.09	408.66
650.43	407.29
650.78	405.71
651.12	404.20
651.46	402.75
651.80	401.26
652.14	399.81
652.49	398.44
652.83	396.78
653.17	395.26
653.51	393.68
653.85	392.34
654.20	390.84
654.54	389.27
654.88	387.74
655.22	386.28
655.56	384.77
655.90	383.31
656.25	381.81
656.59	380.30
656.93	378.92
657.27	377.45
657.61	375.87
657.95	374.42
658.29	373.02
658.64	371.75
658.98	370.32
659.32	368.84
659.66	367.34
660.00	365.87
660.34	364.50
660.68	363.12
661.02	361.63
661.36	360.37
661.70	359.04
662.05	357.71
662.39	356.48
662.73	355.32
663.07	354.20
663.41	353.07
663.75	351.80
664.09	350.43
664.43	349.06
664.77	347.90
665.11	346.57
665.45	345.37
665.79	344.14
666.13	342.97
666.47	341.85
666.81	340.74
667.15	339.65
667.49	338.67
667.83	337.53
668.17	336.34
668.51	335.22
668.85	334.24
669.19	333.40
669.53	332.11
669.87	330.84
670.21	329.64
670.55	328.60
670.89	327.70
671.23	326.73
671.57	325.73
671.91	324.70
672.25	323.78
672.58	322.90
672.92	321.77
673.26	320.78
673.60	319.82
673.94	318.79
674.28	317.84
674.62	316.90
674.96	316.10
675.30	315.28
675.64	314.34
675.97	313.37
676.31	312.30
676.65	311.55
676.99	310.89
677.33	309.95
677.67	309.04
678.01	308.04
678.34	307.13
678.68	306.38
679.02	305.44
679.36	304.52
679.70	303.59
680.04	302.78
680.37	301.91
680.71	301.10
681.05	300.33
681.39	299.52
681.73	298.72
682.06	297.89
682.40	297.09
682.74	296.31
683.08	295.74
683.42	294.96
683.75	294.17
684.09	293.30
684.43	292.56
684.77	291.70
685.10	290.87
685.44	290.16
685.78	289.34
686.12	288.55
686.45	287.85
686.79	287.08
687.13	286.43
687.46	285.67
687.80	285.00
688.14	284.31
688.48	283.53
688.81	282.76
689.15	281.98
689.49	281.27
689.82	280.60
690.16	279.64
690.50	278.95
690.83	278.30
691.17	277.58
691.51	276.96
691.84	276.42
692.18	275.82
692.52	275.18
692.85	274.61
693.19	274.26
693.52	273.57
693.86	272.91
694.20	272.19
694.53	271.67
694.87	270.96
695.21	270.26
695.54	269.60
695.88	268.88
696.21	268.27
696.55	267.66
696.88	267.01
697.22	266.49
697.56	265.95
697.89	265.30
698.23	264.80
698.56	264.21
698.90	263.68
699.23	263.08
699.57	262.51
699.90	261.89
700.24	261.17
700.58	260.68
700.91	260.16
701.25	259.93
701.58	259.51
701.92	259.05
702.25	258.62
702.59	258.20
702.92	257.83
703.26	257.33
703.59	256.89
703.93	256.68
704.26	256.17
704.60	255.64
704.93	255.10
705.26	254.49
705.60	254.00
705.93	253.45
706.27	253.08
706.60	252.70
706.94	252.35
707.27	251.84
707.61	251.40
707.94	251.03
708.27	250.43
708.61	249.85
708.94	249.40
709.28	249.01
709.61	248.51
709.94	248.02
710.28	247.66
710.61	247.27
710.95	246.65
711.28	246.56
711.61	246.17
711.95	245.94
712.28	245.66
712.61	245.29
712.95	245.15
713.28	244.90
713.61	244.57
713.95	244.15
714.28	243.85
714.61	243.58
714.95	243.19
715.28	242.79
715.61	242.45
715.95	242.20
716.28	241.80
716.61	241.64
716.95	241.40
717.28	241.13
717.61	240.84
717.94	240.51
718.28	240.04
718.61	239.78
718.94	239.39
719.27	239.10
719.61	238.89
719.94	238.41
720.27	237.97
720.60	237.60
720.94	237.34
721.27	237.15
721.60	236.91
721.93	236.70
722.27	236.55
722.60	236.39
722.93	236.05
723.26	235.89
723.59	235.55
723.93	235.37
724.26	235.14
724.59	234.87
724.92	234.67
725.25	234.55
725.59	234.25
725.92	234.17
726.25	233.88
726.58	233.61
726.91	233.46
727.24	233.34
727.57	233.10
727.91	232.88
728.24	232.73
728.57	232.52
728.90	232.32
729.23	231.99
729.56	231.93
729.89	231.72
730.22	231.48
730.55	231.25
730.89	230.99
731.22	230.77
731.55	230.62
731.88	230.48
732.21	230.14
732.54	229.97
732.87	229.75
733.20	229.65
733.53	229.52
733.86	229.37
734.19	229.08
734.52	229.02
734.85	229.12
735.18	228.90
735.51	228.77
735.84	228.70
736.17	228.62
736.50	228.27
736.83	228.61
737.16	228.40
737.49	228.29
737.82	228.11
738.15	228.00
738.48	227.80
738.81	227.54
739.14	227.35
739.47	227.19
739.80	226.96
740.13	226.83
740.46	226.70
740.79	226.42
741.12	226.37
741.45	226.17
741.78	225.83
742.11	225.64
742.44	225.46
742.77	225.34
743.10	225.20
743.43	225.09
743.75	224.53
744.08	224.88
744.41	224.71
744.74	224.49
745.07	224.26
745.40	224.16
745.73	224.22
746.06	224.09
746.39	224.00
746.71	223.90
747.04	223.68
747.37	223.46
747.70	223.50
748.03	223.31
748.36	223.30
748.68	223.15
749.01	222.97
749.34	222.85
749.67	222.65
750.00	222.62
750.33	222.76
750.65	222.69
750.98	222.16
751.31	222.06
751.64	222.02
751.97	222.12
752.29	222.03
752.62	221.80
752.95	221.66
753.28	221.61
753.60	221.57
753.93	221.54
754.26	221.46
754.59	221.20
754.91	221.05
755.24	220.87
755.57	220.74
755.90	220.59
756.22	220.41
756.55	220.29
756.88	220.04
757.20	219.59
757.53	219.35
757.86	219.27
758.19	219.25
758.51	219.25
758.84	219.01
759.17	218.82
759.49	218.71
759.82	218.85
760.15	218.78
760.47	218.60
760.80	218.47
761.13	218.41
761.45	218.36
761.78	218.34
762.11	218.21
762.43	218.01
762.76	218.00
763.08	218.08
763.41	218.04
763.74	217.96
764.06	217.95
764.39	217.97
764.71	217.84
765.04	217.70
765.37	217.54
765.69	217.42
766.02	217.39
766.34	217.36
766.67	217.16
767.00	217.18
767.32	217.33
767.65	217.48
767.97	217.40
768.30	217.38
768.62	217.31
768.95	217.28
769.27	217.28
769.60	217.30
769.92	217.13
770.25	217.07
770.57	216.97
770.90	216.90
771.22	216.82
771.55	216.82
771.87	216.76
772.20	216.67
772.52	216.96
772.85	217.34
773.17	217.23
773.50	217.10
773.82	216.93
774.15	216.78
774.47	216.54
774.80	216.51
775.12	216.54
775.45	216.50
775.77	216.46
776.09	216.54
776.42	216.47
776.74	216.52
777.07	216.42
777.39	216.44
777.72	216.39
778.04	216.45
778.36	216.32
778.69	216.32
779.01	216.35
779.33	215.98
779.66	215.48
779.98	215.40
780.31	215.41
780.63	215.48
780.95	215.38
781.28	215.28
781.60	215.20
781.92	215.04
782.25	214.97
782.57	214.91
782.89	214.81
783.22	214.77
783.54	214.64
783.86	214.59
784.19	214.55
784.51	214.60
784.83	214.42
785.16	214.43
785.48	214.45
785.80	214.40
786.12	214.38
786.45	214.44
786.77	214.46
787.09	214.40
787.42	214.24
787.74	214.19
788.06	214.25
788.38	214.22
788.71	214.18
789.03	214.15
789.35	214.19
789.67	214.04
789.99	214.04
790.32	214.02
790.64	214.06
790.96	214.32
791.28	214.15
791.61	214.11
791.93	214.07
792.25	214.00
792.57	214.27
792.89	214.16
793.21	214.19
793.54	214.15
793.86	214.07
794.18	214.11
794.50	214.12
794.82	214.05
795.14	214.08
795.47	214.13
795.79	214.11
796.11	213.99
796.43	214.02
796.75	213.94
797.07	213.82
797.39	213.72
797.71	213.41
798.04	213.45
798.36	213.46
798.68	213.40
799.00	213.38
799.32	213.12
799.64	213.29
799.96	213.19
800.28	213.25
800.60	213.25
800.92	213.25
801.24	213.21
801.56	213.20
801.89	213.17
802.21	213.19
802.53	213.13
802.85	213.20
803.17	213.37
803.49	213.30
803.81	213.36
804.13	213.40
804.45	213.35
804.77	213.35
805.09	213.39
805.41	213.37
805.73	213.30
806.05	213.22
806.37	213.07
806.69	213.02
807.01	212.91
807.33	212.96
807.65	212.79
807.97	212.90
808.28	212.83
808.60	212.77
808.92	212.69
809.24	212.90
809.56	212.80
809.88	212.65
810.20	212.67
810.52	212.75
810.84	212.64
811.16	212.59
811.48	212.56
811.80	212.63
812.12	212.62
812.43	212.64
812.75	212.65
813.07	212.63
813.39	212.63
813.71	212.66
814.03	212.58
814.35	212.61
814.67	212.39
814.98	212.40
815.30	212.34
815.62	212.21
815.94	211.92
816.26	211.98
816.58	211.90
816.89	211.92
817.21	211.79
817.53	211.82
817.85	211.87
818.17	211.85
818.48	211.71
818.80	211.77
819.12	211.78
819.44	211.75
819.76	211.68
820.07	211.69
820.39	211.69
820.71	211.72
821.03	211.75
821.34	211.84
821.66	211.86
821.98	211.94
822.30	211.99
822.61	212.21
822.93	212.14
823.25	212.17
823.57	212.06
823.88	212.13
824.20	212.17
824.52	212.21
824.83	212.19
825.15	212.18
825.47	212.14
825.79	212.11
826.10	212.12
826.42	212.19
826.74	212.20
827.05	212.15
827.37	212.16
827.69	212.15
828.00	212.17
828.32	212.17
828.64	212.13
828.95	212.33
829.27	212.37
829.58	212.31
829.90	212.40
830.22	212.51
830.53	212.48
830.85	212.46
831.17	212.43
831.48	212.44
831.80	212.50
832.11	212.49
832.43	212.46
832.75	212.43
833.06	212.58
833.38	212.49
833.69	212.50
834.01	212.60
834.32	212.60
834.64	212.55
834.96	212.59
835.27	212.60
835.59	212.46
835.90	212.29
836.22	212.41
836.53	212.27
836.85	212.24
837.16	212.52
837.48	212.46
837.79	212.52
838.11	212.48
838.42	212.38
838.74	212.40
839.05	212.37
839.37	212.28
839.68	212.01
840.00	212.01
840.31	212.02
840.63	211.93
840.94	211.87
841.26	211.84
841.57	211.74
841.88	211.78
842.20	211.71
842.51	211.70
842.83	211.69
843.14	211.98
843.46	211.93
843.77	211.72
844.08	211.73
844.40	211.60
844.71	211.62
845.03	211.55
845.34	211.48
845.65	211.45
845.97	211.51
846.28	211.61
846.60	211.60
846.91	211.53
847.22	211.50
847.54	211.57
847.85	211.57
848.16	211.62
848.48	211.52
848.79	211.66
849.10	211.66
849.42	211.59
849.73	211.30
850.04	211.32
850.36	211.21
850.67	211.23
850.98	211.35
851.30	211.43
851.61	211.45
851.92	211.46
852.23	211.58
852.55	211.60
852.86	211.63
853.17	211.63
853.49	211.76
853.80	211.82
854.11	211.80
854.42	211.79
854.74	211.76
855.05	211.80
855.36	211.64
855.67	211.65
855.99	211.71
856.30	212.16
856.61	212.15
856.92	212.16
857.23	212.22
857.55	212.09
857.86	212.01
858.17	212.12
858.48	212.10
858.79	212.05
859.11	212.08
859.42	212.00
859.73	212.00
860.04	211.93
860.35	211.79
860.66	211.69
860.98	211.74
861.29	211.80
861.60	211.76
861.91	211.81
862.22	211.73
862.53	211.65
862.84	211.19
863.16	211.26
863.47	211.25
863.78	211.24
864.09	211.30
864.40	211.29
864.71	211.28
865.02	211.37
865.33	211.34
865.64	211.24
865.95	211.30
866.27	211.53
866.58	211.45
866.89	211.50
867.20	211.51
867.51	211.47
867.82	211.41
868.13	211.47
868.44	211.37
868.75	211.44
869.06	211.43
869.37	211.45
869.68	211.36
869.99	211.36
870.30	211.29
870.61	211.32
870.92	211.23
871.23	211.15
871.54	211.10
871.85	211.23
872.16	211.30
872.47	211.23
872.78	210.98
873.09	211.01
873.40	211.03
873.71	211.08
874.02	211.08
874.33	211.08
874.64	210.98
874.95	211.11
875.26	211.03
875.56	211.04
875.87	211.05
876.18	211.04
876.49	211.39
876.80	211.41
877.11	211.34
877.42	211.41
877.73	211.53
878.04	211.54
878.35	211.49
878.66	211.48
878.96	211.44
879.27	211.51
879.58	211.57
879.89	211.44
880.20	211.45
880.51	211.48
880.82	211.45
881.12	211.60
881.43	211.50
881.74	211.41
882.05	211.36
882.36	211.43
882.67	211.45
882.97	211.08
883.28	211.05
883.59	211.00
883.90	211.04
884.21	211.01
884.51	210.99
884.82	210.92
885.13	210.95
885.44	210.99
885.74	210.96
886.05	210.94
886.36	211.01
886.67	210.95
886.98	211.06
887.28	211.05
887.59	210.91
887.90	210.91
888.20	210.96
888.51	211.04
888.82	210.94
889.13	211.02
889.43	211.25
889.74	211.26
890.05	211.24
890.35	211.24
890.66	211.18
890.97	211.16
891.28	211.16
891.58	211.09
891.89	211.09
892.20	210.96
892.50	210.90
892.81	210.88
893.12	210.85
893.42	210.72
893.73	210.80
894.04	210.91
894.34	210.94
894.65	210.91
894.95	210.87
895.26	210.82
895.57	210.90
895.87	210.69
896.18	210.72
896.48	210.75
896.79	210.73
897.10	210.75
897.40	210.68
897.71	210.67
898.01	210.68
898.32	210.81
898.63	210.89
898.93	210.90
899.24	210.92
899.54	210.97
899.85	210.99
900.15	210.87
900.46	210.82
900.76	210.87
901.07	211.00
901.38	210.96
901.68	211.06
901.99	210.86
902.29	210.75
902.60	210.69
902.90	210.69
903.21	210.61
903.51	210.59
903.82	210.69
904.12	210.71
904.43	210.73
904.73	210.63
905.03	210.63
905.34	210.97
905.64	210.94
905.95	210.90
906.25	210.86
906.56	210.87
906.86	210.83
907.17	210.85
907.47	210.83
907.77	210.83
908.08	210.76
908.38	210.86
908.69	210.95
908.99	211.06
909.30	211.05
909.60	211.05
909.90	211.10
910.21	211.00
910.51	210.93
910.81	210.90
911.12	210.88
911.42	210.87
911.73	210.53
912.03	210.59
912.33	210.62
912.64	210.59
912.94	210.61
913.24	210.63
913.55	210.56
913.85	210.54
914.15	210.57
914.46	210.63
914.76	210.55
915.06	210.55
915.37	210.46
915.67	210.44
915.97	210.51
916.27	210.41
916.58	210.43
916.88	210.41
917.18	210.32
917.49	210.57
917.79	210.57
918.09	210.60
918.39	210.73
918.70	210.75
919.00	210.75
919.30	210.92
919.60	210.90
919.91	210.85
920.21	210.85
920.51	210.90
920.81	210.88
921.12	210.94
921.42	210.99
921.72	211.04
922.02	211.10
922.32	211.12
922.63	211.18
922.93	211.40
923.23	211.45
923.53	211.47
923.83	211.24
924.13	211.31
924.44	211.32
924.74	211.27
925.04	211.38
925.34	211.41
925.64	211.29
925.94	211.31
926.24	211.49
926.55	211.47
926.85	211.41
927.15	211.44
927.45	211.43
927.75	211.40
928.05	211.33
928.35	211.27
928.65	211.35
928.95	211.35
929.26	211.20
929.56	211.29
929.86	211.39
930.16	211.36
930.46	211.32
930.76	211.37
931.06	211.28
931.36	211.09
931.66	211.17
931.96	211.12
932.26	211.07
932.56	210.89
932.86	210.94
933.16	210.97
933.46	210.93
933.76	210.90
934.06	210.92
934.36	211.05
934.66	211.04
934.96	210.97
935.26	210.99
935.56	211.05
935.86	210.94
936.16	210.90
936.46	210.86
936.76	210.79
937.06	210.75
937.36	210.77
937.66	210.83
937.96	210.76
938.26	210.70
938.56	210.73
938.86	210.77
939.16	210.88
939.46	210.95
939.76	210.95
940.06	210.95
940.35	210.87
940.65	210.73
940.95	210.71
941.25	210.70
941.55	210.67
941.85	210.66
942.15	210.74
942.45	210.77
942.75	210.83
943.04	210.90
943.34	210.98
943.64	210.94
943.94	210.84
944.24	210.84
944.54	210.94
944.84	210.90
945.13	210.83
945.43	210.75
945.73	210.63
946.03	210.67
946.33	210.68
946.62	210.72
946.92	210.75
947.22	210.82
947.52	210.78
947.82	210.80
948.11	210.67
948.41	210.62
948.71	210.53
949.01	210.50
949.31	210.50
949.60	210.37
949.90	210.36
950.20	210.45
950.50	210.46
950.79	210.45
951.09	210.50
951.39	210.64
951.69	210.63
951.98	210.78
952.28	210.74
952.58	210.74
952.87	210.73
953.17	210.75
953.47	210.71
953.76	210.79
954.06	210.70
954.36	210.70
954.66	210.65
954.95	210.82
955.25	210.85
955.55	210.84
955.84	210.84
956.14	211.00
956.44	210.95
956.73	210.89
957.03	210.87
957.32	210.90
957.62	210.81
957.92	210.85
958.21	210.80
958.51	211.24
958.81	211.27
959.10	211.32
959.40	211.40
959.69	211.47
959.99	211.51
960.29	211.55
960.58	211.65
960.88	211.81
961.17	211.75
961.47	211.77
961.76	211.74
962.06	211.85
962.36	211.70
962.65	211.73
962.95	211.76
963.24	211.77
963.54	211.75
963.83	211.77
964.13	211.69
964.42	211.61
964.72	211.27
965.01	211.26
965.31	211.22
965.60	211.15
965.90	211.29
966.19	211.17
966.49	211.20
966.78	211.08
967.08	211.06
967.37	211.06
967.67	211.05
967.96	211.13
968.26	211.09
968.55	211.18
968.85	211.19
969.14	211.22
969.43	211.20
969.73	211.14
970.02	211.11
970.32	211.14
970.61	211.15
970.91	211.04
971.20	210.94
971.49	210.93
971.79	211.00
972.08	210.76
972.38	210.82
972.67	210.81
972.96	210.95
973.26	210.86
973.55	210.93
973.85	210.86
974.14	210.81
974.43	210.86
974.73	210.75
975.02	210.76
975.31	210.74
975.61	210.75
975.90	210.76
976.19	210.73
976.49	210.74
976.78	210.74
977.07	210.75
977.37	210.83
977.66	210.82
977.95	210.74
978.24	210.80
978.54	210.83
978.83	210.75
979.12	210.76
979.42	210.78
979.71	210.66
980.00	210.66
980.29	210.72
980.59	210.65
980.88	210.75
981.17	210.72
981.46	210.65
981.76	210.66
982.05	210.85
982.34	210.92
982.63	210.99
982.93	210.97
983.22	211.13
983.51	211.14
983.80	211.26
984.09	211.30
984.39	211.28
984.68	211.19
984.97	211.31
985.26	211.22
985.55	211.29
985.85	211.29
986.14	211.37
986.43	211.38
986.72	211.33
987.01	211.25
987.30	211.23
987.59	211.29
987.89	211.33
988.18	211.21
988.47	211.19
988.76	211.10
989.05	211.12
989.34	211.05
989.63	211.12
989.92	211.00
990.22	210.96
990.51	210.94
990.80	211.04
991.09	211.04
991.38	211.07
991.67	211.05
991.96	211.06
992.25	211.03
992.54	210.92
992.83	210.91
993.12	210.92
993.41	211.02
993.70	211.19
993.99	211.20
994.28	211.26
994.58	211.28
994.87	211.23
995.16	211.18
995.45	211.19
995.74	211.05
996.03	211.10
996.32	211.19
996.61	211.35
996.90	211.30
997.19	211.27
997.48	211.29
997.77	211.22
998.06	211.19
998.34	211.22
998.63	211.32
998.92	211.40
999.21	211.48
999.50	211.48
999.79	211.25
1000.08	211.26
1000.37	211.15
1000.66	211.06
1000.95	211.11
1001.24	211.13
1001.53	211.14
1001.82	211.17
1002.11	211.10
1002.40	211.08
1002.68	211.12
1002.97	211.31
1003.26	211.19
1003.55	211.11
1003.84	211.08
1004.13	211.19
1004.42	211.10
1004.71	211.07
1004.99	211.02
1005.28	211.07
1005.57	211.00
1005.86	211.07
1006.15	211.02
1006.44	211.01
1006.72	211.04
1007.01	211.06
1007.30	211.04
1007.59	210.94
1007.88	210.92
1008.17	211.01
1008.45	210.88
1008.74	210.73
1009.03	210.53
1009.32	210.57
1009.60	210.60
1009.89	210.55
1010.18	210.38
1010.47	210.42
1010.76	210.37
1011.04	210.40
1011.33	210.34
1011.62	210.37
1011.91	210.36
1012.19	210.34
1012.48	210.29
1012.77	210.28
1013.05	210.40
1013.34	210.47
1013.63	210.50
1013.92	210.50
1014.20	210.44
1014.49	210.52
1014.78	210.51
1015.06	210.44
1015.35	210.53
1015.64	210.60
1015.92	210.71
1016.21	210.70
1016.50	210.69
1016.78	210.70
1017.07	210.69
1017.36	210.57
1017.64	210.58
1017.93	210.59
1018.22	210.55
1018.50	210.53
1018.79	210.53
1019.08	210.42
1019.36	210.41
1019.65	210.38
1019.93	210.44
1020.22	210.51
1020.51	210.68
1020.79	210.64
1021.08	209.40
1021.36	208.50
1021.65	210.20
1021.94	211.20
1022.22	210.90
1022.51	210.45
1022.79	211.25
1023.08	211.70
1023.36	214.90
1023.65	209.90
>>>>>End Processed Spectral Data<<<<<
