SpectraSuite Data File
++++++++++++++++++++++++++++++++++++
Date: Mon Feb 25 17:14:06 EST 2013
User: group
Dark Spectrum Present: No
Reference Spectrum Present: No
Number of Sampled Component Spectra: 1
Spectrometers: USB2E7196
Integration Time (usec): 104000 (USB2E7196)
Spectra Averaged: 20 (USB2E7196)
Boxcar Smoothing: 10 (USB2E7196)
Correct for Electrical Dark: No (USB2E7196)
Strobe/Lamp Enabled: No (USB2E7196)
Correct for Detector Non-linearity: No (USB2E7196)
Correct for Stray Light: No (USB2E7196)
Number of Pixels in Processed Spectrum: 2048
>>>>>Begin Processed Spectral Data<<<<<
339.09	0.00
339.48	199.50
339.86	199.30
340.24	201.45
340.63	202.85
341.01	210.40
341.39	205.70
341.78	207.40
342.16	209.10
342.54	210.00
342.93	198.30
343.31	208.29
343.69	208.83
344.07	209.31
344.46	209.76
344.84	210.16
345.22	210.16
345.60	210.41
345.99	210.54
346.37	210.60
346.75	210.62
347.13	210.69
347.52	210.74
347.90	210.95
348.28	211.03
348.66	211.08
349.05	210.89
349.43	210.93
349.81	210.97
350.19	210.95
350.57	210.93
350.96	210.97
351.34	211.01
351.72	211.07
352.10	211.11
352.48	211.10
352.87	211.20
353.25	211.22
353.63	211.32
354.01	211.45
354.39	211.48
354.77	211.53
355.15	211.70
355.54	211.72
355.92	211.69
356.30	211.74
356.68	212.16
357.06	212.31
357.44	212.29
357.82	212.40
358.20	212.48
358.58	212.55
358.97	212.58
359.35	212.78
359.73	212.84
360.11	212.97
360.49	213.07
360.87	213.01
361.25	213.15
361.63	213.26
362.01	213.29
362.39	213.40
362.77	213.48
363.15	213.55
363.53	213.64
363.91	213.63
364.29	213.61
364.67	213.24
365.05	213.27
365.43	213.40
365.81	213.46
366.19	213.67
366.57	213.86
366.95	213.86
367.33	213.70
367.71	213.70
368.09	213.80
368.47	213.75
368.85	213.78
369.23	213.85
369.61	213.64
369.99	213.70
370.37	213.71
370.75	213.83
371.13	213.74
371.51	213.60
371.89	213.64
372.27	213.66
372.65	213.59
373.03	213.52
373.41	213.43
373.78	213.30
374.16	213.07
374.54	212.93
374.92	212.90
375.30	212.95
375.68	212.93
376.06	212.84
376.44	212.83
376.82	212.83
377.19	212.75
377.57	212.73
377.95	212.60
378.33	212.52
378.71	212.30
379.09	212.24
379.47	212.32
379.84	212.21
380.22	212.17
380.60	212.09
380.98	212.00
381.36	211.92
381.73	211.89
382.11	211.93
382.49	211.88
382.87	211.70
383.25	211.64
383.62	211.92
384.00	211.78
384.38	211.77
384.76	211.82
385.13	211.91
385.51	211.91
385.89	211.86
386.27	211.86
386.64	211.95
387.02	211.86
387.40	211.75
387.78	211.71
388.15	211.64
388.53	211.73
388.91	211.70
389.29	211.68
389.66	211.68
390.04	211.53
390.42	211.52
390.79	211.59
391.17	211.56
391.55	211.19
391.92	211.22
392.30	211.16
392.68	211.03
393.05	211.02
393.43	211.03
393.81	210.97
394.18	210.95
394.56	210.86
394.94	210.93
395.31	210.96
395.69	211.06
396.06	211.10
396.44	211.09
396.82	211.13
397.19	211.30
397.57	211.33
397.95	211.45
398.32	211.38
398.70	211.47
399.07	211.60
399.45	211.54
399.82	211.55
400.20	211.54
400.58	211.54
400.95	211.36
401.33	211.45
401.70	211.84
402.08	211.85
402.45	211.90
402.83	212.09
403.20	212.16
403.58	212.16
403.95	212.25
404.33	212.31
404.71	212.43
405.08	212.65
405.46	212.68
405.83	212.76
406.21	212.91
406.58	212.99
406.96	213.06
407.33	213.28
407.70	213.44
408.08	213.89
408.45	214.07
408.83	214.33
409.20	214.41
409.58	214.35
409.95	214.65
410.33	214.91
410.70	215.05
411.08	215.30
411.45	215.65
411.82	215.93
412.20	216.40
412.57	216.92
412.95	217.00
413.32	217.49
413.69	217.83
414.07	218.21
414.44	218.67
414.82	219.15
415.19	219.75
415.56	220.35
415.94	220.80
416.31	221.61
416.68	222.35
417.06	223.24
417.43	224.08
417.81	224.87
418.18	225.86
418.55	226.81
418.93	227.81
419.30	228.82
419.67	229.92
420.04	230.99
420.42	232.10
420.79	233.65
421.16	235.07
421.54	236.79
421.91	238.26
422.28	239.83
422.66	241.42
423.03	243.18
423.40	244.82
423.77	246.60
424.15	248.29
424.52	250.10
424.89	252.10
425.26	254.01
425.64	255.96
426.01	257.88
426.38	260.00
426.75	262.25
427.13	264.55
427.50	266.91
427.87	269.24
428.24	271.66
428.61	273.86
428.99	276.58
429.36	279.13
429.73	281.98
430.10	284.74
430.47	287.66
430.85	290.33
431.22	293.44
431.59	296.95
431.96	300.07
432.33	303.47
432.70	306.90
433.08	310.78
433.45	314.44
433.82	318.15
434.19	322.17
434.56	326.22
434.93	330.06
435.30	333.83
435.68	338.10
436.05	342.13
436.42	346.20
436.79	349.81
437.16	353.91
437.53	358.23
437.90	362.36
438.27	366.50
438.64	370.89
439.01	374.92
439.38	378.18
439.75	381.61
440.13	385.65
440.50	389.18
440.87	392.15
441.24	395.18
441.61	398.66
441.98	401.12
442.35	403.89
442.72	406.73
443.09	409.69
443.46	411.44
443.83	412.61
444.20	413.64
444.57	415.01
444.94	415.60
445.31	416.18
445.68	417.17
446.05	417.32
446.42	416.82
446.79	416.24
447.16	415.60
447.53	415.20
447.90	413.36
448.27	411.77
448.64	409.58
449.01	408.03
449.37	405.07
449.74	402.40
450.11	399.41
450.48	395.92
450.85	392.14
451.22	388.90
451.59	386.00
451.96	383.16
452.33	379.41
452.70	375.98
453.07	371.85
453.43	367.39
453.80	363.48
454.17	359.67
454.54	356.08
454.91	352.34
455.28	348.51
455.65	344.98
456.02	341.92
456.38	338.94
456.75	335.18
457.12	332.03
457.49	328.94
457.86	325.76
458.23	323.25
458.59	320.56
458.96	317.77
459.33	315.30
459.70	312.81
460.07	310.84
460.43	308.53
460.80	306.45
461.17	304.64
461.54	302.62
461.91	300.82
462.27	298.90
462.64	297.17
463.01	295.38
463.38	293.87
463.74	291.60
464.11	290.05
464.48	288.83
464.85	287.46
465.21	286.49
465.58	285.30
465.95	283.82
466.32	282.62
466.68	281.48
467.05	280.29
467.42	279.19
467.78	277.98
468.15	276.92
468.52	276.15
468.88	274.96
469.25	274.07
469.62	273.34
469.98	272.50
470.35	271.82
470.72	271.10
471.08	270.25
471.45	269.78
471.82	269.25
472.18	268.53
472.55	268.13
472.92	267.43
473.28	266.93
473.65	266.45
474.02	266.01
474.38	265.72
474.75	265.43
475.11	265.09
475.48	264.92
475.85	264.71
476.21	264.48
476.58	264.53
476.94	264.47
477.31	264.40
477.67	264.35
478.04	264.31
478.41	264.39
478.77	264.69
479.14	264.63
479.50	264.67
479.87	264.80
480.23	264.91
480.60	265.10
480.96	265.36
481.33	265.85
481.69	266.21
482.06	266.60
482.42	267.00
482.79	267.45
483.15	267.89
483.52	268.63
483.88	269.15
484.25	269.68
484.61	270.32
484.98	270.96
485.34	271.89
485.71	272.80
486.07	273.76
486.44	274.52
486.80	275.63
487.17	276.72
487.53	278.10
487.90	279.46
488.26	280.94
488.62	282.40
488.99	283.73
489.35	285.24
489.72	286.91
490.08	288.61
490.44	290.43
490.81	292.42
491.17	294.23
491.54	296.39
491.90	298.75
492.26	301.11
492.63	303.61
492.99	306.03
493.36	308.67
493.72	311.41
494.08	314.27
494.45	317.40
494.81	320.69
495.17	323.87
495.54	327.35
495.90	330.92
496.26	334.71
496.63	338.58
496.99	342.72
497.35	347.00
497.72	351.62
498.08	356.19
498.44	361.03
498.80	366.14
499.17	371.43
499.53	376.70
499.89	382.45
500.26	388.15
500.62	394.05
500.98	400.33
501.34	406.77
501.71	413.53
502.07	420.26
502.43	427.05
502.79	434.15
503.16	441.41
503.52	449.06
503.88	456.85
504.24	464.91
504.60	473.18
504.97	481.61
505.33	489.96
505.69	499.09
506.05	508.23
506.41	517.60
506.78	526.93
507.14	536.71
507.50	546.65
507.86	556.86
508.22	567.31
508.59	577.68
508.95	588.49
509.31	599.49
509.67	610.78
510.03	622.55
510.39	634.51
510.75	646.55
511.12	658.77
511.48	670.96
511.84	683.59
512.20	696.25
512.56	709.40
512.92	722.92
513.28	736.32
513.64	749.70
514.00	763.23
514.37	777.14
514.73	791.05
515.09	805.07
515.45	819.05
515.81	833.28
516.17	847.91
516.53	862.48
516.89	877.01
517.25	891.77
517.61	906.51
517.97	921.07
518.33	935.76
518.69	950.60
519.05	965.67
519.41	980.82
519.77	996.34
520.13	1011.34
520.49	1026.02
520.85	1041.01
521.21	1056.26
521.57	1071.60
521.93	1086.54
522.29	1102.05
522.65	1117.55
523.01	1133.04
523.37	1148.09
523.73	1163.22
524.09	1178.46
524.45	1193.65
524.81	1208.96
525.17	1224.37
525.53	1239.80
525.89	1255.18
526.25	1270.19
526.61	1284.95
526.97	1299.63
527.33	1314.19
527.68	1329.20
528.04	1343.80
528.40	1357.94
528.76	1372.29
529.12	1386.96
529.48	1401.87
529.84	1415.91
530.20	1429.74
530.56	1443.94
530.91	1458.39
531.27	1472.59
531.63	1486.35
531.99	1500.34
532.35	1513.50
532.71	1526.15
533.07	1539.51
533.42	1552.66
533.78	1565.72
534.14	1578.63
534.50	1590.34
534.86	1602.37
535.21	1614.07
535.57	1626.61
535.93	1638.68
536.29	1650.25
536.65	1661.60
537.00	1672.12
537.36	1682.93
537.72	1693.38
538.08	1703.48
538.44	1713.76
538.79	1723.58
539.15	1733.51
539.51	1743.00
539.87	1752.93
540.22	1762.91
540.58	1772.56
540.94	1781.60
541.29	1790.29
541.65	1798.22
542.01	1807.13
542.37	1815.39
542.72	1823.24
543.08	1830.40
543.44	1838.45
543.79	1845.42
544.15	1851.79
544.51	1859.10
544.87	1866.02
545.22	1872.45
545.58	1878.28
545.94	1883.42
546.29	1888.53
546.65	1893.06
547.01	1897.71
547.36	1902.36
547.72	1906.16
548.07	1909.30
548.43	1912.68
548.79	1915.47
549.14	1918.75
549.50	1921.64
549.86	1924.07
550.21	1926.28
550.57	1929.10
550.92	1930.43
551.28	1932.35
551.64	1934.37
551.99	1936.35
552.35	1937.24
552.70	1938.23
553.06	1939.77
553.41	1941.18
553.77	1942.12
554.13	1943.23
554.48	1944.22
554.84	1945.04
555.19	1945.58
555.55	1945.56
555.90	1945.26
556.26	1945.08
556.61	1944.67
556.97	1943.95
557.32	1943.92
557.68	1942.93
558.03	1941.70
558.39	1940.82
558.74	1940.43
559.10	1939.63
559.45	1937.98
559.81	1937.31
560.16	1935.86
560.52	1934.63
560.87	1932.87
561.23	1930.82
561.58	1929.32
561.94	1926.91
562.29	1923.83
562.64	1921.76
563.00	1920.01
563.35	1918.44
563.71	1917.43
564.06	1915.94
564.42	1914.67
564.77	1912.90
565.12	1911.52
565.48	1909.67
565.83	1907.61
566.19	1905.44
566.54	1902.26
566.89	1899.32
567.25	1896.78
567.60	1894.58
567.96	1891.51
568.31	1888.97
568.66	1886.25
569.02	1882.67
569.37	1878.98
569.72	1876.06
570.08	1872.60
570.43	1868.67
570.78	1864.59
571.14	1860.15
571.49	1855.97
571.84	1851.80
572.20	1846.50
572.55	1842.05
572.90	1836.96
573.26	1831.87
573.61	1826.60
573.96	1821.93
574.31	1816.76
574.67	1810.70
575.02	1804.75
575.37	1799.20
575.72	1793.04
576.08	1787.97
576.43	1782.08
576.78	1777.03
577.13	1771.92
577.49	1766.08
577.84	1760.71
578.19	1755.66
578.54	1750.51
578.90	1745.51
579.25	1739.88
579.60	1734.34
579.95	1728.38
580.30	1723.37
580.66	1718.42
581.01	1712.82
581.36	1707.07
581.71	1701.60
582.06	1696.40
582.42	1691.09
582.77	1685.00
583.12	1679.53
583.47	1674.04
583.82	1669.40
584.17	1663.71
584.53	1657.98
584.88	1652.78
585.23	1647.50
585.58	1641.58
585.93	1635.66
586.28	1630.17
586.63	1624.48
586.98	1619.19
587.34	1614.31
587.69	1608.65
588.04	1603.11
588.39	1597.89
588.74	1592.25
589.09	1587.07
589.44	1581.35
589.79	1576.40
590.14	1571.74
590.49	1566.46
590.84	1560.74
591.19	1555.81
591.54	1550.89
591.89	1544.73
592.25	1538.93
592.60	1532.80
592.95	1526.94
593.30	1520.81
593.65	1514.54
594.00	1508.71
594.35	1504.42
594.70	1498.53
595.05	1493.05
595.40	1487.34
595.75	1480.95
596.10	1475.80
596.45	1470.47
596.80	1465.63
597.15	1460.19
597.50	1454.50
597.85	1449.26
598.19	1443.80
598.54	1438.06
598.89	1432.51
599.24	1428.24
599.59	1423.46
599.94	1419.15
600.29	1414.52
600.64	1409.77
600.99	1404.58
601.34	1399.79
601.69	1393.52
602.04	1388.00
602.39	1382.77
602.74	1377.87
603.08	1374.01
603.43	1369.85
603.78	1364.92
604.13	1359.95
604.48	1354.99
604.83	1350.77
605.18	1346.65
605.53	1341.95
605.87	1337.02
606.22	1332.40
606.57	1327.19
606.92	1322.19
607.27	1316.78
607.62	1311.67
607.96	1307.18
608.31	1302.94
608.66	1297.70
609.01	1292.55
609.36	1287.64
609.70	1282.25
610.05	1276.70
610.40	1270.87
610.75	1264.65
611.10	1259.35
611.44	1253.13
611.79	1247.06
612.14	1240.78
612.49	1233.97
612.83	1228.20
613.18	1221.78
613.53	1215.41
613.88	1208.84
614.22	1203.12
614.57	1197.07
614.92	1191.01
615.27	1184.78
615.61	1178.49
615.96	1172.92
616.31	1167.43
616.65	1162.12
617.00	1156.76
617.35	1151.13
617.70	1144.99
618.04	1139.08
618.39	1132.68
618.74	1127.22
619.08	1121.32
619.43	1115.64
619.78	1110.34
620.12	1104.53
620.47	1099.05
620.82	1093.21
621.16	1087.69
621.51	1081.67
621.85	1076.05
622.20	1070.24
622.55	1064.19
622.89	1058.05
623.24	1052.30
623.59	1046.07
623.93	1040.10
624.28	1034.25
624.62	1028.77
624.97	1023.41
625.32	1017.91
625.66	1012.77
626.01	1007.19
626.35	1002.13
626.70	996.72
627.04	991.35
627.39	986.15
627.73	980.91
628.08	976.06
628.43	970.71
628.77	965.13
629.12	959.67
629.46	954.96
629.81	950.01
630.15	945.15
630.50	939.78
630.84	934.66
631.19	929.47
631.53	924.27
631.88	918.68
632.22	913.43
632.57	908.57
632.91	903.30
633.26	898.28
633.60	893.07
633.95	888.32
634.29	883.22
634.64	878.61
634.98	873.57
635.32	868.71
635.67	864.15
636.01	859.81
636.36	855.02
636.70	850.10
637.05	845.49
637.39	840.97
637.73	836.60
638.08	832.41
638.42	828.19
638.77	823.88
639.11	819.64
639.45	815.17
639.80	810.41
640.14	805.70
640.49	801.08
640.83	796.78
641.17	792.09
641.52	787.51
641.86	782.41
642.20	777.86
642.55	773.00
642.89	768.15
643.23	763.39
643.58	759.16
643.92	754.34
644.26	749.79
644.61	745.19
644.95	740.50
645.29	735.88
645.64	731.23
645.98	726.63
646.32	722.22
646.66	717.72
647.01	713.49
647.35	709.38
647.69	704.88
648.04	700.47
648.38	696.05
648.72	691.83
649.06	687.79
649.41	683.46
649.75	679.40
650.09	675.42
650.43	671.29
650.78	666.84
651.12	662.69
651.46	658.43
651.80	654.50
652.14	650.58
652.49	646.56
652.83	642.35
653.17	638.10
653.51	633.84
653.85	629.94
654.20	625.91
654.54	621.65
654.88	617.71
655.22	613.66
655.56	609.63
655.90	605.59
656.25	601.43
656.59	597.53
656.93	593.59
657.27	589.96
657.61	585.79
657.95	582.18
658.29	578.40
658.64	574.79
658.98	570.82
659.32	566.85
659.66	563.05
660.00	559.42
660.34	555.61
660.68	551.90
661.02	548.20
661.36	544.65
661.70	541.37
662.05	538.02
662.39	534.93
662.73	531.79
663.07	528.68
663.41	525.51
663.75	522.31
664.09	519.04
664.43	515.47
664.77	512.50
665.11	509.06
665.45	506.01
665.79	502.96
666.13	499.88
666.47	496.94
666.81	494.01
667.15	491.04
667.49	488.49
667.83	485.87
668.17	483.07
668.51	480.41
668.85	477.68
669.19	475.31
669.53	472.31
669.87	469.51
670.21	466.87
670.55	464.25
670.89	461.88
671.23	459.55
671.57	457.07
671.91	454.58
672.25	452.20
672.58	449.85
672.92	447.35
673.26	445.08
673.60	442.69
673.94	440.29
674.28	437.93
674.62	435.71
674.96	433.43
675.30	431.24
675.64	428.92
675.97	426.63
676.31	424.18
676.65	422.06
676.99	420.08
677.33	417.86
677.67	415.73
678.01	413.49
678.34	411.28
678.68	409.19
679.02	407.14
679.36	405.23
679.70	403.08
680.04	401.08
680.37	399.07
680.71	397.12
681.05	395.23
681.39	393.36
681.73	391.31
682.06	389.38
682.40	387.60
682.74	385.71
683.08	383.93
683.42	382.03
683.75	380.16
684.09	378.10
684.43	376.25
684.77	374.30
685.10	372.53
685.44	370.71
685.78	369.09
686.12	367.38
686.45	365.56
686.79	363.93
687.13	362.38
687.46	360.73
687.80	359.22
688.14	357.60
688.48	356.02
688.81	354.25
689.15	352.62
689.49	350.89
689.82	349.26
690.16	347.46
690.50	345.90
690.83	344.34
691.17	342.85
691.51	341.33
691.84	339.99
692.18	338.43
692.52	336.99
692.85	335.60
693.19	334.25
693.52	332.89
693.86	331.37
694.20	329.85
694.53	328.47
694.87	326.95
695.21	325.57
695.54	324.16
695.88	322.89
696.21	321.59
696.55	320.32
696.88	318.99
697.22	317.86
697.56	316.72
697.89	315.51
698.23	314.28
698.56	313.01
698.90	311.90
699.23	310.70
699.57	309.47
699.90	308.21
700.24	306.99
700.58	305.88
700.91	304.85
701.25	304.00
701.58	302.96
701.92	301.86
702.25	300.77
702.59	299.71
702.92	298.75
703.26	297.74
703.59	296.73
703.93	296.04
704.26	295.05
704.60	294.02
704.93	292.98
705.26	292.12
705.60	291.26
705.93	290.22
706.27	289.48
706.60	288.80
706.94	288.07
707.27	287.16
707.61	286.28
707.94	285.32
708.27	284.15
708.61	283.25
708.94	282.49
709.28	281.62
709.61	280.78
709.94	279.95
710.28	279.18
710.61	278.41
710.95	277.39
711.28	276.89
711.61	276.07
711.95	275.49
712.28	274.70
712.61	273.99
712.95	273.44
713.28	272.83
713.61	271.99
713.95	271.27
714.28	270.68
714.61	269.98
714.95	269.47
715.28	268.81
715.61	268.10
715.95	267.53
716.28	266.90
716.61	266.30
716.95	265.58
717.28	265.01
717.61	264.38
717.94	263.78
718.28	262.99
718.61	262.44
718.94	261.82
719.27	261.22
719.61	260.60
719.94	259.92
720.27	259.13
720.60	258.61
720.94	257.98
721.27	257.41
721.60	256.94
721.93	256.33
722.27	256.00
722.60	255.60
722.93	255.11
723.26	254.74
723.59	254.18
723.93	253.77
724.26	253.21
724.59	252.81
724.92	252.35
725.25	251.92
725.59	251.55
725.92	251.13
726.25	250.67
726.58	250.34
726.91	249.90
727.24	249.59
727.57	249.16
727.91	248.71
728.24	248.36
728.57	247.95
728.90	247.68
729.23	247.17
729.56	246.96
729.89	246.54
730.22	246.06
730.55	245.72
730.89	245.41
731.22	245.01
731.55	244.64
731.88	244.32
732.21	243.90
732.54	243.44
732.87	243.08
733.20	242.80
733.53	242.43
733.86	242.17
734.19	241.77
734.52	241.53
734.85	241.47
735.18	241.03
735.51	240.81
735.84	240.51
736.17	240.33
736.50	239.86
736.83	239.93
737.16	239.65
737.49	239.28
737.82	238.87
738.15	238.70
738.48	238.37
738.81	238.06
739.14	237.71
739.47	237.38
739.80	237.11
740.13	236.80
740.46	236.42
740.79	236.15
741.12	235.85
741.45	235.47
741.78	234.93
742.11	234.83
742.44	234.51
742.77	234.32
743.10	233.99
743.43	233.68
743.75	233.07
744.08	233.22
744.41	233.01
744.74	232.78
745.07	232.50
745.40	232.28
745.73	232.20
746.06	231.92
746.39	231.86
746.71	231.54
747.04	231.31
747.37	231.13
747.70	230.90
748.03	230.68
748.36	230.53
748.68	230.37
749.01	230.05
749.34	229.80
749.67	229.59
750.00	229.50
750.33	229.55
750.65	229.35
750.98	228.80
751.31	228.60
751.64	228.44
751.97	228.39
752.29	228.25
752.62	227.95
752.95	227.85
753.28	227.56
753.60	227.37
753.93	227.35
754.26	227.20
754.59	226.90
754.91	226.73
755.24	226.52
755.57	226.33
755.90	226.14
756.22	225.95
756.55	225.70
756.88	225.36
757.20	225.04
757.53	224.74
757.86	224.56
758.19	224.46
758.51	224.32
758.84	223.97
759.17	223.75
759.49	223.56
759.82	223.58
760.15	223.48
760.47	223.34
760.80	223.01
761.13	222.89
761.45	222.72
761.78	222.55
762.11	222.44
762.43	222.36
762.76	222.20
763.08	222.16
763.41	222.04
763.74	222.01
764.06	221.84
764.39	221.79
764.71	221.59
765.04	221.40
765.37	221.25
765.69	221.10
766.02	221.02
766.34	220.90
766.67	220.59
767.00	220.56
767.32	220.73
767.65	220.91
767.97	220.84
768.30	220.82
768.62	220.77
768.95	220.58
769.27	220.45
769.60	220.46
769.92	220.28
770.25	220.13
770.57	219.89
770.90	219.78
771.22	219.60
771.55	219.56
771.87	219.49
772.20	219.37
772.52	219.59
772.85	219.84
773.17	219.74
773.50	219.66
773.82	219.46
774.15	219.11
774.47	218.76
774.80	218.68
775.12	218.55
775.45	218.36
775.77	218.38
776.09	218.32
776.42	218.18
776.74	218.14
777.07	218.05
777.39	218.07
777.72	217.93
778.04	217.94
778.36	217.86
778.69	217.83
779.01	217.86
779.33	217.56
779.66	217.13
779.98	216.98
780.31	216.93
780.63	217.05
780.95	217.11
781.28	217.05
781.60	216.90
781.92	216.84
782.25	216.83
782.57	216.75
782.89	216.57
783.22	216.47
783.54	216.41
783.86	216.40
784.19	216.32
784.51	216.42
784.83	216.32
785.16	216.21
785.48	216.18
785.80	216.07
786.12	216.00
786.45	215.97
786.77	216.03
787.09	215.99
787.42	215.81
787.74	215.73
788.06	215.64
788.38	215.54
788.71	215.54
789.03	215.58
789.35	215.60
789.67	215.59
789.99	215.57
790.32	215.43
790.64	215.43
790.96	215.63
791.28	215.44
791.61	215.38
791.93	215.41
792.25	215.30
792.57	215.56
792.89	215.44
793.21	215.42
793.54	215.33
793.86	215.27
794.18	215.18
794.50	215.06
794.82	215.13
795.14	215.23
795.47	215.18
795.79	215.08
796.11	214.93
796.43	214.95
796.75	214.95
797.07	214.95
797.39	214.87
797.71	214.60
798.04	214.57
798.36	214.64
798.68	214.59
799.00	214.60
799.32	214.33
799.64	214.36
799.96	214.33
800.28	214.41
800.60	214.35
800.92	214.45
801.24	214.43
801.56	214.37
801.89	214.30
802.21	214.30
802.53	214.21
802.85	214.29
803.17	214.42
803.49	214.32
803.81	214.31
804.13	214.29
804.45	214.22
804.77	214.27
805.09	214.17
805.41	214.08
805.73	214.03
806.05	213.96
806.37	213.95
806.69	213.89
807.01	213.78
807.33	213.78
807.65	213.60
807.97	213.67
808.28	213.61
808.60	213.53
808.92	213.49
809.24	213.74
809.56	213.66
809.88	213.46
810.20	213.54
810.52	213.62
810.84	213.58
811.16	213.53
811.48	213.49
811.80	213.60
812.12	213.61
812.43	213.70
812.75	213.71
813.07	213.60
813.39	213.61
813.71	213.51
814.03	213.43
814.35	213.39
814.67	213.34
814.98	213.29
815.30	213.26
815.62	213.20
815.94	212.93
816.26	212.91
816.58	212.89
816.89	212.83
817.21	212.71
817.53	212.71
817.85	212.79
818.17	212.73
818.48	212.58
818.80	212.64
819.12	212.49
819.44	212.41
819.76	212.42
820.07	212.37
820.39	212.41
820.71	212.44
821.03	212.45
821.34	212.35
821.66	212.46
821.98	212.54
822.30	212.53
822.61	212.76
822.93	212.72
823.25	212.69
823.57	212.68
823.88	212.78
824.20	212.77
824.52	212.84
824.83	212.85
825.15	212.90
825.47	212.84
825.79	212.86
826.10	212.88
826.42	212.85
826.74	212.94
827.05	212.90
827.37	212.96
827.69	212.94
828.00	212.97
828.32	212.95
828.64	212.85
828.95	213.00
829.27	212.84
829.58	212.87
829.90	212.95
830.22	212.96
830.53	212.84
830.85	212.80
831.17	212.66
831.48	212.56
831.80	212.58
832.11	212.55
832.43	212.55
832.75	212.55
833.06	212.81
833.38	212.66
833.69	212.64
834.01	212.59
834.32	212.67
834.64	212.60
834.96	212.55
835.27	212.47
835.59	212.34
835.90	212.28
836.22	212.27
836.53	212.16
836.85	212.13
837.16	212.50
837.48	212.52
837.79	212.60
838.11	212.75
838.42	212.65
838.74	212.72
839.05	212.71
839.37	212.66
839.68	212.36
840.00	212.44
840.31	212.50
840.63	212.46
840.94	212.37
841.26	212.37
841.57	212.36
841.88	212.49
842.20	212.37
842.51	212.34
842.83	212.25
843.14	212.57
843.46	212.55
843.77	212.27
844.08	212.27
844.40	212.17
844.71	212.06
845.03	212.06
845.34	212.06
845.65	212.05
845.97	212.06
846.28	212.11
846.60	212.04
846.91	212.02
847.22	211.97
847.54	212.00
847.85	212.02
848.16	211.97
848.48	211.93
848.79	212.18
849.10	212.31
849.42	212.33
849.73	211.91
850.04	211.91
850.36	211.85
850.67	211.85
850.98	211.88
851.30	211.94
851.61	211.90
851.92	211.79
852.23	211.85
852.55	211.83
852.86	211.81
853.17	211.83
853.49	211.92
853.80	212.07
854.11	212.17
854.42	212.21
854.74	212.19
855.05	212.22
855.36	211.98
855.67	211.98
855.99	212.05
856.30	212.55
856.61	212.52
856.92	212.46
857.23	212.45
857.55	212.38
857.86	212.35
858.17	212.39
858.48	212.37
858.79	212.30
859.11	212.28
859.42	212.25
859.73	212.22
860.04	212.19
860.35	212.10
860.66	211.98
860.98	211.98
861.29	212.09
861.60	212.09
861.91	212.24
862.22	212.13
862.53	212.10
862.84	211.65
863.16	211.79
863.47	211.77
863.78	211.79
864.09	211.88
864.40	211.84
864.71	211.84
865.02	211.91
865.33	211.90
865.64	211.91
865.95	211.95
866.27	212.19
866.58	212.12
866.89	212.13
867.20	212.14
867.51	212.03
867.82	212.00
868.13	211.98
868.44	211.86
868.75	212.01
869.06	211.95
869.37	212.03
869.68	211.89
869.99	211.99
870.30	211.97
870.61	211.96
870.92	211.93
871.23	211.99
871.54	212.09
871.85	212.13
872.16	212.15
872.47	212.09
872.78	211.87
873.09	211.90
873.40	211.82
873.71	211.91
874.02	212.01
874.33	211.99
874.64	211.97
874.95	212.04
875.26	211.80
875.56	211.84
875.87	211.87
876.18	211.83
876.49	212.15
876.80	212.16
877.11	212.08
877.42	212.10
877.73	212.05
878.04	211.94
878.35	211.94
878.66	212.01
878.96	212.04
879.27	212.02
879.58	212.03
879.89	212.06
880.20	212.01
880.51	211.97
880.82	211.97
881.12	211.98
881.43	211.92
881.74	212.01
882.05	212.00
882.36	211.94
882.67	211.98
882.97	211.59
883.28	211.54
883.59	211.55
883.90	211.59
884.21	211.62
884.51	211.61
884.82	211.56
885.13	211.50
885.44	211.49
885.74	211.49
886.05	211.45
886.36	211.44
886.67	211.36
886.98	211.55
887.28	211.55
887.59	211.57
887.90	211.56
888.20	211.62
888.51	211.64
888.82	211.58
889.13	211.57
889.43	211.81
889.74	211.80
890.05	211.80
890.35	211.78
890.66	211.70
890.97	211.63
891.28	211.60
891.58	211.60
891.89	211.56
892.20	211.55
892.50	211.50
892.81	211.45
893.12	211.44
893.42	211.23
893.73	211.23
894.04	211.19
894.34	211.20
894.65	211.08
894.95	210.99
895.26	211.05
895.57	211.25
895.87	210.98
896.18	210.99
896.48	211.02
896.79	210.99
897.10	211.09
897.40	211.14
897.71	211.16
898.01	211.14
898.32	211.22
898.63	211.25
898.93	211.29
899.24	211.33
899.54	211.32
899.85	211.30
900.15	211.25
900.46	211.21
900.76	211.25
901.07	211.28
901.38	211.33
901.68	211.32
901.99	211.09
902.29	211.12
902.60	211.06
902.90	211.02
903.21	211.03
903.51	210.98
903.82	211.02
904.12	211.04
904.43	211.08
904.73	211.08
905.03	211.02
905.34	211.38
905.64	211.39
905.95	211.40
906.25	211.45
906.56	211.50
906.86	211.51
907.17	211.42
907.47	211.45
907.77	211.36
908.08	211.30
908.38	211.41
908.69	211.44
908.99	211.59
909.30	211.58
909.60	211.56
909.90	211.58
910.21	211.56
910.51	211.55
910.81	211.56
911.12	211.55
911.42	211.56
911.73	211.23
912.03	211.26
912.33	211.42
912.64	211.39
912.94	211.33
913.24	211.27
913.55	211.32
913.85	211.21
914.15	211.34
914.46	211.42
914.76	211.35
915.06	211.25
915.37	211.18
915.67	211.17
915.97	211.24
916.27	211.18
916.58	211.16
916.88	211.15
917.18	211.12
917.49	211.36
917.79	211.41
918.09	211.46
918.39	211.45
918.70	211.34
919.00	211.36
919.30	211.53
919.60	211.55
919.91	211.50
920.21	211.55
920.51	211.45
920.81	211.38
921.12	211.40
921.42	211.40
921.72	211.42
922.02	211.46
922.32	211.47
922.63	211.41
922.93	211.59
923.23	211.57
923.53	211.51
923.83	211.27
924.13	211.30
924.44	211.25
924.74	211.32
925.04	211.35
925.34	211.38
925.64	211.22
925.94	211.19
926.24	211.41
926.55	211.38
926.85	211.40
927.15	211.43
927.45	211.48
927.75	211.50
928.05	211.57
928.35	211.54
928.65	211.48
928.95	211.57
929.26	211.42
929.56	211.41
929.86	211.46
930.16	211.49
930.46	211.40
930.76	211.35
931.06	211.17
931.36	211.06
931.66	211.06
931.96	211.11
932.26	211.16
932.56	211.05
932.86	211.10
933.16	211.13
933.46	211.16
933.76	211.05
934.06	211.17
934.36	211.25
934.66	211.16
934.96	211.22
935.26	211.28
935.56	211.37
935.86	211.35
936.16	211.32
936.46	211.30
936.76	211.30
937.06	211.30
937.36	211.35
937.66	211.40
937.96	211.35
938.26	211.27
938.56	211.29
938.86	211.21
939.16	211.30
939.46	211.34
939.76	211.29
940.06	211.36
940.35	211.24
940.65	210.98
940.95	211.12
941.25	210.95
941.55	210.88
941.85	210.84
942.15	210.91
942.45	211.00
942.75	211.01
943.04	211.06
943.34	211.15
943.64	211.19
943.94	211.20
944.24	211.18
944.54	211.24
944.84	211.15
945.13	211.19
945.43	211.18
945.73	211.18
946.03	211.18
946.33	211.03
946.62	211.05
946.92	211.07
947.22	211.05
947.52	211.17
947.82	211.17
948.11	211.15
948.41	211.07
948.71	210.98
949.01	210.97
949.31	210.94
949.60	210.83
949.90	210.84
950.20	210.80
950.50	210.85
950.79	210.81
951.09	210.92
951.39	210.94
951.69	210.82
951.98	210.83
952.28	210.86
952.58	210.90
952.87	210.90
953.17	210.96
953.47	210.93
953.76	210.92
954.06	210.91
954.36	210.84
954.66	210.82
954.95	210.89
955.25	210.99
955.55	210.93
955.84	210.90
956.14	210.91
956.44	210.99
956.73	210.94
957.03	210.99
957.32	210.99
957.62	210.97
957.92	211.10
958.21	211.14
958.51	211.55
958.81	211.63
959.10	211.62
959.40	211.67
959.69	211.71
959.99	211.75
960.29	211.70
960.58	211.68
960.88	211.86
961.17	211.79
961.47	211.67
961.76	211.69
962.06	211.78
962.36	211.79
962.65	211.72
962.95	211.75
963.24	211.74
963.54	211.74
963.83	211.75
964.13	211.70
964.42	211.60
964.72	211.26
965.01	211.23
965.31	211.25
965.60	211.20
965.90	211.41
966.19	211.28
966.49	211.32
966.78	211.34
967.08	211.22
967.37	211.25
967.67	211.27
967.96	211.40
968.26	211.36
968.55	211.34
968.85	211.30
969.14	211.24
969.43	211.22
969.73	211.20
970.02	211.20
970.32	211.17
970.61	211.15
970.91	211.09
971.20	211.07
971.49	210.96
971.79	211.00
972.08	210.77
972.38	210.82
972.67	210.83
972.96	210.91
973.26	210.92
973.55	211.04
973.85	211.03
974.14	210.98
974.43	211.05
974.73	211.01
975.02	211.04
975.31	211.10
975.61	211.07
975.90	211.02
976.19	210.96
976.49	210.99
976.78	211.02
977.07	211.01
977.37	211.01
977.66	211.10
977.95	211.02
978.24	211.02
978.54	211.21
978.83	211.10
979.12	211.12
979.42	211.14
979.71	211.11
980.00	211.14
980.29	211.15
980.59	211.15
980.88	211.20
981.17	211.28
981.46	211.25
981.76	211.29
982.05	211.44
982.34	211.52
982.63	211.56
982.93	211.57
983.22	211.65
983.51	211.70
983.80	211.72
984.09	211.76
984.39	211.68
984.68	211.60
984.97	211.67
985.26	211.58
985.55	211.65
985.85	211.59
986.14	211.66
986.43	211.66
986.72	211.65
987.01	211.59
987.30	211.54
987.59	211.58
987.89	211.58
988.18	211.39
988.47	211.27
988.76	211.27
989.05	211.23
989.34	211.20
989.63	211.23
989.92	211.27
990.22	211.22
990.51	211.28
990.80	211.25
991.09	211.31
991.38	211.40
991.67	211.32
991.96	211.25
992.25	211.20
992.54	211.13
992.83	211.07
993.12	211.05
993.41	211.05
993.70	211.14
993.99	211.20
994.28	211.27
994.58	211.38
994.87	211.31
995.16	211.28
995.45	211.26
995.74	211.18
996.03	211.22
996.32	211.33
996.61	211.39
996.90	211.36
997.19	211.33
997.48	211.30
997.77	211.23
998.06	211.26
998.34	211.25
998.63	211.32
998.92	211.37
999.21	211.44
999.50	211.48
999.79	211.37
1000.08	211.33
1000.37	211.35
1000.66	211.30
1000.95	211.40
1001.24	211.49
1001.53	211.59
1001.82	211.60
1002.11	211.52
1002.40	211.56
1002.68	211.62
1002.97	211.87
1003.26	211.85
1003.55	211.79
1003.84	211.80
1004.13	211.92
1004.42	211.89
1004.71	211.90
1004.99	211.85
1005.28	211.95
1005.57	211.97
1005.86	211.95
1006.15	211.99
1006.44	212.05
1006.72	212.08
1007.01	211.92
1007.30	211.95
1007.59	211.83
1007.88	211.86
1008.17	211.94
1008.45	211.83
1008.74	211.79
1009.03	211.61
1009.32	211.56
1009.60	211.65
1009.89	211.62
1010.18	211.50
1010.47	211.55
1010.76	211.48
1011.04	211.52
1011.33	211.50
1011.62	211.48
1011.91	211.51
1012.19	211.57
1012.48	211.52
1012.77	211.52
1013.05	211.74
1013.34	211.68
1013.63	211.70
1013.92	211.74
1014.20	211.63
1014.49	211.68
1014.78	211.68
1015.06	211.64
1015.35	211.74
1015.64	211.67
1015.92	211.75
1016.21	211.84
1016.50	211.83
1016.78	211.93
1017.07	211.96
1017.36	211.96
1017.64	211.96
1017.93	212.00
1018.22	211.89
1018.50	211.87
1018.79	211.84
1019.08	211.65
1019.36	211.62
1019.65	211.65
1019.93	211.68
1020.22	211.75
1020.51	211.85
1020.79	211.78
1021.08	210.75
1021.36	211.25
1021.65	211.35
1021.94	210.25
1022.22	210.55
1022.51	211.95
1022.79	212.80
1023.08	211.90
1023.36	214.45
1023.65	210.75
>>>>>End Processed Spectral Data<<<<<
