SpectraSuite Data File
++++++++++++++++++++++++++++++++++++
Date: Mon Feb 25 17:01:25 EST 2013
User: group
Dark Spectrum Present: No
Reference Spectrum Present: No
Number of Sampled Component Spectra: 1
Spectrometers: USB2E7196
Integration Time (usec): 104000 (USB2E7196)
Spectra Averaged: 20 (USB2E7196)
Boxcar Smoothing: 10 (USB2E7196)
Correct for Electrical Dark: No (USB2E7196)
Strobe/Lamp Enabled: No (USB2E7196)
Correct for Detector Non-linearity: No (USB2E7196)
Correct for Stray Light: No (USB2E7196)
Number of Pixels in Processed Spectrum: 2048
>>>>>Begin Processed Spectral Data<<<<<
339.09	0.00
339.48	198.10
339.86	198.40
340.24	201.45
340.63	204.10
341.01	208.45
341.39	204.95
341.78	208.25
342.16	208.45
342.54	207.65
342.93	197.91
343.31	207.87
343.69	208.42
344.07	209.00
344.46	209.45
344.84	209.72
345.22	209.75
345.60	210.00
345.99	210.07
346.37	210.11
346.75	210.28
347.13	210.30
347.52	210.36
347.90	210.46
348.28	210.43
348.66	210.54
349.05	210.45
349.43	210.42
349.81	210.42
350.19	210.41
350.57	210.44
350.96	210.40
351.34	210.48
351.72	210.55
352.10	210.51
352.48	210.49
352.87	210.54
353.25	210.61
353.63	210.68
354.01	210.76
354.39	210.89
354.77	210.91
355.15	211.04
355.54	211.04
355.92	210.95
356.30	211.10
356.68	211.38
357.06	211.50
357.44	211.52
357.82	211.58
358.20	211.72
358.58	211.75
358.97	211.89
359.35	212.05
359.73	212.20
360.11	212.27
360.49	212.34
360.87	212.41
361.25	212.52
361.63	212.69
362.01	212.70
362.39	212.73
362.77	212.86
363.15	212.88
363.53	212.93
363.91	213.08
364.29	213.06
364.67	212.80
365.05	212.76
365.43	212.89
365.81	212.94
366.19	213.18
366.57	213.40
366.95	213.40
367.33	213.35
367.71	213.31
368.09	213.45
368.47	213.50
368.85	213.55
369.23	213.59
369.61	213.43
369.99	213.60
370.37	213.64
370.75	213.71
371.13	213.69
371.51	213.63
371.89	213.56
372.27	213.54
372.65	213.56
373.03	213.61
373.41	213.54
373.78	213.50
374.16	213.24
374.54	213.11
374.92	213.00
375.30	212.96
375.68	212.86
376.06	212.75
376.44	212.69
376.82	212.60
377.19	212.54
377.57	212.48
377.95	212.27
378.33	212.23
378.71	211.98
379.09	211.96
379.47	212.00
379.84	211.94
380.22	211.95
380.60	211.77
380.98	211.74
381.36	211.67
381.73	211.56
382.11	211.57
382.49	211.49
382.87	211.48
383.25	211.39
383.62	211.74
384.00	211.69
384.38	211.55
384.76	211.57
385.13	211.63
385.51	211.64
385.89	211.55
386.27	211.54
386.64	211.50
387.02	211.44
387.40	211.37
387.78	211.38
388.15	211.31
388.53	211.33
388.91	211.22
389.29	211.20
389.66	211.17
390.04	211.10
390.42	211.14
390.79	211.11
391.17	211.15
391.55	210.81
391.92	210.74
392.30	210.80
392.68	210.75
393.05	210.75
393.43	210.71
393.81	210.76
394.18	210.68
394.56	210.76
394.94	210.79
395.31	210.72
395.69	210.76
396.06	210.79
396.44	210.83
396.82	210.84
397.19	210.95
397.57	211.00
397.95	211.11
398.32	210.99
398.70	211.04
399.07	211.11
399.45	211.03
399.82	211.06
400.20	211.12
400.58	211.12
400.95	210.98
401.33	211.12
401.70	211.35
402.08	211.44
402.45	211.48
402.83	211.59
403.20	211.69
403.58	211.76
403.95	211.85
404.33	211.98
404.71	212.12
405.08	212.42
405.46	212.54
405.83	212.68
406.21	212.91
406.58	213.03
406.96	213.18
407.33	213.48
407.70	213.72
408.08	214.25
408.45	214.56
408.83	214.93
409.20	215.15
409.58	215.35
409.95	215.72
410.33	216.20
410.70	216.55
411.08	217.05
411.45	217.51
411.82	218.06
412.20	218.71
412.57	219.57
412.95	219.86
413.32	220.59
413.69	221.31
414.07	222.02
414.44	222.91
414.82	223.84
415.19	224.89
415.56	226.01
415.94	226.95
416.31	228.26
416.68	229.56
417.06	231.05
417.43	232.48
417.81	234.08
418.18	235.69
418.55	237.44
418.93	239.34
419.30	241.34
419.67	243.34
420.04	245.50
420.42	247.52
420.79	250.35
421.16	253.00
421.54	255.81
421.91	258.66
422.28	261.62
422.66	264.67
423.03	267.83
423.40	271.07
423.77	274.44
424.15	277.78
424.52	281.30
424.89	285.22
425.26	288.90
425.64	292.53
426.01	296.38
426.38	300.52
426.75	304.68
427.13	308.90
427.50	313.45
427.87	318.13
428.24	323.07
428.61	327.56
428.99	332.66
429.36	338.04
429.73	343.44
430.10	348.89
430.47	354.50
430.85	360.03
431.22	366.03
431.59	372.60
431.96	378.81
432.33	385.76
432.70	392.51
433.08	400.48
433.45	407.86
433.82	415.42
434.19	423.62
434.56	431.83
434.93	439.71
435.30	447.66
435.68	456.31
436.05	464.99
436.42	473.54
436.79	481.34
437.16	489.84
437.53	498.86
437.90	507.79
438.27	516.70
438.64	526.01
439.01	534.67
439.38	542.27
439.75	549.99
440.13	558.50
440.50	566.39
440.87	573.13
441.24	580.20
441.61	587.84
441.98	593.84
442.35	600.59
442.72	607.44
443.09	613.99
443.46	618.25
443.83	621.16
444.20	624.05
444.57	627.83
444.94	629.86
445.31	632.13
445.68	634.45
446.05	635.66
446.42	635.45
446.79	634.96
447.16	634.48
447.53	634.16
447.90	631.60
448.27	628.97
448.64	624.92
449.01	622.22
449.37	616.90
449.74	611.63
450.11	605.51
450.48	598.62
450.85	591.55
451.22	585.51
451.59	579.82
451.96	574.18
452.33	566.61
452.70	559.95
453.07	551.60
453.43	543.04
453.80	535.06
454.17	527.38
454.54	519.99
454.91	512.14
455.28	504.44
455.65	497.17
456.02	490.23
456.38	484.03
456.75	476.27
457.12	469.90
457.49	463.61
457.86	457.29
458.23	451.97
458.59	446.10
458.96	440.29
459.33	434.97
459.70	429.72
460.07	425.67
460.43	420.89
460.80	416.57
461.17	412.67
461.54	408.48
461.91	404.51
462.27	400.73
462.64	397.30
463.01	393.48
463.38	389.88
463.74	386.00
464.11	382.85
464.48	380.04
464.85	376.93
465.21	374.64
465.58	372.11
465.95	369.24
466.32	366.84
466.68	364.31
467.05	361.84
467.42	359.42
467.78	356.76
468.15	354.31
468.52	352.40
468.88	349.93
469.25	347.75
469.62	346.05
469.98	344.08
470.35	342.29
470.72	340.59
471.08	338.79
471.45	337.30
471.82	335.78
472.18	334.02
472.55	332.84
472.92	331.14
473.28	329.75
473.65	328.33
474.02	326.91
474.38	325.89
474.75	325.08
475.11	324.06
475.48	323.21
475.85	322.38
476.21	321.55
476.58	320.83
476.94	320.34
477.31	319.64
477.67	319.11
478.04	318.73
478.41	318.44
478.77	318.41
479.14	318.11
479.50	317.88
479.87	317.83
480.23	317.63
480.60	317.56
480.96	317.48
481.33	317.71
481.69	317.91
482.06	317.83
482.42	317.75
482.79	317.80
483.15	318.12
483.52	318.52
483.88	318.80
484.25	319.10
484.61	319.46
484.98	319.84
485.34	320.43
485.71	321.02
486.07	321.58
486.44	321.93
486.80	322.57
487.17	323.28
487.53	324.28
487.90	325.21
488.26	326.46
488.62	327.54
488.99	328.38
489.35	329.42
489.72	330.68
490.08	331.90
490.44	333.06
490.81	334.38
491.17	335.57
491.54	336.97
491.90	338.53
492.26	340.10
492.63	341.72
492.99	343.20
493.36	344.88
493.72	346.66
494.08	348.33
494.45	350.19
494.81	352.18
495.17	354.00
495.54	356.00
495.90	357.81
496.26	359.77
496.63	361.91
496.99	364.05
497.35	366.24
497.72	368.48
498.08	370.64
498.44	372.85
498.80	375.26
499.17	377.63
499.53	379.80
499.89	382.09
500.26	384.37
500.62	386.55
500.98	388.85
501.34	391.04
501.71	393.44
502.07	395.60
502.43	397.81
502.79	400.00
503.16	401.95
503.52	404.04
503.88	406.08
504.24	408.17
504.60	410.06
504.97	412.06
505.33	413.99
505.69	416.18
506.05	418.01
506.41	419.86
506.78	421.52
507.14	423.25
507.50	424.91
507.86	426.48
508.22	428.21
508.59	429.47
508.95	430.92
509.31	432.22
509.67	433.56
510.03	434.73
510.39	435.91
510.75	437.24
511.12	438.35
511.48	439.42
511.84	440.40
512.20	441.44
512.56	442.29
512.92	443.15
513.28	443.81
513.64	444.53
514.00	445.06
514.37	445.74
514.73	446.37
515.09	446.78
515.45	447.26
515.81	447.50
516.17	447.95
516.53	448.18
516.89	448.35
517.25	448.49
517.61	448.74
517.97	448.80
518.33	448.85
518.69	448.90
519.05	448.86
519.41	448.85
519.77	449.05
520.13	448.94
520.49	448.76
520.85	448.67
521.21	448.68
521.57	448.69
521.93	448.50
522.29	448.52
522.65	448.32
523.01	448.09
523.37	447.94
523.73	448.05
524.09	448.05
524.45	448.04
524.81	448.19
525.17	448.25
525.53	448.37
525.89	448.49
526.25	448.72
526.61	448.85
526.97	448.94
527.33	449.12
527.68	449.74
528.04	450.28
528.40	450.60
528.76	450.85
529.12	451.26
529.48	451.89
529.84	452.25
530.20	453.06
530.56	453.90
530.91	454.85
531.27	455.57
531.63	456.60
531.99	457.54
532.35	458.45
532.71	459.39
533.07	460.51
533.42	462.06
533.78	463.15
534.14	464.55
534.50	466.01
534.86	467.42
535.21	468.54
535.57	469.94
535.93	471.44
536.29	473.18
536.65	474.82
537.00	476.30
537.36	477.92
537.72	479.46
538.08	481.26
538.44	482.90
538.79	484.57
539.15	486.25
539.51	488.19
539.87	490.24
540.22	492.22
540.58	494.31
540.94	496.08
541.29	498.19
541.65	500.11
542.01	502.12
542.37	504.27
542.72	506.45
543.08	508.56
543.44	511.06
543.79	513.04
544.15	515.52
544.51	518.25
544.87	520.95
545.22	523.64
545.58	526.05
545.94	528.62
546.29	531.18
546.65	533.72
547.01	536.38
547.36	539.03
547.72	541.68
548.07	544.32
548.43	546.75
548.79	549.30
549.14	552.05
549.50	554.97
549.86	557.42
550.21	560.27
550.57	563.22
550.92	565.72
551.28	568.69
551.64	571.17
551.99	573.69
552.35	576.29
552.70	578.68
553.06	581.45
553.41	584.09
553.77	586.82
554.13	589.59
554.48	592.38
554.84	595.03
555.19	597.78
555.55	600.48
555.90	603.08
556.26	605.70
556.61	608.19
556.97	610.42
557.32	613.05
557.68	615.38
558.03	617.80
558.39	620.22
558.74	622.60
559.10	625.13
559.45	627.52
559.81	629.95
560.16	632.26
560.52	634.52
560.87	637.12
561.23	639.32
561.58	641.76
561.94	643.84
562.29	645.88
562.64	648.07
563.00	650.08
563.35	652.43
563.71	654.70
564.06	657.10
564.42	659.43
564.77	661.70
565.12	663.98
565.48	666.25
565.83	668.55
566.19	670.66
566.54	672.61
566.89	674.52
567.25	676.71
567.60	679.10
567.96	681.40
568.31	683.37
568.66	685.30
569.02	686.75
569.37	688.27
569.72	690.02
570.08	691.42
570.43	692.82
570.78	693.89
571.14	695.03
571.49	695.88
571.84	697.06
572.20	697.98
572.55	699.00
572.90	699.63
573.26	700.32
573.61	701.00
573.96	701.71
574.31	702.41
574.67	702.55
575.02	702.44
575.37	702.39
575.72	702.15
576.08	702.41
576.43	702.64
576.78	702.75
577.13	702.86
577.49	703.08
577.84	703.23
578.19	703.56
578.54	703.94
578.90	704.45
579.25	704.42
579.60	704.30
579.95	703.99
580.30	703.79
580.66	703.86
581.01	703.58
581.36	703.34
581.71	703.03
582.06	702.92
582.42	702.89
582.77	702.41
583.12	702.35
583.47	702.16
583.82	701.96
584.17	701.76
584.53	701.58
584.88	701.24
585.23	700.98
585.58	700.60
585.93	699.95
586.28	699.29
586.63	698.75
586.98	698.41
587.34	698.10
587.69	697.72
588.04	697.21
588.39	696.84
588.74	696.16
589.09	695.68
589.44	694.90
589.79	694.42
590.14	693.92
590.49	693.30
590.84	692.30
591.19	691.77
591.54	690.98
591.89	689.85
592.25	689.06
592.60	687.94
592.95	686.85
593.30	685.73
593.65	684.62
594.00	683.52
594.35	683.30
594.70	682.22
595.05	681.16
595.40	679.82
595.75	678.49
596.10	677.55
596.45	676.49
596.80	675.66
597.15	674.49
597.50	673.21
597.85	672.12
598.19	671.08
598.54	669.78
598.89	668.67
599.24	667.71
599.59	666.43
599.94	665.43
600.29	664.41
600.64	663.42
600.99	662.15
601.34	661.03
601.69	658.84
602.04	657.31
602.39	655.96
602.74	654.80
603.08	653.99
603.43	652.98
603.78	651.55
604.13	650.27
604.48	649.22
604.83	648.41
605.18	647.28
605.53	645.90
605.87	644.52
606.22	643.47
606.57	642.09
606.92	640.69
607.27	639.27
607.62	637.78
607.96	636.62
608.31	635.58
608.66	634.19
609.01	632.78
609.36	631.56
609.70	630.10
610.05	628.36
610.40	626.67
610.75	624.82
611.10	623.56
611.44	621.68
611.79	619.90
612.14	618.06
612.49	616.04
612.83	614.49
613.18	612.65
613.53	610.75
613.88	608.91
614.22	607.16
614.57	605.30
614.92	603.43
615.27	601.37
615.61	599.37
615.96	597.60
616.31	595.93
616.65	594.27
617.00	592.50
617.35	590.75
617.70	588.73
618.04	586.65
618.39	584.38
618.74	582.55
619.08	580.64
619.43	578.60
619.78	576.78
620.12	574.86
620.47	573.23
620.82	571.07
621.16	568.97
621.51	567.10
621.85	565.31
622.20	563.36
622.55	561.31
622.89	559.28
623.24	557.21
623.59	555.12
623.93	553.08
624.28	551.26
624.62	549.71
624.97	548.00
625.32	546.21
625.66	544.48
626.01	542.62
626.35	540.62
626.70	538.75
627.04	536.95
627.39	535.12
627.73	533.16
628.08	531.41
628.43	529.52
628.77	527.55
629.12	525.55
629.46	523.90
629.81	522.22
630.15	520.33
630.50	518.58
630.84	516.74
631.19	514.83
631.53	512.94
631.88	510.68
632.22	508.49
632.57	506.85
632.91	504.96
633.26	503.30
633.60	501.48
633.95	499.78
634.29	497.99
634.64	496.05
634.98	494.11
635.32	492.55
635.67	491.14
636.01	489.41
636.36	487.71
636.70	486.07
637.05	484.44
637.39	482.75
637.73	481.18
638.08	479.76
638.42	478.24
638.77	476.75
639.11	475.31
639.45	473.73
639.80	471.89
640.14	470.06
640.49	468.32
640.83	466.73
641.17	464.98
641.52	463.16
641.86	461.56
642.20	460.03
642.55	457.95
642.89	456.05
643.23	454.39
643.58	452.86
643.92	451.02
644.26	449.22
644.61	447.70
644.95	445.82
645.29	444.06
645.64	442.40
645.98	440.51
646.32	438.69
646.66	437.03
647.01	435.36
647.35	433.83
647.69	432.01
648.04	430.42
648.38	428.85
648.72	427.30
649.06	425.59
649.41	423.85
649.75	422.29
650.09	420.71
650.43	419.00
650.78	417.16
651.12	415.44
651.46	413.78
651.80	412.15
652.14	410.56
652.49	408.88
652.83	407.16
653.17	405.60
653.51	404.00
653.85	402.46
654.20	401.04
654.54	399.47
654.88	397.85
655.22	396.20
655.56	394.53
655.90	392.85
656.25	391.29
656.59	389.73
656.93	388.30
657.27	386.85
657.61	385.17
657.95	383.83
658.29	382.35
658.64	380.95
658.98	379.41
659.32	377.89
659.66	376.28
660.00	374.76
660.34	373.24
660.68	371.75
661.02	370.16
661.36	368.54
661.70	367.04
662.05	365.69
662.39	364.37
662.73	363.11
663.07	361.94
663.41	360.59
663.75	359.12
664.09	357.81
664.43	356.32
664.77	355.08
665.11	353.59
665.45	352.29
665.79	350.99
666.13	349.71
666.47	348.49
666.81	347.32
667.15	346.01
667.49	344.78
667.83	343.73
668.17	342.63
668.51	341.53
668.85	340.46
669.19	339.41
669.53	338.12
669.87	336.81
670.21	335.64
670.55	334.56
670.89	333.81
671.23	332.80
671.57	331.83
671.91	330.85
672.25	329.89
672.58	329.02
672.92	327.95
673.26	326.94
673.60	325.91
673.94	324.86
674.28	323.86
674.62	322.91
674.96	321.91
675.30	320.88
675.64	319.95
675.97	318.96
676.31	317.91
676.65	316.99
676.99	316.31
677.33	315.27
677.67	314.33
678.01	313.12
678.34	312.15
678.68	311.23
679.02	310.24
679.36	309.33
679.70	308.35
680.04	307.37
680.37	306.49
680.71	305.57
681.05	304.82
681.39	304.01
681.73	303.08
682.06	302.19
682.40	301.44
682.74	300.55
683.08	299.89
683.42	299.10
683.75	298.36
684.09	297.35
684.43	296.59
684.77	295.68
685.10	294.92
685.44	294.00
685.78	293.20
686.12	292.48
686.45	291.66
686.79	290.68
687.13	290.04
687.46	289.19
687.80	288.52
688.14	287.68
688.48	287.06
688.81	286.38
689.15	285.72
689.49	284.98
689.82	284.32
690.16	283.36
690.50	282.56
690.83	281.77
691.17	281.04
691.51	280.30
691.84	279.60
692.18	278.88
692.52	278.23
692.85	277.60
693.19	277.09
693.52	276.46
693.86	275.96
694.20	275.28
694.53	274.66
694.87	274.05
695.21	273.35
695.54	272.61
695.88	271.92
696.21	271.23
696.55	270.65
696.88	269.96
697.22	269.32
697.56	268.88
697.89	268.31
698.23	267.70
698.56	267.07
698.90	266.69
699.23	266.02
699.57	265.52
699.90	264.90
700.24	264.14
700.58	263.55
700.91	262.98
701.25	262.64
701.58	262.22
701.92	261.73
702.25	261.24
702.59	260.71
702.92	260.26
703.26	259.73
703.59	259.17
703.93	258.95
704.26	258.47
704.60	257.97
704.93	257.36
705.26	256.90
705.60	256.41
705.93	255.75
706.27	255.50
706.60	255.10
706.94	254.73
707.27	254.26
707.61	253.88
707.94	253.36
708.27	252.73
708.61	252.19
708.94	251.72
709.28	251.35
709.61	250.89
709.94	250.42
710.28	250.01
710.61	249.64
710.95	248.99
711.28	248.92
711.61	248.47
711.95	248.22
712.28	247.85
712.61	247.54
712.95	247.44
713.28	247.13
713.61	246.68
713.95	246.27
714.28	245.99
714.61	245.53
714.95	245.23
715.28	244.80
715.61	244.40
715.95	244.03
716.28	243.54
716.61	243.21
716.95	242.88
717.28	242.56
717.61	242.19
717.94	241.85
718.28	241.28
718.61	240.90
718.94	240.58
719.27	240.21
719.61	239.92
719.94	239.45
720.27	238.97
720.60	238.65
720.94	238.33
721.27	238.05
721.60	237.86
721.93	237.53
722.27	237.45
722.60	237.29
722.93	236.97
723.26	236.87
723.59	236.55
723.93	236.31
724.26	236.03
724.59	235.79
724.92	235.56
725.25	235.40
725.59	235.25
725.92	235.03
726.25	234.85
726.58	234.64
726.91	234.43
727.24	234.29
727.57	234.08
727.91	233.82
728.24	233.60
728.57	233.36
728.90	233.26
729.23	232.89
729.56	232.86
729.89	232.71
730.22	232.43
730.55	232.25
730.89	232.05
731.22	231.81
731.55	231.60
731.88	231.40
732.21	231.18
732.54	230.94
732.87	230.73
733.20	230.54
733.53	230.35
733.86	230.17
734.19	229.90
734.52	229.75
734.85	229.83
735.18	229.60
735.51	229.52
735.84	229.32
736.17	229.24
736.50	228.83
736.83	229.08
737.16	229.00
737.49	228.92
737.82	228.67
738.15	228.54
738.48	228.38
738.81	228.25
739.14	228.03
739.47	227.83
739.80	227.68
740.13	227.54
740.46	227.30
740.79	227.04
741.12	226.94
741.45	226.73
741.78	226.35
742.11	226.32
742.44	226.08
742.77	225.96
743.10	225.79
743.43	225.67
743.75	225.04
744.08	225.27
744.41	225.05
744.74	224.96
745.07	224.75
745.40	224.66
745.73	224.62
746.06	224.48
746.39	224.41
746.71	224.23
747.04	224.08
747.37	223.90
747.70	223.89
748.03	223.80
748.36	223.77
748.68	223.62
749.01	223.40
749.34	223.34
749.67	223.20
750.00	223.06
750.33	223.15
750.65	223.11
750.98	222.56
751.31	222.49
751.64	222.40
751.97	222.59
752.29	222.42
752.62	222.11
752.95	222.07
753.28	221.87
753.60	221.77
753.93	221.72
754.26	221.67
754.59	221.50
754.91	221.30
755.24	221.11
755.57	221.04
755.90	220.92
756.22	220.70
756.55	220.61
756.88	220.48
757.20	220.23
757.53	220.03
757.86	220.00
758.19	219.90
758.51	219.73
758.84	219.43
759.17	219.40
759.49	219.42
759.82	219.40
760.15	219.35
760.47	219.28
760.80	219.15
761.13	219.17
761.45	219.06
761.78	218.97
762.11	218.87
762.43	218.75
762.76	218.67
763.08	218.68
763.41	218.56
763.74	218.59
764.06	218.45
764.39	218.32
764.71	218.23
765.04	218.18
765.37	218.18
765.69	218.02
766.02	217.94
766.34	217.80
766.67	217.62
767.00	217.67
767.32	217.75
767.65	217.82
767.97	217.70
768.30	217.66
768.62	217.70
768.95	217.62
769.27	217.60
769.60	217.65
769.92	217.56
770.25	217.46
770.57	217.29
770.90	217.25
771.22	217.19
771.55	217.09
771.87	216.99
772.20	216.88
772.52	217.15
772.85	217.50
773.17	217.48
773.50	217.47
773.82	217.35
774.15	217.16
774.47	216.95
774.80	216.87
775.12	216.84
775.45	216.71
775.77	216.72
776.09	216.70
776.42	216.60
776.74	216.62
777.07	216.58
777.39	216.51
777.72	216.43
778.04	216.56
778.36	216.42
778.69	216.44
779.01	216.44
779.33	216.09
779.66	215.65
779.98	215.57
780.31	215.51
780.63	215.63
780.95	215.60
781.28	215.54
781.60	215.47
781.92	215.39
782.25	215.32
782.57	215.26
782.89	215.21
783.22	215.21
783.54	215.09
783.86	215.07
784.19	215.07
784.51	215.19
784.83	215.06
785.16	215.09
785.48	215.05
785.80	214.95
786.12	214.96
786.45	214.97
786.77	214.90
787.09	214.81
787.42	214.62
787.74	214.64
788.06	214.61
788.38	214.58
788.71	214.49
789.03	214.50
789.35	214.55
789.67	214.40
789.99	214.29
790.32	214.20
790.64	214.20
790.96	214.41
791.28	214.22
791.61	214.11
791.93	214.16
792.25	214.05
792.57	214.29
792.89	214.20
793.21	214.21
793.54	214.20
793.86	214.10
794.18	214.07
794.50	214.05
794.82	213.98
795.14	213.99
795.47	214.04
795.79	214.03
796.11	213.91
796.43	213.90
796.75	213.95
797.07	214.00
797.39	213.97
797.71	213.70
798.04	213.61
798.36	213.69
798.68	213.60
799.00	213.60
799.32	213.45
799.64	213.55
799.96	213.45
800.28	213.52
800.60	213.54
800.92	213.55
801.24	213.45
801.56	213.49
801.89	213.50
802.21	213.42
802.53	213.39
802.85	213.41
803.17	213.56
803.49	213.40
803.81	213.32
804.13	213.27
804.45	213.24
804.77	213.29
805.09	213.24
805.41	213.15
805.73	213.07
806.05	212.93
806.37	212.82
806.69	212.82
807.01	212.78
807.33	212.75
807.65	212.56
807.97	212.70
808.28	212.64
808.60	212.55
808.92	212.58
809.24	212.78
809.56	212.70
809.88	212.58
810.20	212.65
810.52	212.71
810.84	212.61
811.16	212.54
811.48	212.50
811.80	212.59
812.12	212.55
812.43	212.58
812.75	212.58
813.07	212.56
813.39	212.50
813.71	212.40
814.03	212.35
814.35	212.45
814.67	212.30
814.98	212.23
815.30	212.28
815.62	212.25
815.94	211.86
816.26	211.87
816.58	211.78
816.89	211.80
817.21	211.72
817.53	211.77
817.85	211.72
818.17	211.76
818.48	211.60
818.80	211.72
819.12	211.65
819.44	211.59
819.76	211.54
820.07	211.50
820.39	211.48
820.71	211.50
821.03	211.51
821.34	211.51
821.66	211.56
821.98	211.53
822.30	211.45
822.61	211.79
822.93	211.73
823.25	211.83
823.57	211.78
823.88	211.85
824.20	211.82
824.52	211.95
824.83	211.90
825.15	211.89
825.47	211.83
825.79	211.89
826.10	211.85
826.42	211.84
826.74	211.90
827.05	211.97
827.37	212.00
827.69	211.97
828.00	211.96
828.32	211.97
828.64	211.97
828.95	212.20
829.27	212.09
829.58	212.00
829.90	211.95
830.22	212.02
830.53	211.96
830.85	211.96
831.17	211.85
831.48	211.81
831.80	211.79
832.11	211.80
832.43	211.82
832.75	211.87
833.06	212.03
833.38	211.90
833.69	211.78
834.01	211.81
834.32	211.73
834.64	211.68
834.96	211.70
835.27	211.61
835.59	211.44
835.90	211.34
836.22	211.44
836.53	211.40
836.85	211.28
837.16	211.56
837.48	211.54
837.79	211.70
838.11	211.77
838.42	211.78
838.74	211.80
839.05	211.74
839.37	211.75
839.68	211.61
840.00	211.62
840.31	211.72
840.63	211.71
840.94	211.73
841.26	211.72
841.57	211.62
841.88	211.73
842.20	211.74
842.51	211.73
842.83	211.71
843.14	211.97
843.46	212.04
843.77	211.87
844.08	211.86
844.40	211.71
844.71	211.64
845.03	211.62
845.34	211.55
845.65	211.52
845.97	211.47
846.28	211.54
846.60	211.55
846.91	211.49
847.22	211.43
847.54	211.53
847.85	211.58
848.16	211.60
848.48	211.47
848.79	211.58
849.10	211.66
849.42	211.67
849.73	211.40
850.04	211.36
850.36	211.24
850.67	211.29
850.98	211.31
851.30	211.38
851.61	211.38
851.92	211.39
852.23	211.45
852.55	211.44
852.86	211.45
853.17	211.49
853.49	211.60
853.80	211.63
854.11	211.61
854.42	211.55
854.74	211.47
855.05	211.49
855.36	211.31
855.67	211.30
855.99	211.29
856.30	211.67
856.61	211.66
856.92	211.63
857.23	211.64
857.55	211.60
857.86	211.55
858.17	211.62
858.48	211.60
858.79	211.61
859.11	211.66
859.42	211.52
859.73	211.46
860.04	211.41
860.35	211.39
860.66	211.27
860.98	211.29
861.29	211.42
861.60	211.39
861.91	211.47
862.22	211.39
862.53	211.37
862.84	211.01
863.16	211.07
863.47	210.98
863.78	210.95
864.09	210.92
864.40	210.96
864.71	210.98
865.02	211.04
865.33	211.00
865.64	210.99
865.95	211.06
866.27	211.28
866.58	211.25
866.89	211.20
867.20	211.21
867.51	211.18
867.82	211.12
868.13	211.21
868.44	211.17
868.75	211.24
869.06	211.27
869.37	211.20
869.68	211.12
869.99	211.33
870.30	211.40
870.61	211.49
870.92	211.40
871.23	211.32
871.54	211.33
871.85	211.40
872.16	211.42
872.47	211.35
872.78	211.13
873.09	211.14
873.40	211.10
873.71	211.08
874.02	211.08
874.33	211.06
874.64	211.00
874.95	211.09
875.26	211.01
875.56	210.96
875.87	211.00
876.18	211.00
876.49	211.29
876.80	211.20
877.11	211.14
877.42	211.18
877.73	211.19
878.04	211.10
878.35	211.09
878.66	211.07
878.96	211.10
879.27	211.16
879.58	211.09
879.89	211.11
880.20	211.26
880.51	211.27
880.82	211.29
881.12	211.31
881.43	211.23
881.74	211.24
882.05	211.27
882.36	211.37
882.67	211.27
882.97	210.91
883.28	210.88
883.59	210.84
883.90	210.82
884.21	210.85
884.51	210.89
884.82	210.80
885.13	210.81
885.44	210.77
885.74	210.73
886.05	210.80
886.36	210.80
886.67	210.67
886.98	210.87
887.28	210.88
887.59	210.90
887.90	210.85
888.20	210.79
888.51	210.75
888.82	210.66
889.13	210.85
889.43	211.09
889.74	211.06
890.05	211.00
890.35	211.01
890.66	210.95
890.97	210.89
891.28	210.94
891.58	210.97
891.89	211.05
892.20	210.95
892.50	210.86
892.81	210.86
893.12	210.92
893.42	210.66
893.73	210.62
894.04	210.57
894.34	210.57
894.65	210.60
894.95	210.66
895.26	210.63
895.57	210.66
895.87	210.33
896.18	210.46
896.48	210.55
896.79	210.56
897.10	210.61
897.40	210.61
897.71	210.56
898.01	210.51
898.32	210.52
898.63	210.55
898.93	210.65
899.24	210.65
899.54	210.62
899.85	210.68
900.15	210.72
900.46	210.79
900.76	210.84
901.07	210.82
901.38	210.78
901.68	210.85
901.99	210.73
902.29	210.80
902.60	210.71
902.90	210.70
903.21	210.62
903.51	210.61
903.82	210.72
904.12	210.76
904.43	210.79
904.73	210.75
905.03	210.82
905.34	211.12
905.64	211.12
905.95	211.09
906.25	211.10
906.56	211.15
906.86	211.07
907.17	211.07
907.47	211.13
907.77	211.07
908.08	211.02
908.38	210.98
908.69	211.00
908.99	211.06
909.30	211.10
909.60	211.18
909.90	211.21
910.21	211.13
910.51	211.10
910.81	211.10
911.12	211.13
911.42	211.12
911.73	210.79
912.03	210.87
912.33	210.96
912.64	210.95
912.94	210.86
913.24	210.84
913.55	210.79
913.85	210.83
914.15	210.93
914.46	210.94
914.76	210.99
915.06	210.96
915.37	210.87
915.67	210.81
915.97	210.79
916.27	210.77
916.58	210.77
916.88	210.77
917.18	210.76
917.49	210.96
917.79	210.94
918.09	210.94
918.39	211.03
918.70	210.97
919.00	210.98
919.30	211.19
919.60	211.19
919.91	211.23
920.21	211.21
920.51	211.15
920.81	211.13
921.12	211.15
921.42	211.16
921.72	211.28
922.02	211.33
922.32	211.46
922.63	211.51
922.93	211.68
923.23	211.77
923.53	211.77
923.83	211.62
924.13	211.66
924.44	211.71
924.74	211.77
925.04	211.89
925.34	211.90
925.64	211.75
925.94	211.83
926.24	212.06
926.55	212.02
926.85	212.09
927.15	212.12
927.45	212.09
927.75	212.07
928.05	212.11
928.35	212.08
928.65	212.04
928.95	212.06
929.26	211.97
929.56	212.02
929.86	212.03
930.16	211.97
930.46	211.93
930.76	211.85
931.06	211.63
931.36	211.50
931.66	211.60
931.96	211.65
932.26	211.64
932.56	211.45
932.86	211.50
933.16	211.45
933.46	211.44
933.76	211.45
934.06	211.51
934.36	211.60
934.66	211.55
934.96	211.56
935.26	211.51
935.56	211.60
935.86	211.50
936.16	211.46
936.46	211.41
936.76	211.44
937.06	211.44
937.36	211.44
937.66	211.50
937.96	211.35
938.26	211.24
938.56	211.17
938.86	211.21
939.16	211.30
939.46	211.39
939.76	211.35
940.06	211.33
940.35	211.22
940.65	210.99
940.95	211.09
941.25	210.94
941.55	210.88
941.85	210.84
942.15	210.87
942.45	210.96
942.75	211.04
943.04	211.01
943.34	211.07
943.64	211.07
943.94	211.00
944.24	211.00
944.54	211.03
944.84	211.01
945.13	210.93
945.43	210.78
945.73	210.66
946.03	210.71
946.33	210.66
946.62	210.61
946.92	210.62
947.22	210.59
947.52	210.68
947.82	210.79
948.11	210.69
948.41	210.57
948.71	210.46
949.01	210.44
949.31	210.44
949.60	210.44
949.90	210.48
950.20	210.50
950.50	210.56
950.79	210.58
951.09	210.70
951.39	210.71
951.69	210.69
951.98	210.76
952.28	210.75
952.58	210.72
952.87	210.79
953.17	210.80
953.47	210.76
953.76	210.74
954.06	210.63
954.36	210.58
954.66	210.63
954.95	210.71
955.25	210.75
955.55	210.77
955.84	210.67
956.14	210.74
956.44	210.68
956.73	210.62
957.03	210.56
957.32	210.53
957.62	210.55
957.92	210.61
958.21	210.61
958.51	211.05
958.81	211.16
959.10	211.11
959.40	211.23
959.69	211.26
959.99	211.37
960.29	211.37
960.58	211.38
960.88	211.43
961.17	211.40
961.47	211.42
961.76	211.37
962.06	211.52
962.36	211.47
962.65	211.51
962.95	211.55
963.24	211.60
963.54	211.56
963.83	211.51
964.13	211.50
964.42	211.40
964.72	211.09
965.01	211.04
965.31	211.09
965.60	211.01
965.90	211.24
966.19	211.12
966.49	211.18
966.78	211.19
967.08	211.22
967.37	211.23
967.67	211.13
967.96	211.22
968.26	211.19
968.55	211.23
968.85	211.22
969.14	211.20
969.43	211.18
969.73	211.20
970.02	211.15
970.32	211.13
970.61	211.16
970.91	211.04
971.20	210.96
971.49	210.91
971.79	210.99
972.08	210.77
972.38	210.80
972.67	210.76
972.96	210.78
973.26	210.69
973.55	210.80
973.85	210.75
974.14	210.73
974.43	210.76
974.73	210.67
975.02	210.60
975.31	210.65
975.61	210.65
975.90	210.52
976.19	210.52
976.49	210.60
976.78	210.59
977.07	210.60
977.37	210.70
977.66	210.76
977.95	210.65
978.24	210.66
978.54	210.79
978.83	210.78
979.12	210.81
979.42	210.82
979.71	210.71
980.00	210.74
980.29	210.76
980.59	210.69
980.88	210.80
981.17	210.85
981.46	210.81
981.76	210.75
982.05	210.92
982.34	211.00
982.63	210.94
982.93	210.93
983.22	211.01
983.51	210.99
983.80	211.01
984.09	211.11
984.39	211.05
984.68	210.93
984.97	210.90
985.26	210.87
985.55	210.95
985.85	210.92
986.14	210.98
986.43	210.91
986.72	210.91
987.01	210.80
987.30	210.79
987.59	210.78
987.89	210.88
988.18	210.79
988.47	210.77
988.76	210.73
989.05	210.75
989.34	210.64
989.63	210.72
989.92	210.65
990.22	210.55
990.51	210.51
990.80	210.52
991.09	210.50
991.38	210.47
991.67	210.42
991.96	210.35
992.25	210.35
992.54	210.37
992.83	210.37
993.12	210.36
993.41	210.42
993.70	210.53
993.99	210.50
994.28	210.55
994.58	210.58
994.87	210.51
995.16	210.43
995.45	210.45
995.74	210.32
996.03	210.42
996.32	210.49
996.61	210.60
996.90	210.64
997.19	210.60
997.48	210.68
997.77	210.60
998.06	210.66
998.34	210.57
998.63	210.54
998.92	210.52
999.21	210.56
999.50	210.55
999.79	210.46
1000.08	210.57
1000.37	210.52
1000.66	210.54
1000.95	210.70
1001.24	210.70
1001.53	210.78
1001.82	210.84
1002.11	210.75
1002.40	210.77
1002.68	210.78
1002.97	211.00
1003.26	211.06
1003.55	210.93
1003.84	210.99
1004.13	211.12
1004.42	211.13
1004.71	211.17
1004.99	211.14
1005.28	211.27
1005.57	211.22
1005.86	211.15
1006.15	211.05
1006.44	210.97
1006.72	211.00
1007.01	210.90
1007.30	210.96
1007.59	210.86
1007.88	210.83
1008.17	210.83
1008.45	210.72
1008.74	210.58
1009.03	210.41
1009.32	210.42
1009.60	210.48
1009.89	210.44
1010.18	210.18
1010.47	210.16
1010.76	210.10
1011.04	210.11
1011.33	210.01
1011.62	210.03
1011.91	210.07
1012.19	210.13
1012.48	210.11
1012.77	210.08
1013.05	210.21
1013.34	210.21
1013.63	210.25
1013.92	210.30
1014.20	210.24
1014.49	210.31
1014.78	210.39
1015.06	210.24
1015.35	210.25
1015.64	210.34
1015.92	210.47
1016.21	210.55
1016.50	210.60
1016.78	210.62
1017.07	210.67
1017.36	210.58
1017.64	210.50
1017.93	210.52
1018.22	210.34
1018.50	210.43
1018.79	210.45
1019.08	210.32
1019.36	210.34
1019.65	210.29
1019.93	210.37
1020.22	210.47
1020.51	210.60
1020.79	210.57
1021.08	208.15
1021.36	210.05
1021.65	211.25
1021.94	210.40
1022.22	210.55
1022.51	209.90
1022.79	212.65
1023.08	210.70
1023.36	214.25
1023.65	210.10
>>>>>End Processed Spectral Data<<<<<
