SpectraSuite Data File
++++++++++++++++++++++++++++++++++++
Date: Mon Feb 25 17:04:16 EST 2013
User: group
Dark Spectrum Present: No
Reference Spectrum Present: No
Number of Sampled Component Spectra: 1
Spectrometers: USB2E7196
Integration Time (usec): 104000 (USB2E7196)
Spectra Averaged: 20 (USB2E7196)
Boxcar Smoothing: 10 (USB2E7196)
Correct for Electrical Dark: No (USB2E7196)
Strobe/Lamp Enabled: No (USB2E7196)
Correct for Detector Non-linearity: No (USB2E7196)
Correct for Stray Light: No (USB2E7196)
Number of Pixels in Processed Spectrum: 2048
>>>>>Begin Processed Spectral Data<<<<<
339.09	0.00
339.48	198.35
339.86	199.70
340.24	201.60
340.63	202.00
341.01	210.05
341.39	205.45
341.78	207.80
342.16	209.55
342.54	209.65
342.93	198.69
343.31	208.78
343.69	209.35
344.07	209.84
344.46	210.28
344.84	210.75
345.22	210.80
345.60	211.05
345.99	211.24
346.37	211.39
346.75	211.38
347.13	211.43
347.52	211.48
347.90	211.57
348.28	211.56
348.66	211.54
349.05	211.45
349.43	211.47
349.81	211.40
350.19	211.50
350.57	211.42
350.96	211.40
351.34	211.34
351.72	211.36
352.10	211.48
352.48	211.50
352.87	211.51
353.25	211.53
353.63	211.56
354.01	211.58
354.39	211.58
354.77	211.70
355.15	211.87
355.54	211.92
355.92	211.80
356.30	211.84
356.68	212.12
357.06	212.16
357.44	212.20
357.82	212.32
358.20	212.29
358.58	212.37
358.97	212.54
359.35	212.66
359.73	212.77
360.11	212.79
360.49	212.80
360.87	212.75
361.25	212.84
361.63	213.01
362.01	213.05
362.39	213.00
362.77	213.01
363.15	212.96
363.53	213.02
363.91	213.05
364.29	213.01
364.67	212.66
365.05	212.66
365.43	212.67
365.81	212.70
366.19	212.85
366.57	212.95
366.95	212.87
367.33	212.75
367.71	212.74
368.09	212.73
368.47	212.75
368.85	212.75
369.23	212.76
369.61	212.53
369.99	212.58
370.37	212.56
370.75	212.73
371.13	212.65
371.51	212.53
371.89	212.53
372.27	212.62
372.65	212.59
373.03	212.53
373.41	212.45
373.78	212.31
374.16	212.07
374.54	211.94
374.92	211.80
375.30	211.83
375.68	211.68
376.06	211.62
376.44	211.55
376.82	211.50
377.19	211.40
377.57	211.37
377.95	211.20
378.33	211.14
378.71	210.85
379.09	210.89
379.47	210.84
379.84	210.77
380.22	210.70
380.60	210.58
380.98	210.55
381.36	210.49
381.73	210.52
382.11	210.50
382.49	210.47
382.87	210.42
383.25	210.33
383.62	210.73
384.00	210.65
384.38	210.63
384.76	210.69
385.13	210.82
385.51	210.84
385.89	210.75
386.27	210.78
386.64	210.81
387.02	210.70
387.40	210.71
387.78	210.71
388.15	210.65
388.53	210.68
388.91	210.66
389.29	210.55
389.66	210.55
390.04	210.55
390.42	210.59
390.79	210.60
391.17	210.61
391.55	210.25
391.92	210.22
392.30	210.28
392.68	210.19
393.05	210.12
393.43	210.00
393.81	210.09
394.18	209.97
394.56	210.03
394.94	210.12
395.31	210.04
395.69	210.11
396.06	210.14
396.44	210.19
396.82	210.15
397.19	210.44
397.57	210.35
397.95	210.42
398.32	210.29
398.70	210.31
399.07	210.38
399.45	210.36
399.82	210.36
400.20	210.26
400.58	210.26
400.95	210.17
401.33	210.34
401.70	210.64
402.08	210.79
402.45	210.76
402.83	210.88
403.20	210.97
403.58	211.02
403.95	211.19
404.33	211.20
404.71	211.35
405.08	211.60
405.46	211.71
405.83	211.83
406.21	211.98
406.58	212.10
406.96	212.25
407.33	212.33
407.70	212.54
408.08	213.07
408.45	213.33
408.83	213.58
409.20	213.78
409.58	213.80
409.95	214.05
410.33	214.42
410.70	214.63
411.08	215.01
411.45	215.32
411.82	215.61
412.20	216.13
412.57	216.70
412.95	216.84
413.32	217.41
413.69	217.88
414.07	218.44
414.44	219.00
414.82	219.63
415.19	220.46
415.56	221.27
415.94	221.87
416.31	222.82
416.68	223.70
417.06	224.82
417.43	225.89
417.81	226.98
418.18	228.08
418.55	229.28
418.93	230.56
419.30	231.99
419.67	233.48
420.04	235.01
420.42	236.57
420.79	238.61
421.16	240.34
421.54	242.39
421.91	244.34
422.28	246.42
422.66	248.53
423.03	250.82
423.40	252.94
423.77	255.32
424.15	257.57
424.52	260.04
424.89	262.74
425.26	265.29
425.64	267.78
426.01	270.51
426.38	273.43
426.75	276.44
427.13	279.41
427.50	282.51
427.87	285.72
428.24	288.95
428.61	291.96
428.99	295.64
429.36	299.31
429.73	303.07
430.10	306.84
430.47	310.67
430.85	314.55
431.22	318.74
431.59	323.31
431.96	327.67
432.33	332.51
432.70	337.18
433.08	342.64
433.45	347.83
433.82	353.00
434.19	358.72
434.56	364.36
434.93	369.79
435.30	375.13
435.68	381.25
436.05	387.22
436.42	393.26
436.79	398.69
437.16	404.58
437.53	410.75
437.90	416.94
438.27	423.16
438.64	429.49
439.01	435.54
439.38	440.79
439.75	445.91
440.13	451.68
440.50	457.19
440.87	461.68
441.24	466.48
441.61	471.82
441.98	475.78
442.35	480.34
442.72	485.06
443.09	489.76
443.46	492.66
443.83	494.73
444.20	496.53
444.57	498.95
444.94	500.32
445.31	501.95
445.68	503.53
446.05	504.36
446.42	504.24
446.79	504.04
447.16	503.58
447.53	503.57
447.90	501.78
448.27	499.75
448.64	496.97
449.01	495.09
449.37	491.31
449.74	487.65
450.11	483.48
450.48	478.49
450.85	473.46
451.22	469.17
451.59	465.14
451.96	461.34
452.33	456.12
452.70	451.41
453.07	445.49
453.43	439.36
453.80	433.79
454.17	428.25
454.54	423.05
454.91	417.57
455.28	412.12
455.65	407.13
456.02	402.66
456.38	398.36
456.75	392.94
457.12	388.55
457.49	384.26
457.86	379.75
458.23	376.30
458.59	372.35
458.96	368.28
459.33	364.74
459.70	361.06
460.07	358.27
460.43	354.91
460.80	351.84
461.17	349.22
461.54	346.27
461.91	343.71
462.27	340.90
462.64	338.43
463.01	335.85
463.38	333.37
463.74	330.35
464.11	328.24
464.48	326.36
464.85	324.18
465.21	322.59
465.58	320.91
465.95	318.70
466.32	316.95
466.68	315.16
467.05	313.40
467.42	311.62
467.78	309.78
468.15	308.13
468.52	306.89
468.88	305.23
469.25	303.72
469.62	302.52
469.98	301.24
470.35	300.05
470.72	298.85
471.08	297.53
471.45	296.51
471.82	295.46
472.18	294.25
472.55	293.42
472.92	292.31
473.28	291.35
473.65	290.48
474.02	289.52
474.38	288.82
474.75	288.16
475.11	287.41
475.48	286.82
475.85	286.31
476.21	285.75
476.58	285.28
476.94	284.86
477.31	284.35
477.67	283.94
478.04	283.64
478.41	283.36
478.77	283.37
479.14	283.07
479.50	282.82
479.87	282.69
480.23	282.56
480.60	282.39
480.96	282.35
481.33	282.44
481.69	282.47
482.06	282.53
482.42	282.48
482.79	282.56
483.15	282.64
483.52	282.88
483.88	283.05
484.25	283.19
484.61	283.40
484.98	283.60
485.34	283.93
485.71	284.28
486.07	284.68
486.44	284.75
486.80	285.17
487.17	285.56
487.53	286.20
487.90	286.81
488.26	287.47
488.62	288.09
488.99	288.64
489.35	289.26
489.72	289.88
490.08	290.68
490.44	291.42
490.81	292.29
491.17	292.94
491.54	293.77
491.90	294.69
492.26	295.64
492.63	296.58
492.99	297.50
493.36	298.56
493.72	299.70
494.08	300.89
494.45	302.12
494.81	303.34
495.17	304.50
495.54	305.70
495.90	306.90
496.26	308.12
496.63	309.42
496.99	310.83
497.35	312.12
497.72	313.36
498.08	314.70
498.44	315.99
498.80	317.48
499.17	318.86
499.53	320.24
499.89	321.73
500.26	323.14
500.62	324.57
500.98	325.98
501.34	327.24
501.71	328.57
502.07	329.83
502.43	331.10
502.79	332.18
503.16	333.42
503.52	334.64
503.88	335.81
504.24	336.99
504.60	338.07
504.97	339.33
505.33	340.49
505.69	341.77
506.05	342.91
506.41	343.93
506.78	344.94
507.14	345.76
507.50	346.63
507.86	347.57
508.22	348.50
508.59	349.23
508.95	350.05
509.31	351.05
509.67	351.84
510.03	352.56
510.39	353.38
510.75	354.03
511.12	354.67
511.48	355.34
511.84	355.97
512.20	356.62
512.56	357.21
512.92	357.77
513.28	358.29
513.64	358.70
514.00	359.23
514.37	359.72
514.73	360.31
515.09	360.83
515.45	361.05
515.81	361.38
516.17	361.76
516.53	362.01
516.89	362.13
517.25	362.49
517.61	362.93
517.97	363.20
518.33	363.49
518.69	363.89
519.05	364.11
519.41	364.42
519.77	365.00
520.13	365.17
520.49	365.37
520.85	365.56
521.21	366.06
521.57	366.29
521.93	366.56
522.29	366.85
522.65	367.06
523.01	367.55
523.37	367.89
523.73	368.50
524.09	369.08
524.45	369.57
524.81	370.14
525.17	370.69
525.53	371.42
525.89	372.03
526.25	372.77
526.61	373.45
526.97	374.11
527.33	374.80
527.68	376.16
528.04	377.20
528.40	378.19
528.76	379.26
529.12	380.42
529.48	381.82
529.84	383.08
530.20	384.47
530.56	385.96
530.91	387.48
531.27	388.87
531.63	390.33
531.99	391.87
532.35	393.43
532.71	394.99
533.07	396.62
533.42	398.80
533.78	400.49
534.14	402.51
534.50	404.39
534.86	406.25
535.21	407.70
535.57	409.79
535.93	411.79
536.29	413.83
536.65	416.01
537.00	417.85
537.36	419.96
537.72	422.15
538.08	424.27
538.44	426.41
538.79	428.70
539.15	430.93
539.51	433.33
539.87	435.61
540.22	438.05
540.58	440.60
540.94	442.78
541.29	445.23
541.65	447.49
542.01	450.03
542.37	452.64
542.72	455.21
543.08	457.57
543.44	460.26
543.79	462.64
544.15	465.20
544.51	468.17
544.87	470.98
545.22	473.57
545.58	476.23
545.94	478.99
546.29	481.53
546.65	484.28
547.01	486.79
547.36	489.67
547.72	492.43
548.07	495.02
548.43	497.60
548.79	500.22
549.14	502.97
549.50	505.74
549.86	508.15
550.21	510.83
550.57	513.79
550.92	516.28
551.28	518.96
551.64	521.59
551.99	524.12
552.35	526.65
552.70	529.14
553.06	531.74
553.41	534.29
553.77	537.07
554.13	539.60
554.48	542.33
554.84	544.83
555.19	547.26
555.55	549.77
555.90	552.07
556.26	554.40
556.61	556.74
556.97	558.86
557.32	561.18
557.68	563.39
558.03	565.53
558.39	567.79
558.74	570.07
559.10	572.25
559.45	574.32
559.81	576.53
560.16	578.61
560.52	580.71
560.87	582.70
561.23	584.47
561.58	586.71
561.94	588.67
562.29	590.36
562.64	592.34
563.00	594.18
563.35	596.20
563.71	598.33
564.06	600.21
564.42	602.27
564.77	604.38
565.12	606.35
565.48	608.40
565.83	610.34
566.19	612.22
566.54	613.85
566.89	615.44
567.25	617.21
567.60	619.26
567.96	621.00
568.31	622.76
568.66	624.48
569.02	625.53
569.37	626.67
569.72	628.12
570.08	629.29
570.43	630.50
570.78	631.58
571.14	632.43
571.49	633.30
571.84	634.24
572.20	634.76
572.55	635.52
572.90	635.86
573.26	636.40
573.61	636.76
573.96	637.35
574.31	637.70
574.67	637.84
575.02	637.65
575.37	637.59
575.72	637.53
576.08	637.69
576.43	637.83
576.78	638.14
577.13	638.30
577.49	638.47
577.84	638.62
578.19	638.85
578.54	639.37
578.90	639.81
579.25	639.86
579.60	639.95
579.95	639.91
580.30	639.97
580.66	640.16
581.01	640.27
581.36	640.09
581.71	640.05
582.06	640.26
582.42	640.44
582.77	640.61
583.12	640.57
583.47	640.51
583.82	640.59
584.17	640.46
584.53	640.44
584.88	640.24
585.23	640.03
585.58	639.69
585.93	639.09
586.28	638.69
586.63	638.47
586.98	638.31
587.34	638.04
587.69	637.58
588.04	637.28
588.39	636.99
588.74	636.56
589.09	636.34
589.44	635.59
589.79	635.16
590.14	634.52
590.49	633.99
590.84	633.33
591.19	632.89
591.54	632.32
591.89	631.33
592.25	630.98
592.60	630.08
592.95	629.19
593.30	628.27
593.65	627.44
594.00	626.40
594.35	626.39
594.70	625.55
595.05	624.85
595.40	623.75
595.75	622.50
596.10	621.67
596.45	620.85
596.80	620.22
597.15	619.34
597.50	618.41
597.85	617.63
598.19	616.88
598.54	615.93
598.89	615.09
599.24	614.66
599.59	613.70
599.94	613.15
600.29	612.52
600.64	611.70
600.99	610.85
601.34	610.15
601.69	608.39
602.04	607.61
602.39	606.73
602.74	605.95
603.08	605.54
603.43	605.17
603.78	604.21
604.13	603.16
604.48	602.36
604.83	601.91
605.18	601.23
605.53	600.32
605.87	599.49
606.22	598.72
606.57	597.67
606.92	596.76
607.27	595.75
607.62	594.89
607.96	594.16
608.31	593.31
608.66	592.27
609.01	591.27
609.36	590.13
609.70	589.02
610.05	587.73
610.40	586.43
610.75	584.89
611.10	583.87
611.44	582.65
611.79	581.28
612.14	579.76
612.49	578.10
612.83	576.65
613.18	575.17
613.53	573.46
613.88	571.89
614.22	570.24
614.57	568.71
614.92	567.20
615.27	565.68
615.61	564.05
615.96	562.71
616.31	561.32
616.65	559.96
617.00	558.51
617.35	557.06
617.70	555.40
618.04	553.70
618.39	551.90
618.74	550.43
619.08	548.87
619.43	547.19
619.78	545.78
620.12	544.17
620.47	542.72
620.82	541.10
621.16	539.36
621.51	537.84
621.85	536.30
622.20	534.50
622.55	532.68
622.89	531.10
623.24	529.35
623.59	527.44
623.93	525.78
624.28	524.22
624.62	523.11
624.97	521.64
625.32	520.15
625.66	518.70
626.01	517.00
626.35	515.36
626.70	513.78
627.04	512.29
627.39	510.69
627.73	509.05
628.08	507.60
628.43	506.00
628.77	504.31
629.12	502.60
629.46	501.27
629.81	499.76
630.15	498.08
630.50	496.45
630.84	494.88
631.19	493.25
631.53	491.53
631.88	489.37
632.22	487.53
632.57	486.06
632.91	484.40
633.26	482.88
633.60	481.39
633.95	479.92
634.29	478.20
634.64	476.81
634.98	475.15
635.32	473.73
635.67	472.34
636.01	470.79
636.36	469.21
636.70	467.63
637.05	466.10
637.39	464.66
637.73	463.25
638.08	462.23
638.42	460.89
638.77	459.54
639.11	458.10
639.45	456.66
639.80	454.95
640.14	453.42
640.49	451.83
640.83	450.22
641.17	448.61
641.52	447.09
641.86	445.36
642.20	444.03
642.55	442.27
642.89	440.55
643.23	438.96
643.58	437.67
643.92	435.94
644.26	434.42
644.61	432.92
644.95	431.32
645.29	429.52
645.64	427.85
645.98	426.25
646.32	424.83
646.66	423.16
647.01	421.61
647.35	420.12
647.69	418.60
648.04	417.14
648.38	415.62
648.72	414.20
649.06	412.72
649.41	410.95
649.75	409.42
650.09	408.19
650.43	406.74
650.78	405.00
651.12	403.43
651.46	401.90
651.80	400.42
652.14	398.91
652.49	397.41
652.83	395.86
653.17	394.26
653.51	392.64
653.85	391.39
654.20	389.99
654.54	388.44
654.88	386.93
655.22	385.48
655.56	383.91
655.90	382.34
656.25	380.81
656.59	379.41
656.93	377.97
657.27	376.51
657.61	375.07
657.95	373.74
658.29	372.47
658.64	371.22
658.98	369.63
659.32	368.09
659.66	366.62
660.00	365.27
660.34	363.81
660.68	362.43
661.02	360.98
661.36	359.69
661.70	358.40
662.05	357.15
662.39	355.93
662.73	354.85
663.07	353.72
663.41	352.43
663.75	351.14
664.09	349.88
664.43	348.48
664.77	347.14
665.11	345.84
665.45	344.55
665.79	343.32
666.13	342.20
666.47	341.11
666.81	339.92
667.15	338.64
667.49	337.67
667.83	336.64
668.17	335.49
668.51	334.29
668.85	333.15
669.19	332.19
669.53	330.99
669.87	329.78
670.21	328.49
670.55	327.52
670.89	326.73
671.23	325.86
671.57	324.93
671.91	323.96
672.25	323.00
672.58	322.10
672.92	321.01
673.26	320.15
673.60	319.20
673.94	318.27
674.28	317.36
674.62	316.46
674.96	315.49
675.30	314.55
675.64	313.73
675.97	312.85
676.31	311.90
676.65	311.02
676.99	310.33
677.33	309.51
677.67	308.69
678.01	307.55
678.34	306.65
678.68	305.83
679.02	305.01
679.36	304.13
679.70	303.25
680.04	302.49
680.37	301.54
680.71	300.68
681.05	299.98
681.39	299.22
681.73	298.39
682.06	297.61
682.40	296.92
682.74	296.18
683.08	295.53
683.42	294.63
683.75	293.92
684.09	292.95
684.43	292.19
684.77	291.34
685.10	290.61
685.44	289.79
685.78	288.99
686.12	288.38
686.45	287.71
686.79	286.93
687.13	286.25
687.46	285.51
687.80	284.84
688.14	284.05
688.48	283.44
688.81	282.71
689.15	282.15
689.49	281.46
689.82	280.68
690.16	279.88
690.50	279.12
690.83	278.36
691.17	277.66
691.51	276.96
691.84	276.35
692.18	275.76
692.52	275.18
692.85	274.58
693.19	273.95
693.52	273.30
693.86	272.63
694.20	272.06
694.53	271.55
694.87	271.00
695.21	270.35
695.54	269.67
695.88	268.97
696.21	268.24
696.55	267.60
696.88	266.99
697.22	266.38
697.56	265.89
697.89	265.29
698.23	264.82
698.56	264.28
698.90	263.72
699.23	263.02
699.57	262.40
699.90	261.80
700.24	261.21
700.58	260.67
700.91	260.25
701.25	259.86
701.58	259.38
701.92	258.90
702.25	258.39
702.59	257.87
702.92	257.46
703.26	256.94
703.59	256.48
703.93	256.22
704.26	255.72
704.60	255.24
704.93	254.75
705.26	254.25
705.60	253.82
705.93	253.27
706.27	253.00
706.60	252.64
706.94	252.44
707.27	251.87
707.61	251.39
707.94	250.96
708.27	250.30
708.61	249.80
708.94	249.42
709.28	249.08
709.61	248.60
709.94	248.25
710.28	247.92
710.61	247.52
710.95	246.94
711.28	246.85
711.61	246.56
711.95	246.30
712.28	245.88
712.61	245.56
712.95	245.43
713.28	245.18
713.61	244.72
713.95	244.20
714.28	243.89
714.61	243.53
714.95	243.20
715.28	242.87
715.61	242.49
715.95	242.15
716.28	241.76
716.61	241.52
716.95	241.13
717.28	240.81
717.61	240.53
717.94	240.27
718.28	239.70
718.61	239.41
718.94	239.03
719.27	238.74
719.61	238.42
719.94	238.03
720.27	237.56
720.60	237.29
720.94	237.01
721.27	236.82
721.60	236.68
721.93	236.43
722.27	236.35
722.60	236.13
722.93	235.84
723.26	235.56
723.59	235.30
723.93	235.06
724.26	234.89
724.59	234.60
724.92	234.35
725.25	234.22
725.59	233.99
725.92	233.85
726.25	233.68
726.58	233.52
726.91	233.33
727.24	233.22
727.57	233.04
727.91	232.81
728.24	232.67
728.57	232.38
728.90	232.25
729.23	231.87
729.56	231.88
729.89	231.64
730.22	231.46
730.55	231.30
730.89	231.13
731.22	230.86
731.55	230.73
731.88	230.56
732.21	230.29
732.54	230.00
732.87	229.85
733.20	229.69
733.53	229.55
733.86	229.40
734.19	229.11
734.52	229.03
734.85	229.13
735.18	228.87
735.51	228.90
735.84	228.62
736.17	228.59
736.50	228.26
736.83	228.53
737.16	228.42
737.49	228.25
737.82	228.05
738.15	227.93
738.48	227.76
738.81	227.59
739.14	227.49
739.47	227.40
739.80	227.30
740.13	227.09
740.46	226.79
740.79	226.51
741.12	226.43
741.45	226.23
741.78	225.80
742.11	225.71
742.44	225.41
742.77	225.42
743.10	225.18
743.43	224.98
743.75	224.46
744.08	224.77
744.41	224.59
744.74	224.46
745.07	224.24
745.40	224.15
745.73	224.21
746.06	224.01
746.39	223.89
746.71	223.64
747.04	223.49
747.37	223.43
747.70	223.49
748.03	223.40
748.36	223.32
748.68	223.25
749.01	223.06
749.34	223.02
749.67	222.94
750.00	222.86
750.33	222.95
750.65	222.84
750.98	222.28
751.31	222.21
751.64	222.10
751.97	222.15
752.29	221.94
752.62	221.66
752.95	221.55
753.28	221.35
753.60	221.25
753.93	221.27
754.26	221.22
754.59	220.97
754.91	220.69
755.24	220.59
755.57	220.49
755.90	220.47
756.22	220.27
756.55	220.00
756.88	219.87
757.20	219.64
757.53	219.42
757.86	219.27
758.19	219.19
758.51	219.14
758.84	218.92
759.17	218.94
759.49	218.87
759.82	218.89
760.15	218.96
760.47	218.87
760.80	218.69
761.13	218.66
761.45	218.55
761.78	218.57
762.11	218.50
762.43	218.37
762.76	218.23
763.08	218.19
763.41	218.18
763.74	218.13
764.06	218.06
764.39	218.04
764.71	218.02
765.04	217.93
765.37	217.79
765.69	217.73
766.02	217.65
766.34	217.55
766.67	217.43
767.00	217.29
767.32	217.47
767.65	217.58
767.97	217.44
768.30	217.40
768.62	217.40
768.95	217.30
769.27	217.28
769.60	217.31
769.92	217.16
770.25	217.02
770.57	216.84
770.90	216.77
771.22	216.71
771.55	216.62
771.87	216.55
772.20	216.48
772.52	216.75
772.85	217.03
773.17	216.95
773.50	216.82
773.82	216.76
774.15	216.51
774.47	216.31
774.80	216.19
775.12	216.11
775.45	216.04
775.77	215.98
776.09	215.95
776.42	215.89
776.74	215.97
777.07	215.93
777.39	216.00
777.72	215.90
778.04	215.95
778.36	215.93
778.69	215.89
779.01	215.86
779.33	215.48
779.66	215.08
779.98	215.04
780.31	215.10
780.63	215.16
780.95	215.21
781.28	215.16
781.60	215.13
781.92	215.10
782.25	215.04
782.57	215.04
782.89	214.90
783.22	214.77
783.54	214.68
783.86	214.75
784.19	214.69
784.51	214.82
784.83	214.66
785.16	214.59
785.48	214.60
785.80	214.63
786.12	214.60
786.45	214.54
786.77	214.51
787.09	214.35
787.42	214.26
787.74	214.17
788.06	214.05
788.38	213.98
788.71	213.96
789.03	213.93
789.35	213.90
789.67	213.91
789.99	213.98
790.32	213.87
790.64	213.84
790.96	214.13
791.28	213.89
791.61	213.88
791.93	213.90
792.25	213.88
792.57	214.06
792.89	213.99
793.21	214.03
793.54	214.01
793.86	214.01
794.18	213.92
794.50	213.82
794.82	213.90
795.14	213.99
795.47	214.02
795.79	214.06
796.11	213.95
796.43	213.92
796.75	213.86
797.07	213.94
797.39	213.86
797.71	213.53
798.04	213.64
798.36	213.67
798.68	213.61
799.00	213.65
799.32	213.48
799.64	213.56
799.96	213.55
800.28	213.60
800.60	213.50
800.92	213.60
801.24	213.60
801.56	213.57
801.89	213.46
802.21	213.44
802.53	213.31
802.85	213.41
803.17	213.58
803.49	213.48
803.81	213.39
804.13	213.40
804.45	213.33
804.77	213.28
805.09	213.21
805.41	213.11
805.73	212.98
806.05	212.81
806.37	212.68
806.69	212.66
807.01	212.65
807.33	212.74
807.65	212.62
807.97	212.76
808.28	212.67
808.60	212.68
808.92	212.67
809.24	212.86
809.56	212.74
809.88	212.57
810.20	212.57
810.52	212.64
810.84	212.53
811.16	212.45
811.48	212.45
811.80	212.59
812.12	212.55
812.43	212.59
812.75	212.61
813.07	212.65
813.39	212.60
813.71	212.48
814.03	212.47
814.35	212.43
814.67	212.25
814.98	212.27
815.30	212.28
815.62	212.17
815.94	211.95
816.26	212.04
816.58	211.97
816.89	212.02
817.21	211.90
817.53	211.92
817.85	211.95
818.17	211.88
818.48	211.68
818.80	211.85
819.12	211.78
819.44	211.73
819.76	211.66
820.07	211.68
820.39	211.65
820.71	211.60
821.03	211.70
821.34	211.73
821.66	211.73
821.98	211.72
822.30	211.75
822.61	211.97
822.93	211.84
823.25	211.86
823.57	211.80
823.88	211.91
824.20	211.91
824.52	212.02
824.83	212.05
825.15	212.06
825.47	211.99
825.79	212.00
826.10	212.02
826.42	212.01
826.74	212.03
827.05	212.12
827.37	212.14
827.69	212.05
828.00	212.02
828.32	212.06
828.64	212.07
828.95	212.18
829.27	212.07
829.58	212.10
829.90	212.10
830.22	212.11
830.53	212.06
830.85	212.00
831.17	211.85
831.48	211.87
831.80	211.92
832.11	211.84
832.43	211.77
832.75	211.80
833.06	212.03
833.38	211.92
833.69	211.83
834.01	211.84
834.32	211.82
834.64	211.83
834.96	211.79
835.27	211.74
835.59	211.66
835.90	211.52
836.22	211.48
836.53	211.41
836.85	211.43
837.16	211.66
837.48	211.71
837.79	211.81
838.11	211.79
838.42	211.72
838.74	211.84
839.05	211.83
839.37	211.79
839.68	211.52
840.00	211.51
840.31	211.60
840.63	211.54
840.94	211.54
841.26	211.50
841.57	211.45
841.88	211.49
842.20	211.39
842.51	211.43
842.83	211.49
843.14	211.81
843.46	211.81
843.77	211.67
844.08	211.65
844.40	211.53
844.71	211.47
845.03	211.45
845.34	211.44
845.65	211.49
845.97	211.41
846.28	211.44
846.60	211.44
846.91	211.31
847.22	211.35
847.54	211.36
847.85	211.43
848.16	211.43
848.48	211.37
848.79	211.62
849.10	211.75
849.42	211.67
849.73	211.36
850.04	211.30
850.36	211.21
850.67	211.22
850.98	211.31
851.30	211.34
851.61	211.36
851.92	211.31
852.23	211.43
852.55	211.52
852.86	211.56
853.17	211.63
853.49	211.76
853.80	211.82
854.11	211.84
854.42	211.77
854.74	211.74
855.05	211.69
855.36	211.49
855.67	211.37
855.99	211.42
856.30	211.75
856.61	211.73
856.92	211.69
857.23	211.77
857.55	211.65
857.86	211.59
858.17	211.57
858.48	211.54
858.79	211.46
859.11	211.54
859.42	211.50
859.73	211.42
860.04	211.37
860.35	211.26
860.66	211.23
860.98	211.27
861.29	211.27
861.60	211.31
861.91	211.36
862.22	211.38
862.53	211.39
862.84	211.03
863.16	211.16
863.47	211.08
863.78	210.96
864.09	211.07
864.40	211.14
864.71	211.20
865.02	211.25
865.33	211.19
865.64	211.09
865.95	211.15
866.27	211.40
866.58	211.35
866.89	211.36
867.20	211.32
867.51	211.25
867.82	211.30
868.13	211.41
868.44	211.32
868.75	211.35
869.06	211.33
869.37	211.42
869.68	211.30
869.99	211.41
870.30	211.43
870.61	211.41
870.92	211.38
871.23	211.35
871.54	211.42
871.85	211.45
872.16	211.47
872.47	211.46
872.78	211.25
873.09	211.28
873.40	211.37
873.71	211.39
874.02	211.39
874.33	211.36
874.64	211.32
874.95	211.44
875.26	211.42
875.56	211.42
875.87	211.32
876.18	211.30
876.49	211.59
876.80	211.57
877.11	211.50
877.42	211.54
877.73	211.53
878.04	211.36
878.35	211.38
878.66	211.29
878.96	211.22
879.27	211.14
879.58	211.08
879.89	211.01
880.20	211.14
880.51	211.10
880.82	211.09
881.12	211.04
881.43	210.85
881.74	210.75
882.05	210.70
882.36	210.76
882.67	210.80
882.97	210.49
883.28	210.49
883.59	210.53
883.90	210.55
884.21	210.61
884.51	210.68
884.82	210.60
885.13	210.69
885.44	210.66
885.74	210.73
886.05	210.76
886.36	210.73
886.67	210.58
886.98	210.80
887.28	210.87
887.59	210.86
887.90	210.96
888.20	210.98
888.51	211.01
888.82	210.92
889.13	210.93
889.43	211.21
889.74	211.21
890.05	211.19
890.35	211.12
890.66	211.07
890.97	210.98
891.28	211.00
891.58	210.98
891.89	211.00
892.20	210.96
892.50	210.93
892.81	210.97
893.12	210.95
893.42	210.84
893.73	210.85
894.04	210.85
894.34	210.86
894.65	210.84
894.95	210.85
895.26	210.89
895.57	211.00
895.87	210.72
896.18	210.79
896.48	210.88
896.79	210.94
897.10	210.98
897.40	211.04
897.71	211.09
898.01	211.08
898.32	211.11
898.63	211.14
898.93	211.19
899.24	211.16
899.54	211.19
899.85	211.09
900.15	211.00
900.46	210.97
900.76	210.97
901.07	211.01
901.38	211.03
901.68	211.07
901.99	210.91
902.29	210.87
902.60	210.87
902.90	210.75
903.21	210.74
903.51	210.70
903.82	210.85
904.12	210.82
904.43	210.82
904.73	210.85
905.03	210.91
905.34	211.23
905.64	211.22
905.95	211.21
906.25	211.25
906.56	211.30
906.86	211.37
907.17	211.46
907.47	211.52
907.77	211.49
908.08	211.45
908.38	211.47
908.69	211.53
908.99	211.61
909.30	211.61
909.60	211.54
909.90	211.52
910.21	211.35
910.51	211.36
910.81	211.44
911.12	211.46
911.42	211.42
911.73	211.11
912.03	211.17
912.33	211.20
912.64	211.24
912.94	211.26
913.24	211.20
913.55	211.10
913.85	211.03
914.15	211.09
914.46	211.12
914.76	211.13
915.06	211.14
915.37	210.95
915.67	210.99
915.97	211.03
916.27	211.01
916.58	211.03
916.88	211.05
917.18	210.96
917.49	211.15
917.79	211.10
918.09	211.11
918.39	211.11
918.70	211.14
919.00	211.14
919.30	211.27
919.60	211.21
919.91	211.20
920.21	211.26
920.51	211.12
920.81	211.11
921.12	211.19
921.42	211.19
921.72	211.25
922.02	211.31
922.32	211.32
922.63	211.26
922.93	211.43
923.23	211.44
923.53	211.43
923.83	211.19
924.13	211.20
924.44	211.23
924.74	211.37
925.04	211.44
925.34	211.41
925.64	211.29
925.94	211.33
926.24	211.53
926.55	211.42
926.85	211.56
927.15	211.55
927.45	211.49
927.75	211.47
928.05	211.51
928.35	211.39
928.65	211.47
928.95	211.62
929.26	211.44
929.56	211.50
929.86	211.55
930.16	211.56
930.46	211.58
930.76	211.62
931.06	211.48
931.36	211.36
931.66	211.43
931.96	211.39
932.26	211.39
932.56	211.15
932.86	211.18
933.16	211.14
933.46	211.14
933.76	211.12
934.06	211.18
934.36	211.26
934.66	211.26
934.96	211.17
935.26	211.14
935.56	211.21
935.86	211.05
936.16	210.95
936.46	210.94
936.76	210.94
937.06	210.78
937.36	210.74
937.66	210.76
937.96	210.72
938.26	210.68
938.56	210.64
938.86	210.72
939.16	210.81
939.46	210.82
939.76	210.87
940.06	210.87
940.35	210.81
940.65	210.66
940.95	210.75
941.25	210.71
941.55	210.66
941.85	210.73
942.15	210.86
942.45	210.95
942.75	210.94
943.04	210.91
943.34	211.04
943.64	210.98
943.94	210.92
944.24	210.97
944.54	210.97
944.84	210.95
945.13	210.89
945.43	210.80
945.73	210.79
946.03	210.72
946.33	210.64
946.62	210.57
946.92	210.57
947.22	210.57
947.52	210.61
947.82	210.64
948.11	210.54
948.41	210.40
948.71	210.40
949.01	210.42
949.31	210.40
949.60	210.31
949.90	210.35
950.20	210.36
950.50	210.32
950.79	210.33
951.09	210.36
951.39	210.38
951.69	210.30
951.98	210.36
952.28	210.38
952.58	210.44
952.87	210.48
953.17	210.49
953.47	210.41
953.76	210.36
954.06	210.27
954.36	210.22
954.66	210.31
954.95	210.40
955.25	210.46
955.55	210.56
955.84	210.56
956.14	210.66
956.44	210.64
956.73	210.60
957.03	210.60
957.32	210.63
957.62	210.60
957.92	210.74
958.21	210.71
958.51	211.13
958.81	211.19
959.10	211.26
959.40	211.38
959.69	211.48
959.99	211.56
960.29	211.56
960.58	211.61
960.88	211.70
961.17	211.62
961.47	211.62
961.76	211.51
962.06	211.52
962.36	211.48
962.65	211.50
962.95	211.47
963.24	211.46
963.54	211.55
963.83	211.63
964.13	211.65
964.42	211.57
964.72	211.26
965.01	211.19
965.31	211.12
965.60	211.00
965.90	211.17
966.19	211.04
966.49	211.15
966.78	211.14
967.08	211.09
967.37	211.07
967.67	210.99
967.96	211.07
968.26	211.12
968.55	211.14
968.85	211.17
969.14	211.16
969.43	211.18
969.73	211.14
970.02	211.10
970.32	211.03
970.61	211.03
970.91	210.93
971.20	210.88
971.49	210.86
971.79	210.92
972.08	210.69
972.38	210.79
972.67	210.67
972.96	210.72
973.26	210.65
973.55	210.72
973.85	210.70
974.14	210.58
974.43	210.61
974.73	210.50
975.02	210.46
975.31	210.49
975.61	210.44
975.90	210.41
976.19	210.36
976.49	210.47
976.78	210.44
977.07	210.36
977.37	210.41
977.66	210.40
977.95	210.35
978.24	210.40
978.54	210.49
978.83	210.52
979.12	210.43
979.42	210.44
979.71	210.41
980.00	210.47
980.29	210.55
980.59	210.49
980.88	210.66
981.17	210.69
981.46	210.65
981.76	210.73
982.05	210.78
982.34	210.80
982.63	210.69
982.93	210.77
983.22	210.92
983.51	210.99
983.80	211.00
984.09	211.01
984.39	210.87
984.68	210.79
984.97	210.82
985.26	210.86
985.55	210.90
985.85	210.81
986.14	210.80
986.43	210.91
986.72	210.88
987.01	210.78
987.30	210.80
987.59	210.88
987.89	210.84
988.18	210.82
988.47	210.83
988.76	210.82
989.05	210.77
989.34	210.72
989.63	210.75
989.92	210.83
990.22	210.86
990.51	210.90
990.80	210.85
991.09	210.87
991.38	210.90
991.67	210.77
991.96	210.73
992.25	210.78
992.54	210.65
992.83	210.67
993.12	210.61
993.41	210.62
993.70	210.75
993.99	210.80
994.28	210.85
994.58	210.90
994.87	210.95
995.16	210.98
995.45	211.00
995.74	210.95
996.03	210.97
996.32	210.96
996.61	211.09
996.90	211.08
997.19	211.06
997.48	211.02
997.77	211.08
998.06	211.16
998.34	211.10
998.63	211.18
998.92	211.29
999.21	211.37
999.50	211.39
999.79	211.21
1000.08	211.23
1000.37	211.17
1000.66	211.06
1000.95	211.13
1001.24	211.06
1001.53	211.05
1001.82	210.99
1002.11	210.93
1002.40	210.95
1002.68	211.02
1002.97	211.32
1003.26	211.31
1003.55	211.30
1003.84	211.28
1004.13	211.39
1004.42	211.39
1004.71	211.32
1004.99	211.23
1005.28	211.29
1005.57	211.25
1005.86	211.22
1006.15	211.10
1006.44	211.04
1006.72	211.08
1007.01	211.03
1007.30	211.07
1007.59	211.08
1007.88	211.10
1008.17	211.08
1008.45	211.11
1008.74	210.95
1009.03	210.78
1009.32	210.73
1009.60	210.69
1009.89	210.70
1010.18	210.54
1010.47	210.51
1010.76	210.50
1011.04	210.47
1011.33	210.45
1011.62	210.45
1011.91	210.40
1012.19	210.45
1012.48	210.48
1012.77	210.44
1013.05	210.57
1013.34	210.63
1013.63	210.55
1013.92	210.53
1014.20	210.44
1014.49	210.39
1014.78	210.41
1015.06	210.26
1015.35	210.32
1015.64	210.35
1015.92	210.44
1016.21	210.46
1016.50	210.48
1016.78	210.56
1017.07	210.58
1017.36	210.45
1017.64	210.44
1017.93	210.55
1018.22	210.57
1018.50	210.61
1018.79	210.66
1019.08	210.51
1019.36	210.53
1019.65	210.45
1019.93	210.54
1020.22	210.64
1020.51	210.85
1020.79	210.80
1021.08	210.75
1021.36	210.90
1021.65	210.80
1021.94	210.65
1022.22	211.65
1022.51	208.50
1022.79	211.75
1023.08	210.65
1023.36	215.15
1023.65	209.50
>>>>>End Processed Spectral Data<<<<<
