SpectraSuite Data File
++++++++++++++++++++++++++++++++++++
Date: Mon Feb 25 17:15:13 EST 2013
User: group
Dark Spectrum Present: No
Reference Spectrum Present: No
Number of Sampled Component Spectra: 1
Spectrometers: USB2E7196
Integration Time (usec): 104000 (USB2E7196)
Spectra Averaged: 20 (USB2E7196)
Boxcar Smoothing: 10 (USB2E7196)
Correct for Electrical Dark: No (USB2E7196)
Strobe/Lamp Enabled: No (USB2E7196)
Correct for Detector Non-linearity: No (USB2E7196)
Correct for Stray Light: No (USB2E7196)
Number of Pixels in Processed Spectrum: 2048
>>>>>Begin Processed Spectral Data<<<<<
339.09	0.00
339.48	198.35
339.86	201.10
340.24	201.95
340.63	203.30
341.01	209.65
341.39	206.35
341.78	208.35
342.16	209.95
342.54	209.25
342.93	198.75
343.31	208.80
343.69	209.34
344.07	209.74
344.46	210.21
344.84	210.56
345.22	210.67
345.60	210.94
345.99	211.04
346.37	211.18
346.75	211.25
347.13	211.32
347.52	211.32
347.90	211.47
348.28	211.51
348.66	211.65
349.05	211.46
349.43	211.58
349.81	211.62
350.19	211.63
350.57	211.57
350.96	211.65
351.34	211.69
351.72	211.77
352.10	211.89
352.48	211.92
352.87	211.95
353.25	211.95
353.63	211.98
354.01	212.06
354.39	212.06
354.77	212.12
355.15	212.20
355.54	212.23
355.92	212.20
356.30	212.22
356.68	212.44
357.06	212.52
357.44	212.50
357.82	212.59
358.20	212.64
358.58	212.80
358.97	212.80
359.35	212.98
359.73	213.11
360.11	213.13
360.49	213.17
360.87	213.25
361.25	213.33
361.63	213.44
362.01	213.47
362.39	213.47
362.77	213.52
363.15	213.60
363.53	213.67
363.91	213.67
364.29	213.69
364.67	213.48
365.05	213.56
365.43	213.66
365.81	213.75
366.19	213.94
366.57	214.07
366.95	214.11
367.33	213.94
367.71	214.03
368.09	214.12
368.47	214.11
368.85	214.12
369.23	214.21
369.61	214.08
369.99	214.19
370.37	214.29
370.75	214.49
371.13	214.35
371.51	214.23
371.89	214.25
372.27	214.25
372.65	214.26
373.03	214.32
373.41	214.31
373.78	214.21
374.16	214.01
374.54	213.90
374.92	213.88
375.30	213.95
375.68	213.76
376.06	213.81
376.44	213.71
376.82	213.70
377.19	213.65
377.57	213.64
377.95	213.58
378.33	213.52
378.71	213.25
379.09	213.36
379.47	213.37
379.84	213.37
380.22	213.34
380.60	213.26
380.98	213.14
381.36	212.98
381.73	212.86
382.11	212.93
382.49	212.84
382.87	212.74
383.25	212.67
383.62	213.01
384.00	212.86
384.38	212.97
384.76	213.01
385.13	213.11
385.51	213.13
385.89	213.04
386.27	212.96
386.64	212.93
387.02	212.83
387.40	212.80
387.78	212.78
388.15	212.75
388.53	212.68
388.91	212.67
389.29	212.70
389.66	212.81
390.04	212.66
390.42	212.66
390.79	212.70
391.17	212.68
391.55	212.29
391.92	212.24
392.30	212.23
392.68	212.10
393.05	212.01
393.43	211.95
393.81	211.90
394.18	211.81
394.56	211.88
394.94	211.96
395.31	211.99
395.69	212.01
396.06	212.07
396.44	212.14
396.82	212.05
397.19	212.20
397.57	212.17
397.95	212.22
398.32	212.17
398.70	212.15
399.07	212.20
399.45	212.27
399.82	212.31
400.20	212.25
400.58	212.28
400.95	212.17
401.33	212.30
401.70	212.60
402.08	212.68
402.45	212.70
402.83	212.82
403.20	212.81
403.58	212.83
403.95	212.90
404.33	212.93
404.71	213.04
405.08	213.21
405.46	213.25
405.83	213.42
406.21	213.52
406.58	213.68
406.96	213.74
407.33	213.83
407.70	214.03
408.08	214.49
408.45	214.74
408.83	214.94
409.20	215.04
409.58	215.05
409.95	215.37
410.33	215.66
410.70	215.84
411.08	216.18
411.45	216.49
411.82	216.73
412.20	217.18
412.57	217.72
412.95	217.92
413.32	218.38
413.69	218.86
414.07	219.45
414.44	219.90
414.82	220.60
415.19	221.29
415.56	221.85
415.94	222.32
416.31	223.15
416.68	223.96
417.06	224.89
417.43	225.79
417.81	226.75
418.18	227.75
418.55	228.76
418.93	229.88
419.30	231.01
419.67	232.31
420.04	233.57
420.42	234.91
420.79	236.62
421.16	238.08
421.54	239.72
421.91	241.30
422.28	243.01
422.66	244.71
423.03	246.71
423.40	248.64
423.77	250.50
424.15	252.32
424.52	254.30
424.89	256.63
425.26	258.74
425.64	260.77
426.01	263.03
426.38	265.37
426.75	267.84
427.13	270.31
427.50	272.87
427.87	275.52
428.24	278.16
428.61	280.55
428.99	283.57
429.36	286.50
429.73	289.51
430.10	292.64
430.47	295.74
430.85	298.72
431.22	302.13
431.59	305.96
431.96	309.48
432.33	313.26
432.70	316.85
433.08	321.11
433.45	325.23
433.82	329.20
434.19	333.63
434.56	337.99
434.93	342.11
435.30	346.28
435.68	350.81
436.05	355.23
436.42	359.72
436.79	363.75
437.16	368.21
437.53	372.83
437.90	377.31
438.27	381.92
438.64	386.65
439.01	390.94
439.38	394.61
439.75	398.32
440.13	402.58
440.50	406.60
440.87	409.90
441.24	413.22
441.61	416.89
441.98	419.62
442.35	422.73
442.72	426.08
443.09	429.33
443.46	431.10
443.83	432.45
444.20	433.51
444.57	435.05
444.94	435.76
445.31	436.61
445.68	437.61
446.05	437.74
446.42	437.17
446.79	436.59
447.16	435.84
447.53	435.33
447.90	433.61
448.27	431.70
448.64	429.25
449.01	427.44
449.37	424.47
449.74	421.49
450.11	418.05
450.48	414.00
450.85	409.83
451.22	406.54
451.59	403.18
451.96	400.04
452.33	395.86
452.70	392.09
453.07	387.54
453.43	382.80
453.80	378.52
454.17	374.34
454.54	370.29
454.91	366.08
455.28	361.92
455.65	357.97
456.02	354.68
456.38	351.32
456.75	347.30
457.12	343.80
457.49	340.41
457.86	337.03
458.23	334.36
458.59	331.38
458.96	328.32
459.33	325.62
459.70	322.85
460.07	320.70
460.43	318.16
460.80	315.90
461.17	313.84
461.54	311.65
461.91	309.55
462.27	307.56
462.64	305.87
463.01	303.98
463.38	302.34
463.74	300.00
464.11	298.45
464.48	296.96
464.85	295.36
465.21	294.34
465.58	293.10
465.95	291.58
466.32	290.30
466.68	288.97
467.05	287.68
467.42	286.46
467.78	285.10
468.15	283.95
468.52	283.02
468.88	281.83
469.25	280.84
469.62	280.13
469.98	279.35
470.35	278.58
470.72	277.85
471.08	276.84
471.45	276.22
471.82	275.55
472.18	274.84
472.55	274.46
472.92	273.62
473.28	273.08
473.65	272.60
474.02	272.07
474.38	271.80
474.75	271.55
475.11	271.22
475.48	271.08
475.85	270.89
476.21	270.83
476.58	270.74
476.94	270.69
477.31	270.58
477.67	270.41
478.04	270.40
478.41	270.48
478.77	270.99
479.14	271.00
479.50	271.15
479.87	271.38
480.23	271.58
480.60	271.97
480.96	272.32
481.33	272.91
481.69	273.35
482.06	273.80
482.42	274.29
482.79	274.83
483.15	275.46
483.52	276.26
483.88	276.90
484.25	277.64
484.61	278.42
484.98	279.22
485.34	280.40
485.71	281.45
486.07	282.54
486.44	283.30
486.80	284.54
487.17	285.86
487.53	287.37
487.90	288.91
488.26	290.57
488.62	292.25
488.99	293.83
489.35	295.64
489.72	297.60
490.08	299.72
490.44	301.88
490.81	304.20
491.17	306.55
491.54	309.08
491.90	311.78
492.26	314.57
492.63	317.51
492.99	320.43
493.36	323.66
493.72	327.10
494.08	330.72
494.45	334.46
494.81	338.37
495.17	342.31
495.54	346.66
495.90	350.89
496.26	355.46
496.63	360.20
496.99	365.19
497.35	370.44
497.72	375.87
498.08	381.49
498.44	387.22
498.80	393.33
499.17	399.59
499.53	406.05
499.89	412.90
500.26	419.85
500.62	426.83
500.98	434.37
501.34	442.02
501.71	450.04
502.07	458.30
502.43	466.71
502.79	475.33
503.16	484.14
503.52	493.52
503.88	502.77
504.24	512.50
504.60	522.57
504.97	532.80
505.33	543.03
505.69	554.37
506.05	565.78
506.41	577.03
506.78	588.61
507.14	600.48
507.50	612.55
507.86	625.11
508.22	637.95
508.59	650.74
508.95	663.97
509.31	677.65
509.67	691.31
510.03	705.35
510.39	719.95
510.75	734.78
511.12	749.47
511.48	764.80
511.84	780.15
512.20	795.67
512.56	811.60
512.92	828.06
513.28	844.15
513.64	860.33
514.00	876.83
514.37	893.49
514.73	910.45
515.09	927.73
515.45	944.61
515.81	962.00
516.17	979.56
516.53	997.24
516.89	1014.82
517.25	1032.72
517.61	1050.55
517.97	1068.25
518.33	1086.05
518.69	1104.06
519.05	1122.29
519.41	1140.82
519.77	1159.29
520.13	1177.44
520.49	1195.39
520.85	1213.60
521.21	1232.13
521.57	1250.95
521.93	1269.13
522.29	1288.13
522.65	1306.61
523.01	1325.34
523.37	1343.56
523.73	1361.92
524.09	1380.14
524.45	1398.27
524.81	1416.61
525.17	1435.26
525.53	1453.70
525.89	1472.04
526.25	1490.48
526.61	1507.83
526.97	1525.59
527.33	1543.15
527.68	1561.13
528.04	1578.26
528.40	1594.74
528.76	1611.43
529.12	1628.49
529.48	1646.09
529.84	1662.64
530.20	1679.22
530.56	1695.82
530.91	1712.76
531.27	1729.48
531.63	1745.80
531.99	1762.10
532.35	1777.74
532.71	1792.89
533.07	1808.40
533.42	1823.33
533.78	1838.38
534.14	1853.68
534.50	1867.48
534.86	1882.04
535.21	1895.33
535.57	1910.31
535.93	1924.02
536.29	1937.59
536.65	1950.89
537.00	1963.29
537.36	1975.35
537.72	1987.29
538.08	1999.33
538.44	2011.07
538.79	2022.71
539.15	2034.22
539.51	2045.48
539.87	2057.14
540.22	2068.06
540.58	2079.34
540.94	2090.12
541.29	2099.76
541.65	2109.02
542.01	2118.66
542.37	2127.68
542.72	2137.27
543.08	2145.35
543.44	2154.80
543.79	2162.88
544.15	2170.15
544.51	2178.23
544.87	2186.41
545.22	2193.65
545.58	2200.13
545.94	2205.58
546.29	2210.76
546.65	2216.06
547.01	2220.99
547.36	2225.81
547.72	2230.58
548.07	2233.90
548.43	2237.36
548.79	2241.00
549.14	2244.29
549.50	2247.94
549.86	2250.43
550.21	2252.69
550.57	2255.23
550.92	2256.71
551.28	2258.45
551.64	2260.50
551.99	2262.35
552.35	2263.28
552.70	2264.55
553.06	2265.99
553.41	2267.35
553.77	2268.54
554.13	2269.26
554.48	2270.09
554.84	2270.73
555.19	2270.92
555.55	2270.72
555.90	2270.22
556.26	2269.56
556.61	2269.20
556.97	2267.60
557.32	2266.89
557.68	2265.32
558.03	2263.70
558.39	2262.24
558.74	2261.51
559.10	2260.22
559.45	2258.43
559.81	2256.93
560.16	2254.88
560.52	2252.86
560.87	2251.16
561.23	2248.43
561.58	2246.25
561.94	2243.16
562.29	2239.51
562.64	2236.45
563.00	2234.16
563.35	2231.91
563.71	2229.93
564.06	2227.52
564.42	2225.36
564.77	2223.36
565.12	2221.36
565.48	2219.17
565.83	2216.72
566.19	2213.95
566.54	2210.34
566.89	2206.50
567.25	2203.12
567.60	2199.88
567.96	2196.35
568.31	2192.95
568.66	2189.14
569.02	2184.92
569.37	2180.80
569.72	2176.75
570.08	2172.46
570.43	2167.57
570.78	2162.93
571.14	2157.41
571.49	2151.83
571.84	2147.04
572.20	2140.77
572.55	2135.39
572.90	2129.07
573.26	2122.96
573.61	2116.59
573.96	2110.65
574.31	2104.29
574.67	2097.42
575.02	2090.40
575.37	2083.44
575.72	2075.65
576.08	2069.53
576.43	2062.43
576.78	2055.72
577.13	2049.29
577.49	2042.84
577.84	2036.10
578.19	2029.70
578.54	2024.03
578.90	2018.24
579.25	2011.29
579.60	2004.52
579.95	1997.21
580.30	1990.96
580.66	1984.86
581.01	1977.99
581.36	1970.71
581.71	1964.02
582.06	1957.41
582.42	1951.03
582.77	1943.93
583.12	1937.30
583.47	1930.76
583.82	1924.95
584.17	1918.45
584.53	1911.78
584.88	1905.14
585.23	1898.78
585.58	1891.72
585.93	1884.29
586.28	1877.72
586.63	1870.84
586.98	1864.49
587.34	1858.40
587.69	1851.50
588.04	1844.76
588.39	1838.45
588.74	1831.52
589.09	1825.25
589.44	1818.72
589.79	1812.72
590.14	1806.74
590.49	1800.33
590.84	1793.55
591.19	1787.19
591.54	1780.70
591.89	1773.31
592.25	1766.41
592.60	1759.04
592.95	1752.05
593.30	1744.72
593.65	1737.12
594.00	1730.29
594.35	1724.51
594.70	1717.65
595.05	1711.21
595.40	1704.24
595.75	1696.97
596.10	1691.00
596.45	1684.54
596.80	1678.18
597.15	1671.52
597.50	1665.03
597.85	1659.00
598.19	1652.27
598.54	1645.54
598.89	1639.13
599.24	1633.93
599.59	1627.87
599.94	1622.85
600.29	1617.25
600.64	1611.83
600.99	1605.76
601.34	1600.06
601.69	1593.01
602.04	1586.49
602.39	1580.19
602.74	1574.33
603.08	1569.46
603.43	1564.24
603.78	1558.51
604.13	1552.65
604.48	1546.78
604.83	1541.66
605.18	1536.76
605.53	1531.03
605.87	1525.14
606.22	1519.74
606.57	1513.49
606.92	1507.61
607.27	1500.96
607.62	1494.60
607.96	1488.71
608.31	1483.33
608.66	1476.98
609.01	1470.66
609.36	1464.82
609.70	1458.27
610.05	1451.77
610.40	1444.77
610.75	1437.95
611.10	1431.67
611.44	1424.72
611.79	1417.60
612.14	1409.89
612.49	1401.89
612.83	1395.11
613.18	1387.72
613.53	1380.37
613.88	1372.90
614.22	1365.93
614.57	1358.85
614.92	1351.58
615.27	1344.24
615.61	1336.77
615.96	1330.02
616.31	1323.89
616.65	1317.40
617.00	1311.05
617.35	1304.31
617.70	1297.15
618.04	1289.63
618.39	1281.93
618.74	1275.08
619.08	1268.21
619.43	1261.52
619.78	1254.76
620.12	1248.30
620.47	1241.90
620.82	1234.88
621.16	1228.14
621.51	1221.23
621.85	1214.60
622.20	1207.71
622.55	1200.87
622.89	1194.15
623.24	1187.39
623.59	1179.98
623.93	1172.77
624.28	1166.06
624.62	1159.70
624.97	1153.43
625.32	1147.31
625.66	1141.29
626.01	1134.93
626.35	1128.84
626.70	1122.56
627.04	1116.77
627.39	1110.32
627.73	1103.98
628.08	1098.06
628.43	1091.75
628.77	1085.50
629.12	1079.28
629.46	1073.84
629.81	1068.10
630.15	1062.06
630.50	1055.95
630.84	1049.90
631.19	1044.10
631.53	1038.17
631.88	1031.67
632.22	1025.33
632.57	1019.59
632.91	1013.37
633.26	1007.36
633.60	1001.41
633.95	995.62
634.29	989.62
634.64	983.89
634.98	977.85
635.32	972.13
635.67	967.17
636.01	961.88
636.36	956.00
636.70	950.31
637.05	944.65
637.39	939.43
637.73	934.32
638.08	929.53
638.42	924.40
638.77	919.17
639.11	914.07
639.45	908.98
639.80	903.20
640.14	897.77
640.49	892.60
640.83	887.07
641.17	881.76
641.52	876.23
641.86	870.61
642.20	865.44
642.55	859.71
642.89	853.89
643.23	848.25
643.58	843.65
643.92	838.24
644.26	832.98
644.61	827.57
644.95	821.96
645.29	816.49
645.64	811.00
645.98	805.77
646.32	800.65
646.66	795.18
647.01	790.34
647.35	785.55
647.69	780.22
648.04	775.39
648.38	770.45
648.72	765.48
649.06	760.54
649.41	755.65
649.75	751.07
650.09	746.25
650.43	741.43
650.78	735.87
651.12	730.90
651.46	725.94
651.80	721.23
652.14	716.65
652.49	711.91
652.83	707.15
653.17	702.11
653.51	697.29
653.85	692.94
654.20	688.24
654.54	683.16
654.88	678.47
655.22	673.88
655.56	668.93
655.90	664.28
656.25	659.77
656.59	655.16
656.93	650.57
657.27	646.24
657.61	641.57
657.95	637.53
658.29	633.20
658.64	629.06
658.98	624.68
659.32	620.04
659.66	615.64
660.00	611.35
660.34	606.95
660.68	602.50
661.02	597.99
661.36	593.84
661.70	590.09
662.05	586.29
662.39	582.48
662.73	578.96
663.07	575.43
663.41	571.70
663.75	567.89
664.09	564.01
664.43	560.10
664.77	556.58
665.11	552.77
665.45	549.30
665.79	545.67
666.13	542.12
666.47	538.89
666.81	535.31
667.15	531.87
667.49	528.90
667.83	525.98
668.17	522.85
668.51	519.70
668.85	516.62
669.19	513.70
669.53	510.30
669.87	506.92
670.21	503.74
670.55	500.81
670.89	498.09
671.23	495.42
671.57	492.57
671.91	489.55
672.25	486.74
672.58	483.86
672.92	480.91
673.26	478.19
673.60	475.35
673.94	472.68
674.28	469.96
674.62	467.33
674.96	464.51
675.30	461.90
675.64	459.28
675.97	456.65
676.31	453.98
676.65	451.56
676.99	449.33
677.33	446.75
677.67	444.06
678.01	441.43
678.34	438.93
678.68	436.56
679.02	434.07
679.36	431.69
679.70	429.21
680.04	427.01
680.37	424.61
680.71	422.34
681.05	420.15
681.39	417.97
681.73	415.61
682.06	413.52
682.40	411.46
682.74	409.37
683.08	407.27
683.42	405.03
683.75	402.87
684.09	400.62
684.43	398.69
684.77	396.60
685.10	394.52
685.44	392.36
685.78	390.30
686.12	388.55
686.45	386.56
686.79	384.75
687.13	382.92
687.46	381.07
687.80	379.24
688.14	377.32
688.48	375.63
688.81	373.77
689.15	371.82
689.49	369.85
689.82	367.88
690.16	365.88
690.50	364.02
690.83	362.26
691.17	360.47
691.51	358.59
691.84	356.89
692.18	355.21
692.52	353.59
692.85	352.12
693.19	350.55
693.52	348.95
693.86	347.25
694.20	345.68
694.53	344.11
694.87	342.42
695.21	340.79
695.54	339.03
695.88	337.32
696.21	335.74
696.55	334.34
696.88	332.99
697.22	331.55
697.56	330.21
697.89	328.71
698.23	327.29
698.56	325.83
698.90	324.66
699.23	323.30
699.57	321.88
699.90	320.34
700.24	318.88
700.58	317.55
700.91	316.26
701.25	315.14
701.58	313.92
701.92	312.78
702.25	311.62
702.59	310.38
702.92	309.22
703.26	308.14
703.59	306.99
703.93	306.12
704.26	305.00
704.60	303.81
704.93	302.78
705.26	301.59
705.60	300.59
705.93	299.35
706.27	298.34
706.60	297.50
706.94	296.76
707.27	295.81
707.61	294.69
707.94	293.69
708.27	292.48
708.61	291.40
708.94	290.45
709.28	289.53
709.61	288.70
709.94	287.90
710.28	286.96
710.61	286.09
710.95	284.87
711.28	284.28
711.61	283.44
711.95	282.60
712.28	281.82
712.61	281.01
712.95	280.43
713.28	279.79
713.61	278.87
713.95	277.88
714.28	277.15
714.61	276.53
714.95	275.73
715.28	274.90
715.61	274.14
715.95	273.41
716.28	272.67
716.61	271.98
716.95	271.23
717.28	270.55
717.61	269.93
717.94	269.36
718.28	268.46
718.61	267.83
718.94	267.21
719.27	266.64
719.61	266.06
719.94	265.33
720.27	264.55
720.60	264.00
720.94	263.43
721.27	262.79
721.60	262.23
721.93	261.71
722.27	261.30
722.60	260.83
722.93	260.33
723.26	259.85
723.59	259.21
723.93	258.68
724.26	258.23
724.59	257.62
724.92	257.03
725.25	256.55
725.59	256.08
725.92	255.60
726.25	255.10
726.58	254.68
726.91	254.23
727.24	253.83
727.57	253.35
727.91	252.86
728.24	252.44
728.57	252.04
728.90	251.66
729.23	251.15
729.56	250.91
729.89	250.48
730.22	250.05
730.55	249.71
730.89	249.36
731.22	248.89
731.55	248.40
731.88	248.07
732.21	247.72
732.54	247.26
732.87	246.87
733.20	246.43
733.53	246.05
733.86	245.64
734.19	245.14
734.52	244.86
734.85	244.79
735.18	244.42
735.51	244.10
735.84	243.74
736.17	243.46
736.50	242.96
736.83	242.95
737.16	242.59
737.49	242.22
737.82	241.84
738.15	241.58
738.48	241.38
738.81	241.04
739.14	240.55
739.47	240.26
739.80	240.00
740.13	239.76
740.46	239.36
740.79	239.07
741.12	238.82
741.45	238.35
741.78	237.82
742.11	237.62
742.44	237.27
742.77	237.08
743.10	236.78
743.43	236.40
743.75	235.76
744.08	235.90
744.41	235.61
744.74	235.36
745.07	235.05
745.40	234.82
745.73	234.71
746.06	234.58
746.39	234.41
746.71	234.02
747.04	233.74
747.37	233.53
747.70	233.36
748.03	233.12
748.36	233.08
748.68	232.83
749.01	232.42
749.34	232.19
749.67	231.87
750.00	231.64
750.33	231.69
750.65	231.53
750.98	230.81
751.31	230.61
751.64	230.39
751.97	230.37
752.29	230.08
752.62	229.66
752.95	229.39
753.28	229.15
753.60	229.06
753.93	228.97
754.26	228.72
754.59	228.43
754.91	228.18
755.24	227.89
755.57	227.65
755.90	227.60
756.22	227.39
756.55	227.21
756.88	226.92
757.20	226.45
757.53	226.13
757.86	226.00
758.19	225.86
758.51	225.65
758.84	225.25
759.17	225.07
759.49	224.94
759.82	224.96
760.15	224.85
760.47	224.61
760.80	224.33
761.13	224.26
761.45	224.02
761.78	223.89
762.11	223.79
762.43	223.74
762.76	223.50
763.08	223.43
763.41	223.31
763.74	223.25
764.06	223.14
764.39	223.03
764.71	222.90
765.04	222.73
765.37	222.57
765.69	222.46
766.02	222.37
766.34	222.19
766.67	221.91
767.00	221.87
767.32	221.98
767.65	222.08
767.97	221.92
768.30	221.88
768.62	221.71
768.95	221.56
769.27	221.39
769.60	221.30
769.92	221.13
770.25	220.90
770.57	220.71
770.90	220.57
771.22	220.46
771.55	220.45
771.87	220.34
772.20	220.23
772.52	220.45
772.85	220.77
773.17	220.75
773.50	220.68
773.82	220.49
774.15	220.21
774.47	219.86
774.80	219.74
775.12	219.59
775.45	219.60
775.77	219.41
776.09	219.34
776.42	219.34
776.74	219.32
777.07	219.33
777.39	219.32
777.72	219.33
778.04	219.27
778.36	219.08
778.69	219.04
779.01	219.04
779.33	218.66
779.66	218.12
779.98	218.00
780.31	217.91
780.63	217.90
780.95	217.87
781.28	217.84
781.60	217.72
781.92	217.70
782.25	217.54
782.57	217.52
782.89	217.44
783.22	217.32
783.54	217.26
783.86	217.17
784.19	217.04
784.51	217.00
784.83	216.91
785.16	216.79
785.48	216.70
785.80	216.61
786.12	216.64
786.45	216.64
786.77	216.58
787.09	216.50
787.42	216.34
787.74	216.28
788.06	216.26
788.38	216.19
788.71	216.16
789.03	216.18
789.35	216.18
789.67	216.10
789.99	216.10
790.32	215.98
790.64	215.96
790.96	216.22
791.28	216.05
791.61	215.90
791.93	215.98
792.25	215.96
792.57	216.18
792.89	216.03
793.21	216.07
793.54	216.02
793.86	215.93
794.18	215.91
794.50	215.83
794.82	215.73
795.14	215.77
795.47	215.80
795.79	215.73
796.11	215.63
796.43	215.59
796.75	215.49
797.07	215.42
797.39	215.36
797.71	215.01
798.04	215.02
798.36	215.10
798.68	215.06
799.00	215.01
799.32	214.77
799.64	214.77
799.96	214.72
800.28	214.74
800.60	214.71
800.92	214.68
801.24	214.69
801.56	214.69
801.89	214.71
802.21	214.64
802.53	214.61
802.85	214.72
803.17	214.86
803.49	214.75
803.81	214.78
804.13	214.70
804.45	214.73
804.77	214.73
805.09	214.72
805.41	214.69
805.73	214.69
806.05	214.60
806.37	214.53
806.69	214.48
807.01	214.45
807.33	214.46
807.65	214.30
807.97	214.48
808.28	214.38
808.60	214.29
808.92	214.30
809.24	214.48
809.56	214.36
809.88	214.19
810.20	214.27
810.52	214.26
810.84	214.17
811.16	214.10
811.48	214.08
811.80	214.16
812.12	214.11
812.43	214.14
812.75	214.17
813.07	214.18
813.39	214.18
813.71	214.12
814.03	214.05
814.35	214.09
814.67	213.81
814.98	213.85
815.30	213.79
815.62	213.62
815.94	213.35
816.26	213.31
816.58	213.27
816.89	213.23
817.21	213.09
817.53	213.17
817.85	213.21
818.17	213.19
818.48	212.96
818.80	213.03
819.12	212.92
819.44	212.83
819.76	212.80
820.07	212.81
820.39	212.83
820.71	212.89
821.03	212.89
821.34	212.90
821.66	212.92
821.98	212.96
822.30	212.95
822.61	213.17
822.93	213.15
823.25	213.11
823.57	213.10
823.88	213.20
824.20	213.16
824.52	213.13
824.83	213.08
825.15	213.09
825.47	212.99
825.79	213.04
826.10	213.02
826.42	212.96
826.74	212.98
827.05	212.95
827.37	212.97
827.69	212.92
828.00	212.93
828.32	212.85
828.64	212.76
828.95	212.99
829.27	212.83
829.58	212.84
829.90	212.89
830.22	212.88
830.53	212.84
830.85	212.78
831.17	212.70
831.48	212.67
831.80	212.65
832.11	212.66
832.43	212.61
832.75	212.55
833.06	212.70
833.38	212.52
833.69	212.49
834.01	212.45
834.32	212.43
834.64	212.39
834.96	212.42
835.27	212.40
835.59	212.19
835.90	212.14
836.22	212.14
836.53	212.10
836.85	212.07
837.16	212.38
837.48	212.39
837.79	212.53
838.11	212.62
838.42	212.71
838.74	212.69
839.05	212.61
839.37	212.64
839.68	212.47
840.00	212.53
840.31	212.54
840.63	212.59
840.94	212.54
841.26	212.57
841.57	212.55
841.88	212.66
842.20	212.70
842.51	212.68
842.83	212.65
843.14	212.90
843.46	212.92
843.77	212.68
844.08	212.71
844.40	212.56
844.71	212.46
845.03	212.28
845.34	212.31
845.65	212.40
845.97	212.36
846.28	212.39
846.60	212.36
846.91	212.41
847.22	212.29
847.54	212.40
847.85	212.33
848.16	212.35
848.48	212.27
848.79	212.41
849.10	212.48
849.42	212.47
849.73	212.14
850.04	212.02
850.36	211.90
850.67	211.87
850.98	211.93
851.30	211.98
851.61	212.10
851.92	212.06
852.23	212.06
852.55	212.04
852.86	212.01
853.17	212.02
853.49	212.02
853.80	212.10
854.11	212.08
854.42	212.18
854.74	212.06
855.05	212.02
855.36	211.81
855.67	211.71
855.99	211.73
856.30	212.13
856.61	212.15
856.92	212.20
857.23	212.20
857.55	212.10
857.86	212.07
858.17	212.08
858.48	212.08
858.79	212.01
859.11	212.12
859.42	212.09
859.73	212.05
860.04	211.99
860.35	211.91
860.66	211.75
860.98	211.69
861.29	211.75
861.60	211.73
861.91	211.83
862.22	211.77
862.53	211.74
862.84	211.33
863.16	211.38
863.47	211.28
863.78	211.25
864.09	211.31
864.40	211.31
864.71	211.30
865.02	211.36
865.33	211.24
865.64	211.12
865.95	211.17
866.27	211.39
866.58	211.35
866.89	211.39
867.20	211.43
867.51	211.37
867.82	211.37
868.13	211.49
868.44	211.41
868.75	211.55
869.06	211.55
869.37	211.57
869.68	211.41
869.99	211.53
870.30	211.64
870.61	211.65
870.92	211.67
871.23	211.59
871.54	211.58
871.85	211.79
872.16	211.92
872.47	211.84
872.78	211.62
873.09	211.65
873.40	211.60
873.71	211.62
874.02	211.64
874.33	211.61
874.64	211.47
874.95	211.53
875.26	211.51
875.56	211.47
875.87	211.50
876.18	211.60
876.49	211.93
876.80	211.82
877.11	211.76
877.42	211.76
877.73	211.84
878.04	211.78
878.35	211.79
878.66	211.74
878.96	211.78
879.27	211.74
879.58	211.72
879.89	211.74
880.20	211.82
880.51	211.82
880.82	211.80
881.12	211.90
881.43	211.89
881.74	211.87
882.05	211.89
882.36	211.96
882.67	212.00
882.97	211.60
883.28	211.66
883.59	211.71
883.90	211.65
884.21	211.73
884.51	211.76
884.82	211.71
885.13	211.70
885.44	211.74
885.74	211.78
886.05	211.77
886.36	211.76
886.67	211.66
886.98	211.79
887.28	211.89
887.59	211.87
887.90	211.81
888.20	211.72
888.51	211.74
888.82	211.63
889.13	211.57
889.43	211.85
889.74	211.75
890.05	211.67
890.35	211.65
890.66	211.54
890.97	211.46
891.28	211.39
891.58	211.41
891.89	211.37
892.20	211.36
892.50	211.35
892.81	211.34
893.12	211.39
893.42	211.24
893.73	211.18
894.04	211.17
894.34	211.17
894.65	211.16
894.95	211.10
895.26	211.12
895.57	211.36
895.87	211.04
896.18	211.17
896.48	211.19
896.79	211.18
897.10	211.25
897.40	211.25
897.71	211.31
898.01	211.24
898.32	211.33
898.63	211.32
898.93	211.37
899.24	211.37
899.54	211.36
899.85	211.39
900.15	211.45
900.46	211.46
900.76	211.56
901.07	211.54
901.38	211.55
901.68	211.55
901.99	211.35
902.29	211.42
902.60	211.36
902.90	211.39
903.21	211.45
903.51	211.35
903.82	211.39
904.12	211.37
904.43	211.49
904.73	211.40
905.03	211.43
905.34	211.68
905.64	211.69
905.95	211.60
906.25	211.57
906.56	211.46
906.86	211.41
907.17	211.40
907.47	211.49
907.77	211.48
908.08	211.49
908.38	211.49
908.69	211.52
908.99	211.54
909.30	211.55
909.60	211.56
909.90	211.65
910.21	211.60
910.51	211.58
910.81	211.55
911.12	211.57
911.42	211.59
911.73	211.28
912.03	211.32
912.33	211.42
912.64	211.36
912.94	211.44
913.24	211.43
913.55	211.36
913.85	211.33
914.15	211.43
914.46	211.45
914.76	211.50
915.06	211.49
915.37	211.48
915.67	211.40
915.97	211.38
916.27	211.25
916.58	211.27
916.88	211.23
917.18	211.15
917.49	211.41
917.79	211.38
918.09	211.42
918.39	211.48
918.70	211.46
919.00	211.48
919.30	211.58
919.60	211.54
919.91	211.49
920.21	211.47
920.51	211.34
920.81	211.27
921.12	211.26
921.42	211.22
921.72	211.25
922.02	211.23
922.32	211.31
922.63	211.34
922.93	211.49
923.23	211.50
923.53	211.49
923.83	211.19
924.13	211.21
924.44	211.18
924.74	211.19
925.04	211.26
925.34	211.29
925.64	211.23
925.94	211.23
926.24	211.49
926.55	211.41
926.85	211.52
927.15	211.51
927.45	211.54
927.75	211.49
928.05	211.48
928.35	211.51
928.65	211.57
928.95	211.66
929.26	211.51
929.56	211.62
929.86	211.66
930.16	211.67
930.46	211.70
930.76	211.78
931.06	211.67
931.36	211.56
931.66	211.61
931.96	211.58
932.26	211.58
932.56	211.40
932.86	211.53
933.16	211.53
933.46	211.50
933.76	211.45
934.06	211.51
934.36	211.62
934.66	211.56
934.96	211.48
935.26	211.39
935.56	211.43
935.86	211.34
936.16	211.28
936.46	211.25
936.76	211.20
937.06	211.06
937.36	211.06
937.66	211.11
937.96	211.13
938.26	211.11
938.56	211.19
938.86	211.19
939.16	211.23
939.46	211.22
939.76	211.22
940.06	211.21
940.35	211.15
940.65	210.95
940.95	211.05
941.25	210.95
941.55	210.96
941.85	210.96
942.15	210.91
942.45	211.02
942.75	211.05
943.04	211.06
943.34	211.10
943.64	211.10
943.94	210.99
944.24	210.95
944.54	210.92
944.84	210.86
945.13	210.82
945.43	210.74
945.73	210.80
946.03	210.79
946.33	210.77
946.62	210.79
946.92	210.77
947.22	210.76
947.52	210.82
947.82	210.91
948.11	210.87
948.41	210.89
948.71	210.81
949.01	210.81
949.31	210.83
949.60	210.90
949.90	210.90
950.20	210.96
950.50	210.96
950.79	210.97
951.09	211.02
951.39	210.98
951.69	210.96
951.98	210.97
952.28	211.01
952.58	210.99
952.87	210.99
953.17	211.02
953.47	210.96
953.76	210.94
954.06	210.88
954.36	210.90
954.66	210.93
954.95	211.06
955.25	211.01
955.55	210.99
955.84	210.91
956.14	210.92
956.44	210.90
956.73	210.80
957.03	210.89
957.32	210.91
957.62	210.97
957.92	211.08
958.21	210.99
958.51	211.43
958.81	211.50
959.10	211.56
959.40	211.69
959.69	211.75
959.99	211.89
960.29	211.82
960.58	211.80
960.88	211.82
961.17	211.74
961.47	211.82
961.76	211.80
962.06	211.81
962.36	211.80
962.65	211.78
962.95	211.81
963.24	211.66
963.54	211.75
963.83	211.71
964.13	211.68
964.42	211.61
964.72	211.31
965.01	211.32
965.31	211.25
965.60	211.13
965.90	211.34
966.19	211.15
966.49	211.23
966.78	211.18
967.08	211.22
967.37	211.23
967.67	211.15
967.96	211.23
968.26	211.23
968.55	211.29
968.85	211.36
969.14	211.43
969.43	211.47
969.73	211.37
970.02	211.37
970.32	211.34
970.61	211.30
970.91	211.20
971.20	211.11
971.49	211.15
971.79	211.25
972.08	210.92
972.38	211.02
972.67	210.92
972.96	211.00
973.26	210.98
973.55	211.06
973.85	211.06
974.14	210.98
974.43	210.99
974.73	210.92
975.02	210.86
975.31	210.80
975.61	210.85
975.90	210.78
976.19	210.74
976.49	210.74
976.78	210.86
977.07	210.82
977.37	210.73
977.66	210.69
977.95	210.50
978.24	210.62
978.54	210.65
978.83	210.66
979.12	210.62
979.42	210.56
979.71	210.50
980.00	210.46
980.29	210.49
980.59	210.43
980.88	210.49
981.17	210.45
981.46	210.50
981.76	210.45
982.05	210.61
982.34	210.66
982.63	210.68
982.93	210.69
983.22	210.78
983.51	210.95
983.80	211.00
984.09	211.16
984.39	211.08
984.68	211.05
984.97	211.08
985.26	211.07
985.55	211.14
985.85	211.12
986.14	211.21
986.43	211.28
986.72	211.24
987.01	211.10
987.30	211.16
987.59	211.17
987.89	211.21
988.18	211.08
988.47	211.01
988.76	210.90
989.05	210.86
989.34	210.76
989.63	210.76
989.92	210.72
990.22	210.65
990.51	210.66
990.80	210.62
991.09	210.70
991.38	210.75
991.67	210.69
991.96	210.65
992.25	210.63
992.54	210.53
992.83	210.57
993.12	210.59
993.41	210.65
993.70	210.78
993.99	210.75
994.28	210.78
994.58	210.84
994.87	210.88
995.16	210.88
995.45	210.95
995.74	210.84
996.03	210.87
996.32	210.95
996.61	211.04
996.90	211.05
997.19	211.02
997.48	211.01
997.77	210.96
998.06	211.02
998.34	211.03
998.63	211.04
998.92	211.06
999.21	211.16
999.50	211.13
999.79	210.98
1000.08	211.03
1000.37	211.05
1000.66	211.01
1000.95	211.07
1001.24	211.04
1001.53	211.04
1001.82	211.05
1002.11	210.98
1002.40	211.01
1002.68	211.02
1002.97	211.28
1003.26	211.25
1003.55	211.19
1003.84	211.18
1004.13	211.28
1004.42	211.22
1004.71	211.17
1004.99	211.23
1005.28	211.30
1005.57	211.28
1005.86	211.27
1006.15	211.21
1006.44	211.16
1006.72	211.26
1007.01	211.22
1007.30	211.24
1007.59	211.25
1007.88	211.22
1008.17	211.26
1008.45	211.15
1008.74	211.07
1009.03	210.82
1009.32	210.79
1009.60	210.80
1009.89	210.84
1010.18	210.74
1010.47	210.72
1010.76	210.77
1011.04	210.72
1011.33	210.68
1011.62	210.73
1011.91	210.80
1012.19	210.81
1012.48	210.84
1012.77	210.80
1013.05	210.90
1013.34	210.95
1013.63	210.95
1013.92	211.02
1014.20	211.02
1014.49	211.09
1014.78	211.15
1015.06	211.04
1015.35	211.06
1015.64	211.09
1015.92	211.17
1016.21	211.20
1016.50	211.24
1016.78	211.31
1017.07	211.35
1017.36	211.29
1017.64	211.19
1017.93	211.17
1018.22	211.16
1018.50	211.10
1018.79	211.06
1019.08	210.96
1019.36	210.94
1019.65	210.90
1019.93	211.06
1020.22	211.10
1020.51	211.21
1020.79	211.23
1021.08	210.75
1021.36	209.70
1021.65	210.40
1021.94	210.75
1022.22	210.85
1022.51	210.75
1022.79	214.25
1023.08	211.95
1023.36	214.20
1023.65	211.75
>>>>>End Processed Spectral Data<<<<<
