SpectraSuite Data File
++++++++++++++++++++++++++++++++++++
Date: Mon Feb 25 17:03:25 EST 2013
User: group
Dark Spectrum Present: No
Reference Spectrum Present: No
Number of Sampled Component Spectra: 1
Spectrometers: USB2E7196
Integration Time (usec): 104000 (USB2E7196)
Spectra Averaged: 20 (USB2E7196)
Boxcar Smoothing: 10 (USB2E7196)
Correct for Electrical Dark: No (USB2E7196)
Strobe/Lamp Enabled: No (USB2E7196)
Correct for Detector Non-linearity: No (USB2E7196)
Correct for Stray Light: No (USB2E7196)
Number of Pixels in Processed Spectrum: 2048
>>>>>Begin Processed Spectral Data<<<<<
339.09	0.00
339.48	197.40
339.86	199.10
340.24	201.05
340.63	202.30
341.01	209.25
341.39	205.15
341.78	207.10
342.16	208.40
342.54	208.85
342.93	197.96
343.31	207.96
343.69	208.61
344.07	209.14
344.46	209.59
344.84	210.05
345.22	210.05
345.60	210.36
345.99	210.52
346.37	210.69
346.75	210.70
347.13	210.78
347.52	210.89
347.90	211.01
348.28	211.00
348.66	211.13
349.05	210.98
349.43	211.10
349.81	211.13
350.19	211.14
350.57	211.18
350.96	211.21
351.34	211.39
351.72	211.45
352.10	211.48
352.48	211.54
352.87	211.51
353.25	211.59
353.63	211.54
354.01	211.64
354.39	211.70
354.77	211.88
355.15	212.07
355.54	212.10
355.92	212.06
356.30	212.15
356.68	212.38
357.06	212.54
357.44	212.49
357.82	212.53
358.20	212.68
358.58	212.75
358.97	212.76
359.35	212.75
359.73	212.89
360.11	212.93
360.49	213.02
360.87	213.10
361.25	213.23
361.63	213.40
362.01	213.42
362.39	213.44
362.77	213.42
363.15	213.40
363.53	213.44
363.91	213.50
364.29	213.56
364.67	213.32
365.05	213.30
365.43	213.38
365.81	213.42
366.19	213.52
366.57	213.67
366.95	213.71
367.33	213.68
367.71	213.67
368.09	213.74
368.47	213.75
368.85	213.73
369.23	213.75
369.61	213.66
369.99	213.75
370.37	213.71
370.75	213.86
371.13	213.77
371.51	213.65
371.89	213.61
372.27	213.57
372.65	213.57
373.03	213.60
373.41	213.49
373.78	213.44
374.16	213.24
374.54	213.02
374.92	212.94
375.30	212.93
375.68	212.73
376.06	212.65
376.44	212.57
376.82	212.54
377.19	212.47
377.57	212.40
377.95	212.30
378.33	212.20
378.71	211.90
379.09	211.93
379.47	211.92
379.84	211.86
380.22	211.74
380.60	211.57
380.98	211.45
381.36	211.41
381.73	211.29
382.11	211.29
382.49	211.32
382.87	211.24
383.25	211.19
383.62	211.62
384.00	211.57
384.38	211.56
384.76	211.64
385.13	211.77
385.51	211.71
385.89	211.61
386.27	211.63
386.64	211.67
387.02	211.51
387.40	211.51
387.78	211.45
388.15	211.48
388.53	211.45
388.91	211.41
389.29	211.35
389.66	211.40
390.04	211.35
390.42	211.35
390.79	211.30
391.17	211.23
391.55	210.79
391.92	210.74
392.30	210.65
392.68	210.44
393.05	210.38
393.43	210.42
393.81	210.37
394.18	210.33
394.56	210.35
394.94	210.50
395.31	210.41
395.69	210.55
396.06	210.51
396.44	210.55
396.82	210.50
397.19	210.72
397.57	210.66
397.95	210.68
398.32	210.58
398.70	210.62
399.07	210.67
399.45	210.64
399.82	210.68
400.20	210.71
400.58	210.77
400.95	210.60
401.33	210.64
401.70	210.87
402.08	210.86
402.45	210.90
402.83	211.02
403.20	211.05
403.58	210.97
403.95	211.15
404.33	211.25
404.71	211.43
405.08	211.66
405.46	211.83
405.83	211.95
406.21	212.13
406.58	212.25
406.96	212.38
407.33	212.54
407.70	212.76
408.08	213.23
408.45	213.51
408.83	213.89
409.20	214.09
409.58	214.22
409.95	214.60
410.33	214.92
410.70	215.08
411.08	215.50
411.45	215.96
411.82	216.30
412.20	216.79
412.57	217.46
412.95	217.64
413.32	218.18
413.69	218.73
414.07	219.39
414.44	220.09
414.82	220.81
415.19	221.72
415.56	222.55
415.94	223.22
416.31	224.28
416.68	225.23
417.06	226.40
417.43	227.60
417.81	228.82
418.18	230.13
418.55	231.50
418.93	232.98
419.30	234.41
419.67	236.02
420.04	237.70
420.42	239.23
420.79	241.48
421.16	243.47
421.54	245.73
421.91	247.86
422.28	250.07
422.66	252.50
423.03	255.05
423.40	257.48
423.77	260.02
424.15	262.56
424.52	265.26
424.89	268.30
425.26	271.07
425.64	273.88
426.01	276.94
426.38	280.20
426.75	283.62
427.13	287.12
427.50	290.71
427.87	294.47
428.24	298.25
428.61	301.68
428.99	305.73
429.36	309.85
429.73	314.13
430.10	318.38
430.47	322.75
430.85	327.03
431.22	331.84
431.59	337.15
431.96	342.07
432.33	347.48
432.70	352.70
433.08	358.93
433.45	364.71
433.82	370.56
434.19	377.00
434.56	383.26
434.93	389.39
435.30	395.39
435.68	402.10
436.05	408.91
436.42	415.49
436.79	421.58
437.16	428.21
437.53	434.99
437.90	441.96
438.27	448.79
438.64	455.98
439.01	462.55
439.38	468.30
439.75	474.04
440.13	480.57
440.50	486.80
440.87	491.90
441.24	497.31
441.61	503.04
441.98	507.45
442.35	512.50
442.72	517.59
443.09	522.76
443.46	525.95
443.83	528.21
444.20	530.37
444.57	533.16
444.94	534.68
445.31	536.49
445.68	538.35
446.05	539.18
446.42	538.89
446.79	538.68
447.16	538.20
447.53	538.00
447.90	536.00
448.27	533.85
448.64	530.75
449.01	528.53
449.37	524.44
449.74	520.53
450.11	515.91
450.48	510.53
450.85	505.05
451.22	500.33
451.59	495.67
451.96	491.40
452.33	485.57
452.70	480.37
453.07	473.86
453.43	467.02
453.80	460.83
454.17	454.83
454.54	449.02
454.91	442.95
455.28	436.91
455.65	431.37
456.02	426.11
456.38	421.35
456.75	415.40
457.12	410.48
457.49	405.60
457.86	400.61
458.23	396.72
458.59	392.19
458.96	387.70
459.33	383.69
459.70	379.70
460.07	376.42
460.43	372.65
460.80	369.17
461.17	366.25
461.54	362.95
461.91	359.88
462.27	356.84
462.64	354.21
463.01	351.30
463.38	348.52
463.74	345.36
464.11	342.83
464.48	340.74
464.85	338.36
465.21	336.49
465.58	334.65
465.95	332.11
466.32	330.17
466.68	328.20
467.05	326.24
467.42	324.20
467.78	322.19
468.15	320.31
468.52	318.98
468.88	316.94
469.25	315.34
469.62	314.02
469.98	312.44
470.35	311.08
470.72	309.84
471.08	308.29
471.45	307.13
471.82	305.98
472.18	304.56
472.55	303.58
472.92	302.33
473.28	301.07
473.65	300.11
474.02	299.06
474.38	298.29
474.75	297.68
475.11	296.86
475.48	296.22
475.85	295.66
476.21	295.10
476.58	294.69
476.94	294.31
477.31	293.82
477.67	293.53
478.04	293.09
478.41	292.81
478.77	292.86
479.14	292.52
479.50	292.27
479.87	292.20
480.23	291.98
480.60	291.80
480.96	291.79
481.33	291.92
481.69	291.98
482.06	291.88
482.42	291.90
482.79	292.03
483.15	292.22
483.52	292.51
483.88	292.58
484.25	292.81
484.61	293.01
484.98	293.21
485.34	293.55
485.71	294.02
486.07	294.39
486.44	294.55
486.80	294.93
487.17	295.40
487.53	296.00
487.90	296.70
488.26	297.56
488.62	298.32
488.99	298.94
489.35	299.65
489.72	300.53
490.08	301.27
490.44	302.04
490.81	303.05
491.17	303.81
491.54	304.81
491.90	305.78
492.26	306.85
492.63	307.98
492.99	308.99
493.36	310.08
493.72	311.37
494.08	312.53
494.45	314.06
494.81	315.53
495.17	316.93
495.54	318.39
495.90	319.65
496.26	320.96
496.63	322.39
496.99	323.84
497.35	325.32
497.72	326.92
498.08	328.37
498.44	329.79
498.80	331.41
499.17	332.98
499.53	334.45
499.89	336.07
500.26	337.60
500.62	339.12
500.98	340.71
501.34	342.09
501.71	343.80
502.07	345.02
502.43	346.38
502.79	347.64
503.16	348.91
503.52	350.24
503.88	351.55
504.24	352.91
504.60	354.24
504.97	355.49
505.33	356.59
505.69	358.01
506.05	359.13
506.41	360.22
506.78	361.20
507.14	362.23
507.50	363.14
507.86	364.09
508.22	365.04
508.59	365.83
508.95	366.54
509.31	367.29
509.67	368.10
510.03	368.73
510.39	369.53
510.75	370.23
511.12	370.83
511.48	371.35
511.84	371.68
512.20	372.04
512.56	372.44
512.92	372.89
513.28	373.13
513.64	373.41
514.00	373.73
514.37	373.97
514.73	374.19
515.09	374.40
515.45	374.56
515.81	374.52
516.17	374.49
516.53	374.64
516.89	374.52
517.25	374.51
517.61	374.56
517.97	374.41
518.33	374.26
518.69	374.13
519.05	374.20
519.41	374.26
519.77	374.48
520.13	374.34
520.49	374.23
520.85	374.18
521.21	374.31
521.57	374.16
521.93	374.04
522.29	374.02
522.65	373.91
523.01	373.90
523.37	374.10
523.73	374.35
524.09	374.33
524.45	374.45
524.81	374.60
525.17	374.85
525.53	375.22
525.89	375.63
526.25	376.10
526.61	376.39
526.97	376.71
527.33	376.95
527.68	377.82
528.04	378.40
528.40	379.01
528.76	379.65
529.12	380.43
529.48	381.43
529.84	382.32
530.20	383.23
530.56	384.22
530.91	385.25
531.27	386.25
531.63	387.60
531.99	388.70
532.35	389.88
532.71	391.13
533.07	392.42
533.42	394.10
533.78	395.33
534.14	396.82
534.50	398.31
534.86	400.01
535.21	401.23
535.57	402.82
535.93	404.42
536.29	406.20
536.65	407.93
537.00	409.63
537.36	411.38
537.72	413.20
538.08	415.15
538.44	417.04
538.79	419.05
539.15	420.99
539.51	423.11
539.87	425.31
540.22	427.45
540.58	429.75
540.94	431.57
541.29	433.91
541.65	436.22
542.01	438.70
542.37	441.08
542.72	443.53
543.08	445.96
543.44	448.65
543.79	450.89
544.15	453.63
544.51	456.31
544.87	459.19
545.22	461.81
545.58	464.42
545.94	467.07
546.29	469.79
546.65	472.42
547.01	474.98
547.36	477.81
547.72	480.54
548.07	483.21
548.43	486.02
548.79	488.73
549.14	491.30
549.50	494.10
549.86	496.55
550.21	499.47
550.57	502.32
550.92	504.89
551.28	507.60
551.64	510.14
551.99	512.76
552.35	515.19
552.70	517.85
553.06	520.55
553.41	523.09
553.77	525.74
554.13	528.48
554.48	531.37
554.84	533.92
555.19	536.46
555.55	539.05
555.90	541.37
556.26	543.90
556.61	546.28
556.97	548.52
557.32	551.14
557.68	553.28
558.03	555.53
558.39	557.65
558.74	560.04
559.10	562.33
559.45	564.68
559.81	567.12
560.16	569.40
560.52	571.69
560.87	574.04
561.23	576.14
561.58	578.59
561.94	580.52
562.29	582.43
562.64	584.68
563.00	586.72
563.35	588.97
563.71	591.10
564.06	593.30
564.42	595.34
564.77	597.59
565.12	599.69
565.48	601.99
565.83	604.02
566.19	606.02
566.54	607.82
566.89	609.56
567.25	611.45
567.60	613.43
567.96	615.29
568.31	617.20
568.66	618.90
569.02	620.15
569.37	621.65
569.72	623.41
570.08	624.72
570.43	625.98
570.78	627.10
571.14	628.08
571.49	629.04
571.84	630.19
572.20	630.97
572.55	631.93
572.90	632.54
573.26	633.38
573.61	633.98
573.96	634.65
574.31	635.18
574.67	635.61
575.02	635.84
575.37	636.01
575.72	636.08
576.08	636.41
576.43	636.68
576.78	637.09
577.13	637.17
577.49	637.35
577.84	637.69
578.19	637.98
578.54	638.58
578.90	639.09
579.25	639.28
579.60	639.14
579.95	639.17
580.30	639.24
580.66	639.59
581.01	639.67
581.36	639.72
581.71	639.87
582.06	639.94
582.42	640.01
582.77	639.85
583.12	639.84
583.47	639.88
583.82	639.93
584.17	639.87
584.53	639.99
584.88	639.76
585.23	639.55
585.58	639.39
585.93	639.04
586.28	638.93
586.63	638.73
586.98	638.86
587.34	638.73
587.69	638.51
588.04	638.14
588.39	637.95
588.74	637.60
589.09	637.37
589.44	636.75
589.79	636.40
590.14	636.20
590.49	635.78
590.84	635.18
591.19	634.69
591.54	634.02
591.89	633.25
592.25	632.88
592.60	632.19
592.95	631.42
593.30	630.42
593.65	629.46
594.00	628.63
594.35	628.70
594.70	627.78
595.05	627.06
595.40	626.18
595.75	625.10
596.10	624.32
596.45	623.33
596.80	622.71
597.15	621.95
597.50	621.03
597.85	620.13
598.19	619.28
598.54	618.45
598.89	617.72
599.24	617.11
599.59	616.37
599.94	615.65
600.29	614.93
600.64	614.21
600.99	613.36
601.34	612.56
601.69	610.78
602.04	609.89
602.39	608.88
602.74	608.06
603.08	607.43
603.43	606.80
603.78	606.16
604.13	605.20
604.48	604.18
604.83	603.48
605.18	602.94
605.53	602.12
605.87	601.07
606.22	600.20
606.57	599.12
606.92	597.89
607.27	596.79
607.62	595.81
607.96	594.96
608.31	594.09
608.66	593.08
609.01	591.92
609.36	590.85
609.70	589.78
610.05	588.50
610.40	587.27
610.75	585.92
611.10	584.69
611.44	583.27
611.79	582.00
612.14	580.53
612.49	578.76
612.83	577.44
613.18	575.94
613.53	574.42
613.88	572.84
614.22	571.34
614.57	569.89
614.92	568.37
615.27	566.90
615.61	565.30
615.96	563.71
616.31	562.23
616.65	560.91
617.00	559.41
617.35	557.81
617.70	556.31
618.04	554.63
618.39	552.71
618.74	551.27
619.08	549.64
619.43	548.03
619.78	546.64
620.12	544.93
620.47	543.41
620.82	541.50
621.16	539.72
621.51	538.34
621.85	536.73
622.20	535.17
622.55	533.29
622.89	531.45
623.24	529.78
623.59	527.90
623.93	526.20
624.28	524.54
624.62	523.30
624.97	521.72
625.32	520.13
625.66	518.70
626.01	516.97
626.35	515.43
626.70	513.79
627.04	512.24
627.39	510.54
627.73	509.08
628.08	507.85
628.43	506.21
628.77	504.47
629.12	502.77
629.46	501.18
629.81	499.85
630.15	498.25
630.50	496.71
630.84	495.16
631.19	493.44
631.53	491.86
631.88	489.94
632.22	488.12
632.57	486.71
632.91	485.04
633.26	483.52
633.60	481.77
633.95	480.27
634.29	478.48
634.64	477.07
634.98	475.32
635.32	473.81
635.67	472.50
636.01	470.99
636.36	469.35
636.70	467.91
637.05	466.23
637.39	464.89
637.73	463.38
638.08	462.25
638.42	460.80
638.77	459.43
639.11	457.92
639.45	456.49
639.80	454.65
640.14	453.04
640.49	451.40
640.83	449.84
641.17	448.22
641.52	446.62
641.86	444.98
642.20	443.58
642.55	441.84
642.89	440.02
643.23	438.45
643.58	437.31
643.92	435.57
644.26	434.12
644.61	432.51
644.95	430.98
645.29	429.30
645.64	427.77
645.98	426.18
646.32	424.75
646.66	423.19
647.01	421.62
647.35	420.23
647.69	418.68
648.04	417.35
648.38	415.84
648.72	414.39
649.06	412.82
649.41	411.20
649.75	409.72
650.09	408.42
650.43	406.87
650.78	405.10
651.12	403.51
651.46	401.91
651.80	400.48
652.14	399.00
652.49	397.54
652.83	396.02
653.17	394.38
653.51	392.67
653.85	391.23
654.20	389.94
654.54	388.26
654.88	386.79
655.22	385.28
655.56	383.76
655.90	382.20
656.25	380.75
656.59	379.34
656.93	377.89
657.27	376.47
657.61	374.92
657.95	373.59
658.29	372.34
658.64	371.11
658.98	369.67
659.32	368.11
659.66	366.60
660.00	365.15
660.34	363.70
660.68	362.46
661.02	361.03
661.36	359.72
661.70	358.54
662.05	357.33
662.39	356.20
662.73	355.09
663.07	354.14
663.41	352.94
663.75	351.67
664.09	350.38
664.43	349.00
664.77	347.79
665.11	346.51
665.45	345.36
665.79	344.08
666.13	342.83
666.47	341.68
666.81	340.49
667.15	339.30
667.49	338.23
667.83	337.13
668.17	335.99
668.51	334.78
668.85	333.77
669.19	332.80
669.53	331.53
669.87	330.30
670.21	329.05
670.55	327.97
670.89	327.21
671.23	326.30
671.57	325.41
671.91	324.53
672.25	323.46
672.58	322.43
672.92	321.35
673.26	320.43
673.60	319.45
673.94	318.45
674.28	317.52
674.62	316.74
674.96	315.89
675.30	314.96
675.64	313.97
675.97	313.00
676.31	312.05
676.65	311.17
676.99	310.51
677.33	309.54
677.67	308.61
678.01	307.43
678.34	306.54
678.68	305.60
679.02	304.61
679.36	303.77
679.70	302.87
680.04	302.09
680.37	301.27
680.71	300.45
681.05	299.80
681.39	298.99
681.73	298.13
682.06	297.28
682.40	296.51
682.74	295.76
683.08	295.11
683.42	294.23
683.75	293.47
684.09	292.50
684.43	291.75
684.77	290.98
685.10	290.28
685.44	289.47
685.78	288.69
686.12	287.98
686.45	287.31
686.79	286.52
687.13	285.76
687.46	285.00
687.80	284.36
688.14	283.50
688.48	282.87
688.81	282.14
689.15	281.40
689.49	280.70
689.82	280.08
690.16	279.23
690.50	278.51
690.83	277.77
691.17	277.04
691.51	276.43
691.84	275.84
692.18	275.12
692.52	274.49
692.85	273.95
693.19	273.46
693.52	272.83
693.86	272.20
694.20	271.60
694.53	270.92
694.87	270.31
695.21	269.65
695.54	269.05
695.88	268.32
696.21	267.63
696.55	267.13
696.88	266.46
697.22	265.91
697.56	265.51
697.89	264.92
698.23	264.40
698.56	263.80
698.90	263.28
699.23	262.65
699.57	262.11
699.90	261.56
700.24	260.90
700.58	260.29
700.91	259.90
701.25	259.62
701.58	259.33
701.92	258.83
702.25	258.38
702.59	257.79
702.92	257.35
703.26	256.85
703.59	256.38
703.93	256.25
704.26	255.81
704.60	255.28
704.93	254.87
705.26	254.40
705.60	254.04
705.93	253.53
706.27	253.34
706.60	253.05
706.94	252.78
707.27	252.27
707.61	251.94
707.94	251.42
708.27	250.77
708.61	250.23
708.94	249.83
709.28	249.45
709.61	249.10
709.94	248.81
710.28	248.50
710.61	248.09
710.95	247.44
711.28	247.23
711.61	246.81
711.95	246.51
712.28	246.09
712.61	245.58
712.95	245.45
713.28	245.24
713.61	244.81
713.95	244.31
714.28	244.07
714.61	243.66
714.95	243.30
715.28	242.99
715.61	242.60
715.95	242.29
716.28	241.95
716.61	241.65
716.95	241.29
717.28	240.96
717.61	240.68
717.94	240.35
718.28	239.81
718.61	239.52
718.94	239.22
719.27	239.01
719.61	238.79
719.94	238.34
720.27	237.72
720.60	237.40
720.94	237.14
721.27	236.97
721.60	236.79
721.93	236.53
722.27	236.37
722.60	236.21
722.93	235.92
723.26	235.72
723.59	235.46
723.93	235.23
724.26	234.96
724.59	234.69
724.92	234.54
725.25	234.40
725.59	234.17
725.92	233.95
726.25	233.73
726.58	233.58
726.91	233.33
727.24	233.26
727.57	233.07
727.91	232.82
728.24	232.55
728.57	232.26
728.90	232.15
729.23	231.75
729.56	231.67
729.89	231.54
730.22	231.30
730.55	231.09
730.89	230.93
731.22	230.83
731.55	230.59
731.88	230.32
732.21	230.11
732.54	229.94
732.87	229.65
733.20	229.43
733.53	229.30
733.86	229.20
734.19	228.96
734.52	228.84
734.85	228.91
735.18	228.68
735.51	228.65
735.84	228.41
736.17	228.36
736.50	228.03
736.83	228.28
737.16	228.14
737.49	227.96
737.82	227.66
738.15	227.53
738.48	227.41
738.81	227.30
739.14	227.09
739.47	226.95
739.80	226.90
740.13	226.80
740.46	226.51
740.79	226.30
741.12	226.18
741.45	225.95
741.78	225.64
742.11	225.62
742.44	225.43
742.77	225.35
743.10	225.18
743.43	225.09
743.75	224.47
744.08	224.82
744.41	224.77
744.74	224.69
745.07	224.44
745.40	224.35
745.73	224.41
746.06	224.25
746.39	224.09
746.71	223.89
747.04	223.68
747.37	223.52
747.70	223.51
748.03	223.43
748.36	223.38
748.68	223.21
749.01	222.97
749.34	222.90
749.67	222.77
750.00	222.70
750.33	222.73
750.65	222.74
750.98	222.10
751.31	221.93
751.64	221.89
751.97	222.04
752.29	221.85
752.62	221.49
752.95	221.46
753.28	221.33
753.60	221.23
753.93	221.29
754.26	221.24
754.59	220.92
754.91	220.73
755.24	220.60
755.57	220.41
755.90	220.33
756.22	220.11
756.55	220.00
756.88	219.86
757.20	219.61
757.53	219.38
757.86	219.38
758.19	219.32
758.51	219.14
758.84	218.89
759.17	218.82
759.49	218.75
759.82	218.80
760.15	218.77
760.47	218.68
760.80	218.47
761.13	218.49
761.45	218.44
761.78	218.32
762.11	218.21
762.43	218.17
762.76	218.07
763.08	218.06
763.41	218.04
763.74	217.99
764.06	217.90
764.39	217.80
764.71	217.66
765.04	217.53
765.37	217.50
765.69	217.46
766.02	217.39
766.34	217.30
766.67	217.10
767.00	217.10
767.32	217.24
767.65	217.40
767.97	217.32
768.30	217.36
768.62	217.38
768.95	217.32
769.27	217.21
769.60	217.19
769.92	217.07
770.25	216.87
770.57	216.72
770.90	216.66
771.22	216.56
771.55	216.56
771.87	216.54
772.20	216.39
772.52	216.49
772.85	216.84
773.17	216.78
773.50	216.65
773.82	216.51
774.15	216.28
774.47	216.03
774.80	215.92
775.12	215.81
775.45	215.72
775.77	215.75
776.09	215.75
776.42	215.69
776.74	215.79
777.07	215.67
777.39	215.64
777.72	215.60
778.04	215.62
778.36	215.49
778.69	215.44
779.01	215.45
779.33	215.13
779.66	214.68
779.98	214.64
780.31	214.70
780.63	214.86
780.95	214.89
781.28	214.81
781.60	214.69
781.92	214.70
782.25	214.65
782.57	214.59
782.89	214.53
783.22	214.52
783.54	214.36
783.86	214.45
784.19	214.38
784.51	214.42
784.83	214.36
785.16	214.36
785.48	214.31
785.80	214.28
786.12	214.29
786.45	214.23
786.77	214.16
787.09	214.11
787.42	213.92
787.74	213.84
788.06	213.94
788.38	214.05
788.71	213.96
789.03	213.96
789.35	213.91
789.67	213.87
789.99	213.91
790.32	213.80
790.64	213.81
790.96	214.09
791.28	213.95
791.61	213.96
791.93	213.91
792.25	213.98
792.57	214.23
792.89	214.17
793.21	214.25
793.54	214.21
793.86	214.10
794.18	214.08
794.50	214.07
794.82	213.98
795.14	213.95
795.47	214.00
795.79	213.97
796.11	213.97
796.43	213.89
796.75	213.72
797.07	213.78
797.39	213.72
797.71	213.43
798.04	213.47
798.36	213.42
798.68	213.45
799.00	213.34
799.32	213.18
799.64	213.21
799.96	213.15
800.28	213.25
800.60	213.30
800.92	213.31
801.24	213.23
801.56	213.25
801.89	213.16
802.21	213.15
802.53	213.08
802.85	213.15
803.17	213.38
803.49	213.39
803.81	213.31
804.13	213.33
804.45	213.31
804.77	213.29
805.09	213.30
805.41	213.20
805.73	213.14
806.05	213.01
806.37	213.01
806.69	213.02
807.01	213.01
807.33	212.98
807.65	212.87
807.97	213.04
808.28	212.92
808.60	212.92
808.92	212.87
809.24	213.08
809.56	212.92
809.88	212.74
810.20	212.78
810.52	212.90
810.84	212.84
811.16	212.83
811.48	212.77
811.80	212.86
812.12	212.88
812.43	212.99
812.75	212.96
813.07	212.89
813.39	212.85
813.71	212.76
814.03	212.73
814.35	212.70
814.67	212.59
814.98	212.61
815.30	212.61
815.62	212.53
815.94	212.27
816.26	212.40
816.58	212.27
816.89	212.22
817.21	212.07
817.53	212.06
817.85	212.04
818.17	212.03
818.48	211.95
818.80	212.03
819.12	211.96
819.44	211.92
819.76	211.85
820.07	211.90
820.39	211.87
820.71	211.93
821.03	211.92
821.34	211.82
821.66	211.84
821.98	211.83
822.30	211.78
822.61	212.00
822.93	211.89
823.25	211.95
823.57	211.92
823.88	212.01
824.20	212.03
824.52	212.05
824.83	212.07
825.15	211.97
825.47	211.85
825.79	211.85
826.10	211.89
826.42	211.83
826.74	211.75
827.05	211.78
827.37	211.76
827.69	211.72
828.00	211.74
828.32	211.75
828.64	211.74
828.95	211.96
829.27	211.83
829.58	211.84
829.90	211.87
830.22	211.87
830.53	211.80
830.85	211.72
831.17	211.64
831.48	211.65
831.80	211.64
832.11	211.63
832.43	211.56
832.75	211.48
833.06	211.87
833.38	211.80
833.69	211.77
834.01	211.68
834.32	211.79
834.64	211.70
834.96	211.76
835.27	211.69
835.59	211.59
835.90	211.53
836.22	211.45
836.53	211.33
836.85	211.39
837.16	211.67
837.48	211.64
837.79	211.75
838.11	211.74
838.42	211.69
838.74	211.73
839.05	211.75
839.37	211.73
839.68	211.40
840.00	211.40
840.31	211.47
840.63	211.47
840.94	211.35
841.26	211.35
841.57	211.31
841.88	211.33
842.20	211.30
842.51	211.25
842.83	211.26
843.14	211.62
843.46	211.56
843.77	211.44
844.08	211.44
844.40	211.34
844.71	211.32
845.03	211.39
845.34	211.41
845.65	211.37
845.97	211.32
846.28	211.35
846.60	211.34
846.91	211.27
847.22	211.28
847.54	211.32
847.85	211.34
848.16	211.30
848.48	211.23
848.79	211.30
849.10	211.39
849.42	211.42
849.73	211.08
850.04	211.09
850.36	210.98
850.67	211.14
850.98	211.20
851.30	211.17
851.61	211.15
851.92	211.12
852.23	211.25
852.55	211.31
852.86	211.36
853.17	211.49
853.49	211.54
853.80	211.57
854.11	211.63
854.42	211.69
854.74	211.56
855.05	211.61
855.36	211.42
855.67	211.34
855.99	211.33
856.30	211.79
856.61	211.78
856.92	211.74
857.23	211.67
857.55	211.66
857.86	211.64
858.17	211.64
858.48	211.61
858.79	211.55
859.11	211.60
859.42	211.55
859.73	211.45
860.04	211.42
860.35	211.36
860.66	211.20
860.98	211.25
861.29	211.35
861.60	211.34
861.91	211.50
862.22	211.48
862.53	211.42
862.84	210.95
863.16	211.03
863.47	210.98
863.78	210.94
864.09	210.91
864.40	210.96
864.71	210.93
865.02	210.92
865.33	210.82
865.64	210.77
865.95	210.74
866.27	210.92
866.58	210.91
866.89	210.98
867.20	211.04
867.51	210.98
867.82	210.97
868.13	211.04
868.44	210.92
868.75	210.97
869.06	211.05
869.37	211.17
869.68	211.11
869.99	211.17
870.30	211.15
870.61	211.23
870.92	211.16
871.23	211.23
871.54	211.32
871.85	211.45
872.16	211.54
872.47	211.52
872.78	211.34
873.09	211.40
873.40	211.38
873.71	211.45
874.02	211.46
874.33	211.49
874.64	211.40
874.95	211.51
875.26	211.45
875.56	211.41
875.87	211.36
876.18	211.30
876.49	211.68
876.80	211.73
877.11	211.66
877.42	211.77
877.73	211.74
878.04	211.70
878.35	211.73
878.66	211.72
878.96	211.75
879.27	211.79
879.58	211.83
879.89	211.81
880.20	211.91
880.51	211.87
880.82	211.85
881.12	211.85
881.43	211.77
881.74	211.81
882.05	211.82
882.36	211.89
882.67	211.95
882.97	211.60
883.28	211.60
883.59	211.58
883.90	211.54
884.21	211.65
884.51	211.59
884.82	211.51
885.13	211.58
885.44	211.59
885.74	211.55
886.05	211.46
886.36	211.45
886.67	211.30
886.98	211.44
887.28	211.47
887.59	211.51
887.90	211.60
888.20	211.57
888.51	211.64
888.82	211.60
889.13	211.63
889.43	211.88
889.74	211.81
890.05	211.85
890.35	211.89
890.66	211.82
890.97	211.82
891.28	211.78
891.58	211.72
891.89	211.70
892.20	211.68
892.50	211.66
892.81	211.69
893.12	211.70
893.42	211.60
893.73	211.59
894.04	211.63
894.34	211.60
894.65	211.63
894.95	211.60
895.26	211.56
895.57	211.65
895.87	211.32
896.18	211.42
896.48	211.44
896.79	211.35
897.10	211.32
897.40	211.27
897.71	211.32
898.01	211.18
898.32	211.17
898.63	211.12
898.93	211.16
899.24	211.10
899.54	211.10
899.85	211.04
900.15	211.01
900.46	210.97
900.76	211.00
901.07	210.95
901.38	210.91
901.68	210.95
901.99	210.78
902.29	210.82
902.60	210.78
902.90	210.66
903.21	210.66
903.51	210.70
903.82	210.84
904.12	210.83
904.43	210.93
904.73	210.85
905.03	210.92
905.34	211.21
905.64	211.20
905.95	211.17
906.25	211.21
906.56	211.28
906.86	211.31
907.17	211.27
907.47	211.27
907.77	211.21
908.08	211.16
908.38	211.18
908.69	211.17
908.99	211.22
909.30	211.27
909.60	211.28
909.90	211.28
910.21	211.20
910.51	211.14
910.81	211.14
911.12	211.28
911.42	211.30
911.73	210.99
912.03	211.03
912.33	211.08
912.64	211.03
912.94	210.94
913.24	210.85
913.55	210.84
913.85	210.82
914.15	210.97
914.46	211.02
914.76	211.03
915.06	211.03
915.37	211.02
915.67	211.05
915.97	211.11
916.27	211.05
916.58	211.03
916.88	211.03
917.18	211.02
917.49	211.29
917.79	211.30
918.09	211.32
918.39	211.40
918.70	211.40
919.00	211.41
919.30	211.56
919.60	211.54
919.91	211.56
920.21	211.57
920.51	211.54
920.81	211.49
921.12	211.54
921.42	211.55
921.72	211.53
922.02	211.46
922.32	211.46
922.63	211.43
922.93	211.59
923.23	211.66
923.53	211.62
923.83	211.28
924.13	211.32
924.44	211.28
924.74	211.34
925.04	211.44
925.34	211.43
925.64	211.26
925.94	211.25
926.24	211.36
926.55	211.36
926.85	211.30
927.15	211.30
927.45	211.25
927.75	211.24
928.05	211.25
928.35	211.28
928.65	211.38
928.95	211.36
929.26	211.24
929.56	211.26
929.86	211.32
930.16	211.30
930.46	211.23
930.76	211.25
931.06	211.08
931.36	210.99
931.66	211.08
931.96	211.13
932.26	211.25
932.56	211.09
932.86	211.11
933.16	211.06
933.46	211.02
933.76	211.03
934.06	211.12
934.36	211.20
934.66	211.11
934.96	211.04
935.26	211.10
935.56	211.18
935.86	211.02
936.16	210.97
936.46	210.97
936.76	210.92
937.06	210.91
937.36	210.91
937.66	210.85
937.96	210.77
938.26	210.74
938.56	210.69
938.86	210.69
939.16	210.76
939.46	210.84
939.76	210.89
940.06	210.80
940.35	210.68
940.65	210.55
940.95	210.64
941.25	210.53
941.55	210.53
941.85	210.42
942.15	210.58
942.45	210.63
942.75	210.62
943.04	210.71
943.34	210.77
943.64	210.78
943.94	210.77
944.24	210.84
944.54	210.82
944.84	210.77
945.13	210.81
945.43	210.72
945.73	210.71
946.03	210.71
946.33	210.67
946.62	210.66
946.92	210.54
947.22	210.55
947.52	210.58
947.82	210.62
948.11	210.65
948.41	210.51
948.71	210.48
949.01	210.49
949.31	210.43
949.60	210.40
949.90	210.42
950.20	210.43
950.50	210.43
950.79	210.41
951.09	210.49
951.39	210.51
951.69	210.45
951.98	210.49
952.28	210.47
952.58	210.55
952.87	210.52
953.17	210.67
953.47	210.66
953.76	210.67
954.06	210.61
954.36	210.53
954.66	210.55
954.95	210.59
955.25	210.63
955.55	210.67
955.84	210.57
956.14	210.53
956.44	210.57
956.73	210.53
957.03	210.65
957.32	210.65
957.62	210.61
957.92	210.74
958.21	210.69
958.51	211.11
958.81	211.15
959.10	211.19
959.40	211.30
959.69	211.29
959.99	211.34
960.29	211.38
960.58	211.47
960.88	211.64
961.17	211.66
961.47	211.71
961.76	211.67
962.06	211.80
962.36	211.85
962.65	211.88
962.95	211.87
963.24	211.73
963.54	211.75
963.83	211.76
964.13	211.79
964.42	211.72
964.72	211.47
965.01	211.51
965.31	211.55
965.60	211.39
965.90	211.60
966.19	211.54
966.49	211.56
966.78	211.45
967.08	211.43
967.37	211.41
967.67	211.39
967.96	211.45
968.26	211.38
968.55	211.37
968.85	211.32
969.14	211.27
969.43	211.30
969.73	211.22
970.02	211.23
970.32	211.16
970.61	211.18
970.91	211.09
971.20	211.02
971.49	210.99
971.79	211.12
972.08	210.83
972.38	210.85
972.67	210.76
972.96	210.81
973.26	210.74
973.55	210.85
973.85	210.78
974.14	210.72
974.43	210.76
974.73	210.71
975.02	210.67
975.31	210.66
975.61	210.65
975.90	210.65
976.19	210.58
976.49	210.62
976.78	210.58
977.07	210.50
977.37	210.51
977.66	210.51
977.95	210.42
978.24	210.48
978.54	210.59
978.83	210.62
979.12	210.66
979.42	210.74
979.71	210.66
980.00	210.61
980.29	210.63
980.59	210.56
980.88	210.66
981.17	210.66
981.46	210.72
981.76	210.73
982.05	210.76
982.34	210.85
982.63	210.79
982.93	210.87
983.22	210.95
983.51	210.99
983.80	211.05
984.09	210.99
984.39	210.94
984.68	210.80
984.97	210.75
985.26	210.68
985.55	210.65
985.85	210.56
986.14	210.66
986.43	210.71
986.72	210.65
987.01	210.60
987.30	210.60
987.59	210.56
987.89	210.54
988.18	210.47
988.47	210.39
988.76	210.35
989.05	210.37
989.34	210.34
989.63	210.36
989.92	210.32
990.22	210.34
990.51	210.39
990.80	210.45
991.09	210.44
991.38	210.54
991.67	210.50
991.96	210.50
992.25	210.52
992.54	210.46
992.83	210.49
993.12	210.46
993.41	210.55
993.70	210.71
993.99	210.82
994.28	210.86
994.58	210.92
994.87	211.01
995.16	211.02
995.45	210.99
995.74	210.80
996.03	210.85
996.32	210.94
996.61	211.00
996.90	210.96
997.19	211.09
997.48	211.01
997.77	210.98
998.06	210.97
998.34	210.94
998.63	210.97
998.92	211.02
999.21	211.09
999.50	211.06
999.79	210.89
1000.08	210.88
1000.37	210.89
1000.66	210.87
1000.95	210.88
1001.24	210.84
1001.53	210.90
1001.82	211.00
1002.11	210.89
1002.40	210.95
1002.68	211.06
1002.97	211.33
1003.26	211.22
1003.55	211.21
1003.84	211.24
1004.13	211.31
1004.42	211.30
1004.71	211.29
1004.99	211.24
1005.28	211.29
1005.57	211.29
1005.86	211.35
1006.15	211.28
1006.44	211.28
1006.72	211.28
1007.01	211.13
1007.30	211.15
1007.59	211.06
1007.88	211.07
1008.17	211.15
1008.45	211.02
1008.74	210.90
1009.03	210.71
1009.32	210.69
1009.60	210.67
1009.89	210.61
1010.18	210.53
1010.47	210.50
1010.76	210.41
1011.04	210.42
1011.33	210.45
1011.62	210.46
1011.91	210.42
1012.19	210.46
1012.48	210.40
1012.77	210.35
1013.05	210.62
1013.34	210.60
1013.63	210.59
1013.92	210.51
1014.20	210.51
1014.49	210.52
1014.78	210.49
1015.06	210.39
1015.35	210.40
1015.64	210.52
1015.92	210.62
1016.21	210.68
1016.50	210.67
1016.78	210.79
1017.07	210.84
1017.36	210.72
1017.64	210.66
1017.93	210.66
1018.22	210.65
1018.50	210.69
1018.79	210.77
1019.08	210.59
1019.36	210.59
1019.65	210.63
1019.93	210.74
1020.22	210.76
1020.51	210.98
1020.79	211.00
1021.08	210.80
1021.36	209.90
1021.65	211.25
1021.94	210.95
1022.22	210.30
1022.51	210.55
1022.79	211.60
1023.08	211.05
1023.36	215.75
1023.65	210.65
>>>>>End Processed Spectral Data<<<<<
