SpectraSuite Data File
++++++++++++++++++++++++++++++++++++
Date: Mon Feb 25 16:58:36 EST 2013
User: group
Dark Spectrum Present: No
Reference Spectrum Present: No
Number of Sampled Component Spectra: 1
Spectrometers: USB2E7196
Integration Time (usec): 104000 (USB2E7196)
Spectra Averaged: 20 (USB2E7196)
Boxcar Smoothing: 10 (USB2E7196)
Correct for Electrical Dark: No (USB2E7196)
Strobe/Lamp Enabled: No (USB2E7196)
Correct for Detector Non-linearity: No (USB2E7196)
Correct for Stray Light: No (USB2E7196)
Number of Pixels in Processed Spectrum: 2048
>>>>>Begin Processed Spectral Data<<<<<
339.09	0.00
339.48	198.70
339.86	199.25
340.24	201.15
340.63	203.15
341.01	209.00
341.39	205.75
341.78	207.40
342.16	209.25
342.54	209.10
342.93	198.38
343.31	208.38
343.69	209.00
344.07	209.48
344.46	209.98
344.84	210.43
345.22	210.44
345.60	210.75
345.99	210.97
346.37	211.06
346.75	211.12
347.13	211.11
347.52	211.19
347.90	211.40
348.28	211.42
348.66	211.48
349.05	211.39
349.43	211.44
349.81	211.48
350.19	211.51
350.57	211.53
350.96	211.58
351.34	211.67
351.72	211.67
352.10	211.77
352.48	211.78
352.87	211.78
353.25	211.91
353.63	211.96
354.01	211.94
354.39	212.02
354.77	212.14
355.15	212.32
355.54	212.33
355.92	212.30
356.30	212.36
356.68	212.68
357.06	212.76
357.44	212.73
357.82	212.75
358.20	212.89
358.58	212.91
358.97	212.99
359.35	213.14
359.73	213.26
360.11	213.29
360.49	213.38
360.87	213.43
361.25	213.55
361.63	213.71
362.01	213.84
362.39	213.86
362.77	213.85
363.15	213.84
363.53	213.83
363.91	213.92
364.29	213.99
364.67	213.65
365.05	213.65
365.43	213.71
365.81	213.72
366.19	213.83
366.57	214.01
366.95	213.94
367.33	213.84
367.71	213.84
368.09	213.95
368.47	213.94
368.85	213.89
369.23	213.90
369.61	213.76
369.99	213.79
370.37	213.85
370.75	214.07
371.13	214.04
371.51	214.03
371.89	213.93
372.27	213.90
372.65	213.93
373.03	214.00
373.41	213.95
373.78	214.01
374.16	213.76
374.54	213.59
374.92	213.59
375.30	213.54
375.68	213.46
376.06	213.45
376.44	213.35
376.82	213.36
377.19	213.28
377.57	213.18
377.95	213.09
378.33	212.96
378.71	212.74
379.09	212.70
379.47	212.68
379.84	212.66
380.22	212.60
380.60	212.49
380.98	212.36
381.36	212.30
381.73	212.16
382.11	212.22
382.49	212.18
382.87	212.08
383.25	212.07
383.62	212.34
384.00	212.27
384.38	212.31
384.76	212.38
385.13	212.46
385.51	212.45
385.89	212.37
386.27	212.33
386.64	212.27
387.02	212.21
387.40	212.19
387.78	212.25
388.15	212.15
388.53	212.06
388.91	212.02
389.29	212.01
389.66	212.02
390.04	211.92
390.42	211.92
390.79	211.90
391.17	211.80
391.55	211.51
391.92	211.42
392.30	211.42
392.68	211.26
393.05	211.22
393.43	211.22
393.81	211.18
394.18	211.17
394.56	211.24
394.94	211.31
395.31	211.28
395.69	211.37
396.06	211.49
396.44	211.55
396.82	211.59
397.19	211.84
397.57	211.85
397.95	211.97
398.32	211.94
398.70	212.07
399.07	212.27
399.45	212.18
399.82	212.24
400.20	212.19
400.58	212.25
400.95	212.21
401.33	212.35
401.70	212.74
402.08	212.86
402.45	212.89
402.83	213.07
403.20	213.19
403.58	213.23
403.95	213.38
404.33	213.59
404.71	213.80
405.08	214.07
405.46	214.30
405.83	214.54
406.21	214.82
406.58	215.03
406.96	215.31
407.33	215.73
407.70	216.09
408.08	216.80
408.45	217.27
408.83	217.73
409.20	218.07
409.58	218.29
409.95	218.92
410.33	219.56
410.70	220.06
411.08	220.75
411.45	221.42
411.82	222.12
412.20	223.03
412.57	224.10
412.95	224.73
413.32	225.72
413.69	226.66
414.07	227.72
414.44	228.95
414.82	230.25
415.19	231.73
415.56	233.23
415.94	234.61
416.31	236.40
416.68	238.21
417.06	240.30
417.43	242.31
417.81	244.51
418.18	246.74
418.55	249.17
418.93	251.76
419.30	254.48
419.67	257.36
420.04	260.24
420.42	263.23
420.79	266.97
421.16	270.61
421.54	274.52
421.91	278.50
422.28	282.55
422.66	286.85
423.03	291.20
423.40	295.63
423.77	300.31
424.15	305.15
424.52	310.12
424.89	315.62
425.26	320.95
425.64	325.91
426.01	331.67
426.38	337.56
426.75	343.61
427.13	349.74
427.50	356.21
427.87	363.07
428.24	369.87
428.61	376.30
428.99	383.49
429.36	391.15
429.73	398.82
430.10	406.57
430.47	414.45
430.85	422.53
431.22	431.25
431.59	440.50
431.96	449.30
432.33	459.12
432.70	468.67
433.08	479.93
433.45	490.51
433.82	501.02
434.19	512.76
434.56	524.19
434.93	535.38
435.30	546.59
435.68	558.96
436.05	571.34
436.42	583.72
436.79	595.06
437.16	607.41
437.53	620.49
437.90	633.29
438.27	646.08
438.64	659.37
439.01	671.86
439.38	682.96
439.75	693.76
440.13	706.06
440.50	717.72
440.87	727.37
441.24	737.63
441.61	748.70
441.98	757.17
442.35	767.05
442.72	776.99
443.09	786.52
443.46	792.61
443.83	796.97
444.20	800.85
444.57	806.19
444.94	809.23
445.31	812.29
445.68	815.45
446.05	817.06
446.42	816.79
446.79	816.09
447.16	815.46
447.53	815.31
447.90	811.47
448.27	807.68
448.64	801.87
449.01	797.79
449.37	790.11
449.74	782.86
450.11	773.78
450.48	763.96
450.85	753.93
451.22	745.41
451.59	737.28
451.96	729.50
452.33	718.75
452.70	709.15
453.07	697.33
453.43	685.35
453.80	673.96
454.17	662.94
454.54	652.51
454.91	641.22
455.28	630.21
455.65	620.11
456.02	609.87
456.38	601.41
456.75	590.43
457.12	581.34
457.49	572.25
457.86	563.56
458.23	555.84
458.59	547.57
458.96	539.25
459.33	531.88
459.70	524.52
460.07	518.63
460.43	511.74
460.80	505.42
461.17	499.73
461.54	493.94
461.91	488.40
462.27	482.70
462.64	477.85
463.01	472.38
463.38	467.27
463.74	461.98
464.11	457.27
464.48	453.37
464.85	449.07
465.21	445.79
465.58	442.30
465.95	438.12
466.32	434.59
466.68	430.88
467.05	427.30
467.42	423.69
467.78	419.95
468.15	416.42
468.52	413.75
468.88	410.39
469.25	407.28
469.62	404.78
469.98	402.06
470.35	399.60
470.72	397.34
471.08	394.71
471.45	392.51
471.82	390.38
472.18	388.00
472.55	386.23
472.92	384.06
473.28	382.22
473.65	380.33
474.02	378.44
474.38	377.07
474.75	375.88
475.11	374.42
475.48	373.40
475.85	372.38
476.21	371.40
476.58	370.60
476.94	369.97
477.31	369.26
477.67	368.68
478.04	368.08
478.41	367.75
478.77	367.60
479.14	367.17
479.50	366.90
479.87	366.84
480.23	366.83
480.60	366.75
480.96	366.64
481.33	367.08
481.69	367.40
482.06	367.55
482.42	367.66
482.79	368.01
483.15	368.54
483.52	369.30
483.88	369.87
484.25	370.44
484.61	371.09
484.98	371.71
485.34	372.74
485.71	373.94
486.07	374.88
486.44	375.82
486.80	377.11
487.17	378.54
487.53	380.14
487.90	381.70
488.26	383.52
488.62	385.38
488.99	387.15
489.35	389.09
489.72	391.21
490.08	393.38
490.44	395.64
490.81	397.87
491.17	400.05
491.54	402.55
491.90	405.26
492.26	407.97
492.63	410.82
492.99	413.52
493.36	416.39
493.72	419.64
494.08	422.86
494.45	426.29
494.81	429.64
495.17	433.06
495.54	436.74
495.90	440.29
496.26	443.95
496.63	447.68
496.99	451.59
497.35	455.57
497.72	459.63
498.08	463.76
498.44	468.11
498.80	472.72
499.17	477.26
499.53	481.70
499.89	486.35
500.26	490.81
500.62	495.26
500.98	499.98
501.34	504.64
501.71	509.32
502.07	513.98
502.43	518.72
502.79	523.20
503.16	528.05
503.52	532.82
503.88	537.63
504.24	542.33
504.60	547.10
504.97	551.95
505.33	556.65
505.69	561.55
506.05	566.38
506.41	570.86
506.78	575.24
507.14	579.53
507.50	583.86
507.86	588.37
508.22	592.86
508.59	597.04
508.95	601.18
509.31	605.26
509.67	609.28
510.03	613.34
510.39	617.63
510.75	621.30
511.12	625.32
511.48	629.06
511.84	632.91
512.20	636.50
512.56	639.94
512.92	643.65
513.28	647.13
513.64	650.34
514.00	653.63
514.37	656.83
514.73	660.22
515.09	663.37
515.45	666.47
515.81	669.45
516.17	672.38
516.53	675.17
516.89	677.88
517.25	680.45
517.61	682.99
517.97	685.37
518.33	687.55
518.69	689.80
519.05	692.08
519.41	694.36
519.77	696.83
520.13	698.97
520.49	700.83
520.85	702.69
521.21	704.60
521.57	706.56
521.93	708.27
522.29	710.00
522.65	711.89
523.01	713.58
523.37	715.08
523.73	716.77
524.09	718.51
524.45	720.16
524.81	721.80
525.17	723.48
525.53	725.06
525.89	726.99
526.25	728.49
526.61	729.71
526.97	731.00
527.33	732.11
527.68	733.85
528.04	735.30
528.40	736.37
528.76	737.78
529.12	739.18
529.48	740.91
529.84	742.39
530.20	743.83
530.56	745.31
530.91	747.21
531.27	748.81
531.63	750.24
531.99	751.97
532.35	753.70
532.71	755.30
533.07	757.26
533.42	759.16
533.78	760.90
534.14	762.91
534.50	764.63
534.86	766.80
535.21	768.34
535.57	770.38
535.93	772.42
536.29	774.61
536.65	776.70
537.00	778.44
537.36	780.19
537.72	781.89
538.08	783.78
538.44	785.55
538.79	787.58
539.15	789.68
539.51	791.81
539.87	794.03
540.22	796.19
540.58	798.49
540.94	800.56
541.29	802.53
541.65	804.55
542.01	806.89
542.37	808.96
542.72	810.93
543.08	812.75
543.44	815.22
543.79	816.91
544.15	818.82
544.51	821.42
544.87	824.07
545.22	826.43
545.58	828.64
545.94	830.68
546.29	832.65
546.65	834.57
547.01	836.27
547.36	838.15
547.72	840.03
548.07	841.61
548.43	843.33
548.79	845.26
549.14	847.16
549.50	849.03
549.86	850.70
550.21	852.88
550.57	855.35
550.92	857.02
551.28	859.10
551.64	861.14
551.99	862.89
552.35	864.69
552.70	866.50
553.06	868.59
553.41	870.85
553.77	873.09
554.13	875.30
554.48	877.69
554.84	879.85
555.19	881.96
555.55	884.25
555.90	886.04
556.26	887.97
556.61	889.60
556.97	891.40
557.32	893.16
557.68	894.56
558.03	895.93
558.39	897.53
558.74	899.33
559.10	901.16
559.45	902.79
559.81	904.35
560.16	905.67
560.52	907.20
560.87	908.60
561.23	909.61
561.58	911.12
561.94	912.23
562.29	913.53
562.64	914.85
563.00	915.93
563.35	917.43
563.71	919.23
564.06	921.01
564.42	922.45
564.77	924.18
565.12	926.10
565.48	927.85
565.83	929.44
566.19	930.96
566.54	931.99
566.89	933.26
567.25	934.74
567.60	936.59
567.96	938.00
568.31	939.36
568.66	940.83
569.02	941.63
569.37	942.37
569.72	943.22
570.08	944.10
570.43	944.87
570.78	945.58
571.14	945.80
571.49	945.95
571.84	946.46
572.20	946.51
572.55	946.59
572.90	946.30
573.26	946.15
573.61	945.75
573.96	945.77
574.31	945.43
574.67	944.73
575.02	943.68
575.37	942.76
575.72	941.74
576.08	940.96
576.43	940.24
576.78	939.81
577.13	938.84
577.49	937.96
577.84	937.04
578.19	936.21
578.54	935.50
578.90	935.20
579.25	934.28
579.60	933.11
579.95	931.73
580.30	930.85
580.66	929.90
581.01	928.58
581.36	927.11
581.71	925.78
582.06	924.60
582.42	923.45
582.77	922.02
583.12	920.52
583.47	919.13
583.82	917.67
584.17	915.91
584.53	914.64
584.88	912.97
585.23	911.34
585.58	909.71
585.93	907.97
586.28	906.23
586.63	904.49
586.98	903.08
587.34	901.80
587.69	900.01
588.04	898.22
588.39	896.64
588.74	894.85
589.09	893.24
589.44	891.13
589.79	889.45
590.14	887.72
590.49	886.17
590.84	884.17
591.19	882.57
591.54	880.91
591.89	878.57
592.25	876.90
592.60	874.82
592.95	872.44
593.30	870.00
593.65	867.40
594.00	864.71
594.35	863.44
594.70	861.00
595.05	858.80
595.40	856.37
595.75	853.97
596.10	851.87
596.45	849.49
596.80	847.65
597.15	845.51
597.50	842.82
597.85	840.38
598.19	838.01
598.54	835.48
598.89	833.14
599.24	831.43
599.59	829.10
599.94	826.95
600.29	824.76
600.64	822.66
600.99	820.39
601.34	818.56
601.69	815.18
602.04	812.70
602.39	810.10
602.74	807.92
603.08	805.77
603.43	803.65
603.78	801.32
604.13	798.75
604.48	796.29
604.83	794.50
605.18	792.44
605.53	790.06
605.87	787.56
606.22	785.35
606.57	782.65
606.92	779.88
607.27	777.16
607.62	774.67
607.96	772.37
608.31	770.05
608.66	767.27
609.01	764.65
609.36	761.93
609.70	759.21
610.05	756.45
610.40	753.60
610.75	750.56
611.10	748.15
611.44	745.15
611.79	742.25
612.14	739.13
612.49	735.93
612.83	733.09
613.18	730.14
613.53	727.02
613.88	723.98
614.22	721.11
614.57	718.32
614.92	715.36
615.27	712.30
615.61	709.20
615.96	706.59
616.31	703.84
616.65	701.48
617.00	698.81
617.35	695.99
617.70	693.07
618.04	690.15
618.39	686.78
618.74	684.05
619.08	680.99
619.43	678.40
619.78	675.81
620.12	673.00
620.47	670.37
620.82	667.30
621.16	664.26
621.51	661.32
621.85	658.42
622.20	655.60
622.55	652.60
622.89	649.76
623.24	646.69
623.59	643.63
623.93	640.39
624.28	637.58
624.62	635.07
624.97	632.43
625.32	629.67
625.66	627.00
626.01	624.31
626.35	621.73
626.70	618.76
627.04	616.00
627.39	613.35
627.73	610.62
628.08	608.33
628.43	605.68
628.77	603.03
629.12	600.36
629.46	597.90
629.81	595.24
630.15	592.45
630.50	589.85
630.84	587.18
631.19	584.82
631.53	582.15
631.88	579.20
632.22	576.45
632.57	574.10
632.91	571.63
633.26	569.08
633.60	566.57
633.95	564.08
634.29	561.44
634.64	559.13
634.98	556.59
635.32	554.10
635.67	552.03
636.01	549.77
636.36	547.29
636.70	544.96
637.05	542.77
637.39	540.74
637.73	538.71
638.08	536.88
638.42	534.70
638.77	532.72
639.11	530.60
639.45	528.54
639.80	525.98
640.14	523.53
640.49	521.28
640.83	519.00
641.17	516.89
641.52	514.65
641.86	512.17
642.20	510.01
642.55	507.46
642.89	504.97
643.23	502.62
643.58	500.71
643.92	498.28
644.26	496.02
644.61	493.79
644.95	491.38
645.29	488.90
645.64	486.61
645.98	484.16
646.32	481.90
646.66	479.51
647.01	477.47
647.35	475.55
647.69	473.35
648.04	471.25
648.38	469.17
648.72	467.22
649.06	465.06
649.41	462.89
649.75	460.85
650.09	458.80
650.43	456.78
650.78	454.55
651.12	452.48
651.46	450.35
651.80	448.38
652.14	446.41
652.49	444.43
652.83	442.30
653.17	440.34
653.51	438.37
653.85	436.55
654.20	434.59
654.54	432.47
654.88	430.46
655.22	428.55
655.56	426.46
655.90	424.27
656.25	422.24
656.59	420.33
656.93	418.54
657.27	416.79
657.61	414.84
657.95	413.06
658.29	411.30
658.64	409.68
658.98	407.68
659.32	405.64
659.66	403.90
660.00	402.06
660.34	400.10
660.68	398.28
661.02	396.44
661.36	394.72
661.70	393.03
662.05	391.40
662.39	389.82
662.73	388.23
663.07	386.94
663.41	385.55
663.75	383.92
664.09	382.27
664.43	380.46
664.77	378.87
665.11	377.15
665.45	375.55
665.79	373.84
666.13	372.33
666.47	370.97
666.81	369.38
667.15	367.99
667.49	366.80
667.83	365.52
668.17	364.09
668.51	362.72
668.85	361.40
669.19	360.14
669.53	358.60
669.87	357.22
670.21	355.70
670.55	354.29
670.89	353.25
671.23	352.05
671.57	350.94
671.91	349.66
672.25	348.46
672.58	347.33
672.92	346.09
673.26	344.90
673.60	343.71
673.94	342.46
674.28	341.20
674.62	339.95
674.96	338.73
675.30	337.49
675.64	336.26
675.97	335.13
676.31	333.92
676.65	332.84
676.99	331.88
677.33	330.61
677.67	329.41
678.01	328.15
678.34	326.94
678.68	325.98
679.02	324.86
679.36	323.78
679.70	322.65
680.04	321.62
680.37	320.65
680.71	319.57
681.05	318.63
681.39	317.60
681.73	316.58
682.06	315.60
682.40	314.77
682.74	313.77
683.08	312.89
683.42	311.80
683.75	310.87
684.09	309.78
684.43	308.90
684.77	307.95
685.10	306.82
685.44	305.94
685.78	304.78
686.12	303.97
686.45	303.03
686.79	302.08
687.13	301.35
687.46	300.41
687.80	299.70
688.14	298.73
688.48	298.00
688.81	297.15
689.15	296.35
689.49	295.43
689.82	294.57
690.16	293.52
690.50	292.70
690.83	291.78
691.17	290.82
691.51	289.99
691.84	289.25
692.18	288.38
692.52	287.57
692.85	286.92
693.19	286.15
693.52	285.35
693.86	284.53
694.20	283.61
694.53	282.83
694.87	281.86
695.21	281.05
695.54	280.22
695.88	279.35
696.21	278.47
696.55	277.73
696.88	277.08
697.22	276.28
697.56	275.62
697.89	274.86
698.23	274.25
698.56	273.53
698.90	272.90
699.23	272.36
699.57	271.72
699.90	270.95
700.24	270.26
700.58	269.65
700.91	269.10
701.25	268.71
701.58	268.12
701.92	267.65
702.25	267.14
702.59	266.45
702.92	265.93
703.26	265.32
703.59	264.71
703.93	264.37
704.26	264.00
704.60	263.49
704.93	263.07
705.26	262.45
705.60	261.98
705.93	261.30
706.27	260.91
706.60	260.45
706.94	260.13
707.27	259.62
707.61	259.19
707.94	258.61
708.27	257.89
708.61	257.30
708.94	256.77
709.28	256.25
709.61	255.79
709.94	255.30
710.28	254.84
710.61	254.50
710.95	253.73
711.28	253.36
711.61	252.97
711.95	252.54
712.28	252.17
712.61	251.77
712.95	251.56
713.28	251.23
713.61	250.69
713.95	250.19
714.28	249.85
714.61	249.32
714.95	248.91
715.28	248.50
715.61	248.13
715.95	247.69
716.28	247.31
716.61	247.05
716.95	246.66
717.28	246.30
717.61	245.85
717.94	245.55
718.28	245.10
718.61	244.73
718.94	244.36
719.27	243.93
719.61	243.58
719.94	243.16
720.27	242.64
720.60	242.36
720.94	242.05
721.27	241.69
721.60	241.49
721.93	241.17
722.27	240.98
722.60	240.74
722.93	240.48
723.26	240.28
723.59	239.92
723.93	239.70
724.26	239.43
724.59	239.24
724.92	238.97
725.25	238.73
725.59	238.40
725.92	238.15
726.25	237.94
726.58	237.68
726.91	237.38
727.24	237.11
727.57	236.91
727.91	236.54
728.24	236.20
728.57	235.97
728.90	235.88
729.23	235.49
729.56	235.41
729.89	235.18
730.22	234.84
730.55	234.51
730.89	234.26
731.22	234.09
731.55	233.81
731.88	233.55
732.21	233.25
732.54	232.95
732.87	232.77
733.20	232.53
733.53	232.33
733.86	232.22
734.19	232.00
734.52	231.82
734.85	231.91
735.18	231.76
735.51	231.61
735.84	231.36
736.17	231.38
736.50	231.00
736.83	231.17
737.16	230.97
737.49	230.82
737.82	230.55
738.15	230.35
738.48	230.09
738.81	229.85
739.14	229.59
739.47	229.46
739.80	229.15
740.13	228.92
740.46	228.60
740.79	228.32
741.12	228.18
741.45	227.92
741.78	227.51
742.11	227.40
742.44	227.07
742.77	226.90
743.10	226.57
743.43	226.38
743.75	225.84
744.08	226.20
744.41	226.09
744.74	225.89
745.07	225.73
745.40	225.73
745.73	225.89
746.06	225.73
746.39	225.58
746.71	225.44
747.04	225.33
747.37	225.24
747.70	225.15
748.03	224.95
748.36	224.86
748.68	224.72
749.01	224.46
749.34	224.41
749.67	224.28
750.00	224.20
750.33	224.33
750.65	224.19
750.98	223.68
751.31	223.52
751.64	223.48
751.97	223.47
752.29	223.30
752.62	222.89
752.95	222.77
753.28	222.66
753.60	222.57
753.93	222.56
754.26	222.46
754.59	222.27
754.91	222.08
755.24	221.95
755.57	221.84
755.90	221.72
756.22	221.57
756.55	221.45
756.88	221.29
757.20	220.93
757.53	220.72
757.86	220.50
758.19	220.40
758.51	220.26
758.84	220.03
759.17	219.81
759.49	219.82
759.82	219.92
760.15	219.79
760.47	219.64
760.80	219.50
761.13	219.45
761.45	219.34
761.78	219.30
762.11	219.18
762.43	219.11
762.76	219.15
763.08	219.09
763.41	218.99
763.74	218.88
764.06	218.85
764.39	218.82
764.71	218.73
765.04	218.67
765.37	218.49
765.69	218.43
766.02	218.36
766.34	218.18
766.67	217.90
767.00	217.89
767.32	218.03
767.65	218.12
767.97	218.02
768.30	217.99
768.62	217.97
768.95	217.88
769.27	217.78
769.60	217.68
769.92	217.50
770.25	217.43
770.57	217.35
770.90	217.24
771.22	217.14
771.55	217.11
771.87	217.07
772.20	217.05
772.52	217.27
772.85	217.67
773.17	217.65
773.50	217.61
773.82	217.52
774.15	217.33
774.47	217.06
774.80	217.00
775.12	216.91
775.45	216.83
775.77	216.79
776.09	216.72
776.42	216.65
776.74	216.77
777.07	216.71
777.39	216.70
777.72	216.63
778.04	216.63
778.36	216.53
778.69	216.54
779.01	216.54
779.33	216.15
779.66	215.72
779.98	215.63
780.31	215.70
780.63	215.76
780.95	215.73
781.28	215.71
781.60	215.66
781.92	215.62
782.25	215.58
782.57	215.46
782.89	215.41
783.22	215.30
783.54	215.13
783.86	215.08
784.19	214.96
784.51	215.00
784.83	214.87
785.16	214.85
785.48	214.76
785.80	214.74
786.12	214.71
786.45	214.67
786.77	214.66
787.09	214.60
787.42	214.41
787.74	214.39
788.06	214.33
788.38	214.33
788.71	214.21
789.03	214.22
789.35	214.35
789.67	214.29
789.99	214.35
790.32	214.31
790.64	214.35
790.96	214.65
791.28	214.58
791.61	214.58
791.93	214.56
792.25	214.51
792.57	214.69
792.89	214.58
793.21	214.51
793.54	214.47
793.86	214.41
794.18	214.43
794.50	214.34
794.82	214.30
795.14	214.21
795.47	214.33
795.79	214.30
796.11	214.19
796.43	214.13
796.75	214.10
797.07	214.12
797.39	214.04
797.71	213.78
798.04	213.76
798.36	213.79
798.68	213.77
799.00	213.75
799.32	213.55
799.64	213.66
799.96	213.69
800.28	213.70
800.60	213.67
800.92	213.72
801.24	213.69
801.56	213.70
801.89	213.76
802.21	213.71
802.53	213.54
802.85	213.59
803.17	213.80
803.49	213.78
803.81	213.70
804.13	213.71
804.45	213.66
804.77	213.67
805.09	213.63
805.41	213.60
805.73	213.55
806.05	213.47
806.37	213.50
806.69	213.40
807.01	213.41
807.33	213.40
807.65	213.30
807.97	213.46
808.28	213.48
808.60	213.39
808.92	213.41
809.24	213.70
809.56	213.66
809.88	213.51
810.20	213.48
810.52	213.61
810.84	213.55
811.16	213.50
811.48	213.49
811.80	213.64
812.12	213.52
812.43	213.57
812.75	213.63
813.07	213.49
813.39	213.54
813.71	213.49
814.03	213.48
814.35	213.48
814.67	213.31
814.98	213.25
815.30	213.25
815.62	213.16
815.94	212.95
816.26	212.93
816.58	212.85
816.89	212.88
817.21	212.78
817.53	212.79
817.85	212.83
818.17	212.81
818.48	212.68
818.80	212.83
819.12	212.73
819.44	212.67
819.76	212.70
820.07	212.71
820.39	212.65
820.71	212.65
821.03	212.65
821.34	212.65
821.66	212.70
821.98	212.74
822.30	212.75
822.61	212.92
822.93	212.94
823.25	212.94
823.57	212.82
823.88	212.86
824.20	212.84
824.52	212.86
824.83	212.85
825.15	212.82
825.47	212.80
825.79	212.89
826.10	212.89
826.42	212.82
826.74	212.87
827.05	212.89
827.37	212.87
827.69	212.85
828.00	212.89
828.32	212.87
828.64	212.80
828.95	212.94
829.27	212.82
829.58	212.72
829.90	212.79
830.22	212.89
830.53	212.73
830.85	212.73
831.17	212.61
831.48	212.55
831.80	212.52
832.11	212.47
832.43	212.40
832.75	212.36
833.06	212.55
833.38	212.39
833.69	212.40
834.01	212.44
834.32	212.42
834.64	212.33
834.96	212.26
835.27	212.25
835.59	212.12
835.90	212.06
836.22	212.08
836.53	212.00
836.85	211.99
837.16	212.40
837.48	212.38
837.79	212.47
838.11	212.51
838.42	212.53
838.74	212.54
839.05	212.46
839.37	212.45
839.68	212.28
840.00	212.25
840.31	212.21
840.63	212.11
840.94	212.08
841.26	212.06
841.57	212.08
841.88	212.09
842.20	212.02
842.51	211.94
842.83	211.90
843.14	212.24
843.46	212.19
843.77	211.99
844.08	211.98
844.40	211.95
844.71	211.94
845.03	211.88
845.34	211.81
845.65	211.81
845.97	211.78
846.28	211.79
846.60	211.85
846.91	211.87
847.22	211.90
847.54	211.89
847.85	211.94
848.16	211.93
848.48	211.90
848.79	212.06
849.10	212.15
849.42	212.15
849.73	211.76
850.04	211.66
850.36	211.53
850.67	211.58
850.98	211.53
851.30	211.52
851.61	211.53
851.92	211.60
852.23	211.69
852.55	211.70
852.86	211.75
853.17	211.75
853.49	211.82
853.80	211.96
854.11	212.00
854.42	212.05
854.74	211.99
855.05	211.97
855.36	211.74
855.67	211.70
855.99	211.72
856.30	212.11
856.61	212.14
856.92	212.18
857.23	212.22
857.55	212.21
857.86	212.23
858.17	212.21
858.48	212.14
858.79	212.10
859.11	212.20
859.42	212.14
859.73	212.16
860.04	212.08
860.35	211.95
860.66	211.87
860.98	211.76
861.29	211.77
861.60	211.81
861.91	211.90
862.22	211.89
862.53	211.84
862.84	211.44
863.16	211.54
863.47	211.41
863.78	211.37
864.09	211.45
864.40	211.45
864.71	211.52
865.02	211.57
865.33	211.55
865.64	211.46
865.95	211.46
866.27	211.59
866.58	211.53
866.89	211.55
867.20	211.52
867.51	211.50
867.82	211.54
868.13	211.61
868.44	211.61
868.75	211.70
869.06	211.68
869.37	211.77
869.68	211.59
869.99	211.67
870.30	211.61
870.61	211.51
870.92	211.43
871.23	211.40
871.54	211.42
871.85	211.41
872.16	211.44
872.47	211.41
872.78	211.24
873.09	211.28
873.40	211.22
873.71	211.22
874.02	211.24
874.33	211.18
874.64	211.18
874.95	211.12
875.26	211.01
875.56	211.05
875.87	210.97
876.18	211.05
876.49	211.37
876.80	211.34
877.11	211.29
877.42	211.27
877.73	211.30
878.04	211.26
878.35	211.33
878.66	211.26
878.96	211.26
879.27	211.26
879.58	211.30
879.89	211.34
880.20	211.47
880.51	211.50
880.82	211.53
881.12	211.48
881.43	211.49
881.74	211.48
882.05	211.53
882.36	211.55
882.67	211.62
882.97	211.28
883.28	211.32
883.59	211.38
883.90	211.49
884.21	211.51
884.51	211.50
884.82	211.45
885.13	211.50
885.44	211.51
885.74	211.51
886.05	211.40
886.36	211.37
886.67	211.30
886.98	211.36
887.28	211.33
887.59	211.40
887.90	211.42
888.20	211.37
888.51	211.43
888.82	211.41
889.13	211.36
889.43	211.62
889.74	211.56
890.05	211.49
890.35	211.46
890.66	211.30
890.97	211.24
891.28	211.19
891.58	211.24
891.89	211.23
892.20	211.18
892.50	211.17
892.81	211.15
893.12	211.10
893.42	211.06
893.73	211.07
894.04	211.03
894.34	211.09
894.65	211.16
894.95	211.09
895.26	211.07
895.57	211.19
895.87	210.85
896.18	210.99
896.48	211.06
896.79	210.97
897.10	211.11
897.40	211.15
897.71	211.22
898.01	211.20
898.32	211.26
898.63	211.27
898.93	211.31
899.24	211.32
899.54	211.30
899.85	211.25
900.15	211.32
900.46	211.24
900.76	211.28
901.07	211.24
901.38	211.20
901.68	211.24
901.99	211.13
902.29	211.20
902.60	211.14
902.90	211.11
903.21	211.17
903.51	211.19
903.82	211.33
904.12	211.27
904.43	211.23
904.73	211.18
905.03	211.23
905.34	211.65
905.64	211.70
905.95	211.75
906.25	211.77
906.56	211.70
906.86	211.78
907.17	211.65
907.47	211.71
907.77	211.69
908.08	211.64
908.38	211.61
908.69	211.65
908.99	211.68
909.30	211.69
909.60	211.66
909.90	211.64
910.21	211.41
910.51	211.47
910.81	211.48
911.12	211.48
911.42	211.46
911.73	211.00
912.03	210.92
912.33	210.99
912.64	210.97
912.94	210.99
913.24	210.96
913.55	210.95
913.85	210.91
914.15	211.01
914.46	211.07
914.76	211.04
915.06	211.01
915.37	211.04
915.67	211.01
915.97	211.05
916.27	210.99
916.58	211.07
916.88	211.04
917.18	211.01
917.49	211.25
917.79	211.20
918.09	211.30
918.39	211.50
918.70	211.47
919.00	211.43
919.30	211.59
919.60	211.50
919.91	211.52
920.21	211.53
920.51	211.40
920.81	211.37
921.12	211.44
921.42	211.46
921.72	211.47
922.02	211.46
922.32	211.58
922.63	211.59
922.93	211.72
923.23	211.68
923.53	211.67
923.83	211.45
924.13	211.56
924.44	211.60
924.74	211.62
925.04	211.66
925.34	211.66
925.64	211.49
925.94	211.46
926.24	211.66
926.55	211.60
926.85	211.63
927.15	211.67
927.45	211.63
927.75	211.53
928.05	211.50
928.35	211.59
928.65	211.58
928.95	211.66
929.26	211.62
929.56	211.71
929.86	211.77
930.16	211.74
930.46	211.64
930.76	211.51
931.06	211.32
931.36	211.23
931.66	211.32
931.96	211.37
932.26	211.49
932.56	211.27
932.86	211.31
933.16	211.32
933.46	211.27
933.76	211.26
934.06	211.41
934.36	211.50
934.66	211.39
934.96	211.34
935.26	211.30
935.56	211.33
935.86	211.26
936.16	211.22
936.46	211.22
936.76	211.19
937.06	211.22
937.36	211.26
937.66	211.26
937.96	211.26
938.26	211.20
938.56	211.07
938.86	211.13
939.16	211.20
939.46	211.21
939.76	211.23
940.06	211.22
940.35	211.13
940.65	210.94
940.95	210.98
941.25	210.83
941.55	210.79
941.85	210.69
942.15	210.71
942.45	210.81
942.75	210.80
943.04	210.80
943.34	210.90
943.64	210.85
943.94	210.76
944.24	210.69
944.54	210.66
944.84	210.70
945.13	210.65
945.43	210.60
945.73	210.60
946.03	210.57
946.33	210.50
946.62	210.45
946.92	210.42
947.22	210.43
947.52	210.51
947.82	210.57
948.11	210.56
948.41	210.43
948.71	210.33
949.01	210.34
949.31	210.31
949.60	210.22
949.90	210.28
950.20	210.29
950.50	210.27
950.79	210.35
951.09	210.44
951.39	210.40
951.69	210.38
951.98	210.50
952.28	210.53
952.58	210.59
952.87	210.65
953.17	210.74
953.47	210.72
953.76	210.72
954.06	210.64
954.36	210.64
954.66	210.76
954.95	210.81
955.25	210.83
955.55	210.85
955.84	210.84
956.14	210.91
956.44	210.96
956.73	210.95
957.03	210.89
957.32	210.79
957.62	210.74
957.92	210.78
958.21	210.65
958.51	211.06
958.81	211.05
959.10	211.06
959.40	211.11
959.69	211.12
959.99	211.12
960.29	211.06
960.58	211.04
960.88	211.10
961.17	211.12
961.47	211.20
961.76	211.20
962.06	211.26
962.36	211.15
962.65	211.14
962.95	211.22
963.24	211.16
963.54	211.27
963.83	211.36
964.13	211.29
964.42	211.20
964.72	210.90
965.01	210.94
965.31	210.88
965.60	210.78
965.90	210.97
966.19	210.90
966.49	211.04
966.78	211.04
967.08	211.05
967.37	211.06
967.67	210.97
967.96	211.05
968.26	210.96
968.55	211.05
968.85	211.03
969.14	210.98
969.43	211.03
969.73	210.98
970.02	211.00
970.32	211.04
970.61	211.12
970.91	210.97
971.20	210.97
971.49	210.93
971.79	211.02
972.08	210.77
972.38	210.80
972.67	210.68
972.96	210.68
973.26	210.61
973.55	210.57
973.85	210.53
974.14	210.45
974.43	210.53
974.73	210.41
975.02	210.40
975.31	210.42
975.61	210.38
975.90	210.33
976.19	210.25
976.49	210.29
976.78	210.28
977.07	210.35
977.37	210.34
977.66	210.42
977.95	210.29
978.24	210.35
978.54	210.43
978.83	210.45
979.12	210.50
979.42	210.50
979.71	210.49
980.00	210.45
980.29	210.52
980.59	210.48
980.88	210.61
981.17	210.62
981.46	210.67
981.76	210.75
982.05	210.84
982.34	210.90
982.63	210.89
982.93	210.94
983.22	211.02
983.51	211.05
983.80	211.10
984.09	211.19
984.39	211.18
984.68	211.12
984.97	211.21
985.26	211.18
985.55	211.15
985.85	211.15
986.14	211.25
986.43	211.23
986.72	211.19
987.01	211.02
987.30	211.01
987.59	210.90
987.89	210.87
988.18	210.84
988.47	210.81
988.76	210.75
989.05	210.68
989.34	210.60
989.63	210.63
989.92	210.57
990.22	210.52
990.51	210.53
990.80	210.54
991.09	210.51
991.38	210.53
991.67	210.56
991.96	210.49
992.25	210.50
992.54	210.45
992.83	210.46
993.12	210.49
993.41	210.48
993.70	210.59
993.99	210.65
994.28	210.66
994.58	210.67
994.87	210.63
995.16	210.61
995.45	210.58
995.74	210.49
996.03	210.49
996.32	210.57
996.61	210.67
996.90	210.61
997.19	210.65
997.48	210.67
997.77	210.61
998.06	210.64
998.34	210.66
998.63	210.71
998.92	210.72
999.21	210.86
999.50	210.96
999.79	210.91
1000.08	210.89
1000.37	210.83
1000.66	210.80
1000.95	210.94
1001.24	210.98
1001.53	211.01
1001.82	211.03
1002.11	211.00
1002.40	210.99
1002.68	211.03
1002.97	211.30
1003.26	211.16
1003.55	211.09
1003.84	211.14
1004.13	211.25
1004.42	211.21
1004.71	211.19
1004.99	211.16
1005.28	211.18
1005.57	211.12
1005.86	211.10
1006.15	211.06
1006.44	211.04
1006.72	211.13
1007.01	211.06
1007.30	211.09
1007.59	211.12
1007.88	211.11
1008.17	211.16
1008.45	211.14
1008.74	210.95
1009.03	210.70
1009.32	210.78
1009.60	210.78
1009.89	210.77
1010.18	210.61
1010.47	210.60
1010.76	210.63
1011.04	210.65
1011.33	210.68
1011.62	210.69
1011.91	210.74
1012.19	210.80
1012.48	210.85
1012.77	210.80
1013.05	210.94
1013.34	210.98
1013.63	210.95
1013.92	210.94
1014.20	210.92
1014.49	210.97
1014.78	211.06
1015.06	211.05
1015.35	211.03
1015.64	211.11
1015.92	211.13
1016.21	211.20
1016.50	211.17
1016.78	211.25
1017.07	211.30
1017.36	211.19
1017.64	211.17
1017.93	211.20
1018.22	211.18
1018.50	211.16
1018.79	211.18
1019.08	211.08
1019.36	211.04
1019.65	210.97
1019.93	211.11
1020.22	211.13
1020.51	211.26
1020.79	211.20
1021.08	210.90
1021.36	210.20
1021.65	211.25
1021.94	211.30
1022.22	210.90
1022.51	210.00
1022.79	212.85
1023.08	211.35
1023.36	214.85
1023.65	210.05
>>>>>End Processed Spectral Data<<<<<
