SpectraSuite Data File
++++++++++++++++++++++++++++++++++++
Date: Mon Feb 25 17:04:09 EST 2013
User: group
Dark Spectrum Present: No
Reference Spectrum Present: No
Number of Sampled Component Spectra: 1
Spectrometers: USB2E7196
Integration Time (usec): 104000 (USB2E7196)
Spectra Averaged: 20 (USB2E7196)
Boxcar Smoothing: 10 (USB2E7196)
Correct for Electrical Dark: No (USB2E7196)
Strobe/Lamp Enabled: No (USB2E7196)
Correct for Detector Non-linearity: No (USB2E7196)
Correct for Stray Light: No (USB2E7196)
Number of Pixels in Processed Spectrum: 2048
>>>>>Begin Processed Spectral Data<<<<<
339.09	0.00
339.48	196.70
339.86	198.95
340.24	201.05
340.63	202.60
341.01	209.75
341.39	205.90
341.78	206.65
342.16	209.20
342.54	208.95
342.93	198.15
343.31	208.17
343.69	208.81
344.07	209.35
344.46	209.83
344.84	210.25
345.22	210.28
345.60	210.53
345.99	210.75
346.37	210.80
346.75	210.81
347.13	210.73
347.52	210.82
347.90	210.94
348.28	210.94
348.66	210.98
349.05	210.89
349.43	210.87
349.81	210.80
350.19	210.81
350.57	210.79
350.96	210.85
351.34	210.89
351.72	210.95
352.10	211.06
352.48	211.06
352.87	211.05
353.25	211.06
353.63	211.04
354.01	211.03
354.39	211.16
354.77	211.27
355.15	211.43
355.54	211.44
355.92	211.36
356.30	211.39
356.68	211.65
357.06	211.72
357.44	211.83
357.82	212.02
358.20	212.10
358.58	212.16
358.97	212.25
359.35	212.32
359.73	212.40
360.11	212.39
360.49	212.40
360.87	212.49
361.25	212.56
361.63	212.75
362.01	212.81
362.39	212.78
362.77	212.83
363.15	212.91
363.53	212.97
363.91	213.06
364.29	213.09
364.67	212.84
365.05	212.85
365.43	212.85
365.81	212.79
366.19	213.00
366.57	213.13
366.95	213.11
367.33	213.12
367.71	213.14
368.09	213.16
368.47	213.22
368.85	213.19
369.23	213.25
369.61	213.05
369.99	213.17
370.37	213.17
370.75	213.30
371.13	213.13
371.51	213.06
371.89	213.02
372.27	213.06
372.65	213.06
373.03	213.03
373.41	213.01
373.78	212.96
374.16	212.72
374.54	212.59
374.92	212.51
375.30	212.45
375.68	212.34
376.06	212.30
376.44	212.20
376.82	212.16
377.19	212.09
377.57	212.08
377.95	211.94
378.33	211.84
378.71	211.59
379.09	211.60
379.47	211.61
379.84	211.52
380.22	211.44
380.60	211.38
380.98	211.28
381.36	211.24
381.73	211.14
382.11	211.16
382.49	211.11
382.87	210.94
383.25	210.87
383.62	211.21
384.00	211.16
384.38	211.13
384.76	211.17
385.13	211.26
385.51	211.20
385.89	211.09
386.27	211.06
386.64	211.16
387.02	211.07
387.40	210.99
387.78	210.97
388.15	210.94
388.53	210.84
388.91	210.84
389.29	210.74
389.66	210.76
390.04	210.69
390.42	210.73
390.79	210.81
391.17	210.80
391.55	210.34
391.92	210.30
392.30	210.35
392.68	210.30
393.05	210.32
393.43	210.39
393.81	210.46
394.18	210.49
394.56	210.45
394.94	210.58
395.31	210.60
395.69	210.70
396.06	210.75
396.44	210.82
396.82	210.81
397.19	211.07
397.57	211.05
397.95	211.09
398.32	210.95
398.70	210.98
399.07	210.99
399.45	211.08
399.82	211.06
400.20	211.08
400.58	211.03
400.95	210.85
401.33	210.93
401.70	211.12
402.08	211.20
402.45	211.23
402.83	211.29
403.20	211.34
403.58	211.38
403.95	211.48
404.33	211.51
404.71	211.58
405.08	211.76
405.46	211.87
405.83	211.99
406.21	212.20
406.58	212.39
406.96	212.58
407.33	212.68
407.70	212.92
408.08	213.28
408.45	213.58
408.83	213.85
409.20	214.03
409.58	214.08
409.95	214.35
410.33	214.64
410.70	214.85
411.08	215.22
411.45	215.55
411.82	215.83
412.20	216.37
412.57	217.01
412.95	217.18
413.32	217.78
413.69	218.27
414.07	218.80
414.44	219.36
414.82	219.98
415.19	220.82
415.56	221.57
415.94	222.22
416.31	223.10
416.68	224.08
417.06	225.07
417.43	226.20
417.81	227.25
418.18	228.41
418.55	229.72
418.93	231.00
419.30	232.36
419.67	233.82
420.04	235.24
420.42	236.69
420.79	238.72
421.16	240.51
421.54	242.59
421.91	244.64
422.28	246.69
422.66	248.86
423.03	251.15
423.40	253.36
423.77	255.82
424.15	258.23
424.52	260.71
424.89	263.54
425.26	266.07
425.64	268.65
426.01	271.51
426.38	274.39
426.75	277.40
427.13	280.44
427.50	283.66
427.87	287.05
428.24	290.46
428.61	293.51
428.99	297.18
429.36	301.03
429.73	304.79
430.10	308.66
430.47	312.67
430.85	316.58
431.22	320.95
431.59	325.67
431.96	329.91
432.33	334.84
432.70	339.60
433.08	345.23
433.45	350.56
433.82	355.76
434.19	361.62
434.56	367.44
434.93	372.96
435.30	378.52
435.68	384.68
436.05	390.80
436.42	397.10
436.79	402.68
437.16	408.50
437.53	414.81
437.90	421.07
438.27	427.32
438.64	433.68
439.01	439.73
439.38	444.99
439.75	450.45
440.13	456.36
440.50	461.99
440.87	466.69
441.24	471.52
441.61	476.88
441.98	480.90
442.35	485.56
442.72	490.33
443.09	494.96
443.46	497.96
443.83	500.01
444.20	501.67
444.57	504.28
444.94	505.69
445.31	507.30
445.68	509.01
446.05	509.86
446.42	509.71
446.79	509.41
447.16	508.99
447.53	508.76
447.90	506.82
448.27	504.74
448.64	501.82
449.01	499.94
449.37	496.14
449.74	492.44
450.11	488.12
450.48	483.23
450.85	478.19
451.22	473.85
451.59	469.84
451.96	466.02
452.33	460.50
452.70	455.72
453.07	449.84
453.43	443.61
453.80	437.84
454.17	432.41
454.54	427.30
454.91	421.77
455.28	416.35
455.65	411.35
456.02	406.76
456.38	402.54
456.75	397.07
457.12	392.64
457.49	388.27
457.86	383.80
458.23	380.14
458.59	376.14
458.96	372.00
459.33	368.25
459.70	364.65
460.07	361.83
460.43	358.55
460.80	355.33
461.17	352.58
461.54	349.72
461.91	347.00
462.27	344.03
462.64	341.55
463.01	338.89
463.38	336.41
463.74	333.44
464.11	331.07
464.48	329.05
464.85	326.77
465.21	325.14
465.58	323.38
465.95	321.20
466.32	319.33
466.68	317.55
467.05	315.80
467.42	313.95
467.78	312.05
468.15	310.33
468.52	309.13
468.88	307.43
469.25	305.77
469.62	304.55
469.98	303.22
470.35	301.99
470.72	300.78
471.08	299.39
471.45	298.35
471.82	297.33
472.18	296.17
472.55	295.38
472.92	294.32
473.28	293.29
473.65	292.36
474.02	291.52
474.38	290.77
474.75	290.20
475.11	289.43
475.48	288.90
475.85	288.34
476.21	287.69
476.58	287.34
476.94	287.10
477.31	286.49
477.67	286.09
478.04	285.75
478.41	285.48
478.77	285.57
479.14	285.22
479.50	284.97
479.87	284.86
480.23	284.60
480.60	284.36
480.96	284.27
481.33	284.46
481.69	284.36
482.06	284.26
482.42	284.13
482.79	284.15
483.15	284.12
483.52	284.35
483.88	284.50
484.25	284.52
484.61	284.67
484.98	284.95
485.34	285.38
485.71	285.71
486.07	286.06
486.44	286.14
486.80	286.60
487.17	287.01
487.53	287.59
487.90	288.25
488.26	289.08
488.62	289.79
488.99	290.25
489.35	290.98
489.72	291.73
490.08	292.54
490.44	293.22
490.81	294.05
491.17	294.85
491.54	295.74
491.90	296.73
492.26	297.73
492.63	298.75
492.99	299.72
493.36	300.68
493.72	301.77
494.08	302.77
494.45	303.93
494.81	305.21
495.17	306.37
495.54	307.77
495.90	308.82
496.26	309.97
496.63	311.27
496.99	312.64
497.35	314.03
497.72	315.39
498.08	316.85
498.44	318.34
498.80	319.78
499.17	321.23
499.53	322.66
499.89	324.14
500.26	325.52
500.62	326.80
500.98	328.39
501.34	329.74
501.71	331.27
502.07	332.59
502.43	333.82
502.79	334.96
503.16	336.08
503.52	337.40
503.88	338.64
504.24	339.86
504.60	341.13
504.97	342.32
505.33	343.50
505.69	344.76
506.05	345.91
506.41	346.98
506.78	347.95
507.14	348.84
507.50	349.70
507.86	350.74
508.22	351.76
508.59	352.39
508.95	353.32
509.31	354.22
509.67	354.97
510.03	355.73
510.39	356.55
510.75	357.25
511.12	357.91
511.48	358.61
511.84	359.15
512.20	359.60
512.56	360.14
512.92	360.56
513.28	361.04
513.64	361.36
514.00	361.75
514.37	362.16
514.73	362.69
515.09	362.96
515.45	363.15
515.81	363.29
516.17	363.69
516.53	363.85
516.89	363.86
517.25	364.06
517.61	364.39
517.97	364.51
518.33	364.61
518.69	364.80
519.05	364.99
519.41	365.38
519.77	365.83
520.13	366.05
520.49	366.17
520.85	366.22
521.21	366.55
521.57	366.77
521.93	366.91
522.29	367.15
522.65	367.43
523.01	367.82
523.37	368.29
523.73	368.60
524.09	369.03
524.45	369.46
524.81	369.92
525.17	370.50
525.53	371.19
525.89	371.85
526.25	372.52
526.61	373.16
526.97	373.80
527.33	374.52
527.68	375.58
528.04	376.59
528.40	377.62
528.76	378.63
529.12	379.60
529.48	380.80
529.84	381.90
530.20	383.23
530.56	384.44
530.91	385.77
531.27	387.28
531.63	388.83
531.99	390.34
532.35	391.90
532.71	393.19
533.07	394.82
533.42	396.79
533.78	398.39
534.14	400.07
534.50	401.70
534.86	403.45
535.21	404.93
535.57	406.90
535.93	408.66
536.29	410.67
536.65	412.81
537.00	414.72
537.36	416.71
537.72	418.72
538.08	420.98
538.44	423.03
538.79	425.09
539.15	427.10
539.51	429.35
539.87	431.65
540.22	434.18
540.58	436.61
540.94	438.71
541.29	441.19
541.65	443.56
542.01	446.22
542.37	448.88
542.72	451.50
543.08	454.00
543.44	456.73
543.79	459.13
544.15	461.74
544.51	464.59
544.87	467.33
545.22	470.00
545.58	472.58
545.94	475.20
546.29	477.86
546.65	480.72
547.01	483.32
547.36	486.09
547.72	488.83
548.07	491.48
548.43	494.13
548.79	496.74
549.14	499.33
549.50	501.83
549.86	504.08
550.21	506.76
550.57	509.37
550.92	511.88
551.28	514.48
551.64	516.99
551.99	519.45
552.35	522.03
552.70	524.50
553.06	527.01
553.41	529.67
553.77	532.37
554.13	534.99
554.48	537.75
554.84	540.34
555.19	542.79
555.55	545.30
555.90	547.66
556.26	550.07
556.61	552.69
556.97	554.98
557.32	557.43
557.68	559.70
558.03	561.85
558.39	564.21
558.74	566.49
559.10	568.81
559.45	571.19
559.81	573.48
560.16	575.73
560.52	578.01
560.87	580.18
561.23	582.17
561.58	584.35
561.94	586.20
562.29	588.06
562.64	589.98
563.00	591.90
563.35	594.05
563.71	596.10
564.06	598.03
564.42	600.19
564.77	602.28
565.12	604.31
565.48	606.61
565.83	608.46
566.19	610.42
566.54	612.08
566.89	613.72
567.25	615.44
567.60	617.22
567.96	618.95
568.31	620.67
568.66	622.21
569.02	623.36
569.37	624.69
569.72	626.11
570.08	627.38
570.43	628.63
570.78	629.49
571.14	630.41
571.49	631.30
571.84	632.28
572.20	633.10
572.55	633.84
572.90	634.13
573.26	634.72
573.61	635.11
573.96	635.87
574.31	636.35
574.67	636.64
575.02	636.82
575.37	636.80
575.72	636.80
576.08	637.11
576.43	637.17
576.78	637.44
577.13	637.53
577.49	637.73
577.84	637.76
578.19	638.17
578.54	638.54
578.90	638.92
579.25	638.92
579.60	638.78
579.95	638.70
580.30	638.96
580.66	639.18
581.01	639.30
581.36	639.07
581.71	639.03
582.06	639.26
582.42	639.39
582.77	639.38
583.12	639.38
583.47	639.32
583.82	639.42
584.17	639.29
584.53	639.35
584.88	639.03
585.23	639.01
585.58	638.80
585.93	638.42
586.28	638.25
586.63	637.97
586.98	637.84
587.34	637.78
587.69	637.23
588.04	636.83
588.39	636.44
588.74	635.96
589.09	635.65
589.44	634.98
589.79	634.48
590.14	634.14
590.49	633.65
590.84	633.11
591.19	632.80
591.54	632.31
591.89	631.37
592.25	631.14
592.60	630.25
592.95	629.46
593.30	628.62
593.65	627.49
594.00	626.62
594.35	626.66
594.70	625.66
595.05	625.01
595.40	624.16
595.75	623.28
596.10	622.41
596.45	621.63
596.80	620.89
597.15	620.18
597.50	619.26
597.85	618.45
598.19	617.35
598.54	616.43
598.89	615.56
599.24	615.14
599.59	614.10
599.94	613.42
600.29	612.50
600.64	611.78
600.99	611.08
601.34	610.44
601.69	608.64
602.04	607.68
602.39	606.67
602.74	605.84
603.08	605.12
603.43	604.55
603.78	603.63
604.13	602.84
604.48	601.93
604.83	601.28
605.18	600.53
605.53	599.76
605.87	598.70
606.22	597.77
606.57	596.58
606.92	595.64
607.27	594.57
607.62	593.62
607.96	592.75
608.31	591.78
608.66	590.66
609.01	589.61
609.36	588.52
609.70	587.45
610.05	586.13
610.40	584.99
610.75	583.71
611.10	582.54
611.44	580.99
611.79	579.59
612.14	577.96
612.49	576.36
612.83	575.16
613.18	573.75
613.53	572.35
613.88	570.82
614.22	569.25
614.57	567.84
614.92	566.44
615.27	564.81
615.61	563.46
615.96	561.97
616.31	560.54
616.65	559.51
617.00	558.16
617.35	556.68
617.70	554.98
618.04	553.36
618.39	551.54
618.74	550.03
619.08	548.40
619.43	547.00
619.78	545.44
620.12	543.68
620.47	542.11
620.82	540.40
621.16	538.73
621.51	537.29
621.85	535.67
622.20	533.90
622.55	532.31
622.89	530.50
623.24	528.75
623.59	527.08
623.93	525.12
624.28	523.60
624.62	522.50
624.97	521.10
625.32	519.45
625.66	517.93
626.01	516.35
626.35	514.74
626.70	513.04
627.04	511.70
627.39	510.17
627.73	508.75
628.08	507.35
628.43	505.72
628.77	503.98
629.12	502.24
629.46	500.91
629.81	499.29
630.15	497.65
630.50	496.10
630.84	494.44
631.19	492.99
631.53	491.29
631.88	489.10
632.22	487.20
632.57	485.83
632.91	484.27
633.26	482.84
633.60	481.22
633.95	479.83
634.29	478.03
634.64	476.53
634.98	474.68
635.32	473.17
635.67	471.87
636.01	470.39
636.36	468.92
636.70	467.42
637.05	465.90
637.39	464.35
637.73	462.93
638.08	461.83
638.42	460.35
638.77	458.87
639.11	457.46
639.45	456.00
639.80	454.31
640.14	452.66
640.49	451.03
640.83	449.57
641.17	448.00
641.52	446.34
641.86	444.57
642.20	443.24
642.55	441.52
642.89	439.88
643.23	438.31
643.58	437.00
643.92	435.28
644.26	433.75
644.61	432.33
644.95	430.77
645.29	428.84
645.64	427.14
645.98	425.45
646.32	424.02
646.66	422.44
647.01	420.95
647.35	419.61
647.69	417.89
648.04	416.40
648.38	414.84
648.72	413.52
649.06	412.11
649.41	410.51
649.75	408.85
650.09	407.40
650.43	405.79
650.78	404.05
651.12	402.54
651.46	400.96
651.80	399.45
652.14	397.96
652.49	396.65
652.83	395.27
653.17	393.74
653.51	392.16
653.85	390.89
654.20	389.37
654.54	387.75
654.88	386.38
655.22	385.06
655.56	383.52
655.90	381.99
656.25	380.53
656.59	379.04
656.93	377.77
657.27	376.42
657.61	374.97
657.95	373.66
658.29	372.19
658.64	370.90
658.98	369.42
659.32	367.90
659.66	366.44
660.00	364.88
660.34	363.59
660.68	362.15
661.02	360.64
661.36	359.27
661.70	358.08
662.05	356.78
662.39	355.55
662.73	354.39
663.07	353.35
663.41	352.18
663.75	350.84
664.09	349.59
664.43	348.18
664.77	346.95
665.11	345.56
665.45	344.46
665.79	343.17
666.13	341.98
666.47	340.80
666.81	339.71
667.15	338.61
667.49	337.51
667.83	336.63
668.17	335.48
668.51	334.50
668.85	333.44
669.19	332.52
669.53	331.21
669.87	330.06
670.21	328.81
670.55	327.66
670.89	326.90
671.23	325.85
671.57	324.86
671.91	324.00
672.25	323.12
672.58	322.15
672.92	321.18
673.26	320.25
673.60	319.31
673.94	318.32
674.28	317.34
674.62	316.45
674.96	315.36
675.30	314.59
675.64	313.61
675.97	312.55
676.31	311.56
676.65	310.70
676.99	309.93
677.33	308.96
677.67	308.15
678.01	307.11
678.34	306.30
678.68	305.61
679.02	304.62
679.36	303.77
679.70	302.89
680.04	302.04
680.37	301.25
680.71	300.39
681.05	299.73
681.39	299.08
681.73	298.24
682.06	297.42
682.40	296.55
682.74	295.73
683.08	295.14
683.42	294.27
683.75	293.57
684.09	292.64
684.43	291.98
684.77	291.21
685.10	290.45
685.44	289.59
685.78	288.75
686.12	288.08
686.45	287.32
686.79	286.56
687.13	285.94
687.46	285.21
687.80	284.65
688.14	283.78
688.48	282.96
688.81	282.29
689.15	281.69
689.49	280.91
689.82	280.25
690.16	279.33
690.50	278.60
690.83	277.81
691.17	277.06
691.51	276.40
691.84	275.71
692.18	275.03
692.52	274.40
692.85	273.78
693.19	273.29
693.52	272.66
693.86	271.99
694.20	271.36
694.53	270.74
694.87	270.00
695.21	269.29
695.54	268.69
695.88	267.98
696.21	267.30
696.55	266.82
696.88	266.30
697.22	265.76
697.56	265.21
697.89	264.69
698.23	264.27
698.56	263.61
698.90	263.11
699.23	262.47
699.57	261.94
699.90	261.43
700.24	260.65
700.58	260.09
700.91	259.65
701.25	259.28
701.58	258.82
701.92	258.36
702.25	258.00
702.59	257.49
702.92	257.01
703.26	256.45
703.59	256.00
703.93	255.71
704.26	255.33
704.60	254.96
704.93	254.49
705.26	253.99
705.60	253.53
705.93	253.00
706.27	252.73
706.60	252.43
706.94	252.15
707.27	251.77
707.61	251.38
707.94	250.91
708.27	250.33
708.61	249.81
708.94	249.45
709.28	249.00
709.61	248.56
709.94	248.19
710.28	247.88
710.61	247.56
710.95	246.90
711.28	246.76
711.61	246.42
711.95	246.16
712.28	245.75
712.61	245.48
712.95	245.35
713.28	245.11
713.61	244.67
713.95	244.17
714.28	243.90
714.61	243.54
714.95	243.23
715.28	242.81
715.61	242.54
715.95	242.15
716.28	241.80
716.61	241.62
716.95	241.30
717.28	241.03
717.61	240.66
717.94	240.38
718.28	239.80
718.61	239.44
718.94	238.99
719.27	238.73
719.61	238.44
719.94	238.07
720.27	237.60
720.60	237.36
720.94	237.15
721.27	236.91
721.60	236.72
721.93	236.41
722.27	236.30
722.60	236.15
722.93	235.89
723.26	235.76
723.59	235.46
723.93	235.26
724.26	234.96
724.59	234.69
724.92	234.52
725.25	234.40
725.59	234.18
725.92	234.12
726.25	233.81
726.58	233.64
726.91	233.41
727.24	233.28
727.57	233.08
727.91	232.80
728.24	232.58
728.57	232.32
728.90	232.24
729.23	231.92
729.56	231.80
729.89	231.64
730.22	231.38
730.55	231.04
730.89	230.90
731.22	230.70
731.55	230.46
731.88	230.27
732.21	229.96
732.54	229.73
732.87	229.44
733.20	229.34
733.53	229.15
733.86	228.94
734.19	228.66
734.52	228.53
734.85	228.59
735.18	228.40
735.51	228.33
735.84	228.18
736.17	228.12
736.50	227.80
736.83	228.08
737.16	227.85
737.49	227.92
737.82	227.60
738.15	227.51
738.48	227.44
738.81	227.27
739.14	227.16
739.47	227.02
739.80	226.90
740.13	226.80
740.46	226.61
740.79	226.48
741.12	226.34
741.45	226.07
741.78	225.70
742.11	225.63
742.44	225.44
742.77	225.30
743.10	225.06
743.43	224.86
743.75	224.28
744.08	224.62
744.41	224.39
744.74	224.26
745.07	224.07
745.40	223.98
745.73	223.93
746.06	223.80
746.39	223.70
746.71	223.55
747.04	223.39
747.37	223.20
747.70	223.13
748.03	223.06
748.36	223.03
748.68	223.00
749.01	222.78
749.34	222.68
749.67	222.56
750.00	222.53
750.33	222.66
750.65	222.56
750.98	222.01
751.31	221.86
751.64	221.82
751.97	221.94
752.29	221.79
752.62	221.54
752.95	221.34
753.28	221.19
753.60	221.06
753.93	221.03
754.26	221.01
754.59	220.82
754.91	220.67
755.24	220.52
755.57	220.34
755.90	220.31
756.22	220.14
756.55	219.93
756.88	219.81
757.20	219.49
757.53	219.29
757.86	219.24
758.19	219.24
758.51	219.14
758.84	218.85
759.17	218.73
759.49	218.71
759.82	218.87
760.15	218.86
760.47	218.85
760.80	218.63
761.13	218.64
761.45	218.45
761.78	218.44
762.11	218.35
762.43	218.25
762.76	218.11
763.08	218.09
763.41	218.15
763.74	218.10
764.06	218.03
764.39	217.97
764.71	217.94
765.04	217.76
765.37	217.69
765.69	217.64
766.02	217.57
766.34	217.47
766.67	217.29
767.00	217.23
767.32	217.29
767.65	217.54
767.97	217.46
768.30	217.50
768.62	217.38
768.95	217.30
769.27	217.24
769.60	217.25
769.92	217.14
770.25	216.97
770.57	216.86
770.90	216.80
771.22	216.70
771.55	216.65
771.87	216.60
772.20	216.54
772.52	216.73
772.85	217.04
773.17	217.01
773.50	216.90
773.82	216.88
774.15	216.71
774.47	216.37
774.80	216.26
775.12	216.17
775.45	216.18
775.77	216.24
776.09	216.27
776.42	216.20
776.74	216.19
777.07	216.14
777.39	216.05
777.72	215.91
778.04	215.99
778.36	215.85
778.69	215.89
779.01	215.85
779.33	215.50
779.66	215.08
779.98	215.03
780.31	214.96
780.63	214.94
780.95	214.88
781.28	214.81
781.60	214.70
781.92	214.71
782.25	214.61
782.57	214.52
782.89	214.34
783.22	214.32
783.54	214.26
783.86	214.28
784.19	214.31
784.51	214.47
784.83	214.36
785.16	214.31
785.48	214.24
785.80	214.25
786.12	214.24
786.45	214.32
786.77	214.33
787.09	214.30
787.42	214.14
787.74	214.18
788.06	214.18
788.38	214.14
788.71	214.01
789.03	213.95
789.35	213.95
789.67	214.01
789.99	213.96
790.32	213.99
790.64	213.94
790.96	214.14
791.28	213.92
791.61	213.90
791.93	213.86
792.25	213.84
792.57	214.08
792.89	214.02
793.21	214.02
793.54	213.88
793.86	213.89
794.18	213.91
794.50	213.86
794.82	213.80
795.14	213.85
795.47	213.91
795.79	213.94
796.11	213.85
796.43	213.70
796.75	213.70
797.07	213.62
797.39	213.62
797.71	213.40
798.04	213.46
798.36	213.48
798.68	213.53
799.00	213.59
799.32	213.36
799.64	213.46
799.96	213.34
800.28	213.45
800.60	213.40
800.92	213.43
801.24	213.34
801.56	213.37
801.89	213.36
802.21	213.35
802.53	213.29
802.85	213.37
803.17	213.61
803.49	213.54
803.81	213.50
804.13	213.40
804.45	213.37
804.77	213.37
805.09	213.30
805.41	213.20
805.73	213.08
806.05	213.00
806.37	212.88
806.69	212.81
807.01	212.77
807.33	212.80
807.65	212.69
807.97	212.84
808.28	212.77
808.60	212.77
808.92	212.74
809.24	212.95
809.56	212.87
809.88	212.75
810.20	212.74
810.52	212.77
810.84	212.76
811.16	212.67
811.48	212.69
811.80	212.87
812.12	212.88
812.43	212.93
812.75	213.02
813.07	213.04
813.39	213.08
813.71	213.01
814.03	212.94
814.35	212.96
814.67	212.86
814.98	212.86
815.30	212.72
815.62	212.65
815.94	212.40
816.26	212.45
816.58	212.34
816.89	212.33
817.21	212.30
817.53	212.33
817.85	212.31
818.17	212.26
818.48	212.05
818.80	212.13
819.12	212.04
819.44	211.87
819.76	211.85
820.07	211.86
820.39	211.83
820.71	211.91
821.03	211.86
821.34	211.83
821.66	211.85
821.98	211.94
822.30	211.95
822.61	212.18
822.93	212.03
823.25	212.06
823.57	212.06
823.88	212.10
824.20	212.09
824.52	212.19
824.83	212.18
825.15	212.21
825.47	212.19
825.79	212.23
826.10	212.27
826.42	212.22
826.74	212.30
827.05	212.25
827.37	212.20
827.69	212.19
828.00	212.18
828.32	212.26
828.64	212.23
828.95	212.35
829.27	212.19
829.58	212.24
829.90	212.30
830.22	212.28
830.53	212.16
830.85	212.15
831.17	212.04
831.48	212.08
831.80	212.08
832.11	212.01
832.43	211.98
832.75	211.91
833.06	212.12
833.38	211.91
833.69	211.94
834.01	211.95
834.32	211.94
834.64	211.90
834.96	211.78
835.27	211.77
835.59	211.72
835.90	211.67
836.22	211.66
836.53	211.54
836.85	211.51
837.16	211.91
837.48	211.86
837.79	211.97
838.11	212.00
838.42	211.94
838.74	212.00
839.05	211.99
839.37	212.03
839.68	211.84
840.00	211.83
840.31	211.86
840.63	211.81
840.94	211.84
841.26	211.80
841.57	211.84
841.88	211.83
842.20	211.73
842.51	211.72
842.83	211.71
843.14	212.00
843.46	212.05
843.77	211.85
844.08	211.88
844.40	211.80
844.71	211.74
845.03	211.76
845.34	211.68
845.65	211.66
845.97	211.69
846.28	211.67
846.60	211.71
846.91	211.69
847.22	211.70
847.54	211.67
847.85	211.68
848.16	211.67
848.48	211.63
848.79	211.83
849.10	211.89
849.42	211.93
849.73	211.60
850.04	211.53
850.36	211.40
850.67	211.43
850.98	211.40
851.30	211.37
851.61	211.37
851.92	211.36
852.23	211.51
852.55	211.48
852.86	211.50
853.17	211.55
853.49	211.68
853.80	211.76
854.11	211.87
854.42	211.92
854.74	211.90
855.05	211.87
855.36	211.65
855.67	211.64
855.99	211.65
856.30	212.07
856.61	212.12
856.92	212.14
857.23	212.07
857.55	212.05
857.86	212.12
858.17	212.13
858.48	212.07
858.79	211.98
859.11	212.02
859.42	212.00
859.73	212.02
860.04	212.00
860.35	211.87
860.66	211.74
860.98	211.70
861.29	211.71
861.60	211.77
861.91	211.86
862.22	211.83
862.53	211.77
862.84	211.39
863.16	211.42
863.47	211.32
863.78	211.33
864.09	211.34
864.40	211.30
864.71	211.33
865.02	211.32
865.33	211.23
865.64	211.10
865.95	211.12
866.27	211.19
866.58	211.11
866.89	211.20
867.20	211.15
867.51	211.10
867.82	211.15
868.13	211.25
868.44	211.15
868.75	211.25
869.06	211.27
869.37	211.31
869.68	211.26
869.99	211.34
870.30	211.34
870.61	211.38
870.92	211.38
871.23	211.31
871.54	211.46
871.85	211.50
872.16	211.69
872.47	211.61
872.78	211.50
873.09	211.57
873.40	211.49
873.71	211.61
874.02	211.66
874.33	211.60
874.64	211.53
874.95	211.60
875.26	211.47
875.56	211.48
875.87	211.43
876.18	211.41
876.49	211.73
876.80	211.69
877.11	211.69
877.42	211.65
877.73	211.68
878.04	211.64
878.35	211.77
878.66	211.65
878.96	211.70
879.27	211.69
879.58	211.58
879.89	211.57
880.20	211.63
880.51	211.56
880.82	211.56
881.12	211.49
881.43	211.37
881.74	211.32
882.05	211.25
882.36	211.35
882.67	211.35
882.97	211.02
883.28	211.10
883.59	211.02
883.90	211.03
884.21	211.07
884.51	211.05
884.82	210.91
885.13	210.93
885.44	210.92
885.74	210.90
886.05	210.95
886.36	210.94
886.67	210.80
886.98	211.00
887.28	211.00
887.59	211.10
887.90	211.07
888.20	211.10
888.51	211.22
888.82	211.12
889.13	211.14
889.43	211.43
889.74	211.38
890.05	211.38
890.35	211.35
890.66	211.25
890.97	211.18
891.28	211.19
891.58	211.17
891.89	211.12
892.20	211.17
892.50	211.16
892.81	211.11
893.12	211.16
893.42	211.01
893.73	211.02
894.04	210.97
894.34	211.08
894.65	211.13
894.95	211.14
895.26	211.13
895.57	211.34
895.87	210.94
896.18	211.02
896.48	211.07
896.79	211.10
897.10	211.21
897.40	211.28
897.71	211.28
898.01	211.28
898.32	211.37
898.63	211.25
898.93	211.24
899.24	211.25
899.54	211.20
899.85	211.16
900.15	211.19
900.46	211.22
900.76	211.27
901.07	211.23
901.38	211.19
901.68	211.27
901.99	211.06
902.29	211.14
902.60	211.05
902.90	210.98
903.21	211.05
903.51	211.02
903.82	211.02
904.12	211.02
904.43	211.01
904.73	211.03
905.03	211.17
905.34	211.45
905.64	211.44
905.95	211.49
906.25	211.56
906.56	211.54
906.86	211.53
907.17	211.45
907.47	211.52
907.77	211.50
908.08	211.46
908.38	211.51
908.69	211.53
908.99	211.64
909.30	211.74
909.60	211.68
909.90	211.68
910.21	211.65
910.51	211.65
910.81	211.66
911.12	211.66
911.42	211.62
911.73	211.31
912.03	211.34
912.33	211.39
912.64	211.35
912.94	211.24
913.24	211.21
913.55	211.15
913.85	211.06
914.15	211.12
914.46	211.12
914.76	211.09
915.06	211.10
915.37	211.07
915.67	210.98
915.97	210.94
916.27	210.81
916.58	210.81
916.88	210.74
917.18	210.74
917.49	210.88
917.79	210.83
918.09	210.86
918.39	210.99
918.70	210.94
919.00	210.94
919.30	211.16
919.60	211.14
919.91	211.14
920.21	211.19
920.51	211.06
920.81	211.01
921.12	211.03
921.42	211.04
921.72	211.06
922.02	211.05
922.32	211.13
922.63	211.20
922.93	211.34
923.23	211.44
923.53	211.38
923.83	211.26
924.13	211.30
924.44	211.35
924.74	211.39
925.04	211.45
925.34	211.46
925.64	211.35
925.94	211.30
926.24	211.51
926.55	211.45
926.85	211.53
927.15	211.50
927.45	211.46
927.75	211.39
928.05	211.33
928.35	211.33
928.65	211.34
928.95	211.36
929.26	211.19
929.56	211.27
929.86	211.36
930.16	211.27
930.46	211.24
930.76	211.28
931.06	211.09
931.36	211.02
931.66	211.09
931.96	211.10
932.26	211.22
932.56	211.09
932.86	211.08
933.16	211.02
933.46	211.04
933.76	210.97
934.06	211.07
934.36	211.18
934.66	211.21
934.96	211.18
935.26	211.20
935.56	211.20
935.86	211.00
936.16	210.86
936.46	210.84
936.76	210.77
937.06	210.59
937.36	210.55
937.66	210.50
937.96	210.43
938.26	210.38
938.56	210.24
938.86	210.25
939.16	210.35
939.46	210.48
939.76	210.56
940.06	210.61
940.35	210.53
940.65	210.38
940.95	210.34
941.25	210.30
941.55	210.24
941.85	210.33
942.15	210.44
942.45	210.57
942.75	210.58
943.04	210.66
943.34	210.85
943.64	210.82
943.94	210.81
944.24	210.81
944.54	210.83
944.84	210.91
945.13	210.82
945.43	210.78
945.73	210.70
946.03	210.62
946.33	210.55
946.62	210.56
946.92	210.58
947.22	210.65
947.52	210.61
947.82	210.75
948.11	210.72
948.41	210.70
948.71	210.63
949.01	210.63
949.31	210.60
949.60	210.57
949.90	210.69
950.20	210.69
950.50	210.70
950.79	210.69
951.09	210.71
951.39	210.75
951.69	210.70
951.98	210.81
952.28	210.83
952.58	210.83
952.87	210.75
953.17	210.81
953.47	210.79
953.76	210.83
954.06	210.73
954.36	210.67
954.66	210.69
954.95	210.81
955.25	210.84
955.55	210.89
955.84	210.75
956.14	210.78
956.44	210.82
956.73	210.77
957.03	210.79
957.32	210.72
957.62	210.72
957.92	210.77
958.21	210.66
958.51	211.07
958.81	211.16
959.10	211.23
959.40	211.19
959.69	211.19
959.99	211.23
960.29	211.17
960.58	211.21
960.88	211.29
961.17	211.20
961.47	211.25
961.76	211.16
962.06	211.23
962.36	211.17
962.65	211.18
962.95	211.24
963.24	211.22
963.54	211.35
963.83	211.36
964.13	211.34
964.42	211.33
964.72	211.02
965.01	211.09
965.31	211.05
965.60	210.99
965.90	211.30
966.19	211.25
966.49	211.29
966.78	211.24
967.08	211.20
967.37	211.24
967.67	211.17
967.96	211.29
968.26	211.28
968.55	211.33
968.85	211.27
969.14	211.30
969.43	211.27
969.73	211.12
970.02	211.08
970.32	211.10
970.61	211.09
970.91	210.99
971.20	210.96
971.49	210.97
971.79	211.03
972.08	210.71
972.38	210.70
972.67	210.67
972.96	210.77
973.26	210.69
973.55	210.82
973.85	210.82
974.14	210.72
974.43	210.75
974.73	210.65
975.02	210.67
975.31	210.61
975.61	210.61
975.90	210.67
976.19	210.62
976.49	210.60
976.78	210.65
977.07	210.62
977.37	210.51
977.66	210.53
977.95	210.52
978.24	210.63
978.54	210.74
978.83	210.73
979.12	210.62
979.42	210.56
979.71	210.43
980.00	210.37
980.29	210.43
980.59	210.36
980.88	210.55
981.17	210.48
981.46	210.43
981.76	210.37
982.05	210.50
982.34	210.55
982.63	210.53
982.93	210.46
983.22	210.58
983.51	210.66
983.80	210.75
984.09	210.79
984.39	210.73
984.68	210.65
984.97	210.68
985.26	210.71
985.55	210.85
985.85	210.80
986.14	210.95
986.43	210.95
986.72	211.02
987.01	210.85
987.30	210.96
987.59	211.03
987.89	211.09
988.18	210.92
988.47	210.95
988.76	211.03
989.05	211.03
989.34	210.99
989.63	211.07
989.92	211.02
990.22	210.98
990.51	210.93
990.80	210.93
991.09	210.86
991.38	210.93
991.67	210.88
991.96	210.82
992.25	210.77
992.54	210.72
992.83	210.72
993.12	210.75
993.41	210.76
993.70	210.85
993.99	210.91
994.28	210.97
994.58	211.02
994.87	210.93
995.16	210.90
995.45	210.93
995.74	210.76
996.03	210.73
996.32	210.80
996.61	210.88
996.90	210.88
997.19	210.96
997.48	210.90
997.77	210.86
998.06	210.89
998.34	210.88
998.63	210.87
998.92	210.83
999.21	210.86
999.50	210.85
999.79	210.67
1000.08	210.61
1000.37	210.67
1000.66	210.60
1000.95	210.72
1001.24	210.77
1001.53	210.77
1001.82	210.76
1002.11	210.69
1002.40	210.68
1002.68	210.74
1002.97	210.98
1003.26	210.92
1003.55	210.86
1003.84	210.92
1004.13	211.06
1004.42	211.03
1004.71	211.06
1004.99	211.05
1005.28	211.14
1005.57	211.16
1005.86	211.23
1006.15	211.22
1006.44	211.12
1006.72	211.17
1007.01	211.15
1007.30	211.16
1007.59	211.09
1007.88	211.06
1008.17	211.14
1008.45	211.13
1008.74	211.00
1009.03	210.89
1009.32	210.91
1009.60	210.94
1009.89	210.85
1010.18	210.75
1010.47	210.76
1010.76	210.76
1011.04	210.75
1011.33	210.76
1011.62	210.73
1011.91	210.72
1012.19	210.76
1012.48	210.82
1012.77	210.78
1013.05	210.93
1013.34	210.88
1013.63	210.85
1013.92	210.95
1014.20	210.94
1014.49	210.90
1014.78	211.00
1015.06	210.80
1015.35	210.85
1015.64	210.91
1015.92	211.02
1016.21	210.99
1016.50	211.01
1016.78	211.02
1017.07	211.03
1017.36	210.95
1017.64	210.95
1017.93	210.95
1018.22	210.88
1018.50	210.82
1018.79	210.85
1019.08	210.65
1019.36	210.80
1019.65	210.80
1019.93	210.91
1020.22	210.95
1020.51	211.10
1020.79	210.99
1021.08	209.70
1021.36	209.55
1021.65	211.70
1021.94	210.70
1022.22	212.55
1022.51	210.35
1022.79	212.95
1023.08	211.50
1023.36	213.85
1023.65	209.95
>>>>>End Processed Spectral Data<<<<<
