SpectraSuite Data File
++++++++++++++++++++++++++++++++++++
Date: Mon Feb 25 16:59:11 EST 2013
User: group
Dark Spectrum Present: No
Reference Spectrum Present: No
Number of Sampled Component Spectra: 1
Spectrometers: USB2E7196
Integration Time (usec): 104000 (USB2E7196)
Spectra Averaged: 20 (USB2E7196)
Boxcar Smoothing: 10 (USB2E7196)
Correct for Electrical Dark: No (USB2E7196)
Strobe/Lamp Enabled: No (USB2E7196)
Correct for Detector Non-linearity: No (USB2E7196)
Correct for Stray Light: No (USB2E7196)
Number of Pixels in Processed Spectrum: 2048
>>>>>Begin Processed Spectral Data<<<<<
339.09	0.00
339.48	198.45
339.86	201.35
340.24	200.15
340.63	202.70
341.01	209.60
341.39	204.90
341.78	208.15
342.16	208.50
342.54	208.55
342.93	198.29
343.31	208.28
343.69	208.87
344.07	209.26
344.46	209.77
344.84	210.20
345.22	210.20
345.60	210.51
345.99	210.62
346.37	210.75
346.75	210.85
347.13	210.94
347.52	210.98
347.90	211.06
348.28	211.07
348.66	211.24
349.05	211.19
349.43	211.31
349.81	211.35
350.19	211.36
350.57	211.40
350.96	211.42
351.34	211.60
351.72	211.63
352.10	211.72
352.48	211.82
352.87	211.82
353.25	211.94
353.63	211.93
354.01	211.99
354.39	212.06
354.77	212.09
355.15	212.24
355.54	212.29
355.92	212.29
356.30	212.31
356.68	212.57
357.06	212.66
357.44	212.60
357.82	212.67
358.20	212.73
358.58	212.74
358.97	212.80
359.35	212.84
359.73	212.93
360.11	212.99
360.49	213.07
360.87	213.10
361.25	213.20
361.63	213.38
362.01	213.43
362.39	213.41
362.77	213.54
363.15	213.58
363.53	213.60
363.91	213.56
364.29	213.65
364.67	213.35
365.05	213.34
365.43	213.47
365.81	213.52
366.19	213.71
366.57	213.81
366.95	213.78
367.33	213.71
367.71	213.69
368.09	213.74
368.47	213.68
368.85	213.67
369.23	213.70
369.61	213.60
369.99	213.70
370.37	213.78
370.75	213.91
371.13	213.78
371.51	213.69
371.89	213.68
372.27	213.67
372.65	213.63
373.03	213.65
373.41	213.48
373.78	213.39
374.16	213.15
374.54	213.10
374.92	213.05
375.30	213.01
375.68	212.95
376.06	212.89
376.44	212.82
376.82	212.76
377.19	212.74
377.57	212.70
377.95	212.57
378.33	212.50
378.71	212.22
379.09	212.23
379.47	212.25
379.84	212.18
380.22	212.06
380.60	211.99
380.98	211.89
381.36	211.89
381.73	211.87
382.11	211.94
382.49	211.86
382.87	211.77
383.25	211.77
383.62	212.08
384.00	212.01
384.38	211.98
384.76	212.02
385.13	212.06
385.51	211.97
385.89	211.90
386.27	211.83
386.64	211.87
387.02	211.76
387.40	211.72
387.78	211.70
388.15	211.70
388.53	211.65
388.91	211.60
389.29	211.61
389.66	211.62
390.04	211.49
390.42	211.49
390.79	211.51
391.17	211.49
391.55	211.13
391.92	211.10
392.30	211.12
392.68	211.08
393.05	210.96
393.43	210.94
393.81	211.01
394.18	210.99
394.56	211.00
394.94	211.18
395.31	211.13
395.69	211.28
396.06	211.32
396.44	211.34
396.82	211.34
397.19	211.50
397.57	211.48
397.95	211.66
398.32	211.62
398.70	211.77
399.07	211.85
399.45	211.83
399.82	211.95
400.20	211.88
400.58	211.85
400.95	211.87
401.33	212.02
401.70	212.26
402.08	212.32
402.45	212.38
402.83	212.52
403.20	212.65
403.58	212.71
403.95	212.99
404.33	213.15
404.71	213.36
405.08	213.69
405.46	213.83
405.83	213.96
406.21	214.14
406.58	214.34
406.96	214.56
407.33	214.91
407.70	215.17
408.08	215.85
408.45	216.33
408.83	216.79
409.20	217.15
409.58	217.36
409.95	217.90
410.33	218.45
410.70	218.81
411.08	219.43
411.45	220.08
411.82	220.59
412.20	221.43
412.57	222.34
412.95	222.91
413.32	223.93
413.69	224.90
414.07	226.00
414.44	227.18
414.82	228.43
415.19	229.78
415.56	231.15
415.94	232.49
416.31	234.19
416.68	235.85
417.06	237.77
417.43	239.62
417.81	241.67
418.18	243.85
418.55	246.23
418.93	248.66
419.30	251.12
419.67	253.80
420.04	256.56
420.42	259.46
420.79	263.00
421.16	266.27
421.54	269.79
421.91	273.37
422.28	277.04
422.66	281.07
423.03	285.20
423.40	289.44
423.77	293.87
424.15	298.35
424.52	302.97
424.89	308.13
425.26	313.15
425.64	317.98
426.01	323.17
426.38	328.64
426.75	334.19
427.13	339.90
427.50	346.06
427.87	352.35
428.24	358.61
428.61	364.55
428.99	371.37
429.36	378.65
429.73	385.79
430.10	393.05
430.47	400.26
430.85	407.77
431.22	415.78
431.59	424.34
431.96	432.52
432.33	441.80
432.70	450.58
433.08	460.97
433.45	470.80
433.82	480.66
434.19	491.65
434.56	502.33
434.93	512.86
435.30	523.20
435.68	534.80
436.05	546.36
436.42	557.78
436.79	568.18
437.16	579.58
437.53	591.79
437.90	603.70
438.27	615.55
438.64	627.79
439.01	639.23
439.38	649.51
439.75	659.51
440.13	670.62
440.50	681.48
440.87	690.40
441.24	699.72
441.61	710.11
441.98	717.88
442.35	727.16
442.72	736.14
443.09	745.13
443.46	750.81
443.83	754.85
444.20	758.41
444.57	763.42
444.94	766.20
445.31	768.90
445.68	771.76
446.05	773.62
446.42	773.38
446.79	772.91
447.16	772.17
447.53	772.07
447.90	768.70
448.27	765.15
448.64	759.86
449.01	756.24
449.37	749.06
449.74	742.31
450.11	734.13
450.48	725.17
450.85	715.57
451.22	707.54
451.59	700.03
451.96	692.83
452.33	683.04
452.70	674.05
453.07	663.19
453.43	652.10
453.80	641.31
454.17	631.02
454.54	621.34
454.91	611.06
455.28	600.67
455.65	591.24
456.02	581.82
456.38	573.73
456.75	563.51
457.12	555.03
457.49	546.56
457.86	538.26
458.23	531.22
458.59	523.61
458.96	515.91
459.33	508.92
459.70	502.16
460.07	496.51
460.43	490.10
460.80	484.24
461.17	478.89
461.54	473.35
461.91	468.27
462.27	462.91
462.64	458.37
463.01	453.46
463.38	448.65
463.74	443.61
464.11	439.43
464.48	435.86
464.85	431.87
465.21	428.85
465.58	425.44
465.95	421.38
466.32	418.10
466.68	414.69
467.05	411.40
467.42	407.99
467.78	404.60
468.15	401.45
468.52	399.01
468.88	395.83
469.25	392.96
469.62	390.57
469.98	388.10
470.35	385.83
470.72	383.59
471.08	381.11
471.45	379.13
471.82	377.04
472.18	374.75
472.55	373.03
472.92	371.00
473.28	369.32
473.65	367.75
474.02	366.01
474.38	364.70
474.75	363.51
475.11	362.22
475.48	361.25
475.85	360.20
476.21	359.14
476.58	358.48
476.94	357.92
477.31	357.13
477.67	356.51
478.04	355.90
478.41	355.56
478.77	355.58
479.14	355.27
479.50	355.06
479.87	354.98
480.23	354.99
480.60	354.87
480.96	354.72
481.33	355.04
481.69	355.32
482.06	355.38
482.42	355.44
482.79	355.69
483.15	356.09
483.52	356.82
483.88	357.35
484.25	357.81
484.61	358.50
484.98	359.31
485.34	360.32
485.71	361.21
486.07	362.27
486.44	362.94
486.80	363.99
487.17	365.26
487.53	366.71
487.90	368.17
488.26	369.93
488.62	371.64
488.99	373.15
489.35	374.71
489.72	376.66
490.08	378.67
490.44	380.51
490.81	382.33
491.17	384.24
491.54	386.66
491.90	388.89
492.26	391.24
492.63	393.73
492.99	396.19
493.36	398.80
493.72	401.50
494.08	404.34
494.45	407.25
494.81	410.33
495.17	413.31
495.54	416.51
495.90	419.55
496.26	422.70
496.63	426.15
496.99	429.60
497.35	433.02
497.72	436.59
498.08	440.37
498.44	444.07
498.80	448.05
499.17	451.85
499.53	455.79
499.89	459.78
500.26	463.58
500.62	467.32
500.98	471.38
501.34	475.27
501.71	479.52
502.07	483.54
502.43	487.45
502.79	491.42
503.16	495.36
503.52	499.26
503.88	503.27
504.24	507.09
504.60	511.11
504.97	515.17
505.33	519.15
505.69	523.24
506.05	527.36
506.41	531.13
506.78	534.65
507.14	538.25
507.50	541.87
507.86	545.47
508.22	549.15
508.59	552.50
508.95	556.05
509.31	559.20
509.67	562.66
510.03	565.76
510.39	569.07
510.75	572.26
511.12	575.42
511.48	578.34
511.84	581.25
512.20	583.99
512.56	586.88
512.92	589.74
513.28	592.35
513.64	594.78
514.00	597.18
514.37	599.74
514.73	602.37
515.09	604.74
515.45	607.06
515.81	609.06
516.17	611.13
516.53	613.09
516.89	614.97
517.25	616.68
517.61	618.71
517.97	620.37
518.33	621.86
518.69	623.48
519.05	625.10
519.41	626.69
519.77	628.44
520.13	629.71
520.49	630.69
520.85	631.88
521.21	633.22
521.57	634.65
521.93	635.58
522.29	636.65
522.65	637.77
523.01	638.70
523.37	639.71
523.73	640.92
524.09	641.79
524.45	642.92
524.81	643.92
525.17	644.89
525.53	645.97
525.89	646.94
526.25	647.87
526.61	648.68
526.97	649.41
527.33	650.33
527.68	651.64
528.04	652.94
528.40	653.87
528.76	654.73
529.12	655.88
529.48	657.46
529.84	658.57
530.20	659.62
530.56	661.09
530.91	662.61
531.27	663.92
531.63	665.51
531.99	667.03
532.35	668.51
532.71	669.88
533.07	671.49
533.42	673.49
533.78	675.10
534.14	677.01
534.50	678.65
534.86	680.40
535.21	681.85
535.57	683.72
535.93	685.35
536.29	687.49
536.65	689.15
537.00	690.79
537.36	692.62
537.72	694.48
538.08	696.25
538.44	698.14
538.79	700.22
539.15	702.08
539.51	704.08
539.87	706.26
540.22	708.31
540.58	710.56
540.94	712.57
541.29	714.64
541.65	716.47
542.01	718.83
542.37	720.88
542.72	723.08
543.08	724.98
543.44	727.51
543.79	729.28
544.15	731.47
544.51	733.91
544.87	736.48
545.22	738.84
545.58	740.98
545.94	743.23
546.29	745.14
546.65	747.27
547.01	749.35
547.36	751.56
547.72	753.81
548.07	755.88
548.43	757.70
548.79	759.80
549.14	762.14
549.50	764.46
549.86	766.57
550.21	768.64
550.57	771.11
550.92	773.15
551.28	775.51
551.64	777.66
551.99	779.79
552.35	781.74
552.70	783.82
553.06	786.31
553.41	788.37
553.77	791.01
554.13	793.46
554.48	796.04
554.84	798.40
555.19	800.62
555.55	802.89
555.90	805.13
556.26	807.30
556.61	809.30
556.97	811.04
557.32	813.19
557.68	815.07
558.03	816.74
558.39	818.52
558.74	820.63
559.10	822.62
559.45	824.49
559.81	826.49
560.16	828.21
560.52	829.97
560.87	832.00
561.23	833.45
561.58	835.34
561.94	836.54
562.29	837.88
562.64	839.63
563.00	841.07
563.35	842.90
563.71	844.77
564.06	846.51
564.42	848.62
564.77	850.60
565.12	852.58
565.48	854.76
565.83	856.56
566.19	858.50
566.54	859.99
566.89	861.31
567.25	863.13
567.60	865.06
567.96	866.80
568.31	868.46
568.66	869.92
569.02	870.97
569.37	872.17
569.72	873.49
570.08	874.55
570.43	875.48
570.78	876.45
571.14	877.12
571.49	877.56
571.84	878.17
572.20	878.43
572.55	878.88
572.90	878.72
573.26	878.99
573.61	878.87
573.96	879.05
574.31	879.23
574.67	878.88
575.02	878.39
575.37	877.86
575.72	877.03
576.08	876.57
576.43	876.05
576.78	875.77
577.13	875.31
577.49	874.73
577.84	874.35
578.19	873.71
578.54	873.48
578.90	873.46
579.25	872.73
579.60	871.92
579.95	871.00
580.30	870.51
580.66	869.97
581.01	869.10
581.36	868.13
581.71	866.96
582.06	866.09
582.42	865.04
582.77	863.88
583.12	862.91
583.47	862.08
583.82	861.04
584.17	859.76
584.53	858.55
584.88	857.51
585.23	856.36
585.58	854.97
585.93	853.56
586.28	852.17
586.63	850.97
586.98	849.86
587.34	848.80
587.69	847.29
588.04	845.83
588.39	844.57
588.74	843.16
589.09	842.15
589.44	840.36
589.79	839.30
590.14	838.11
590.49	836.75
590.84	835.03
591.19	833.69
591.54	832.33
591.89	830.48
592.25	828.85
592.60	827.04
592.95	825.26
593.30	823.20
593.65	821.06
594.00	818.79
594.35	817.67
594.70	815.65
595.05	813.93
595.40	812.11
595.75	809.99
596.10	808.14
596.45	806.15
596.80	804.46
597.15	802.55
597.50	800.38
597.85	798.35
598.19	796.40
598.54	794.31
598.89	792.42
599.24	790.85
599.59	788.90
599.94	786.88
600.29	784.93
600.64	782.88
600.99	780.83
601.34	779.12
601.69	776.24
602.04	774.05
602.39	771.76
602.74	769.49
603.08	767.45
603.43	765.72
603.78	763.50
604.13	761.44
604.48	759.12
604.83	757.40
605.18	755.79
605.53	753.65
605.87	751.44
606.22	749.39
606.57	746.97
606.92	744.70
607.27	742.43
607.62	740.22
607.96	738.30
608.31	736.45
608.66	734.10
609.01	731.67
609.36	729.46
609.70	727.14
610.05	724.82
610.40	722.60
610.75	719.90
611.10	717.72
611.44	714.92
611.79	712.29
612.14	709.50
612.49	706.26
612.83	703.86
613.18	701.21
613.53	698.39
613.88	695.73
614.22	693.04
614.57	690.43
614.92	687.73
615.27	684.97
615.61	682.19
615.96	679.67
616.31	677.23
616.65	674.73
617.00	672.17
617.35	669.57
617.70	666.79
618.04	663.94
618.39	660.97
618.74	658.56
619.08	656.09
619.43	653.30
619.78	650.97
620.12	648.31
620.47	645.78
620.82	642.95
621.16	640.18
621.51	637.59
621.85	635.07
622.20	632.45
622.55	629.74
622.89	627.02
623.24	624.27
623.59	621.50
623.93	618.68
624.28	616.17
624.62	613.94
624.97	611.41
625.32	608.87
625.66	606.33
626.01	603.70
626.35	601.18
626.70	598.72
627.04	596.30
627.39	593.65
627.73	591.28
628.08	589.15
628.43	586.78
628.77	584.26
629.12	581.69
629.46	579.31
629.81	576.95
630.15	574.58
630.50	572.12
630.84	569.70
631.19	567.44
631.53	565.13
631.88	562.22
632.22	559.74
632.57	557.71
632.91	555.41
633.26	553.15
633.60	550.78
633.95	548.57
634.29	546.18
634.64	543.99
634.98	541.64
635.32	539.33
635.67	537.28
636.01	535.15
636.36	532.97
636.70	530.98
637.05	528.83
637.39	526.80
637.73	524.88
638.08	523.08
638.42	521.11
638.77	519.00
639.11	517.15
639.45	515.05
639.80	512.68
640.14	510.57
640.49	508.42
640.83	506.24
641.17	504.24
641.52	502.17
641.86	499.98
642.20	497.95
642.55	495.57
642.89	493.40
643.23	491.25
643.58	489.37
643.92	487.16
644.26	485.03
644.61	482.98
644.95	480.86
645.29	478.70
645.64	476.58
645.98	474.43
646.32	472.41
646.66	470.33
647.01	468.29
647.35	466.38
647.69	464.38
648.04	462.49
648.38	460.33
648.72	458.27
649.06	456.28
649.41	454.20
649.75	452.30
650.09	450.40
650.43	448.49
650.78	446.23
651.12	444.15
651.46	442.20
651.80	440.17
652.14	438.22
652.49	436.24
652.83	434.15
653.17	432.17
653.51	430.20
653.85	428.46
654.20	426.66
654.54	424.66
654.88	422.71
655.22	420.87
655.56	418.87
655.90	416.98
656.25	415.15
656.59	413.38
656.93	411.61
657.27	409.79
657.61	407.76
657.95	406.01
658.29	404.27
658.64	402.55
658.98	400.80
659.32	398.90
659.66	397.16
660.00	395.42
660.34	393.65
660.68	391.79
661.02	389.93
661.36	388.20
661.70	386.51
662.05	384.89
662.39	383.32
662.73	382.04
663.07	380.54
663.41	378.97
663.75	377.31
664.09	375.76
664.43	374.13
664.77	372.70
665.11	371.25
665.45	369.81
665.79	368.43
666.13	366.89
666.47	365.35
666.81	363.86
667.15	362.43
667.49	361.04
667.83	359.80
668.17	358.46
668.51	357.20
668.85	355.99
669.19	354.85
669.53	353.30
669.87	351.69
670.21	350.34
670.55	349.08
670.89	348.04
671.23	346.81
671.57	345.61
671.91	344.49
672.25	343.17
672.58	342.06
672.92	340.79
673.26	339.68
673.60	338.64
673.94	337.46
674.28	336.37
674.62	335.29
674.96	334.11
675.30	333.02
675.64	331.83
675.97	330.67
676.31	329.45
676.65	328.52
676.99	327.72
677.33	326.67
677.67	325.60
678.01	324.32
678.34	323.33
678.68	322.34
679.02	321.19
679.36	320.18
679.70	319.03
680.04	317.95
680.37	316.85
680.71	315.82
681.05	314.88
681.39	313.97
681.73	313.01
682.06	312.08
682.40	311.16
682.74	310.20
683.08	309.29
683.42	308.26
683.75	307.30
684.09	306.21
684.43	305.17
684.77	304.15
685.10	303.28
685.44	302.27
685.78	301.31
686.12	300.46
686.45	299.55
686.79	298.70
687.13	297.97
687.46	297.18
687.80	296.46
688.14	295.57
688.48	294.75
688.81	293.95
689.15	293.23
689.49	292.36
689.82	291.65
690.16	290.76
690.50	289.98
690.83	289.10
691.17	288.29
691.51	287.55
691.84	286.85
692.18	286.05
692.52	285.31
692.85	284.62
693.19	283.98
693.52	283.25
693.86	282.43
694.20	281.63
694.53	280.93
694.87	280.07
695.21	279.39
695.54	278.59
695.88	277.69
696.21	276.74
696.55	276.07
696.88	275.29
697.22	274.52
697.56	273.84
697.89	273.18
698.23	272.63
698.56	271.93
698.90	271.29
699.23	270.66
699.57	269.99
699.90	269.25
700.24	268.48
700.58	267.94
700.91	267.44
701.25	267.10
701.58	266.55
701.92	266.05
702.25	265.37
702.59	264.79
702.92	264.35
703.26	263.89
703.59	263.43
703.93	263.11
704.26	262.70
704.60	262.20
704.93	261.68
705.26	260.98
705.60	260.55
705.93	259.94
706.27	259.47
706.60	259.07
706.94	258.80
707.27	258.34
707.61	257.88
707.94	257.27
708.27	256.45
708.61	255.90
708.94	255.47
709.28	255.03
709.61	254.49
709.94	254.07
710.28	253.53
710.61	252.94
710.95	252.27
711.28	252.02
711.61	251.60
711.95	251.22
712.28	250.83
712.61	250.30
712.95	250.16
713.28	249.97
713.61	249.55
713.95	248.99
714.28	248.64
714.61	248.15
714.95	247.85
715.28	247.51
715.61	247.20
715.95	246.79
716.28	246.40
716.61	246.17
716.95	245.80
717.28	245.45
717.61	245.17
717.94	244.84
718.28	244.26
718.61	243.89
718.94	243.48
719.27	243.25
719.61	243.03
719.94	242.57
720.27	241.99
720.60	241.60
720.94	241.26
721.27	240.97
721.60	240.76
721.93	240.43
722.27	240.28
722.60	239.95
722.93	239.62
723.26	239.40
723.59	239.10
723.93	238.79
724.26	238.59
724.59	238.29
724.92	238.08
725.25	237.93
725.59	237.65
725.92	237.51
726.25	237.14
726.58	236.98
726.91	236.72
727.24	236.53
727.57	236.26
727.91	235.98
728.24	235.69
728.57	235.35
728.90	235.16
729.23	234.79
729.56	234.75
729.89	234.53
730.22	234.22
730.55	233.94
730.89	233.73
731.22	233.52
731.55	233.21
731.88	232.94
732.21	232.56
732.54	232.29
732.87	232.05
733.20	231.93
733.53	231.68
733.86	231.57
734.19	231.31
734.52	231.20
734.85	231.27
735.18	231.03
735.51	230.96
735.84	230.76
736.17	230.71
736.50	230.28
736.83	230.49
737.16	230.34
737.49	230.18
737.82	229.95
738.15	229.75
738.48	229.74
738.81	229.57
739.14	229.40
739.47	229.25
739.80	229.04
740.13	228.90
740.46	228.62
740.79	228.32
741.12	228.20
741.45	227.92
741.78	227.52
742.11	227.46
742.44	227.29
742.77	227.17
743.10	226.89
743.43	226.72
743.75	226.14
744.08	226.45
744.41	226.22
744.74	226.10
745.07	225.86
745.40	225.74
745.73	225.75
746.06	225.65
746.39	225.56
746.71	225.43
747.04	225.28
747.37	225.12
747.70	225.00
748.03	224.87
748.36	224.80
748.68	224.67
749.01	224.45
749.34	224.32
749.67	224.19
750.00	224.15
750.33	224.35
750.65	224.25
750.98	223.67
751.31	223.58
751.64	223.50
751.97	223.50
752.29	223.33
752.62	223.00
752.95	222.83
753.28	222.64
753.60	222.43
753.93	222.39
754.26	222.27
754.59	222.08
754.91	221.91
755.24	221.78
755.57	221.65
755.90	221.57
756.22	221.37
756.55	221.20
756.88	220.95
757.20	220.58
757.53	220.35
757.86	220.26
758.19	220.25
758.51	220.11
758.84	219.86
759.17	219.69
759.49	219.62
759.82	219.75
760.15	219.74
760.47	219.64
760.80	219.36
761.13	219.39
761.45	219.27
761.78	219.08
762.11	219.04
762.43	218.93
762.76	218.74
763.08	218.67
763.41	218.62
763.74	218.56
764.06	218.46
764.39	218.47
764.71	218.39
765.04	218.26
765.37	218.13
765.69	218.16
766.02	218.08
766.34	217.99
766.67	217.72
767.00	217.73
767.32	217.88
767.65	218.03
767.97	217.85
768.30	217.80
768.62	217.83
768.95	217.67
769.27	217.61
769.60	217.61
769.92	217.53
770.25	217.40
770.57	217.28
770.90	217.21
771.22	217.07
771.55	217.05
771.87	216.96
772.20	216.92
772.52	217.12
772.85	217.44
773.17	217.39
773.50	217.35
773.82	217.23
774.15	217.04
774.47	216.76
774.80	216.70
775.12	216.68
775.45	216.60
775.77	216.61
776.09	216.61
776.42	216.58
776.74	216.61
777.07	216.53
777.39	216.53
777.72	216.42
778.04	216.38
778.36	216.22
778.69	216.12
779.01	216.09
779.33	215.70
779.66	215.33
779.98	215.29
780.31	215.25
780.63	215.30
780.95	215.32
781.28	215.30
781.60	215.23
781.92	215.19
782.25	215.25
782.57	215.23
782.89	215.11
783.22	215.10
783.54	215.04
783.86	214.99
784.19	214.98
784.51	215.05
784.83	215.02
785.16	215.01
785.48	215.04
785.80	214.96
786.12	214.97
786.45	214.95
786.77	214.86
787.09	214.80
787.42	214.60
787.74	214.57
788.06	214.53
788.38	214.55
788.71	214.38
789.03	214.24
789.35	214.37
789.67	214.33
789.99	214.30
790.32	214.21
790.64	214.24
790.96	214.50
791.28	214.32
791.61	214.28
791.93	214.30
792.25	214.25
792.57	214.50
792.89	214.43
793.21	214.43
793.54	214.37
793.86	214.28
794.18	214.36
794.50	214.19
794.82	214.16
795.14	214.10
795.47	214.19
795.79	214.19
796.11	213.94
796.43	213.93
796.75	213.87
797.07	213.84
797.39	213.75
797.71	213.45
798.04	213.52
798.36	213.58
798.68	213.59
799.00	213.57
799.32	213.47
799.64	213.54
799.96	213.48
800.28	213.57
800.60	213.51
800.92	213.50
801.24	213.57
801.56	213.64
801.89	213.65
802.21	213.74
802.53	213.74
802.85	213.82
803.17	213.98
803.49	213.92
803.81	213.88
804.13	213.92
804.45	213.84
804.77	213.81
805.09	213.74
805.41	213.61
805.73	213.56
806.05	213.43
806.37	213.35
806.69	213.27
807.01	213.27
807.33	213.36
807.65	213.21
807.97	213.33
808.28	213.22
808.60	213.18
808.92	213.08
809.24	213.31
809.56	213.26
809.88	213.12
810.20	213.23
810.52	213.31
810.84	213.27
811.16	213.20
811.48	213.14
811.80	213.29
812.12	213.35
812.43	213.44
812.75	213.45
813.07	213.43
813.39	213.49
813.71	213.35
814.03	213.29
814.35	213.31
814.67	213.17
814.98	213.15
815.30	213.15
815.62	213.10
815.94	212.79
816.26	212.77
816.58	212.73
816.89	212.66
817.21	212.50
817.53	212.52
817.85	212.62
818.17	212.65
818.48	212.48
818.80	212.53
819.12	212.42
819.44	212.33
819.76	212.28
820.07	212.23
820.39	212.23
820.71	212.27
821.03	212.25
821.34	212.17
821.66	212.28
821.98	212.30
822.30	212.28
822.61	212.50
822.93	212.42
823.25	212.41
823.57	212.37
823.88	212.51
824.20	212.55
824.52	212.57
824.83	212.61
825.15	212.53
825.47	212.49
825.79	212.56
826.10	212.54
826.42	212.50
826.74	212.55
827.05	212.53
827.37	212.48
827.69	212.40
828.00	212.40
828.32	212.30
828.64	212.30
828.95	212.47
829.27	212.37
829.58	212.34
829.90	212.34
830.22	212.34
830.53	212.26
830.85	212.16
831.17	212.10
831.48	212.01
831.80	212.07
832.11	212.05
832.43	212.00
832.75	211.96
833.06	212.17
833.38	212.05
833.69	212.05
834.01	212.11
834.32	212.16
834.64	212.17
834.96	212.12
835.27	211.98
835.59	211.84
835.90	211.71
836.22	211.75
836.53	211.68
836.85	211.66
837.16	211.94
837.48	211.95
837.79	211.98
838.11	212.06
838.42	212.06
838.74	212.04
839.05	212.00
839.37	211.99
839.68	211.77
840.00	211.81
840.31	211.81
840.63	211.69
840.94	211.65
841.26	211.59
841.57	211.62
841.88	211.72
842.20	211.70
842.51	211.69
842.83	211.71
843.14	212.05
843.46	212.04
843.77	211.85
844.08	211.84
844.40	211.77
844.71	211.64
845.03	211.61
845.34	211.52
845.65	211.48
845.97	211.49
846.28	211.54
846.60	211.53
846.91	211.50
847.22	211.52
847.54	211.57
847.85	211.63
848.16	211.65
848.48	211.62
848.79	211.70
849.10	211.77
849.42	211.75
849.73	211.41
850.04	211.35
850.36	211.30
850.67	211.31
850.98	211.30
851.30	211.36
851.61	211.33
851.92	211.35
852.23	211.44
852.55	211.50
852.86	211.42
853.17	211.45
853.49	211.57
853.80	211.65
854.11	211.74
854.42	211.70
854.74	211.65
855.05	211.64
855.36	211.52
855.67	211.54
855.99	211.56
856.30	211.96
856.61	212.03
856.92	211.99
857.23	212.01
857.55	212.02
857.86	211.95
858.17	212.00
858.48	211.93
858.79	211.90
859.11	211.88
859.42	211.94
859.73	211.88
860.04	211.84
860.35	211.77
860.66	211.60
860.98	211.56
861.29	211.57
861.60	211.52
861.91	211.58
862.22	211.50
862.53	211.35
862.84	210.92
863.16	211.00
863.47	210.99
863.78	210.93
864.09	210.89
864.40	210.99
864.71	211.00
865.02	211.09
865.33	211.02
865.64	210.99
865.95	210.94
866.27	211.18
866.58	211.16
866.89	211.16
867.20	211.18
867.51	211.14
867.82	211.11
868.13	211.20
868.44	211.14
868.75	211.20
869.06	211.25
869.37	211.32
869.68	211.17
869.99	211.08
870.30	211.12
870.61	211.19
870.92	211.13
871.23	211.11
871.54	211.17
871.85	211.26
872.16	211.30
872.47	211.30
872.78	211.08
873.09	211.16
873.40	211.12
873.71	211.16
874.02	211.23
874.33	211.25
874.64	211.19
874.95	211.23
875.26	211.12
875.56	211.13
875.87	211.07
876.18	211.08
876.49	211.55
876.80	211.49
877.11	211.40
877.42	211.38
877.73	211.36
878.04	211.34
878.35	211.30
878.66	211.35
878.96	211.35
879.27	211.32
879.58	211.14
879.89	211.14
880.20	211.18
880.51	211.10
880.82	211.08
881.12	211.15
881.43	211.09
881.74	211.11
882.05	211.14
882.36	211.20
882.67	211.22
882.97	210.80
883.28	210.85
883.59	210.85
883.90	210.86
884.21	210.94
884.51	210.83
884.82	210.81
885.13	210.76
885.44	210.73
885.74	210.79
886.05	210.88
886.36	210.89
886.67	210.77
886.98	211.00
887.28	211.03
887.59	211.01
887.90	211.07
888.20	211.09
888.51	211.12
888.82	211.00
889.13	211.06
889.43	211.39
889.74	211.34
890.05	211.39
890.35	211.29
890.66	211.19
890.97	211.20
891.28	211.20
891.58	211.15
891.89	211.22
892.20	211.14
892.50	211.06
892.81	211.08
893.12	211.15
893.42	211.00
893.73	211.02
894.04	211.00
894.34	210.96
894.65	210.91
894.95	210.88
895.26	210.93
895.57	211.10
895.87	210.80
896.18	210.83
896.48	210.85
896.79	210.92
897.10	211.00
897.40	211.08
897.71	211.11
898.01	211.11
898.32	211.15
898.63	211.18
898.93	211.21
899.24	211.24
899.54	211.20
899.85	211.21
900.15	211.18
900.46	211.18
900.76	211.26
901.07	211.26
901.38	211.24
901.68	211.29
901.99	211.04
902.29	211.03
902.60	211.00
902.90	210.95
903.21	210.97
903.51	210.97
903.82	210.96
904.12	210.93
904.43	211.01
904.73	210.98
905.03	210.97
905.34	211.31
905.64	211.26
905.95	211.22
906.25	211.17
906.56	211.16
906.86	211.22
907.17	211.17
907.47	211.19
907.77	211.10
908.08	211.01
908.38	211.00
908.69	211.04
908.99	211.13
909.30	211.14
909.60	211.17
909.90	211.12
910.21	211.03
910.51	211.02
910.81	210.99
911.12	210.99
911.42	211.02
911.73	210.67
912.03	210.70
912.33	210.82
912.64	210.86
912.94	210.86
913.24	210.75
913.55	210.67
913.85	210.63
914.15	210.77
914.46	210.87
914.76	210.86
915.06	210.78
915.37	210.72
915.67	210.70
915.97	210.69
916.27	210.66
916.58	210.64
916.88	210.55
917.18	210.47
917.49	210.67
917.79	210.64
918.09	210.67
918.39	210.72
918.70	210.70
919.00	210.65
919.30	210.68
919.60	210.67
919.91	210.68
920.21	210.74
920.51	210.67
920.81	210.64
921.12	210.73
921.42	210.76
921.72	210.77
922.02	210.90
922.32	210.89
922.63	210.87
922.93	211.10
923.23	211.21
923.53	211.25
923.83	211.03
924.13	211.11
924.44	211.14
924.74	211.23
925.04	211.29
925.34	211.30
925.64	211.31
925.94	211.34
926.24	211.54
926.55	211.54
926.85	211.65
927.15	211.66
927.45	211.64
927.75	211.59
928.05	211.62
928.35	211.47
928.65	211.59
928.95	211.56
929.26	211.43
929.56	211.50
929.86	211.50
930.16	211.47
930.46	211.36
930.76	211.36
931.06	211.23
931.36	211.10
931.66	211.17
931.96	211.12
932.26	211.06
932.56	210.90
932.86	210.96
933.16	210.91
933.46	210.85
933.76	210.86
934.06	211.01
934.36	211.13
934.66	211.23
934.96	211.13
935.26	211.25
935.56	211.32
935.86	211.23
936.16	211.21
936.46	211.18
936.76	211.16
937.06	211.10
937.36	211.12
937.66	211.19
937.96	211.15
938.26	211.17
938.56	211.26
938.86	211.31
939.16	211.33
939.46	211.38
939.76	211.38
940.06	211.37
940.35	211.29
940.65	211.08
940.95	211.09
941.25	211.05
941.55	210.96
941.85	210.89
942.15	210.94
942.45	211.02
942.75	211.05
943.04	211.05
943.34	211.14
943.64	211.07
943.94	211.04
944.24	211.05
944.54	211.04
944.84	211.00
945.13	210.92
945.43	210.81
945.73	210.76
946.03	210.77
946.33	210.73
946.62	210.66
946.92	210.59
947.22	210.58
947.52	210.61
947.82	210.62
948.11	210.60
948.41	210.48
948.71	210.37
949.01	210.38
949.31	210.41
949.60	210.41
949.90	210.50
950.20	210.48
950.50	210.47
950.79	210.42
951.09	210.45
951.39	210.43
951.69	210.40
951.98	210.44
952.28	210.46
952.58	210.47
952.87	210.51
953.17	210.60
953.47	210.59
953.76	210.57
954.06	210.60
954.36	210.51
954.66	210.55
954.95	210.60
955.25	210.67
955.55	210.68
955.84	210.61
956.14	210.56
956.44	210.55
956.73	210.46
957.03	210.53
957.32	210.48
957.62	210.49
957.92	210.66
958.21	210.61
958.51	211.03
958.81	211.05
959.10	211.11
959.40	211.18
959.69	211.17
959.99	211.21
960.29	211.20
960.58	211.25
960.88	211.32
961.17	211.30
961.47	211.29
961.76	211.29
962.06	211.32
962.36	211.34
962.65	211.39
962.95	211.39
963.24	211.30
963.54	211.30
963.83	211.35
964.13	211.25
964.42	211.25
964.72	210.91
965.01	210.91
965.31	210.81
965.60	210.78
965.90	211.02
966.19	210.90
966.49	210.97
966.78	210.96
967.08	211.00
967.37	211.04
967.67	210.98
967.96	211.04
968.26	211.08
968.55	211.13
968.85	211.15
969.14	211.23
969.43	211.30
969.73	211.30
970.02	211.31
970.32	211.30
970.61	211.34
970.91	211.28
971.20	211.22
971.49	211.30
971.79	211.34
972.08	211.12
972.38	211.25
972.67	211.14
972.96	211.20
973.26	211.07
973.55	211.12
973.85	211.13
974.14	211.09
974.43	211.06
974.73	210.98
975.02	210.94
975.31	210.91
975.61	210.89
975.90	210.92
976.19	210.82
976.49	210.88
976.78	210.88
977.07	210.86
977.37	210.90
977.66	210.86
977.95	210.73
978.24	210.67
978.54	210.71
978.83	210.69
979.12	210.67
979.42	210.76
979.71	210.73
980.00	210.75
980.29	210.78
980.59	210.79
980.88	210.87
981.17	210.88
981.46	210.91
981.76	210.87
982.05	210.98
982.34	211.11
982.63	211.07
982.93	211.06
983.22	211.17
983.51	211.22
983.80	211.33
984.09	211.44
984.39	211.53
984.68	211.44
984.97	211.48
985.26	211.49
985.55	211.54
985.85	211.46
986.14	211.46
986.43	211.54
986.72	211.52
987.01	211.50
987.30	211.51
987.59	211.49
987.89	211.49
988.18	211.31
988.47	211.24
988.76	211.20
989.05	211.18
989.34	211.13
989.63	211.22
989.92	211.11
990.22	211.12
990.51	211.06
990.80	211.03
991.09	211.05
991.38	211.00
991.67	210.91
991.96	210.90
992.25	210.91
992.54	210.81
992.83	210.73
993.12	210.68
993.41	210.69
993.70	210.81
993.99	210.99
994.28	211.04
994.58	211.08
994.87	211.06
995.16	211.02
995.45	210.98
995.74	210.79
996.03	210.86
996.32	210.84
996.61	210.90
996.90	210.95
997.19	210.97
997.48	210.99
997.77	210.99
998.06	211.00
998.34	210.96
998.63	211.00
998.92	211.09
999.21	211.19
999.50	211.20
999.79	211.16
1000.08	211.07
1000.37	211.09
1000.66	211.02
1000.95	211.16
1001.24	211.17
1001.53	211.22
1001.82	211.24
1002.11	211.20
1002.40	211.19
1002.68	211.26
1002.97	211.47
1003.26	211.40
1003.55	211.42
1003.84	211.44
1004.13	211.58
1004.42	211.61
1004.71	211.52
1004.99	211.52
1005.28	211.54
1005.57	211.49
1005.86	211.36
1006.15	211.33
1006.44	211.30
1006.72	211.38
1007.01	211.25
1007.30	211.30
1007.59	211.27
1007.88	211.26
1008.17	211.26
1008.45	211.19
1008.74	211.09
1009.03	210.91
1009.32	210.94
1009.60	210.89
1009.89	210.81
1010.18	210.65
1010.47	210.58
1010.76	210.58
1011.04	210.54
1011.33	210.48
1011.62	210.55
1011.91	210.59
1012.19	210.60
1012.48	210.58
1012.77	210.51
1013.05	210.66
1013.34	210.58
1013.63	210.50
1013.92	210.54
1014.20	210.53
1014.49	210.60
1014.78	210.61
1015.06	210.43
1015.35	210.38
1015.64	210.48
1015.92	210.58
1016.21	210.61
1016.50	210.69
1016.78	210.76
1017.07	210.75
1017.36	210.64
1017.64	210.63
1017.93	210.61
1018.22	210.60
1018.50	210.68
1018.79	210.60
1019.08	210.43
1019.36	210.48
1019.65	210.48
1019.93	210.55
1020.22	210.60
1020.51	210.76
1020.79	210.76
1021.08	210.55
1021.36	211.10
1021.65	208.65
1021.94	210.05
1022.22	210.65
1022.51	209.90
1022.79	212.30
1023.08	211.60
1023.36	215.00
1023.65	210.60
>>>>>End Processed Spectral Data<<<<<
