SpectraSuite Data File
++++++++++++++++++++++++++++++++++++
Date: Mon Feb 25 16:55:56 EST 2013
User: group
Dark Spectrum Present: No
Reference Spectrum Present: No
Number of Sampled Component Spectra: 1
Spectrometers: USB2E7196
Integration Time (usec): 104000 (USB2E7196)
Spectra Averaged: 20 (USB2E7196)
Boxcar Smoothing: 10 (USB2E7196)
Correct for Electrical Dark: No (USB2E7196)
Strobe/Lamp Enabled: No (USB2E7196)
Correct for Detector Non-linearity: No (USB2E7196)
Correct for Stray Light: No (USB2E7196)
Number of Pixels in Processed Spectrum: 2048
>>>>>Begin Processed Spectral Data<<<<<
339.09	0.00
339.48	199.15
339.86	200.35
340.24	200.90
340.63	202.10
341.01	207.75
341.39	204.75
341.78	206.95
342.16	208.75
342.54	208.65
342.93	198.10
343.31	208.12
343.69	208.65
344.07	209.06
344.46	209.59
344.84	210.05
345.22	210.19
345.60	210.49
345.99	210.69
346.37	210.81
346.75	210.91
347.13	210.98
347.52	211.04
347.90	211.23
348.28	211.23
348.66	211.32
349.05	211.19
349.43	211.34
349.81	211.33
350.19	211.47
350.57	211.46
350.96	211.56
351.34	211.64
351.72	211.75
352.10	211.90
352.48	211.94
352.87	212.00
353.25	212.11
353.63	212.19
354.01	212.29
354.39	212.42
354.77	212.49
355.15	212.71
355.54	212.70
355.92	212.64
356.30	212.83
356.68	213.12
357.06	213.33
357.44	213.23
357.82	213.35
358.20	213.32
358.58	213.44
358.97	213.50
359.35	213.64
359.73	213.74
360.11	213.82
360.49	213.81
360.87	213.78
361.25	213.83
361.63	213.99
362.01	214.05
362.39	214.05
362.77	214.14
363.15	214.05
363.53	214.15
363.91	214.15
364.29	214.07
364.67	213.76
365.05	213.76
365.43	213.82
365.81	213.76
366.19	213.99
366.57	214.09
366.95	214.10
367.33	214.03
367.71	214.06
368.09	214.11
368.47	214.13
368.85	214.18
369.23	214.30
369.61	214.22
369.99	214.28
370.37	214.23
370.75	214.35
371.13	214.36
371.51	214.27
371.89	214.31
372.27	214.35
372.65	214.38
373.03	214.32
373.41	214.30
373.78	214.34
374.16	214.14
374.54	213.98
374.92	213.89
375.30	213.84
375.68	213.70
376.06	213.67
376.44	213.62
376.82	213.55
377.19	213.42
377.57	213.32
377.95	213.18
378.33	213.16
378.71	212.97
379.09	212.98
379.47	212.98
379.84	212.93
380.22	212.77
380.60	212.56
380.98	212.56
381.36	212.52
381.73	212.42
382.11	212.40
382.49	212.36
382.87	212.27
383.25	212.23
383.62	212.62
384.00	212.45
384.38	212.49
384.76	212.55
385.13	212.66
385.51	212.60
385.89	212.48
386.27	212.48
386.64	212.47
387.02	212.44
387.40	212.43
387.78	212.33
388.15	212.32
388.53	212.37
388.91	212.29
389.29	212.18
389.66	212.20
390.04	212.14
390.42	212.17
390.79	212.22
391.17	212.24
391.55	211.84
391.92	211.89
392.30	211.91
392.68	211.86
393.05	211.85
393.43	211.92
393.81	211.97
394.18	211.92
394.56	211.96
394.94	211.97
395.31	211.98
395.69	212.22
396.06	212.38
396.44	212.40
396.82	212.49
397.19	212.78
397.57	212.82
397.95	212.99
398.32	212.95
398.70	213.06
399.07	213.15
399.45	213.26
399.82	213.32
400.20	213.31
400.58	213.40
400.95	213.38
401.33	213.59
401.70	213.97
402.08	214.10
402.45	214.23
402.83	214.45
403.20	214.63
403.58	214.71
403.95	214.93
404.33	215.29
404.71	215.51
405.08	215.92
405.46	216.22
405.83	216.47
406.21	216.89
406.58	217.28
406.96	217.75
407.33	218.11
407.70	218.71
408.08	219.52
408.45	220.07
408.83	220.72
409.20	221.25
409.58	221.77
409.95	222.67
410.33	223.49
410.70	224.30
411.08	225.25
411.45	226.17
411.82	227.18
412.20	228.34
412.57	229.75
412.95	230.80
413.32	232.29
413.69	233.78
414.07	235.31
414.44	237.02
414.82	238.75
415.19	240.92
415.56	242.97
415.94	245.16
416.31	247.70
416.68	250.19
417.06	253.03
417.43	255.74
417.81	258.74
418.18	261.93
418.55	265.36
418.93	269.04
419.30	272.94
419.67	277.00
420.04	281.17
420.42	285.49
420.79	290.59
421.16	295.65
421.54	300.87
421.91	306.45
422.28	312.15
422.66	318.23
423.03	324.17
423.40	330.38
423.77	337.01
424.15	343.66
424.52	350.71
424.89	358.48
425.26	366.02
425.64	373.21
426.01	381.05
426.38	389.29
426.75	397.61
427.13	406.18
427.50	415.35
427.87	424.86
428.24	434.48
428.61	443.71
428.99	453.84
429.36	464.89
429.73	475.50
430.10	486.42
430.47	497.47
430.85	509.03
431.22	521.15
431.59	533.96
431.96	546.57
432.33	560.40
432.70	573.88
433.08	589.67
433.45	604.64
433.82	619.58
434.19	636.27
434.56	652.71
434.93	668.78
435.30	684.47
435.68	702.20
436.05	719.50
436.42	736.89
436.79	752.86
437.16	770.26
437.53	788.51
437.90	806.43
438.27	824.55
438.64	843.33
439.01	860.95
439.38	876.74
439.75	892.18
440.13	909.75
440.50	926.02
440.87	939.82
441.24	954.19
441.61	970.20
441.98	982.05
442.35	996.07
442.72	1009.64
443.09	1023.00
443.46	1031.51
443.83	1037.85
444.20	1043.28
444.57	1050.92
444.94	1055.13
445.31	1059.86
445.68	1064.14
446.05	1066.65
446.42	1066.27
446.79	1065.60
447.16	1064.68
447.53	1064.34
447.90	1058.93
448.27	1053.96
448.64	1045.94
449.01	1040.42
449.37	1029.49
449.74	1019.23
450.11	1006.36
450.48	992.70
450.85	978.72
451.22	966.61
451.59	955.20
451.96	944.37
452.33	929.20
452.70	915.67
453.07	899.01
453.43	882.43
453.80	866.38
454.17	850.75
454.54	836.01
454.91	820.27
455.28	804.65
455.65	790.30
456.02	775.41
456.38	763.08
456.75	747.47
457.12	734.78
457.49	722.12
457.86	709.83
458.23	699.20
458.59	687.47
458.96	675.85
459.33	665.40
459.70	654.99
460.07	646.62
460.43	636.90
460.80	627.98
461.17	620.06
461.54	611.70
461.91	603.87
462.27	595.79
462.64	589.01
463.01	581.44
463.38	574.04
463.74	566.77
464.11	560.37
464.48	554.87
464.85	548.54
465.21	543.87
465.58	538.79
465.95	532.75
466.32	527.82
466.68	522.75
467.05	517.83
467.42	512.64
467.78	507.46
468.15	502.68
468.52	498.97
468.88	494.11
469.25	489.87
469.62	486.34
469.98	482.66
470.35	478.99
470.72	475.68
471.08	472.15
471.45	469.32
471.82	466.18
472.18	462.86
472.55	460.45
472.92	457.46
473.28	455.02
473.65	452.58
474.02	450.05
474.38	447.98
474.75	446.20
475.11	444.51
475.48	443.25
475.85	441.91
476.21	440.69
476.58	439.73
476.94	439.03
477.31	438.15
477.67	437.27
478.04	436.65
478.41	436.26
478.77	436.20
479.14	435.75
479.50	435.64
479.87	435.78
480.23	435.90
480.60	435.87
480.96	435.88
481.33	436.60
481.69	437.22
482.06	437.72
482.42	438.15
482.79	438.66
483.15	439.60
483.52	441.01
483.88	442.11
484.25	443.19
484.61	444.37
484.98	445.75
485.34	447.64
485.71	449.71
486.07	451.75
486.44	453.42
486.80	455.59
487.17	457.97
487.53	460.57
487.90	463.29
488.26	466.33
488.62	469.49
488.99	472.30
489.35	475.49
489.72	479.13
490.08	482.78
490.44	486.49
490.81	490.32
491.17	494.00
491.54	498.24
491.90	502.65
492.26	507.27
492.63	512.09
492.99	516.92
493.36	521.86
493.72	527.28
494.08	532.85
494.45	538.69
494.81	544.76
495.17	550.82
495.54	557.17
495.90	563.65
496.26	570.10
496.63	577.09
496.99	584.12
497.35	591.20
497.72	598.62
498.08	606.37
498.44	614.09
498.80	622.39
499.17	630.72
499.53	639.21
499.89	647.86
500.26	656.37
500.62	664.72
500.98	673.65
501.34	682.31
501.71	691.48
502.07	700.68
502.43	709.68
502.79	718.83
503.16	728.27
503.52	737.63
503.88	747.30
504.24	756.83
504.60	766.43
504.97	776.35
505.33	786.07
505.69	796.45
506.05	806.52
506.41	816.18
506.78	825.69
507.14	835.39
507.50	845.06
507.86	855.09
508.22	865.39
508.59	875.18
508.95	885.11
509.31	895.05
509.67	904.92
510.03	914.87
510.39	925.00
510.75	934.93
511.12	944.79
511.48	954.65
511.84	964.66
512.20	974.29
512.56	984.01
512.92	993.95
513.28	1003.35
513.64	1012.81
514.00	1022.25
514.37	1031.70
514.73	1041.20
515.09	1050.57
515.45	1059.51
515.81	1068.31
516.17	1077.00
516.53	1085.67
516.89	1093.96
517.25	1102.19
517.61	1110.51
517.97	1118.44
518.33	1126.15
518.69	1133.81
519.05	1141.40
519.41	1148.75
519.77	1156.67
520.13	1163.67
520.49	1170.43
520.85	1177.13
521.21	1184.07
521.57	1191.16
521.93	1197.37
522.29	1204.04
522.65	1210.65
523.01	1217.27
523.37	1223.25
523.73	1229.38
524.09	1235.39
524.45	1241.36
524.81	1247.34
525.17	1253.31
525.53	1259.05
525.89	1264.88
526.25	1270.50
526.61	1275.47
526.97	1280.70
527.33	1285.65
527.68	1291.02
528.04	1295.98
528.40	1300.52
528.76	1304.95
529.12	1309.38
529.48	1314.60
529.84	1318.80
530.20	1322.75
530.56	1326.67
530.91	1331.57
531.27	1336.23
531.63	1340.44
531.99	1344.73
532.35	1348.64
532.71	1352.21
533.07	1356.36
533.42	1359.91
533.78	1363.83
534.14	1367.63
534.50	1370.77
534.86	1374.39
535.21	1377.24
535.57	1380.77
535.93	1384.17
536.29	1387.29
536.65	1390.25
537.00	1392.84
537.36	1395.25
537.72	1397.94
538.08	1400.41
538.44	1402.42
538.79	1404.63
539.15	1407.00
539.51	1409.50
539.87	1411.72
540.22	1414.08
540.58	1416.60
540.94	1418.86
541.29	1420.70
541.65	1422.11
542.01	1424.00
542.37	1425.50
542.72	1427.19
543.08	1428.47
543.44	1430.28
543.79	1431.32
544.15	1432.84
544.51	1434.50
544.87	1436.38
545.22	1437.67
545.58	1439.07
545.94	1439.85
546.29	1440.23
546.65	1440.75
547.01	1440.95
547.36	1441.43
547.72	1441.96
548.07	1441.56
548.43	1441.37
548.79	1441.20
549.14	1441.62
549.50	1441.84
549.86	1441.62
550.21	1441.60
550.57	1441.76
550.92	1440.96
551.28	1441.12
551.64	1440.57
551.99	1440.49
552.35	1439.85
552.70	1439.46
553.06	1438.92
553.41	1438.70
553.77	1438.88
554.13	1438.78
554.48	1438.78
554.84	1438.74
555.19	1438.23
555.55	1438.15
555.90	1437.57
556.26	1437.19
556.61	1436.48
556.97	1435.33
557.32	1434.79
557.68	1433.80
558.03	1432.73
558.39	1431.86
558.74	1430.90
559.10	1430.00
559.45	1428.70
559.81	1428.01
560.16	1426.77
560.52	1425.96
560.87	1425.17
561.23	1423.50
561.58	1422.41
561.94	1420.77
562.29	1419.03
562.64	1417.75
563.00	1416.48
563.35	1415.67
563.71	1414.80
564.06	1414.19
564.42	1414.05
564.77	1413.59
565.12	1413.30
565.48	1412.80
565.83	1412.23
566.19	1411.92
566.54	1410.65
566.89	1409.84
567.25	1409.15
567.60	1408.47
567.96	1407.70
568.31	1406.94
568.66	1406.03
569.02	1404.52
569.37	1402.83
569.72	1401.78
570.08	1400.28
570.43	1398.52
570.78	1396.67
571.14	1394.45
571.49	1392.17
571.84	1389.85
572.20	1387.23
572.55	1385.04
572.90	1382.28
573.26	1379.66
573.61	1376.51
573.96	1374.05
574.31	1370.98
574.67	1367.56
575.02	1364.09
575.37	1360.54
575.72	1356.61
576.08	1353.52
576.43	1349.95
576.78	1347.01
577.13	1343.81
577.49	1340.85
577.84	1337.54
578.19	1334.40
578.54	1331.74
578.90	1329.16
579.25	1326.00
579.60	1322.22
579.95	1318.28
580.30	1315.07
580.66	1311.95
581.01	1308.34
581.36	1304.65
581.71	1301.02
582.06	1297.49
582.42	1294.15
582.77	1290.00
583.12	1286.13
583.47	1282.48
583.82	1278.94
584.17	1275.13
584.53	1271.20
584.88	1266.76
585.23	1262.74
585.58	1258.67
585.93	1254.30
586.28	1249.87
586.63	1245.77
586.98	1242.10
587.34	1238.39
587.69	1234.08
588.04	1229.69
588.39	1225.98
588.74	1221.72
589.09	1217.72
589.44	1213.22
589.79	1209.15
590.14	1205.64
590.49	1201.76
590.84	1197.38
591.19	1193.69
591.54	1189.61
591.89	1185.03
592.25	1181.25
592.60	1176.71
592.95	1172.28
593.30	1167.54
593.65	1162.59
594.00	1157.74
594.35	1154.44
594.70	1149.97
595.05	1145.80
595.40	1141.35
595.75	1136.64
596.10	1132.60
596.45	1128.35
596.80	1124.55
597.15	1120.38
597.50	1115.77
597.85	1111.41
598.19	1106.99
598.54	1102.45
598.89	1098.15
599.24	1094.58
599.59	1090.03
599.94	1086.24
600.29	1082.26
600.64	1078.22
600.99	1074.04
601.34	1070.19
601.69	1064.77
602.04	1060.24
602.39	1055.82
602.74	1051.57
603.08	1047.68
603.43	1043.84
603.78	1039.35
604.13	1034.87
604.48	1030.68
604.83	1026.93
605.18	1023.31
605.53	1019.17
605.87	1014.95
606.22	1010.93
606.57	1005.99
606.92	1001.52
607.27	996.93
607.62	992.61
607.96	988.57
608.31	984.67
608.66	980.17
609.01	975.66
609.36	971.19
609.70	966.59
610.05	961.94
610.40	957.29
610.75	952.30
611.10	948.04
611.44	943.04
611.79	938.06
612.14	933.01
612.49	927.66
612.83	922.97
613.18	917.97
613.53	913.15
613.88	908.43
614.22	903.89
614.57	899.00
614.92	894.22
615.27	889.20
615.61	884.45
615.96	880.02
616.31	875.77
616.65	871.60
617.00	867.39
617.35	863.16
617.70	858.55
618.04	854.01
618.39	849.10
618.74	844.95
619.08	840.55
619.43	836.36
619.78	832.31
620.12	828.20
620.47	824.11
620.82	819.49
621.16	815.06
621.51	810.74
621.85	806.73
622.20	802.30
622.55	798.00
622.89	793.41
623.24	788.88
623.59	784.20
623.93	779.89
624.28	775.63
624.62	771.69
624.97	767.38
625.32	763.14
625.66	759.23
626.01	755.09
626.35	751.02
626.70	746.80
627.04	742.76
627.39	738.57
627.73	734.62
628.08	731.07
628.43	727.29
628.77	723.37
629.12	719.37
629.46	715.79
629.81	712.22
630.15	708.71
630.50	705.07
630.84	701.34
631.19	697.47
631.53	693.86
631.88	689.67
632.22	686.01
632.57	682.70
632.91	679.04
633.26	675.41
633.60	671.67
633.95	668.31
634.29	664.67
634.64	661.38
634.98	657.76
635.32	654.25
635.67	651.17
636.01	647.86
636.36	644.44
636.70	641.16
637.05	637.72
637.39	634.51
637.73	631.46
638.08	628.78
638.42	625.75
638.77	622.49
639.11	619.74
639.45	616.74
639.80	613.25
640.14	610.04
640.49	606.96
640.83	603.95
641.17	600.74
641.52	597.74
641.86	594.40
642.20	591.41
642.55	588.03
642.89	584.61
643.23	581.34
643.58	578.72
643.92	575.58
644.26	572.61
644.61	569.67
644.95	566.59
645.29	563.24
645.64	560.20
645.98	557.24
646.32	554.11
646.66	551.05
647.01	548.30
647.35	545.60
647.69	542.55
648.04	539.75
648.38	537.05
648.72	534.18
649.06	531.34
649.41	528.43
649.75	525.58
650.09	522.95
650.43	520.35
650.78	517.04
651.12	514.10
651.46	511.38
651.80	508.76
652.14	506.12
652.49	503.51
652.83	500.81
653.17	497.83
653.51	495.12
653.85	492.66
654.20	490.15
654.54	487.33
654.88	484.88
655.22	482.27
655.56	479.43
655.90	476.72
656.25	474.11
656.59	471.72
656.93	469.45
657.27	467.12
657.61	464.43
657.95	462.30
658.29	459.93
658.64	457.61
658.98	455.11
659.32	452.45
659.66	450.05
660.00	447.68
660.34	445.43
660.68	443.11
661.02	440.63
661.36	438.19
661.70	436.04
662.05	433.76
662.39	431.71
662.73	429.80
663.07	427.93
663.41	425.95
663.75	423.79
664.09	421.65
664.43	419.35
664.77	417.41
665.11	415.35
665.45	413.43
665.79	411.44
666.13	409.41
666.47	407.56
666.81	405.60
667.15	403.50
667.49	401.71
667.83	399.97
668.17	398.17
668.51	396.54
668.85	394.81
669.19	393.40
669.53	391.53
669.87	389.64
670.21	387.86
670.55	386.15
670.89	384.72
671.23	383.29
671.57	381.77
671.91	380.25
672.25	378.62
672.58	377.07
672.92	375.44
673.26	373.92
673.60	372.41
673.94	371.03
674.28	369.69
674.62	368.34
674.96	366.87
675.30	365.44
675.64	363.90
675.97	362.41
676.31	360.84
676.65	359.44
676.99	358.21
677.33	356.82
677.67	355.35
678.01	353.70
678.34	352.20
678.68	350.85
679.02	349.33
679.36	348.00
679.70	346.54
680.04	345.22
680.37	343.96
680.71	342.64
681.05	341.45
681.39	340.17
681.73	338.88
682.06	337.69
682.40	336.53
682.74	335.25
683.08	334.12
683.42	332.84
683.75	331.64
684.09	330.23
684.43	328.95
684.77	327.83
685.10	326.74
685.44	325.45
685.78	324.26
686.12	323.13
686.45	321.94
686.79	320.82
687.13	319.79
687.46	318.65
687.80	317.62
688.14	316.40
688.48	315.37
688.81	314.19
689.15	313.14
689.49	311.98
689.82	311.08
690.16	309.89
690.50	308.74
690.83	307.64
691.17	306.57
691.51	305.59
691.84	304.51
692.18	303.52
692.52	302.55
692.85	301.63
693.19	300.89
693.52	299.93
693.86	298.94
694.20	297.94
694.53	296.93
694.87	295.86
695.21	294.83
695.54	293.77
695.88	292.88
696.21	291.77
696.55	290.90
696.88	289.94
697.22	289.05
697.56	288.35
697.89	287.54
698.23	286.79
698.56	285.87
698.90	285.21
699.23	284.34
699.57	283.57
699.90	282.73
700.24	281.92
700.58	281.18
700.91	280.46
701.25	280.02
701.58	279.37
701.92	278.73
702.25	278.07
702.59	277.35
702.92	276.67
703.26	276.00
703.59	275.29
703.93	274.94
704.26	274.35
704.60	273.61
704.93	272.90
705.26	272.20
705.60	271.63
705.93	270.87
706.27	270.29
706.60	269.78
706.94	269.28
707.27	268.49
707.61	267.83
707.94	267.20
708.27	266.31
708.61	265.68
708.94	265.10
709.28	264.51
709.61	263.92
709.94	263.27
710.28	262.66
710.61	262.11
710.95	261.18
711.28	260.79
711.61	260.27
711.95	259.87
712.28	259.33
712.61	258.75
712.95	258.33
713.28	257.98
713.61	257.49
713.95	256.98
714.28	256.59
714.61	256.08
714.95	255.59
715.28	255.04
715.61	254.51
715.95	254.08
716.28	253.50
716.61	253.14
716.95	252.70
717.28	252.33
717.61	251.93
717.94	251.53
718.28	250.92
718.61	250.40
718.94	249.90
719.27	249.49
719.61	249.12
719.94	248.65
720.27	248.05
720.60	247.55
720.94	247.14
721.27	246.75
721.60	246.47
721.93	246.16
722.27	245.87
722.60	245.48
722.93	245.07
723.26	244.90
723.59	244.45
723.93	244.11
724.26	243.80
724.59	243.45
724.92	243.15
725.25	242.90
725.59	242.66
725.92	242.41
726.25	242.13
726.58	241.87
726.91	241.58
727.24	241.33
727.57	241.00
727.91	240.53
728.24	240.26
728.57	239.99
728.90	239.74
729.23	239.38
729.56	239.36
729.89	239.05
730.22	238.73
730.55	238.51
730.89	238.27
731.22	237.98
731.55	237.73
731.88	237.44
732.21	237.10
732.54	236.73
732.87	236.45
733.20	236.15
733.53	235.85
733.86	235.67
734.19	235.34
734.52	235.15
734.85	235.20
735.18	234.89
735.51	234.72
735.84	234.43
736.17	234.25
736.50	233.84
736.83	234.09
737.16	233.83
737.49	233.64
737.82	233.39
738.15	233.17
738.48	232.89
738.81	232.67
739.14	232.42
739.47	232.25
739.80	232.05
740.13	231.86
740.46	231.61
740.79	231.28
741.12	231.10
741.45	230.82
741.78	230.44
742.11	230.25
742.44	229.93
742.77	229.79
743.10	229.59
743.43	229.30
743.75	228.62
744.08	228.90
744.41	228.67
744.74	228.41
745.07	228.23
745.40	228.14
745.73	228.10
746.06	227.99
746.39	227.85
746.71	227.52
747.04	227.27
747.37	227.19
747.70	227.14
748.03	226.96
748.36	226.92
748.68	226.71
749.01	226.50
749.34	226.37
749.67	226.16
750.00	226.04
750.33	226.20
750.65	226.12
750.98	225.49
751.31	225.34
751.64	225.27
751.97	225.29
752.29	225.11
752.62	224.73
752.95	224.55
753.28	224.34
753.60	224.34
753.93	224.28
754.26	224.03
754.59	223.79
754.91	223.62
755.24	223.40
755.57	223.27
755.90	223.11
756.22	222.86
756.55	222.72
756.88	222.49
757.20	222.06
757.53	221.84
757.86	221.70
758.19	221.62
758.51	221.48
758.84	221.16
759.17	221.02
759.49	221.02
759.82	221.05
760.15	221.00
760.47	220.87
760.80	220.69
761.13	220.62
761.45	220.43
761.78	220.42
762.11	220.30
762.43	220.19
762.76	220.11
763.08	220.18
763.41	220.08
763.74	220.00
764.06	219.96
764.39	219.83
764.71	219.71
765.04	219.58
765.37	219.46
765.69	219.36
766.02	219.23
766.34	219.13
766.67	218.88
767.00	218.79
767.32	218.88
767.65	219.11
767.97	219.02
768.30	219.01
768.62	218.89
768.95	218.82
769.27	218.74
769.60	218.71
769.92	218.49
770.25	218.35
770.57	218.25
770.90	218.17
771.22	218.13
771.55	218.12
771.87	218.07
772.20	217.99
772.52	218.25
772.85	218.59
773.17	218.51
773.50	218.40
773.82	218.35
774.15	218.07
774.47	217.75
774.80	217.69
775.12	217.60
775.45	217.55
775.77	217.50
776.09	217.45
776.42	217.40
776.74	217.53
777.07	217.43
777.39	217.32
777.72	217.21
778.04	217.12
778.36	217.00
778.69	216.91
779.01	216.92
779.33	216.50
779.66	216.08
779.98	216.02
780.31	216.04
780.63	216.12
780.95	216.07
781.28	216.00
781.60	215.94
781.92	215.92
782.25	215.86
782.57	215.81
782.89	215.75
783.22	215.67
783.54	215.54
783.86	215.58
784.19	215.64
784.51	215.74
784.83	215.76
785.16	215.72
785.48	215.75
785.80	215.75
786.12	215.73
786.45	215.73
786.77	215.65
787.09	215.67
787.42	215.50
787.74	215.57
788.06	215.51
788.38	215.52
788.71	215.47
789.03	215.40
789.35	215.41
789.67	215.35
789.99	215.33
790.32	215.30
790.64	215.27
790.96	215.50
791.28	215.40
791.61	215.30
791.93	215.29
792.25	215.19
792.57	215.38
792.89	215.35
793.21	215.33
793.54	215.31
793.86	215.19
794.18	215.23
794.50	215.16
794.82	215.17
795.14	215.16
795.47	215.25
795.79	215.23
796.11	215.18
796.43	215.16
796.75	215.13
797.07	215.07
797.39	215.07
797.71	214.82
798.04	214.77
798.36	214.84
798.68	214.80
799.00	214.85
799.32	214.68
799.64	214.74
799.96	214.73
800.28	214.75
800.60	214.73
800.92	214.71
801.24	214.61
801.56	214.59
801.89	214.54
802.21	214.52
802.53	214.47
802.85	214.55
803.17	214.67
803.49	214.64
803.81	214.60
804.13	214.55
804.45	214.49
804.77	214.55
805.09	214.55
805.41	214.51
805.73	214.38
806.05	214.25
806.37	214.20
806.69	214.14
807.01	214.12
807.33	214.09
807.65	213.95
807.97	214.14
808.28	214.10
808.60	214.06
808.92	213.91
809.24	214.11
809.56	213.97
809.88	213.92
810.20	213.86
810.52	213.90
810.84	213.82
811.16	213.80
811.48	213.73
811.80	213.82
812.12	213.81
812.43	213.85
812.75	213.84
813.07	213.79
813.39	213.82
813.71	213.72
814.03	213.70
814.35	213.72
814.67	213.49
814.98	213.42
815.30	213.41
815.62	213.37
815.94	213.06
816.26	213.10
816.58	212.99
816.89	213.02
817.21	212.90
817.53	212.94
817.85	212.92
818.17	212.86
818.48	212.64
818.80	212.70
819.12	212.66
819.44	212.65
819.76	212.63
820.07	212.56
820.39	212.54
820.71	212.57
821.03	212.61
821.34	212.60
821.66	212.66
821.98	212.70
822.30	212.70
822.61	212.88
822.93	212.84
823.25	212.77
823.57	212.76
823.88	212.90
824.20	212.83
824.52	212.90
824.83	212.94
825.15	212.93
825.47	212.83
825.79	212.85
826.10	212.85
826.42	212.77
826.74	212.88
827.05	212.90
827.37	212.89
827.69	212.76
828.00	212.78
828.32	212.71
828.64	212.61
828.95	212.80
829.27	212.80
829.58	212.84
829.90	212.90
830.22	212.90
830.53	212.80
830.85	212.84
831.17	212.71
831.48	212.66
831.80	212.67
832.11	212.67
832.43	212.64
832.75	212.63
833.06	212.88
833.38	212.76
833.69	212.71
834.01	212.75
834.32	212.85
834.64	212.80
834.96	212.84
835.27	212.91
835.59	212.80
835.90	212.64
836.22	212.56
836.53	212.47
836.85	212.46
837.16	212.76
837.48	212.70
837.79	212.78
838.11	212.79
838.42	212.78
838.74	212.89
839.05	212.81
839.37	212.73
839.68	212.54
840.00	212.47
840.31	212.58
840.63	212.50
840.94	212.41
841.26	212.39
841.57	212.42
841.88	212.37
842.20	212.33
842.51	212.36
842.83	212.33
843.14	212.59
843.46	212.55
843.77	212.32
844.08	212.34
844.40	212.22
844.71	212.13
845.03	212.11
845.34	212.03
845.65	212.09
845.97	212.06
846.28	212.01
846.60	212.07
846.91	211.95
847.22	211.90
847.54	211.98
847.85	212.04
848.16	211.98
848.48	211.92
848.79	212.00
849.10	211.94
849.42	211.97
849.73	211.70
850.04	211.66
850.36	211.53
850.67	211.67
850.98	211.74
851.30	211.79
851.61	211.76
851.92	211.77
852.23	211.80
852.55	211.90
852.86	211.94
853.17	211.97
853.49	212.07
853.80	212.12
854.11	212.10
854.42	212.10
854.74	212.07
855.05	212.11
855.36	211.97
855.67	212.10
855.99	212.03
856.30	212.45
856.61	212.49
856.92	212.54
857.23	212.44
857.55	212.43
857.86	212.42
858.17	212.49
858.48	212.42
858.79	212.32
859.11	212.28
859.42	212.22
859.73	212.12
860.04	212.12
860.35	212.06
860.66	211.98
860.98	211.94
861.29	212.03
861.60	212.09
861.91	212.13
862.22	212.08
862.53	212.05
862.84	211.59
863.16	211.68
863.47	211.67
863.78	211.64
864.09	211.59
864.40	211.63
864.71	211.59
865.02	211.62
865.33	211.60
865.64	211.52
865.95	211.58
866.27	211.82
866.58	211.78
866.89	211.77
867.20	211.80
867.51	211.77
867.82	211.69
868.13	211.71
868.44	211.67
868.75	211.69
869.06	211.74
869.37	211.82
869.68	211.65
869.99	211.59
870.30	211.61
870.61	211.67
870.92	211.64
871.23	211.62
871.54	211.67
871.85	211.75
872.16	211.82
872.47	211.71
872.78	211.51
873.09	211.50
873.40	211.51
873.71	211.49
874.02	211.55
874.33	211.51
874.64	211.42
874.95	211.44
875.26	211.43
875.56	211.38
875.87	211.33
876.18	211.30
876.49	211.67
876.80	211.64
877.11	211.54
877.42	211.49
877.73	211.54
878.04	211.47
878.35	211.55
878.66	211.56
878.96	211.57
879.27	211.57
879.58	211.60
879.89	211.57
880.20	211.72
880.51	211.67
880.82	211.74
881.12	211.74
881.43	211.69
881.74	211.60
882.05	211.62
882.36	211.70
882.67	211.75
882.97	211.40
883.28	211.44
883.59	211.48
883.90	211.54
884.21	211.55
884.51	211.52
884.82	211.39
885.13	211.31
885.44	211.34
885.74	211.36
886.05	211.31
886.36	211.38
886.67	211.19
886.98	211.33
887.28	211.36
887.59	211.38
887.90	211.43
888.20	211.45
888.51	211.60
888.82	211.48
889.13	211.52
889.43	211.81
889.74	211.76
890.05	211.69
890.35	211.66
890.66	211.55
890.97	211.54
891.28	211.55
891.58	211.66
891.89	211.68
892.20	211.61
892.50	211.63
892.81	211.55
893.12	211.53
893.42	211.35
893.73	211.33
894.04	211.31
894.34	211.30
894.65	211.26
894.95	211.10
895.26	211.18
895.57	211.35
895.87	211.03
896.18	211.09
896.48	211.21
896.79	211.20
897.10	211.31
897.40	211.35
897.71	211.40
898.01	211.31
898.32	211.33
898.63	211.31
898.93	211.27
899.24	211.34
899.54	211.44
899.85	211.43
900.15	211.46
900.46	211.45
900.76	211.43
901.07	211.45
901.38	211.47
901.68	211.47
901.99	211.36
902.29	211.40
902.60	211.35
902.90	211.26
903.21	211.24
903.51	211.14
903.82	211.15
904.12	211.08
904.43	211.10
904.73	211.03
905.03	211.04
905.34	211.40
905.64	211.37
905.95	211.26
906.25	211.28
906.56	211.26
906.86	211.24
907.17	211.25
907.47	211.25
907.77	211.20
908.08	211.18
908.38	211.09
908.69	211.03
908.99	211.07
909.30	211.14
909.60	211.18
909.90	211.25
910.21	211.19
910.51	211.16
910.81	211.18
911.12	211.30
911.42	211.31
911.73	210.92
912.03	210.94
912.33	211.07
912.64	211.06
912.94	210.99
913.24	210.98
913.55	210.95
913.85	210.91
914.15	210.99
914.46	211.01
914.76	210.98
915.06	210.98
915.37	210.98
915.67	210.85
915.97	210.85
916.27	210.77
916.58	210.80
916.88	210.81
917.18	210.77
917.49	210.95
917.79	210.95
918.09	211.02
918.39	211.08
918.70	211.00
919.00	211.06
919.30	211.18
919.60	211.23
919.91	211.25
920.21	211.33
920.51	211.28
920.81	211.29
921.12	211.37
921.42	211.40
921.72	211.37
922.02	211.42
922.32	211.50
922.63	211.55
922.93	211.69
923.23	211.70
923.53	211.63
923.83	211.41
924.13	211.42
924.44	211.43
924.74	211.48
925.04	211.49
925.34	211.50
925.64	211.44
925.94	211.39
926.24	211.57
926.55	211.49
926.85	211.58
927.15	211.61
927.45	211.58
927.75	211.64
928.05	211.67
928.35	211.65
928.65	211.60
928.95	211.59
929.26	211.55
929.56	211.68
929.86	211.80
930.16	211.76
930.46	211.79
930.76	211.75
931.06	211.60
931.36	211.55
931.66	211.55
931.96	211.57
932.26	211.62
932.56	211.43
932.86	211.49
933.16	211.56
933.46	211.45
933.76	211.45
934.06	211.55
934.36	211.70
934.66	211.70
934.96	211.70
935.26	211.70
935.56	211.68
935.86	211.58
936.16	211.50
936.46	211.46
936.76	211.36
937.06	211.36
937.36	211.44
937.66	211.49
937.96	211.43
938.26	211.35
938.56	211.31
938.86	211.34
939.16	211.37
939.46	211.26
939.76	211.31
940.06	211.35
940.35	211.17
940.65	210.96
940.95	211.06
941.25	211.01
941.55	211.00
941.85	210.96
942.15	211.07
942.45	211.20
942.75	211.25
943.04	211.32
943.34	211.33
943.64	211.26
943.94	211.26
944.24	211.32
944.54	211.39
944.84	211.34
945.13	211.33
945.43	211.31
945.73	211.30
946.03	211.30
946.33	211.22
946.62	211.29
946.92	211.27
947.22	211.17
947.52	211.19
947.82	211.24
948.11	211.23
948.41	211.14
948.71	210.99
949.01	211.04
949.31	211.02
949.60	211.05
949.90	211.11
950.20	211.10
950.50	211.05
950.79	210.98
951.09	211.01
951.39	210.99
951.69	210.97
951.98	211.08
952.28	211.07
952.58	211.12
952.87	211.14
953.17	211.22
953.47	211.29
953.76	211.31
954.06	211.15
954.36	211.18
954.66	211.16
954.95	211.26
955.25	211.29
955.55	211.38
955.84	211.27
956.14	211.31
956.44	211.33
956.73	211.34
957.03	211.42
957.32	211.48
957.62	211.48
957.92	211.64
958.21	211.57
958.51	212.01
958.81	212.04
959.10	212.05
959.40	212.13
959.69	212.08
959.99	212.11
960.29	212.23
960.58	212.20
960.88	212.33
961.17	212.34
961.47	212.34
961.76	212.27
962.06	212.39
962.36	212.37
962.65	212.35
962.95	212.35
963.24	212.28
963.54	212.28
963.83	212.32
964.13	212.23
964.42	212.14
964.72	211.86
965.01	211.77
965.31	211.67
965.60	211.55
965.90	211.80
966.19	211.73
966.49	211.77
966.78	211.68
967.08	211.68
967.37	211.64
967.67	211.55
967.96	211.63
968.26	211.58
968.55	211.56
968.85	211.52
969.14	211.51
969.43	211.59
969.73	211.51
970.02	211.49
970.32	211.40
970.61	211.44
970.91	211.24
971.20	211.19
971.49	211.18
971.79	211.26
972.08	210.99
972.38	211.00
972.67	210.97
972.96	211.06
973.26	210.96
973.55	211.06
973.85	211.04
974.14	211.02
974.43	211.05
974.73	211.04
975.02	211.03
975.31	211.00
975.61	210.94
975.90	210.87
976.19	210.81
976.49	210.90
976.78	210.88
977.07	210.91
977.37	210.99
977.66	211.06
977.95	210.95
978.24	210.98
978.54	211.06
978.83	210.99
979.12	210.93
979.42	210.91
979.71	210.88
980.00	210.88
980.29	210.81
980.59	210.67
980.88	210.73
981.17	210.83
981.46	210.84
981.76	210.77
982.05	210.95
982.34	210.99
982.63	210.96
982.93	211.00
983.22	211.08
983.51	211.09
983.80	211.11
984.09	211.21
984.39	211.16
984.68	211.14
984.97	211.23
985.26	211.20
985.55	211.28
985.85	211.18
986.14	211.24
986.43	211.35
986.72	211.39
987.01	211.31
987.30	211.20
987.59	211.17
987.89	211.23
988.18	211.10
988.47	211.07
988.76	211.06
989.05	210.93
989.34	210.95
989.63	211.09
989.92	211.03
990.22	210.96
990.51	211.02
990.80	210.98
991.09	210.92
991.38	211.04
991.67	210.96
991.96	210.90
992.25	210.96
992.54	210.85
992.83	210.88
993.12	210.87
993.41	210.97
993.70	211.12
993.99	211.20
994.28	211.30
994.58	211.33
994.87	211.30
995.16	211.35
995.45	211.27
995.74	211.04
996.03	211.08
996.32	211.08
996.61	211.11
996.90	211.13
997.19	211.19
997.48	211.17
997.77	211.12
998.06	211.15
998.34	210.99
998.63	210.96
998.92	210.99
999.21	211.01
999.50	210.97
999.79	210.84
1000.08	210.79
1000.37	210.67
1000.66	210.65
1000.95	210.74
1001.24	210.77
1001.53	210.83
1001.82	210.90
1002.11	210.75
1002.40	210.83
1002.68	210.94
1002.97	211.17
1003.26	211.06
1003.55	210.99
1003.84	210.91
1004.13	211.03
1004.42	211.13
1004.71	211.13
1004.99	211.08
1005.28	211.18
1005.57	211.16
1005.86	211.15
1006.15	211.13
1006.44	211.13
1006.72	211.25
1007.01	211.20
1007.30	211.14
1007.59	211.07
1007.88	211.07
1008.17	211.20
1008.45	211.15
1008.74	210.93
1009.03	210.73
1009.32	210.71
1009.60	210.71
1009.89	210.81
1010.18	210.69
1010.47	210.65
1010.76	210.63
1011.04	210.57
1011.33	210.55
1011.62	210.58
1011.91	210.59
1012.19	210.60
1012.48	210.58
1012.77	210.47
1013.05	210.56
1013.34	210.60
1013.63	210.63
1013.92	210.63
1014.20	210.57
1014.49	210.55
1014.78	210.62
1015.06	210.42
1015.35	210.49
1015.64	210.58
1015.92	210.62
1016.21	210.61
1016.50	210.64
1016.78	210.73
1017.07	210.79
1017.36	210.75
1017.64	210.71
1017.93	210.78
1018.22	210.73
1018.50	210.75
1018.79	210.83
1019.08	210.71
1019.36	210.70
1019.65	210.67
1019.93	210.74
1020.22	210.80
1020.51	210.94
1020.79	210.94
1021.08	210.45
1021.36	209.70
1021.65	212.50
1021.94	210.70
1022.22	209.95
1022.51	210.80
1022.79	211.90
1023.08	211.45
1023.36	214.15
1023.65	210.60
>>>>>End Processed Spectral Data<<<<<
