SpectraSuite Data File
++++++++++++++++++++++++++++++++++++
Date: Mon Feb 25 17:15:52 EST 2013
User: group
Dark Spectrum Present: No
Reference Spectrum Present: No
Number of Sampled Component Spectra: 1
Spectrometers: USB2E7196
Integration Time (usec): 104000 (USB2E7196)
Spectra Averaged: 20 (USB2E7196)
Boxcar Smoothing: 10 (USB2E7196)
Correct for Electrical Dark: No (USB2E7196)
Strobe/Lamp Enabled: No (USB2E7196)
Correct for Detector Non-linearity: No (USB2E7196)
Correct for Stray Light: No (USB2E7196)
Number of Pixels in Processed Spectrum: 2048
>>>>>Begin Processed Spectral Data<<<<<
339.09	0.00
339.48	198.25
339.86	200.65
340.24	200.85
340.63	201.95
341.01	210.50
341.39	205.00
341.78	207.65
342.16	209.45
342.54	208.20
342.93	198.30
343.31	208.31
343.69	208.90
344.07	209.36
344.46	209.90
344.84	210.37
345.22	210.44
345.60	210.72
345.99	210.94
346.37	211.03
346.75	211.11
347.13	211.16
347.52	211.20
347.90	211.30
348.28	211.39
348.66	211.49
349.05	211.37
349.43	211.45
349.81	211.47
350.19	211.53
350.57	211.69
350.96	211.74
351.34	211.81
351.72	211.87
352.10	211.90
352.48	211.84
352.87	211.80
353.25	211.80
353.63	211.90
354.01	211.93
354.39	211.97
354.77	212.11
355.15	212.28
355.54	212.32
355.92	212.29
356.30	212.41
356.68	212.65
357.06	212.74
357.44	212.75
357.82	212.80
358.20	212.81
358.58	212.83
358.97	212.89
359.35	213.10
359.73	213.20
360.11	213.31
360.49	213.45
360.87	213.50
361.25	213.63
361.63	213.72
362.01	213.78
362.39	213.80
362.77	213.86
363.15	213.82
363.53	213.91
363.91	213.98
364.29	213.96
364.67	213.58
365.05	213.65
365.43	213.75
365.81	213.87
366.19	214.07
366.57	214.24
366.95	214.29
367.33	214.15
367.71	214.17
368.09	214.28
368.47	214.27
368.85	214.31
369.23	214.42
369.61	214.28
369.99	214.38
370.37	214.43
370.75	214.58
371.13	214.53
371.51	214.41
371.89	214.42
372.27	214.51
372.65	214.53
373.03	214.45
373.41	214.42
373.78	214.36
374.16	214.24
374.54	214.12
374.92	214.09
375.30	214.06
375.68	214.01
376.06	213.94
376.44	213.89
376.82	213.88
377.19	213.75
377.57	213.77
377.95	213.60
378.33	213.58
378.71	213.33
379.09	213.37
379.47	213.44
379.84	213.27
380.22	213.10
380.60	213.02
380.98	213.02
381.36	212.95
381.73	212.80
382.11	212.81
382.49	212.73
382.87	212.60
383.25	212.55
383.62	212.82
384.00	212.69
384.38	212.61
384.76	212.62
385.13	212.75
385.51	212.65
385.89	212.56
386.27	212.50
386.64	212.51
387.02	212.39
387.40	212.32
387.78	212.38
388.15	212.45
388.53	212.43
388.91	212.35
389.29	212.27
389.66	212.30
390.04	212.21
390.42	212.18
390.79	212.19
391.17	212.17
391.55	211.86
391.92	211.88
392.30	212.00
392.68	211.90
393.05	211.79
393.43	211.87
393.81	211.92
394.18	211.88
394.56	211.83
394.94	211.92
395.31	211.85
395.69	211.96
396.06	211.98
396.44	212.00
396.82	211.97
397.19	212.15
397.57	212.10
397.95	212.13
398.32	212.07
398.70	212.06
399.07	212.12
399.45	212.11
399.82	212.13
400.20	212.04
400.58	212.02
400.95	211.99
401.33	212.03
401.70	212.31
402.08	212.36
402.45	212.46
402.83	212.60
403.20	212.67
403.58	212.62
403.95	212.65
404.33	212.76
404.71	212.88
405.08	213.10
405.46	213.27
405.83	213.38
406.21	213.50
406.58	213.60
406.96	213.78
407.33	213.91
407.70	214.10
408.08	214.52
408.45	214.82
408.83	215.11
409.20	215.27
409.58	215.23
409.95	215.55
410.33	215.81
410.70	215.93
411.08	216.30
411.45	216.73
411.82	217.09
412.20	217.53
412.57	218.14
412.95	218.33
413.32	218.80
413.69	219.25
414.07	219.79
414.44	220.44
414.82	221.02
415.19	221.68
415.56	222.40
415.94	222.98
416.31	223.86
416.68	224.65
417.06	225.67
417.43	226.67
417.81	227.74
418.18	228.82
418.55	229.98
418.93	231.21
419.30	232.36
419.67	233.66
420.04	234.97
420.42	236.28
420.79	238.06
421.16	239.65
421.54	241.50
421.91	243.29
422.28	245.01
422.66	246.90
423.03	249.00
423.40	250.89
423.77	252.94
424.15	254.99
424.52	257.08
424.89	259.40
425.26	261.63
425.64	263.78
426.01	266.11
426.38	268.57
426.75	271.11
427.13	273.81
427.50	276.50
427.87	279.29
428.24	282.07
428.61	284.65
428.99	287.75
429.36	290.81
429.73	293.97
430.10	297.19
430.47	300.42
430.85	303.57
431.22	307.10
431.59	311.09
431.96	314.56
432.33	318.61
432.70	322.50
433.08	327.02
433.45	331.18
433.82	335.53
434.19	340.24
434.56	344.93
434.93	349.28
435.30	353.65
435.68	358.44
436.05	363.17
436.42	367.93
436.79	372.16
437.16	376.89
437.53	381.77
437.90	386.59
438.27	391.44
438.64	396.41
439.01	401.09
439.38	405.07
439.75	409.08
440.13	413.55
440.50	417.72
440.87	421.22
441.24	424.80
441.61	428.65
441.98	431.52
442.35	434.66
442.72	438.04
443.09	441.48
443.46	443.47
443.83	444.80
444.20	445.78
444.57	447.49
444.94	448.19
445.31	448.91
445.68	450.09
446.05	450.31
446.42	449.70
446.79	449.09
447.16	448.18
447.53	447.64
447.90	445.62
448.27	443.61
448.64	440.93
449.01	439.06
449.37	435.66
449.74	432.40
450.11	428.80
450.48	424.60
450.85	420.12
451.22	416.39
451.59	413.06
451.96	409.79
452.33	405.42
452.70	401.49
453.07	396.76
453.43	391.49
453.80	386.83
454.17	382.50
454.54	378.14
454.91	373.70
455.28	369.34
455.65	365.26
456.02	361.73
456.38	358.19
456.75	353.88
457.12	350.27
457.49	346.84
457.86	343.20
458.23	340.35
458.59	337.29
458.96	334.15
459.33	331.14
459.70	328.38
460.07	326.02
460.43	323.37
460.80	320.97
461.17	318.93
461.54	316.72
461.91	314.53
462.27	312.45
462.64	310.70
463.01	308.72
463.38	307.01
463.74	304.56
464.11	302.81
464.48	301.37
464.85	299.82
465.21	298.60
465.58	297.41
465.95	295.83
466.32	294.45
466.68	293.08
467.05	291.86
467.42	290.53
467.78	289.20
468.15	287.89
468.52	286.93
468.88	285.66
469.25	284.53
469.62	283.80
469.98	282.82
470.35	281.93
470.72	281.11
471.08	280.11
471.45	279.55
471.82	279.03
472.18	278.21
472.55	277.70
472.92	276.98
473.28	276.36
473.65	275.74
474.02	275.31
474.38	275.05
474.75	274.78
475.11	274.45
475.48	274.28
475.85	274.15
476.21	274.04
476.58	273.96
476.94	273.93
477.31	273.82
477.67	273.87
478.04	273.94
478.41	274.04
478.77	274.39
479.14	274.44
479.50	274.62
479.87	274.96
480.23	275.27
480.60	275.63
480.96	276.00
481.33	276.68
481.69	277.18
482.06	277.65
482.42	278.08
482.79	278.74
483.15	279.40
483.52	280.27
483.88	281.00
484.25	281.79
484.61	282.74
484.98	283.70
485.34	284.81
485.71	285.97
486.07	287.20
486.44	288.24
486.80	289.54
487.17	290.81
487.53	292.47
487.90	294.22
488.26	296.04
488.62	298.00
488.99	299.77
489.35	301.81
489.72	304.04
490.08	306.32
490.44	308.59
490.81	311.14
491.17	313.68
491.54	316.52
491.90	319.52
492.26	322.53
492.63	325.70
492.99	329.04
493.36	332.55
493.72	336.36
494.08	340.18
494.45	344.22
494.81	348.66
495.17	352.92
495.54	357.44
495.90	362.18
496.26	367.08
496.63	372.31
496.99	377.71
497.35	383.41
497.72	389.31
498.08	395.45
498.44	401.85
498.80	408.62
499.17	415.55
499.53	422.65
499.89	430.18
500.26	437.65
500.62	445.38
500.98	453.54
501.34	461.87
501.71	470.80
502.07	479.77
502.43	488.86
502.79	498.29
503.16	508.20
503.52	518.33
503.88	528.69
504.24	539.30
504.60	550.24
504.97	561.32
505.33	572.79
505.69	584.92
506.05	597.04
506.41	609.40
506.78	621.94
507.14	634.83
507.50	648.01
507.86	661.75
508.22	675.84
508.59	689.86
508.95	704.22
509.31	718.91
509.67	734.13
510.03	749.57
510.39	765.43
510.75	781.31
511.12	797.59
511.48	814.18
511.84	831.01
512.20	848.07
512.56	865.57
512.92	883.19
513.28	900.78
513.64	918.68
514.00	936.61
514.37	954.85
514.73	973.50
515.09	992.07
515.45	1010.81
515.81	1029.47
516.17	1048.60
516.53	1067.94
516.89	1087.03
517.25	1106.40
517.61	1125.94
517.97	1145.36
518.33	1164.70
518.69	1184.20
519.05	1203.78
519.41	1223.79
519.77	1243.79
520.13	1263.65
520.49	1283.47
520.85	1303.65
521.21	1324.01
521.57	1344.27
521.93	1364.20
522.29	1384.60
522.65	1405.08
523.01	1425.40
523.37	1445.14
523.73	1464.90
524.09	1484.80
524.45	1504.91
524.81	1524.74
525.17	1544.57
525.53	1564.34
525.89	1584.30
526.25	1603.94
526.61	1622.93
526.97	1641.98
527.33	1660.99
527.68	1679.97
528.04	1698.49
528.40	1716.20
528.76	1734.07
529.12	1752.68
529.48	1771.41
529.84	1789.37
530.20	1807.07
530.56	1824.53
530.91	1843.34
531.27	1861.54
531.63	1878.90
531.99	1895.90
532.35	1912.66
532.71	1929.51
533.07	1946.59
533.42	1963.00
533.78	1979.51
534.14	1995.83
534.50	2011.15
534.86	2026.85
535.21	2041.29
535.57	2057.00
535.93	2071.96
536.29	2086.46
536.65	2100.42
537.00	2113.62
537.36	2126.65
537.72	2139.38
538.08	2152.32
538.44	2164.52
538.79	2176.80
539.15	2189.24
539.51	2201.57
539.87	2214.00
540.22	2225.49
540.58	2237.28
540.94	2248.67
541.29	2258.66
541.65	2268.80
542.01	2279.04
542.37	2288.56
542.72	2299.02
543.08	2307.52
543.44	2317.47
543.79	2326.08
544.15	2334.15
544.51	2342.99
544.87	2351.83
545.22	2359.73
545.58	2366.80
545.94	2372.93
546.29	2378.76
546.65	2384.30
547.01	2389.50
547.36	2394.46
547.72	2399.20
548.07	2402.94
548.43	2406.56
548.79	2410.32
549.14	2413.67
549.50	2417.23
549.86	2420.01
550.21	2422.34
550.57	2425.37
550.92	2426.28
551.28	2427.67
551.64	2429.72
551.99	2431.69
552.35	2432.34
552.70	2433.16
553.06	2434.29
553.41	2435.32
553.77	2436.34
554.13	2437.04
554.48	2437.98
554.84	2438.74
555.19	2438.66
555.55	2437.78
555.90	2436.88
556.26	2436.29
556.61	2435.51
556.97	2433.99
557.32	2432.80
557.68	2430.98
558.03	2428.90
558.39	2427.80
558.74	2427.20
559.10	2425.54
559.45	2423.09
559.81	2421.46
560.16	2419.62
560.52	2417.54
560.87	2415.13
561.23	2411.86
561.58	2409.64
561.94	2405.91
562.29	2401.77
562.64	2398.70
563.00	2396.39
563.35	2394.06
563.71	2391.77
564.06	2389.15
564.42	2386.59
564.77	2384.28
565.12	2381.84
565.48	2379.22
565.83	2376.32
566.19	2373.19
566.54	2369.30
566.89	2365.41
567.25	2361.83
567.60	2358.00
567.96	2353.92
568.31	2350.35
568.66	2346.13
569.02	2341.14
569.37	2336.64
569.72	2332.54
570.08	2327.93
570.43	2322.26
570.78	2316.75
571.14	2310.80
571.49	2304.91
571.84	2299.58
572.20	2292.78
572.55	2287.02
572.90	2280.33
573.26	2273.38
573.61	2266.37
573.96	2259.64
574.31	2252.56
574.67	2244.53
575.02	2236.80
575.37	2229.63
575.72	2221.56
576.08	2214.85
576.43	2207.04
576.78	2199.71
577.13	2192.87
577.49	2185.75
577.84	2178.82
578.19	2172.10
578.54	2165.53
578.90	2159.20
579.25	2151.65
579.60	2144.12
579.95	2136.03
580.30	2129.13
580.66	2122.86
581.01	2115.40
581.36	2107.71
581.71	2100.15
582.06	2093.12
582.42	2085.95
582.77	2077.98
583.12	2070.72
583.47	2063.65
583.82	2057.03
584.17	2049.93
584.53	2042.68
584.88	2035.39
585.23	2027.99
585.58	2020.56
585.93	2012.89
586.28	2005.57
586.63	1998.19
586.98	1991.49
587.34	1984.74
587.69	1977.54
588.04	1969.74
588.39	1962.94
588.74	1955.58
589.09	1949.07
589.44	1941.84
589.79	1935.02
590.14	1928.54
590.49	1921.56
590.84	1914.58
591.19	1908.03
591.54	1900.90
591.89	1892.68
592.25	1885.17
592.60	1877.56
592.95	1869.39
593.30	1861.00
593.65	1852.79
594.00	1845.00
594.35	1838.93
594.70	1831.54
595.05	1824.44
595.40	1817.10
595.75	1809.09
596.10	1802.42
596.45	1795.46
596.80	1789.13
597.15	1782.45
597.50	1775.43
597.85	1768.73
598.19	1761.27
598.54	1753.89
598.89	1747.38
599.24	1741.59
599.59	1735.09
599.94	1729.60
600.29	1723.86
600.64	1718.04
600.99	1711.36
601.34	1705.38
601.69	1697.53
602.04	1690.62
602.39	1683.79
602.74	1677.61
603.08	1672.29
603.43	1666.75
603.78	1660.44
604.13	1653.90
604.48	1647.48
604.83	1641.58
605.18	1636.04
605.53	1629.89
605.87	1623.39
606.22	1617.32
606.57	1610.76
606.92	1604.44
607.27	1597.30
607.62	1590.39
607.96	1584.60
608.31	1579.17
608.66	1572.23
609.01	1565.47
609.36	1558.97
609.70	1551.95
610.05	1544.70
610.40	1537.30
610.75	1529.76
611.10	1522.86
611.44	1514.84
611.79	1507.15
612.14	1499.10
612.49	1490.47
612.83	1483.03
613.18	1475.35
613.53	1467.51
613.88	1459.22
614.22	1451.61
614.57	1443.91
614.92	1436.24
615.27	1427.86
615.61	1419.43
615.96	1412.19
616.31	1405.22
616.65	1398.48
617.00	1391.51
617.35	1384.45
617.70	1376.99
618.04	1368.92
618.39	1360.56
618.74	1353.54
619.08	1346.05
619.43	1338.86
619.78	1332.04
620.12	1324.79
620.47	1317.78
620.82	1309.91
621.16	1302.74
621.51	1295.32
621.85	1288.32
622.20	1281.07
622.55	1273.91
622.89	1266.46
623.24	1259.17
623.59	1251.52
623.93	1243.67
624.28	1236.56
624.62	1229.29
624.97	1222.30
625.32	1215.79
625.66	1209.34
626.01	1202.60
626.35	1196.03
626.70	1189.18
627.04	1182.59
627.39	1175.99
627.73	1169.40
628.08	1163.27
628.43	1156.43
628.77	1149.79
629.12	1143.01
629.46	1137.00
629.81	1130.60
630.15	1124.46
630.50	1117.86
630.84	1111.14
631.19	1104.77
631.53	1098.30
631.88	1091.47
632.22	1084.67
632.57	1078.31
632.91	1071.96
633.26	1065.45
633.60	1059.07
633.95	1053.10
634.29	1046.65
634.64	1040.65
634.98	1034.15
635.32	1028.15
635.67	1022.52
636.01	1016.55
636.36	1010.28
636.70	1004.10
637.05	998.05
637.39	992.32
637.73	986.70
638.08	981.68
638.42	976.46
638.77	970.63
639.11	965.32
639.45	959.74
639.80	953.77
640.14	947.64
640.49	941.84
640.83	935.98
641.17	930.22
641.52	924.64
641.86	918.57
642.20	913.01
642.55	906.87
642.89	900.86
643.23	894.92
643.58	889.75
643.92	883.67
644.26	878.10
644.61	872.30
644.95	866.55
645.29	860.51
645.64	854.43
645.98	848.88
646.32	843.35
646.66	837.67
647.01	832.25
647.35	827.20
647.69	821.70
648.04	816.43
648.38	810.93
648.72	805.30
649.06	799.92
649.41	794.45
649.75	789.29
650.09	784.03
650.43	778.71
650.78	773.06
651.12	767.80
651.46	762.56
651.80	757.44
652.14	752.40
652.49	747.32
652.83	742.15
653.17	736.65
653.51	731.15
653.85	726.28
654.20	721.15
654.54	715.85
654.88	710.76
655.22	705.68
655.56	700.58
655.90	695.53
656.25	690.36
656.59	685.54
656.93	680.54
657.27	675.73
657.61	670.75
657.95	666.00
658.29	661.43
658.64	656.88
658.98	652.20
659.32	647.24
659.66	642.63
660.00	637.96
660.34	633.46
660.68	629.02
661.02	624.35
661.36	619.99
661.70	615.71
662.05	611.64
662.39	607.69
662.73	603.64
663.07	599.85
663.41	595.94
663.75	591.79
664.09	587.81
664.43	583.65
664.77	579.94
665.11	576.06
665.45	572.23
665.79	568.37
666.13	564.41
666.47	560.70
666.81	556.91
667.15	553.24
667.49	549.97
667.83	546.56
668.17	542.97
668.51	539.53
668.85	536.21
669.19	532.97
669.53	529.49
669.87	526.10
670.21	522.64
670.55	519.33
670.89	516.38
671.23	513.51
671.57	510.54
671.91	507.46
672.25	504.32
672.58	501.37
672.92	498.21
673.26	495.50
673.60	492.62
673.94	489.73
674.28	486.99
674.62	484.15
674.96	481.36
675.30	478.78
675.64	475.95
675.97	473.10
676.31	470.35
676.65	467.58
676.99	465.18
677.33	462.48
677.67	459.88
678.01	457.09
678.34	454.30
678.68	451.91
679.02	449.13
679.36	446.66
679.70	444.16
680.04	441.64
680.37	439.02
680.71	436.61
681.05	434.35
681.39	431.95
681.73	429.42
682.06	427.16
682.40	424.89
682.74	422.73
683.08	420.64
683.42	418.15
683.75	416.01
684.09	413.57
684.43	411.48
684.77	409.19
685.10	407.04
685.44	404.81
685.78	402.49
686.12	400.58
686.45	398.51
686.79	396.31
687.13	394.64
687.46	392.57
687.80	390.61
688.14	388.45
688.48	386.50
688.81	384.51
689.15	382.53
689.49	380.40
689.82	378.43
690.16	376.19
690.50	374.09
690.83	372.07
691.17	370.04
691.51	368.01
691.84	366.26
692.18	364.31
692.52	362.51
692.85	360.77
693.19	359.10
693.52	357.35
693.86	355.61
694.20	353.64
694.53	352.14
694.87	350.36
695.21	348.71
695.54	346.95
695.88	345.24
696.21	343.47
696.55	341.99
696.88	340.23
697.22	338.70
697.56	337.50
697.89	335.97
698.23	334.51
698.56	333.10
698.90	331.71
699.23	330.41
699.57	329.03
699.90	327.50
700.24	325.89
700.58	324.49
700.91	323.18
701.25	322.11
701.58	320.73
701.92	319.35
702.25	317.99
702.59	316.68
702.92	315.42
703.26	314.24
703.59	313.02
703.93	312.23
704.26	311.15
704.60	309.83
704.93	308.70
705.26	307.50
705.60	306.44
705.93	305.17
706.27	304.05
706.60	303.05
706.94	302.15
707.27	301.12
707.61	300.00
707.94	298.89
708.27	297.50
708.61	296.36
708.94	295.45
709.28	294.42
709.61	293.40
709.94	292.50
710.28	291.46
710.61	290.51
710.95	289.13
711.28	288.38
711.61	287.54
711.95	286.72
712.28	285.84
712.61	284.92
712.95	284.24
713.28	283.53
713.61	282.55
713.95	281.68
714.28	280.88
714.61	280.15
714.95	279.32
715.28	278.52
715.61	277.71
715.95	276.89
716.28	276.17
716.61	275.52
716.95	274.71
717.28	273.98
717.61	273.21
717.94	272.68
718.28	271.66
718.61	270.95
718.94	270.11
719.27	269.48
719.61	268.81
719.94	268.10
720.27	267.24
720.60	266.58
720.94	265.88
721.27	265.24
721.60	264.68
721.93	264.04
722.27	263.62
722.60	263.17
722.93	262.61
723.26	262.01
723.59	261.39
723.93	260.94
724.26	260.53
724.59	259.93
724.92	259.38
725.25	259.03
725.59	258.47
725.92	258.12
726.25	257.55
726.58	257.11
726.91	256.59
727.24	256.11
727.57	255.67
727.91	255.17
728.24	254.79
728.57	254.28
728.90	253.98
729.23	253.40
729.56	253.03
729.89	252.59
730.22	252.18
730.55	251.77
730.89	251.25
731.22	250.71
731.55	250.28
731.88	249.90
732.21	249.42
732.54	248.94
732.87	248.42
733.20	248.07
733.53	247.66
733.86	247.33
734.19	246.88
734.52	246.46
734.85	246.38
735.18	245.90
735.51	245.62
735.84	245.14
736.17	244.89
736.50	244.36
736.83	244.37
737.16	243.98
737.49	243.64
737.82	243.28
738.15	242.98
738.48	242.65
738.81	242.21
739.14	241.79
739.47	241.50
739.80	241.19
740.13	240.89
740.46	240.46
740.79	239.94
741.12	239.69
741.45	239.39
741.78	238.85
742.11	238.63
742.44	238.18
742.77	237.96
743.10	237.55
743.43	237.28
743.75	236.68
744.08	236.81
744.41	236.47
744.74	236.20
745.07	235.92
745.40	235.74
745.73	235.66
746.06	235.39
746.39	235.12
746.71	234.76
747.04	234.48
747.37	234.31
747.70	234.17
748.03	233.99
748.36	233.82
748.68	233.53
749.01	233.25
749.34	232.97
749.67	232.78
750.00	232.61
750.33	232.57
750.65	232.30
750.98	231.70
751.31	231.46
751.64	231.29
751.97	231.25
752.29	231.00
752.62	230.59
752.95	230.44
753.28	230.22
753.60	230.11
753.93	229.97
754.26	229.75
754.59	229.38
754.91	229.06
755.24	228.86
755.57	228.73
755.90	228.53
756.22	228.33
756.55	228.03
756.88	227.67
757.20	227.22
757.53	226.99
757.86	226.73
758.19	226.60
758.51	226.36
758.84	226.01
759.17	225.74
759.49	225.57
759.82	225.52
760.15	225.34
760.47	225.06
760.80	224.74
761.13	224.61
761.45	224.55
761.78	224.38
762.11	224.18
762.43	223.94
762.76	223.75
763.08	223.69
763.41	223.62
763.74	223.59
764.06	223.48
764.39	223.29
764.71	223.26
765.04	223.04
765.37	222.89
765.69	222.70
766.02	222.65
766.34	222.50
766.67	222.21
767.00	222.12
767.32	222.27
767.65	222.38
767.97	222.19
768.30	222.05
768.62	221.88
768.95	221.67
769.27	221.60
769.60	221.48
769.92	221.30
770.25	221.10
770.57	220.91
770.90	220.75
771.22	220.67
771.55	220.50
771.87	220.41
772.20	220.33
772.52	220.57
772.85	220.79
773.17	220.74
773.50	220.67
773.82	220.55
774.15	220.26
774.47	219.91
774.80	219.79
775.12	219.60
775.45	219.55
775.77	219.54
776.09	219.46
776.42	219.36
776.74	219.37
777.07	219.21
777.39	219.16
777.72	219.15
778.04	219.10
778.36	219.05
778.69	219.04
779.01	219.00
779.33	218.59
779.66	218.15
779.98	218.01
780.31	217.95
780.63	218.04
780.95	218.06
781.28	218.01
781.60	217.89
781.92	217.90
782.25	217.87
782.57	217.75
782.89	217.64
783.22	217.60
783.54	217.48
783.86	217.48
784.19	217.37
784.51	217.35
784.83	217.17
785.16	217.04
785.48	217.00
785.80	216.90
786.12	216.86
786.45	216.74
786.77	216.73
787.09	216.69
787.42	216.52
787.74	216.52
788.06	216.53
788.38	216.54
788.71	216.46
789.03	216.39
789.35	216.41
789.67	216.35
789.99	216.35
790.32	216.24
790.64	216.23
790.96	216.55
791.28	216.43
791.61	216.39
791.93	216.39
792.25	216.30
792.57	216.54
792.89	216.44
793.21	216.47
793.54	216.39
793.86	216.27
794.18	216.21
794.50	216.04
794.82	215.95
795.14	215.92
795.47	216.00
795.79	215.93
796.11	215.77
796.43	215.76
796.75	215.70
797.07	215.73
797.39	215.60
797.71	215.23
798.04	215.21
798.36	215.30
798.68	215.24
799.00	215.29
799.32	215.02
799.64	215.11
799.96	215.06
800.28	215.08
800.60	214.99
800.92	215.01
801.24	214.98
801.56	215.00
801.89	214.92
802.21	214.83
802.53	214.81
802.85	214.85
803.17	214.90
803.49	214.81
803.81	214.69
804.13	214.68
804.45	214.69
804.77	214.68
805.09	214.55
805.41	214.45
805.73	214.24
806.05	214.21
806.37	214.09
806.69	214.01
807.01	213.98
807.33	214.10
807.65	213.91
807.97	213.98
808.28	213.89
808.60	213.85
808.92	213.86
809.24	213.99
809.56	213.92
809.88	213.84
810.20	213.82
810.52	213.88
810.84	213.89
811.16	213.80
811.48	213.78
811.80	213.93
812.12	213.89
812.43	213.99
812.75	213.99
813.07	213.98
813.39	214.05
813.71	213.93
814.03	213.81
814.35	213.94
814.67	213.83
814.98	213.81
815.30	213.84
815.62	213.68
815.94	213.42
816.26	213.38
816.58	213.29
816.89	213.30
817.21	213.17
817.53	213.17
817.85	213.14
818.17	213.11
818.48	212.89
818.80	212.99
819.12	212.92
819.44	212.76
819.76	212.72
820.07	212.62
820.39	212.63
820.71	212.63
821.03	212.49
821.34	212.43
821.66	212.47
821.98	212.44
822.30	212.45
822.61	212.66
822.93	212.65
823.25	212.64
823.57	212.59
823.88	212.69
824.20	212.61
824.52	212.70
824.83	212.62
825.15	212.65
825.47	212.63
825.79	212.63
826.10	212.65
826.42	212.60
826.74	212.73
827.05	212.72
827.37	212.74
827.69	212.75
828.00	212.73
828.32	212.77
828.64	212.67
828.95	212.86
829.27	212.76
829.58	212.77
829.90	212.85
830.22	212.85
830.53	212.78
830.85	212.85
831.17	212.72
831.48	212.78
831.80	212.75
832.11	212.76
832.43	212.75
832.75	212.74
833.06	212.89
833.38	212.69
833.69	212.68
834.01	212.67
834.32	212.62
834.64	212.61
834.96	212.59
835.27	212.60
835.59	212.47
835.90	212.43
836.22	212.38
836.53	212.31
836.85	212.27
837.16	212.57
837.48	212.54
837.79	212.68
838.11	212.64
838.42	212.70
838.74	212.69
839.05	212.66
839.37	212.68
839.68	212.58
840.00	212.61
840.31	212.67
840.63	212.60
840.94	212.70
841.26	212.62
841.57	212.52
841.88	212.57
842.20	212.48
842.51	212.43
842.83	212.45
843.14	212.73
843.46	212.74
843.77	212.51
844.08	212.47
844.40	212.40
844.71	212.46
845.03	212.45
845.34	212.37
845.65	212.35
845.97	212.35
846.28	212.30
846.60	212.35
846.91	212.29
847.22	212.30
847.54	212.35
847.85	212.42
848.16	212.46
848.48	212.41
848.79	212.58
849.10	212.63
849.42	212.66
849.73	212.33
850.04	212.28
850.36	212.24
850.67	212.29
850.98	212.27
851.30	212.25
851.61	212.19
851.92	212.21
852.23	212.33
852.55	212.39
852.86	212.42
853.17	212.45
853.49	212.52
853.80	212.61
854.11	212.63
854.42	212.71
854.74	212.65
855.05	212.66
855.36	212.51
855.67	212.55
855.99	212.57
856.30	213.05
856.61	213.05
856.92	213.04
857.23	213.03
857.55	213.02
857.86	212.97
858.17	213.01
858.48	213.01
858.79	212.89
859.11	212.86
859.42	212.90
859.73	212.87
860.04	212.85
860.35	212.74
860.66	212.62
860.98	212.58
861.29	212.61
861.60	212.61
861.91	212.65
862.22	212.60
862.53	212.50
862.84	212.00
863.16	212.10
863.47	211.98
863.78	211.94
864.09	211.94
864.40	211.98
864.71	211.97
865.02	211.97
865.33	211.98
865.64	211.88
865.95	211.83
866.27	211.99
866.58	211.93
866.89	211.98
867.20	211.98
867.51	211.96
867.82	211.91
868.13	212.05
868.44	211.92
868.75	211.98
869.06	212.00
869.37	212.08
869.68	212.05
869.99	212.16
870.30	212.16
870.61	212.24
870.92	212.10
871.23	212.12
871.54	212.16
871.85	212.25
872.16	212.36
872.47	212.30
872.78	212.15
873.09	212.20
873.40	212.16
873.71	212.14
874.02	212.16
874.33	212.15
874.64	212.03
874.95	212.18
875.26	212.05
875.56	212.05
875.87	212.03
876.18	211.98
876.49	212.31
876.80	212.34
877.11	212.23
877.42	212.34
877.73	212.30
878.04	212.27
878.35	212.18
878.66	212.15
878.96	212.18
879.27	212.14
879.58	212.06
879.89	212.06
880.20	212.16
880.51	212.10
880.82	212.08
881.12	212.02
881.43	211.88
881.74	211.92
882.05	211.91
882.36	211.93
882.67	211.96
882.97	211.54
883.28	211.48
883.59	211.44
883.90	211.40
884.21	211.43
884.51	211.41
884.82	211.40
885.13	211.39
885.44	211.30
885.74	211.32
886.05	211.34
886.36	211.33
886.67	211.25
886.98	211.43
887.28	211.49
887.59	211.55
887.90	211.55
888.20	211.45
888.51	211.47
888.82	211.41
889.13	211.41
889.43	211.71
889.74	211.67
890.05	211.69
890.35	211.65
890.66	211.58
890.97	211.53
891.28	211.45
891.58	211.50
891.89	211.57
892.20	211.49
892.50	211.44
892.81	211.44
893.12	211.37
893.42	211.16
893.73	211.20
894.04	211.16
894.34	211.27
894.65	211.25
894.95	211.17
895.26	211.21
895.57	211.35
895.87	211.02
896.18	211.12
896.48	211.11
896.79	211.11
897.10	211.23
897.40	211.23
897.71	211.29
898.01	211.16
898.32	211.17
898.63	211.13
898.93	211.21
899.24	211.15
899.54	211.19
899.85	211.21
900.15	211.20
900.46	211.23
900.76	211.28
901.07	211.29
901.38	211.38
901.68	211.38
901.99	211.22
902.29	211.23
902.60	211.14
902.90	211.21
903.21	211.21
903.51	211.08
903.82	211.15
904.12	211.15
904.43	211.20
904.73	211.17
905.03	211.26
905.34	211.53
905.64	211.60
905.95	211.57
906.25	211.55
906.56	211.47
906.86	211.40
907.17	211.33
907.47	211.33
907.77	211.34
908.08	211.26
908.38	211.32
908.69	211.37
908.99	211.44
909.30	211.40
909.60	211.37
909.90	211.45
910.21	211.37
910.51	211.35
910.81	211.43
911.12	211.46
911.42	211.46
911.73	211.08
912.03	211.04
912.33	211.13
912.64	211.09
912.94	211.09
913.24	211.04
913.55	211.08
913.85	211.13
914.15	211.10
914.46	211.16
914.76	211.10
915.06	211.06
915.37	211.04
915.67	211.01
915.97	211.12
916.27	211.00
916.58	211.03
916.88	211.06
917.18	211.00
917.49	211.28
917.79	211.27
918.09	211.39
918.39	211.49
918.70	211.51
919.00	211.56
919.30	211.72
919.60	211.75
919.91	211.70
920.21	211.70
920.51	211.65
920.81	211.63
921.12	211.71
921.42	211.77
921.72	211.81
922.02	211.81
922.32	211.83
922.63	211.88
922.93	212.06
923.23	212.08
923.53	212.05
923.83	211.84
924.13	211.90
924.44	211.89
924.74	211.97
925.04	211.95
925.34	212.04
925.64	211.95
925.94	212.05
926.24	212.26
926.55	212.25
926.85	212.28
927.15	212.28
927.45	212.23
927.75	212.20
928.05	212.16
928.35	212.14
928.65	212.21
928.95	212.22
929.26	212.09
929.56	212.09
929.86	212.19
930.16	212.12
930.46	212.04
930.76	212.05
931.06	211.84
931.36	211.86
931.66	211.82
931.96	211.82
932.26	211.78
932.56	211.65
932.86	211.66
933.16	211.63
933.46	211.66
933.76	211.56
934.06	211.65
934.36	211.79
934.66	211.80
934.96	211.69
935.26	211.71
935.56	211.71
935.86	211.61
936.16	211.47
936.46	211.39
936.76	211.35
937.06	211.29
937.36	211.25
937.66	211.23
937.96	211.20
938.26	211.13
938.56	211.05
938.86	210.98
939.16	211.00
939.46	211.05
939.76	211.05
940.06	211.10
940.35	210.98
940.65	210.83
940.95	210.81
941.25	210.77
941.55	210.75
941.85	210.68
942.15	210.82
942.45	210.91
942.75	210.94
943.04	210.98
943.34	211.00
943.64	211.01
943.94	210.89
944.24	210.84
944.54	210.80
944.84	210.87
945.13	210.83
945.43	210.82
945.73	210.87
946.03	210.82
946.33	210.76
946.62	210.75
946.92	210.75
947.22	210.76
947.52	210.83
947.82	210.83
948.11	210.85
948.41	210.79
948.71	210.71
949.01	210.69
949.31	210.71
949.60	210.74
949.90	210.78
950.20	210.79
950.50	210.81
950.79	210.87
951.09	210.90
951.39	210.83
951.69	210.83
951.98	210.83
952.28	210.81
952.58	210.96
952.87	210.97
953.17	210.97
953.47	210.90
953.76	210.85
954.06	210.83
954.36	210.75
954.66	210.67
954.95	210.79
955.25	210.86
955.55	210.88
955.84	210.81
956.14	210.84
956.44	210.87
956.73	210.84
957.03	210.81
957.32	210.88
957.62	210.90
957.92	210.94
958.21	210.91
958.51	211.32
958.81	211.25
959.10	211.27
959.40	211.28
959.69	211.34
959.99	211.36
960.29	211.38
960.58	211.39
960.88	211.55
961.17	211.45
961.47	211.52
961.76	211.49
962.06	211.58
962.36	211.58
962.65	211.69
962.95	211.68
963.24	211.68
963.54	211.61
963.83	211.67
964.13	211.66
964.42	211.60
964.72	211.30
965.01	211.30
965.31	211.36
965.60	211.30
965.90	211.53
966.19	211.55
966.49	211.63
966.78	211.60
967.08	211.62
967.37	211.65
967.67	211.51
967.96	211.60
968.26	211.60
968.55	211.70
968.85	211.56
969.14	211.60
969.43	211.64
969.73	211.68
970.02	211.71
970.32	211.63
970.61	211.60
970.91	211.58
971.20	211.52
971.49	211.41
971.79	211.50
972.08	211.28
972.38	211.23
972.67	211.11
972.96	211.19
973.26	211.09
973.55	211.20
973.85	211.19
974.14	211.11
974.43	211.11
974.73	210.96
975.02	210.95
975.31	210.91
975.61	210.89
975.90	210.81
976.19	210.76
976.49	210.82
976.78	210.92
977.07	210.88
977.37	210.92
977.66	210.92
977.95	210.90
978.24	210.91
978.54	210.97
978.83	210.96
979.12	210.97
979.42	211.00
979.71	210.89
980.00	210.84
980.29	210.89
980.59	210.77
980.88	210.92
981.17	210.94
981.46	210.96
981.76	210.95
982.05	211.08
982.34	211.01
982.63	211.03
982.93	211.01
983.22	211.10
983.51	211.13
983.80	211.23
984.09	211.29
984.39	211.34
984.68	211.27
984.97	211.30
985.26	211.27
985.55	211.25
985.85	211.15
986.14	211.25
986.43	211.25
986.72	211.25
987.01	211.15
987.30	211.19
987.59	211.23
987.89	211.24
988.18	211.08
988.47	211.08
988.76	211.03
989.05	210.91
989.34	210.83
989.63	210.88
989.92	210.76
990.22	210.70
990.51	210.68
990.80	210.66
991.09	210.72
991.38	210.70
991.67	210.71
991.96	210.77
992.25	210.84
992.54	210.82
992.83	210.82
993.12	210.77
993.41	210.73
993.70	210.86
993.99	210.91
994.28	210.97
994.58	211.03
994.87	210.98
995.16	211.04
995.45	210.99
995.74	210.84
996.03	210.87
996.32	210.86
996.61	210.86
996.90	210.93
997.19	210.86
997.48	210.91
997.77	210.85
998.06	210.78
998.34	210.72
998.63	210.66
998.92	210.72
999.21	210.73
999.50	210.76
999.79	210.62
1000.08	210.55
1000.37	210.57
1000.66	210.57
1000.95	210.69
1001.24	210.68
1001.53	210.77
1001.82	210.84
1002.11	210.75
1002.40	210.83
1002.68	210.97
1002.97	211.08
1003.26	211.07
1003.55	211.03
1003.84	211.01
1004.13	211.28
1004.42	211.25
1004.71	211.28
1004.99	211.25
1005.28	211.40
1005.57	211.45
1005.86	211.40
1006.15	211.45
1006.44	211.37
1006.72	211.42
1007.01	211.31
1007.30	211.33
1007.59	211.29
1007.88	211.28
1008.17	211.35
1008.45	211.29
1008.74	211.12
1009.03	211.03
1009.32	211.03
1009.60	211.11
1009.89	211.14
1010.18	210.94
1010.47	210.86
1010.76	210.83
1011.04	210.84
1011.33	210.82
1011.62	210.84
1011.91	210.89
1012.19	210.85
1012.48	210.94
1012.77	210.90
1013.05	211.09
1013.34	211.12
1013.63	211.12
1013.92	211.15
1014.20	211.12
1014.49	211.15
1014.78	211.14
1015.06	211.07
1015.35	211.08
1015.64	211.07
1015.92	211.11
1016.21	211.15
1016.50	211.23
1016.78	211.29
1017.07	211.31
1017.36	211.25
1017.64	211.15
1017.93	211.12
1018.22	211.12
1018.50	211.08
1018.79	211.11
1019.08	211.00
1019.36	210.96
1019.65	210.93
1019.93	210.98
1020.22	211.10
1020.51	211.26
1020.79	211.22
1021.08	210.95
1021.36	210.80
1021.65	211.50
1021.94	211.70
1022.22	210.30
1022.51	210.50
1022.79	211.95
1023.08	212.05
1023.36	214.85
1023.65	209.60
>>>>>End Processed Spectral Data<<<<<
