SpectraSuite Data File
++++++++++++++++++++++++++++++++++++
Date: Mon Feb 25 17:02:33 EST 2013
User: group
Dark Spectrum Present: No
Reference Spectrum Present: No
Number of Sampled Component Spectra: 1
Spectrometers: USB2E7196
Integration Time (usec): 104000 (USB2E7196)
Spectra Averaged: 20 (USB2E7196)
Boxcar Smoothing: 10 (USB2E7196)
Correct for Electrical Dark: No (USB2E7196)
Strobe/Lamp Enabled: No (USB2E7196)
Correct for Detector Non-linearity: No (USB2E7196)
Correct for Stray Light: No (USB2E7196)
Number of Pixels in Processed Spectrum: 2048
>>>>>Begin Processed Spectral Data<<<<<
339.09	0.00
339.48	197.45
339.86	199.55
340.24	201.30
340.63	202.55
341.01	208.85
341.39	205.90
341.78	208.10
342.16	209.05
342.54	209.35
342.93	198.17
343.31	208.19
343.69	208.74
344.07	209.27
344.46	209.75
344.84	210.14
345.22	210.20
345.60	210.45
345.99	210.55
346.37	210.64
346.75	210.66
347.13	210.79
347.52	210.90
347.90	211.05
348.28	210.98
348.66	211.02
349.05	210.86
349.43	210.94
349.81	211.00
350.19	211.01
350.57	211.11
350.96	211.22
351.34	211.31
351.72	211.46
352.10	211.48
352.48	211.50
352.87	211.54
353.25	211.55
353.63	211.60
354.01	211.73
354.39	211.76
354.77	211.82
355.15	211.96
355.54	212.00
355.92	211.93
356.30	212.04
356.68	212.37
357.06	212.48
357.44	212.45
357.82	212.54
358.20	212.58
358.58	212.70
358.97	212.73
359.35	212.82
359.73	212.91
360.11	212.98
360.49	213.02
360.87	213.06
361.25	213.23
361.63	213.35
362.01	213.31
362.39	213.42
362.77	213.54
363.15	213.56
363.53	213.46
363.91	213.58
364.29	213.62
364.67	213.31
365.05	213.34
365.43	213.44
365.81	213.44
366.19	213.62
366.57	213.68
366.95	213.65
367.33	213.62
367.71	213.60
368.09	213.60
368.47	213.57
368.85	213.62
369.23	213.71
369.61	213.62
369.99	213.77
370.37	213.66
370.75	213.82
371.13	213.63
371.51	213.63
371.89	213.61
372.27	213.60
372.65	213.58
373.03	213.50
373.41	213.36
373.78	213.30
374.16	213.12
374.54	212.96
374.92	212.90
375.30	212.87
375.68	212.75
376.06	212.77
376.44	212.70
376.82	212.58
377.19	212.48
377.57	212.36
377.95	212.23
378.33	212.16
378.71	211.88
379.09	211.87
379.47	211.92
379.84	211.83
380.22	211.78
380.60	211.62
380.98	211.56
381.36	211.61
381.73	211.59
382.11	211.54
382.49	211.49
382.87	211.39
383.25	211.31
383.62	211.61
384.00	211.48
384.38	211.45
384.76	211.53
385.13	211.61
385.51	211.58
385.89	211.45
386.27	211.47
386.64	211.42
387.02	211.38
387.40	211.29
387.78	211.25
388.15	211.20
388.53	211.19
388.91	211.19
389.29	211.15
389.66	211.16
390.04	211.07
390.42	211.07
390.79	211.07
391.17	210.95
391.55	210.66
391.92	210.67
392.30	210.72
392.68	210.56
393.05	210.50
393.43	210.48
393.81	210.52
394.18	210.49
394.56	210.57
394.94	210.69
395.31	210.69
395.69	210.79
396.06	210.87
396.44	210.96
396.82	210.88
397.19	211.00
397.57	210.89
397.95	211.02
398.32	210.98
398.70	211.04
399.07	211.24
399.45	211.16
399.82	211.14
400.20	211.12
400.58	211.15
400.95	211.04
401.33	211.23
401.70	211.51
402.08	211.56
402.45	211.61
402.83	211.75
403.20	211.75
403.58	211.76
403.95	211.84
404.33	211.98
404.71	212.17
405.08	212.44
405.46	212.60
405.83	212.75
406.21	212.95
406.58	213.10
406.96	213.20
407.33	213.49
407.70	213.81
408.08	214.30
408.45	214.63
408.83	214.92
409.20	215.15
409.58	215.23
409.95	215.63
410.33	215.96
410.70	216.21
411.08	216.68
411.45	217.11
411.82	217.53
412.20	218.01
412.57	218.71
412.95	219.01
413.32	219.63
413.69	220.26
414.07	220.93
414.44	221.64
414.82	222.47
415.19	223.37
415.56	224.19
415.94	224.99
416.31	226.15
416.68	227.30
417.06	228.51
417.43	229.81
417.81	231.30
418.18	232.71
418.55	234.23
418.93	235.83
419.30	237.54
419.67	239.35
420.04	241.14
420.42	243.00
420.79	245.39
421.16	247.65
421.54	250.07
421.91	252.52
422.28	255.10
422.66	257.72
423.03	260.55
423.40	263.33
423.77	266.25
424.15	269.09
424.52	272.13
424.89	275.56
425.26	278.70
425.64	281.62
426.01	284.99
426.38	288.52
426.75	292.25
427.13	295.92
427.50	299.85
427.87	304.07
428.24	308.16
428.61	312.06
428.99	316.53
429.36	321.20
429.73	325.82
430.10	330.55
430.47	335.46
430.85	340.29
431.22	345.61
431.59	351.37
431.96	356.88
432.33	362.85
432.70	368.72
433.08	375.63
433.45	382.16
433.82	388.75
434.19	396.00
434.56	403.07
434.93	409.93
435.30	416.76
435.68	424.35
436.05	431.88
436.42	439.33
436.79	446.11
437.16	453.57
437.53	461.43
437.90	469.17
438.27	476.85
438.64	484.74
439.01	492.22
439.38	498.67
439.75	505.01
440.13	512.47
440.50	519.36
440.87	525.10
441.24	531.25
441.61	537.91
441.98	542.95
442.35	548.69
442.72	554.56
443.09	560.26
443.46	563.88
443.83	566.53
444.20	568.81
444.57	572.06
444.94	573.74
445.31	575.55
445.68	577.54
446.05	578.56
446.42	578.28
446.79	577.92
447.16	577.47
447.53	577.47
447.90	575.07
448.27	572.86
448.64	569.37
449.01	566.87
449.37	562.15
449.74	557.63
450.11	552.30
450.48	546.38
450.85	540.19
451.22	534.96
451.59	530.05
451.96	525.33
452.33	518.78
452.70	512.88
453.07	505.77
453.43	498.29
453.80	491.34
454.17	484.87
454.54	478.57
454.91	471.77
455.28	464.94
455.65	458.73
456.02	452.58
456.38	447.24
456.75	440.56
457.12	435.02
457.49	429.53
457.86	424.08
458.23	419.55
458.59	414.60
458.96	409.51
459.33	404.90
459.70	400.33
460.07	396.69
460.43	392.60
460.80	388.77
461.17	385.38
461.54	381.67
461.91	378.10
462.27	374.65
462.64	371.65
463.01	368.48
463.38	365.33
463.74	361.89
464.11	359.13
464.48	356.76
464.85	354.11
465.21	352.12
465.58	349.99
465.95	347.25
466.32	344.94
466.68	342.72
467.05	340.57
467.42	338.36
467.78	336.20
468.15	334.11
468.52	332.47
468.88	330.27
469.25	328.45
469.62	326.91
469.98	325.12
470.35	323.58
470.72	322.10
471.08	320.50
471.45	319.25
471.82	317.95
472.18	316.43
472.55	315.34
472.92	313.95
473.28	312.67
473.65	311.52
474.02	310.44
474.38	309.48
474.75	308.64
475.11	307.82
475.48	306.97
475.85	306.23
476.21	305.60
476.58	305.14
476.94	304.70
477.31	304.25
477.67	303.80
478.04	303.46
478.41	303.02
478.77	303.04
479.14	302.68
479.50	302.43
479.87	302.32
480.23	302.15
480.60	302.06
480.96	302.03
481.33	302.20
481.69	302.31
482.06	302.36
482.42	302.35
482.79	302.38
483.15	302.59
483.52	302.87
483.88	302.92
484.25	303.17
484.61	303.43
484.98	303.70
485.34	304.20
485.71	304.71
486.07	305.24
486.44	305.39
486.80	305.87
487.17	306.52
487.53	307.19
487.90	307.96
488.26	308.83
488.62	309.67
488.99	310.41
489.35	311.21
489.72	312.13
490.08	313.14
490.44	314.16
490.81	315.28
491.17	316.34
491.54	317.56
491.90	318.74
492.26	320.00
492.63	321.24
492.99	322.41
493.36	323.71
493.72	325.23
494.08	326.72
494.45	328.39
494.81	329.92
495.17	331.49
495.54	333.15
495.90	334.71
496.26	336.24
496.63	337.93
496.99	339.58
497.35	341.28
497.72	343.03
498.08	344.70
498.44	346.46
498.80	348.28
499.17	350.16
499.53	351.92
499.89	353.75
500.26	355.49
500.62	357.17
500.98	358.90
501.34	360.58
501.71	362.42
502.07	364.01
502.43	365.64
502.79	367.21
503.16	368.69
503.52	370.29
503.88	371.82
504.24	373.28
504.60	374.92
504.97	376.46
505.33	377.81
505.69	379.39
506.05	380.55
506.41	381.77
506.78	382.87
507.14	383.97
507.50	385.09
507.86	386.30
508.22	387.55
508.59	388.46
508.95	389.30
509.31	390.39
509.67	391.30
510.03	392.09
510.39	392.88
510.75	393.64
511.12	394.20
511.48	394.96
511.84	395.50
512.20	395.89
512.56	396.35
512.92	396.90
513.28	397.19
513.64	397.58
514.00	397.96
514.37	398.33
514.73	398.70
515.09	398.84
515.45	398.75
515.81	398.71
516.17	398.78
516.53	398.80
516.89	398.58
517.25	398.46
517.61	398.39
517.97	398.24
518.33	398.16
518.69	398.16
519.05	397.94
519.41	397.90
519.77	397.96
520.13	397.75
520.49	397.35
520.85	397.06
521.21	397.00
521.57	396.72
521.93	396.36
522.29	396.24
522.65	396.00
523.01	396.00
523.37	395.83
523.73	395.83
524.09	395.80
524.45	395.61
524.81	395.65
525.17	395.72
525.53	395.97
525.89	395.95
526.25	396.13
526.61	396.15
526.97	396.29
527.33	396.45
527.68	397.07
528.04	397.47
528.40	397.81
528.76	398.30
529.12	398.93
529.48	399.85
529.84	400.36
530.20	401.15
530.56	401.98
530.91	402.88
531.27	403.78
531.63	404.81
531.99	405.75
532.35	406.68
532.71	407.68
533.07	408.70
533.42	410.31
533.78	411.35
534.14	412.85
534.50	414.16
534.86	415.59
535.21	416.69
535.57	418.25
535.93	419.83
536.29	421.49
536.65	423.07
537.00	424.30
537.36	425.97
537.72	427.59
538.08	429.32
538.44	431.12
538.79	432.87
539.15	434.76
539.51	436.85
539.87	438.85
540.22	440.94
540.58	443.17
540.94	445.14
541.29	447.35
541.65	449.42
542.01	451.72
542.37	454.09
542.72	456.42
543.08	458.70
543.44	461.23
543.79	463.41
544.15	465.86
544.51	468.71
544.87	471.33
545.22	474.04
545.58	476.60
545.94	479.23
546.29	481.99
546.65	484.52
547.01	487.11
547.36	490.01
547.72	492.69
548.07	495.33
548.43	497.74
548.79	500.36
549.14	503.17
549.50	505.98
549.86	508.44
550.21	511.20
550.57	514.22
550.92	516.79
551.28	519.59
551.64	522.17
551.99	524.78
552.35	527.32
552.70	529.85
553.06	532.49
553.41	535.15
553.77	537.87
554.13	540.57
554.48	543.30
554.84	545.80
555.19	548.43
555.55	551.26
555.90	553.80
556.26	556.43
556.61	558.93
556.97	561.18
557.32	563.65
557.68	566.04
558.03	568.22
558.39	570.70
558.74	573.27
559.10	575.78
559.45	578.32
559.81	580.85
560.16	583.16
560.52	585.55
560.87	587.88
561.23	590.01
561.58	592.48
561.94	594.63
562.29	596.85
562.64	599.13
563.00	601.10
563.35	603.50
563.71	605.81
564.06	607.99
564.42	610.31
564.77	612.57
565.12	614.81
565.48	617.26
565.83	619.40
566.19	621.41
566.54	623.38
566.89	625.15
567.25	627.29
567.60	629.41
567.96	631.47
568.31	633.51
568.66	635.40
569.02	636.90
569.37	638.47
569.72	640.09
570.08	641.44
570.43	642.76
570.78	643.86
571.14	644.74
571.49	645.85
571.84	647.04
572.20	648.08
572.55	648.98
572.90	649.54
573.26	650.24
573.61	650.86
573.96	651.67
574.31	652.33
574.67	652.60
575.02	652.87
575.37	653.10
575.72	653.13
576.08	653.49
576.43	653.74
576.78	654.08
577.13	654.21
577.49	654.65
577.84	654.94
578.19	655.42
578.54	656.06
578.90	656.55
579.25	656.67
579.60	656.73
579.95	656.78
580.30	656.93
580.66	657.12
581.01	657.21
581.36	657.10
581.71	657.00
582.06	657.17
582.42	657.39
582.77	657.25
583.12	657.16
583.47	657.15
583.82	657.06
584.17	657.03
584.53	657.07
584.88	656.84
585.23	656.72
585.58	656.49
585.93	656.17
586.28	655.84
586.63	655.52
586.98	655.41
587.34	655.41
587.69	655.22
588.04	654.96
588.39	654.58
588.74	653.98
589.09	653.80
589.44	653.07
589.79	652.60
590.14	652.15
590.49	651.82
590.84	651.00
591.19	650.65
591.54	650.03
591.89	649.15
592.25	648.52
592.60	647.69
592.95	646.85
593.30	645.93
593.65	644.83
594.00	644.07
594.35	644.07
594.70	642.86
595.05	641.92
595.40	640.86
595.75	639.94
596.10	639.31
596.45	638.31
596.80	637.55
597.15	636.68
597.50	635.72
597.85	634.77
598.19	634.03
598.54	633.01
598.89	632.12
599.24	631.59
599.59	630.66
599.94	629.88
600.29	629.05
600.64	628.18
600.99	627.23
601.34	626.26
601.69	624.35
602.04	623.20
602.39	622.15
602.74	621.29
603.08	620.47
603.43	619.69
603.78	618.69
604.13	617.65
604.48	616.70
604.83	616.02
605.18	615.21
605.53	614.15
605.87	612.98
606.22	611.95
606.57	610.74
606.92	609.43
607.27	608.23
607.62	607.06
607.96	606.16
608.31	605.22
608.66	604.17
609.01	602.94
609.36	602.00
609.70	600.62
610.05	599.32
610.40	597.92
610.75	596.28
611.10	595.10
611.44	593.64
611.79	591.95
612.14	590.38
612.49	588.59
612.83	587.03
613.18	585.40
613.53	583.81
613.88	582.18
614.22	580.75
614.57	579.18
614.92	577.66
615.27	575.84
615.61	574.12
615.96	572.41
616.31	570.81
616.65	569.36
617.00	567.96
617.35	566.35
617.70	564.66
618.04	563.06
618.39	561.24
618.74	559.71
619.08	558.02
619.43	556.19
619.78	554.67
620.12	552.93
620.47	551.52
620.82	549.65
621.16	547.86
621.51	546.18
621.85	544.41
622.20	542.51
622.55	540.68
622.89	539.00
623.24	537.28
623.59	535.44
623.93	533.71
624.28	531.92
624.62	530.52
624.97	528.95
625.32	527.25
625.66	525.45
626.01	523.61
626.35	521.99
626.70	520.25
627.04	518.71
627.39	517.16
627.73	515.57
628.08	514.11
628.43	512.40
628.77	510.45
629.12	508.79
629.46	507.41
629.81	505.85
630.15	504.16
630.50	502.44
630.84	500.82
631.19	498.89
631.53	497.19
631.88	495.09
632.22	493.15
632.57	491.75
632.91	490.17
633.26	488.54
633.60	486.93
633.95	485.41
634.29	483.56
634.64	482.05
634.98	480.14
635.32	478.47
635.67	477.16
636.01	475.87
636.36	474.19
636.70	472.52
637.05	470.97
637.39	469.41
637.73	468.02
638.08	466.66
638.42	465.28
638.77	463.95
639.11	462.45
639.45	460.92
639.80	459.01
640.14	457.39
640.49	455.94
640.83	454.25
641.17	452.70
641.52	451.03
641.86	449.29
642.20	447.89
642.55	446.20
642.89	444.35
643.23	442.66
643.58	441.40
643.92	439.69
644.26	438.11
644.61	436.60
644.95	434.86
645.29	433.13
645.64	431.53
645.98	429.75
646.32	428.24
646.66	426.76
647.01	425.28
647.35	423.77
647.69	422.12
648.04	420.72
648.38	419.15
648.72	417.65
649.06	416.13
649.41	414.51
649.75	412.99
650.09	411.60
650.43	410.04
650.78	408.30
651.12	406.71
651.46	405.12
651.80	403.60
652.14	402.14
652.49	400.75
652.83	399.20
653.17	397.63
653.51	396.08
653.85	394.63
654.20	393.17
654.54	391.49
654.88	389.98
655.22	388.50
655.56	386.88
655.90	385.39
656.25	383.83
656.59	382.28
656.93	380.75
657.27	379.26
657.61	377.75
657.95	376.36
658.29	374.98
658.64	373.59
658.98	372.04
659.32	370.49
659.66	368.89
660.00	367.42
660.34	366.00
660.68	364.62
661.02	363.10
661.36	361.62
661.70	360.31
662.05	359.04
662.39	357.77
662.73	356.60
663.07	355.55
663.41	354.35
663.75	353.09
664.09	351.86
664.43	350.43
664.77	349.26
665.11	348.02
665.45	346.68
665.79	345.47
666.13	344.28
666.47	343.13
666.81	342.07
667.15	340.88
667.49	339.77
667.83	338.74
668.17	337.64
668.51	336.55
668.85	335.58
669.19	334.60
669.53	333.35
669.87	332.13
670.21	330.80
670.55	329.72
670.89	328.81
671.23	327.85
671.57	326.87
671.91	325.80
672.25	324.80
672.58	323.89
672.92	322.81
673.26	321.84
673.60	320.89
673.94	319.91
674.28	319.01
674.62	318.14
674.96	317.06
675.30	316.13
675.64	315.24
675.97	314.31
676.31	313.36
676.65	312.42
676.99	311.75
677.33	310.86
677.67	309.93
678.01	308.92
678.34	307.98
678.68	307.20
679.02	306.25
679.36	305.22
679.70	304.36
680.04	303.59
680.37	302.67
680.71	301.80
681.05	301.01
681.39	300.20
681.73	299.35
682.06	298.58
682.40	297.82
682.74	296.97
683.08	296.31
683.42	295.40
683.75	294.78
684.09	293.84
684.43	293.07
684.77	292.20
685.10	291.50
685.44	290.70
685.78	289.85
686.12	289.22
686.45	288.52
686.79	287.77
687.13	287.08
687.46	286.45
687.80	285.77
688.14	284.94
688.48	284.28
688.81	283.56
689.15	282.82
689.49	282.12
689.82	281.44
690.16	280.49
690.50	279.70
690.83	278.87
691.17	278.09
691.51	277.40
691.84	276.80
692.18	276.09
692.52	275.52
692.85	274.85
693.19	274.25
693.52	273.60
693.86	272.85
694.20	272.14
694.53	271.48
694.87	270.83
695.21	270.19
695.54	269.49
695.88	268.81
696.21	268.14
696.55	267.56
696.88	267.03
697.22	266.37
697.56	265.97
697.89	265.39
698.23	264.85
698.56	264.30
698.90	263.80
699.23	263.19
699.57	262.62
699.90	262.10
700.24	261.46
700.58	260.98
700.91	260.58
701.25	260.35
701.58	259.89
701.92	259.47
702.25	259.01
702.59	258.46
702.92	257.89
703.26	257.46
703.59	256.89
703.93	256.72
704.26	256.33
704.60	255.80
704.93	255.35
705.26	254.90
705.60	254.43
705.93	253.89
706.27	253.65
706.60	253.22
706.94	252.88
707.27	252.43
707.61	252.00
707.94	251.59
708.27	250.76
708.61	250.25
708.94	249.83
709.28	249.36
709.61	248.97
709.94	248.70
710.28	248.30
710.61	248.02
710.95	247.25
711.28	247.12
711.61	246.66
711.95	246.30
712.28	245.96
712.61	245.61
712.95	245.48
713.28	245.18
713.61	244.80
713.95	244.40
714.28	244.11
714.61	243.69
714.95	243.32
715.28	243.10
715.61	242.81
715.95	242.43
716.28	242.02
716.61	241.77
716.95	241.43
717.28	241.08
717.61	240.67
717.94	240.40
718.28	239.90
718.61	239.60
718.94	239.29
719.27	239.05
719.61	238.77
719.94	238.37
720.27	237.85
720.60	237.60
720.94	237.34
721.27	237.07
721.60	236.95
721.93	236.68
722.27	236.54
722.60	236.29
722.93	236.05
723.26	235.90
723.59	235.62
723.93	235.39
724.26	235.20
724.59	235.06
724.92	234.86
725.25	234.78
725.59	234.60
725.92	234.39
726.25	234.17
726.58	234.00
726.91	233.77
727.24	233.60
727.57	233.37
727.91	233.07
728.24	232.89
728.57	232.60
728.90	232.41
729.23	232.09
729.56	232.09
729.89	231.91
730.22	231.73
730.55	231.56
730.89	231.39
731.22	231.21
731.55	230.94
731.88	230.75
732.21	230.41
732.54	230.22
732.87	230.07
733.20	229.90
733.53	229.71
733.86	229.49
734.19	229.31
734.52	229.26
734.85	229.43
735.18	229.17
735.51	229.10
735.84	229.00
736.17	228.91
736.50	228.56
736.83	228.74
737.16	228.61
737.49	228.38
737.82	228.18
738.15	228.00
738.48	227.78
738.81	227.60
739.14	227.41
739.47	227.30
739.80	227.13
740.13	226.98
740.46	226.78
740.79	226.73
741.12	226.55
741.45	226.23
741.78	225.90
742.11	225.90
742.44	225.64
742.77	225.44
743.10	225.25
743.43	225.08
743.75	224.60
744.08	224.82
744.41	224.71
744.74	224.60
745.07	224.45
745.40	224.49
745.73	224.52
746.06	224.46
746.39	224.29
746.71	224.07
747.04	223.93
747.37	223.71
747.70	223.59
748.03	223.58
748.36	223.60
748.68	223.42
749.01	223.18
749.34	223.10
749.67	223.08
750.00	222.99
750.33	223.15
750.65	223.07
750.98	222.61
751.31	222.52
751.64	222.41
751.97	222.59
752.29	222.35
752.62	222.12
752.95	222.03
753.28	221.94
753.60	221.93
753.93	221.89
754.26	221.90
754.59	221.67
754.91	221.45
755.24	221.27
755.57	221.20
755.90	221.13
756.22	220.98
756.55	220.74
756.88	220.64
757.20	220.34
757.53	220.15
757.86	220.05
758.19	220.01
758.51	219.89
758.84	219.48
759.17	219.39
759.49	219.32
759.82	219.39
760.15	219.27
760.47	219.14
760.80	218.91
761.13	218.87
761.45	218.86
761.78	218.78
762.11	218.74
762.43	218.60
762.76	218.51
763.08	218.50
763.41	218.48
763.74	218.39
764.06	218.29
764.39	218.21
764.71	218.07
765.04	217.91
765.37	217.88
765.69	217.84
766.02	217.82
766.34	217.65
766.67	217.42
767.00	217.46
767.32	217.64
767.65	217.79
767.97	217.72
768.30	217.65
768.62	217.66
768.95	217.45
769.27	217.43
769.60	217.41
769.92	217.27
770.25	217.15
770.57	217.03
770.90	216.99
771.22	216.93
771.55	216.90
771.87	216.85
772.20	216.73
772.52	216.96
772.85	217.25
773.17	217.25
773.50	217.18
773.82	217.08
774.15	216.84
774.47	216.66
774.80	216.48
775.12	216.43
775.45	216.29
775.77	216.40
776.09	216.37
776.42	216.30
776.74	216.35
777.07	216.35
777.39	216.33
777.72	216.25
778.04	216.22
778.36	216.19
778.69	216.16
779.01	216.14
779.33	215.86
779.66	215.45
779.98	215.41
780.31	215.36
780.63	215.47
780.95	215.49
781.28	215.37
781.60	215.33
781.92	215.20
782.25	215.20
782.57	215.06
782.89	214.97
783.22	214.91
783.54	214.79
783.86	214.79
784.19	214.77
784.51	214.85
784.83	214.77
785.16	214.69
785.48	214.64
785.80	214.59
786.12	214.48
786.45	214.46
786.77	214.46
787.09	214.44
787.42	214.27
787.74	214.17
788.06	214.17
788.38	214.13
788.71	214.09
789.03	214.05
789.35	214.15
789.67	214.07
789.99	214.08
790.32	214.09
790.64	214.11
790.96	214.37
791.28	214.21
791.61	214.16
791.93	214.19
792.25	214.17
792.57	214.45
792.89	214.35
793.21	214.40
793.54	214.32
793.86	214.25
794.18	214.18
794.50	214.15
794.82	214.10
795.14	214.13
795.47	214.17
795.79	214.13
796.11	213.99
796.43	213.97
796.75	213.87
797.07	213.76
797.39	213.66
797.71	213.36
798.04	213.36
798.36	213.37
798.68	213.34
799.00	213.37
799.32	213.19
799.64	213.34
799.96	213.28
800.28	213.35
800.60	213.31
800.92	213.39
801.24	213.30
801.56	213.31
801.89	213.32
802.21	213.34
802.53	213.30
802.85	213.37
803.17	213.54
803.49	213.53
803.81	213.56
804.13	213.51
804.45	213.43
804.77	213.44
805.09	213.41
805.41	213.33
805.73	213.19
806.05	213.02
806.37	212.99
806.69	212.88
807.01	212.83
807.33	212.81
807.65	212.73
807.97	212.91
808.28	212.94
808.60	212.88
808.92	212.85
809.24	213.05
809.56	212.97
809.88	212.85
810.20	212.83
810.52	212.93
810.84	212.85
811.16	212.81
811.48	212.73
811.80	212.88
812.12	212.85
812.43	212.98
812.75	213.01
813.07	212.92
813.39	212.94
813.71	212.85
814.03	212.89
814.35	212.84
814.67	212.64
814.98	212.53
815.30	212.47
815.62	212.38
815.94	212.13
816.26	212.20
816.58	212.02
816.89	212.06
817.21	211.90
817.53	211.95
817.85	211.96
818.17	211.89
818.48	211.72
818.80	211.82
819.12	211.68
819.44	211.62
819.76	211.61
820.07	211.62
820.39	211.60
820.71	211.57
821.03	211.56
821.34	211.57
821.66	211.66
821.98	211.77
822.30	211.75
822.61	211.96
822.93	211.90
823.25	211.94
823.57	211.89
823.88	211.97
824.20	211.95
824.52	211.97
824.83	212.07
825.15	212.05
825.47	212.01
825.79	212.08
826.10	211.99
826.42	211.95
826.74	211.96
827.05	211.92
827.37	211.89
827.69	211.81
828.00	211.86
828.32	211.85
828.64	211.79
828.95	211.97
829.27	211.85
829.58	211.80
829.90	211.81
830.22	211.87
830.53	211.72
830.85	211.70
831.17	211.63
831.48	211.60
831.80	211.62
832.11	211.65
832.43	211.52
832.75	211.53
833.06	211.73
833.38	211.68
833.69	211.72
834.01	211.77
834.32	211.75
834.64	211.70
834.96	211.65
835.27	211.66
835.59	211.51
835.90	211.50
836.22	211.48
836.53	211.48
836.85	211.41
837.16	211.80
837.48	211.81
837.79	211.92
838.11	211.95
838.42	211.93
838.74	211.91
839.05	211.99
839.37	212.00
839.68	211.70
840.00	211.64
840.31	211.73
840.63	211.72
840.94	211.73
841.26	211.64
841.57	211.69
841.88	211.70
842.20	211.67
842.51	211.61
842.83	211.61
843.14	211.89
843.46	211.94
843.77	211.75
844.08	211.73
844.40	211.69
844.71	211.63
845.03	211.64
845.34	211.62
845.65	211.59
845.97	211.65
846.28	211.77
846.60	211.83
846.91	211.69
847.22	211.62
847.54	211.70
847.85	211.78
848.16	211.73
848.48	211.65
848.79	211.81
849.10	211.83
849.42	211.85
849.73	211.57
850.04	211.49
850.36	211.44
850.67	211.46
850.98	211.45
851.30	211.47
851.61	211.45
851.92	211.48
852.23	211.57
852.55	211.52
852.86	211.51
853.17	211.47
853.49	211.59
853.80	211.65
854.11	211.66
854.42	211.67
854.74	211.66
855.05	211.73
855.36	211.49
855.67	211.51
855.99	211.52
856.30	211.88
856.61	211.86
856.92	211.84
857.23	211.89
857.55	211.91
857.86	211.84
858.17	211.89
858.48	211.79
858.79	211.73
859.11	211.77
859.42	211.76
859.73	211.71
860.04	211.69
860.35	211.63
860.66	211.49
860.98	211.46
861.29	211.46
861.60	211.37
861.91	211.46
862.22	211.36
862.53	211.34
862.84	210.92
863.16	211.03
863.47	210.93
863.78	210.85
864.09	210.81
864.40	210.89
864.71	210.84
865.02	210.91
865.33	210.88
865.64	210.84
865.95	210.81
866.27	211.07
866.58	210.98
866.89	211.02
867.20	211.04
867.51	210.92
867.82	210.98
868.13	211.08
868.44	211.07
868.75	211.19
869.06	211.19
869.37	211.25
869.68	211.05
869.99	211.11
870.30	211.14
870.61	211.17
870.92	211.08
871.23	211.04
871.54	211.04
871.85	211.10
872.16	211.11
872.47	211.13
872.78	210.91
873.09	210.92
873.40	210.91
873.71	210.95
874.02	210.99
874.33	210.88
874.64	210.77
874.95	210.84
875.26	210.74
875.56	210.72
875.87	210.71
876.18	210.78
876.49	211.10
876.80	211.10
877.11	210.95
877.42	210.99
877.73	211.00
878.04	211.00
878.35	210.95
878.66	211.10
878.96	211.08
879.27	211.10
879.58	211.15
879.89	211.14
880.20	211.24
880.51	211.36
880.82	211.40
881.12	211.47
881.43	211.37
881.74	211.36
882.05	211.34
882.36	211.45
882.67	211.39
882.97	211.02
883.28	210.93
883.59	210.99
883.90	211.05
884.21	211.11
884.51	211.08
884.82	211.08
885.13	210.99
885.44	210.88
885.74	210.85
886.05	210.82
886.36	210.83
886.67	210.75
886.98	210.87
887.28	210.96
887.59	210.95
887.90	210.93
888.20	210.99
888.51	211.05
888.82	210.91
889.13	211.03
889.43	211.35
889.74	211.36
890.05	211.40
890.35	211.32
890.66	211.31
890.97	211.36
891.28	211.32
891.58	211.30
891.89	211.42
892.20	211.45
892.50	211.42
892.81	211.36
893.12	211.37
893.42	211.19
893.73	211.13
894.04	211.16
894.34	211.23
894.65	211.10
894.95	211.08
895.26	211.11
895.57	211.28
895.87	210.92
896.18	211.04
896.48	211.02
896.79	211.05
897.10	211.09
897.40	211.02
897.71	211.08
898.01	211.10
898.32	211.14
898.63	211.10
898.93	211.20
899.24	211.21
899.54	211.16
899.85	211.18
900.15	211.17
900.46	211.07
900.76	211.06
901.07	211.15
901.38	211.18
901.68	211.25
901.99	211.06
902.29	211.08
902.60	211.00
902.90	210.97
903.21	210.93
903.51	210.88
903.82	210.98
904.12	210.96
904.43	210.91
904.73	210.86
905.03	210.90
905.34	211.19
905.64	211.14
905.95	211.06
906.25	211.06
906.56	211.12
906.86	211.23
907.17	211.23
907.47	211.27
907.77	211.19
908.08	211.15
908.38	211.13
908.69	211.22
908.99	211.32
909.30	211.39
909.60	211.41
909.90	211.48
910.21	211.29
910.51	211.19
910.81	211.29
911.12	211.38
911.42	211.37
911.73	211.01
912.03	211.18
912.33	211.32
912.64	211.29
912.94	211.15
913.24	211.09
913.55	211.13
913.85	211.06
914.15	211.14
914.46	211.20
914.76	211.16
915.06	211.08
915.37	211.04
915.67	211.00
915.97	211.04
916.27	210.93
916.58	211.02
916.88	211.10
917.18	211.03
917.49	211.20
917.79	211.20
918.09	211.25
918.39	211.34
918.70	211.33
919.00	211.38
919.30	211.61
919.60	211.64
919.91	211.60
920.21	211.60
920.51	211.48
920.81	211.47
921.12	211.64
921.42	211.71
921.72	211.78
922.02	211.81
922.32	211.84
922.63	211.91
922.93	212.13
923.23	212.11
923.53	212.17
923.83	212.05
924.13	212.11
924.44	212.05
924.74	212.02
925.04	212.04
925.34	211.97
925.64	211.83
925.94	211.80
926.24	212.03
926.55	212.08
926.85	212.16
927.15	212.17
927.45	212.08
927.75	212.08
928.05	212.02
928.35	212.00
928.65	212.08
928.95	212.14
929.26	211.99
929.56	212.02
929.86	211.97
930.16	211.84
930.46	211.86
930.76	211.93
931.06	211.79
931.36	211.74
931.66	211.80
931.96	211.78
932.26	211.83
932.56	211.64
932.86	211.65
933.16	211.68
933.46	211.62
933.76	211.60
934.06	211.64
934.36	211.75
934.66	211.71
934.96	211.59
935.26	211.48
935.56	211.57
935.86	211.51
936.16	211.54
936.46	211.55
936.76	211.51
937.06	211.49
937.36	211.52
937.66	211.54
937.96	211.59
938.26	211.55
938.56	211.50
938.86	211.44
939.16	211.52
939.46	211.56
939.76	211.62
940.06	211.61
940.35	211.53
940.65	211.34
940.95	211.44
941.25	211.37
941.55	211.34
941.85	211.33
942.15	211.40
942.45	211.49
942.75	211.43
943.04	211.37
943.34	211.39
943.64	211.34
943.94	211.21
944.24	211.18
944.54	211.23
944.84	211.15
945.13	211.18
945.43	211.01
945.73	210.96
946.03	210.90
946.33	210.86
946.62	210.92
946.92	210.88
947.22	210.86
947.52	210.90
947.82	211.00
948.11	210.92
948.41	210.90
948.71	210.72
949.01	210.78
949.31	210.78
949.60	210.78
949.90	210.84
950.20	210.93
950.50	210.90
950.79	210.85
951.09	210.94
951.39	210.91
951.69	210.90
951.98	210.98
952.28	211.00
952.58	211.05
952.87	210.92
953.17	210.98
953.47	210.96
953.76	210.98
954.06	210.89
954.36	210.83
954.66	210.77
954.95	210.86
955.25	210.89
955.55	210.91
955.84	210.85
956.14	210.81
956.44	210.81
956.73	210.77
957.03	210.79
957.32	210.75
957.62	210.72
957.92	210.85
958.21	210.86
958.51	211.23
958.81	211.28
959.10	211.38
959.40	211.53
959.69	211.52
959.99	211.53
960.29	211.54
960.58	211.53
960.88	211.67
961.17	211.66
961.47	211.61
961.76	211.53
962.06	211.58
962.36	211.60
962.65	211.57
962.95	211.59
963.24	211.55
963.54	211.61
963.83	211.57
964.13	211.52
964.42	211.35
964.72	211.05
965.01	211.01
965.31	211.00
965.60	210.87
965.90	211.14
966.19	211.08
966.49	211.10
966.78	211.08
967.08	211.05
967.37	211.04
967.67	211.02
967.96	211.09
968.26	211.12
968.55	211.20
968.85	211.21
969.14	211.24
969.43	211.22
969.73	211.14
970.02	211.20
970.32	211.17
970.61	211.19
970.91	211.15
971.20	211.07
971.49	211.04
971.79	211.06
972.08	210.80
972.38	210.80
972.67	210.77
972.96	210.79
973.26	210.71
973.55	210.83
973.85	210.87
974.14	210.90
974.43	210.82
974.73	210.75
975.02	210.69
975.31	210.72
975.61	210.75
975.90	210.72
976.19	210.65
976.49	210.69
976.78	210.63
977.07	210.55
977.37	210.61
977.66	210.63
977.95	210.58
978.24	210.60
978.54	210.65
978.83	210.58
979.12	210.51
979.42	210.49
979.71	210.40
980.00	210.36
980.29	210.29
980.59	210.33
980.88	210.39
981.17	210.39
981.46	210.28
981.76	210.27
982.05	210.46
982.34	210.53
982.63	210.52
982.93	210.59
983.22	210.68
983.51	210.64
983.80	210.70
984.09	210.75
984.39	210.69
984.68	210.73
984.97	210.82
985.26	210.85
985.55	210.87
985.85	210.80
986.14	210.82
986.43	210.95
986.72	210.85
987.01	210.73
987.30	210.81
987.59	210.84
987.89	210.90
988.18	210.76
988.47	210.70
988.76	210.70
989.05	210.70
989.34	210.66
989.63	210.83
989.92	210.78
990.22	210.76
990.51	210.79
990.80	210.74
991.09	210.75
991.38	210.83
991.67	210.85
991.96	210.85
992.25	210.90
992.54	210.81
992.83	210.86
993.12	210.90
993.41	210.92
993.70	211.07
993.99	211.09
994.28	211.14
994.58	211.25
994.87	211.22
995.16	211.18
995.45	211.11
995.74	210.99
996.03	211.08
996.32	211.08
996.61	211.15
996.90	211.16
997.19	211.15
997.48	211.13
997.77	211.06
998.06	211.11
998.34	211.09
998.63	211.13
998.92	211.12
999.21	211.13
999.50	211.15
999.79	210.97
1000.08	211.02
1000.37	211.01
1000.66	210.96
1000.95	211.00
1001.24	211.10
1001.53	211.26
1001.82	211.21
1002.11	211.00
1002.40	211.07
1002.68	211.16
1002.97	211.43
1003.26	211.36
1003.55	211.39
1003.84	211.43
1004.13	211.56
1004.42	211.53
1004.71	211.43
1004.99	211.45
1005.28	211.57
1005.57	211.51
1005.86	211.52
1006.15	211.46
1006.44	211.42
1006.72	211.45
1007.01	211.40
1007.30	211.37
1007.59	211.24
1007.88	211.24
1008.17	211.39
1008.45	211.29
1008.74	211.13
1009.03	210.87
1009.32	210.96
1009.60	210.91
1009.89	210.91
1010.18	210.73
1010.47	210.72
1010.76	210.71
1011.04	210.73
1011.33	210.66
1011.62	210.62
1011.91	210.62
1012.19	210.50
1012.48	210.52
1012.77	210.47
1013.05	210.66
1013.34	210.67
1013.63	210.66
1013.92	210.71
1014.20	210.63
1014.49	210.73
1014.78	210.70
1015.06	210.60
1015.35	210.60
1015.64	210.60
1015.92	210.62
1016.21	210.66
1016.50	210.70
1016.78	210.80
1017.07	210.81
1017.36	210.77
1017.64	210.80
1017.93	210.88
1018.22	210.96
1018.50	210.98
1018.79	210.98
1019.08	210.82
1019.36	210.79
1019.65	210.75
1019.93	210.77
1020.22	210.89
1020.51	210.97
1020.79	210.98
1021.08	210.35
1021.36	210.95
1021.65	210.60
1021.94	210.90
1022.22	210.50
1022.51	209.50
1022.79	211.40
1023.08	212.45
1023.36	214.25
1023.65	210.05
>>>>>End Processed Spectral Data<<<<<
