SpectraSuite Data File
++++++++++++++++++++++++++++++++++++
Date: Mon Feb 25 16:56:09 EST 2013
User: group
Dark Spectrum Present: No
Reference Spectrum Present: No
Number of Sampled Component Spectra: 1
Spectrometers: USB2E7196
Integration Time (usec): 104000 (USB2E7196)
Spectra Averaged: 20 (USB2E7196)
Boxcar Smoothing: 10 (USB2E7196)
Correct for Electrical Dark: No (USB2E7196)
Strobe/Lamp Enabled: No (USB2E7196)
Correct for Detector Non-linearity: No (USB2E7196)
Correct for Stray Light: No (USB2E7196)
Number of Pixels in Processed Spectrum: 2048
>>>>>Begin Processed Spectral Data<<<<<
339.09	0.00
339.48	198.40
339.86	199.90
340.24	201.45
340.63	201.20
341.01	208.55
341.39	204.50
341.78	206.80
342.16	209.40
342.54	208.30
342.93	198.15
343.31	208.16
343.69	208.76
344.07	209.24
344.46	209.68
344.84	210.18
345.22	210.31
345.60	210.67
345.99	210.90
346.37	211.02
346.75	211.22
347.13	211.30
347.52	211.32
347.90	211.41
348.28	211.46
348.66	211.65
349.05	211.60
349.43	211.64
349.81	211.72
350.19	211.80
350.57	211.91
350.96	212.04
351.34	212.15
351.72	212.20
352.10	212.32
352.48	212.43
352.87	212.45
353.25	212.49
353.63	212.54
354.01	212.65
354.39	212.70
354.77	212.70
355.15	212.86
355.54	212.91
355.92	212.89
356.30	212.95
356.68	213.22
357.06	213.25
357.44	213.32
357.82	213.38
358.20	213.45
358.58	213.51
358.97	213.61
359.35	213.84
359.73	213.99
360.11	214.03
360.49	214.06
360.87	214.17
361.25	214.28
361.63	214.36
362.01	214.47
362.39	214.54
362.77	214.65
363.15	214.72
363.53	214.76
363.91	214.77
364.29	214.77
364.67	214.44
365.05	214.50
365.43	214.52
365.81	214.58
366.19	214.79
366.57	214.89
366.95	214.85
367.33	214.61
367.71	214.66
368.09	214.71
368.47	214.72
368.85	214.69
369.23	214.74
369.61	214.65
369.99	214.70
370.37	214.66
370.75	214.84
371.13	214.73
371.51	214.73
371.89	214.69
372.27	214.70
372.65	214.68
373.03	214.62
373.41	214.59
373.78	214.51
374.16	214.29
374.54	214.16
374.92	214.10
375.30	214.11
375.68	213.94
376.06	213.89
376.44	213.75
376.82	213.71
377.19	213.68
377.57	213.63
377.95	213.44
378.33	213.35
378.71	213.05
379.09	212.98
379.47	213.01
379.84	213.00
380.22	212.93
380.60	212.91
380.98	212.84
381.36	212.77
381.73	212.62
382.11	212.58
382.49	212.52
382.87	212.41
383.25	212.31
383.62	212.68
384.00	212.58
384.38	212.57
384.76	212.62
385.13	212.66
385.51	212.54
385.89	212.49
386.27	212.44
386.64	212.44
387.02	212.40
387.40	212.26
387.78	212.19
388.15	212.20
388.53	212.11
388.91	212.10
389.29	212.04
389.66	212.13
390.04	212.06
390.42	212.14
390.79	212.11
391.17	212.21
391.55	211.80
391.92	211.75
392.30	211.79
392.68	211.66
393.05	211.60
393.43	211.67
393.81	211.65
394.18	211.68
394.56	211.73
394.94	211.80
395.31	211.82
395.69	212.00
396.06	212.02
396.44	212.11
396.82	212.08
397.19	212.33
397.57	212.38
397.95	212.57
398.32	212.48
398.70	212.58
399.07	212.69
399.45	212.76
399.82	212.90
400.20	212.93
400.58	213.05
400.95	213.12
401.33	213.30
401.70	213.71
402.08	213.89
402.45	213.94
402.83	214.15
403.20	214.27
403.58	214.39
403.95	214.62
404.33	214.86
404.71	215.16
405.08	215.61
405.46	215.85
405.83	216.11
406.21	216.45
406.58	216.84
406.96	217.15
407.33	217.59
407.70	218.10
408.08	218.89
408.45	219.58
408.83	220.19
409.20	220.80
409.58	221.25
409.95	222.09
410.33	223.02
410.70	223.77
411.08	224.70
411.45	225.76
411.82	226.74
412.20	227.88
412.57	229.31
412.95	230.25
413.32	231.71
413.69	233.09
414.07	234.64
414.44	236.34
414.82	238.12
415.19	240.20
415.56	242.31
415.94	244.44
416.31	246.78
416.68	249.20
417.06	252.03
417.43	254.77
417.81	257.72
418.18	260.77
418.55	264.19
418.93	267.93
419.30	271.62
419.67	275.65
420.04	279.85
420.42	284.12
420.79	289.22
421.16	294.25
421.54	299.60
421.91	305.08
422.28	310.65
422.66	316.64
423.03	322.47
423.40	328.66
423.77	335.21
424.15	342.02
424.52	349.02
424.89	356.66
425.26	364.17
425.64	371.25
426.01	379.08
426.38	387.31
426.75	395.62
427.13	404.29
427.50	413.40
427.87	422.79
428.24	432.20
428.61	441.33
428.99	451.23
429.36	462.03
429.73	472.71
430.10	483.38
430.47	494.30
430.85	505.77
431.22	517.71
431.59	530.51
431.96	542.84
432.33	556.42
432.70	569.63
433.08	585.14
433.45	599.96
433.82	614.75
434.19	631.13
434.56	646.96
434.93	662.49
435.30	678.28
435.68	695.76
436.05	713.07
436.42	730.27
436.79	746.18
437.16	763.30
437.53	781.43
437.90	799.50
438.27	817.21
438.64	835.88
439.01	853.23
439.38	868.99
439.75	884.00
440.13	901.36
440.50	917.65
440.87	931.15
441.24	945.30
441.61	961.03
441.98	972.86
442.35	987.04
442.72	1000.82
443.09	1013.84
443.46	1022.30
443.83	1028.55
444.20	1034.05
444.57	1041.64
444.94	1045.90
445.31	1050.20
445.68	1054.45
446.05	1057.27
446.42	1056.89
446.79	1056.17
447.16	1055.03
447.53	1054.90
447.90	1049.57
448.27	1044.36
448.64	1036.42
449.01	1031.02
449.37	1020.12
449.74	1009.95
450.11	997.23
450.48	983.60
450.85	969.59
451.22	957.59
451.59	946.21
451.96	935.34
452.33	920.29
452.70	906.80
453.07	890.42
453.43	873.71
453.80	857.72
454.17	842.29
454.54	827.82
454.91	812.13
455.28	796.72
455.65	782.68
456.02	768.16
456.38	756.17
456.75	740.67
457.12	728.15
457.49	715.50
457.86	703.23
458.23	692.64
458.59	681.05
458.96	669.37
459.33	659.02
459.70	648.66
460.07	640.48
460.43	631.01
460.80	622.19
461.17	614.45
461.54	606.21
461.91	598.46
462.27	590.49
462.64	583.86
463.01	576.33
463.38	569.15
463.74	562.03
464.11	555.58
464.48	550.19
464.85	544.15
465.21	539.41
465.58	534.42
465.95	528.47
466.32	523.70
466.68	518.91
467.05	513.93
467.42	508.94
467.78	503.77
468.15	498.99
468.52	495.38
468.88	490.70
469.25	486.50
469.62	483.02
469.98	479.38
470.35	475.95
470.72	472.63
471.08	468.93
471.45	466.02
471.82	463.15
472.18	459.88
472.55	457.41
472.92	454.70
473.28	452.33
473.65	449.88
474.02	447.51
474.38	445.59
474.75	443.97
475.11	442.20
475.48	440.93
475.85	439.65
476.21	438.42
476.58	437.42
476.94	436.72
477.31	435.91
477.67	435.07
478.04	434.40
478.41	434.13
478.77	434.15
479.14	433.69
479.50	433.54
479.87	433.68
480.23	433.86
480.60	433.93
480.96	434.06
481.33	434.87
481.69	435.39
482.06	435.88
482.42	436.21
482.79	436.85
483.15	437.72
483.52	438.90
483.88	439.98
484.25	441.08
484.61	442.37
484.98	443.71
485.34	445.45
485.71	447.28
486.07	449.14
486.44	450.74
486.80	452.97
487.17	455.13
487.53	457.76
487.90	460.47
488.26	463.42
488.62	466.37
488.99	469.19
489.35	472.37
489.72	475.79
490.08	479.56
490.44	483.19
490.81	487.03
491.17	490.95
491.54	495.25
491.90	499.52
492.26	504.01
492.63	508.60
492.99	513.38
493.36	518.35
493.72	523.74
494.08	529.14
494.45	534.80
494.81	540.82
495.17	546.78
495.54	553.06
495.90	559.53
496.26	566.01
496.63	572.82
496.99	579.72
497.35	586.68
497.72	594.07
498.08	601.53
498.44	609.12
498.80	617.09
499.17	625.05
499.53	633.37
499.89	641.81
500.26	650.22
500.62	658.50
500.98	667.19
501.34	675.81
501.71	684.82
502.07	693.71
502.43	702.70
502.79	711.64
503.16	720.76
503.52	729.95
503.88	739.23
504.24	748.51
504.60	757.93
504.97	767.67
505.33	776.98
505.69	787.08
506.05	796.86
506.41	806.45
506.78	815.86
507.14	825.35
507.50	834.88
507.86	844.61
508.22	854.35
508.59	863.77
508.95	873.72
509.31	883.46
509.67	893.29
510.03	902.94
510.39	912.67
510.75	922.28
511.12	931.80
511.48	941.56
511.84	951.22
512.20	960.75
512.56	970.27
512.92	979.88
513.28	989.30
513.64	998.31
514.00	1007.35
514.37	1016.48
514.73	1025.74
515.09	1034.85
515.45	1043.56
515.81	1052.41
516.17	1061.11
516.53	1069.30
516.89	1077.60
517.25	1085.21
517.61	1093.20
517.97	1100.89
518.33	1108.50
518.69	1115.94
519.05	1123.42
519.41	1130.86
519.77	1138.27
520.13	1144.88
520.49	1151.34
520.85	1157.65
521.21	1164.52
521.57	1171.55
521.93	1177.92
522.29	1184.26
522.65	1190.68
523.01	1197.01
523.37	1202.58
523.73	1208.52
524.09	1214.34
524.45	1219.90
524.81	1226.09
525.17	1231.73
525.53	1237.38
525.89	1242.82
526.25	1247.96
526.61	1252.72
526.97	1257.52
527.33	1262.36
527.68	1267.45
528.04	1272.28
528.40	1276.68
528.76	1280.98
529.12	1285.32
529.48	1290.27
529.84	1294.44
530.20	1298.20
530.56	1301.96
530.91	1306.62
531.27	1310.90
531.63	1314.67
531.99	1318.72
532.35	1322.41
532.71	1325.85
533.07	1329.93
533.42	1333.53
533.78	1337.33
534.14	1341.03
534.50	1344.12
534.86	1347.54
535.21	1350.56
535.57	1354.25
535.93	1357.58
536.29	1360.72
536.65	1363.55
537.00	1365.64
537.36	1367.91
537.72	1370.36
538.08	1372.92
538.44	1375.24
538.79	1377.46
539.15	1379.82
539.51	1382.07
539.87	1384.63
540.22	1386.96
540.58	1389.75
540.94	1391.90
541.29	1393.80
541.65	1395.20
542.01	1397.26
542.37	1398.87
542.72	1400.72
543.08	1401.74
543.44	1403.57
543.79	1404.57
544.15	1405.70
544.51	1407.55
544.87	1409.45
545.22	1411.00
545.58	1412.22
545.94	1412.87
546.29	1413.43
546.65	1414.02
547.01	1414.38
547.36	1414.55
547.72	1415.13
548.07	1414.51
548.43	1414.54
548.79	1414.31
549.14	1414.54
549.50	1414.61
549.86	1414.25
550.21	1414.03
550.57	1414.39
550.92	1413.84
551.28	1413.98
551.64	1413.81
551.99	1413.61
552.35	1413.23
552.70	1412.63
553.06	1412.45
553.41	1412.25
553.77	1412.25
554.13	1412.22
554.48	1412.50
554.84	1412.47
555.19	1412.25
555.55	1412.09
555.90	1411.53
556.26	1411.20
556.61	1410.66
556.97	1409.69
557.32	1409.45
557.68	1408.52
558.03	1407.56
558.39	1406.45
558.74	1405.72
559.10	1405.04
559.45	1404.02
559.81	1403.37
560.16	1402.26
560.52	1401.11
560.87	1400.37
561.23	1398.96
561.58	1398.24
561.94	1396.64
562.29	1394.98
562.64	1393.93
563.00	1392.77
563.35	1392.01
563.71	1391.47
564.06	1390.55
564.42	1390.18
564.77	1389.50
565.12	1389.33
565.48	1388.81
565.83	1388.46
566.19	1387.95
566.54	1386.95
566.89	1385.90
567.25	1385.03
567.60	1384.45
567.96	1383.96
568.31	1383.30
568.66	1382.57
569.02	1380.76
569.37	1379.40
569.72	1378.24
570.08	1376.50
570.43	1374.78
570.78	1373.07
571.14	1370.87
571.49	1369.07
571.84	1367.12
572.20	1364.70
572.55	1362.60
572.90	1359.87
573.26	1357.09
573.61	1354.21
573.96	1351.64
574.31	1348.78
574.67	1345.53
575.02	1342.31
575.37	1338.55
575.72	1334.64
576.08	1331.76
576.43	1328.49
576.78	1325.24
577.13	1322.19
577.49	1319.37
577.84	1316.02
578.19	1312.90
578.54	1310.48
578.90	1307.98
579.25	1304.44
579.60	1300.78
579.95	1296.77
580.30	1293.48
580.66	1290.45
581.01	1286.83
581.36	1282.83
581.71	1279.15
582.06	1275.69
582.42	1272.40
582.77	1268.89
583.12	1265.46
583.47	1261.54
583.82	1258.15
584.17	1254.48
584.53	1250.81
584.88	1246.52
585.23	1242.87
585.58	1238.88
585.93	1234.51
586.28	1230.44
586.63	1226.53
586.98	1223.12
587.34	1219.74
587.69	1215.71
588.04	1211.62
588.39	1207.88
588.74	1204.16
589.09	1200.58
589.44	1196.26
589.79	1192.19
590.14	1188.62
590.49	1184.46
590.84	1180.41
591.19	1176.82
591.54	1173.01
591.89	1168.56
592.25	1165.01
592.60	1160.67
592.95	1156.34
593.30	1151.53
593.65	1146.43
594.00	1141.86
594.35	1138.40
594.70	1133.74
595.05	1129.67
595.40	1125.42
595.75	1120.84
596.10	1116.70
596.45	1112.44
596.80	1108.59
597.15	1104.44
597.50	1099.80
597.85	1095.84
598.19	1091.62
598.54	1087.15
598.89	1082.82
599.24	1079.24
599.59	1074.64
599.94	1070.82
600.29	1066.72
600.64	1062.92
600.99	1058.97
601.34	1055.32
601.69	1050.18
602.04	1045.83
602.39	1041.42
602.74	1037.20
603.08	1033.31
603.43	1029.51
603.78	1025.13
604.13	1021.00
604.48	1016.95
604.83	1013.24
605.18	1009.45
605.53	1005.32
605.87	1000.88
606.22	996.92
606.57	992.19
606.92	987.83
607.27	983.30
607.62	979.02
607.96	974.85
608.31	970.94
608.66	966.52
609.01	962.07
609.36	957.91
609.70	953.44
610.05	949.05
610.40	944.63
610.75	939.68
611.10	935.79
611.44	930.75
611.79	925.89
612.14	921.15
612.49	916.14
612.83	911.59
613.18	906.84
613.53	902.15
613.88	897.44
614.22	892.93
614.57	888.09
614.92	883.54
615.27	878.98
615.61	874.29
615.96	869.83
616.31	865.48
616.65	861.25
617.00	856.93
617.35	852.51
617.70	848.08
618.04	843.48
618.39	838.47
618.74	834.35
619.08	829.96
619.43	825.54
619.78	821.38
620.12	817.09
620.47	813.08
620.82	808.42
621.16	804.03
621.51	799.78
621.85	795.80
622.20	791.53
622.55	787.15
622.89	782.76
623.24	778.45
623.59	774.05
623.93	769.68
624.28	765.80
624.62	761.93
624.97	757.85
625.32	754.01
625.66	750.13
626.01	746.16
626.35	742.20
626.70	738.22
627.04	734.26
627.39	730.40
627.73	726.68
628.08	723.20
628.43	719.59
628.77	715.84
629.12	711.82
629.46	707.95
629.81	704.35
630.15	700.68
630.50	696.95
630.84	693.11
631.19	689.43
631.53	685.67
631.88	681.62
632.22	677.83
632.57	674.43
632.91	670.80
633.26	667.23
633.60	663.66
633.95	660.33
634.29	656.72
634.64	653.31
634.98	649.62
635.32	646.16
635.67	642.99
636.01	639.48
636.36	636.22
636.70	633.15
637.05	629.77
637.39	626.70
637.73	623.68
638.08	620.98
638.42	617.99
638.77	614.93
639.11	611.96
639.45	608.98
639.80	605.66
640.14	602.43
640.49	599.28
640.83	596.41
641.17	593.18
641.52	590.19
641.86	586.92
642.20	583.89
642.55	580.45
642.89	577.24
643.23	574.13
643.58	571.35
643.92	568.17
644.26	565.30
644.61	562.27
644.95	559.13
645.29	556.00
645.64	552.93
645.98	549.90
646.32	547.23
646.66	544.21
647.01	541.44
647.35	538.83
647.69	535.93
648.04	533.07
648.38	530.37
648.72	527.66
649.06	524.92
649.41	522.19
649.75	519.60
650.09	516.90
650.43	514.25
650.78	511.32
651.12	508.64
651.46	505.88
651.80	503.32
652.14	500.77
652.49	498.20
652.83	495.60
653.17	492.77
653.51	489.95
653.85	487.52
654.20	484.90
654.54	482.17
654.88	479.64
655.22	477.06
655.56	474.32
655.90	471.64
656.25	469.02
656.59	466.57
656.93	464.15
657.27	461.82
657.61	459.30
657.95	456.98
658.29	454.61
658.64	452.35
658.98	449.88
659.32	447.29
659.66	444.92
660.00	442.58
660.34	440.34
660.68	438.00
661.02	435.55
661.36	433.36
661.70	431.17
662.05	428.93
662.39	426.90
662.73	424.96
663.07	423.04
663.41	421.03
663.75	418.97
664.09	416.96
664.43	414.71
664.77	412.91
665.11	410.91
665.45	409.00
665.79	407.08
666.13	405.07
666.47	403.44
666.81	401.50
667.15	399.54
667.49	397.80
667.83	396.08
668.17	394.29
668.51	392.65
668.85	391.09
669.19	389.64
669.53	387.77
669.87	385.92
670.21	384.24
670.55	382.54
670.89	381.11
671.23	379.63
671.57	378.12
671.91	376.54
672.25	375.00
672.58	373.43
672.92	371.80
673.26	370.40
673.60	368.72
673.94	367.28
674.28	365.88
674.62	364.56
674.96	363.09
675.30	361.71
675.64	360.26
675.97	358.80
676.31	357.30
676.65	355.84
676.99	354.80
677.33	353.36
677.67	351.95
678.01	350.30
678.34	348.80
678.68	347.50
679.02	346.05
679.36	344.68
679.70	343.31
680.04	342.04
680.37	340.65
680.71	339.43
681.05	338.20
681.39	336.88
681.73	335.51
682.06	334.28
682.40	333.16
682.74	331.89
683.08	330.79
683.42	329.55
683.75	328.46
684.09	327.05
684.43	325.88
684.77	324.74
685.10	323.63
685.44	322.54
685.78	321.36
686.12	320.29
686.45	319.15
686.79	318.09
687.13	317.08
687.46	316.05
687.80	315.09
688.14	313.92
688.48	313.04
688.81	311.98
689.15	310.93
689.49	309.76
689.82	308.69
690.16	307.41
690.50	306.29
690.83	305.26
691.17	304.22
691.51	303.17
691.84	302.18
692.18	301.21
692.52	300.29
692.85	299.52
693.19	298.77
693.52	297.87
693.86	296.91
694.20	295.93
694.53	295.02
694.87	293.99
695.21	293.17
695.54	292.25
695.88	291.25
696.21	290.35
696.55	289.60
696.88	288.79
697.22	287.93
697.56	287.21
697.89	286.37
698.23	285.66
698.56	284.82
698.90	284.11
699.23	283.26
699.57	282.45
699.90	281.50
700.24	280.47
700.58	279.77
700.91	279.05
701.25	278.60
701.58	277.95
701.92	277.27
702.25	276.52
702.59	275.70
702.92	275.08
703.26	274.29
703.59	273.48
703.93	273.05
704.26	272.51
704.60	271.85
704.93	271.21
705.26	270.42
705.60	269.79
705.93	269.10
706.27	268.55
706.60	268.00
706.94	267.52
707.27	266.87
707.61	266.19
707.94	265.61
708.27	264.73
708.61	264.06
708.94	263.48
709.28	262.89
709.61	262.29
709.94	261.73
710.28	261.27
710.61	260.75
710.95	259.89
711.28	259.50
711.61	258.93
711.95	258.46
712.28	257.96
712.61	257.54
712.95	257.20
713.28	256.87
713.61	256.41
713.95	255.85
714.28	255.43
714.61	254.97
714.95	254.41
715.28	253.85
715.61	253.31
715.95	252.84
716.28	252.40
716.61	251.98
716.95	251.60
717.28	251.11
717.61	250.76
717.94	250.41
718.28	249.76
718.61	249.39
718.94	248.90
719.27	248.50
719.61	248.05
719.94	247.55
720.27	247.00
720.60	246.52
720.94	246.07
721.27	245.78
721.60	245.59
721.93	245.28
722.27	245.08
722.60	244.86
722.93	244.53
723.26	244.18
723.59	243.87
723.93	243.47
724.26	243.19
724.59	242.88
724.92	242.54
725.25	242.30
725.59	241.99
725.92	241.84
726.25	241.56
726.58	241.29
726.91	240.99
727.24	240.72
727.57	240.43
727.91	240.15
728.24	239.87
728.57	239.46
728.90	239.23
729.23	238.84
729.56	238.69
729.89	238.37
730.22	238.12
730.55	237.89
730.89	237.67
731.22	237.36
731.55	237.06
731.88	236.90
732.21	236.61
732.54	236.28
732.87	235.96
733.20	235.70
733.53	235.51
733.86	235.24
734.19	234.94
734.52	234.79
734.85	234.88
735.18	234.61
735.51	234.48
735.84	234.23
736.17	234.17
736.50	233.71
736.83	233.96
737.16	233.68
737.49	233.40
737.82	233.13
738.15	232.92
738.48	232.68
738.81	232.40
739.14	232.19
739.47	232.01
739.80	231.73
740.13	231.62
740.46	231.33
740.79	231.06
741.12	230.86
741.45	230.54
741.78	230.10
742.11	230.01
742.44	229.67
742.77	229.57
743.10	229.24
743.43	229.06
743.75	228.52
744.08	228.81
744.41	228.68
744.74	228.49
745.07	228.32
745.40	228.25
745.73	228.16
746.06	227.96
746.39	227.86
746.71	227.70
747.04	227.39
747.37	227.26
747.70	227.23
748.03	227.15
748.36	227.06
748.68	226.82
749.01	226.48
749.34	226.35
749.67	226.17
750.00	226.06
750.33	226.16
750.65	225.96
750.98	225.36
751.31	225.23
751.64	225.06
751.97	225.12
752.29	224.95
752.62	224.62
752.95	224.44
753.28	224.29
753.60	224.17
753.93	224.18
754.26	224.04
754.59	223.81
754.91	223.61
755.24	223.47
755.57	223.37
755.90	223.28
756.22	223.15
756.55	222.95
756.88	222.80
757.20	222.45
757.53	222.27
757.86	222.13
758.19	222.04
758.51	221.97
758.84	221.61
759.17	221.46
759.49	221.42
759.82	221.54
760.15	221.39
760.47	221.30
760.80	221.10
761.13	221.00
761.45	220.95
761.78	220.82
762.11	220.74
762.43	220.63
762.76	220.49
763.08	220.44
763.41	220.41
763.74	220.28
764.06	220.17
764.39	220.06
764.71	220.00
765.04	219.75
765.37	219.67
765.69	219.61
766.02	219.50
766.34	219.37
766.67	219.07
767.00	219.10
767.32	219.16
767.65	219.23
767.97	219.15
768.30	219.04
768.62	218.96
768.95	218.82
769.27	218.66
769.60	218.71
769.92	218.56
770.25	218.38
770.57	218.29
770.90	218.28
771.22	218.23
771.55	218.10
771.87	218.08
772.20	217.93
772.52	218.15
772.85	218.53
773.17	218.50
773.50	218.45
773.82	218.25
774.15	217.98
774.47	217.73
774.80	217.61
775.12	217.54
775.45	217.41
775.77	217.38
776.09	217.40
776.42	217.30
776.74	217.33
777.07	217.28
777.39	217.26
777.72	217.11
778.04	217.04
778.36	217.03
778.69	217.04
779.01	217.05
779.33	216.72
779.66	216.19
779.98	216.11
780.31	216.09
780.63	216.20
780.95	216.28
781.28	216.17
781.60	216.14
781.92	216.08
782.25	216.12
782.57	216.01
782.89	215.93
783.22	215.91
783.54	215.87
783.86	215.83
784.19	215.77
784.51	215.86
784.83	215.78
785.16	215.79
785.48	215.75
785.80	215.77
786.12	215.73
786.45	215.73
786.77	215.73
787.09	215.65
787.42	215.48
787.74	215.41
788.06	215.45
788.38	215.34
788.71	215.26
789.03	215.30
789.35	215.40
789.67	215.25
789.99	215.14
790.32	215.03
790.64	215.06
790.96	215.31
791.28	215.19
791.61	215.15
791.93	215.10
792.25	215.03
792.57	215.20
792.89	215.10
793.21	215.11
793.54	215.04
793.86	214.99
794.18	215.02
794.50	215.02
794.82	215.02
795.14	215.10
795.47	215.17
795.79	215.08
796.11	214.96
796.43	215.00
796.75	215.02
797.07	215.04
797.39	214.97
797.71	214.68
798.04	214.68
798.36	214.64
798.68	214.60
799.00	214.58
799.32	214.39
799.64	214.43
799.96	214.41
800.28	214.46
800.60	214.42
800.92	214.41
801.24	214.33
801.56	214.31
801.89	214.31
802.21	214.32
802.53	214.27
802.85	214.35
803.17	214.52
803.49	214.48
803.81	214.37
804.13	214.32
804.45	214.28
804.77	214.30
805.09	214.30
805.41	214.30
805.73	214.24
806.05	214.14
806.37	214.09
806.69	214.03
807.01	214.02
807.33	214.03
807.65	213.83
807.97	213.94
808.28	213.90
808.60	213.83
808.92	213.74
809.24	213.90
809.56	213.80
809.88	213.69
810.20	213.68
810.52	213.80
810.84	213.82
811.16	213.77
811.48	213.74
811.80	213.93
812.12	213.88
812.43	213.99
812.75	213.99
813.07	214.01
813.39	214.00
813.71	213.87
814.03	213.83
814.35	213.91
814.67	213.75
814.98	213.69
815.30	213.62
815.62	213.53
815.94	213.35
816.26	213.36
816.58	213.26
816.89	213.32
817.21	213.26
817.53	213.25
817.85	213.26
818.17	213.22
818.48	212.98
818.80	213.06
819.12	212.86
819.44	212.82
819.76	212.71
820.07	212.70
820.39	212.71
820.71	212.76
821.03	212.78
821.34	212.71
821.66	212.81
821.98	212.85
822.30	212.81
822.61	212.96
822.93	212.89
823.25	212.89
823.57	212.79
823.88	212.85
824.20	212.81
824.52	212.82
824.83	212.79
825.15	212.78
825.47	212.64
825.79	212.73
826.10	212.64
826.42	212.66
826.74	212.74
827.05	212.72
827.37	212.72
827.69	212.60
828.00	212.61
828.32	212.61
828.64	212.52
828.95	212.72
829.27	212.56
829.58	212.59
829.90	212.62
830.22	212.55
830.53	212.44
830.85	212.42
831.17	212.28
831.48	212.26
831.80	212.28
832.11	212.36
832.43	212.29
832.75	212.37
833.06	212.58
833.38	212.39
833.69	212.36
834.01	212.35
834.32	212.36
834.64	212.41
834.96	212.40
835.27	212.47
835.59	212.36
835.90	212.38
836.22	212.31
836.53	212.21
836.85	212.23
837.16	212.53
837.48	212.51
837.79	212.66
838.11	212.66
838.42	212.64
838.74	212.59
839.05	212.56
839.37	212.49
839.68	212.30
840.00	212.32
840.31	212.39
840.63	212.33
840.94	212.28
841.26	212.21
841.57	212.18
841.88	212.20
842.20	212.10
842.51	212.06
842.83	212.11
843.14	212.46
843.46	212.43
843.77	212.24
844.08	212.28
844.40	212.16
844.71	212.10
845.03	212.08
845.34	212.08
845.65	212.09
845.97	212.11
846.28	212.05
846.60	212.08
846.91	212.07
847.22	212.14
847.54	212.23
847.85	212.22
848.16	212.18
848.48	212.08
848.79	212.28
849.10	212.26
849.42	212.30
849.73	212.00
850.04	211.99
850.36	211.96
850.67	211.93
850.98	211.95
851.30	212.05
851.61	212.07
851.92	212.14
852.23	212.26
852.55	212.25
852.86	212.26
853.17	212.28
853.49	212.37
853.80	212.35
854.11	212.39
854.42	212.43
854.74	212.39
855.05	212.41
855.36	212.22
855.67	212.24
855.99	212.18
856.30	212.52
856.61	212.55
856.92	212.49
857.23	212.55
857.55	212.57
857.86	212.49
858.17	212.56
858.48	212.41
858.79	212.37
859.11	212.40
859.42	212.41
859.73	212.38
860.04	212.38
860.35	212.35
860.66	212.21
860.98	212.23
861.29	212.32
861.60	212.31
861.91	212.37
862.22	212.34
862.53	212.30
862.84	211.93
863.16	211.99
863.47	211.87
863.78	211.83
864.09	211.84
864.40	211.84
864.71	211.79
865.02	211.88
865.33	211.77
865.64	211.77
865.95	211.73
866.27	211.97
866.58	211.85
866.89	211.83
867.20	211.86
867.51	211.77
867.82	211.70
868.13	211.81
868.44	211.79
868.75	211.83
869.06	211.86
869.37	211.88
869.68	211.76
869.99	211.90
870.30	211.87
870.61	211.90
870.92	211.96
871.23	211.91
871.54	211.90
871.85	212.00
872.16	211.98
872.47	212.00
872.78	211.75
873.09	211.81
873.40	211.77
873.71	211.79
874.02	211.81
874.33	211.79
874.64	211.65
874.95	211.65
875.26	211.52
875.56	211.50
875.87	211.46
876.18	211.54
876.49	211.80
876.80	211.80
877.11	211.66
877.42	211.62
877.73	211.63
878.04	211.57
878.35	211.56
878.66	211.60
878.96	211.56
879.27	211.57
879.58	211.56
879.89	211.60
880.20	211.78
880.51	211.74
880.82	211.78
881.12	211.85
881.43	211.78
881.74	211.81
882.05	211.78
882.36	211.87
882.67	211.85
882.97	211.55
883.28	211.56
883.59	211.65
883.90	211.66
884.21	211.78
884.51	211.81
884.82	211.73
885.13	211.69
885.44	211.75
885.74	211.76
886.05	211.65
886.36	211.60
886.67	211.40
886.98	211.70
887.28	211.70
887.59	211.67
887.90	211.70
888.20	211.71
888.51	211.71
888.82	211.66
889.13	211.67
889.43	211.88
889.74	211.82
890.05	211.81
890.35	211.75
890.66	211.58
890.97	211.57
891.28	211.55
891.58	211.56
891.89	211.58
892.20	211.55
892.50	211.63
892.81	211.63
893.12	211.64
893.42	211.36
893.73	211.33
894.04	211.35
894.34	211.38
894.65	211.36
894.95	211.35
895.26	211.36
895.57	211.46
895.87	211.17
896.18	211.30
896.48	211.29
896.79	211.25
897.10	211.36
897.40	211.39
897.71	211.45
898.01	211.41
898.32	211.36
898.63	211.37
898.93	211.39
899.24	211.42
899.54	211.45
899.85	211.40
900.15	211.44
900.46	211.43
900.76	211.47
901.07	211.46
901.38	211.46
901.68	211.44
901.99	211.26
902.29	211.29
902.60	211.18
902.90	211.11
903.21	211.16
903.51	211.10
903.82	211.17
904.12	211.18
904.43	211.20
904.73	211.21
905.03	211.19
905.34	211.50
905.64	211.45
905.95	211.47
906.25	211.54
906.56	211.50
906.86	211.50
907.17	211.39
907.47	211.45
907.77	211.43
908.08	211.34
908.38	211.39
908.69	211.40
908.99	211.48
909.30	211.59
909.60	211.56
909.90	211.58
910.21	211.43
910.51	211.37
910.81	211.41
911.12	211.46
911.42	211.48
911.73	211.09
912.03	211.14
912.33	211.17
912.64	211.14
912.94	211.15
913.24	211.12
913.55	211.16
913.85	211.14
914.15	211.23
914.46	211.33
914.76	211.33
915.06	211.30
915.37	211.25
915.67	211.17
915.97	211.19
916.27	211.14
916.58	211.24
916.88	211.27
917.18	211.16
917.49	211.31
917.79	211.27
918.09	211.31
918.39	211.42
918.70	211.38
919.00	211.38
919.30	211.51
919.60	211.51
919.91	211.41
920.21	211.44
920.51	211.35
920.81	211.31
921.12	211.39
921.42	211.44
921.72	211.43
922.02	211.48
922.32	211.52
922.63	211.54
922.93	211.68
923.23	211.70
923.53	211.77
923.83	211.56
924.13	211.67
924.44	211.71
924.74	211.75
925.04	211.78
925.34	211.79
925.64	211.61
925.94	211.59
926.24	211.87
926.55	211.80
926.85	211.88
927.15	211.94
927.45	211.87
927.75	211.83
928.05	211.89
928.35	211.79
928.65	211.89
928.95	211.90
929.26	211.74
929.56	211.82
929.86	211.84
930.16	211.81
930.46	211.78
930.76	211.75
931.06	211.51
931.36	211.48
931.66	211.52
931.96	211.59
932.26	211.67
932.56	211.52
932.86	211.54
933.16	211.49
933.46	211.44
933.76	211.35
934.06	211.48
934.36	211.53
934.66	211.57
934.96	211.53
935.26	211.61
935.56	211.65
935.86	211.55
936.16	211.50
936.46	211.45
936.76	211.37
937.06	211.33
937.36	211.38
937.66	211.35
937.96	211.34
938.26	211.30
938.56	211.25
938.86	211.29
939.16	211.39
939.46	211.43
939.76	211.39
940.06	211.44
940.35	211.30
940.65	211.18
940.95	211.22
941.25	211.10
941.55	211.02
941.85	210.93
942.15	210.94
942.45	211.00
942.75	211.04
943.04	211.11
943.34	211.23
943.64	211.22
943.94	211.27
944.24	211.25
944.54	211.25
944.84	211.26
945.13	211.24
945.43	211.14
945.73	211.14
946.03	211.16
946.33	211.19
946.62	211.17
946.92	211.18
947.22	211.19
947.52	211.24
947.82	211.28
948.11	211.38
948.41	211.35
948.71	211.22
949.01	211.22
949.31	211.13
949.60	211.06
949.90	211.15
950.20	211.11
950.50	211.16
950.79	211.14
951.09	211.18
951.39	211.09
951.69	211.09
951.98	211.24
952.28	211.28
952.58	211.20
952.87	211.19
953.17	211.24
953.47	211.16
953.76	211.17
954.06	211.10
954.36	210.97
954.66	210.94
954.95	211.12
955.25	211.15
955.55	211.20
955.84	211.11
956.14	211.10
956.44	211.12
956.73	211.00
957.03	210.99
957.32	210.96
957.62	210.99
957.92	211.08
958.21	211.00
958.51	211.43
958.81	211.49
959.10	211.58
959.40	211.62
959.69	211.69
959.99	211.68
960.29	211.66
960.58	211.73
960.88	211.92
961.17	211.93
961.47	212.01
961.76	211.96
962.06	212.03
962.36	211.94
962.65	211.97
962.95	212.00
963.24	211.97
963.54	211.96
963.83	211.92
964.13	211.86
964.42	211.72
964.72	211.38
965.01	211.51
965.31	211.46
965.60	211.41
965.90	211.59
966.19	211.52
966.49	211.54
966.78	211.48
967.08	211.41
967.37	211.32
967.67	211.19
967.96	211.25
968.26	211.28
968.55	211.37
968.85	211.35
969.14	211.38
969.43	211.42
969.73	211.36
970.02	211.42
970.32	211.37
970.61	211.36
970.91	211.29
971.20	211.12
971.49	211.08
971.79	211.08
972.08	210.81
972.38	210.84
972.67	210.81
972.96	210.82
973.26	210.76
973.55	210.84
973.85	210.90
974.14	210.93
974.43	210.92
974.73	210.81
975.02	210.75
975.31	210.73
975.61	210.68
975.90	210.65
976.19	210.60
976.49	210.67
976.78	210.71
977.07	210.71
977.37	210.81
977.66	210.88
977.95	210.82
978.24	210.95
978.54	211.00
978.83	211.01
979.12	211.05
979.42	211.04
979.71	211.00
980.00	210.92
980.29	210.96
980.59	210.94
980.88	211.01
981.17	211.04
981.46	211.08
981.76	211.13
982.05	211.25
982.34	211.33
982.63	211.28
982.93	211.26
983.22	211.24
983.51	211.13
983.80	211.13
984.09	211.20
984.39	211.15
984.68	211.15
984.97	211.20
985.26	211.17
985.55	211.17
985.85	211.05
986.14	211.14
986.43	211.10
986.72	211.01
987.01	210.97
987.30	210.87
987.59	210.82
987.89	210.83
988.18	210.76
988.47	210.67
988.76	210.69
989.05	210.64
989.34	210.66
989.63	210.76
989.92	210.71
990.22	210.69
990.51	210.64
990.80	210.70
991.09	210.68
991.38	210.64
991.67	210.62
991.96	210.59
992.25	210.59
992.54	210.53
992.83	210.56
993.12	210.50
993.41	210.65
993.70	210.81
993.99	210.92
994.28	210.95
994.58	211.01
994.87	210.99
995.16	211.02
995.45	211.05
995.74	211.05
996.03	211.09
996.32	211.12
996.61	211.20
996.90	211.09
997.19	211.09
997.48	211.17
997.77	211.14
998.06	211.21
998.34	211.21
998.63	211.21
998.92	211.21
999.21	211.27
999.50	211.30
999.79	211.15
1000.08	211.03
1000.37	211.05
1000.66	211.01
1000.95	211.09
1001.24	211.11
1001.53	211.13
1001.82	211.07
1002.11	210.96
1002.40	211.02
1002.68	211.14
1002.97	211.38
1003.26	211.33
1003.55	211.31
1003.84	211.38
1004.13	211.49
1004.42	211.50
1004.71	211.47
1004.99	211.42
1005.28	211.50
1005.57	211.43
1005.86	211.41
1006.15	211.50
1006.44	211.39
1006.72	211.41
1007.01	211.34
1007.30	211.38
1007.59	211.33
1007.88	211.33
1008.17	211.40
1008.45	211.27
1008.74	211.12
1009.03	210.98
1009.32	210.98
1009.60	210.86
1009.89	210.78
1010.18	210.64
1010.47	210.56
1010.76	210.59
1011.04	210.60
1011.33	210.60
1011.62	210.68
1011.91	210.76
1012.19	210.73
1012.48	210.80
1012.77	210.81
1013.05	210.93
1013.34	210.87
1013.63	210.81
1013.92	210.74
1014.20	210.73
1014.49	210.78
1014.78	210.81
1015.06	210.71
1015.35	210.71
1015.64	210.83
1015.92	210.92
1016.21	210.95
1016.50	210.96
1016.78	211.07
1017.07	211.14
1017.36	211.03
1017.64	210.93
1017.93	210.96
1018.22	210.93
1018.50	210.90
1018.79	210.90
1019.08	210.75
1019.36	210.80
1019.65	210.80
1019.93	210.97
1020.22	211.04
1020.51	211.18
1020.79	211.05
1021.08	210.85
1021.36	210.45
1021.65	210.95
1021.94	210.10
1022.22	211.35
1022.51	210.00
1022.79	212.75
1023.08	211.75
1023.36	214.60
1023.65	208.85
>>>>>End Processed Spectral Data<<<<<
