SpectraSuite Data File
++++++++++++++++++++++++++++++++++++
Date: Mon Feb 25 16:57:57 EST 2013
User: group
Dark Spectrum Present: No
Reference Spectrum Present: No
Number of Sampled Component Spectra: 1
Spectrometers: USB2E7196
Integration Time (usec): 104000 (USB2E7196)
Spectra Averaged: 20 (USB2E7196)
Boxcar Smoothing: 10 (USB2E7196)
Correct for Electrical Dark: No (USB2E7196)
Strobe/Lamp Enabled: No (USB2E7196)
Correct for Detector Non-linearity: No (USB2E7196)
Correct for Stray Light: No (USB2E7196)
Number of Pixels in Processed Spectrum: 2048
>>>>>Begin Processed Spectral Data<<<<<
339.09	0.00
339.48	198.70
339.86	198.95
340.24	201.50
340.63	203.00
341.01	209.70
341.39	206.30
341.78	205.50
342.16	209.30
342.54	209.25
342.93	198.06
343.31	208.03
343.69	208.56
344.07	209.08
344.46	209.61
344.84	210.01
345.22	210.05
345.60	210.24
345.99	210.54
346.37	210.62
346.75	210.71
347.13	210.80
347.52	210.83
347.90	210.99
348.28	211.01
348.66	211.07
349.05	210.98
349.43	211.07
349.81	211.19
350.19	211.27
350.57	211.36
350.96	211.38
351.34	211.53
351.72	211.69
352.10	211.74
352.48	211.72
352.87	211.73
353.25	211.82
353.63	211.89
354.01	211.94
354.39	212.06
354.77	212.15
355.15	212.29
355.54	212.41
355.92	212.39
356.30	212.51
356.68	212.80
357.06	212.93
357.44	212.92
357.82	212.90
358.20	213.03
358.58	213.04
358.97	213.11
359.35	213.20
359.73	213.25
360.11	213.33
360.49	213.36
360.87	213.45
361.25	213.56
361.63	213.71
362.01	213.73
362.39	213.72
362.77	213.79
363.15	213.79
363.53	213.81
363.91	213.86
364.29	213.83
364.67	213.54
365.05	213.49
365.43	213.51
365.81	213.57
366.19	213.69
366.57	213.80
366.95	213.78
367.33	213.69
367.71	213.66
368.09	213.73
368.47	213.73
368.85	213.70
369.23	213.72
369.61	213.55
369.99	213.67
370.37	213.70
370.75	213.83
371.13	213.68
371.51	213.62
371.89	213.55
372.27	213.53
372.65	213.55
373.03	213.57
373.41	213.56
373.78	213.54
374.16	213.36
374.54	213.26
374.92	213.21
375.30	213.22
375.68	213.13
376.06	213.05
376.44	213.01
376.82	212.97
377.19	212.93
377.57	212.95
377.95	212.76
378.33	212.63
378.71	212.38
379.09	212.41
379.47	212.39
379.84	212.29
380.22	212.24
380.60	212.15
380.98	212.10
381.36	212.08
381.73	212.05
382.11	212.09
382.49	211.99
382.87	211.97
383.25	211.89
383.62	212.27
384.00	212.24
384.38	212.21
384.76	212.25
385.13	212.34
385.51	212.37
385.89	212.29
386.27	212.23
386.64	212.23
387.02	212.18
387.40	212.14
387.78	212.20
388.15	212.17
388.53	212.14
388.91	212.07
389.29	212.04
389.66	212.01
390.04	211.89
390.42	211.95
390.79	211.99
391.17	211.98
391.55	211.56
391.92	211.52
392.30	211.53
392.68	211.40
393.05	211.30
393.43	211.25
393.81	211.32
394.18	211.34
394.56	211.33
394.94	211.44
395.31	211.37
395.69	211.53
396.06	211.60
396.44	211.66
396.82	211.69
397.19	211.89
397.57	211.87
397.95	211.97
398.32	211.98
398.70	211.97
399.07	212.08
399.45	212.11
399.82	212.15
400.20	212.19
400.58	212.37
400.95	212.35
401.33	212.50
401.70	212.85
402.08	212.95
402.45	213.08
402.83	213.28
403.20	213.49
403.58	213.53
403.95	213.80
404.33	214.00
404.71	214.30
405.08	214.68
405.46	215.03
405.83	215.35
406.21	215.62
406.58	215.97
406.96	216.30
407.33	216.75
407.70	217.24
408.08	217.90
408.45	218.38
408.83	218.94
409.20	219.41
409.58	219.69
409.95	220.38
410.33	221.07
410.70	221.66
411.08	222.38
411.45	223.14
411.82	223.91
412.20	224.89
412.57	225.97
412.95	226.69
413.32	227.80
413.69	228.86
414.07	230.08
414.44	231.43
414.82	232.89
415.19	234.47
415.56	236.06
415.94	237.71
416.31	239.65
416.68	241.58
417.06	243.75
417.43	245.90
417.81	248.29
418.18	250.76
418.55	253.50
418.93	256.38
419.30	259.40
419.67	262.54
420.04	265.69
420.42	269.05
420.79	273.09
421.16	277.04
421.54	281.30
421.91	285.53
422.28	290.04
422.66	294.71
423.03	299.49
423.40	304.38
423.77	309.53
424.15	314.75
424.52	320.25
424.89	326.29
425.26	332.15
425.64	337.85
426.01	344.17
426.38	350.52
426.75	357.00
427.13	363.75
427.50	370.86
427.87	378.35
428.24	385.63
428.61	392.60
428.99	400.47
429.36	408.91
429.73	417.29
430.10	425.50
430.47	434.10
430.85	442.93
431.22	452.49
431.59	462.43
431.96	472.08
432.33	482.91
432.70	493.33
433.08	505.62
433.45	517.15
433.82	528.69
434.19	541.56
434.56	554.29
434.93	566.64
435.30	579.04
435.68	592.66
436.05	606.51
436.42	620.35
436.79	632.75
437.16	646.15
437.53	660.36
437.90	674.51
438.27	688.48
438.64	703.01
439.01	716.55
439.38	728.87
439.75	740.93
440.13	754.31
440.50	767.10
440.87	777.85
441.24	788.81
441.61	800.95
441.98	810.26
442.35	820.98
442.72	831.81
443.09	842.09
443.46	848.82
443.83	853.55
444.20	857.47
444.57	863.34
444.94	866.82
445.31	870.42
445.68	873.78
446.05	875.77
446.42	875.42
446.79	874.66
447.16	874.03
447.53	873.79
447.90	869.73
448.27	865.58
448.64	859.30
449.01	855.11
449.37	846.69
449.74	838.60
450.11	829.04
450.48	818.11
450.85	807.13
451.22	797.63
451.59	788.68
451.96	780.44
452.33	768.60
452.70	757.99
453.07	744.95
453.43	731.82
453.80	719.21
454.17	707.31
454.54	696.17
454.91	683.71
455.28	671.69
455.65	660.36
456.02	649.19
456.38	639.60
456.75	627.63
457.12	617.77
457.49	607.97
457.86	598.05
458.23	589.85
458.59	580.79
458.96	571.71
459.33	563.55
459.70	555.30
460.07	548.98
460.43	541.42
460.80	534.55
461.17	528.55
461.54	522.25
461.91	516.09
462.27	509.71
462.64	504.51
463.01	498.42
463.38	492.95
463.74	487.11
464.11	482.18
464.48	477.84
464.85	473.08
465.21	469.44
465.58	465.50
465.95	460.72
466.32	456.82
466.68	453.02
467.05	449.18
467.42	445.28
467.78	441.20
468.15	437.46
468.52	434.65
468.88	430.95
469.25	427.65
469.62	424.86
469.98	421.90
470.35	419.21
470.72	416.62
471.08	413.71
471.45	411.40
471.82	408.93
472.18	406.26
472.55	404.34
472.92	402.02
473.28	400.16
473.65	398.22
474.02	396.30
474.38	394.72
474.75	393.24
475.11	391.70
475.48	390.67
475.85	389.63
476.21	388.60
476.58	387.74
476.94	387.10
477.31	386.42
477.67	385.60
478.04	384.95
478.41	384.61
478.77	384.64
479.14	384.33
479.50	384.27
479.87	384.27
480.23	384.21
480.60	384.21
480.96	384.19
481.33	384.64
481.69	384.94
482.06	385.15
482.42	385.46
482.79	385.84
483.15	386.37
483.52	387.13
483.88	387.70
484.25	388.38
484.61	389.08
484.98	389.80
485.34	391.13
485.71	392.46
486.07	393.70
486.44	394.68
486.80	396.11
487.17	397.47
487.53	399.30
487.90	401.08
488.26	403.01
488.62	405.11
488.99	407.19
489.35	409.37
489.72	411.79
490.08	414.44
490.44	417.00
490.81	419.60
491.17	422.28
491.54	425.29
491.90	428.33
492.26	431.55
492.63	434.99
492.99	438.32
493.36	441.63
493.72	445.29
494.08	449.05
494.45	452.92
494.81	457.01
495.17	461.06
495.54	465.47
495.90	469.75
496.26	473.98
496.63	478.49
496.99	483.13
497.35	487.89
497.72	492.60
498.08	497.60
498.44	502.63
498.80	507.91
499.17	513.16
499.53	518.45
499.89	523.82
500.26	529.12
500.62	534.46
500.98	540.14
501.34	545.66
501.71	551.37
502.07	556.91
502.43	562.55
502.79	568.06
503.16	573.68
503.52	579.43
503.88	585.01
504.24	590.71
504.60	596.40
504.97	602.16
505.33	607.89
505.69	614.09
506.05	619.89
506.41	625.47
506.78	630.99
507.14	636.56
507.50	642.06
507.86	647.63
508.22	653.30
508.59	658.60
508.95	663.97
509.31	669.35
509.67	674.77
510.03	680.14
510.39	685.53
510.75	690.84
511.12	695.92
511.48	701.31
511.84	706.41
512.20	711.37
512.56	716.45
512.92	721.27
513.28	725.85
513.64	730.57
514.00	735.15
514.37	739.70
514.73	744.24
515.09	748.76
515.45	753.00
515.81	757.19
516.17	761.40
516.53	765.56
516.89	769.40
517.25	773.01
517.61	776.91
517.97	780.34
518.33	783.64
518.69	787.15
519.05	790.51
519.41	793.60
519.77	797.21
520.13	800.08
520.49	803.12
520.85	805.83
521.21	808.68
521.57	811.60
521.93	814.13
522.29	816.84
522.65	819.54
523.01	822.11
523.37	824.43
523.73	827.02
524.09	829.39
524.45	831.82
524.81	834.49
525.17	836.76
525.53	839.33
525.89	841.71
526.25	844.06
526.61	846.02
526.97	848.49
527.33	850.37
527.68	852.83
528.04	854.94
528.40	856.81
528.76	858.83
529.12	860.94
529.48	863.51
529.84	865.46
530.20	867.43
530.56	869.61
530.91	872.06
531.27	874.30
531.63	876.37
531.99	878.55
532.35	880.46
532.71	882.49
533.07	884.51
533.42	886.94
533.78	889.19
534.14	891.67
534.50	893.41
534.86	895.82
535.21	897.40
535.57	899.63
535.93	901.96
536.29	904.25
536.65	906.44
537.00	908.01
537.36	910.08
537.72	911.85
538.08	913.74
538.44	915.64
538.79	917.52
539.15	919.54
539.51	921.67
539.87	924.03
540.22	926.05
540.58	928.48
540.94	930.53
541.29	932.45
541.65	934.05
542.01	936.30
542.37	938.14
542.72	940.38
543.08	942.27
543.44	944.59
543.79	945.93
544.15	947.75
544.51	950.20
544.87	952.51
545.22	954.74
545.58	956.87
545.94	958.64
546.29	960.45
546.65	962.19
547.01	963.51
547.36	965.25
547.72	966.96
548.07	968.49
548.43	969.67
548.79	971.01
549.14	972.85
549.50	974.46
549.86	975.62
550.21	977.24
550.57	979.16
550.92	980.38
551.28	982.48
551.64	983.97
551.99	985.41
552.35	986.59
552.70	987.91
553.06	989.43
553.41	991.01
553.77	992.57
554.13	994.36
554.48	996.38
554.84	998.08
555.19	999.64
555.55	1001.27
555.90	1002.95
556.26	1004.45
556.61	1005.50
556.97	1006.71
557.32	1008.40
557.68	1009.41
558.03	1010.14
558.39	1011.01
558.74	1012.13
559.10	1013.25
559.45	1014.15
559.81	1015.59
560.16	1016.56
560.52	1017.75
560.87	1018.57
561.23	1019.34
561.58	1020.38
561.94	1020.99
562.29	1021.09
562.64	1022.03
563.00	1022.76
563.35	1023.59
563.71	1024.85
564.06	1025.90
564.42	1026.89
564.77	1027.98
565.12	1029.19
565.48	1030.71
565.83	1032.00
566.19	1033.17
566.54	1033.92
566.89	1034.99
567.25	1035.79
567.60	1036.83
567.96	1037.71
568.31	1039.10
568.66	1040.04
569.02	1040.38
569.37	1040.58
569.72	1041.60
570.08	1041.93
570.43	1042.20
570.78	1042.57
571.14	1042.26
571.49	1042.30
571.84	1042.35
572.20	1041.90
572.55	1041.64
572.90	1040.75
573.26	1040.01
573.61	1038.99
573.96	1038.46
574.31	1037.56
574.67	1036.47
575.02	1035.18
575.37	1033.66
575.72	1031.60
576.08	1030.32
576.43	1028.91
576.78	1028.04
577.13	1026.72
577.49	1025.38
577.84	1023.98
578.19	1022.65
578.54	1021.89
578.90	1021.10
579.25	1019.44
579.60	1017.80
579.95	1015.80
580.30	1014.33
580.66	1012.80
581.01	1011.10
581.36	1009.23
581.71	1007.23
582.06	1005.58
582.42	1003.89
582.77	1002.00
583.12	1000.29
583.47	998.30
583.82	996.38
584.17	994.14
584.53	992.15
584.88	989.81
585.23	987.56
585.58	985.09
585.93	982.52
586.28	979.95
586.63	977.89
586.98	975.82
587.34	974.10
587.69	971.83
588.04	969.73
588.39	967.72
588.74	965.44
589.09	963.46
589.44	960.76
589.79	958.67
590.14	956.62
590.49	954.56
590.84	952.21
591.19	950.30
591.54	948.09
591.89	945.40
592.25	943.33
592.60	940.72
592.95	938.04
593.30	935.09
593.65	932.10
594.00	929.02
594.35	927.20
594.70	924.25
595.05	921.74
595.40	918.85
595.75	915.78
596.10	913.19
596.45	910.60
596.80	908.10
597.15	905.47
597.50	902.56
597.85	899.78
598.19	897.00
598.54	894.05
598.89	891.34
599.24	889.00
599.59	886.13
599.94	883.61
600.29	880.96
600.64	878.40
600.99	875.65
601.34	873.31
601.69	869.60
602.04	866.65
602.39	863.52
602.74	860.89
603.08	858.34
603.43	855.88
603.78	852.80
604.13	850.00
604.48	847.09
604.83	844.56
605.18	842.16
605.53	839.20
605.87	836.34
606.22	833.54
606.57	830.40
606.92	827.52
607.27	824.51
607.62	821.59
607.96	818.76
608.31	816.34
608.66	813.29
609.01	810.11
609.36	807.32
609.70	804.29
610.05	801.06
610.40	797.93
610.75	794.50
611.10	791.68
611.44	788.11
611.79	784.74
612.14	781.33
612.49	777.44
612.83	774.20
613.18	770.64
613.53	767.18
613.88	763.70
614.22	760.08
614.57	756.82
614.92	753.71
615.27	750.41
615.61	746.75
615.96	743.69
616.31	740.79
616.65	737.66
617.00	734.47
617.35	731.39
617.70	728.23
618.04	724.67
618.39	720.88
618.74	717.89
619.08	714.56
619.43	711.29
619.78	708.43
620.12	705.50
620.47	702.46
620.82	699.02
621.16	695.55
621.51	692.71
621.85	689.55
622.20	686.03
622.55	682.58
622.89	679.31
623.24	675.74
623.59	672.28
623.93	669.04
624.28	665.95
624.62	663.12
624.97	660.14
625.32	657.20
625.66	654.45
626.01	651.35
626.35	648.40
626.70	645.27
627.04	642.10
627.39	638.80
627.73	635.98
628.08	633.40
628.43	630.66
628.77	627.50
629.12	624.42
629.46	621.85
629.81	619.05
630.15	616.09
630.50	613.39
630.84	610.57
631.19	607.59
631.53	604.73
631.88	601.55
632.22	598.43
632.57	595.88
632.91	592.98
633.26	590.30
633.60	587.48
633.95	584.90
634.29	582.09
634.64	579.68
634.98	576.73
635.32	574.03
635.67	571.63
636.01	569.28
636.36	566.53
636.70	564.01
637.05	561.49
637.39	559.22
637.73	556.85
638.08	554.69
638.42	552.44
638.77	550.07
639.11	547.59
639.45	545.30
639.80	542.50
640.14	540.00
640.49	537.57
640.83	535.25
641.17	532.82
641.52	530.39
641.86	527.72
642.20	525.40
642.55	522.75
642.89	520.24
643.23	517.61
643.58	515.56
643.92	512.90
644.26	510.55
644.61	508.22
644.95	505.77
645.29	503.22
645.64	500.84
645.98	498.37
646.32	496.10
646.66	493.57
647.01	491.31
647.35	489.06
647.69	486.75
648.04	484.48
648.38	482.18
648.72	479.91
649.06	477.64
649.41	475.36
649.75	473.25
650.09	471.06
650.43	468.85
650.78	466.45
651.12	464.28
651.46	462.06
651.80	459.94
652.14	457.74
652.49	455.73
652.83	453.49
653.17	451.40
653.51	449.10
653.85	447.25
654.20	445.20
654.54	443.12
654.88	441.00
655.22	439.02
655.56	436.91
655.90	434.79
656.25	432.65
656.59	430.68
656.93	428.77
657.27	426.74
657.61	424.61
657.95	422.68
658.29	420.72
658.64	418.89
658.98	416.73
659.32	414.63
659.66	412.59
660.00	410.63
660.34	408.70
660.68	406.77
661.02	404.68
661.36	402.85
661.70	401.06
662.05	399.32
662.39	397.48
662.73	395.77
663.07	394.28
663.41	392.71
663.75	390.90
664.09	389.11
664.43	387.32
664.77	385.68
665.11	383.95
665.45	382.27
665.79	380.64
666.13	379.04
666.47	377.63
666.81	376.04
667.15	374.45
667.49	372.97
667.83	371.61
668.17	370.13
668.51	368.72
668.85	367.27
669.19	365.91
669.53	364.28
669.87	362.78
670.21	361.26
670.55	359.88
670.89	358.65
671.23	357.40
671.57	356.14
671.91	354.86
672.25	353.60
672.58	352.43
672.92	351.06
673.26	349.84
673.60	348.58
673.94	347.31
674.28	346.13
674.62	344.92
674.96	343.65
675.30	342.52
675.64	341.36
675.97	340.09
676.31	338.84
676.65	337.80
676.99	336.84
677.33	335.66
677.67	334.48
678.01	333.17
678.34	331.98
678.68	330.87
679.02	329.71
679.36	328.59
679.70	327.41
680.04	326.33
680.37	325.24
680.71	324.00
681.05	322.96
681.39	321.90
681.73	320.78
682.06	319.72
682.40	318.68
682.74	317.52
683.08	316.67
683.42	315.62
683.75	314.71
684.09	313.61
684.43	312.61
684.77	311.51
685.10	310.61
685.44	309.50
685.78	308.41
686.12	307.50
686.45	306.58
686.79	305.60
687.13	304.71
687.46	303.77
687.80	302.96
688.14	301.96
688.48	301.07
688.81	300.24
689.15	299.50
689.49	298.52
689.82	297.70
690.16	296.57
690.50	295.65
690.83	294.62
691.17	293.63
691.51	292.68
691.84	291.90
692.18	291.02
692.52	290.23
692.85	289.60
693.19	288.85
693.52	288.00
693.86	287.15
694.20	286.31
694.53	285.50
694.87	284.68
695.21	283.90
695.54	283.07
695.88	282.21
696.21	281.27
696.55	280.57
696.88	279.81
697.22	279.10
697.56	278.48
697.89	277.70
698.23	276.98
698.56	276.32
698.90	275.62
699.23	274.97
699.57	274.33
699.90	273.45
700.24	272.66
700.58	272.03
700.91	271.45
701.25	271.00
701.58	270.55
701.92	269.96
702.25	269.37
702.59	268.71
702.92	268.11
703.26	267.53
703.59	267.00
703.93	266.72
704.26	266.22
704.60	265.65
704.93	265.07
705.26	264.55
705.60	264.05
705.93	263.41
706.27	262.91
706.60	262.49
706.94	262.15
707.27	261.59
707.61	260.99
707.94	260.44
708.27	259.70
708.61	258.99
708.94	258.51
709.28	258.02
709.61	257.52
709.94	257.09
710.28	256.68
710.61	256.18
710.95	255.28
711.28	255.10
711.61	254.62
711.95	254.27
712.28	253.74
712.61	253.26
712.95	253.17
713.28	252.84
713.61	252.26
713.95	251.76
714.28	251.47
714.61	251.12
714.95	250.75
715.28	250.31
715.61	249.90
715.95	249.48
716.28	249.06
716.61	248.74
716.95	248.23
717.28	247.83
717.61	247.33
717.94	247.04
718.28	246.36
718.61	245.89
718.94	245.50
719.27	245.13
719.61	244.77
719.94	244.20
720.27	243.65
720.60	243.31
720.94	242.93
721.27	242.60
721.60	242.26
721.93	241.87
722.27	241.65
722.60	241.41
722.93	241.00
723.26	240.76
723.59	240.35
723.93	240.18
724.26	239.83
724.59	239.60
724.92	239.36
725.25	239.20
725.59	238.98
725.92	238.79
726.25	238.63
726.58	238.45
726.91	238.18
727.24	238.05
727.57	237.70
727.91	237.41
728.24	237.14
728.57	236.88
728.90	236.74
729.23	236.35
729.56	236.24
729.89	236.01
730.22	235.70
730.55	235.57
730.89	235.31
731.22	235.11
731.55	234.93
731.88	234.66
732.21	234.30
732.54	233.99
732.87	233.62
733.20	233.35
733.53	233.07
733.86	232.89
734.19	232.55
734.52	232.49
734.85	232.55
735.18	232.27
735.51	232.12
735.84	231.94
736.17	231.92
736.50	231.55
736.83	231.73
737.16	231.50
737.49	231.25
737.82	231.03
738.15	230.82
738.48	230.62
738.81	230.40
739.14	230.19
739.47	230.06
739.80	229.92
740.13	229.78
740.46	229.52
740.79	229.26
741.12	229.09
741.45	228.79
741.78	228.46
742.11	228.38
742.44	228.09
742.77	227.97
743.10	227.68
743.43	227.52
743.75	227.01
744.08	227.29
744.41	227.11
744.74	226.92
745.07	226.69
745.40	226.56
745.73	226.56
746.06	226.38
746.39	226.29
746.71	226.10
747.04	225.90
747.37	225.80
747.70	225.72
748.03	225.58
748.36	225.50
748.68	225.27
749.01	224.93
749.34	224.88
749.67	224.62
750.00	224.50
750.33	224.61
750.65	224.43
750.98	223.85
751.31	223.74
751.64	223.57
751.97	223.64
752.29	223.51
752.62	223.27
752.95	223.29
753.28	223.10
753.60	223.03
753.93	223.08
754.26	223.00
754.59	222.76
754.91	222.68
755.24	222.60
755.57	222.53
755.90	222.46
756.22	222.25
756.55	222.16
756.88	222.01
757.20	221.64
757.53	221.46
757.86	221.36
758.19	221.34
758.51	221.30
758.84	221.09
759.17	220.95
759.49	220.84
759.82	220.85
760.15	220.80
760.47	220.63
760.80	220.34
761.13	220.24
761.45	220.23
761.78	220.10
762.11	220.02
762.43	219.94
762.76	219.98
763.08	220.00
763.41	219.95
763.74	219.90
764.06	219.82
764.39	219.86
764.71	219.83
765.04	219.72
765.37	219.59
765.69	219.50
766.02	219.39
766.34	219.30
766.67	219.07
767.00	219.06
767.32	219.20
767.65	219.38
767.97	219.27
768.30	219.13
768.62	219.06
768.95	218.91
769.27	218.75
769.60	218.66
769.92	218.50
770.25	218.39
770.57	218.26
770.90	218.23
771.22	218.03
771.55	217.98
771.87	217.90
772.20	217.82
772.52	218.00
772.85	218.39
773.17	218.28
773.50	218.21
773.82	217.99
774.15	217.77
774.47	217.45
774.80	217.33
775.12	217.31
775.45	217.17
775.77	217.14
776.09	217.11
776.42	217.08
776.74	217.07
777.07	217.01
777.39	216.97
777.72	216.83
778.04	216.84
778.36	216.74
778.69	216.69
779.01	216.67
779.33	216.43
779.66	215.94
779.98	215.92
780.31	215.90
780.63	216.04
780.95	216.08
781.28	216.00
781.60	215.95
781.92	215.93
782.25	215.93
782.57	215.88
782.89	215.86
783.22	215.76
783.54	215.74
783.86	215.65
784.19	215.55
784.51	215.64
784.83	215.55
785.16	215.56
785.48	215.49
785.80	215.44
786.12	215.35
786.45	215.31
786.77	215.32
787.09	215.22
787.42	215.03
787.74	214.96
788.06	214.95
788.38	214.97
788.71	214.85
789.03	214.81
789.35	214.83
789.67	214.70
789.99	214.64
790.32	214.52
790.64	214.54
790.96	214.85
791.28	214.65
791.61	214.64
791.93	214.55
792.25	214.54
792.57	214.79
792.89	214.62
793.21	214.60
793.54	214.44
793.86	214.46
794.18	214.48
794.50	214.43
794.82	214.37
795.14	214.35
795.47	214.43
795.79	214.42
796.11	214.31
796.43	214.34
796.75	214.38
797.07	214.42
797.39	214.33
797.71	214.03
798.04	214.07
798.36	214.07
798.68	214.05
799.00	214.00
799.32	213.76
799.64	213.91
799.96	213.92
800.28	214.01
800.60	213.96
800.92	213.91
801.24	213.78
801.56	213.86
801.89	213.76
802.21	213.67
802.53	213.62
802.85	213.69
803.17	213.85
803.49	213.70
803.81	213.68
804.13	213.67
804.45	213.65
804.77	213.70
805.09	213.60
805.41	213.57
805.73	213.53
806.05	213.36
806.37	213.31
806.69	213.20
807.01	213.18
807.33	213.18
807.65	213.10
807.97	213.30
808.28	213.23
808.60	213.22
808.92	213.20
809.24	213.38
809.56	213.31
809.88	213.18
810.20	213.21
810.52	213.20
810.84	213.17
811.16	213.21
811.48	213.16
811.80	213.38
812.12	213.37
812.43	213.43
812.75	213.55
813.07	213.54
813.39	213.59
813.71	213.50
814.03	213.41
814.35	213.39
814.67	213.29
814.98	213.23
815.30	213.24
815.62	213.19
815.94	213.03
816.26	212.98
816.58	212.84
816.89	212.84
817.21	212.70
817.53	212.66
817.85	212.52
818.17	212.41
818.48	212.20
818.80	212.27
819.12	212.17
819.44	212.11
819.76	212.05
820.07	212.04
820.39	212.02
820.71	212.09
821.03	212.14
821.34	212.07
821.66	212.13
821.98	212.20
822.30	212.21
822.61	212.35
822.93	212.39
823.25	212.43
823.57	212.40
823.88	212.51
824.20	212.50
824.52	212.61
824.83	212.67
825.15	212.58
825.47	212.55
825.79	212.52
826.10	212.56
826.42	212.54
826.74	212.53
827.05	212.50
827.37	212.50
827.69	212.43
828.00	212.44
828.32	212.42
828.64	212.33
828.95	212.45
829.27	212.44
829.58	212.45
829.90	212.47
830.22	212.51
830.53	212.39
830.85	212.38
831.17	212.35
831.48	212.29
831.80	212.35
832.11	212.30
832.43	212.31
832.75	212.23
833.06	212.42
833.38	212.35
833.69	212.36
834.01	212.35
834.32	212.37
834.64	212.34
834.96	212.40
835.27	212.40
835.59	212.29
835.90	212.09
836.22	212.02
836.53	211.95
836.85	211.95
837.16	212.39
837.48	212.40
837.79	212.45
838.11	212.42
838.42	212.48
838.74	212.50
839.05	212.47
839.37	212.45
839.68	212.25
840.00	212.28
840.31	212.32
840.63	212.25
840.94	212.22
841.26	212.19
841.57	212.14
841.88	212.19
842.20	212.18
842.51	212.15
842.83	212.19
843.14	212.50
843.46	212.46
843.77	212.23
844.08	212.23
844.40	212.13
844.71	212.20
845.03	212.14
845.34	212.18
845.65	212.20
845.97	212.27
846.28	212.24
846.60	212.23
846.91	212.15
847.22	212.16
847.54	212.20
847.85	212.22
848.16	212.17
848.48	212.09
848.79	212.20
849.10	212.28
849.42	212.33
849.73	212.01
850.04	211.98
850.36	211.81
850.67	211.86
850.98	211.89
851.30	211.92
851.61	211.90
851.92	211.87
852.23	211.92
852.55	211.87
852.86	211.90
853.17	211.89
853.49	211.95
853.80	212.05
854.11	212.08
854.42	212.15
854.74	212.12
855.05	212.14
855.36	212.02
855.67	212.02
855.99	211.95
856.30	212.31
856.61	212.35
856.92	212.37
857.23	212.32
857.55	212.25
857.86	212.22
858.17	212.21
858.48	212.10
858.79	212.03
859.11	212.13
859.42	212.12
859.73	212.12
860.04	212.23
860.35	212.11
860.66	211.98
860.98	211.92
861.29	211.96
861.60	211.94
861.91	211.98
862.22	211.89
862.53	211.77
862.84	211.37
863.16	211.40
863.47	211.40
863.78	211.40
864.09	211.40
864.40	211.42
864.71	211.45
865.02	211.49
865.33	211.49
865.64	211.37
865.95	211.32
866.27	211.50
866.58	211.35
866.89	211.39
867.20	211.39
867.51	211.31
867.82	211.24
868.13	211.29
868.44	211.23
868.75	211.34
869.06	211.40
869.37	211.48
869.68	211.38
869.99	211.51
870.30	211.51
870.61	211.63
870.92	211.54
871.23	211.54
871.54	211.65
871.85	211.64
872.16	211.60
872.47	211.58
872.78	211.38
873.09	211.45
873.40	211.41
873.71	211.49
874.02	211.50
874.33	211.54
874.64	211.53
874.95	211.54
875.26	211.45
875.56	211.47
875.87	211.43
876.18	211.44
876.49	211.67
876.80	211.60
877.11	211.48
877.42	211.57
877.73	211.61
878.04	211.56
878.35	211.60
878.66	211.71
878.96	211.75
879.27	211.77
879.58	211.79
879.89	211.77
880.20	211.88
880.51	211.92
880.82	211.92
881.12	211.91
881.43	211.88
881.74	211.85
882.05	211.89
882.36	211.94
882.67	211.99
882.97	211.64
883.28	211.70
883.59	211.66
883.90	211.69
884.21	211.72
884.51	211.67
884.82	211.68
885.13	211.66
885.44	211.65
885.74	211.64
886.05	211.61
886.36	211.62
886.67	211.50
886.98	211.69
887.28	211.75
887.59	211.80
887.90	211.84
888.20	211.82
888.51	211.79
888.82	211.72
889.13	211.80
889.43	212.06
889.74	212.02
890.05	212.09
890.35	211.99
890.66	211.90
890.97	211.86
891.28	211.81
891.58	211.80
891.89	211.82
892.20	211.86
892.50	211.80
892.81	211.86
893.12	211.80
893.42	211.63
893.73	211.68
894.04	211.60
894.34	211.58
894.65	211.68
894.95	211.67
895.26	211.70
895.57	211.79
895.87	211.48
896.18	211.56
896.48	211.54
896.79	211.62
897.10	211.70
897.40	211.74
897.71	211.75
898.01	211.74
898.32	211.77
898.63	211.72
898.93	211.69
899.24	211.62
899.54	211.67
899.85	211.60
900.15	211.55
900.46	211.59
900.76	211.61
901.07	211.50
901.38	211.55
901.68	211.58
901.99	211.47
902.29	211.54
902.60	211.55
902.90	211.54
903.21	211.42
903.51	211.33
903.82	211.40
904.12	211.45
904.43	211.45
904.73	211.44
905.03	211.46
905.34	211.80
905.64	211.78
905.95	211.77
906.25	211.78
906.56	211.73
906.86	211.70
907.17	211.65
907.47	211.68
907.77	211.58
908.08	211.51
908.38	211.48
908.69	211.45
908.99	211.48
909.30	211.56
909.60	211.57
909.90	211.68
910.21	211.57
910.51	211.50
910.81	211.52
911.12	211.43
911.42	211.34
911.73	210.99
912.03	211.01
912.33	211.08
912.64	211.07
912.94	211.04
913.24	211.02
913.55	211.06
913.85	211.06
914.15	211.16
914.46	211.20
914.76	211.15
915.06	211.11
915.37	211.01
915.67	210.89
915.97	210.94
916.27	210.82
916.58	210.82
916.88	210.76
917.18	210.64
917.49	210.91
917.79	210.97
918.09	211.01
918.39	211.12
918.70	211.07
919.00	211.07
919.30	211.27
919.60	211.27
919.91	211.21
920.21	211.15
920.51	211.01
920.81	210.93
921.12	210.96
921.42	210.98
921.72	211.02
922.02	211.07
922.32	211.07
922.63	211.08
922.93	211.25
923.23	211.26
923.53	211.36
923.83	211.12
924.13	211.18
924.44	211.18
924.74	211.21
925.04	211.32
925.34	211.24
925.64	211.07
925.94	211.07
926.24	211.23
926.55	211.26
926.85	211.38
927.15	211.47
927.45	211.52
927.75	211.55
928.05	211.58
928.35	211.57
928.65	211.67
928.95	211.68
929.26	211.59
929.56	211.65
929.86	211.70
930.16	211.71
930.46	211.70
930.76	211.77
931.06	211.58
931.36	211.48
931.66	211.56
931.96	211.63
932.26	211.67
932.56	211.59
932.86	211.63
933.16	211.63
933.46	211.55
933.76	211.50
934.06	211.59
934.36	211.71
934.66	211.69
934.96	211.68
935.26	211.73
935.56	211.76
935.86	211.70
936.16	211.58
936.46	211.60
936.76	211.50
937.06	211.49
937.36	211.58
937.66	211.58
937.96	211.64
938.26	211.49
938.56	211.48
938.86	211.46
939.16	211.51
939.46	211.50
939.76	211.53
940.06	211.55
940.35	211.43
940.65	211.25
940.95	211.30
941.25	211.16
941.55	211.11
941.85	211.05
942.15	211.06
942.45	211.16
942.75	211.11
943.04	211.23
943.34	211.23
943.64	211.22
943.94	211.15
944.24	211.08
944.54	211.19
944.84	211.12
945.13	211.09
945.43	211.05
945.73	211.03
946.03	211.06
946.33	210.97
946.62	210.93
946.92	210.88
947.22	210.85
947.52	210.90
947.82	210.91
948.11	210.85
948.41	210.84
948.71	210.72
949.01	210.76
949.31	210.72
949.60	210.62
949.90	210.63
950.20	210.61
950.50	210.70
950.79	210.62
951.09	210.66
951.39	210.64
951.69	210.61
951.98	210.68
952.28	210.65
952.58	210.67
952.87	210.72
953.17	210.83
953.47	210.74
953.76	210.76
954.06	210.75
954.36	210.77
954.66	210.76
954.95	210.95
955.25	210.95
955.55	210.86
955.84	210.85
956.14	210.85
956.44	210.91
956.73	210.75
957.03	210.72
957.32	210.75
957.62	210.73
957.92	210.79
958.21	210.75
958.51	211.11
958.81	211.13
959.10	211.08
959.40	211.11
959.69	211.21
959.99	211.22
960.29	211.18
960.58	211.15
960.88	211.34
961.17	211.19
961.47	211.27
961.76	211.29
962.06	211.34
962.36	211.33
962.65	211.37
962.95	211.41
963.24	211.48
963.54	211.49
963.83	211.52
964.13	211.47
964.42	211.41
964.72	211.15
965.01	211.15
965.31	211.20
965.60	211.09
965.90	211.25
966.19	211.17
966.49	211.24
966.78	211.25
967.08	211.20
967.37	211.30
967.67	211.17
967.96	211.19
968.26	211.20
968.55	211.21
968.85	211.20
969.14	211.19
969.43	211.19
969.73	211.09
970.02	211.15
970.32	211.15
970.61	211.19
970.91	211.10
971.20	211.01
971.49	210.91
971.79	211.06
972.08	210.84
972.38	210.89
972.67	210.85
972.96	210.86
973.26	210.78
973.55	210.85
973.85	210.90
974.14	210.95
974.43	211.05
974.73	211.00
975.02	210.96
975.31	211.04
975.61	210.97
975.90	210.97
976.19	210.94
976.49	210.98
976.78	210.94
977.07	210.93
977.37	211.07
977.66	211.15
977.95	211.05
978.24	211.11
978.54	211.16
978.83	211.12
979.12	211.16
979.42	211.17
979.71	211.03
980.00	210.96
980.29	210.93
980.59	210.83
980.88	211.00
981.17	210.97
981.46	211.00
981.76	211.06
982.05	211.18
982.34	211.11
982.63	211.10
982.93	211.12
983.22	211.24
983.51	211.20
983.80	211.28
984.09	211.35
984.39	211.28
984.68	211.23
984.97	211.24
985.26	211.20
985.55	211.25
985.85	211.27
986.14	211.39
986.43	211.48
986.72	211.40
987.01	211.18
987.30	211.22
987.59	211.11
987.89	211.07
988.18	210.93
988.47	210.99
988.76	210.95
989.05	210.83
989.34	210.75
989.63	210.86
989.92	210.79
990.22	210.70
990.51	210.75
990.80	210.74
991.09	210.82
991.38	210.90
991.67	210.78
991.96	210.70
992.25	210.62
992.54	210.48
992.83	210.50
993.12	210.53
993.41	210.60
993.70	210.75
993.99	210.87
994.28	210.98
994.58	211.05
994.87	211.04
995.16	211.08
995.45	211.03
995.74	210.79
996.03	210.75
996.32	210.81
996.61	210.82
996.90	210.80
997.19	210.79
997.48	210.66
997.77	210.72
998.06	210.78
998.34	210.81
998.63	210.84
998.92	210.88
999.21	210.93
999.50	210.89
999.79	210.80
1000.08	210.77
1000.37	210.75
1000.66	210.58
1000.95	210.67
1001.24	210.76
1001.53	210.81
1001.82	210.90
1002.11	210.85
1002.40	210.84
1002.68	211.01
1002.97	211.25
1003.26	211.22
1003.55	211.16
1003.84	211.11
1004.13	211.22
1004.42	211.16
1004.71	211.14
1004.99	211.15
1005.28	211.22
1005.57	211.23
1005.86	211.16
1006.15	211.11
1006.44	211.04
1006.72	211.15
1007.01	211.08
1007.30	211.05
1007.59	210.97
1007.88	210.96
1008.17	211.02
1008.45	210.96
1008.74	210.74
1009.03	210.58
1009.32	210.57
1009.60	210.62
1009.89	210.56
1010.18	210.35
1010.47	210.34
1010.76	210.44
1011.04	210.36
1011.33	210.70
1011.62	210.68
1011.91	210.72
1012.19	210.74
1012.48	210.79
1012.77	210.85
1013.05	211.04
1013.34	211.01
1013.63	211.03
1013.92	211.06
1014.20	211.06
1014.49	211.03
1014.78	211.07
1015.06	210.91
1015.35	210.90
1015.64	210.98
1015.92	211.09
1016.21	211.20
1016.50	211.24
1016.78	211.21
1017.07	211.25
1017.36	210.85
1017.64	210.81
1017.93	210.77
1018.22	210.76
1018.50	210.80
1018.79	210.77
1019.08	210.57
1019.36	210.63
1019.65	210.70
1019.93	210.77
1020.22	210.87
1020.51	211.11
1020.79	211.11
1021.08	210.80
1021.36	211.05
1021.65	211.80
1021.94	210.75
1022.22	211.45
1022.51	211.55
1022.79	212.05
1023.08	212.40
1023.36	215.40
1023.65	210.80
>>>>>End Processed Spectral Data<<<<<
