SpectraSuite Data File
++++++++++++++++++++++++++++++++++++
Date: Mon Feb 25 17:11:47 EST 2013
User: group
Dark Spectrum Present: No
Reference Spectrum Present: No
Number of Sampled Component Spectra: 1
Spectrometers: USB2E7196
Integration Time (usec): 104000 (USB2E7196)
Spectra Averaged: 20 (USB2E7196)
Boxcar Smoothing: 10 (USB2E7196)
Correct for Electrical Dark: No (USB2E7196)
Strobe/Lamp Enabled: No (USB2E7196)
Correct for Detector Non-linearity: No (USB2E7196)
Correct for Stray Light: No (USB2E7196)
Number of Pixels in Processed Spectrum: 2048
>>>>>Begin Processed Spectral Data<<<<<
339.09	0.00
339.48	198.40
339.86	199.75
340.24	202.10
340.63	203.55
341.01	208.75
341.39	205.30
341.78	207.60
342.16	209.00
342.54	207.55
342.93	198.14
343.31	208.13
343.69	208.65
344.07	209.21
344.46	209.58
344.84	209.89
345.22	209.95
345.60	210.21
345.99	210.31
346.37	210.38
346.75	210.54
347.13	210.62
347.52	210.63
347.90	210.77
348.28	210.73
348.66	210.80
349.05	210.71
349.43	210.70
349.81	210.71
350.19	210.73
350.57	210.89
350.96	211.00
351.34	211.08
351.72	211.10
352.10	211.05
352.48	211.11
352.87	211.21
353.25	211.27
353.63	211.27
354.01	211.29
354.39	211.35
354.77	211.38
355.15	211.55
355.54	211.65
355.92	211.55
356.30	211.66
356.68	211.93
357.06	212.01
357.44	212.03
357.82	212.17
358.20	212.31
358.58	212.31
358.97	212.32
359.35	212.45
359.73	212.65
360.11	212.74
360.49	212.80
360.87	212.81
361.25	212.94
361.63	213.18
362.01	213.29
362.39	213.27
362.77	213.37
363.15	213.31
363.53	213.28
363.91	213.43
364.29	213.48
364.67	213.17
365.05	213.20
365.43	213.27
365.81	213.27
366.19	213.33
366.57	213.47
366.95	213.50
367.33	213.42
367.71	213.44
368.09	213.53
368.47	213.54
368.85	213.52
369.23	213.55
369.61	213.28
369.99	213.39
370.37	213.50
370.75	213.61
371.13	213.50
371.51	213.46
371.89	213.37
372.27	213.32
372.65	213.26
373.03	213.20
373.41	213.13
373.78	213.02
374.16	212.86
374.54	212.68
374.92	212.57
375.30	212.53
375.68	212.37
376.06	212.35
376.44	212.30
376.82	212.26
377.19	212.21
377.57	212.25
377.95	212.06
378.33	211.92
378.71	211.72
379.09	211.84
379.47	211.81
379.84	211.70
380.22	211.65
380.60	211.55
380.98	211.54
381.36	211.45
381.73	211.34
382.11	211.38
382.49	211.38
382.87	211.36
383.25	211.26
383.62	211.67
384.00	211.52
384.38	211.50
384.76	211.56
385.13	211.63
385.51	211.58
385.89	211.58
386.27	211.66
386.64	211.62
387.02	211.50
387.40	211.49
387.78	211.54
388.15	211.51
388.53	211.46
388.91	211.51
389.29	211.53
389.66	211.60
390.04	211.55
390.42	211.55
390.79	211.46
391.17	211.52
391.55	211.11
391.92	211.07
392.30	211.09
392.68	210.96
393.05	210.86
393.43	210.84
393.81	210.77
394.18	210.66
394.56	210.62
394.94	210.66
395.31	210.54
395.69	210.66
396.06	210.68
396.44	210.83
396.82	210.73
397.19	210.90
397.57	210.88
397.95	210.95
398.32	210.83
398.70	210.95
399.07	210.97
399.45	210.94
399.82	210.95
400.20	210.85
400.58	210.93
400.95	210.79
401.33	210.95
401.70	211.27
402.08	211.22
402.45	211.34
402.83	211.49
403.20	211.69
403.58	211.63
403.95	211.76
404.33	211.85
404.71	211.97
405.08	212.22
405.46	212.31
405.83	212.35
406.21	212.51
406.58	212.70
406.96	212.80
407.33	212.96
407.70	213.12
408.08	213.54
408.45	213.73
408.83	214.01
409.20	214.05
409.58	213.94
409.95	214.26
410.33	214.41
410.70	214.52
411.08	214.76
411.45	215.07
411.82	215.25
412.20	215.58
412.57	215.99
412.95	215.92
413.32	216.35
413.69	216.67
414.07	217.01
414.44	217.30
414.82	217.72
415.19	218.27
415.56	218.84
415.94	219.23
416.31	219.86
416.68	220.44
417.06	221.21
417.43	222.10
417.81	222.93
418.18	223.73
418.55	224.58
418.93	225.44
419.30	226.36
419.67	227.33
420.04	228.26
420.42	229.17
420.79	230.63
421.16	231.83
421.54	233.26
421.91	234.62
422.28	236.04
422.66	237.48
423.03	239.11
423.40	240.56
423.77	242.17
424.15	243.73
424.52	245.43
424.89	247.21
425.26	248.87
425.64	250.43
426.01	252.28
426.38	254.11
426.75	256.14
427.13	258.08
427.50	260.19
427.87	262.32
428.24	264.54
428.61	266.48
428.99	268.80
429.36	271.07
429.73	273.52
430.10	275.99
430.47	278.53
430.85	280.88
431.22	283.60
431.59	286.72
431.96	289.48
432.33	292.54
432.70	295.55
433.08	299.04
433.45	302.38
433.82	305.68
434.19	309.51
434.56	313.14
434.93	316.64
435.30	320.08
435.68	323.94
436.05	327.59
436.42	331.25
436.79	334.71
437.16	338.40
437.53	342.22
437.90	346.05
438.27	349.93
438.64	353.86
439.01	357.46
439.38	360.44
439.75	363.54
440.13	367.03
440.50	370.31
440.87	373.05
441.24	375.88
441.61	378.99
441.98	381.11
442.35	383.58
442.72	386.31
443.09	388.99
443.46	390.41
443.83	391.55
444.20	392.62
444.57	393.90
444.94	394.62
445.31	395.35
445.68	396.24
446.05	396.32
446.42	395.94
446.79	395.61
447.16	395.05
447.53	394.70
447.90	393.27
448.27	391.84
448.64	389.72
449.01	388.28
449.37	385.72
449.74	383.26
450.11	380.74
450.48	377.51
450.85	374.14
451.22	371.45
451.59	368.90
451.96	366.23
452.33	362.84
452.70	359.75
453.07	356.05
453.43	352.06
453.80	348.62
454.17	345.23
454.54	341.91
454.91	338.50
455.28	335.16
455.65	332.01
456.02	329.36
456.38	326.78
456.75	323.45
457.12	320.69
457.49	318.01
457.86	314.96
458.23	312.73
458.59	310.20
458.96	307.70
459.33	305.39
459.70	303.23
460.07	301.35
460.43	299.25
460.80	297.33
461.17	295.75
461.54	293.97
461.91	292.24
462.27	290.45
462.64	288.99
463.01	287.39
463.38	286.02
463.74	283.97
464.11	282.57
464.48	281.33
464.85	280.03
465.21	279.06
465.58	278.05
465.95	276.70
466.32	275.64
466.68	274.56
467.05	273.55
467.42	272.40
467.78	271.38
468.15	270.36
468.52	269.62
468.88	268.51
469.25	267.59
469.62	266.99
469.98	266.28
470.35	265.52
470.72	264.80
471.08	263.94
471.45	263.38
471.82	262.85
472.18	262.34
472.55	261.97
472.92	261.34
473.28	260.87
473.65	260.32
474.02	259.89
474.38	259.54
474.75	259.21
475.11	258.87
475.48	258.65
475.85	258.45
476.21	258.22
476.58	258.05
476.94	257.89
477.31	257.62
477.67	257.54
478.04	257.51
478.41	257.51
478.77	257.84
479.14	257.75
479.50	257.80
479.87	257.85
480.23	257.86
480.60	257.94
480.96	258.06
481.33	258.47
481.69	258.74
482.06	259.02
482.42	259.29
482.79	259.66
483.15	259.96
483.52	260.44
483.88	260.78
484.25	261.14
484.61	261.55
484.98	262.06
485.34	262.69
485.71	263.34
486.07	263.97
486.44	264.23
486.80	264.97
487.17	265.67
487.53	266.60
487.90	267.50
488.26	268.62
488.62	269.66
488.99	270.61
489.35	271.61
489.72	272.59
490.08	273.65
490.44	274.87
490.81	276.19
491.17	277.40
491.54	278.85
491.90	280.35
492.26	281.97
492.63	283.56
492.99	285.14
493.36	286.87
493.72	288.84
494.08	290.92
494.45	293.02
494.81	295.15
495.17	297.26
495.54	299.53
495.90	301.85
496.26	304.37
496.63	306.97
496.99	309.72
497.35	312.80
497.72	315.76
498.08	318.75
498.44	321.86
498.80	325.26
499.17	328.76
499.53	332.33
499.89	336.02
500.26	339.77
500.62	343.62
500.98	347.75
501.34	351.86
501.71	356.26
502.07	360.60
502.43	365.08
502.79	369.56
503.16	374.43
503.52	379.27
503.88	384.10
504.24	389.16
504.60	394.35
504.97	399.64
505.33	405.28
505.69	411.20
506.05	417.16
506.41	422.96
506.78	428.86
507.14	435.03
507.50	441.33
507.86	448.00
508.22	454.63
508.59	461.19
508.95	467.99
509.31	474.89
509.67	482.04
510.03	489.27
510.39	496.81
510.75	504.37
511.12	512.05
511.48	519.90
511.84	527.85
512.20	535.74
512.56	543.88
512.92	552.18
513.28	560.58
513.64	568.79
514.00	577.32
514.37	586.03
514.73	594.81
515.09	603.63
515.45	612.35
515.81	621.37
516.17	630.16
516.53	639.26
516.89	648.26
517.25	657.48
517.61	666.96
517.97	676.22
518.33	685.48
518.69	694.74
519.05	704.36
519.41	713.96
519.77	724.03
520.13	733.64
520.49	743.05
520.85	752.54
521.21	762.59
521.57	772.53
521.93	782.10
522.29	791.89
522.65	801.61
523.01	811.38
523.37	821.03
523.73	831.14
524.09	841.10
524.45	850.98
524.81	860.78
525.17	870.66
525.53	880.73
525.89	890.70
526.25	900.60
526.61	909.88
526.97	919.54
527.33	929.20
527.68	939.19
528.04	948.89
528.40	958.32
528.76	967.60
529.12	977.21
529.48	987.28
529.84	996.83
530.20	1006.36
530.56	1016.12
530.91	1025.98
531.27	1035.68
531.63	1044.93
531.99	1054.24
532.35	1063.32
532.71	1072.24
533.07	1081.42
533.42	1090.60
533.78	1099.67
534.14	1108.83
534.50	1117.14
534.86	1125.49
535.21	1133.36
535.57	1142.09
535.93	1150.19
536.29	1158.42
536.65	1166.47
537.00	1173.80
537.36	1181.24
537.72	1188.69
538.08	1196.05
538.44	1203.03
538.79	1210.17
539.15	1217.36
539.51	1224.53
539.87	1231.85
540.22	1238.52
540.58	1245.41
540.94	1251.85
541.29	1257.84
541.65	1263.96
542.01	1270.25
542.37	1276.30
542.72	1282.49
543.08	1287.69
543.44	1293.79
543.79	1299.05
544.15	1304.13
544.51	1309.51
544.87	1315.21
545.22	1319.96
545.58	1324.30
545.94	1328.71
546.29	1332.64
546.65	1336.34
547.01	1340.20
547.36	1343.75
547.72	1347.61
548.07	1350.51
548.43	1353.31
548.79	1356.18
549.14	1358.96
549.50	1361.79
549.86	1364.18
550.21	1366.35
550.57	1369.23
550.92	1370.97
551.28	1372.81
551.64	1374.71
551.99	1376.57
552.35	1377.79
552.70	1379.66
553.06	1381.28
553.41	1382.72
553.77	1384.07
554.13	1385.41
554.48	1386.67
554.84	1388.09
555.19	1388.77
555.55	1389.48
555.90	1389.90
556.26	1390.59
556.61	1390.97
556.97	1391.12
557.32	1391.49
557.68	1391.51
558.03	1391.04
558.39	1390.84
558.74	1391.30
559.10	1391.32
559.45	1391.30
559.81	1391.53
560.16	1391.01
560.52	1390.70
560.87	1390.37
561.23	1389.70
561.58	1389.71
561.94	1388.67
562.29	1387.14
562.64	1386.53
563.00	1385.77
563.35	1385.75
563.71	1385.57
564.06	1384.74
564.42	1384.31
564.77	1383.76
565.12	1383.42
565.48	1382.68
565.83	1382.16
566.19	1381.25
566.54	1379.99
566.89	1378.80
567.25	1377.48
567.60	1376.29
567.96	1375.27
568.31	1374.00
568.66	1372.62
569.02	1370.39
569.37	1368.44
569.72	1367.14
570.08	1365.24
570.43	1363.10
570.78	1360.45
571.14	1357.59
571.49	1355.39
571.84	1352.99
572.20	1350.27
572.55	1347.56
572.90	1344.73
573.26	1341.64
573.61	1338.49
573.96	1335.51
574.31	1331.69
574.67	1328.13
575.02	1324.58
575.37	1320.67
575.72	1316.73
576.08	1313.69
576.43	1310.24
576.78	1307.05
577.13	1303.75
577.49	1300.29
577.84	1297.13
578.19	1294.14
578.54	1291.42
578.90	1288.45
579.25	1284.89
579.60	1281.07
579.95	1277.05
580.30	1273.86
580.66	1270.91
581.01	1267.23
581.36	1263.73
581.71	1260.69
582.06	1257.29
582.42	1253.98
582.77	1250.52
583.12	1247.22
583.47	1243.58
583.82	1240.41
584.17	1236.88
584.53	1233.48
584.88	1229.95
585.23	1226.37
585.58	1222.67
585.93	1218.86
586.28	1215.52
586.63	1212.07
586.98	1208.64
587.34	1205.86
587.69	1202.33
588.04	1198.78
588.39	1195.63
588.74	1191.84
589.09	1188.65
589.44	1184.77
589.79	1181.44
590.14	1178.24
590.49	1174.69
590.84	1171.25
591.19	1168.21
591.54	1164.83
591.89	1160.47
592.25	1157.12
592.60	1153.16
592.95	1149.38
593.30	1145.34
593.65	1141.07
594.00	1137.22
594.35	1134.85
594.70	1131.06
595.05	1127.44
595.40	1123.59
595.75	1119.31
596.10	1116.07
596.45	1112.43
596.80	1109.49
597.15	1106.20
597.50	1102.44
597.85	1099.18
598.19	1095.33
598.54	1091.43
598.89	1088.14
599.24	1085.61
599.59	1082.21
599.94	1079.54
600.29	1076.40
600.64	1073.28
600.99	1069.92
601.34	1066.99
601.69	1062.58
602.04	1058.90
602.39	1055.50
602.74	1052.46
603.08	1050.05
603.43	1047.32
603.78	1044.11
604.13	1040.77
604.48	1037.44
604.83	1034.81
605.18	1031.94
605.53	1028.84
605.87	1025.63
606.22	1022.32
606.57	1018.95
606.92	1015.54
607.27	1011.91
607.62	1008.73
607.96	1005.76
608.31	1002.87
608.66	999.21
609.01	995.88
609.36	992.36
609.70	988.66
610.05	984.78
610.40	981.05
610.75	977.05
611.10	973.59
611.44	969.35
611.79	965.37
612.14	960.93
612.49	956.48
612.83	952.50
613.18	948.25
613.53	944.29
613.88	939.57
614.22	935.64
614.57	931.41
614.92	927.05
615.27	922.54
615.61	918.27
615.96	914.40
616.31	910.34
616.65	906.73
617.00	902.89
617.35	898.96
617.70	894.73
618.04	890.22
618.39	885.56
618.74	881.87
619.08	877.75
619.43	873.82
619.78	869.85
620.12	865.70
620.47	861.94
620.82	857.57
621.16	853.51
621.51	849.22
621.85	845.32
622.20	841.07
622.55	836.98
622.89	832.96
623.24	828.67
623.59	824.46
623.93	820.60
624.28	816.72
624.62	812.88
624.97	809.06
625.32	805.35
625.66	801.75
626.01	797.79
626.35	794.00
626.70	790.27
627.04	786.81
627.39	783.37
627.73	779.59
628.08	776.20
628.43	772.57
628.77	768.79
629.12	764.89
629.46	761.85
629.81	758.32
630.15	754.50
630.50	750.92
630.84	747.08
631.19	743.27
631.53	739.77
631.88	735.82
632.22	731.77
632.57	728.41
632.91	724.71
633.26	721.18
633.60	717.70
633.95	714.16
634.29	710.35
634.64	706.87
634.98	703.18
635.32	699.62
635.67	696.56
636.01	693.22
636.36	689.91
636.70	686.19
637.05	683.00
637.39	679.73
637.73	676.62
638.08	673.92
638.42	670.85
638.77	667.46
639.11	664.27
639.45	661.11
639.80	657.55
640.14	654.22
640.49	650.90
640.83	647.66
641.17	644.39
641.52	641.23
641.86	637.88
642.20	634.62
642.55	631.10
642.89	627.61
643.23	624.39
643.58	621.44
643.92	618.04
644.26	614.62
644.61	611.48
644.95	608.04
645.29	604.65
645.64	601.32
645.98	598.01
646.32	595.09
646.66	591.99
647.01	588.96
647.35	586.02
647.69	582.74
648.04	579.64
648.38	576.51
648.72	573.39
649.06	570.21
649.41	567.03
649.75	564.13
650.09	561.14
650.43	558.02
650.78	554.62
651.12	551.61
651.46	548.58
651.80	545.59
652.14	542.69
652.49	539.69
652.83	536.66
653.17	533.49
653.51	530.40
653.85	527.57
654.20	524.69
654.54	521.67
654.88	518.85
655.22	515.94
655.56	512.96
655.90	510.00
656.25	507.05
656.59	504.27
656.93	501.45
657.27	498.80
657.61	495.94
657.95	493.34
658.29	490.66
658.64	488.11
658.98	485.25
659.32	482.40
659.66	479.74
660.00	476.94
660.34	474.29
660.68	471.51
661.02	468.71
661.36	466.00
661.70	463.38
662.05	460.82
662.39	458.32
662.73	456.04
663.07	453.77
663.41	451.43
663.75	448.95
664.09	446.42
664.43	443.75
664.77	441.48
665.11	438.98
665.45	436.56
665.79	434.14
666.13	431.90
666.47	429.64
666.81	427.32
667.15	425.10
667.49	423.11
667.83	421.12
668.17	419.04
668.51	416.99
668.85	414.94
669.19	413.05
669.53	410.95
669.87	408.75
670.21	406.73
670.55	404.75
670.89	403.18
671.23	401.33
671.57	399.56
671.91	397.62
672.25	395.69
672.58	394.01
672.92	392.16
673.26	390.48
673.60	388.73
673.94	386.97
674.28	385.33
674.62	383.70
674.96	381.92
675.30	380.30
675.64	378.55
675.97	376.96
676.31	375.28
676.65	373.63
676.99	372.25
677.33	370.70
677.67	369.17
678.01	367.27
678.34	365.89
678.68	364.43
679.02	362.92
679.36	361.57
679.70	360.05
680.04	358.65
680.37	357.10
680.71	355.65
681.05	354.33
681.39	352.83
681.73	351.35
682.06	350.03
682.40	348.69
682.74	347.39
683.08	345.93
683.42	344.43
683.75	343.12
684.09	341.56
684.43	340.05
684.77	338.56
685.10	337.25
685.44	335.73
685.78	334.29
686.12	333.09
686.45	331.79
686.79	330.51
687.13	329.31
687.46	328.13
687.80	326.91
688.14	325.57
688.48	324.32
688.81	323.07
689.15	321.87
689.49	320.54
689.82	319.36
690.16	318.03
690.50	316.79
690.83	315.47
691.17	314.26
691.51	313.15
691.84	312.09
692.18	311.06
692.52	310.07
692.85	309.12
693.19	308.02
693.52	306.91
693.86	305.72
694.20	304.60
694.53	303.46
694.87	302.41
695.21	301.39
695.54	300.40
695.88	299.26
696.21	298.10
696.55	297.18
696.88	296.16
697.22	295.20
697.56	294.44
697.89	293.60
698.23	292.72
698.56	291.75
698.90	290.82
699.23	289.78
699.57	288.83
699.90	287.70
700.24	286.72
700.58	285.79
700.91	285.10
701.25	284.45
701.58	283.75
701.92	282.98
702.25	282.08
702.59	281.25
702.92	280.51
703.26	279.79
703.59	279.06
703.93	278.59
704.26	277.89
704.60	277.10
704.93	276.32
705.26	275.51
705.60	274.91
705.93	274.11
706.27	273.55
706.60	272.90
706.94	272.51
707.27	271.80
707.61	271.21
707.94	270.43
708.27	269.52
708.61	268.73
708.94	267.94
709.28	267.31
709.61	266.66
709.94	266.04
710.28	265.38
710.61	264.74
710.95	263.81
711.28	263.44
711.61	262.84
711.95	262.32
712.28	261.78
712.61	261.18
712.95	260.83
713.28	260.46
713.61	259.91
713.95	259.22
714.28	258.77
714.61	258.24
714.95	257.69
715.28	257.10
715.61	256.55
715.95	256.16
716.28	255.65
716.61	255.26
716.95	254.77
717.28	254.32
717.61	253.85
717.94	253.36
718.28	252.60
718.61	252.10
718.94	251.58
719.27	251.07
719.61	250.62
719.94	250.08
720.27	249.43
720.60	248.95
720.94	248.59
721.27	248.21
721.60	247.77
721.93	247.43
722.27	247.22
722.60	246.91
722.93	246.48
723.26	246.15
723.59	245.65
723.93	245.30
724.26	244.98
724.59	244.60
724.92	244.30
725.25	244.15
725.59	243.80
725.92	243.50
726.25	243.24
726.58	242.88
726.91	242.61
727.24	242.38
727.57	242.07
727.91	241.66
728.24	241.37
728.57	241.06
728.90	240.82
729.23	240.39
729.56	240.28
729.89	239.97
730.22	239.60
730.55	239.30
730.89	239.03
731.22	238.72
731.55	238.40
731.88	238.10
732.21	237.68
732.54	237.37
732.87	237.08
733.20	236.75
733.53	236.51
733.86	236.21
734.19	235.85
734.52	235.61
734.85	235.64
735.18	235.28
735.51	235.11
735.84	234.80
736.17	234.65
736.50	234.16
736.83	234.37
737.16	234.21
737.49	234.01
737.82	233.74
738.15	233.56
738.48	233.30
738.81	233.08
739.14	232.84
739.47	232.58
739.80	232.35
740.13	232.20
740.46	231.94
740.79	231.70
741.12	231.49
741.45	231.24
741.78	230.81
742.11	230.74
742.44	230.45
742.77	230.34
743.10	230.03
743.43	229.75
743.75	229.21
744.08	229.43
744.41	229.21
744.74	228.94
745.07	228.66
745.40	228.58
745.73	228.51
746.06	228.35
746.39	228.27
746.71	228.04
747.04	227.85
747.37	227.63
747.70	227.49
748.03	227.26
748.36	227.19
748.68	227.02
749.01	226.68
749.34	226.57
749.67	226.42
750.00	226.35
750.33	226.50
750.65	226.35
750.98	225.71
751.31	225.56
751.64	225.46
751.97	225.45
752.29	225.23
752.62	224.96
752.95	224.75
753.28	224.55
753.60	224.45
753.93	224.35
754.26	224.25
754.59	224.02
754.91	223.93
755.24	223.72
755.57	223.53
755.90	223.46
756.22	223.23
756.55	223.02
756.88	222.88
757.20	222.50
757.53	222.24
757.86	222.10
758.19	222.02
758.51	221.91
758.84	221.68
759.17	221.54
759.49	221.35
759.82	221.43
760.15	221.35
760.47	221.21
760.80	220.99
761.13	220.90
761.45	220.78
761.78	220.66
762.11	220.59
762.43	220.43
762.76	220.26
763.08	220.23
763.41	220.15
763.74	219.98
764.06	219.93
764.39	219.87
764.71	219.86
765.04	219.76
765.37	219.64
765.69	219.53
766.02	219.46
766.34	219.44
766.67	219.27
767.00	219.22
767.32	219.29
767.65	219.40
767.97	219.29
768.30	219.27
768.62	219.11
768.95	218.87
769.27	218.89
769.60	218.87
769.92	218.70
770.25	218.58
770.57	218.48
770.90	218.35
771.22	218.25
771.55	218.14
771.87	218.05
772.20	217.98
772.52	218.18
772.85	218.49
773.17	218.42
773.50	218.33
773.82	218.20
774.15	217.99
774.47	217.75
774.80	217.67
775.12	217.61
775.45	217.61
775.77	217.63
776.09	217.52
776.42	217.46
776.74	217.55
777.07	217.50
777.39	217.45
777.72	217.40
778.04	217.40
778.36	217.31
778.69	217.25
779.01	217.15
779.33	216.95
779.66	216.56
779.98	216.48
780.31	216.40
780.63	216.57
780.95	216.59
781.28	216.51
781.60	216.49
781.92	216.42
782.25	216.39
782.57	216.38
782.89	216.28
783.22	216.28
783.54	216.16
783.86	216.15
784.19	216.09
784.51	216.17
784.83	216.06
785.16	215.99
785.48	215.96
785.80	215.96
786.12	215.84
786.45	215.75
786.77	215.80
787.09	215.77
787.42	215.55
787.74	215.51
788.06	215.58
788.38	215.53
788.71	215.44
789.03	215.42
789.35	215.44
789.67	215.37
789.99	215.31
790.32	215.25
790.64	215.24
790.96	215.52
791.28	215.35
791.61	215.27
791.93	215.34
792.25	215.29
792.57	215.50
792.89	215.43
793.21	215.39
793.54	215.20
793.86	215.17
794.18	215.03
794.50	214.95
794.82	214.85
795.14	214.83
795.47	214.86
795.79	214.76
796.11	214.62
796.43	214.67
796.75	214.59
797.07	214.58
797.39	214.51
797.71	214.25
798.04	214.20
798.36	214.20
798.68	214.12
799.00	214.10
799.32	213.86
799.64	213.85
799.96	213.88
800.28	213.93
800.60	213.85
800.92	213.96
801.24	213.91
801.56	213.96
801.89	213.86
802.21	213.79
802.53	213.78
802.85	213.80
803.17	213.97
803.49	213.93
803.81	213.89
804.13	213.84
804.45	213.75
804.77	213.81
805.09	213.81
805.41	213.71
805.73	213.67
806.05	213.57
806.37	213.52
806.69	213.50
807.01	213.47
807.33	213.51
807.65	213.36
807.97	213.42
808.28	213.32
808.60	213.30
808.92	213.25
809.24	213.45
809.56	213.38
809.88	213.15
810.20	213.10
810.52	213.10
810.84	213.00
811.16	212.94
811.48	212.93
811.80	213.00
812.12	213.05
812.43	213.05
812.75	213.05
813.07	212.99
813.39	212.88
813.71	212.78
814.03	212.79
814.35	212.83
814.67	212.79
814.98	212.74
815.30	212.77
815.62	212.76
815.94	212.54
816.26	212.53
816.58	212.49
816.89	212.53
817.21	212.45
817.53	212.53
817.85	212.50
818.17	212.46
818.48	212.37
818.80	212.38
819.12	212.32
819.44	212.25
819.76	212.23
820.07	212.25
820.39	212.30
820.71	212.26
821.03	212.23
821.34	212.13
821.66	212.15
821.98	212.12
822.30	212.03
822.61	212.20
822.93	212.20
823.25	212.14
823.57	212.12
823.88	212.19
824.20	212.18
824.52	212.25
824.83	212.23
825.15	212.12
825.47	212.14
825.79	212.07
826.10	212.07
826.42	212.00
826.74	212.10
827.05	212.10
827.37	211.98
827.69	211.93
828.00	211.98
828.32	212.01
828.64	212.08
828.95	212.35
829.27	212.24
829.58	212.18
829.90	212.29
830.22	212.34
830.53	212.30
830.85	212.27
831.17	212.18
831.48	212.18
831.80	212.15
832.11	212.06
832.43	212.15
832.75	212.12
833.06	212.35
833.38	212.21
833.69	212.19
834.01	212.28
834.32	212.25
834.64	212.21
834.96	212.18
835.27	212.11
835.59	211.94
835.90	211.82
836.22	211.86
836.53	211.77
836.85	211.73
837.16	212.06
837.48	212.05
837.79	212.21
838.11	212.17
838.42	212.24
838.74	212.21
839.05	212.13
839.37	212.10
839.68	211.93
840.00	211.89
840.31	211.88
840.63	211.84
840.94	211.84
841.26	211.79
841.57	211.78
841.88	211.76
842.20	211.68
842.51	211.71
842.83	211.73
843.14	212.02
843.46	211.94
843.77	211.79
844.08	211.70
844.40	211.57
844.71	211.45
845.03	211.43
845.34	211.46
845.65	211.44
845.97	211.53
846.28	211.50
846.60	211.60
846.91	211.53
847.22	211.47
847.54	211.52
847.85	211.52
848.16	211.40
848.48	211.41
848.79	211.50
849.10	211.54
849.42	211.59
849.73	211.28
850.04	211.27
850.36	211.06
850.67	211.20
850.98	211.20
851.30	211.33
851.61	211.30
851.92	211.31
852.23	211.42
852.55	211.46
852.86	211.46
853.17	211.45
853.49	211.56
853.80	211.67
854.11	211.79
854.42	211.84
854.74	211.88
855.05	211.78
855.36	211.72
855.67	211.70
855.99	211.66
856.30	212.05
856.61	212.04
856.92	212.10
857.23	212.02
857.55	211.96
857.86	211.95
858.17	211.91
858.48	211.85
858.79	211.79
859.11	211.83
859.42	211.85
859.73	211.76
860.04	211.79
860.35	211.71
860.66	211.55
860.98	211.52
861.29	211.60
861.60	211.65
861.91	211.75
862.22	211.70
862.53	211.59
862.84	211.12
863.16	211.22
863.47	211.20
863.78	211.20
864.09	211.30
864.40	211.32
864.71	211.34
865.02	211.38
865.33	211.37
865.64	211.19
865.95	211.18
866.27	211.41
866.58	211.30
866.89	211.26
867.20	211.26
867.51	211.24
867.82	211.18
868.13	211.30
868.44	211.19
868.75	211.26
869.06	211.28
869.37	211.42
869.68	211.28
869.99	211.31
870.30	211.30
870.61	211.31
870.92	211.25
871.23	211.30
871.54	211.35
871.85	211.38
872.16	211.39
872.47	211.34
872.78	211.14
873.09	211.18
873.40	211.20
873.71	211.27
874.02	211.22
874.33	211.16
874.64	211.05
874.95	211.10
875.26	211.02
875.56	211.05
875.87	210.99
876.18	211.08
876.49	211.39
876.80	211.36
877.11	211.25
877.42	211.28
877.73	211.30
878.04	211.25
878.35	211.27
878.66	211.40
878.96	211.50
879.27	211.50
879.58	211.50
879.89	211.49
880.20	211.52
880.51	211.59
880.82	211.65
881.12	211.70
881.43	211.63
881.74	211.62
882.05	211.62
882.36	211.59
882.67	211.60
882.97	211.25
883.28	211.28
883.59	211.30
883.90	211.34
884.21	211.42
884.51	211.47
884.82	211.41
885.13	211.46
885.44	211.36
885.74	211.34
886.05	211.33
886.36	211.41
886.67	211.30
886.98	211.52
887.28	211.50
887.59	211.53
887.90	211.54
888.20	211.59
888.51	211.67
888.82	211.68
889.13	211.71
889.43	212.01
889.74	211.99
890.05	211.93
890.35	211.92
890.66	211.80
890.97	211.74
891.28	211.75
891.58	211.69
891.89	211.70
892.20	211.73
892.50	211.70
892.81	211.64
893.12	211.59
893.42	211.38
893.73	211.40
894.04	211.36
894.34	211.43
894.65	211.38
894.95	211.27
895.26	211.29
895.57	211.46
895.87	211.08
896.18	211.14
896.48	211.12
896.79	211.13
897.10	211.28
897.40	211.32
897.71	211.34
898.01	211.29
898.32	211.40
898.63	211.34
898.93	211.38
899.24	211.41
899.54	211.46
899.85	211.45
900.15	211.40
900.46	211.40
900.76	211.42
901.07	211.40
901.38	211.43
901.68	211.41
901.99	211.24
902.29	211.32
902.60	211.26
902.90	211.31
903.21	211.26
903.51	211.13
903.82	211.20
904.12	211.24
904.43	211.23
904.73	211.17
905.03	211.20
905.34	211.42
905.64	211.39
905.95	211.38
906.25	211.32
906.56	211.34
906.86	211.37
907.17	211.33
907.47	211.33
907.77	211.35
908.08	211.40
908.38	211.35
908.69	211.33
908.99	211.38
909.30	211.40
909.60	211.41
909.90	211.48
910.21	211.35
910.51	211.24
910.81	211.24
911.12	211.23
911.42	211.22
911.73	210.88
912.03	210.95
912.33	211.05
912.64	211.09
912.94	211.01
913.24	210.96
913.55	210.87
913.85	210.88
914.15	210.95
914.46	210.96
914.76	210.90
915.06	210.90
915.37	210.84
915.67	210.83
915.97	210.86
916.27	210.76
916.58	210.75
916.88	210.80
917.18	210.77
917.49	211.07
917.79	211.10
918.09	211.23
918.39	211.25
918.70	211.20
919.00	211.21
919.30	211.44
919.60	211.44
919.91	211.43
920.21	211.48
920.51	211.40
920.81	211.35
921.12	211.47
921.42	211.44
921.72	211.52
922.02	211.53
922.32	211.53
922.63	211.53
922.93	211.72
923.23	211.72
923.53	211.70
923.83	211.36
924.13	211.40
924.44	211.41
924.74	211.59
925.04	211.67
925.34	211.70
925.64	211.58
925.94	211.50
926.24	211.71
926.55	211.69
926.85	211.73
927.15	211.72
927.45	211.72
927.75	211.75
928.05	211.71
928.35	211.67
928.65	211.75
928.95	211.76
929.26	211.58
929.56	211.64
929.86	211.72
930.16	211.72
930.46	211.62
930.76	211.57
931.06	211.35
931.36	211.21
931.66	211.22
931.96	211.25
932.26	211.36
932.56	211.19
932.86	211.21
933.16	211.20
933.46	211.15
933.76	211.08
934.06	211.12
934.36	211.25
934.66	211.28
934.96	211.22
935.26	211.31
935.56	211.39
935.86	211.28
936.16	211.18
936.46	211.17
936.76	211.17
937.06	211.15
937.36	211.09
937.66	211.10
937.96	211.04
938.26	210.96
938.56	210.89
938.86	210.99
939.16	211.04
939.46	211.05
939.76	211.05
940.06	211.06
940.35	210.99
940.65	210.75
940.95	210.79
941.25	210.75
941.55	210.65
941.85	210.63
942.15	210.73
942.45	210.83
942.75	210.81
943.04	210.88
943.34	210.96
943.64	210.92
943.94	210.87
944.24	210.92
944.54	210.92
944.84	210.92
945.13	210.80
945.43	210.74
945.73	210.68
946.03	210.72
946.33	210.69
946.62	210.66
946.92	210.67
947.22	210.70
947.52	210.71
947.82	210.79
948.11	210.66
948.41	210.58
948.71	210.45
949.01	210.47
949.31	210.40
949.60	210.31
949.90	210.42
950.20	210.52
950.50	210.48
950.79	210.51
951.09	210.55
951.39	210.61
951.69	210.54
951.98	210.66
952.28	210.65
952.58	210.68
952.87	210.76
953.17	210.85
953.47	210.75
953.76	210.75
954.06	210.67
954.36	210.73
954.66	210.68
954.95	210.81
955.25	210.90
955.55	210.94
955.84	210.97
956.14	211.02
956.44	211.00
956.73	211.05
957.03	211.06
957.32	211.06
957.62	211.07
957.92	211.18
958.21	211.11
958.51	211.51
958.81	211.62
959.10	211.60
959.40	211.64
959.69	211.67
959.99	211.73
960.29	211.72
960.58	211.64
960.88	211.76
961.17	211.76
961.47	211.78
961.76	211.79
962.06	211.80
962.36	211.74
962.65	211.76
962.95	211.78
963.24	211.70
963.54	211.70
963.83	211.72
964.13	211.66
964.42	211.57
964.72	211.30
965.01	211.24
965.31	211.22
965.60	211.10
965.90	211.31
966.19	211.21
966.49	211.19
966.78	211.26
967.08	211.30
967.37	211.30
967.67	211.19
967.96	211.21
968.26	211.24
968.55	211.28
968.85	211.26
969.14	211.20
969.43	211.24
969.73	211.24
970.02	211.16
970.32	211.09
970.61	211.09
970.91	210.99
971.20	210.90
971.49	210.86
971.79	210.99
972.08	210.86
972.38	210.89
972.67	210.91
972.96	210.91
973.26	210.74
973.55	210.82
973.85	210.84
974.14	210.83
974.43	210.78
974.73	210.67
975.02	210.60
975.31	210.57
975.61	210.61
975.90	210.55
976.19	210.55
976.49	210.68
976.78	210.76
977.07	210.80
977.37	210.80
977.66	210.85
977.95	210.77
978.24	210.71
978.54	210.81
978.83	210.84
979.12	210.88
979.42	210.92
979.71	210.83
980.00	210.83
980.29	210.84
980.59	210.84
980.88	210.98
981.17	211.00
981.46	211.07
981.76	211.00
982.05	211.14
982.34	211.16
982.63	211.12
982.93	211.02
983.22	211.10
983.51	211.18
983.80	211.20
984.09	211.24
984.39	211.23
984.68	211.12
984.97	211.18
985.26	211.10
985.55	211.16
985.85	211.11
986.14	211.17
986.43	211.21
986.72	211.20
987.01	211.04
987.30	211.10
987.59	211.07
987.89	211.10
988.18	210.93
988.47	210.85
988.76	210.86
989.05	210.93
989.34	210.90
989.63	210.96
989.92	210.91
990.22	210.90
990.51	210.93
990.80	210.98
991.09	210.93
991.38	211.07
991.67	211.03
991.96	211.05
992.25	211.07
992.54	210.99
992.83	210.89
993.12	211.05
993.41	211.05
993.70	211.14
993.99	211.23
994.28	211.39
994.58	211.47
994.87	211.42
995.16	211.38
995.45	211.31
995.74	211.25
996.03	211.24
996.32	211.27
996.61	211.36
996.90	211.34
997.19	211.35
997.48	211.30
997.77	211.29
998.06	211.31
998.34	211.23
998.63	211.21
998.92	211.29
999.21	211.23
999.50	211.28
999.79	211.21
1000.08	211.16
1000.37	211.09
1000.66	211.06
1000.95	211.15
1001.24	211.21
1001.53	211.28
1001.82	211.26
1002.11	211.23
1002.40	211.28
1002.68	211.31
1002.97	211.50
1003.26	211.48
1003.55	211.43
1003.84	211.46
1004.13	211.53
1004.42	211.58
1004.71	211.61
1004.99	211.61
1005.28	211.69
1005.57	211.67
1005.86	211.63
1006.15	211.61
1006.44	211.58
1006.72	211.64
1007.01	211.57
1007.30	211.64
1007.59	211.60
1007.88	211.54
1008.17	211.57
1008.45	211.47
1008.74	211.32
1009.03	211.07
1009.32	211.09
1009.60	211.06
1009.89	210.97
1010.18	210.83
1010.47	210.79
1010.76	210.78
1011.04	210.81
1011.33	210.80
1011.62	210.80
1011.91	210.79
1012.19	210.78
1012.48	210.83
1012.77	210.73
1013.05	210.85
1013.34	210.76
1013.63	210.72
1013.92	210.75
1014.20	210.76
1014.49	210.83
1014.78	210.86
1015.06	210.87
1015.35	210.85
1015.64	210.95
1015.92	211.05
1016.21	211.09
1016.50	211.09
1016.78	211.16
1017.07	211.13
1017.36	211.09
1017.64	210.96
1017.93	211.02
1018.22	211.06
1018.50	210.98
1018.79	211.04
1019.08	210.91
1019.36	210.94
1019.65	210.95
1019.93	211.01
1020.22	211.05
1020.51	211.25
1020.79	211.20
1021.08	211.35
1021.36	209.90
1021.65	210.80
1021.94	210.80
1022.22	211.05
1022.51	210.85
1022.79	212.15
1023.08	211.50
1023.36	216.15
1023.65	210.40
>>>>>End Processed Spectral Data<<<<<
