SpectraSuite Data File
++++++++++++++++++++++++++++++++++++
Date: Mon Feb 25 17:00:33 EST 2013
User: group
Dark Spectrum Present: No
Reference Spectrum Present: No
Number of Sampled Component Spectra: 1
Spectrometers: USB2E7196
Integration Time (usec): 104000 (USB2E7196)
Spectra Averaged: 20 (USB2E7196)
Boxcar Smoothing: 10 (USB2E7196)
Correct for Electrical Dark: No (USB2E7196)
Strobe/Lamp Enabled: No (USB2E7196)
Correct for Detector Non-linearity: No (USB2E7196)
Correct for Stray Light: No (USB2E7196)
Number of Pixels in Processed Spectrum: 2048
>>>>>Begin Processed Spectral Data<<<<<
339.09	0.00
339.48	197.70
339.86	200.35
340.24	201.30
340.63	202.40
341.01	208.40
341.39	205.75
341.78	206.50
342.16	208.70
342.54	208.75
342.93	197.87
343.31	207.84
343.69	208.39
344.07	208.83
344.46	209.26
344.84	209.65
345.22	209.70
345.60	209.91
345.99	210.10
346.37	210.21
346.75	210.24
347.13	210.28
347.52	210.34
347.90	210.52
348.28	210.49
348.66	210.58
349.05	210.45
349.43	210.50
349.81	210.57
350.19	210.64
350.57	210.70
350.96	210.78
351.34	210.89
351.72	210.98
352.10	211.11
352.48	211.16
352.87	211.23
353.25	211.36
353.63	211.44
354.01	211.48
354.39	211.57
354.77	211.69
355.15	211.88
355.54	211.95
355.92	211.86
356.30	211.94
356.68	212.26
357.06	212.34
357.44	212.35
357.82	212.39
358.20	212.52
358.58	212.62
358.97	212.73
359.35	212.90
359.73	213.08
360.11	213.10
360.49	213.17
360.87	213.25
361.25	213.36
361.63	213.60
362.01	213.63
362.39	213.69
362.77	213.82
363.15	213.91
363.53	213.90
363.91	213.93
364.29	214.01
364.67	213.80
365.05	213.88
365.43	213.92
365.81	214.02
366.19	214.12
366.57	214.22
366.95	214.26
367.33	214.17
367.71	214.13
368.09	214.19
368.47	214.20
368.85	214.15
369.23	214.16
369.61	213.94
369.99	214.18
370.37	214.16
370.75	214.27
371.13	214.10
371.51	214.08
371.89	214.18
372.27	214.16
372.65	214.14
373.03	214.13
373.41	214.09
373.78	214.04
374.16	213.85
374.54	213.72
374.92	213.58
375.30	213.56
375.68	213.46
376.06	213.47
376.44	213.39
376.82	213.38
377.19	213.35
377.57	213.34
377.95	213.13
378.33	213.09
378.71	212.79
379.09	212.87
379.47	212.85
379.84	212.74
380.22	212.62
380.60	212.50
380.98	212.44
381.36	212.33
381.73	212.21
382.11	212.28
382.49	212.26
382.87	212.23
383.25	212.11
383.62	212.43
384.00	212.31
384.38	212.29
384.76	212.33
385.13	212.37
385.51	212.30
385.89	212.24
386.27	212.21
386.64	212.29
387.02	212.23
387.40	212.15
387.78	212.10
388.15	212.15
388.53	212.16
388.91	212.15
389.29	212.12
389.66	212.15
390.04	212.04
390.42	212.09
390.79	212.03
391.17	212.07
391.55	211.71
391.92	211.62
392.30	211.66
392.68	211.48
393.05	211.44
393.43	211.44
393.81	211.40
394.18	211.27
394.56	211.31
394.94	211.30
395.31	211.24
395.69	211.34
396.06	211.35
396.44	211.33
396.82	211.31
397.19	211.47
397.57	211.39
397.95	211.44
398.32	211.29
398.70	211.33
399.07	211.42
399.45	211.37
399.82	211.48
400.20	211.44
400.58	211.55
400.95	211.40
401.33	211.56
401.70	211.85
402.08	211.93
402.45	211.87
402.83	212.01
403.20	212.16
403.58	212.12
403.95	212.30
404.33	212.47
404.71	212.57
405.08	212.96
405.46	213.12
405.83	213.30
406.21	213.55
406.58	213.77
406.96	213.94
407.33	214.24
407.70	214.56
408.08	215.10
408.45	215.42
408.83	215.89
409.20	216.16
409.58	216.31
409.95	216.88
410.33	217.33
410.70	217.75
411.08	218.25
411.45	218.95
411.82	219.46
412.20	220.19
412.57	221.10
412.95	221.54
413.32	222.40
413.69	223.17
414.07	224.09
414.44	225.05
414.82	226.07
415.19	227.19
415.56	228.28
415.94	229.37
416.31	230.78
416.68	232.19
417.06	233.81
417.43	235.41
417.81	237.14
418.18	239.01
418.55	240.93
418.93	242.97
419.30	244.99
419.67	247.28
420.04	249.49
420.42	251.82
420.79	254.80
421.16	257.57
421.54	260.58
421.91	263.68
422.28	266.92
422.66	270.32
423.03	273.77
423.40	277.31
423.77	280.98
424.15	284.71
424.52	288.62
424.89	292.79
425.26	297.03
425.64	301.00
426.01	305.39
426.38	309.97
426.75	314.76
427.13	319.71
427.50	324.70
427.87	330.04
428.24	335.34
428.61	340.36
428.99	346.13
429.36	352.36
429.73	358.30
430.10	364.30
430.47	370.52
430.85	376.86
431.22	383.71
431.59	391.13
431.96	398.05
432.33	405.90
432.70	413.51
433.08	422.15
433.45	430.34
433.82	438.79
434.19	448.15
434.56	457.21
434.93	465.91
435.30	474.77
435.68	484.47
436.05	494.24
436.42	503.90
436.79	512.78
437.16	522.19
437.53	532.32
437.90	542.18
438.27	552.00
438.64	562.19
439.01	571.82
439.38	580.20
439.75	588.70
440.13	598.13
440.50	607.21
440.87	614.80
441.24	622.72
441.61	631.14
441.98	637.41
442.35	645.05
442.72	652.75
443.09	659.98
443.46	664.75
443.83	667.99
444.20	670.84
444.57	674.86
444.94	677.17
445.31	679.65
445.68	682.15
446.05	683.72
446.42	683.74
446.79	683.37
447.16	682.94
447.53	682.78
447.90	679.85
448.27	676.89
448.64	672.49
449.01	669.38
449.37	663.47
449.74	658.02
450.11	651.15
450.48	643.48
450.85	635.64
451.22	628.91
451.59	622.69
451.96	616.62
452.33	608.35
452.70	600.90
453.07	591.60
453.43	582.30
453.80	573.18
454.17	564.40
454.54	556.16
454.91	547.53
455.28	538.83
455.65	530.85
456.02	523.04
456.38	516.16
456.75	507.57
457.12	500.39
457.49	493.20
457.86	486.12
458.23	480.12
458.59	473.75
458.96	467.22
459.33	461.26
459.70	455.50
460.07	450.81
460.43	445.40
460.80	440.51
461.17	436.13
461.54	431.55
461.91	427.31
462.27	422.85
462.64	418.95
463.01	414.76
463.38	410.68
463.74	406.30
464.11	402.75
464.48	399.72
464.85	396.44
465.21	393.83
465.58	391.01
465.95	387.59
466.32	384.87
466.68	382.12
467.05	379.38
467.42	376.61
467.78	373.77
468.15	371.06
468.52	368.96
468.88	366.28
469.25	363.87
469.62	361.87
469.98	359.71
470.35	357.71
470.72	355.83
471.08	353.73
471.45	352.11
471.82	350.41
472.18	348.57
472.55	347.14
472.92	345.47
473.28	344.01
473.65	342.64
474.02	341.20
474.38	340.09
474.75	339.12
475.11	338.05
475.48	337.09
475.85	336.26
476.21	335.44
476.58	334.72
476.94	334.22
477.31	333.59
477.67	333.06
478.04	332.57
478.41	332.32
478.77	332.34
479.14	331.78
479.50	331.50
479.87	331.33
480.23	331.31
480.60	331.16
480.96	331.04
481.33	331.29
481.69	331.35
482.06	331.34
482.42	331.28
482.79	331.43
483.15	331.70
483.52	332.21
483.88	332.53
484.25	332.93
484.61	333.35
484.98	333.77
485.34	334.44
485.71	335.18
486.07	335.82
486.44	336.30
486.80	337.12
487.17	337.96
487.53	339.02
487.90	340.04
488.26	341.26
488.62	342.56
488.99	343.73
489.35	344.99
489.72	346.41
490.08	347.92
490.44	349.35
490.81	350.96
491.17	352.49
491.54	354.25
491.90	356.02
492.26	357.84
492.63	359.77
492.99	361.59
493.36	363.57
493.72	365.55
494.08	367.59
494.45	369.94
494.81	372.38
495.17	374.69
495.54	377.05
495.90	379.38
496.26	381.66
496.63	384.20
496.99	386.77
497.35	389.37
497.72	392.00
498.08	394.62
498.44	397.36
498.80	400.20
499.17	402.90
499.53	405.62
499.89	408.54
500.26	411.38
500.62	414.20
500.98	417.07
501.34	419.93
501.71	422.83
502.07	425.71
502.43	428.18
502.79	430.75
503.16	433.36
503.52	436.11
503.88	438.91
504.24	441.48
504.60	444.01
504.97	446.61
505.33	449.05
505.69	451.77
506.05	454.14
506.41	456.39
506.78	458.60
507.14	460.82
507.50	463.07
507.86	465.17
508.22	467.31
508.59	469.02
508.95	470.98
509.31	472.96
509.67	474.77
510.03	476.80
510.39	478.73
510.75	480.53
511.12	482.14
511.48	483.58
511.84	485.01
512.20	486.55
512.56	488.00
512.92	489.58
513.28	490.80
513.64	491.96
514.00	493.14
514.37	494.40
514.73	495.58
515.09	496.54
515.45	497.42
515.81	498.18
516.17	499.15
516.53	500.01
516.89	500.65
517.25	501.26
517.61	501.90
517.97	502.25
518.33	502.61
518.69	503.11
519.05	503.73
519.41	504.27
519.77	504.84
520.13	505.01
520.49	505.12
520.85	505.39
521.21	505.77
521.57	506.13
521.93	506.35
522.29	506.65
522.65	506.67
523.01	506.80
523.37	506.94
523.73	507.28
524.09	507.43
524.45	507.70
524.81	507.93
525.17	508.09
525.53	508.57
525.89	509.00
526.25	509.38
526.61	509.45
526.97	509.71
527.33	510.02
527.68	510.91
528.04	511.42
528.40	511.84
528.76	512.33
529.12	512.82
529.48	513.47
529.84	514.06
530.20	514.86
530.56	515.74
530.91	516.83
531.27	517.75
531.63	518.70
531.99	519.72
532.35	520.77
532.71	521.90
533.07	523.13
533.42	524.62
533.78	525.82
534.14	527.21
534.50	528.45
534.86	529.82
535.21	530.77
535.57	532.42
535.93	533.92
536.29	535.60
536.65	537.43
537.00	538.97
537.36	540.64
537.72	542.35
538.08	544.03
538.44	545.68
538.79	547.47
539.15	549.28
539.51	551.15
539.87	553.15
540.22	555.33
540.58	557.49
540.94	559.39
541.29	561.45
541.65	563.58
542.01	565.93
542.37	568.23
542.72	570.56
543.08	572.77
543.44	575.26
543.79	577.43
544.15	579.67
544.51	582.23
544.87	584.75
545.22	587.23
545.58	589.86
545.94	592.38
546.29	594.94
546.65	597.36
547.01	599.76
547.36	602.37
547.72	604.79
548.07	607.20
548.43	609.55
548.79	611.95
549.14	614.60
549.50	617.17
549.86	619.53
550.21	622.27
550.57	624.88
550.92	627.29
551.28	629.94
551.64	632.44
551.99	634.97
552.35	637.50
552.70	639.99
553.06	642.70
553.41	645.30
553.77	647.89
554.13	650.77
554.48	653.52
554.84	656.22
555.19	658.87
555.55	661.63
555.90	664.05
556.26	666.65
556.61	668.95
556.97	671.16
557.32	673.66
557.68	675.86
558.03	678.14
558.39	680.36
558.74	682.59
559.10	684.86
559.45	687.28
559.81	689.48
560.16	691.80
560.52	693.87
560.87	696.14
561.23	698.14
561.58	700.40
561.94	702.44
562.29	704.14
562.64	706.21
563.00	708.16
563.35	710.48
563.71	712.82
564.06	714.98
564.42	717.33
564.77	719.46
565.12	721.62
565.48	724.02
565.83	726.26
566.19	728.48
566.54	730.32
566.89	732.20
567.25	734.50
567.60	736.72
567.96	739.03
568.31	741.06
568.66	742.95
569.02	744.24
569.37	745.59
569.72	747.29
570.08	748.65
570.43	749.91
570.78	751.13
571.14	752.06
571.49	753.11
571.84	754.09
572.20	754.93
572.55	755.90
572.90	756.17
573.26	756.59
573.61	757.12
573.96	757.72
574.31	758.05
574.67	758.01
575.02	757.67
575.37	757.39
575.72	756.96
576.08	756.96
576.43	757.02
576.78	757.31
577.13	757.44
577.49	757.40
577.84	757.35
578.19	757.35
578.54	757.57
578.90	757.76
579.25	757.75
579.60	757.34
579.95	756.78
580.30	756.69
580.66	756.76
581.01	756.30
581.36	756.01
581.71	755.44
582.06	755.19
582.42	755.07
582.77	754.40
583.12	754.21
583.47	753.87
583.82	753.46
584.17	752.80
584.53	752.34
584.88	751.76
585.23	751.14
585.58	750.43
585.93	749.57
586.28	748.94
586.63	748.19
586.98	747.79
587.34	747.44
587.69	746.75
588.04	746.08
588.39	745.53
588.74	744.62
589.09	744.23
589.44	743.14
589.79	742.28
590.14	741.69
590.49	740.80
590.84	739.80
591.19	739.04
591.54	738.05
591.89	736.68
592.25	735.79
592.60	734.50
592.95	733.13
593.30	731.75
593.65	730.13
594.00	728.56
594.35	728.18
594.70	726.55
595.05	725.15
595.40	723.57
595.75	721.85
596.10	720.57
596.45	719.10
596.80	717.97
597.15	716.78
597.50	715.15
597.85	713.83
598.19	712.37
598.54	710.86
598.89	709.62
599.24	708.59
599.59	707.02
599.94	705.61
600.29	704.23
600.64	702.81
600.99	701.39
601.34	700.20
601.69	697.52
602.04	695.93
602.39	694.34
602.74	692.89
603.08	691.55
603.43	690.27
603.78	688.60
604.13	687.07
604.48	685.52
604.83	684.36
605.18	683.01
605.53	681.40
605.87	679.76
606.22	678.09
606.57	676.15
606.92	674.40
607.27	672.84
607.62	671.33
607.96	669.82
608.31	668.42
608.66	666.67
609.01	665.13
609.36	663.61
609.70	661.88
610.05	659.90
610.40	658.21
610.75	656.23
611.10	654.65
611.44	652.43
611.79	650.24
612.14	648.03
612.49	645.75
612.83	643.84
613.18	641.79
613.53	639.71
613.88	637.59
614.22	635.58
614.57	633.52
614.92	631.52
615.27	629.33
615.61	626.97
615.96	625.00
616.31	622.95
616.65	621.07
617.00	619.02
617.35	617.00
617.70	614.71
618.04	612.38
618.39	609.85
618.74	607.80
619.08	605.77
619.43	603.61
619.78	601.61
620.12	599.53
620.47	597.50
620.82	595.03
621.16	592.88
621.51	590.93
621.85	588.75
622.20	586.40
622.55	584.12
622.89	581.90
623.24	579.56
623.59	577.25
623.93	574.96
624.28	573.00
624.62	571.19
624.97	569.26
625.32	567.24
625.66	565.26
626.01	563.22
626.35	561.04
626.70	558.96
627.04	556.93
627.39	554.73
627.73	552.57
628.08	551.07
628.43	548.90
628.77	546.66
629.12	544.50
629.46	542.71
629.81	540.81
630.15	538.85
630.50	536.80
630.84	534.78
631.19	532.74
631.53	530.73
631.88	528.42
632.22	526.38
632.57	524.53
632.91	522.55
633.26	520.56
633.60	518.56
633.95	516.81
634.29	514.69
634.64	512.87
634.98	510.79
635.32	508.81
635.67	507.10
636.01	505.33
636.36	503.46
636.70	501.53
637.05	499.77
637.39	497.94
637.73	496.20
638.08	494.74
638.42	492.96
638.77	491.17
639.11	489.26
639.45	487.29
639.80	485.22
640.14	483.35
640.49	481.56
640.83	479.80
641.17	477.85
641.52	475.96
641.86	474.17
642.20	472.49
642.55	470.39
642.89	468.49
643.23	466.49
643.58	465.03
643.92	463.19
644.26	461.32
644.61	459.66
644.95	457.71
645.29	455.69
645.64	453.90
645.98	451.87
646.32	450.16
646.66	448.30
647.01	446.49
647.35	444.83
647.69	443.06
648.04	441.36
648.38	439.59
648.72	437.85
649.06	435.90
649.41	434.09
649.75	432.27
650.09	430.60
650.43	428.86
650.78	426.79
651.12	424.89
651.46	423.27
651.80	421.58
652.14	420.01
652.49	418.30
652.83	416.48
653.17	414.73
653.51	413.00
653.85	411.46
654.20	409.92
654.54	408.13
654.88	406.21
655.22	404.47
655.56	402.70
655.90	400.94
656.25	399.12
656.59	397.45
656.93	395.91
657.27	394.36
657.61	392.65
657.95	391.15
658.29	389.66
658.64	388.02
658.98	386.27
659.32	384.54
659.66	382.88
660.00	381.22
660.34	379.62
660.68	377.95
661.02	376.33
661.36	374.69
661.70	373.24
662.05	371.83
662.39	370.46
662.73	369.11
663.07	367.96
663.41	366.75
663.75	365.34
664.09	364.00
664.43	362.50
664.77	361.25
665.11	359.74
665.45	358.37
665.79	356.85
666.13	355.48
666.47	354.24
666.81	353.03
667.15	351.68
667.49	350.55
667.83	349.48
668.17	348.16
668.51	347.10
668.85	345.82
669.19	344.80
669.53	343.50
669.87	342.25
670.21	340.91
670.55	339.65
670.89	338.71
671.23	337.58
671.57	336.42
671.91	335.25
672.25	334.22
672.58	333.17
672.92	332.12
673.26	331.10
673.60	329.97
673.94	328.85
674.28	327.92
674.62	326.98
674.96	326.00
675.30	325.06
675.64	323.98
675.97	323.08
676.31	322.01
676.65	320.98
676.99	320.10
677.33	319.07
677.67	318.19
678.01	317.07
678.34	316.08
678.68	315.23
679.02	314.18
679.36	313.19
679.70	312.20
680.04	311.29
680.37	310.40
680.71	309.51
681.05	308.71
681.39	307.90
681.73	307.03
682.06	306.17
682.40	305.34
682.74	304.51
683.08	303.73
683.42	302.81
683.75	302.00
684.09	301.08
684.43	300.18
684.77	299.25
685.10	298.42
685.44	297.60
685.78	296.68
686.12	295.93
686.45	295.10
686.79	294.31
687.13	293.57
687.46	292.74
687.80	291.99
688.14	291.08
688.48	290.29
688.81	289.37
689.15	288.54
689.49	287.71
689.82	286.96
690.16	285.98
690.50	285.30
690.83	284.51
691.17	283.59
691.51	282.86
691.84	282.15
692.18	281.32
692.52	280.62
692.85	279.98
693.19	279.38
693.52	278.65
693.86	277.91
694.20	277.19
694.53	276.53
694.87	275.83
695.21	275.12
695.54	274.47
695.88	273.81
696.21	273.02
696.55	272.35
696.88	271.63
697.22	271.04
697.56	270.49
697.89	269.87
698.23	269.42
698.56	268.78
698.90	268.24
699.23	267.59
699.57	266.92
699.90	266.27
700.24	265.69
700.58	265.14
700.91	264.63
701.25	264.28
701.58	263.88
701.92	263.39
702.25	262.94
702.59	262.31
702.92	261.79
703.26	261.23
703.59	260.79
703.93	260.57
704.26	260.04
704.60	259.46
704.93	258.97
705.26	258.38
705.60	258.00
705.93	257.33
706.27	257.03
706.60	256.69
706.94	256.37
707.27	255.78
707.61	255.33
707.94	254.74
708.27	254.03
708.61	253.39
708.94	252.87
709.28	252.38
709.61	251.90
709.94	251.38
710.28	251.05
710.61	250.63
710.95	249.81
711.28	249.69
711.61	249.26
711.95	248.92
712.28	248.52
712.61	248.12
712.95	248.00
713.28	247.75
713.61	247.25
713.95	246.81
714.28	246.46
714.61	246.11
714.95	245.85
715.28	245.45
715.61	245.09
715.95	244.75
716.28	244.34
716.61	244.08
716.95	243.70
717.28	243.35
717.61	242.95
717.94	242.73
718.28	242.10
718.61	241.89
718.94	241.53
719.27	241.23
719.61	240.97
719.94	240.63
720.27	240.05
720.60	239.73
720.94	239.38
721.27	239.09
721.60	238.88
721.93	238.55
722.27	238.45
722.60	238.25
722.93	238.02
723.26	237.85
723.59	237.53
723.93	237.42
724.26	237.16
724.59	236.91
724.92	236.77
725.25	236.66
725.59	236.26
725.92	236.08
726.25	235.85
726.58	235.62
726.91	235.35
727.24	235.26
727.57	235.10
727.91	234.81
728.24	234.69
728.57	234.48
728.90	234.28
729.23	233.88
729.56	233.72
729.89	233.53
730.22	233.32
730.55	233.16
730.89	232.87
731.22	232.71
731.55	232.45
731.88	232.22
732.21	231.88
732.54	231.71
732.87	231.47
733.20	231.35
733.53	231.15
733.86	230.94
734.19	230.64
734.52	230.54
734.85	230.61
735.18	230.32
735.51	230.20
735.84	230.13
736.17	230.06
736.50	229.75
736.83	229.92
737.16	229.73
737.49	229.59
737.82	229.40
738.15	229.26
738.48	229.15
738.81	228.92
739.14	228.75
739.47	228.59
739.80	228.43
740.13	228.25
740.46	227.95
740.79	227.75
741.12	227.62
741.45	227.38
741.78	226.94
742.11	226.93
742.44	226.71
742.77	226.56
743.10	226.38
743.43	226.20
743.75	225.67
744.08	226.00
744.41	225.72
744.74	225.66
745.07	225.47
745.40	225.42
745.73	225.50
746.06	225.39
746.39	225.26
746.71	225.05
747.04	224.86
747.37	224.79
747.70	224.71
748.03	224.65
748.36	224.53
748.68	224.45
749.01	224.24
749.34	224.08
749.67	223.92
750.00	223.89
750.33	224.00
750.65	223.94
750.98	223.32
751.31	223.22
751.64	223.08
751.97	223.15
752.29	222.93
752.62	222.55
752.95	222.45
753.28	222.27
753.60	222.25
753.93	222.25
754.26	222.13
754.59	221.89
754.91	221.70
755.24	221.58
755.57	221.51
755.90	221.35
756.22	221.18
756.55	221.01
756.88	220.87
757.20	220.65
757.53	220.38
757.86	220.30
758.19	220.24
758.51	220.03
758.84	219.70
759.17	219.63
759.49	219.59
759.82	219.62
760.15	219.59
760.47	219.48
760.80	219.25
761.13	219.18
761.45	219.16
761.78	219.06
762.11	218.94
762.43	218.81
762.76	218.72
763.08	218.63
763.41	218.56
763.74	218.45
764.06	218.31
764.39	218.20
764.71	218.13
765.04	217.96
765.37	217.94
765.69	217.89
766.02	217.81
766.34	217.68
766.67	217.55
767.00	217.53
767.32	217.57
767.65	217.67
767.97	217.65
768.30	217.56
768.62	217.48
768.95	217.42
769.27	217.36
769.60	217.34
769.92	217.30
770.25	217.22
770.57	217.10
770.90	217.07
771.22	217.01
771.55	216.97
771.87	216.97
772.20	216.91
772.52	217.17
772.85	217.55
773.17	217.55
773.50	217.35
773.82	217.19
774.15	216.99
774.47	216.75
774.80	216.57
775.12	216.53
775.45	216.48
775.77	216.49
776.09	216.47
776.42	216.44
776.74	216.48
777.07	216.33
777.39	216.29
777.72	216.19
778.04	216.27
778.36	216.13
778.69	216.14
779.01	216.15
779.33	215.80
779.66	215.31
779.98	215.24
780.31	215.25
780.63	215.45
780.95	215.45
781.28	215.41
781.60	215.34
781.92	215.26
782.25	215.21
782.57	215.15
782.89	215.06
783.22	214.96
783.54	214.80
783.86	214.88
784.19	214.85
784.51	214.92
784.83	214.80
785.16	214.79
785.48	214.70
785.80	214.59
786.12	214.60
786.45	214.58
786.77	214.58
787.09	214.51
787.42	214.33
787.74	214.27
788.06	214.28
788.38	214.35
788.71	214.37
789.03	214.44
789.35	214.44
789.67	214.44
789.99	214.46
790.32	214.41
790.64	214.42
790.96	214.69
791.28	214.54
791.61	214.49
791.93	214.50
792.25	214.50
792.57	214.77
792.89	214.65
793.21	214.64
793.54	214.53
793.86	214.49
794.18	214.42
794.50	214.42
794.82	214.42
795.14	214.43
795.47	214.45
795.79	214.35
796.11	214.21
796.43	214.07
796.75	214.03
797.07	214.05
797.39	213.99
797.71	213.73
798.04	213.71
798.36	213.71
798.68	213.69
799.00	213.61
799.32	213.38
799.64	213.40
799.96	213.38
800.28	213.52
800.60	213.46
800.92	213.48
801.24	213.38
801.56	213.40
801.89	213.30
802.21	213.24
802.53	213.15
802.85	213.25
803.17	213.49
803.49	213.36
803.81	213.28
804.13	213.24
804.45	213.14
804.77	213.23
805.09	213.19
805.41	213.10
805.73	213.08
806.05	213.02
806.37	213.00
806.69	212.89
807.01	212.79
807.33	212.85
807.65	212.78
807.97	212.98
808.28	212.85
808.60	212.84
808.92	212.80
809.24	212.99
809.56	212.86
809.88	212.74
810.20	212.84
810.52	213.01
810.84	212.89
811.16	212.90
811.48	212.76
811.80	212.95
812.12	212.95
812.43	213.04
812.75	213.07
813.07	212.99
813.39	213.11
813.71	213.04
814.03	212.98
814.35	212.92
814.67	212.73
814.98	212.69
815.30	212.70
815.62	212.70
815.94	212.44
816.26	212.50
816.58	212.42
816.89	212.44
817.21	212.29
817.53	212.36
817.85	212.35
818.17	212.31
818.48	212.15
818.80	212.24
819.12	212.20
819.44	212.11
819.76	212.10
820.07	212.02
820.39	212.03
820.71	212.03
821.03	212.05
821.34	212.03
821.66	212.07
821.98	212.12
822.30	212.08
822.61	212.30
822.93	212.24
823.25	212.19
823.57	212.14
823.88	212.29
824.20	212.28
824.52	212.23
824.83	212.21
825.15	212.14
825.47	212.11
825.79	212.13
826.10	212.14
826.42	212.13
826.74	212.17
827.05	212.18
827.37	212.22
827.69	212.20
828.00	212.18
828.32	212.18
828.64	212.08
828.95	212.19
829.27	212.15
829.58	212.14
829.90	212.20
830.22	212.18
830.53	211.99
830.85	211.96
831.17	211.88
831.48	211.92
831.80	211.88
832.11	211.83
832.43	211.69
832.75	211.65
833.06	211.83
833.38	211.72
833.69	211.71
834.01	211.70
834.32	211.70
834.64	211.68
834.96	211.77
835.27	211.80
835.59	211.73
835.90	211.57
836.22	211.61
836.53	211.54
836.85	211.49
837.16	211.85
837.48	211.84
837.79	211.98
838.11	212.01
838.42	212.01
838.74	212.10
839.05	212.08
839.37	212.17
839.68	211.99
840.00	211.94
840.31	211.96
840.63	211.91
840.94	211.92
841.26	211.89
841.57	211.84
841.88	211.82
842.20	211.79
842.51	211.85
842.83	211.87
843.14	212.22
843.46	212.25
843.77	212.03
844.08	211.96
844.40	211.90
844.71	211.90
845.03	211.93
845.34	211.86
845.65	211.89
845.97	211.79
846.28	211.78
846.60	211.88
846.91	211.85
847.22	211.77
847.54	211.84
847.85	211.81
848.16	211.80
848.48	211.85
848.79	212.00
849.10	212.00
849.42	212.02
849.73	211.67
850.04	211.66
850.36	211.55
850.67	211.64
850.98	211.65
851.30	211.60
851.61	211.61
851.92	211.58
852.23	211.65
852.55	211.65
852.86	211.67
853.17	211.62
853.49	211.72
853.80	211.87
854.11	211.80
854.42	211.94
854.74	211.84
855.05	211.80
855.36	211.54
855.67	211.53
855.99	211.48
856.30	211.88
856.61	211.79
856.92	211.83
857.23	211.86
857.55	211.78
857.86	211.74
858.17	211.73
858.48	211.72
858.79	211.72
859.11	211.81
859.42	211.84
859.73	211.86
860.04	211.79
860.35	211.68
860.66	211.65
860.98	211.62
861.29	211.69
861.60	211.72
861.91	211.89
862.22	211.84
862.53	211.76
862.84	211.34
863.16	211.44
863.47	211.38
863.78	211.32
864.09	211.40
864.40	211.47
864.71	211.48
865.02	211.49
865.33	211.43
865.64	211.36
865.95	211.35
866.27	211.56
866.58	211.53
866.89	211.56
867.20	211.58
867.51	211.49
867.82	211.50
868.13	211.50
868.44	211.43
868.75	211.52
869.06	211.61
869.37	211.66
869.68	211.62
869.99	211.69
870.30	211.73
870.61	211.74
870.92	211.73
871.23	211.74
871.54	211.78
871.85	211.81
872.16	211.86
872.47	211.78
872.78	211.57
873.09	211.62
873.40	211.60
873.71	211.60
874.02	211.67
874.33	211.58
874.64	211.51
874.95	211.55
875.26	211.44
875.56	211.44
875.87	211.44
876.18	211.43
876.49	211.77
876.80	211.74
877.11	211.66
877.42	211.67
877.73	211.66
878.04	211.63
878.35	211.68
878.66	211.63
878.96	211.66
879.27	211.65
879.58	211.62
879.89	211.58
880.20	211.62
880.51	211.58
880.82	211.64
881.12	211.72
881.43	211.59
881.74	211.57
882.05	211.50
882.36	211.53
882.67	211.55
882.97	211.20
883.28	211.14
883.59	211.20
883.90	211.20
884.21	211.24
884.51	211.16
884.82	211.10
885.13	211.16
885.44	211.18
885.74	211.14
886.05	211.17
886.36	211.18
886.67	211.11
886.98	211.28
887.28	211.24
887.59	211.22
887.90	211.27
888.20	211.25
888.51	211.35
888.82	211.26
889.13	211.28
889.43	211.55
889.74	211.56
890.05	211.51
890.35	211.49
890.66	211.46
890.97	211.46
891.28	211.38
891.58	211.39
891.89	211.28
892.20	211.23
892.50	211.20
892.81	211.21
893.12	211.16
893.42	210.99
893.73	211.07
894.04	211.08
894.34	211.12
894.65	211.17
894.95	211.20
895.26	211.20
895.57	211.40
895.87	211.11
896.18	211.19
896.48	211.24
896.79	211.24
897.10	211.27
897.40	211.29
897.71	211.36
898.01	211.32
898.32	211.39
898.63	211.44
898.93	211.46
899.24	211.55
899.54	211.59
899.85	211.60
900.15	211.52
900.46	211.52
900.76	211.58
901.07	211.58
901.38	211.54
901.68	211.59
901.99	211.38
902.29	211.31
902.60	211.26
902.90	211.19
903.21	211.21
903.51	211.22
903.82	211.32
904.12	211.34
904.43	211.38
904.73	211.41
905.03	211.43
905.34	211.73
905.64	211.65
905.95	211.68
906.25	211.68
906.56	211.70
906.86	211.68
907.17	211.64
907.47	211.64
907.77	211.59
908.08	211.51
908.38	211.55
908.69	211.52
908.99	211.57
909.30	211.64
909.60	211.63
909.90	211.61
910.21	211.54
910.51	211.50
910.81	211.45
911.12	211.45
911.42	211.43
911.73	211.09
912.03	211.16
912.33	211.18
912.64	211.19
912.94	211.16
913.24	211.13
913.55	211.06
913.85	211.04
914.15	211.14
914.46	211.25
914.76	211.19
915.06	211.24
915.37	211.17
915.67	211.07
915.97	211.08
916.27	210.96
916.58	210.95
916.88	210.88
917.18	210.84
917.49	211.10
917.79	211.16
918.09	211.20
918.39	211.23
918.70	211.20
919.00	211.22
919.30	211.40
919.60	211.40
919.91	211.35
920.21	211.36
920.51	211.20
920.81	211.17
921.12	211.20
921.42	211.18
921.72	211.27
922.02	211.32
922.32	211.33
922.63	211.35
922.93	211.49
923.23	211.53
923.53	211.51
923.83	211.14
924.13	211.15
924.44	211.13
924.74	211.21
925.04	211.28
925.34	211.21
925.64	211.09
925.94	211.05
926.24	211.22
926.55	211.18
926.85	211.26
927.15	211.23
927.45	211.28
927.75	211.31
928.05	211.26
928.35	211.22
928.65	211.31
928.95	211.44
929.26	211.34
929.56	211.45
929.86	211.50
930.16	211.67
930.46	211.56
930.76	211.66
931.06	211.48
931.36	211.36
931.66	211.41
931.96	211.41
932.26	211.44
932.56	211.37
932.86	211.48
933.16	211.51
933.46	211.46
933.76	211.31
934.06	211.35
934.36	211.47
934.66	211.47
934.96	211.40
935.26	211.33
935.56	211.42
935.86	211.34
936.16	211.34
936.46	211.16
936.76	211.18
937.06	211.04
937.36	211.02
937.66	211.09
937.96	211.12
938.26	211.05
938.56	211.04
938.86	211.08
939.16	211.03
939.46	211.00
939.76	211.05
940.06	211.17
940.35	211.10
940.65	210.97
940.95	211.02
941.25	211.01
941.55	210.95
941.85	210.88
942.15	210.93
942.45	211.05
942.75	211.15
943.04	211.18
943.34	211.36
943.64	211.35
943.94	211.34
944.24	211.34
944.54	211.37
944.84	211.39
945.13	211.32
945.43	211.31
945.73	211.38
946.03	211.39
946.33	211.30
946.62	211.28
946.92	211.27
947.22	211.31
947.52	211.23
947.82	211.35
948.11	211.34
948.41	211.25
948.71	211.10
949.01	211.06
949.31	211.09
949.60	210.98
949.90	211.07
950.20	210.96
950.50	210.82
950.79	210.82
951.09	210.83
951.39	210.88
951.69	210.87
951.98	210.86
952.28	210.84
952.58	210.88
952.87	210.88
953.17	210.97
953.47	210.88
953.76	210.91
954.06	210.82
954.36	210.73
954.66	210.68
954.95	210.78
955.25	210.76
955.55	210.71
955.84	210.67
956.14	210.74
956.44	210.79
956.73	210.81
957.03	210.83
957.32	210.84
957.62	210.79
957.92	210.88
958.21	210.83
958.51	211.23
958.81	211.24
959.10	211.29
959.40	211.25
959.69	211.31
959.99	211.34
960.29	211.35
960.58	211.38
960.88	211.50
961.17	211.38
961.47	211.44
961.76	211.44
962.06	211.51
962.36	211.38
962.65	211.45
962.95	211.43
963.24	211.39
963.54	211.38
963.83	211.37
964.13	211.29
964.42	211.21
964.72	210.90
965.01	210.89
965.31	210.85
965.60	210.82
965.90	211.05
966.19	210.97
966.49	210.98
966.78	210.91
967.08	210.92
967.37	210.99
967.67	210.96
967.96	210.97
968.26	210.93
968.55	211.00
968.85	210.96
969.14	211.03
969.43	211.07
969.73	211.00
970.02	210.98
970.32	211.02
970.61	210.99
970.91	210.90
971.20	210.85
971.49	210.86
971.79	210.87
972.08	210.55
972.38	210.50
972.67	210.51
972.96	210.65
973.26	210.58
973.55	210.71
973.85	210.73
974.14	210.68
974.43	210.68
974.73	210.62
975.02	210.60
975.31	210.59
975.61	210.56
975.90	210.55
976.19	210.59
976.49	210.61
976.78	210.65
977.07	210.58
977.37	210.61
977.66	210.60
977.95	210.58
978.24	210.71
978.54	210.78
978.83	210.73
979.12	210.64
979.42	210.61
979.71	210.53
980.00	210.51
980.29	210.61
980.59	210.56
980.88	210.64
981.17	210.62
981.46	210.65
981.76	210.66
982.05	210.78
982.34	210.80
982.63	210.78
982.93	210.78
983.22	210.93
983.51	210.99
983.80	211.05
984.09	211.05
984.39	211.00
984.68	211.05
984.97	211.04
985.26	211.02
985.55	211.05
985.85	210.97
986.14	210.99
986.43	211.04
986.72	211.04
987.01	210.97
987.30	210.95
987.59	210.89
987.89	210.84
988.18	210.73
988.47	210.59
988.76	210.53
989.05	210.51
989.34	210.45
989.63	210.46
989.92	210.42
990.22	210.36
990.51	210.34
990.80	210.27
991.09	210.39
991.38	210.51
991.67	210.46
991.96	210.39
992.25	210.39
992.54	210.31
992.83	210.36
993.12	210.35
993.41	210.42
993.70	210.58
993.99	210.71
994.28	210.78
994.58	210.85
994.87	210.83
995.16	210.80
995.45	210.81
995.74	210.64
996.03	210.66
996.32	210.72
996.61	210.81
996.90	210.86
997.19	210.83
997.48	210.83
997.77	210.85
998.06	210.92
998.34	210.98
998.63	210.89
998.92	210.89
999.21	210.80
999.50	210.87
999.79	210.73
1000.08	210.68
1000.37	210.68
1000.66	210.66
1000.95	210.77
1001.24	210.81
1001.53	210.82
1001.82	210.89
1002.11	210.82
1002.40	210.92
1002.68	210.97
1002.97	211.18
1003.26	211.06
1003.55	210.96
1003.84	211.04
1004.13	211.14
1004.42	211.01
1004.71	211.07
1004.99	211.02
1005.28	211.26
1005.57	211.20
1005.86	211.19
1006.15	211.10
1006.44	211.01
1006.72	211.07
1007.01	211.01
1007.30	211.02
1007.59	211.07
1007.88	211.04
1008.17	211.06
1008.45	210.90
1008.74	210.76
1009.03	210.60
1009.32	210.63
1009.60	210.65
1009.89	210.51
1010.18	210.37
1010.47	210.37
1010.76	210.38
1011.04	210.40
1011.33	210.38
1011.62	210.36
1011.91	210.34
1012.19	210.43
1012.48	210.45
1012.77	210.44
1013.05	210.59
1013.34	210.64
1013.63	210.61
1013.92	210.72
1014.20	210.69
1014.49	210.74
1014.78	210.82
1015.06	210.72
1015.35	210.68
1015.64	210.75
1015.92	210.88
1016.21	210.88
1016.50	210.95
1016.78	210.98
1017.07	211.00
1017.36	210.90
1017.64	210.86
1017.93	210.90
1018.22	210.88
1018.50	210.87
1018.79	210.89
1019.08	210.74
1019.36	210.69
1019.65	210.61
1019.93	210.65
1020.22	210.75
1020.51	210.93
1020.79	210.85
1021.08	210.45
1021.36	209.75
1021.65	211.05
1021.94	210.60
1022.22	210.60
1022.51	210.25
1022.79	212.15
1023.08	211.40
1023.36	214.95
1023.65	209.60
>>>>>End Processed Spectral Data<<<<<
