SpectraSuite Data File
++++++++++++++++++++++++++++++++++++
Date: Mon Feb 25 16:55:47 EST 2013
User: group
Dark Spectrum Present: No
Reference Spectrum Present: No
Number of Sampled Component Spectra: 1
Spectrometers: USB2E7196
Integration Time (usec): 104000 (USB2E7196)
Spectra Averaged: 20 (USB2E7196)
Boxcar Smoothing: 10 (USB2E7196)
Correct for Electrical Dark: No (USB2E7196)
Strobe/Lamp Enabled: No (USB2E7196)
Correct for Detector Non-linearity: No (USB2E7196)
Correct for Stray Light: No (USB2E7196)
Number of Pixels in Processed Spectrum: 2048
>>>>>Begin Processed Spectral Data<<<<<
339.09	0.00
339.48	197.75
339.86	199.50
340.24	200.60
340.63	202.60
341.01	209.30
341.39	205.85
341.78	208.45
342.16	209.20
342.54	208.55
342.93	198.21
343.31	208.17
343.69	208.74
344.07	209.21
344.46	209.72
344.84	210.15
345.22	210.21
345.60	210.49
345.99	210.61
346.37	210.70
346.75	210.80
347.13	210.89
347.52	210.98
347.90	211.11
348.28	211.18
348.66	211.33
349.05	211.29
349.43	211.38
349.81	211.49
350.19	211.59
350.57	211.67
350.96	211.86
351.34	212.02
351.72	212.15
352.10	212.27
352.48	212.32
352.87	212.40
353.25	212.51
353.63	212.59
354.01	212.64
354.39	212.75
354.77	212.89
355.15	212.98
355.54	212.97
355.92	212.91
356.30	212.94
356.68	213.16
357.06	213.18
357.44	213.20
357.82	213.28
358.20	213.36
358.58	213.39
358.97	213.46
359.35	213.60
359.73	213.72
360.11	213.74
360.49	213.77
360.87	213.80
361.25	213.93
361.63	214.08
362.01	214.18
362.39	214.17
362.77	214.18
363.15	214.19
363.53	214.23
363.91	214.35
364.29	214.31
364.67	214.02
365.05	214.02
365.43	214.07
365.81	214.07
366.19	214.23
366.57	214.36
366.95	214.36
367.33	214.28
367.71	214.21
368.09	214.34
368.47	214.36
368.85	214.28
369.23	214.32
369.61	214.15
369.99	214.21
370.37	214.24
370.75	214.45
371.13	214.40
371.51	214.30
371.89	214.23
372.27	214.30
372.65	214.32
373.03	214.36
373.41	214.26
373.78	214.18
374.16	214.04
374.54	213.91
374.92	213.84
375.30	213.79
375.68	213.77
376.06	213.72
376.44	213.68
376.82	213.72
377.19	213.64
377.57	213.60
377.95	213.42
378.33	213.37
378.71	213.11
379.09	213.11
379.47	213.16
379.84	213.12
380.22	213.02
380.60	212.95
380.98	212.90
381.36	212.92
381.73	212.84
382.11	212.73
382.49	212.65
382.87	212.53
383.25	212.52
383.62	212.84
384.00	212.75
384.38	212.68
384.76	212.71
385.13	212.77
385.51	212.74
385.89	212.72
386.27	212.70
386.64	212.73
387.02	212.71
387.40	212.66
387.78	212.67
388.15	212.68
388.53	212.59
388.91	212.56
389.29	212.50
389.66	212.55
390.04	212.56
390.42	212.61
390.79	212.58
391.17	212.51
391.55	212.11
391.92	212.05
392.30	212.06
392.68	211.92
393.05	211.85
393.43	211.86
393.81	211.92
394.18	211.91
394.56	211.82
394.94	211.87
395.31	211.83
395.69	211.92
396.06	212.02
396.44	212.15
396.82	212.12
397.19	212.36
397.57	212.41
397.95	212.51
398.32	212.52
398.70	212.65
399.07	212.83
399.45	212.88
399.82	212.99
400.20	213.05
400.58	213.19
400.95	213.13
401.33	213.32
401.70	213.70
402.08	213.80
402.45	213.99
402.83	214.19
403.20	214.39
403.58	214.56
403.95	214.78
404.33	214.96
404.71	215.25
405.08	215.65
405.46	215.89
405.83	216.15
406.21	216.45
406.58	216.81
406.96	217.18
407.33	217.74
407.70	218.30
408.08	219.19
408.45	219.84
408.83	220.53
409.20	221.06
409.58	221.54
409.95	222.40
410.33	223.26
410.70	224.05
411.08	225.02
411.45	225.92
411.82	226.94
412.20	228.18
412.57	229.67
412.95	230.63
413.32	232.07
413.69	233.49
414.07	235.10
414.44	236.82
414.82	238.68
415.19	240.65
415.56	242.74
415.94	244.72
416.31	247.19
416.68	249.74
417.06	252.67
417.43	255.40
417.81	258.48
418.18	261.70
418.55	265.20
418.93	268.86
419.30	272.77
419.67	276.75
420.04	280.86
420.42	285.08
420.79	290.17
421.16	295.36
421.54	300.77
421.91	306.37
422.28	312.18
422.66	318.14
423.03	324.25
423.40	330.46
423.77	337.19
424.15	343.96
424.52	351.01
424.89	358.70
425.26	366.17
425.64	373.44
426.01	381.47
426.38	389.76
426.75	398.09
427.13	406.69
427.50	415.83
427.87	425.61
428.24	435.22
428.61	444.67
428.99	454.71
429.36	465.66
429.73	476.33
430.10	487.03
430.47	498.30
430.85	509.80
431.22	522.01
431.59	534.92
431.96	547.31
432.33	561.18
432.70	574.65
433.08	590.59
433.45	605.40
433.82	620.24
434.19	636.79
434.56	653.15
434.93	668.95
435.30	684.87
435.68	702.39
436.05	719.90
436.42	737.13
436.79	753.24
437.16	770.55
437.53	788.84
437.90	807.14
438.27	825.16
438.64	843.90
439.01	861.54
439.38	877.59
439.75	893.00
440.13	910.61
440.50	927.24
440.87	941.01
441.24	955.29
441.61	971.10
441.98	983.16
442.35	997.20
442.72	1011.30
443.09	1024.79
443.46	1033.41
443.83	1039.70
444.20	1045.34
444.57	1053.11
444.94	1057.44
445.31	1062.09
445.68	1066.37
446.05	1069.06
446.42	1068.90
446.79	1068.17
447.16	1067.00
447.53	1066.81
447.90	1061.48
448.27	1056.10
448.64	1047.84
449.01	1042.56
449.37	1031.79
449.74	1021.60
450.11	1008.89
450.48	994.85
450.85	980.56
451.22	968.54
451.59	957.11
451.96	946.06
452.33	930.68
452.70	917.14
453.07	900.51
453.43	883.65
453.80	867.36
454.17	851.68
454.54	837.04
454.91	821.19
455.28	805.60
455.65	791.10
456.02	776.37
456.38	764.35
456.75	748.72
457.12	735.85
457.49	722.86
457.86	710.41
458.23	699.83
458.59	688.14
458.96	676.22
459.33	665.55
459.70	655.15
460.07	646.89
460.43	637.29
460.80	628.22
461.17	620.30
461.54	612.04
461.91	604.16
462.27	595.99
462.64	589.19
463.01	581.59
463.38	574.26
463.74	567.13
464.11	560.73
464.48	555.27
464.85	549.20
465.21	544.54
465.58	539.67
465.95	533.62
466.32	528.55
466.68	523.65
467.05	518.73
467.42	513.61
467.78	508.39
468.15	503.50
468.52	499.91
468.88	495.20
469.25	490.85
469.62	487.29
469.98	483.59
470.35	480.04
470.72	476.78
471.08	473.14
471.45	470.18
471.82	466.97
472.18	463.45
472.55	460.89
472.92	458.12
473.28	455.51
473.65	453.14
474.02	450.81
474.38	448.73
474.75	447.07
475.11	445.23
475.48	443.89
475.85	442.66
476.21	441.36
476.58	440.27
476.94	439.61
477.31	438.82
477.67	437.88
478.04	437.29
478.41	436.90
478.77	436.91
479.14	436.32
479.50	436.15
479.87	436.35
480.23	436.53
480.60	436.53
480.96	436.65
481.33	437.29
481.69	437.96
482.06	438.47
482.42	438.86
482.79	439.56
483.15	440.50
483.52	441.76
483.88	442.86
484.25	444.08
484.61	445.32
484.98	446.50
485.34	448.38
485.71	450.26
486.07	452.21
486.44	453.96
486.80	456.15
487.17	458.67
487.53	461.35
487.90	464.05
488.26	467.12
488.62	470.30
488.99	473.33
489.35	476.56
489.72	480.09
490.08	483.93
490.44	487.78
490.81	491.68
491.17	495.54
491.54	499.91
491.90	504.44
492.26	509.18
492.63	514.01
492.99	518.85
493.36	524.04
493.72	529.55
494.08	535.00
494.45	541.05
494.81	547.15
495.17	553.20
495.54	559.58
495.90	565.95
496.26	572.40
496.63	579.25
496.99	586.28
497.35	593.45
497.72	600.86
498.08	608.36
498.44	616.11
498.80	624.30
499.17	632.65
499.53	640.95
499.89	649.36
500.26	658.03
500.62	666.52
500.98	675.44
501.34	684.05
501.71	693.30
502.07	702.35
502.43	711.38
502.79	720.49
503.16	729.83
503.52	739.15
503.88	748.78
504.24	758.40
504.60	767.97
504.97	777.84
505.33	787.59
505.69	798.08
506.05	808.05
506.41	817.78
506.78	827.38
507.14	837.21
507.50	847.21
507.86	857.22
508.22	867.38
508.59	877.13
508.95	887.30
509.31	897.26
509.67	907.18
510.03	917.16
510.39	927.48
510.75	937.54
511.12	947.60
511.48	957.57
511.84	967.72
512.20	977.55
512.56	987.63
512.92	997.55
513.28	1006.85
513.64	1016.48
514.00	1025.99
514.37	1035.29
514.73	1044.87
515.09	1054.13
515.45	1063.05
515.81	1072.10
516.17	1081.11
516.53	1089.53
516.89	1098.06
517.25	1106.48
517.61	1114.62
517.97	1122.35
518.33	1129.83
518.69	1137.86
519.05	1145.62
519.41	1153.08
519.77	1160.90
520.13	1167.92
520.49	1174.84
520.85	1182.12
521.21	1189.16
521.57	1196.34
521.93	1202.89
522.29	1209.53
522.65	1216.04
523.01	1222.67
523.37	1228.46
523.73	1234.40
524.09	1240.52
524.45	1246.58
524.81	1252.61
525.17	1258.76
525.53	1265.06
525.89	1271.06
526.25	1276.50
526.61	1281.27
526.97	1286.21
527.33	1291.15
527.68	1296.40
528.04	1301.31
528.40	1305.58
528.76	1310.12
529.12	1314.66
529.48	1320.01
529.84	1324.20
530.20	1328.19
530.56	1332.21
530.91	1337.23
531.27	1342.01
531.63	1346.34
531.99	1350.37
532.35	1354.03
532.71	1357.47
533.07	1361.40
533.42	1365.32
533.78	1369.10
534.14	1373.05
534.50	1376.27
534.86	1379.66
535.21	1382.52
535.57	1386.33
535.93	1389.59
536.29	1392.76
536.65	1395.77
537.00	1398.08
537.36	1400.64
537.72	1403.24
538.08	1405.94
538.44	1408.30
538.79	1410.43
539.15	1413.08
539.51	1415.58
539.87	1418.24
540.22	1420.88
540.58	1423.28
540.94	1425.47
541.29	1427.17
541.65	1428.59
542.01	1430.63
542.37	1432.42
542.72	1434.40
543.08	1435.58
543.44	1437.45
543.79	1438.43
544.15	1439.40
544.51	1440.99
544.87	1442.85
545.22	1444.29
545.58	1445.33
545.94	1446.05
546.29	1446.52
546.65	1446.68
547.01	1446.89
547.36	1447.10
547.72	1447.40
548.07	1447.27
548.43	1447.06
548.79	1447.02
549.14	1447.59
549.50	1447.64
549.86	1447.17
550.21	1447.00
550.57	1447.03
550.92	1446.42
551.28	1446.52
551.64	1446.20
551.99	1445.85
552.35	1445.20
552.70	1444.58
553.06	1444.32
553.41	1443.95
553.77	1443.90
554.13	1443.69
554.48	1443.85
554.84	1443.81
555.19	1443.69
555.55	1443.38
555.90	1443.05
556.26	1442.48
556.61	1441.50
556.97	1440.66
557.32	1440.50
557.68	1439.47
558.03	1438.35
558.39	1437.18
558.74	1436.31
559.10	1435.52
559.45	1434.69
559.81	1434.07
560.16	1433.03
560.52	1432.04
560.87	1430.98
561.23	1429.36
561.58	1428.41
561.94	1426.54
562.29	1424.74
562.64	1423.16
563.00	1421.56
563.35	1420.53
563.71	1419.88
564.06	1419.14
564.42	1418.69
564.77	1417.86
565.12	1417.55
565.48	1417.02
565.83	1416.55
566.19	1416.07
566.54	1415.05
566.89	1413.69
567.25	1412.83
567.60	1412.31
567.96	1411.55
568.31	1411.14
568.66	1410.49
569.02	1409.05
569.37	1407.55
569.72	1406.46
570.08	1404.91
570.43	1403.62
570.78	1401.48
571.14	1399.24
571.49	1396.91
571.84	1394.91
572.20	1392.33
572.55	1389.85
572.90	1387.06
573.26	1384.41
573.61	1381.12
573.96	1378.50
574.31	1375.76
574.67	1372.41
575.02	1368.77
575.37	1365.12
575.72	1360.95
576.08	1357.40
576.43	1353.88
576.78	1350.74
577.13	1347.40
577.49	1344.24
577.84	1340.57
578.19	1337.57
578.54	1335.15
578.90	1332.58
579.25	1328.81
579.60	1325.17
579.95	1321.26
580.30	1317.79
580.66	1314.53
581.01	1311.07
581.36	1307.22
581.71	1303.19
582.06	1299.37
582.42	1295.92
582.77	1291.95
583.12	1288.24
583.47	1284.70
583.82	1281.15
584.17	1277.28
584.53	1273.81
584.88	1269.68
585.23	1265.80
585.58	1261.58
585.93	1257.06
586.28	1252.95
586.63	1249.09
586.98	1245.53
587.34	1242.08
587.69	1237.97
588.04	1233.88
588.39	1230.00
588.74	1225.86
589.09	1222.20
589.44	1217.93
589.79	1213.85
590.14	1210.39
590.49	1206.27
590.84	1202.00
591.19	1198.23
591.54	1194.30
591.89	1189.27
592.25	1185.32
592.60	1180.92
592.95	1176.72
593.30	1171.75
593.65	1166.65
594.00	1161.80
594.35	1158.35
594.70	1153.49
595.05	1149.37
595.40	1144.97
595.75	1140.20
596.10	1136.16
596.45	1131.90
596.80	1128.05
597.15	1124.00
597.50	1119.04
597.85	1114.97
598.19	1110.65
598.54	1106.11
598.89	1101.76
599.24	1098.25
599.59	1093.90
599.94	1089.86
600.29	1085.65
600.64	1081.52
600.99	1077.35
601.34	1073.50
601.69	1067.93
602.04	1063.70
602.39	1059.28
602.74	1055.10
603.08	1051.30
603.43	1047.39
603.78	1042.95
604.13	1038.61
604.48	1034.42
604.83	1030.81
605.18	1026.73
605.53	1022.42
605.87	1017.99
606.22	1013.88
606.57	1009.48
606.92	1004.98
607.27	1000.26
607.62	995.73
607.96	991.75
608.31	987.93
608.66	983.58
609.01	979.23
609.36	974.61
609.70	970.05
610.05	965.08
610.40	960.52
610.75	955.56
611.10	951.37
611.44	946.16
611.79	941.23
612.14	936.22
612.49	931.14
612.83	926.68
613.18	921.88
613.53	916.93
613.88	911.68
614.22	907.04
614.57	902.52
614.92	898.02
615.27	893.28
615.61	888.43
615.96	883.86
616.31	879.53
616.65	875.58
617.00	871.10
617.35	866.96
617.70	862.14
618.04	857.39
618.39	852.33
618.74	848.02
619.08	843.57
619.43	839.26
619.78	835.27
620.12	830.78
620.47	826.72
620.82	822.29
621.16	817.83
621.51	813.25
621.85	808.80
622.20	804.26
622.55	799.94
622.89	795.57
623.24	791.23
623.59	786.49
623.93	781.88
624.28	777.82
624.62	773.82
624.97	769.81
625.32	765.82
625.66	762.03
626.01	758.07
626.35	754.07
626.70	749.82
627.04	745.58
627.39	741.63
627.73	737.68
628.08	734.09
628.43	730.33
628.77	726.47
629.12	722.57
629.46	718.97
629.81	715.11
630.15	711.25
630.50	707.39
630.84	703.58
631.19	699.83
631.53	695.95
631.88	691.68
632.22	687.77
632.57	684.23
632.91	680.42
633.26	676.71
633.60	672.87
633.95	669.41
634.29	665.76
634.64	662.25
634.98	658.36
635.32	654.78
635.67	651.70
636.01	648.51
636.36	645.16
636.70	641.99
637.05	638.67
637.39	635.62
637.73	632.66
638.08	629.89
638.42	626.91
638.77	623.84
639.11	620.95
639.45	618.01
639.80	614.54
640.14	611.15
640.49	608.06
640.83	605.00
641.17	601.93
641.52	598.92
641.86	595.64
642.20	592.77
642.55	589.35
642.89	585.89
643.23	582.81
643.58	580.11
643.92	576.70
644.26	573.59
644.61	570.54
644.95	567.27
645.29	564.07
645.64	561.02
645.98	557.91
646.32	555.01
646.66	551.81
647.01	549.11
647.35	546.63
647.69	543.71
648.04	540.92
648.38	538.03
648.72	535.15
649.06	532.26
649.41	529.29
649.75	526.53
650.09	523.93
650.43	521.05
650.78	517.91
651.12	515.19
651.46	512.49
651.80	509.75
652.14	507.02
652.49	504.43
652.83	501.69
653.17	499.01
653.51	496.26
653.85	493.82
654.20	491.27
654.54	488.32
654.88	485.63
655.22	483.13
655.56	480.53
655.90	477.87
656.25	475.38
656.59	472.99
656.93	470.60
657.27	468.21
657.61	465.53
657.95	463.19
658.29	460.80
658.64	458.50
658.98	456.00
659.32	453.49
659.66	450.98
660.00	448.46
660.34	445.93
660.68	443.36
661.02	440.88
661.36	438.52
661.70	436.39
662.05	434.17
662.39	432.09
662.73	430.10
663.07	428.27
663.41	426.20
663.75	423.92
664.09	421.86
664.43	419.67
664.77	417.74
665.11	415.61
665.45	413.67
665.79	411.61
666.13	409.65
666.47	407.68
666.81	405.75
667.15	403.78
667.49	402.12
667.83	400.51
668.17	398.66
668.51	396.87
668.85	395.25
669.19	393.71
669.53	391.68
669.87	389.80
670.21	387.84
670.55	386.12
670.89	384.78
671.23	383.10
671.57	381.52
671.91	379.99
672.25	378.40
672.58	376.88
672.92	375.17
673.26	373.55
673.60	372.15
673.94	370.65
674.28	369.21
674.62	367.69
674.96	366.09
675.30	364.81
675.64	363.33
675.97	361.81
676.31	360.26
676.65	358.95
676.99	357.72
677.33	356.33
677.67	354.86
678.01	353.22
678.34	351.92
678.68	350.58
679.02	349.11
679.36	347.81
679.70	346.32
680.04	345.10
680.37	343.76
680.71	342.38
681.05	341.18
681.39	340.02
681.73	338.79
682.06	337.60
682.40	336.22
682.74	334.97
683.08	333.78
683.42	332.55
683.75	331.38
684.09	330.05
684.43	328.90
684.77	327.70
685.10	326.53
685.44	325.30
685.78	324.09
686.12	323.04
686.45	321.92
686.79	320.77
687.13	319.68
687.46	318.65
687.80	317.65
688.14	316.42
688.48	315.33
688.81	314.17
689.15	313.17
689.49	312.12
689.82	311.15
690.16	309.93
690.50	308.76
690.83	307.63
691.17	306.46
691.51	305.39
691.84	304.46
692.18	303.44
692.52	302.54
692.85	301.64
693.19	300.74
693.52	299.74
693.86	298.76
694.20	297.84
694.53	296.87
694.87	295.94
695.21	295.11
695.54	294.10
695.88	293.09
696.21	292.02
696.55	291.25
696.88	290.28
697.22	289.45
697.56	288.74
697.89	287.86
698.23	287.09
698.56	286.24
698.90	285.34
699.23	284.53
699.57	283.53
699.90	282.59
700.24	281.69
700.58	280.93
700.91	280.25
701.25	279.65
701.58	279.00
701.92	278.31
702.25	277.52
702.59	276.78
702.92	276.21
703.26	275.55
703.59	274.77
703.93	274.35
704.26	273.66
704.60	272.98
704.93	272.29
705.26	271.52
705.60	270.90
705.93	270.25
706.27	269.70
706.60	269.28
706.94	268.87
707.27	268.14
707.61	267.58
707.94	266.85
708.27	266.06
708.61	265.40
708.94	264.67
709.28	264.10
709.61	263.45
709.94	262.83
710.28	262.28
710.61	261.83
710.95	261.00
711.28	260.73
711.61	260.23
711.95	259.84
712.28	259.40
712.61	258.88
712.95	258.62
713.28	258.22
713.61	257.61
713.95	256.93
714.28	256.57
714.61	256.04
714.95	255.65
715.28	255.08
715.61	254.57
715.95	254.15
716.28	253.65
716.61	253.34
716.95	252.86
717.28	252.47
717.61	251.93
717.94	251.55
718.28	250.91
718.61	250.48
718.94	249.96
719.27	249.50
719.61	249.14
719.94	248.61
720.27	248.02
720.60	247.66
720.94	247.31
721.27	246.90
721.60	246.56
721.93	246.12
722.27	245.90
722.60	245.58
722.93	245.19
723.26	244.89
723.59	244.49
723.93	244.24
724.26	243.88
724.59	243.57
724.92	243.27
725.25	243.04
725.59	242.71
725.92	242.50
726.25	242.27
726.58	241.97
726.91	241.56
727.24	241.35
727.57	241.05
727.91	240.71
728.24	240.49
728.57	240.23
728.90	240.01
729.23	239.64
729.56	239.56
729.89	239.30
730.22	238.96
730.55	238.69
730.89	238.40
731.22	238.12
731.55	237.86
731.88	237.55
732.21	237.19
732.54	236.95
732.87	236.63
733.20	236.31
733.53	236.09
733.86	235.94
734.19	235.66
734.52	235.50
734.85	235.54
735.18	235.27
735.51	235.08
735.84	234.82
736.17	234.70
736.50	234.24
736.83	234.43
737.16	234.25
737.49	233.96
737.82	233.66
738.15	233.48
738.48	233.26
738.81	233.00
739.14	232.76
739.47	232.46
739.80	232.28
740.13	232.07
740.46	231.76
740.79	231.47
741.12	231.18
741.45	230.88
741.78	230.43
742.11	230.29
742.44	230.02
742.77	229.83
743.10	229.56
743.43	229.40
743.75	228.85
744.08	229.08
744.41	228.87
744.74	228.65
745.07	228.36
745.40	228.23
745.73	228.24
746.06	228.05
746.39	227.90
746.71	227.70
747.04	227.53
747.37	227.37
747.70	227.28
748.03	227.25
748.36	227.15
748.68	227.02
749.01	226.79
749.34	226.61
749.67	226.46
750.00	226.41
750.33	226.46
750.65	226.32
750.98	225.74
751.31	225.70
751.64	225.61
751.97	225.70
752.29	225.54
752.62	225.19
752.95	225.00
753.28	224.86
753.60	224.69
753.93	224.68
754.26	224.55
754.59	224.33
754.91	224.11
755.24	223.95
755.57	223.72
755.90	223.48
756.22	223.33
756.55	223.18
756.88	222.91
757.20	222.54
757.53	222.28
757.86	222.19
758.19	222.06
758.51	221.97
758.84	221.62
759.17	221.43
759.49	221.37
759.82	221.47
760.15	221.33
760.47	221.18
760.80	220.94
761.13	220.90
761.45	220.72
761.78	220.57
762.11	220.50
762.43	220.41
762.76	220.36
763.08	220.30
763.41	220.25
763.74	220.16
764.06	220.12
764.39	220.13
764.71	220.02
765.04	219.88
765.37	219.75
765.69	219.77
766.02	219.69
766.34	219.51
766.67	219.30
767.00	219.36
767.32	219.48
767.65	219.58
767.97	219.52
768.30	219.52
768.62	219.47
768.95	219.30
769.27	219.24
769.60	219.21
769.92	219.10
770.25	218.91
770.57	218.80
770.90	218.65
771.22	218.46
771.55	218.40
771.87	218.35
772.20	218.21
772.52	218.39
772.85	218.74
773.17	218.76
773.50	218.68
773.82	218.55
774.15	218.29
774.47	218.00
774.80	217.83
775.12	217.75
775.45	217.68
775.77	217.68
776.09	217.62
776.42	217.56
776.74	217.63
777.07	217.60
777.39	217.57
777.72	217.54
778.04	217.60
778.36	217.54
778.69	217.42
779.01	217.45
779.33	217.07
779.66	216.60
779.98	216.57
780.31	216.48
780.63	216.50
780.95	216.56
781.28	216.55
781.60	216.48
781.92	216.44
782.25	216.41
782.57	216.34
782.89	216.30
783.22	216.25
783.54	216.12
783.86	216.13
784.19	216.08
784.51	216.17
784.83	216.06
785.16	216.00
785.48	216.10
785.80	216.09
786.12	216.03
786.45	216.03
786.77	216.00
787.09	216.00
787.42	215.86
787.74	215.83
788.06	215.80
788.38	215.81
788.71	215.75
789.03	215.71
789.35	215.70
789.67	215.61
789.99	215.62
790.32	215.60
790.64	215.59
790.96	215.88
791.28	215.72
791.61	215.74
791.93	215.76
792.25	215.71
792.57	215.86
792.89	215.79
793.21	215.80
793.54	215.70
793.86	215.62
794.18	215.59
794.50	215.47
794.82	215.44
795.14	215.36
795.47	215.36
795.79	215.39
796.11	215.29
796.43	215.23
796.75	215.20
797.07	215.13
797.39	215.08
797.71	214.79
798.04	214.70
798.36	214.60
798.68	214.54
799.00	214.48
799.32	214.31
799.64	214.41
799.96	214.34
800.28	214.40
800.60	214.34
800.92	214.38
801.24	214.39
801.56	214.39
801.89	214.40
802.21	214.42
802.53	214.25
802.85	214.31
803.17	214.41
803.49	214.23
803.81	214.14
804.13	214.09
804.45	213.95
804.77	214.03
805.09	214.01
805.41	213.93
805.73	213.83
806.05	213.72
806.37	213.61
806.69	213.52
807.01	213.43
807.33	213.50
807.65	213.35
807.97	213.44
808.28	213.36
808.60	213.27
808.92	213.20
809.24	213.42
809.56	213.35
809.88	213.30
810.20	213.35
810.52	213.45
810.84	213.33
811.16	213.31
811.48	213.24
811.80	213.36
812.12	213.32
812.43	213.38
812.75	213.34
813.07	213.34
813.39	213.42
813.71	213.37
814.03	213.32
814.35	213.27
814.67	213.13
814.98	213.08
815.30	213.06
815.62	212.97
815.94	212.71
816.26	212.66
816.58	212.60
816.89	212.63
817.21	212.52
817.53	212.55
817.85	212.50
818.17	212.52
818.48	212.38
818.80	212.49
819.12	212.40
819.44	212.37
819.76	212.35
820.07	212.28
820.39	212.21
820.71	212.21
821.03	212.22
821.34	212.17
821.66	212.24
821.98	212.32
822.30	212.31
822.61	212.56
822.93	212.49
823.25	212.47
823.57	212.41
823.88	212.53
824.20	212.54
824.52	212.63
824.83	212.62
825.15	212.63
825.47	212.54
825.79	212.61
826.10	212.61
826.42	212.54
826.74	212.60
827.05	212.64
827.37	212.65
827.69	212.63
828.00	212.63
828.32	212.55
828.64	212.51
828.95	212.73
829.27	212.58
829.58	212.59
829.90	212.65
830.22	212.64
830.53	212.52
830.85	212.50
831.17	212.45
831.48	212.42
831.80	212.40
832.11	212.40
832.43	212.28
832.75	212.26
833.06	212.49
833.38	212.33
833.69	212.31
834.01	212.27
834.32	212.28
834.64	212.32
834.96	212.38
835.27	212.31
835.59	212.16
835.90	212.10
836.22	212.11
836.53	212.00
836.85	211.97
837.16	212.34
837.48	212.34
837.79	212.46
838.11	212.46
838.42	212.45
838.74	212.45
839.05	212.41
839.37	212.37
839.68	212.15
840.00	212.16
840.31	212.11
840.63	212.06
840.94	211.96
841.26	211.90
841.57	211.84
841.88	211.95
842.20	211.93
842.51	211.93
842.83	211.94
843.14	212.22
843.46	212.25
843.77	211.92
844.08	211.89
844.40	211.73
844.71	211.69
845.03	211.61
845.34	211.55
845.65	211.58
845.97	211.63
846.28	211.62
846.60	211.67
846.91	211.68
847.22	211.70
847.54	212.01
847.85	211.99
848.16	212.00
848.48	211.86
848.79	211.93
849.10	211.91
849.42	211.92
849.73	211.65
850.04	211.62
850.36	211.61
850.67	211.60
850.98	211.59
851.30	211.63
851.61	211.61
851.92	211.62
852.23	211.73
852.55	211.71
852.86	211.70
853.17	211.71
853.49	211.74
853.80	211.78
854.11	211.60
854.42	211.64
854.74	211.58
855.05	211.62
855.36	211.44
855.67	211.46
855.99	211.48
856.30	211.86
856.61	211.93
856.92	211.85
857.23	211.93
857.55	211.91
857.86	211.87
858.17	212.02
858.48	211.93
858.79	211.89
859.11	211.90
859.42	211.93
859.73	211.89
860.04	211.85
860.35	211.77
860.66	211.67
860.98	211.67
861.29	211.73
861.60	211.73
861.91	211.86
862.22	211.83
862.53	211.82
862.84	211.41
863.16	211.44
863.47	211.39
863.78	211.40
864.09	211.40
864.40	211.46
864.71	211.45
865.02	211.55
865.33	211.41
865.64	211.41
865.95	211.39
866.27	211.69
866.58	211.70
866.89	211.72
867.20	211.78
867.51	211.73
867.82	211.63
868.13	211.76
868.44	211.63
868.75	211.68
869.06	211.58
869.37	211.58
869.68	211.46
869.99	211.58
870.30	211.55
870.61	211.62
870.92	211.52
871.23	211.48
871.54	211.53
871.85	211.68
872.16	211.67
872.47	211.70
872.78	211.43
873.09	211.52
873.40	211.50
873.71	211.47
874.02	211.52
874.33	211.60
874.64	211.49
874.95	211.65
875.26	211.61
875.56	211.63
875.87	211.67
876.18	211.67
876.49	212.00
876.80	211.99
877.11	211.91
877.42	212.00
877.73	212.00
878.04	211.91
878.35	211.96
878.66	211.99
878.96	212.00
879.27	212.02
879.58	211.95
879.89	211.96
880.20	212.09
880.51	212.01
880.82	212.01
881.12	212.03
881.43	211.88
881.74	211.82
882.05	211.88
882.36	211.92
882.67	211.99
882.97	211.67
883.28	211.64
883.59	211.63
883.90	211.65
884.21	211.74
884.51	211.72
884.82	211.60
885.13	211.59
885.44	211.56
885.74	211.54
886.05	211.54
886.36	211.50
886.67	211.42
886.98	211.65
887.28	211.68
887.59	211.70
887.90	211.73
888.20	211.77
888.51	211.85
888.82	211.79
889.13	211.84
889.43	212.10
889.74	212.10
890.05	212.16
890.35	212.16
890.66	212.01
890.97	212.07
891.28	212.07
891.58	212.10
891.89	212.08
892.20	212.05
892.50	212.04
892.81	212.07
893.12	211.98
893.42	211.79
893.73	211.83
894.04	211.82
894.34	211.85
894.65	211.86
894.95	211.73
895.26	211.73
895.57	211.80
895.87	211.44
896.18	211.51
896.48	211.55
896.79	211.46
897.10	211.52
897.40	211.46
897.71	211.49
898.01	211.41
898.32	211.48
898.63	211.50
898.93	211.57
899.24	211.59
899.54	211.57
899.85	211.59
900.15	211.49
900.46	211.48
900.76	211.51
901.07	211.50
901.38	211.51
901.68	211.53
901.99	211.36
902.29	211.39
902.60	211.31
902.90	211.20
903.21	211.20
903.51	211.19
903.82	211.27
904.12	211.23
904.43	211.34
904.73	211.28
905.03	211.29
905.34	211.58
905.64	211.52
905.95	211.52
906.25	211.55
906.56	211.59
906.86	211.55
907.17	211.52
907.47	211.50
907.77	211.46
908.08	211.35
908.38	211.42
908.69	211.40
908.99	211.48
909.30	211.54
909.60	211.55
909.90	211.55
910.21	211.50
910.51	211.47
910.81	211.38
911.12	211.40
911.42	211.42
911.73	210.99
912.03	211.01
912.33	211.11
912.64	211.06
912.94	211.00
913.24	210.92
913.55	210.89
913.85	210.86
914.15	210.99
914.46	211.11
914.76	210.98
915.06	211.01
915.37	210.90
915.67	210.81
915.97	210.75
916.27	210.70
916.58	210.67
916.88	210.69
917.18	210.65
917.49	210.86
917.79	210.78
918.09	210.85
918.39	210.98
918.70	210.92
919.00	210.92
919.30	211.14
919.60	211.11
919.91	211.10
920.21	211.10
920.51	210.98
920.81	210.94
921.12	211.12
921.42	211.14
921.72	211.18
922.02	211.25
922.32	211.26
922.63	211.27
922.93	211.40
923.23	211.38
923.53	211.38
923.83	211.20
924.13	211.33
924.44	211.38
924.74	211.43
925.04	211.49
925.34	211.55
925.64	211.38
925.94	211.44
926.24	211.66
926.55	211.64
926.85	211.67
927.15	211.71
927.45	211.67
927.75	211.71
928.05	211.72
928.35	211.71
928.65	211.85
928.95	211.90
929.26	211.85
929.56	211.93
929.86	212.00
930.16	211.96
930.46	211.86
930.76	211.81
931.06	211.73
931.36	211.71
931.66	211.68
931.96	211.74
932.26	211.75
932.56	211.58
932.86	211.67
933.16	211.73
933.46	211.66
933.76	211.57
934.06	211.66
934.36	211.79
934.66	211.76
934.96	211.72
935.26	211.65
935.56	211.67
935.86	211.58
936.16	211.50
936.46	211.50
936.76	211.48
937.06	211.42
937.36	211.41
937.66	211.40
937.96	211.36
938.26	211.25
938.56	211.25
938.86	211.21
939.16	211.23
939.46	211.20
939.76	211.24
940.06	211.20
940.35	211.08
940.65	210.84
940.95	210.95
941.25	210.88
941.55	210.84
941.85	210.80
942.15	210.90
942.45	210.98
942.75	210.97
943.04	210.99
943.34	211.07
943.64	210.99
943.94	210.99
944.24	211.03
944.54	211.02
944.84	210.99
945.13	210.95
945.43	210.90
945.73	210.85
946.03	210.78
946.33	210.84
946.62	210.79
946.92	210.77
947.22	210.75
947.52	210.74
947.82	210.78
948.11	210.68
948.41	210.58
948.71	210.56
949.01	210.56
949.31	210.57
949.60	210.60
949.90	210.61
950.20	210.59
950.50	210.61
950.79	210.62
951.09	210.69
951.39	210.78
951.69	210.73
951.98	210.91
952.28	210.94
952.58	210.93
952.87	210.97
953.17	211.09
953.47	211.05
953.76	211.04
954.06	211.00
954.36	211.07
954.66	211.09
954.95	211.13
955.25	211.19
955.55	211.17
955.84	211.09
956.14	211.15
956.44	211.18
956.73	211.08
957.03	211.10
957.32	211.02
957.62	211.05
957.92	211.14
958.21	211.00
958.51	211.47
958.81	211.45
959.10	211.45
959.40	211.51
959.69	211.56
959.99	211.67
960.29	211.68
960.58	211.65
960.88	211.76
961.17	211.77
961.47	211.76
961.76	211.73
962.06	211.75
962.36	211.72
962.65	211.69
962.95	211.71
963.24	211.69
963.54	211.74
963.83	211.68
964.13	211.65
964.42	211.58
964.72	211.23
965.01	211.29
965.31	211.26
965.60	211.19
965.90	211.36
966.19	211.16
966.49	211.17
966.78	211.15
967.08	211.09
967.37	211.04
967.67	210.95
967.96	211.03
968.26	211.07
968.55	211.07
968.85	211.05
969.14	211.05
969.43	211.04
969.73	210.96
970.02	210.92
970.32	210.91
970.61	210.98
970.91	210.88
971.20	210.79
971.49	210.77
971.79	210.85
972.08	210.66
972.38	210.77
972.67	210.82
972.96	210.96
973.26	210.90
973.55	211.00
973.85	211.07
974.14	211.11
974.43	211.16
974.73	211.13
975.02	211.17
975.31	211.20
975.61	211.26
975.90	211.31
976.19	211.29
976.49	211.28
976.78	211.26
977.07	211.21
977.37	211.25
977.66	211.29
977.95	211.18
978.24	211.10
978.54	211.23
978.83	211.15
979.12	211.05
979.42	211.15
979.71	211.08
980.00	211.00
980.29	210.95
980.59	210.85
980.88	210.94
981.17	210.93
981.46	210.90
981.76	210.82
982.05	210.94
982.34	210.98
982.63	210.97
982.93	210.97
983.22	211.11
983.51	211.08
983.80	211.14
984.09	211.16
984.39	211.20
984.68	211.13
984.97	211.18
985.26	211.11
985.55	211.03
985.85	211.00
986.14	210.99
986.43	211.01
986.72	210.95
987.01	210.86
987.30	210.80
987.59	210.75
987.89	210.83
988.18	210.65
988.47	210.65
988.76	210.67
989.05	210.60
989.34	210.59
989.63	210.72
989.92	210.61
990.22	210.63
990.51	210.62
990.80	210.56
991.09	210.60
991.38	210.77
991.67	210.80
991.96	210.72
992.25	210.85
992.54	210.79
992.83	210.84
993.12	210.79
993.41	210.88
993.70	211.02
993.99	211.09
994.28	211.16
994.58	211.21
994.87	211.19
995.16	211.23
995.45	211.19
995.74	211.11
996.03	211.17
996.32	211.21
996.61	211.31
996.90	211.26
997.19	211.27
997.48	211.25
997.77	211.15
998.06	211.19
998.34	211.09
998.63	211.12
998.92	211.11
999.21	211.18
999.50	211.20
999.79	211.16
1000.08	211.09
1000.37	211.13
1000.66	211.09
1000.95	211.10
1001.24	211.11
1001.53	211.12
1001.82	211.16
1002.11	211.09
1002.40	211.08
1002.68	211.11
1002.97	211.40
1003.26	211.35
1003.55	211.26
1003.84	211.32
1004.13	211.52
1004.42	211.52
1004.71	211.55
1004.99	211.61
1005.28	211.71
1005.57	211.70
1005.86	211.64
1006.15	211.64
1006.44	211.54
1006.72	211.52
1007.01	211.49
1007.30	211.48
1007.59	211.46
1007.88	211.40
1008.17	211.49
1008.45	211.43
1008.74	211.28
1009.03	211.15
1009.32	211.08
1009.60	211.10
1009.89	211.06
1010.18	210.85
1010.47	210.82
1010.76	210.79
1011.04	210.68
1011.33	210.63
1011.62	210.64
1011.91	210.67
1012.19	210.70
1012.48	210.78
1012.77	210.84
1013.05	210.99
1013.34	211.00
1013.63	210.96
1013.92	211.01
1014.20	210.90
1014.49	210.93
1014.78	210.98
1015.06	210.82
1015.35	210.87
1015.64	210.86
1015.92	210.89
1016.21	210.96
1016.50	210.93
1016.78	210.97
1017.07	211.01
1017.36	210.93
1017.64	210.80
1017.93	210.77
1018.22	210.72
1018.50	210.65
1018.79	210.61
1019.08	210.48
1019.36	210.48
1019.65	210.46
1019.93	210.57
1020.22	210.65
1020.51	210.82
1020.79	210.84
1021.08	210.35
1021.36	209.65
1021.65	210.55
1021.94	210.85
1022.22	210.90
1022.51	210.35
1022.79	213.20
1023.08	211.15
1023.36	215.05
1023.65	211.00
>>>>>End Processed Spectral Data<<<<<
