SpectraSuite Data File
++++++++++++++++++++++++++++++++++++
Date: Mon Feb 25 17:16:58 EST 2013
User: group
Dark Spectrum Present: No
Reference Spectrum Present: No
Number of Sampled Component Spectra: 1
Spectrometers: USB2E7196
Integration Time (usec): 104000 (USB2E7196)
Spectra Averaged: 20 (USB2E7196)
Boxcar Smoothing: 10 (USB2E7196)
Correct for Electrical Dark: No (USB2E7196)
Strobe/Lamp Enabled: No (USB2E7196)
Correct for Detector Non-linearity: No (USB2E7196)
Correct for Stray Light: No (USB2E7196)
Number of Pixels in Processed Spectrum: 2048
>>>>>Begin Processed Spectral Data<<<<<
339.09	0.00
339.48	197.95
339.86	198.85
340.24	201.70
340.63	202.35
341.01	208.30
341.39	204.75
341.78	206.45
342.16	208.75
342.54	209.55
342.93	197.99
343.31	207.98
343.69	208.59
344.07	209.13
344.46	209.62
344.84	210.11
345.22	210.23
345.60	210.53
345.99	210.80
346.37	210.91
346.75	210.97
347.13	211.10
347.52	211.21
347.90	211.45
348.28	211.52
348.66	211.60
349.05	211.60
349.43	211.67
349.81	211.74
350.19	211.78
350.57	211.94
350.96	211.91
351.34	212.10
351.72	212.12
352.10	212.26
352.48	212.37
352.87	212.41
353.25	212.53
353.63	212.61
354.01	212.62
354.39	212.78
354.77	212.86
355.15	213.06
355.54	213.12
355.92	213.07
356.30	213.20
356.68	213.47
357.06	213.53
357.44	213.61
357.82	213.65
358.20	213.82
358.58	213.87
358.97	214.02
359.35	214.12
359.73	214.31
360.11	214.35
360.49	214.36
360.87	214.41
361.25	214.50
361.63	214.63
362.01	214.74
362.39	214.71
362.77	214.75
363.15	214.75
363.53	214.68
363.91	214.72
364.29	214.72
364.67	214.37
365.05	214.43
365.43	214.40
365.81	214.44
366.19	214.54
366.57	214.70
366.95	214.70
367.33	214.61
367.71	214.58
368.09	214.56
368.47	214.53
368.85	214.45
369.23	214.49
369.61	214.36
369.99	214.42
370.37	214.49
370.75	214.70
371.13	214.62
371.51	214.62
371.89	214.71
372.27	214.70
372.65	214.78
373.03	214.67
373.41	214.59
373.78	214.55
374.16	214.37
374.54	214.19
374.92	214.08
375.30	214.01
375.68	213.89
376.06	213.90
376.44	213.84
376.82	213.81
377.19	213.72
377.57	213.72
377.95	213.58
378.33	213.44
378.71	213.18
379.09	213.17
379.47	213.19
379.84	213.05
380.22	212.97
380.60	212.78
380.98	212.70
381.36	212.71
381.73	212.60
382.11	212.60
382.49	212.59
382.87	212.49
383.25	212.45
383.62	212.81
384.00	212.63
384.38	212.60
384.76	212.65
385.13	212.69
385.51	212.63
385.89	212.55
386.27	212.53
386.64	212.58
387.02	212.47
387.40	212.36
387.78	212.33
388.15	212.34
388.53	212.40
388.91	212.35
389.29	212.28
389.66	212.34
390.04	212.25
390.42	212.34
390.79	212.40
391.17	212.39
391.55	212.04
391.92	212.07
392.30	212.08
392.68	212.04
393.05	212.00
393.43	212.00
393.81	212.00
394.18	211.92
394.56	211.84
394.94	211.93
395.31	211.93
395.69	212.13
396.06	212.15
396.44	212.16
396.82	212.24
397.19	212.44
397.57	212.46
397.95	212.52
398.32	212.35
398.70	212.37
399.07	212.45
399.45	212.47
399.82	212.52
400.20	212.50
400.58	212.50
400.95	212.34
401.33	212.43
401.70	212.76
402.08	212.85
402.45	212.97
402.83	213.10
403.20	213.22
403.58	213.06
403.95	213.12
404.33	213.27
404.71	213.38
405.08	213.64
405.46	213.72
405.83	213.91
406.21	214.11
406.58	214.25
406.96	214.41
407.33	214.54
407.70	214.76
408.08	215.29
408.45	215.53
408.83	215.88
409.20	216.10
409.58	216.17
409.95	216.48
410.33	216.79
410.70	216.97
411.08	217.34
411.45	217.79
411.82	218.13
412.20	218.63
412.57	219.21
412.95	219.41
413.32	220.05
413.69	220.50
414.07	221.11
414.44	221.78
414.82	222.40
415.19	223.24
415.56	223.98
415.94	224.48
416.31	225.44
416.68	226.37
417.06	227.52
417.43	228.60
417.81	229.79
418.18	231.01
418.55	232.26
418.93	233.53
419.30	234.93
419.67	236.38
420.04	237.85
420.42	239.35
420.79	241.33
421.16	243.04
421.54	245.10
421.91	246.96
422.28	248.89
422.66	250.97
423.03	253.20
423.40	255.41
423.77	257.81
424.15	260.11
424.52	262.56
424.89	265.19
425.26	267.67
425.64	270.18
426.01	272.88
426.38	275.63
426.75	278.60
427.13	281.48
427.50	284.54
427.87	287.68
428.24	290.75
428.61	293.63
428.99	297.23
429.36	300.70
429.73	304.24
430.10	307.90
430.47	311.65
430.85	315.29
431.22	319.30
431.59	323.67
431.96	327.74
432.33	332.20
432.70	336.47
433.08	341.48
433.45	346.24
433.82	350.99
434.19	356.34
434.56	361.45
434.93	366.30
435.30	371.30
435.68	376.70
436.05	382.17
436.42	387.55
436.79	392.36
437.16	397.65
437.53	403.27
437.90	408.77
438.27	414.12
438.64	419.66
439.01	424.82
439.38	429.30
439.75	433.81
440.13	438.81
440.50	443.54
440.87	447.46
441.24	451.57
441.61	455.87
441.98	459.12
442.35	462.94
442.72	466.94
443.09	470.73
443.46	473.03
443.83	474.36
444.20	475.74
444.57	477.40
444.94	478.14
445.31	479.05
445.68	480.10
446.05	480.34
446.42	479.61
446.79	478.87
447.16	477.85
447.53	477.19
447.90	475.09
448.27	472.94
448.64	469.95
449.01	467.66
449.37	463.84
449.74	460.15
450.11	455.94
450.48	451.13
450.85	446.26
451.22	442.11
451.59	438.35
451.96	434.45
452.33	429.60
452.70	425.13
453.07	419.71
453.43	414.05
453.80	408.97
454.17	404.15
454.54	399.53
454.91	394.68
455.28	389.77
455.65	385.19
456.02	381.04
456.38	377.24
456.75	372.46
457.12	368.52
457.49	364.63
457.86	360.57
458.23	357.34
458.59	353.69
458.96	350.03
459.33	346.81
459.70	343.64
460.07	341.05
460.43	338.17
460.80	335.51
461.17	333.15
461.54	330.55
461.91	328.11
462.27	325.50
462.64	323.49
463.01	321.24
463.38	319.05
463.74	316.45
464.11	314.51
464.48	312.75
464.85	310.99
465.21	309.71
465.58	308.22
465.95	306.41
466.32	305.00
466.68	303.53
467.05	302.10
467.42	300.60
467.78	299.09
468.15	297.74
468.52	296.68
468.88	295.25
469.25	294.06
469.62	293.12
469.98	292.22
470.35	291.25
470.72	290.35
471.08	289.49
471.45	288.71
471.82	287.98
472.18	287.16
472.55	286.65
472.92	285.88
473.28	285.40
473.65	284.93
474.02	284.36
474.38	284.05
474.75	283.73
475.11	283.38
475.48	283.24
475.85	283.01
476.21	282.76
476.58	282.71
476.94	282.77
477.31	282.73
477.67	282.65
478.04	282.71
478.41	282.87
478.77	283.24
479.14	283.45
479.50	283.69
479.87	284.11
480.23	284.46
480.60	284.89
480.96	285.27
481.33	285.95
481.69	286.60
482.06	287.20
482.42	287.88
482.79	288.62
483.15	289.43
483.52	290.43
483.88	291.35
484.25	292.30
484.61	293.40
484.98	294.59
485.34	296.02
485.71	297.41
486.07	298.78
486.44	300.00
486.80	301.55
487.17	303.18
487.53	305.02
487.90	306.91
488.26	309.03
488.62	311.36
488.99	313.51
489.35	315.86
489.72	318.40
490.08	321.11
490.44	323.89
490.81	326.86
491.17	329.88
491.54	333.24
491.90	336.64
492.26	340.13
492.63	343.85
492.99	347.73
493.36	351.94
493.72	356.45
494.08	360.97
494.45	365.90
494.81	370.97
495.17	376.22
495.54	381.73
495.90	387.25
496.26	393.04
496.63	399.29
496.99	405.74
497.35	412.35
497.72	419.28
498.08	426.50
498.44	433.96
498.80	441.89
499.17	450.01
499.53	458.43
499.89	467.31
500.26	476.28
500.62	485.49
500.98	495.09
501.34	505.02
501.71	515.47
502.07	526.11
502.43	537.08
502.79	548.10
503.16	559.76
503.52	571.81
503.88	584.03
504.24	596.51
504.60	609.28
504.97	622.79
505.33	636.29
505.69	650.71
506.05	665.13
506.41	679.84
506.78	694.77
507.14	710.23
507.50	725.87
507.86	741.93
508.22	758.52
508.59	775.10
508.95	792.38
509.31	809.75
509.67	827.70
510.03	845.88
510.39	864.68
510.75	883.67
511.12	902.95
511.48	922.54
511.84	942.55
512.20	962.74
512.56	983.12
512.92	1004.04
513.28	1024.86
513.64	1046.13
514.00	1067.22
514.37	1088.89
514.73	1110.86
515.09	1132.96
515.45	1155.11
515.81	1177.40
516.17	1200.09
516.53	1222.69
516.89	1245.73
517.25	1268.37
517.61	1291.29
517.97	1314.34
518.33	1337.23
518.69	1360.24
519.05	1383.65
519.41	1407.17
519.77	1431.10
520.13	1454.32
520.49	1477.45
520.85	1500.89
521.21	1524.46
521.57	1548.29
521.93	1571.14
522.29	1594.95
522.65	1618.70
523.01	1642.04
523.37	1664.88
523.73	1688.20
524.09	1711.22
524.45	1734.29
524.81	1757.38
525.17	1780.77
525.53	1803.64
525.89	1826.51
526.25	1849.14
526.61	1870.96
526.97	1892.95
527.33	1914.46
527.68	1936.95
528.04	1958.35
528.40	1978.88
528.76	1999.77
529.12	2021.26
529.48	2043.66
529.84	2064.38
530.20	2085.10
530.56	2106.10
530.91	2127.34
531.27	2148.10
531.63	2168.25
531.99	2188.36
532.35	2207.64
532.71	2226.86
533.07	2246.37
533.42	2265.26
533.78	2284.42
534.14	2302.82
534.50	2319.93
534.86	2338.27
535.21	2354.51
535.57	2372.72
535.93	2389.90
536.29	2406.37
536.65	2422.76
537.00	2437.70
537.36	2452.81
537.72	2467.05
538.08	2481.55
538.44	2495.93
538.79	2509.70
539.15	2523.72
539.51	2537.26
539.87	2552.06
540.22	2565.43
540.58	2579.02
540.94	2592.26
541.29	2603.50
541.65	2614.93
542.01	2627.32
542.37	2637.96
542.72	2649.74
543.08	2659.48
543.44	2670.98
543.79	2680.75
544.15	2689.55
544.51	2699.33
544.87	2709.10
545.22	2717.70
545.58	2725.59
545.94	2732.80
546.29	2739.26
546.65	2745.60
547.01	2751.56
547.36	2756.40
547.72	2761.32
548.07	2765.51
548.43	2769.29
548.79	2773.31
549.14	2777.45
549.50	2780.87
549.86	2783.97
550.21	2786.60
550.57	2790.09
550.92	2791.19
551.28	2792.91
551.64	2794.81
551.99	2796.86
552.35	2797.40
552.70	2798.90
553.06	2800.24
553.41	2801.28
553.77	2802.32
554.13	2802.50
554.48	2803.26
554.84	2803.86
555.19	2803.66
555.55	2802.76
555.90	2801.70
556.26	2800.83
556.61	2799.44
556.97	2797.33
557.32	2795.71
557.68	2793.27
558.03	2790.41
558.39	2788.65
558.74	2787.70
559.10	2785.90
559.45	2783.10
559.81	2781.17
560.16	2778.33
560.52	2775.62
560.87	2772.60
561.23	2768.86
561.58	2766.03
561.94	2761.48
562.29	2756.79
562.64	2753.15
563.00	2749.73
563.35	2746.69
563.71	2744.07
564.06	2741.32
564.42	2738.66
564.77	2735.74
565.12	2732.85
565.48	2729.32
565.83	2725.65
566.19	2721.92
566.54	2716.92
566.89	2712.08
567.25	2707.68
567.60	2703.31
567.96	2698.17
568.31	2693.50
568.66	2688.61
569.02	2682.99
569.37	2677.47
569.72	2672.35
570.08	2666.59
570.43	2660.39
570.78	2653.83
571.14	2646.55
571.49	2639.36
571.84	2633.09
572.20	2625.24
572.55	2618.42
572.90	2610.76
573.26	2602.98
573.61	2594.64
573.96	2587.33
574.31	2578.94
574.67	2569.78
575.02	2560.59
575.37	2551.97
575.72	2542.47
576.08	2534.40
576.43	2525.43
576.78	2517.34
577.13	2509.26
577.49	2500.40
577.84	2491.92
578.19	2483.52
578.54	2476.11
578.90	2468.61
579.25	2459.44
579.60	2450.39
579.95	2440.89
580.30	2432.85
580.66	2424.95
581.01	2415.96
581.36	2406.77
581.71	2398.06
582.06	2389.72
582.42	2381.58
582.77	2372.74
583.12	2363.99
583.47	2355.79
583.82	2347.97
584.17	2339.20
584.53	2330.55
584.88	2322.28
585.23	2313.56
585.58	2305.01
585.93	2295.71
586.28	2287.00
586.63	2278.34
586.98	2270.42
587.34	2262.72
587.69	2253.96
588.04	2245.02
588.39	2236.98
588.74	2228.18
589.09	2220.44
589.44	2211.76
589.79	2203.59
590.14	2195.74
590.49	2187.54
590.84	2178.73
591.19	2171.38
591.54	2163.13
591.89	2153.76
592.25	2144.84
592.60	2135.95
592.95	2126.69
593.30	2117.27
593.65	2107.56
594.00	2098.37
594.35	2090.95
594.70	2082.04
595.05	2073.88
595.40	2065.40
595.75	2055.92
596.10	2047.95
596.45	2039.90
596.80	2032.29
597.15	2024.27
597.50	2015.79
597.85	2007.97
598.19	1999.78
598.54	1990.83
598.89	1983.00
599.24	1976.18
599.59	1969.04
599.94	1962.53
600.29	1955.54
600.64	1948.70
600.99	1941.00
601.34	1934.14
601.69	1925.59
602.04	1917.47
602.39	1909.30
602.74	1901.77
603.08	1895.85
603.43	1889.24
603.78	1881.41
604.13	1873.96
604.48	1866.71
604.83	1860.40
605.18	1854.42
605.53	1847.25
605.87	1839.85
606.22	1832.88
606.57	1825.35
606.92	1817.56
607.27	1809.31
607.62	1801.62
607.96	1794.46
608.31	1787.86
608.66	1779.76
609.01	1771.85
609.36	1764.30
609.70	1756.50
610.05	1748.23
610.40	1739.76
610.75	1731.07
611.10	1723.49
611.44	1714.28
611.79	1705.10
612.14	1695.57
612.49	1685.65
612.83	1676.89
613.18	1667.58
613.53	1658.25
613.88	1648.82
614.22	1640.34
614.57	1631.27
614.92	1622.42
615.27	1612.95
615.61	1603.83
615.96	1595.62
616.31	1587.27
616.65	1579.49
617.00	1571.43
617.35	1563.28
617.70	1554.40
618.04	1545.23
618.39	1535.46
618.74	1527.33
619.08	1519.03
619.43	1510.59
619.78	1502.44
620.12	1494.10
620.47	1486.13
620.82	1477.46
621.16	1468.78
621.51	1460.17
621.85	1452.17
622.20	1443.44
622.55	1434.88
622.89	1426.25
623.24	1417.75
623.59	1409.06
623.93	1400.34
624.28	1391.71
624.62	1383.43
624.97	1375.10
625.32	1367.59
625.66	1360.06
626.01	1352.10
626.35	1344.37
626.70	1336.78
627.04	1329.27
627.39	1321.72
627.73	1314.15
628.08	1307.03
628.43	1299.28
628.77	1291.35
629.12	1283.45
629.46	1276.64
629.81	1269.41
630.15	1262.03
630.50	1254.48
630.84	1246.77
631.19	1239.13
631.53	1231.87
631.88	1223.94
632.22	1216.07
632.57	1208.49
632.91	1201.15
633.26	1193.61
633.60	1186.26
633.95	1179.17
634.29	1171.43
634.64	1164.23
634.98	1156.58
635.32	1149.51
635.67	1142.98
636.01	1136.45
636.36	1129.29
636.70	1122.35
637.05	1115.45
637.39	1108.76
637.73	1102.36
638.08	1096.51
638.42	1090.42
638.77	1083.88
639.11	1077.58
639.45	1071.41
639.80	1064.73
640.14	1057.70
640.49	1051.29
640.83	1044.75
641.17	1038.04
641.52	1031.44
641.86	1024.52
642.20	1018.04
642.55	1010.74
642.89	1003.83
643.23	996.83
643.58	990.92
643.92	983.91
644.26	977.27
644.61	970.76
644.95	963.99
645.29	957.09
645.64	950.27
645.98	943.72
646.32	937.40
646.66	930.95
647.01	924.64
647.35	918.61
647.69	911.94
648.04	905.58
648.38	899.23
648.72	893.00
649.06	886.67
649.41	880.57
649.75	874.53
650.09	868.59
650.43	862.58
650.78	855.80
651.12	849.71
651.46	843.64
651.80	837.59
652.14	831.61
652.49	825.67
652.83	819.43
653.17	812.95
653.51	806.72
653.85	800.91
654.20	795.04
654.54	789.03
654.88	783.15
655.22	777.16
655.56	770.97
655.90	765.22
656.25	759.47
656.59	753.63
656.93	748.11
657.27	742.61
657.61	736.82
657.95	731.51
658.29	726.13
658.64	720.90
658.98	715.44
659.32	709.76
659.66	704.38
660.00	699.12
660.34	694.09
660.68	688.74
661.02	683.23
661.36	678.11
661.70	673.20
662.05	668.35
662.39	663.87
662.73	659.36
663.07	654.85
663.41	650.20
663.75	645.70
664.09	641.06
664.43	636.16
664.77	631.63
665.11	626.97
665.45	622.50
665.79	618.09
666.13	613.88
666.47	609.58
666.81	605.28
667.15	601.01
667.49	596.97
667.83	593.19
668.17	589.39
668.51	585.44
668.85	581.48
669.19	577.93
669.53	573.85
669.87	569.87
670.21	565.98
670.55	562.14
670.89	558.73
671.23	555.16
671.57	551.64
671.91	548.20
672.25	544.72
672.58	541.23
672.92	537.65
673.26	534.20
673.60	531.02
673.94	527.65
674.28	524.40
674.62	521.29
674.96	517.97
675.30	514.80
675.64	511.74
675.97	508.49
676.31	505.26
676.65	502.32
676.99	499.51
677.33	496.38
677.67	493.55
678.01	490.21
678.34	487.28
678.68	484.35
679.02	481.31
679.36	478.52
679.70	475.63
680.04	472.84
680.37	469.95
680.71	466.98
681.05	464.36
681.39	461.66
681.73	458.86
682.06	456.26
682.40	453.72
682.74	451.05
683.08	448.64
683.42	445.94
683.75	443.34
684.09	440.68
684.43	438.04
684.77	435.33
685.10	432.82
685.44	430.25
685.78	427.69
686.12	425.40
686.45	422.97
686.79	420.52
687.13	418.23
687.46	415.93
687.80	413.80
688.14	411.31
688.48	409.08
688.81	406.69
689.15	404.50
689.49	402.14
689.82	399.82
690.16	397.43
690.50	395.10
690.83	392.75
691.17	390.45
691.51	388.46
691.84	386.47
692.18	384.44
692.52	382.39
692.85	380.56
693.19	378.59
693.52	376.51
693.86	374.53
694.20	372.52
694.53	370.49
694.87	368.49
695.21	366.73
695.54	364.75
695.88	362.86
696.21	360.80
696.55	359.04
696.88	357.26
697.22	355.43
697.56	353.91
697.89	352.14
698.23	350.44
698.56	348.72
698.90	347.16
699.23	345.56
699.57	343.95
699.90	342.25
700.24	340.56
700.58	339.00
700.91	337.51
701.25	336.22
701.58	334.86
701.92	333.39
702.25	331.84
702.59	330.42
702.92	328.93
703.26	327.49
703.59	326.07
703.93	324.96
704.26	323.65
704.60	322.22
704.93	320.85
705.26	319.51
705.60	318.28
705.93	316.91
706.27	315.67
706.60	314.50
706.94	313.38
707.27	312.11
707.61	310.93
707.94	309.68
708.27	308.21
708.61	306.92
708.94	305.74
709.28	304.53
709.61	303.25
709.94	302.26
710.28	301.28
710.61	300.15
710.95	298.80
711.28	297.89
711.61	296.80
711.95	295.91
712.28	294.88
712.61	293.76
712.95	292.90
713.28	291.96
713.61	290.97
713.95	289.94
714.28	288.95
714.61	288.05
714.95	287.20
715.28	286.31
715.61	285.43
715.95	284.59
716.28	283.75
716.61	283.00
716.95	282.02
717.28	281.20
717.61	280.41
717.94	279.55
718.28	278.68
718.61	277.82
718.94	277.01
719.27	276.24
719.61	275.53
719.94	274.70
720.27	273.82
720.60	273.07
720.94	272.37
721.27	271.70
721.60	271.09
721.93	270.39
722.27	269.86
722.60	269.21
722.93	268.53
723.26	267.95
723.59	267.34
723.93	266.74
724.26	266.17
724.59	265.50
724.92	264.99
725.25	264.45
725.59	263.87
725.92	263.35
726.25	262.85
726.58	262.33
726.91	261.77
727.24	261.30
727.57	260.74
727.91	260.20
728.24	259.71
728.57	259.08
728.90	258.54
729.23	257.90
729.56	257.50
729.89	257.05
730.22	256.49
730.55	255.95
730.89	255.55
731.22	255.06
731.55	254.58
731.88	254.10
732.21	253.51
732.54	253.08
732.87	252.64
733.20	252.22
733.53	251.76
733.86	251.31
734.19	250.76
734.52	250.47
734.85	250.27
735.18	249.85
735.51	249.55
735.84	249.21
736.17	248.86
736.50	248.32
736.83	248.28
737.16	247.92
737.49	247.50
737.82	247.00
738.15	246.56
738.48	246.22
738.81	245.85
739.14	245.52
739.47	245.09
739.80	244.66
740.13	244.29
740.46	243.87
740.79	243.44
741.12	243.18
741.45	242.70
741.78	242.12
742.11	241.84
742.44	241.44
742.77	241.20
743.10	240.83
743.43	240.48
743.75	239.70
744.08	239.83
744.41	239.47
744.74	239.18
745.07	238.86
745.40	238.56
745.73	238.36
746.06	238.00
746.39	237.78
746.71	237.51
747.04	237.09
747.37	236.82
747.70	236.67
748.03	236.38
748.36	236.14
748.68	235.90
749.01	235.50
749.34	235.16
749.67	234.83
750.00	234.61
750.33	234.60
750.65	234.41
750.98	233.64
751.31	233.43
751.64	233.22
751.97	233.16
752.29	232.95
752.62	232.58
752.95	232.38
753.28	232.06
753.60	231.75
753.93	231.67
754.26	231.41
754.59	230.99
754.91	230.62
755.24	230.42
755.57	230.10
755.90	229.88
756.22	229.71
756.55	229.45
756.88	229.15
757.20	228.68
757.53	228.35
757.86	228.25
758.19	228.08
758.51	227.79
758.84	227.42
759.17	227.15
759.49	226.98
759.82	226.85
760.15	226.67
760.47	226.47
760.80	226.12
761.13	226.01
761.45	225.85
761.78	225.69
762.11	225.48
762.43	225.33
762.76	225.15
763.08	225.05
763.41	224.84
763.74	224.67
764.06	224.54
764.39	224.41
764.71	224.22
765.04	224.07
765.37	223.96
765.69	223.86
766.02	223.75
766.34	223.53
766.67	223.33
767.00	223.29
767.32	223.43
767.65	223.63
767.97	223.46
768.30	223.39
768.62	223.28
768.95	223.15
769.27	223.06
769.60	223.03
769.92	222.82
770.25	222.69
770.57	222.57
770.90	222.48
771.22	222.35
771.55	222.26
771.87	222.07
772.20	221.95
772.52	222.09
772.85	222.38
773.17	222.33
773.50	222.21
773.82	222.04
774.15	221.67
774.47	221.31
774.80	221.20
775.12	221.03
775.45	220.96
775.77	220.83
776.09	220.76
776.42	220.68
776.74	220.72
777.07	220.61
777.39	220.55
777.72	220.38
778.04	220.31
778.36	220.23
778.69	220.13
779.01	220.11
779.33	219.66
779.66	219.17
779.98	219.09
780.31	218.97
780.63	219.06
780.95	219.14
781.28	219.05
781.60	218.90
781.92	218.87
782.25	218.78
782.57	218.79
782.89	218.65
783.22	218.54
783.54	218.38
783.86	218.35
784.19	218.24
784.51	218.28
784.83	218.20
785.16	218.10
785.48	218.11
785.80	218.04
786.12	218.08
786.45	218.05
786.77	217.99
787.09	217.96
787.42	217.74
787.74	217.61
788.06	217.55
788.38	217.48
788.71	217.33
789.03	217.31
789.35	217.20
789.67	217.17
789.99	217.19
790.32	217.05
790.64	217.05
790.96	217.33
791.28	217.19
791.61	217.10
791.93	217.06
792.25	216.99
792.57	217.20
792.89	217.11
793.21	217.01
793.54	216.91
793.86	216.82
794.18	216.81
794.50	216.72
794.82	216.60
795.14	216.64
795.47	216.68
795.79	216.61
796.11	216.50
796.43	216.38
796.75	216.25
797.07	216.23
797.39	216.15
797.71	215.83
798.04	215.80
798.36	215.79
798.68	215.65
799.00	215.57
799.32	215.32
799.64	215.34
799.96	215.34
800.28	215.45
800.60	215.43
800.92	215.43
801.24	215.40
801.56	215.51
801.89	215.39
802.21	215.42
802.53	215.33
802.85	215.44
803.17	215.56
803.49	215.49
803.81	215.41
804.13	215.32
804.45	215.22
804.77	215.18
805.09	215.11
805.41	215.12
805.73	215.07
806.05	214.93
806.37	214.87
806.69	214.78
807.01	214.66
807.33	214.66
807.65	214.52
807.97	214.65
808.28	214.56
808.60	214.57
808.92	214.50
809.24	214.70
809.56	214.59
809.88	214.40
810.20	214.43
810.52	214.49
810.84	214.41
811.16	214.39
811.48	214.35
811.80	214.39
812.12	214.37
812.43	214.43
812.75	214.41
813.07	214.30
813.39	214.29
813.71	214.31
814.03	214.26
814.35	214.19
814.67	213.95
814.98	213.87
815.30	213.87
815.62	213.78
815.94	213.50
816.26	213.52
816.58	213.53
816.89	213.51
817.21	213.42
817.53	213.45
817.85	213.46
818.17	213.48
818.48	213.44
818.80	213.48
819.12	213.43
819.44	213.32
819.76	213.31
820.07	213.35
820.39	213.26
820.71	213.24
821.03	213.32
821.34	213.37
821.66	213.36
821.98	213.30
822.30	213.24
822.61	213.45
822.93	213.36
823.25	213.28
823.57	213.24
823.88	213.30
824.20	213.30
824.52	213.30
824.83	213.31
825.15	213.29
825.47	213.29
825.79	213.30
826.10	213.33
826.42	213.33
826.74	213.35
827.05	213.36
827.37	213.32
827.69	213.26
828.00	213.20
828.32	213.25
828.64	213.22
828.95	213.43
829.27	213.28
829.58	213.30
829.90	213.42
830.22	213.40
830.53	213.27
830.85	213.15
831.17	213.08
831.48	212.97
831.80	212.96
832.11	212.93
832.43	212.85
832.75	212.85
833.06	212.94
833.38	212.84
833.69	212.72
834.01	212.80
834.32	212.73
834.64	212.66
834.96	212.61
835.27	212.60
835.59	212.52
835.90	212.49
836.22	212.41
836.53	212.34
836.85	212.31
837.16	212.67
837.48	212.78
837.79	212.82
838.11	212.84
838.42	212.86
838.74	212.81
839.05	212.72
839.37	212.72
839.68	212.56
840.00	212.50
840.31	212.60
840.63	212.55
840.94	212.54
841.26	212.54
841.57	212.55
841.88	212.60
842.20	212.51
842.51	212.45
842.83	212.48
843.14	212.74
843.46	212.79
843.77	212.60
844.08	212.56
844.40	212.56
844.71	212.58
845.03	212.45
845.34	212.48
845.65	212.44
845.97	212.41
846.28	212.45
846.60	212.43
846.91	212.35
847.22	212.28
847.54	212.38
847.85	212.37
848.16	212.31
848.48	212.24
848.79	212.42
849.10	212.49
849.42	212.53
849.73	212.21
850.04	212.17
850.36	212.05
850.67	212.01
850.98	211.96
851.30	211.93
851.61	211.95
851.92	211.94
852.23	212.18
852.55	212.21
852.86	212.19
853.17	212.21
853.49	212.20
853.80	212.28
854.11	212.23
854.42	212.31
854.74	212.32
855.05	212.33
855.36	212.09
855.67	212.05
855.99	211.99
856.30	212.42
856.61	212.36
856.92	212.32
857.23	212.38
857.55	212.41
857.86	212.41
858.17	212.46
858.48	212.41
858.79	212.30
859.11	212.39
859.42	212.38
859.73	212.40
860.04	212.46
860.35	212.38
860.66	212.27
860.98	212.21
861.29	212.24
861.60	212.21
861.91	212.29
862.22	212.22
862.53	212.20
862.84	211.77
863.16	211.85
863.47	211.81
863.78	211.73
864.09	211.79
864.40	211.75
864.71	211.80
865.02	211.78
865.33	211.77
865.64	211.71
865.95	211.68
866.27	211.90
866.58	211.84
866.89	211.88
867.20	211.97
867.51	211.97
867.82	211.88
868.13	212.02
868.44	211.99
868.75	212.07
869.06	212.11
869.37	212.13
869.68	211.99
869.99	212.11
870.30	212.22
870.61	212.15
870.92	212.15
871.23	212.06
871.54	212.12
871.85	212.19
872.16	212.24
872.47	212.23
872.78	211.99
873.09	212.03
873.40	211.99
873.71	212.07
874.02	212.12
874.33	212.13
874.64	211.99
874.95	212.02
875.26	212.00
875.56	211.92
875.87	211.92
876.18	212.03
876.49	212.33
876.80	212.23
877.11	212.22
877.42	212.25
877.73	212.22
878.04	212.16
878.35	212.18
878.66	212.09
878.96	212.07
879.27	212.09
879.58	212.08
879.89	212.05
880.20	212.06
880.51	212.01
880.82	212.03
881.12	212.15
881.43	212.11
881.74	212.10
882.05	212.15
882.36	212.14
882.67	212.14
882.97	211.81
883.28	211.76
883.59	211.76
883.90	211.79
884.21	211.93
884.51	211.90
884.82	211.81
885.13	211.88
885.44	211.93
885.74	211.93
886.05	211.85
886.36	211.89
886.67	211.75
886.98	211.90
887.28	211.88
887.59	211.85
887.90	211.84
888.20	211.72
888.51	211.76
888.82	211.76
889.13	211.80
889.43	212.07
889.74	212.09
890.05	212.02
890.35	211.93
890.66	211.84
890.97	211.82
891.28	211.76
891.58	211.68
891.89	211.59
892.20	211.53
892.50	211.59
892.81	211.53
893.12	211.55
893.42	211.39
893.73	211.38
894.04	211.31
894.34	211.30
894.65	211.35
894.95	211.25
895.26	211.19
895.57	211.34
895.87	211.04
896.18	211.12
896.48	211.22
896.79	211.27
897.10	211.33
897.40	211.34
897.71	211.43
898.01	211.47
898.32	211.57
898.63	211.64
898.93	211.70
899.24	211.75
899.54	211.75
899.85	211.79
900.15	211.82
900.46	211.83
900.76	211.94
901.07	211.98
901.38	212.03
901.68	212.05
901.99	211.87
902.29	211.82
902.60	211.77
902.90	211.74
903.21	211.77
903.51	211.76
903.82	211.87
904.12	211.85
904.43	211.83
904.73	211.79
905.03	211.79
905.34	212.12
905.64	212.18
905.95	212.19
906.25	212.14
906.56	212.12
906.86	212.16
907.17	212.09
907.47	212.10
907.77	212.10
908.08	212.00
908.38	211.93
908.69	212.00
908.99	211.98
909.30	211.95
909.60	211.92
909.90	211.90
910.21	211.74
910.51	211.75
910.81	211.78
911.12	211.83
911.42	211.92
911.73	211.50
912.03	211.46
912.33	211.54
912.64	211.58
912.94	211.52
913.24	211.44
913.55	211.43
913.85	211.45
914.15	211.52
914.46	211.66
914.76	211.70
915.06	211.73
915.37	211.77
915.67	211.78
915.97	211.81
916.27	211.72
916.58	211.78
916.88	211.73
917.18	211.67
917.49	211.89
917.79	211.74
918.09	211.85
918.39	211.88
918.70	211.84
919.00	211.76
919.30	211.93
919.60	211.89
919.91	211.87
920.21	211.83
920.51	211.75
920.81	211.71
921.12	211.80
921.42	211.67
921.72	211.66
922.02	211.66
922.32	211.68
922.63	211.66
922.93	211.79
923.23	211.79
923.53	211.72
923.83	211.47
924.13	211.48
924.44	211.40
924.74	211.40
925.04	211.49
925.34	211.50
925.64	211.38
925.94	211.43
926.24	211.58
926.55	211.54
926.85	211.61
927.15	211.67
927.45	211.61
927.75	211.69
928.05	211.71
928.35	211.70
928.65	211.73
928.95	211.76
929.26	211.66
929.56	211.78
929.86	211.89
930.16	211.89
930.46	211.84
930.76	211.86
931.06	211.70
931.36	211.55
931.66	211.61
931.96	211.64
932.26	211.70
932.56	211.54
932.86	211.54
933.16	211.54
933.46	211.45
933.76	211.35
934.06	211.35
934.36	211.45
934.66	211.42
934.96	211.40
935.26	211.42
935.56	211.45
935.86	211.36
936.16	211.32
936.46	211.26
936.76	211.28
937.06	211.20
937.36	211.33
937.66	211.34
937.96	211.30
938.26	211.26
938.56	211.20
938.86	211.27
939.16	211.35
939.46	211.32
939.76	211.36
940.06	211.35
940.35	211.32
940.65	211.18
940.95	211.15
941.25	211.02
941.55	210.96
941.85	210.96
942.15	211.00
942.45	211.10
942.75	211.13
943.04	211.23
943.34	211.34
943.64	211.27
943.94	211.26
944.24	211.28
944.54	211.31
944.84	211.30
945.13	211.24
945.43	211.20
945.73	211.13
946.03	211.17
946.33	211.26
946.62	211.22
946.92	211.24
947.22	211.38
947.52	211.42
947.82	211.48
948.11	211.46
948.41	211.37
948.71	211.24
949.01	211.22
949.31	211.12
949.60	211.16
949.90	211.20
950.20	211.13
950.50	211.12
950.79	211.10
951.09	211.18
951.39	211.23
951.69	211.26
951.98	211.40
952.28	211.38
952.58	211.30
952.87	211.36
953.17	211.43
953.47	211.36
953.76	211.39
954.06	211.34
954.36	211.28
954.66	211.34
954.95	211.36
955.25	211.40
955.55	211.51
955.84	211.38
956.14	211.45
956.44	211.53
956.73	211.55
957.03	211.57
957.32	211.56
957.62	211.56
957.92	211.60
958.21	211.57
958.51	211.96
958.81	212.05
959.10	212.10
959.40	212.15
959.69	212.14
959.99	212.23
960.29	212.30
960.58	212.26
960.88	212.40
961.17	212.45
961.47	212.45
961.76	212.32
962.06	212.42
962.36	212.32
962.65	212.32
962.95	212.27
963.24	212.16
963.54	212.13
963.83	212.05
964.13	212.00
964.42	211.92
964.72	211.60
965.01	211.57
965.31	211.44
965.60	211.33
965.90	211.60
966.19	211.54
966.49	211.56
966.78	211.58
967.08	211.62
967.37	211.56
967.67	211.53
967.96	211.57
968.26	211.48
968.55	211.50
968.85	211.44
969.14	211.49
969.43	211.54
969.73	211.54
970.02	211.55
970.32	211.55
970.61	211.51
970.91	211.47
971.20	211.42
971.49	211.46
971.79	211.50
972.08	211.21
972.38	211.19
972.67	211.15
972.96	211.18
973.26	211.04
973.55	211.19
973.85	211.20
974.14	211.22
974.43	211.35
974.73	211.34
975.02	211.45
975.31	211.44
975.61	211.51
975.90	211.52
976.19	211.49
976.49	211.49
976.78	211.46
977.07	211.43
977.37	211.51
977.66	211.50
977.95	211.46
978.24	211.45
978.54	211.46
978.83	211.48
979.12	211.48
979.42	211.51
979.71	211.44
980.00	211.41
980.29	211.45
980.59	211.33
980.88	211.40
981.17	211.32
981.46	211.34
981.76	211.35
982.05	211.45
982.34	211.57
982.63	211.60
982.93	211.65
983.22	211.79
983.51	211.80
983.80	211.88
984.09	211.93
984.39	211.97
984.68	211.94
984.97	211.88
985.26	211.84
985.55	211.87
985.85	211.82
986.14	211.86
986.43	211.85
986.72	211.87
987.01	211.82
987.30	211.84
987.59	211.86
987.89	211.86
988.18	211.75
988.47	211.65
988.76	211.55
989.05	211.59
989.34	211.45
989.63	211.50
989.92	211.54
990.22	211.46
990.51	211.45
990.80	211.45
991.09	211.58
991.38	211.65
991.67	211.54
991.96	211.49
992.25	211.53
992.54	211.46
992.83	211.42
993.12	211.38
993.41	211.41
993.70	211.48
993.99	211.46
994.28	211.41
994.58	211.43
994.87	211.44
995.16	211.45
995.45	211.48
995.74	211.32
996.03	211.29
996.32	211.40
996.61	211.43
996.90	211.42
997.19	211.32
997.48	211.25
997.77	211.26
998.06	211.25
998.34	211.22
998.63	211.24
998.92	211.28
999.21	211.34
999.50	211.28
999.79	211.14
1000.08	211.15
1000.37	211.18
1000.66	211.13
1000.95	211.16
1001.24	211.14
1001.53	211.14
1001.82	211.13
1002.11	211.00
1002.40	210.98
1002.68	211.06
1002.97	211.33
1003.26	211.30
1003.55	211.31
1003.84	211.35
1004.13	211.45
1004.42	211.39
1004.71	211.40
1004.99	211.39
1005.28	211.45
1005.57	211.54
1005.86	211.46
1006.15	211.47
1006.44	211.44
1006.72	211.55
1007.01	211.43
1007.30	211.38
1007.59	211.33
1007.88	211.27
1008.17	211.34
1008.45	211.27
1008.74	211.15
1009.03	210.95
1009.32	210.95
1009.60	210.86
1009.89	210.76
1010.18	210.65
1010.47	210.62
1010.76	210.61
1011.04	210.63
1011.33	210.88
1011.62	210.80
1011.91	210.91
1012.19	210.87
1012.48	210.90
1012.77	210.93
1013.05	211.17
1013.34	211.22
1013.63	211.18
1013.92	211.28
1014.20	211.24
1014.49	211.22
1014.78	211.25
1015.06	211.13
1015.35	211.09
1015.64	211.19
1015.92	211.19
1016.21	211.23
1016.50	211.24
1016.78	211.26
1017.07	211.22
1017.36	210.85
1017.64	210.82
1017.93	210.80
1018.22	210.79
1018.50	210.72
1018.79	210.72
1019.08	210.57
1019.36	210.57
1019.65	210.66
1019.93	210.77
1020.22	210.84
1020.51	211.06
1020.79	210.97
1021.08	210.70
1021.36	209.75
1021.65	212.15
1021.94	210.95
1022.22	211.40
1022.51	211.85
1022.79	213.20
1023.08	211.60
1023.36	215.50
1023.65	209.60
>>>>>End Processed Spectral Data<<<<<
