SpectraSuite Data File
++++++++++++++++++++++++++++++++++++
Date: Mon Feb 25 17:04:33 EST 2013
User: group
Dark Spectrum Present: No
Reference Spectrum Present: No
Number of Sampled Component Spectra: 1
Spectrometers: USB2E7196
Integration Time (usec): 104000 (USB2E7196)
Spectra Averaged: 20 (USB2E7196)
Boxcar Smoothing: 10 (USB2E7196)
Correct for Electrical Dark: No (USB2E7196)
Strobe/Lamp Enabled: No (USB2E7196)
Correct for Detector Non-linearity: No (USB2E7196)
Correct for Stray Light: No (USB2E7196)
Number of Pixels in Processed Spectrum: 2048
>>>>>Begin Processed Spectral Data<<<<<
339.09	0.00
339.48	199.35
339.86	201.40
340.24	202.25
340.63	204.65
341.01	210.60
341.39	207.05
341.78	207.60
342.16	209.70
342.54	209.80
342.93	198.91
343.31	208.96
343.69	209.49
344.07	209.90
344.46	210.31
344.84	210.60
345.22	210.60
345.60	210.79
345.99	210.95
346.37	211.01
346.75	211.02
347.13	211.09
347.52	211.00
347.90	211.09
348.28	211.07
348.66	211.09
349.05	210.95
349.43	210.92
349.81	210.94
350.19	210.91
350.57	210.86
350.96	210.87
351.34	210.84
351.72	210.82
352.10	210.83
352.48	210.86
352.87	210.88
353.25	210.88
353.63	210.80
354.01	210.80
354.39	210.86
354.77	210.99
355.15	211.11
355.54	211.15
355.92	211.17
356.30	211.19
356.68	211.45
357.06	211.54
357.44	211.63
357.82	211.64
358.20	211.77
358.58	211.80
358.97	211.89
359.35	212.00
359.73	212.14
360.11	212.23
360.49	212.30
360.87	212.27
361.25	212.38
361.63	212.69
362.01	212.78
362.39	212.74
362.77	212.70
363.15	212.72
363.53	212.70
363.91	212.63
364.29	212.69
364.67	212.47
365.05	212.50
365.43	212.48
365.81	212.54
366.19	212.66
366.57	212.90
366.95	212.89
367.33	212.89
367.71	212.85
368.09	212.95
368.47	212.96
368.85	213.05
369.23	213.14
369.61	212.91
369.99	212.98
370.37	213.09
370.75	213.34
371.13	213.25
371.51	213.25
371.89	213.31
372.27	213.28
372.65	213.25
373.03	213.21
373.41	213.21
373.78	213.20
374.16	213.05
374.54	212.89
374.92	212.85
375.30	212.81
375.68	212.74
376.06	212.72
376.44	212.61
376.82	212.58
377.19	212.51
377.57	212.52
377.95	212.39
378.33	212.25
378.71	211.95
379.09	211.97
379.47	212.00
379.84	212.00
380.22	211.94
380.60	211.84
380.98	211.78
381.36	211.75
381.73	211.66
382.11	211.64
382.49	211.60
382.87	211.58
383.25	211.52
383.62	211.91
384.00	211.76
384.38	211.75
384.76	211.73
385.13	211.79
385.51	211.70
385.89	211.62
386.27	211.65
386.64	211.75
387.02	211.73
387.40	211.65
387.78	211.48
388.15	211.46
388.53	211.38
388.91	211.31
389.29	211.20
389.66	211.22
390.04	211.13
390.42	211.20
390.79	211.12
391.17	211.15
391.55	210.72
391.92	210.72
392.30	210.73
392.68	210.64
393.05	210.58
393.43	210.69
393.81	210.67
394.18	210.54
394.56	210.40
394.94	210.42
395.31	210.35
395.69	210.45
396.06	210.47
396.44	210.57
396.82	210.54
397.19	210.75
397.57	210.74
397.95	210.81
398.32	210.67
398.70	210.68
399.07	210.69
399.45	210.71
399.82	210.72
400.20	210.66
400.58	210.69
400.95	210.60
401.33	210.59
401.70	210.86
402.08	210.96
402.45	211.07
402.83	211.15
403.20	211.25
403.58	211.34
403.95	211.42
404.33	211.47
404.71	211.58
405.08	211.88
405.46	211.88
405.83	212.02
406.21	212.12
406.58	212.35
406.96	212.49
407.33	212.67
407.70	212.90
408.08	213.40
408.45	213.66
408.83	213.90
409.20	214.07
409.58	214.14
409.95	214.43
410.33	214.66
410.70	214.86
411.08	215.24
411.45	215.45
411.82	215.76
412.20	216.24
412.57	216.91
412.95	216.94
413.32	217.59
413.69	218.09
414.07	218.63
414.44	219.17
414.82	219.80
415.19	220.44
415.56	221.08
415.94	221.65
416.31	222.49
416.68	223.43
417.06	224.46
417.43	225.45
417.81	226.55
418.18	227.70
418.55	228.83
418.93	230.07
419.30	231.54
419.67	233.01
420.04	234.43
420.42	235.83
420.79	237.85
421.16	239.49
421.54	241.45
421.91	243.35
422.28	245.32
422.66	247.46
423.03	249.76
423.40	251.88
423.77	254.11
424.15	256.35
424.52	258.66
424.89	261.35
425.26	263.83
425.64	266.18
426.01	268.92
426.38	271.78
426.75	274.67
427.13	277.57
427.50	280.66
427.87	283.75
428.24	286.94
428.61	289.97
428.99	293.56
429.36	297.14
429.73	300.78
430.10	304.39
430.47	308.11
430.85	311.91
431.22	316.10
431.59	320.68
431.96	324.95
432.33	329.68
432.70	334.27
433.08	339.68
433.45	344.85
433.82	349.80
434.19	355.44
434.56	360.95
434.93	366.10
435.30	371.32
435.68	377.26
436.05	382.93
436.42	388.62
436.79	393.97
437.16	399.68
437.53	405.69
437.90	411.71
438.27	417.65
438.64	423.77
439.01	429.41
439.38	434.34
439.75	439.33
440.13	444.93
440.50	450.24
440.87	454.59
441.24	459.16
441.61	464.26
441.98	467.97
442.35	472.41
442.72	476.97
443.09	481.53
443.46	484.20
443.83	486.20
444.20	488.06
444.57	490.29
444.94	491.53
445.31	492.97
445.68	494.51
446.05	495.23
446.42	494.94
446.79	494.70
447.16	494.23
447.53	494.08
447.90	492.30
448.27	490.30
448.64	487.58
449.01	485.65
449.37	481.94
449.74	478.36
450.11	474.28
450.48	469.62
450.85	464.59
451.22	460.56
451.59	456.86
451.96	453.02
452.33	447.95
452.70	443.36
453.07	437.84
453.43	431.96
453.80	426.60
454.17	421.47
454.54	416.51
454.91	411.35
455.28	406.10
455.65	401.25
456.02	396.91
456.38	392.76
456.75	387.63
457.12	383.35
457.49	379.31
457.86	374.88
458.23	371.36
458.59	367.58
458.96	363.66
459.33	360.03
459.70	356.47
460.07	353.66
460.43	350.49
460.80	347.46
461.17	344.89
461.54	341.95
461.91	339.16
462.27	336.41
462.64	333.93
463.01	331.41
463.38	329.04
463.74	326.05
464.11	323.90
464.48	321.99
464.85	319.86
465.21	318.28
465.58	316.72
465.95	314.64
466.32	312.93
466.68	311.28
467.05	309.58
467.42	307.92
467.78	306.20
468.15	304.61
468.52	303.39
468.88	301.75
469.25	300.36
469.62	299.33
469.98	298.13
470.35	297.00
470.72	295.94
471.08	294.62
471.45	293.63
471.82	292.54
472.18	291.33
472.55	290.59
472.92	289.47
473.28	288.43
473.65	287.54
474.02	286.66
474.38	285.86
474.75	285.27
475.11	284.50
475.48	284.02
475.85	283.48
476.21	282.92
476.58	282.37
476.94	282.03
477.31	281.53
477.67	281.07
478.04	280.74
478.41	280.44
478.77	280.49
479.14	280.14
479.50	280.03
479.87	279.93
480.23	279.81
480.60	279.65
480.96	279.60
481.33	279.74
481.69	279.68
482.06	279.71
482.42	279.66
482.79	279.87
483.15	279.92
483.52	280.08
483.88	280.20
484.25	280.40
484.61	280.51
484.98	280.69
485.34	281.06
485.71	281.47
486.07	281.79
486.44	281.84
486.80	282.30
487.17	282.70
487.53	283.24
487.90	283.75
488.26	284.45
488.62	285.15
488.99	285.68
489.35	286.39
489.72	287.02
490.08	287.75
490.44	288.39
490.81	289.32
491.17	290.10
491.54	291.08
491.90	292.02
492.26	292.92
492.63	293.87
492.99	294.84
493.36	295.70
493.72	296.78
494.08	297.85
494.45	299.07
494.81	300.28
495.17	301.43
495.54	302.74
495.90	303.88
496.26	304.99
496.63	306.35
496.99	307.58
497.35	308.83
497.72	310.19
498.08	311.58
498.44	312.73
498.80	314.16
499.17	315.37
499.53	316.77
499.89	318.24
500.26	319.63
500.62	320.90
500.98	322.43
501.34	323.80
501.71	325.24
502.07	326.56
502.43	327.77
502.79	328.99
503.16	330.21
503.52	331.38
503.88	332.57
504.24	333.69
504.60	334.91
504.97	336.24
505.33	337.36
505.69	338.58
506.05	339.70
506.41	340.71
506.78	341.70
507.14	342.60
507.50	343.50
507.86	344.57
508.22	345.58
508.59	346.42
508.95	347.19
509.31	348.11
509.67	348.96
510.03	349.80
510.39	350.62
510.75	351.30
511.12	352.05
511.48	352.81
511.84	353.43
512.20	354.10
512.56	354.70
512.92	355.35
513.28	355.87
513.64	356.39
514.00	356.92
514.37	357.53
514.73	358.14
515.09	358.81
515.45	359.24
515.81	359.70
516.17	360.04
516.53	360.51
516.89	360.80
517.25	361.10
517.61	361.51
517.97	361.88
518.33	362.28
518.69	362.71
519.05	363.16
519.41	363.74
519.77	364.39
520.13	364.87
520.49	365.27
520.85	365.71
521.21	366.38
521.57	366.89
521.93	367.30
522.29	367.83
522.65	368.31
523.01	368.91
523.37	369.39
523.73	370.17
524.09	370.79
524.45	371.49
524.81	372.33
525.17	373.20
525.53	374.20
525.89	375.05
526.25	376.02
526.61	376.91
526.97	377.74
527.33	378.61
527.68	379.84
528.04	380.95
528.40	382.07
528.76	383.19
529.12	384.54
529.48	386.04
529.84	387.38
530.20	388.75
530.56	390.25
530.91	392.02
531.27	393.62
531.63	395.37
531.99	396.98
532.35	398.65
532.71	400.30
533.07	402.00
533.42	404.19
533.78	405.98
534.14	408.00
534.50	409.88
534.86	411.91
535.21	413.70
535.57	415.86
535.93	417.86
536.29	420.14
536.65	422.25
537.00	424.21
537.36	426.35
537.72	428.58
538.08	430.74
538.44	432.79
538.79	435.12
539.15	437.33
539.51	439.89
539.87	442.35
540.22	444.87
540.58	447.37
540.94	449.61
541.29	452.14
541.65	454.53
542.01	457.28
542.37	459.91
542.72	462.51
543.08	464.92
543.44	467.66
543.79	470.10
544.15	472.80
544.51	475.78
544.87	478.63
545.22	481.36
545.58	484.15
545.94	486.95
546.29	489.64
546.65	492.52
547.01	495.01
547.36	497.87
547.72	500.49
548.07	503.30
548.43	505.89
548.79	508.44
549.14	511.12
549.50	513.83
549.86	516.26
550.21	518.90
550.57	521.82
550.92	524.30
551.28	526.95
551.64	529.52
551.99	532.05
552.35	534.32
552.70	536.77
553.06	539.30
553.41	541.80
553.77	544.52
554.13	546.86
554.48	549.39
554.84	551.71
555.19	554.27
555.55	556.68
555.90	559.07
556.26	561.48
556.61	563.72
556.97	565.76
557.32	567.96
557.68	570.12
558.03	572.14
558.39	574.30
558.74	576.41
559.10	578.56
559.45	580.71
559.81	583.10
560.16	585.15
560.52	587.29
560.87	589.33
561.23	591.06
561.58	593.42
561.94	595.40
562.29	597.10
562.64	599.03
563.00	600.70
563.35	602.60
563.71	604.65
564.06	606.50
564.42	608.49
564.77	610.48
565.12	612.54
565.48	614.62
565.83	616.50
566.19	618.40
566.54	620.06
566.89	621.45
567.25	623.21
567.60	625.13
567.96	626.76
568.31	628.42
568.66	629.83
569.02	630.80
569.37	631.98
569.72	633.35
570.08	634.43
570.43	635.72
570.78	636.85
571.14	637.68
571.49	638.57
571.84	639.44
572.20	640.24
572.55	640.73
572.90	640.98
573.26	641.46
573.61	641.85
573.96	642.23
574.31	642.64
574.67	642.69
575.02	642.54
575.37	642.44
575.72	642.36
576.08	642.76
576.43	642.85
576.78	642.93
577.13	643.10
577.49	643.22
577.84	643.19
578.19	643.26
578.54	643.50
578.90	643.68
579.25	643.49
579.60	643.43
579.95	643.34
580.30	643.47
580.66	643.53
581.01	643.30
581.36	643.14
581.71	643.04
582.06	643.19
582.42	643.13
582.77	642.94
583.12	642.83
583.47	642.58
583.82	642.54
584.17	642.44
584.53	642.38
584.88	642.12
585.23	641.99
585.58	641.60
585.93	641.24
586.28	641.10
586.63	641.24
586.98	640.91
587.34	640.75
587.69	640.36
588.04	640.07
588.39	639.87
588.74	639.51
589.09	639.29
589.44	638.61
589.79	638.37
590.14	638.06
590.49	637.61
590.84	636.97
591.19	636.64
591.54	636.04
591.89	635.10
592.25	634.69
592.60	633.81
592.95	633.07
593.30	632.07
593.65	630.86
594.00	629.75
594.35	629.80
594.70	628.91
595.05	628.11
595.40	627.30
595.75	626.17
596.10	625.28
596.45	624.37
596.80	623.64
597.15	622.78
597.50	621.75
597.85	620.97
598.19	620.11
598.54	619.17
598.89	618.37
599.24	617.77
599.59	616.74
599.94	616.12
600.29	615.39
600.64	614.75
600.99	614.02
601.34	613.20
601.69	611.43
602.04	610.39
602.39	609.51
602.74	608.59
603.08	608.03
603.43	607.56
603.78	606.80
604.13	606.00
604.48	605.08
604.83	604.55
605.18	603.90
605.53	602.92
605.87	601.80
606.22	600.95
606.57	599.95
606.92	598.97
607.27	597.88
607.62	596.77
607.96	595.80
608.31	595.10
608.66	594.11
609.01	592.93
609.36	591.99
609.70	590.84
610.05	589.64
610.40	588.52
610.75	587.04
611.10	585.86
611.44	584.31
611.79	582.99
612.14	581.54
612.49	579.72
612.83	578.35
613.18	577.01
613.53	575.51
613.88	573.96
614.22	572.48
614.57	571.14
614.92	569.70
615.27	568.21
615.61	566.57
615.96	565.05
616.31	563.79
616.65	562.35
617.00	560.79
617.35	559.34
617.70	557.69
618.04	556.05
618.39	554.30
618.74	552.90
619.08	551.30
619.43	549.56
619.78	548.07
620.12	546.63
620.47	544.98
620.82	543.23
621.16	541.55
621.51	540.06
621.85	538.26
622.20	536.61
622.55	534.86
622.89	533.04
623.24	531.38
623.59	529.50
623.93	527.96
624.28	526.52
624.62	525.12
624.97	523.55
625.32	521.87
625.66	520.31
626.01	518.64
626.35	517.00
626.70	515.40
627.04	514.00
627.39	512.32
627.73	510.89
628.08	509.47
628.43	507.89
628.77	506.16
629.12	504.53
629.46	503.07
629.81	501.60
630.15	500.05
630.50	498.48
630.84	496.79
631.19	495.10
631.53	493.41
631.88	491.50
632.22	489.66
632.57	488.26
632.91	486.58
633.26	485.04
633.60	483.46
633.95	481.93
634.29	480.18
634.64	478.71
634.98	476.97
635.32	475.40
635.67	473.98
636.01	472.48
636.36	470.88
636.70	469.32
637.05	467.76
637.39	466.32
637.73	464.90
638.08	463.85
638.42	462.44
638.77	461.00
639.11	459.45
639.45	457.94
639.80	456.26
640.14	454.65
640.49	453.06
640.83	451.40
641.17	450.00
641.52	448.45
641.86	446.72
642.20	445.33
642.55	443.64
642.89	442.01
643.23	440.42
643.58	439.17
643.92	437.47
644.26	435.95
644.61	434.42
644.95	432.73
645.29	430.88
645.64	429.20
645.98	427.61
646.32	426.15
646.66	424.67
647.01	423.13
647.35	421.73
647.69	420.08
648.04	418.71
648.38	417.07
648.72	415.54
649.06	414.05
649.41	412.32
649.75	410.84
650.09	409.42
650.43	407.90
650.78	406.05
651.12	404.51
651.46	402.92
651.80	401.38
652.14	399.84
652.49	398.44
652.83	396.93
653.17	395.28
653.51	393.82
653.85	392.50
654.20	391.13
654.54	389.56
654.88	388.12
655.22	386.60
655.56	385.05
655.90	383.52
656.25	382.04
656.59	380.63
656.93	379.17
657.27	377.79
657.61	376.30
657.95	374.97
658.29	373.52
658.64	372.23
658.98	370.85
659.32	369.48
659.66	368.02
660.00	366.71
660.34	365.35
660.68	363.81
661.02	362.18
661.36	360.80
661.70	359.48
662.05	358.16
662.39	356.85
662.73	355.67
663.07	354.61
663.41	353.40
663.75	352.12
664.09	350.96
664.43	349.56
664.77	348.25
665.11	346.94
665.45	345.81
665.79	344.60
666.13	343.35
666.47	342.09
666.81	340.93
667.15	339.64
667.49	338.61
667.83	337.64
668.17	336.65
668.51	335.45
668.85	334.46
669.19	333.48
669.53	332.33
669.87	331.20
670.21	330.06
670.55	329.03
670.89	328.27
671.23	327.21
671.57	326.22
671.91	325.26
672.25	324.35
672.58	323.42
672.92	322.34
673.26	321.40
673.60	320.42
673.94	319.51
674.28	318.53
674.62	317.64
674.96	316.62
675.30	315.67
675.64	314.76
675.97	313.66
676.31	312.75
676.65	311.95
676.99	311.19
677.33	310.16
677.67	309.29
678.01	308.17
678.34	307.24
678.68	306.45
679.02	305.61
679.36	304.75
679.70	303.86
680.04	303.07
680.37	302.15
680.71	301.34
681.05	300.50
681.39	299.73
681.73	298.85
682.06	298.01
682.40	297.30
682.74	296.68
683.08	296.11
683.42	295.22
683.75	294.43
684.09	293.55
684.43	292.94
684.77	292.04
685.10	291.24
685.44	290.43
685.78	289.58
686.12	288.86
686.45	288.15
686.79	287.41
687.13	286.68
687.46	285.98
687.80	285.33
688.14	284.60
688.48	284.05
688.81	283.32
689.15	282.73
689.49	281.93
689.82	281.13
690.16	280.25
690.50	279.49
690.83	278.77
691.17	277.92
691.51	277.15
691.84	276.59
692.18	275.90
692.52	275.26
692.85	274.69
693.19	274.13
693.52	273.47
693.86	272.77
694.20	272.16
694.53	271.63
694.87	271.04
695.21	270.37
695.54	269.61
695.88	268.94
696.21	268.25
696.55	267.70
696.88	267.13
697.22	266.50
697.56	266.12
697.89	265.51
698.23	265.10
698.56	264.42
698.90	263.87
699.23	263.32
699.57	262.88
699.90	262.28
700.24	261.51
700.58	260.91
700.91	260.45
701.25	260.12
701.58	259.64
701.92	259.14
702.25	258.73
702.59	258.16
702.92	257.69
703.26	257.16
703.59	256.64
703.93	256.42
704.26	256.02
704.60	255.46
704.93	255.00
705.26	254.50
705.60	254.24
705.93	253.65
706.27	253.36
706.60	253.00
706.94	252.74
707.27	252.36
707.61	252.00
707.94	251.46
708.27	250.79
708.61	250.16
708.94	249.73
709.28	249.23
709.61	248.85
709.94	248.45
710.28	248.13
710.61	247.76
710.95	247.05
711.28	246.86
711.61	246.48
711.95	246.15
712.28	245.76
712.61	245.35
712.95	245.22
713.28	245.00
713.61	244.48
713.95	244.00
714.28	243.68
714.61	243.27
714.95	243.05
715.28	242.74
715.61	242.50
715.95	242.10
716.28	241.75
716.61	241.52
716.95	241.17
717.28	240.81
717.61	240.47
717.94	240.20
718.28	239.69
718.61	239.39
718.94	239.01
719.27	238.69
719.61	238.41
719.94	238.10
720.27	237.60
720.60	237.36
720.94	237.09
721.27	236.85
721.60	236.70
721.93	236.39
722.27	236.25
722.60	236.08
722.93	235.91
723.26	235.77
723.59	235.40
723.93	235.30
724.26	235.00
724.59	234.80
724.92	234.61
725.25	234.49
725.59	234.23
725.92	234.05
726.25	233.94
726.58	233.75
726.91	233.44
727.24	233.28
727.57	233.03
727.91	232.74
728.24	232.54
728.57	232.30
728.90	232.15
729.23	231.85
729.56	231.76
729.89	231.48
730.22	231.20
730.55	231.03
730.89	230.72
731.22	230.63
731.55	230.44
731.88	230.24
732.21	230.01
732.54	229.76
732.87	229.60
733.20	229.38
733.53	229.11
733.86	229.00
734.19	228.76
734.52	228.60
734.85	228.67
735.18	228.43
735.51	228.30
735.84	228.14
736.17	228.04
736.50	227.67
736.83	227.89
737.16	227.75
737.49	227.68
737.82	227.50
738.15	227.37
738.48	227.22
738.81	227.07
739.14	226.85
739.47	226.75
739.80	226.61
740.13	226.49
740.46	226.27
740.79	226.03
741.12	225.85
741.45	225.74
741.78	225.44
742.11	225.46
742.44	225.15
742.77	225.01
743.10	224.83
743.43	224.71
743.75	224.30
744.08	224.57
744.41	224.34
744.74	224.22
745.07	223.95
745.40	223.84
745.73	223.74
746.06	223.69
746.39	223.60
746.71	223.47
747.04	223.24
747.37	223.11
747.70	223.11
748.03	222.98
748.36	222.85
748.68	222.65
749.01	222.42
749.34	222.36
749.67	222.20
750.00	222.03
750.33	222.11
750.65	222.00
750.98	221.49
751.31	221.35
751.64	221.25
751.97	221.39
752.29	221.25
752.62	221.04
752.95	220.89
753.28	220.70
753.60	220.62
753.93	220.65
754.26	220.65
754.59	220.42
754.91	220.30
755.24	220.25
755.57	220.18
755.90	220.10
756.22	220.03
756.55	219.94
756.88	219.88
757.20	219.53
757.53	219.31
757.86	219.19
758.19	219.20
758.51	219.08
758.84	218.79
759.17	218.69
759.49	218.70
759.82	218.72
760.15	218.68
760.47	218.51
760.80	218.32
761.13	218.22
761.45	218.15
761.78	218.10
762.11	217.98
762.43	217.88
762.76	217.75
763.08	217.69
763.41	217.70
763.74	217.60
764.06	217.56
764.39	217.54
764.71	217.44
765.04	217.27
765.37	217.16
765.69	217.13
766.02	217.06
766.34	216.92
766.67	216.79
767.00	216.82
767.32	216.95
767.65	217.10
767.97	217.08
768.30	217.03
768.62	217.00
768.95	216.85
769.27	216.87
769.60	216.81
769.92	216.73
770.25	216.55
770.57	216.45
770.90	216.41
771.22	216.31
771.55	216.27
771.87	216.33
772.20	216.30
772.52	216.48
772.85	216.82
773.17	216.80
773.50	216.74
773.82	216.61
774.15	216.49
774.47	216.20
774.80	216.13
775.12	216.01
775.45	216.02
775.77	216.03
776.09	216.00
776.42	216.00
776.74	216.05
777.07	215.95
777.39	215.95
777.72	215.90
778.04	215.92
778.36	215.90
778.69	215.87
779.01	215.91
779.33	215.64
779.66	215.29
779.98	215.26
780.31	215.24
780.63	215.36
780.95	215.34
781.28	215.35
781.60	215.32
781.92	215.34
782.25	215.20
782.57	215.19
782.89	215.10
783.22	215.03
783.54	215.00
783.86	215.01
784.19	214.96
784.51	214.98
784.83	214.96
785.16	214.90
785.48	214.82
785.80	214.76
786.12	214.75
786.45	214.64
786.77	214.59
787.09	214.53
787.42	214.39
787.74	214.35
788.06	214.37
788.38	214.31
788.71	214.24
789.03	214.30
789.35	214.28
789.67	214.23
789.99	214.28
790.32	214.22
790.64	214.24
790.96	214.52
791.28	214.35
791.61	214.30
791.93	214.29
792.25	214.25
792.57	214.58
792.89	214.46
793.21	214.45
793.54	214.39
793.86	214.31
794.18	214.28
794.50	214.18
794.82	214.04
795.14	214.08
795.47	214.12
795.79	214.09
796.11	214.03
796.43	214.04
796.75	213.99
797.07	213.94
797.39	213.95
797.71	213.67
798.04	213.73
798.36	213.66
798.68	213.64
799.00	213.63
799.32	213.29
799.64	213.37
799.96	213.37
800.28	213.41
800.60	213.36
800.92	213.37
801.24	213.39
801.56	213.45
801.89	213.35
802.21	213.30
802.53	213.16
802.85	213.25
803.17	213.40
803.49	213.29
803.81	213.23
804.13	213.19
804.45	213.13
804.77	213.13
805.09	213.15
805.41	213.09
805.73	212.95
806.05	212.89
806.37	212.83
806.69	212.77
807.01	212.69
807.33	212.73
807.65	212.60
807.97	212.63
808.28	212.52
808.60	212.53
808.92	212.45
809.24	212.66
809.56	212.54
809.88	212.33
810.20	212.35
810.52	212.39
810.84	212.31
811.16	212.29
811.48	212.23
811.80	212.35
812.12	212.29
812.43	212.45
812.75	212.49
813.07	212.50
813.39	212.51
813.71	212.43
814.03	212.37
814.35	212.36
814.67	212.24
814.98	212.26
815.30	212.19
815.62	212.14
815.94	211.86
816.26	211.86
816.58	211.84
816.89	211.89
817.21	211.81
817.53	211.81
817.85	211.73
818.17	211.63
818.48	211.45
818.80	211.59
819.12	211.51
819.44	211.45
819.76	211.33
820.07	211.37
820.39	211.40
820.71	211.43
821.03	211.41
821.34	211.47
821.66	211.47
821.98	211.52
822.30	211.54
822.61	211.80
822.93	211.81
823.25	211.72
823.57	211.68
823.88	211.77
824.20	211.81
824.52	211.86
824.83	211.92
825.15	211.93
825.47	211.90
825.79	211.89
826.10	211.80
826.42	211.83
826.74	211.86
827.05	211.84
827.37	211.90
827.69	211.90
828.00	211.89
828.32	211.93
828.64	211.88
828.95	212.06
829.27	211.96
829.58	211.99
829.90	212.12
830.22	212.14
830.53	212.01
830.85	211.92
831.17	211.88
831.48	211.92
831.80	211.95
832.11	211.86
832.43	211.82
832.75	211.86
833.06	212.09
833.38	212.00
833.69	212.08
834.01	212.01
834.32	212.06
834.64	212.01
834.96	211.99
835.27	212.02
835.59	211.98
835.90	211.98
836.22	211.94
836.53	211.86
836.85	211.88
837.16	212.33
837.48	212.37
837.79	212.59
838.11	212.62
838.42	212.62
838.74	212.73
839.05	212.73
839.37	212.71
839.68	212.50
840.00	212.45
840.31	212.42
840.63	212.40
840.94	212.25
841.26	212.23
841.57	212.22
841.88	212.25
842.20	212.17
842.51	212.05
842.83	212.02
843.14	212.37
843.46	212.26
843.77	212.02
844.08	212.03
844.40	211.88
844.71	211.84
845.03	211.79
845.34	211.78
845.65	211.79
845.97	211.86
846.28	211.86
846.60	211.90
846.91	211.85
847.22	211.87
847.54	211.99
847.85	211.97
848.16	211.92
848.48	211.88
848.79	212.03
849.10	212.06
849.42	212.08
849.73	211.68
850.04	211.73
850.36	211.57
850.67	211.60
850.98	211.61
851.30	211.71
851.61	211.66
851.92	211.56
852.23	211.63
852.55	211.56
852.86	211.61
853.17	211.62
853.49	211.76
853.80	211.85
854.11	211.84
854.42	211.87
854.74	211.88
855.05	211.83
855.36	211.62
855.67	211.62
855.99	211.59
856.30	212.04
856.61	212.00
856.92	212.02
857.23	211.98
857.55	211.90
857.86	211.78
858.17	211.86
858.48	211.82
858.79	211.78
859.11	211.84
859.42	211.76
859.73	211.74
860.04	211.61
860.35	211.48
860.66	211.44
860.98	211.45
861.29	211.49
861.60	211.57
861.91	211.62
862.22	211.60
862.53	211.58
862.84	211.16
863.16	211.24
863.47	211.17
863.78	211.20
864.09	211.18
864.40	211.21
864.71	211.17
865.02	211.20
865.33	211.08
865.64	210.96
865.95	210.98
866.27	211.20
866.58	211.15
866.89	211.15
867.20	211.12
867.51	211.10
867.82	211.11
868.13	211.14
868.44	211.06
868.75	211.12
869.06	211.10
869.37	211.11
869.68	210.97
869.99	211.02
870.30	211.01
870.61	211.10
870.92	211.05
871.23	211.04
871.54	211.07
871.85	211.12
872.16	211.23
872.47	211.20
872.78	211.02
873.09	211.12
873.40	211.06
873.71	211.10
874.02	211.12
874.33	211.05
874.64	211.01
874.95	211.05
875.26	211.00
875.56	211.02
875.87	211.04
876.18	211.10
876.49	211.44
876.80	211.51
877.11	211.45
877.42	211.52
877.73	211.55
878.04	211.50
878.35	211.62
878.66	211.68
878.96	211.68
879.27	211.66
879.58	211.64
879.89	211.66
880.20	211.76
880.51	211.78
880.82	211.74
881.12	211.75
881.43	211.73
881.74	211.77
882.05	211.82
882.36	211.87
882.67	211.91
882.97	211.60
883.28	211.50
883.59	211.48
883.90	211.47
884.21	211.54
884.51	211.62
884.82	211.55
885.13	211.49
885.44	211.48
885.74	211.52
886.05	211.55
886.36	211.56
886.67	211.45
886.98	211.66
887.28	211.82
887.59	211.79
887.90	211.83
888.20	211.79
888.51	211.81
888.82	211.71
889.13	211.78
889.43	211.95
889.74	211.88
890.05	211.84
890.35	211.87
890.66	211.81
890.97	211.72
891.28	211.65
891.58	211.64
891.89	211.64
892.20	211.54
892.50	211.44
892.81	211.46
893.12	211.45
893.42	211.24
893.73	211.18
894.04	211.21
894.34	211.20
894.65	211.15
894.95	211.05
895.26	211.05
895.57	211.11
895.87	210.83
896.18	210.98
896.48	211.01
896.79	210.91
897.10	210.91
897.40	211.00
897.71	211.00
898.01	210.98
898.32	211.03
898.63	210.99
898.93	211.05
899.24	211.11
899.54	211.10
899.85	211.10
900.15	211.04
900.46	211.05
900.76	211.07
901.07	211.06
901.38	211.10
901.68	211.09
901.99	210.86
902.29	210.91
902.60	210.83
902.90	210.81
903.21	210.85
903.51	210.80
903.82	210.81
904.12	210.85
904.43	210.81
904.73	210.75
905.03	210.78
905.34	211.07
905.64	210.96
905.95	211.03
906.25	210.98
906.56	210.90
906.86	210.90
907.17	210.83
907.47	210.94
907.77	210.89
908.08	210.78
908.38	210.87
908.69	210.84
908.99	210.95
909.30	210.97
909.60	210.96
909.90	211.05
910.21	210.93
910.51	210.91
910.81	210.99
911.12	211.05
911.42	211.00
911.73	210.60
912.03	210.63
912.33	210.60
912.64	210.58
912.94	210.62
913.24	210.55
913.55	210.59
913.85	210.54
914.15	210.54
914.46	210.73
914.76	210.64
915.06	210.69
915.37	210.55
915.67	210.55
915.97	210.52
916.27	210.40
916.58	210.45
916.88	210.49
917.18	210.47
917.49	210.63
917.79	210.70
918.09	210.78
918.39	210.85
918.70	210.90
919.00	210.95
919.30	211.10
919.60	211.04
919.91	211.02
920.21	210.98
920.51	210.91
920.81	210.79
921.12	210.88
921.42	210.86
921.72	210.93
922.02	210.90
922.32	210.96
922.63	210.95
922.93	211.11
923.23	211.06
923.53	210.95
923.83	210.76
924.13	210.75
924.44	210.82
924.74	210.82
925.04	210.89
925.34	210.81
925.64	210.67
925.94	210.74
926.24	210.84
926.55	210.83
926.85	210.93
927.15	210.95
927.45	210.97
927.75	211.01
928.05	210.97
928.35	211.00
928.65	211.06
928.95	211.14
929.26	211.02
929.56	211.14
929.86	211.23
930.16	211.24
930.46	211.22
930.76	211.26
931.06	211.19
931.36	211.08
931.66	211.29
931.96	211.39
932.26	211.43
932.56	211.35
932.86	211.41
933.16	211.39
933.46	211.43
933.76	211.31
934.06	211.34
934.36	211.51
934.66	211.48
934.96	211.44
935.26	211.50
935.56	211.50
935.86	211.37
936.16	211.31
936.46	211.24
936.76	211.24
937.06	211.17
937.36	211.15
937.66	211.13
937.96	210.99
938.26	210.94
938.56	210.91
938.86	210.96
939.16	211.07
939.46	211.20
939.76	211.18
940.06	211.35
940.35	211.33
940.65	211.19
940.95	211.27
941.25	211.16
941.55	211.07
941.85	211.16
942.15	211.26
942.45	211.44
942.75	211.44
943.04	211.44
943.34	211.54
943.64	211.54
943.94	211.58
944.24	211.56
944.54	211.55
944.84	211.52
945.13	211.41
945.43	211.31
945.73	211.27
946.03	211.30
946.33	211.16
946.62	211.07
946.92	211.06
947.22	211.11
947.52	211.19
947.82	211.19
948.11	211.12
948.41	211.00
948.71	210.86
949.01	210.89
949.31	210.90
949.60	210.83
949.90	210.95
950.20	210.92
950.50	210.95
950.79	210.91
951.09	211.00
951.39	210.95
951.69	210.90
951.98	210.89
952.28	210.87
952.58	210.86
952.87	210.89
953.17	210.93
953.47	210.81
953.76	210.72
954.06	210.70
954.36	210.59
954.66	210.58
954.95	210.74
955.25	210.80
955.55	210.87
955.84	210.79
956.14	210.76
956.44	210.75
956.73	210.72
957.03	210.74
957.32	210.67
957.62	210.70
957.92	210.77
958.21	210.76
958.51	211.12
958.81	211.23
959.10	211.30
959.40	211.28
959.69	211.28
959.99	211.34
960.29	211.37
960.58	211.44
960.88	211.57
961.17	211.45
961.47	211.46
961.76	211.35
962.06	211.39
962.36	211.37
962.65	211.37
962.95	211.36
963.24	211.35
963.54	211.41
963.83	211.50
964.13	211.41
964.42	211.40
964.72	211.09
965.01	211.03
965.31	210.98
965.60	210.96
965.90	211.20
966.19	211.15
966.49	211.09
966.78	211.06
967.08	211.03
967.37	211.06
967.67	211.02
967.96	211.10
968.26	211.16
968.55	211.21
968.85	211.20
969.14	211.20
969.43	211.18
969.73	211.20
970.02	211.14
970.32	211.16
970.61	211.16
970.91	211.09
971.20	211.13
971.49	211.10
971.79	211.10
972.08	210.88
972.38	210.92
972.67	210.99
972.96	211.01
973.26	210.98
973.55	211.04
973.85	210.97
974.14	210.88
974.43	210.81
974.73	210.74
975.02	210.73
975.31	210.70
975.61	210.73
975.90	210.64
976.19	210.63
976.49	210.67
976.78	210.65
977.07	210.65
977.37	210.63
977.66	210.66
977.95	210.68
978.24	210.70
978.54	210.75
978.83	210.67
979.12	210.69
979.42	210.73
979.71	210.68
980.00	210.71
980.29	210.75
980.59	210.72
980.88	210.77
981.17	210.71
981.46	210.73
981.76	210.65
982.05	210.76
982.34	210.79
982.63	210.76
982.93	210.76
983.22	210.82
983.51	210.84
983.80	210.90
984.09	210.93
984.39	210.93
984.68	210.93
984.97	210.94
985.26	210.85
985.55	210.84
985.85	210.75
986.14	210.82
986.43	210.80
986.72	210.82
987.01	210.75
987.30	210.77
987.59	210.75
987.89	210.79
988.18	210.66
988.47	210.55
988.76	210.51
989.05	210.45
989.34	210.41
989.63	210.43
989.92	210.35
990.22	210.27
990.51	210.23
990.80	210.21
991.09	210.31
991.38	210.40
991.67	210.29
991.96	210.22
992.25	210.15
992.54	210.23
992.83	210.19
993.12	210.17
993.41	210.32
993.70	210.43
993.99	210.45
994.28	210.54
994.58	210.65
994.87	210.59
995.16	210.60
995.45	210.59
995.74	210.46
996.03	210.51
996.32	210.60
996.61	210.68
996.90	210.60
997.19	210.54
997.48	210.52
997.77	210.62
998.06	210.65
998.34	210.70
998.63	210.63
998.92	210.64
999.21	210.69
999.50	210.66
999.79	210.63
1000.08	210.68
1000.37	210.70
1000.66	210.67
1000.95	210.80
1001.24	210.86
1001.53	210.88
1001.82	210.87
1002.11	210.85
1002.40	210.79
1002.68	210.84
1002.97	211.15
1003.26	211.10
1003.55	211.01
1003.84	210.99
1004.13	211.15
1004.42	211.10
1004.71	211.14
1004.99	211.14
1005.28	211.25
1005.57	211.24
1005.86	211.19
1006.15	211.20
1006.44	211.15
1006.72	211.21
1007.01	211.17
1007.30	211.15
1007.59	211.23
1007.88	211.23
1008.17	211.28
1008.45	211.26
1008.74	211.10
1009.03	210.88
1009.32	210.96
1009.60	210.96
1009.89	210.95
1010.18	210.81
1010.47	210.82
1010.76	210.80
1011.04	210.79
1011.33	210.80
1011.62	210.80
1011.91	210.70
1012.19	210.64
1012.48	210.60
1012.77	210.56
1013.05	210.71
1013.34	210.78
1013.63	210.66
1013.92	210.74
1014.20	210.69
1014.49	210.76
1014.78	210.82
1015.06	210.75
1015.35	210.72
1015.64	210.81
1015.92	210.85
1016.21	210.88
1016.50	210.88
1016.78	210.99
1017.07	210.98
1017.36	210.84
1017.64	210.83
1017.93	210.97
1018.22	210.98
1018.50	211.07
1018.79	211.03
1019.08	210.91
1019.36	210.86
1019.65	210.85
1019.93	210.94
1020.22	210.95
1020.51	211.12
1020.79	211.09
1021.08	210.80
1021.36	211.45
1021.65	209.90
1021.94	211.40
1022.22	210.95
1022.51	209.65
1022.79	212.65
1023.08	211.30
1023.36	215.90
1023.65	209.70
>>>>>End Processed Spectral Data<<<<<
