SpectraSuite Data File
++++++++++++++++++++++++++++++++++++
Date: Mon Feb 25 17:15:55 EST 2013
User: group
Dark Spectrum Present: No
Reference Spectrum Present: No
Number of Sampled Component Spectra: 1
Spectrometers: USB2E7196
Integration Time (usec): 104000 (USB2E7196)
Spectra Averaged: 20 (USB2E7196)
Boxcar Smoothing: 10 (USB2E7196)
Correct for Electrical Dark: No (USB2E7196)
Strobe/Lamp Enabled: No (USB2E7196)
Correct for Detector Non-linearity: No (USB2E7196)
Correct for Stray Light: No (USB2E7196)
Number of Pixels in Processed Spectrum: 2048
>>>>>Begin Processed Spectral Data<<<<<
339.09	0.00
339.48	197.75
339.86	200.75
340.24	200.70
340.63	201.90
341.01	207.80
341.39	204.95
341.78	207.45
342.16	208.05
342.54	207.50
342.93	197.98
343.31	208.00
343.69	208.59
344.07	208.96
344.46	209.42
344.84	209.84
345.22	209.96
345.60	210.26
345.99	210.47
346.37	210.66
346.75	210.81
347.13	210.85
347.52	210.89
347.90	211.07
348.28	211.11
348.66	211.18
349.05	210.98
349.43	211.02
349.81	211.14
350.19	211.27
350.57	211.30
350.96	211.45
351.34	211.50
351.72	211.58
352.10	211.75
352.48	211.81
352.87	211.95
353.25	212.06
353.63	212.11
354.01	212.12
354.39	212.21
354.77	212.32
355.15	212.46
355.54	212.48
355.92	212.40
356.30	212.45
356.68	212.79
357.06	213.02
357.44	213.05
357.82	213.11
358.20	213.13
358.58	213.23
358.97	213.30
359.35	213.45
359.73	213.55
360.11	213.58
360.49	213.70
360.87	213.69
361.25	213.77
361.63	213.98
362.01	214.10
362.39	214.10
362.77	214.17
363.15	214.20
363.53	214.30
363.91	214.37
364.29	214.37
364.67	214.07
365.05	214.12
365.43	214.21
365.81	214.17
366.19	214.38
366.57	214.49
366.95	214.44
367.33	214.39
367.71	214.45
368.09	214.59
368.47	214.58
368.85	214.53
369.23	214.63
369.61	214.50
369.99	214.63
370.37	214.66
370.75	214.80
371.13	214.69
371.51	214.65
371.89	214.69
372.27	214.71
372.65	214.72
373.03	214.65
373.41	214.55
373.78	214.56
374.16	214.35
374.54	214.22
374.92	214.15
375.30	214.05
375.68	213.93
376.06	213.85
376.44	213.82
376.82	213.86
377.19	213.79
377.57	213.72
377.95	213.54
378.33	213.47
378.71	213.20
379.09	213.25
379.47	213.23
379.84	213.06
380.22	213.05
380.60	212.93
380.98	212.91
381.36	212.93
381.73	212.86
382.11	212.85
382.49	212.79
382.87	212.76
383.25	212.72
383.62	213.11
384.00	212.97
384.38	212.87
384.76	212.83
385.13	212.84
385.51	212.79
385.89	212.61
386.27	212.57
386.64	212.61
387.02	212.50
387.40	212.45
387.78	212.52
388.15	212.47
388.53	212.45
388.91	212.37
389.29	212.28
389.66	212.24
390.04	212.18
390.42	212.26
390.79	212.23
391.17	212.26
391.55	211.86
391.92	211.86
392.30	211.90
392.68	211.84
393.05	211.85
393.43	211.84
393.81	211.83
394.18	211.81
394.56	211.73
394.94	211.87
395.31	211.85
395.69	211.89
396.06	211.87
396.44	211.85
396.82	211.82
397.19	212.02
397.57	211.98
397.95	212.05
398.32	211.98
398.70	212.07
399.07	212.15
399.45	212.06
399.82	212.08
400.20	212.04
400.58	212.10
400.95	211.94
401.33	212.06
401.70	212.35
402.08	212.33
402.45	212.40
402.83	212.47
403.20	212.48
403.58	212.51
403.95	212.68
404.33	212.82
404.71	212.93
405.08	213.17
405.46	213.36
405.83	213.46
406.21	213.52
406.58	213.61
406.96	213.73
407.33	213.96
407.70	214.13
408.08	214.61
408.45	214.88
408.83	215.23
409.20	215.33
409.58	215.43
409.95	215.70
410.33	216.04
410.70	216.19
411.08	216.57
411.45	216.85
411.82	217.13
412.20	217.61
412.57	218.20
412.95	218.32
413.32	218.80
413.69	219.19
414.07	219.70
414.44	220.25
414.82	220.83
415.19	221.46
415.56	222.12
415.94	222.69
416.31	223.50
416.68	224.28
417.06	225.26
417.43	226.25
417.81	227.30
418.18	228.39
418.55	229.49
418.93	230.67
419.30	231.96
419.67	233.25
420.04	234.52
420.42	235.84
420.79	237.74
421.16	239.38
421.54	241.24
421.91	243.03
422.28	244.73
422.66	246.69
423.03	248.78
423.40	250.78
423.77	252.83
424.15	254.83
424.52	256.92
424.89	259.30
425.26	261.49
425.64	263.77
426.01	266.06
426.38	268.63
426.75	271.19
427.13	273.86
427.50	276.56
427.87	279.42
428.24	282.26
428.61	284.72
428.99	287.79
429.36	290.83
429.73	293.97
430.10	297.29
430.47	300.55
430.85	303.75
431.22	307.35
431.59	311.22
431.96	314.83
432.33	318.87
432.70	322.75
433.08	327.31
433.45	331.51
433.82	335.76
434.19	340.43
434.56	345.22
434.93	349.47
435.30	353.88
435.68	358.79
436.05	363.53
436.42	368.30
436.79	372.61
437.16	377.37
437.53	382.37
437.90	387.27
438.27	392.20
438.64	397.16
439.01	401.81
439.38	405.77
439.75	409.81
440.13	414.44
440.50	418.72
440.87	422.19
441.24	425.76
441.61	429.77
441.98	432.71
442.35	435.87
442.72	439.39
443.09	442.77
443.46	444.68
443.83	446.07
444.20	447.21
444.57	448.83
444.94	449.65
445.31	450.47
445.68	451.54
446.05	451.60
446.42	451.26
446.79	450.61
447.16	449.86
447.53	449.26
447.90	447.19
448.27	445.11
448.64	442.47
449.01	440.55
449.37	437.15
449.74	433.85
450.11	430.32
450.48	426.06
450.85	421.75
451.22	418.05
451.59	414.57
451.96	411.30
452.33	406.88
452.70	402.72
453.07	397.92
453.43	392.80
453.80	388.25
454.17	383.66
454.54	379.37
454.91	374.97
455.28	370.59
455.65	366.56
456.02	363.07
456.38	359.61
456.75	355.39
457.12	351.80
457.49	348.29
457.86	344.61
458.23	341.89
458.59	338.69
458.96	335.49
459.33	332.53
459.70	329.66
460.07	327.44
460.43	324.83
460.80	322.46
461.17	320.36
461.54	318.02
461.91	315.85
462.27	313.67
462.64	311.77
463.01	309.81
463.38	307.93
463.74	305.48
464.11	303.70
464.48	302.21
464.85	300.57
465.21	299.45
465.58	298.26
465.95	296.52
466.32	295.22
466.68	293.93
467.05	292.77
467.42	291.43
467.78	290.03
468.15	288.86
468.52	287.85
468.88	286.52
469.25	285.42
469.62	284.63
469.98	283.75
470.35	282.89
470.72	282.01
471.08	281.07
471.45	280.39
471.82	279.86
472.18	279.04
472.55	278.64
472.92	277.90
473.28	277.24
473.65	276.72
474.02	276.25
474.38	275.90
474.75	275.54
475.11	275.15
475.48	274.97
475.85	274.74
476.21	274.60
476.58	274.60
476.94	274.69
477.31	274.63
477.67	274.54
478.04	274.58
478.41	274.72
478.77	275.18
479.14	275.20
479.50	275.33
479.87	275.70
480.23	275.91
480.60	276.15
480.96	276.49
481.33	277.06
481.69	277.48
482.06	278.02
482.42	278.53
482.79	279.14
483.15	279.83
483.52	280.71
483.88	281.45
484.25	282.26
484.61	283.06
484.98	283.94
485.34	285.24
485.71	286.54
486.07	287.81
486.44	288.80
486.80	290.30
487.17	291.73
487.53	293.32
487.90	295.07
488.26	296.93
488.62	298.89
488.99	300.78
489.35	302.82
489.72	304.82
490.08	307.08
490.44	309.51
490.81	312.00
491.17	314.56
491.54	317.37
491.90	320.29
492.26	323.41
492.63	326.69
492.99	329.89
493.36	333.30
493.72	337.05
494.08	340.97
494.45	345.06
494.81	349.25
495.17	353.65
495.54	358.35
495.90	363.12
496.26	368.02
496.63	373.22
496.99	378.73
497.35	384.53
497.72	390.38
498.08	396.40
498.44	402.67
498.80	409.45
499.17	416.32
499.53	423.48
499.89	430.89
500.26	438.47
500.62	446.32
500.98	454.59
501.34	462.97
501.71	471.79
502.07	480.69
502.43	490.00
502.79	499.42
503.16	509.09
503.52	519.20
503.88	529.70
504.24	540.48
504.60	551.31
504.97	562.67
505.33	574.25
505.69	586.51
506.05	598.88
506.41	611.40
506.78	624.18
507.14	637.19
507.50	650.74
507.86	664.50
508.22	678.57
508.59	692.66
508.95	707.48
509.31	722.43
509.67	737.62
510.03	752.95
510.39	769.00
510.75	785.19
511.12	801.83
511.48	818.52
511.84	835.24
512.20	852.32
512.56	869.85
512.92	887.87
513.28	906.01
513.64	924.19
514.00	942.40
514.37	960.81
514.73	979.80
515.09	998.65
515.45	1017.62
515.81	1036.72
516.17	1055.97
516.53	1075.19
516.89	1094.71
517.25	1114.36
517.61	1134.03
517.97	1153.53
518.33	1173.30
518.69	1193.01
519.05	1213.03
519.41	1233.33
519.77	1254.09
520.13	1273.95
520.49	1293.48
520.85	1313.26
521.21	1333.41
521.57	1353.90
521.93	1374.01
522.29	1394.51
522.65	1414.83
523.01	1434.80
523.37	1454.62
523.73	1475.06
524.09	1495.05
524.45	1515.03
524.81	1535.00
525.17	1555.54
525.53	1575.62
525.89	1595.36
526.25	1615.09
526.61	1634.12
526.97	1653.19
527.33	1671.83
527.68	1691.31
528.04	1710.15
528.40	1728.18
528.76	1746.57
529.12	1764.93
529.48	1783.79
529.84	1801.64
530.20	1819.78
530.56	1838.13
530.91	1856.74
531.27	1874.96
531.63	1892.70
531.99	1910.07
532.35	1926.84
532.71	1943.12
533.07	1960.03
533.42	1976.35
533.78	1992.81
534.14	2009.11
534.50	2024.25
534.86	2040.29
535.21	2054.90
535.57	2070.55
535.93	2085.55
536.29	2099.97
536.65	2114.40
537.00	2127.95
537.36	2141.10
537.72	2153.72
538.08	2166.49
538.44	2179.23
538.79	2191.59
539.15	2203.80
539.51	2216.08
539.87	2228.80
540.22	2240.97
540.58	2252.81
540.94	2264.37
541.29	2274.57
541.65	2284.53
542.01	2295.19
542.37	2304.83
542.72	2314.74
543.08	2323.63
543.44	2333.54
543.79	2342.18
544.15	2349.98
544.51	2358.59
544.87	2367.50
545.22	2375.05
545.58	2381.78
545.94	2387.71
546.29	2393.29
546.65	2398.65
547.01	2403.90
547.36	2408.94
547.72	2413.35
548.07	2417.22
548.43	2420.98
548.79	2424.62
549.14	2428.33
549.50	2431.77
549.86	2434.25
550.21	2436.75
550.57	2439.88
550.92	2441.29
551.28	2443.22
551.64	2445.33
551.99	2447.07
552.35	2447.69
552.70	2449.23
553.06	2450.84
553.41	2452.19
553.77	2453.17
554.13	2453.79
554.48	2454.60
554.84	2455.35
555.19	2455.48
555.55	2454.79
555.90	2453.70
556.26	2452.83
556.61	2451.75
556.97	2449.99
557.32	2449.22
557.68	2447.44
558.03	2445.25
558.39	2443.62
558.74	2442.43
559.10	2440.73
559.45	2438.73
559.81	2437.29
560.16	2434.65
560.52	2432.27
560.87	2429.49
561.23	2426.34
561.58	2424.43
561.94	2420.61
562.29	2416.10
562.64	2413.13
563.00	2410.54
563.35	2408.43
563.71	2406.53
564.06	2403.97
564.42	2402.00
564.77	2399.26
565.12	2396.82
565.48	2394.00
565.83	2391.33
566.19	2388.67
566.54	2384.34
566.89	2379.89
567.25	2376.18
567.60	2372.86
567.96	2369.04
568.31	2365.40
568.66	2361.01
569.02	2355.84
569.37	2350.84
569.72	2346.52
570.08	2341.40
570.43	2335.81
570.78	2330.15
571.14	2324.14
571.49	2318.30
571.84	2312.47
572.20	2305.76
572.55	2299.80
572.90	2293.05
573.26	2285.97
573.61	2278.51
573.96	2272.32
574.31	2265.20
574.67	2257.17
575.02	2249.00
575.37	2241.07
575.72	2232.95
576.08	2226.43
576.43	2218.77
576.78	2211.98
577.13	2205.40
577.49	2198.60
577.84	2191.74
578.19	2185.14
578.54	2178.80
578.90	2172.21
579.25	2164.67
579.60	2157.07
579.95	2149.21
580.30	2142.68
580.66	2136.24
581.01	2128.85
581.36	2121.03
581.71	2113.60
582.06	2106.75
582.42	2099.83
582.77	2092.32
583.12	2085.19
583.47	2078.02
583.82	2071.26
584.17	2063.92
584.53	2056.54
584.88	2048.80
585.23	2041.27
585.58	2033.69
585.93	2025.96
586.28	2018.70
586.63	2011.48
586.98	2004.73
587.34	1998.17
587.69	1990.48
588.04	1982.89
588.39	1975.80
588.74	1968.33
589.09	1961.65
589.44	1953.79
589.79	1947.07
590.14	1940.50
590.49	1933.18
590.84	1925.56
591.19	1919.25
591.54	1912.15
591.89	1903.94
592.25	1896.61
592.60	1889.01
592.95	1881.06
593.30	1872.38
593.65	1864.07
594.00	1856.24
594.35	1850.00
594.70	1842.37
595.05	1835.30
595.40	1828.09
595.75	1820.21
596.10	1813.56
596.45	1806.78
596.80	1800.32
597.15	1793.59
597.50	1786.53
597.85	1779.86
598.19	1772.91
598.54	1765.72
598.89	1759.13
599.24	1753.37
599.59	1746.80
599.94	1741.25
600.29	1735.04
600.64	1729.09
600.99	1722.38
601.34	1716.34
601.69	1708.59
602.04	1701.60
602.39	1694.69
602.74	1687.95
603.08	1682.38
603.43	1676.74
603.78	1670.22
604.13	1663.93
604.48	1657.21
604.83	1651.60
605.18	1646.21
605.53	1639.76
605.87	1632.89
606.22	1626.90
606.57	1620.06
606.92	1613.76
607.27	1606.63
607.62	1599.97
607.96	1594.00
608.31	1588.35
608.66	1581.78
609.01	1574.92
609.36	1568.22
609.70	1561.18
610.05	1554.02
610.40	1546.73
610.75	1538.83
611.10	1532.19
611.44	1524.04
611.79	1516.29
612.14	1508.09
612.49	1499.51
612.83	1491.98
613.18	1484.10
613.53	1475.96
613.88	1467.73
614.22	1460.19
614.57	1452.34
614.92	1444.43
615.27	1436.21
615.61	1428.36
615.96	1420.77
616.31	1413.76
616.65	1406.95
617.00	1399.93
617.35	1392.80
617.70	1385.21
618.04	1377.35
618.39	1368.88
618.74	1361.71
619.08	1354.21
619.43	1346.76
619.78	1339.75
620.12	1332.32
620.47	1325.31
620.82	1317.75
621.16	1310.30
621.51	1302.45
621.85	1295.08
622.20	1287.85
622.55	1280.51
622.89	1272.79
623.24	1265.03
623.59	1257.34
623.93	1249.58
624.28	1242.16
624.62	1235.08
624.97	1228.07
625.32	1221.48
625.66	1214.79
626.01	1208.17
626.35	1201.61
626.70	1194.67
627.04	1188.08
627.39	1181.58
627.73	1174.88
628.08	1168.46
628.43	1161.87
628.77	1155.08
629.12	1148.46
629.46	1142.35
629.81	1135.98
630.15	1129.63
630.50	1123.17
630.84	1116.46
631.19	1109.85
631.53	1103.41
631.88	1096.37
632.22	1089.35
632.57	1083.01
632.91	1076.48
633.26	1070.14
633.60	1063.78
633.95	1057.80
634.29	1051.38
634.64	1045.24
634.98	1038.62
635.32	1032.64
635.67	1026.90
636.01	1021.23
636.36	1014.83
636.70	1008.49
637.05	1002.35
637.39	996.61
637.73	991.15
638.08	986.14
638.42	980.97
638.77	975.44
639.11	969.97
639.45	964.44
639.80	958.31
640.14	952.31
640.49	946.25
640.83	940.49
641.17	934.60
641.52	928.75
641.86	922.74
642.20	917.05
642.55	910.79
642.89	904.98
643.23	898.99
643.58	893.98
643.92	888.05
644.26	882.45
644.61	876.52
644.95	870.63
645.29	864.64
645.64	858.69
645.98	852.98
646.32	847.60
646.66	842.01
647.01	836.74
647.35	831.57
647.69	825.93
648.04	820.41
648.38	814.85
648.72	809.40
649.06	803.89
649.41	798.59
649.75	793.31
650.09	787.88
650.43	782.56
650.78	776.78
651.12	771.45
651.46	766.25
651.80	761.31
652.14	756.29
652.49	751.02
652.83	745.63
653.17	740.15
653.51	734.67
653.85	729.64
654.20	724.35
654.54	718.99
654.88	714.09
655.22	708.95
655.56	703.79
655.90	698.75
656.25	693.68
656.59	688.68
656.93	683.76
657.27	679.09
657.61	673.98
657.95	669.27
658.29	664.68
658.64	659.92
658.98	654.96
659.32	649.85
659.66	645.22
660.00	640.71
660.34	636.09
660.68	631.40
661.02	626.70
661.36	622.34
661.70	618.03
662.05	613.66
662.39	609.73
662.73	605.76
663.07	601.78
663.41	597.89
663.75	593.76
664.09	589.63
664.43	585.37
664.77	581.57
665.11	577.62
665.45	573.78
665.79	570.07
666.13	566.21
666.47	562.51
666.81	558.70
667.15	554.95
667.49	551.64
667.83	548.43
668.17	544.90
668.51	541.52
668.85	538.27
669.19	535.28
669.53	531.71
669.87	528.24
670.21	524.86
670.55	521.39
670.89	518.46
671.23	515.47
671.57	512.48
671.91	509.37
672.25	506.24
672.58	503.05
672.92	499.73
673.26	496.92
673.60	494.10
673.94	491.23
674.28	488.38
674.62	485.44
674.96	482.51
675.30	479.85
675.64	477.05
675.97	474.23
676.31	471.35
676.65	468.69
676.99	466.25
677.33	463.40
677.67	460.81
678.01	457.97
678.34	455.34
678.68	452.73
679.02	450.14
679.36	447.61
679.70	445.24
680.04	442.79
680.37	440.16
680.71	437.72
681.05	435.35
681.39	432.90
681.73	430.58
682.06	428.29
682.40	426.04
682.74	423.70
683.08	421.44
683.42	419.02
683.75	416.76
684.09	414.38
684.43	412.28
684.77	409.95
685.10	407.80
685.44	405.50
685.78	403.24
686.12	401.10
686.45	399.03
686.79	396.86
687.13	394.91
687.46	393.08
687.80	391.12
688.14	388.98
688.48	387.07
688.81	384.92
689.15	382.93
689.49	380.89
689.82	378.94
690.16	376.70
690.50	374.70
690.83	372.67
691.17	370.70
691.51	368.62
691.84	366.91
692.18	365.10
692.52	363.43
692.85	361.98
693.19	360.43
693.52	358.64
693.86	356.80
694.20	355.08
694.53	353.31
694.87	351.45
695.21	349.75
695.54	347.96
695.88	346.21
696.21	344.45
696.55	342.95
696.88	341.31
697.22	339.89
697.56	338.37
697.89	336.92
698.23	335.44
698.56	334.07
698.90	332.64
699.23	331.07
699.57	329.57
699.90	327.90
700.24	326.25
700.58	324.87
700.91	323.63
701.25	322.45
701.58	321.09
701.92	319.81
702.25	318.55
702.59	317.28
702.92	316.07
703.26	314.94
703.59	313.61
703.93	312.74
704.26	311.53
704.60	310.34
704.93	309.09
705.26	307.81
705.60	306.53
705.93	305.43
706.27	304.29
706.60	303.27
706.94	302.26
707.27	301.23
707.61	300.07
707.94	298.97
708.27	297.71
708.61	296.57
708.94	295.50
709.28	294.52
709.61	293.57
709.94	292.63
710.28	291.63
710.61	290.71
710.95	289.44
711.28	288.71
711.61	287.82
711.95	286.95
712.28	286.05
712.61	285.29
712.95	284.50
713.28	283.95
713.61	283.02
713.95	282.10
714.28	281.31
714.61	280.51
714.95	279.76
715.28	278.87
715.61	278.10
715.95	277.38
716.28	276.56
716.61	275.85
716.95	275.08
717.28	274.33
717.61	273.56
717.94	272.86
718.28	271.99
718.61	271.22
718.94	270.52
719.27	269.89
719.61	269.23
719.94	268.47
720.27	267.59
720.60	266.97
720.94	266.32
721.27	265.65
721.60	265.07
721.93	264.32
722.27	263.87
722.60	263.34
722.93	262.70
723.26	262.22
723.59	261.49
723.93	260.96
724.26	260.35
724.59	259.82
724.92	259.33
725.25	258.84
725.59	258.32
725.92	257.88
726.25	257.38
726.58	256.90
726.91	256.33
727.24	255.90
727.57	255.39
727.91	254.85
728.24	254.48
728.57	254.03
728.90	253.75
729.23	253.22
729.56	252.85
729.89	252.42
730.22	251.89
730.55	251.51
730.89	251.11
731.22	250.72
731.55	250.20
731.88	249.81
732.21	249.29
732.54	248.83
732.87	248.35
733.20	247.95
733.53	247.55
733.86	247.15
734.19	246.70
734.52	246.39
734.85	246.25
735.18	245.80
735.51	245.55
735.84	245.10
736.17	244.81
736.50	244.27
736.83	244.31
737.16	244.04
737.49	243.65
737.82	243.23
738.15	242.90
738.48	242.62
738.81	242.21
739.14	241.92
739.47	241.58
739.80	241.19
740.13	240.84
740.46	240.41
740.79	240.06
741.12	239.72
741.45	239.27
741.78	238.80
742.11	238.55
742.44	238.06
742.77	237.82
743.10	237.45
743.43	237.18
743.75	236.40
744.08	236.51
744.41	236.15
744.74	235.86
745.07	235.54
745.40	235.41
745.73	235.23
746.06	234.94
746.39	234.72
746.71	234.50
747.04	234.23
747.37	233.99
747.70	233.83
748.03	233.64
748.36	233.51
748.68	233.26
749.01	232.94
749.34	232.76
749.67	232.54
750.00	232.30
750.33	232.36
750.65	232.28
750.98	231.53
751.31	231.34
751.64	231.09
751.97	231.07
752.29	230.75
752.62	230.36
752.95	230.13
753.28	229.83
753.60	229.67
753.93	229.58
754.26	229.34
754.59	228.94
754.91	228.70
755.24	228.47
755.57	228.22
755.90	228.02
756.22	227.78
756.55	227.47
756.88	227.28
757.20	226.83
757.53	226.51
757.86	226.30
758.19	226.15
758.51	226.03
758.84	225.68
759.17	225.39
759.49	225.25
759.82	225.26
760.15	225.19
760.47	224.97
760.80	224.63
761.13	224.58
761.45	224.45
761.78	224.34
762.11	224.17
762.43	224.04
762.76	223.85
763.08	223.77
763.41	223.73
763.74	223.61
764.06	223.49
764.39	223.39
764.71	223.34
765.04	223.17
765.37	223.00
765.69	222.86
766.02	222.79
766.34	222.66
766.67	222.33
767.00	222.34
767.32	222.42
767.65	222.57
767.97	222.38
768.30	222.39
768.62	222.18
768.95	222.03
769.27	221.90
769.60	221.84
769.92	221.65
770.25	221.40
770.57	221.16
770.90	220.98
771.22	220.92
771.55	220.81
771.87	220.77
772.20	220.66
772.52	220.86
772.85	221.14
773.17	221.05
773.50	220.91
773.82	220.62
774.15	220.33
774.47	219.95
774.80	219.81
775.12	219.67
775.45	219.59
775.77	219.51
776.09	219.47
776.42	219.49
776.74	219.50
777.07	219.46
777.39	219.44
777.72	219.34
778.04	219.25
778.36	219.15
778.69	219.11
779.01	219.01
779.33	218.63
779.66	218.24
779.98	218.13
780.31	218.14
780.63	218.30
780.95	218.33
781.28	218.29
781.60	218.15
781.92	218.04
782.25	217.94
782.57	217.89
782.89	217.79
783.22	217.58
783.54	217.47
783.86	217.37
784.19	217.33
784.51	217.42
784.83	217.25
785.16	217.21
785.48	217.13
785.80	217.05
786.12	217.03
786.45	216.94
786.77	216.91
787.09	216.76
787.42	216.55
787.74	216.45
788.06	216.37
788.38	216.36
788.71	216.29
789.03	216.31
789.35	216.32
789.67	216.17
789.99	216.18
790.32	216.07
790.64	216.08
790.96	216.26
791.28	216.07
791.61	216.01
791.93	215.99
792.25	215.93
792.57	216.17
792.89	216.06
793.21	216.05
793.54	216.04
793.86	216.05
794.18	216.02
794.50	215.94
794.82	215.94
795.14	215.99
795.47	216.05
795.79	215.95
796.11	215.83
796.43	215.84
796.75	215.80
797.07	215.82
797.39	215.78
797.71	215.56
798.04	215.54
798.36	215.55
798.68	215.51
799.00	215.50
799.32	215.30
799.64	215.31
799.96	215.29
800.28	215.30
800.60	215.21
800.92	215.16
801.24	215.01
801.56	215.01
801.89	215.00
802.21	214.94
802.53	214.90
802.85	214.96
803.17	215.15
803.49	215.05
803.81	215.08
804.13	215.02
804.45	214.94
804.77	215.01
805.09	215.00
805.41	214.91
805.73	214.84
806.05	214.65
806.37	214.55
806.69	214.45
807.01	214.33
807.33	214.38
807.65	214.24
807.97	214.40
808.28	214.27
808.60	214.22
808.92	214.17
809.24	214.40
809.56	214.26
809.88	214.05
810.20	214.14
810.52	214.11
810.84	214.06
811.16	214.02
811.48	213.91
811.80	213.93
812.12	213.90
812.43	214.01
812.75	214.15
813.07	214.08
813.39	214.10
813.71	214.10
814.03	214.08
814.35	214.10
814.67	214.01
814.98	214.07
815.30	213.94
815.62	213.88
815.94	213.60
816.26	213.59
816.58	213.50
816.89	213.49
817.21	213.38
817.53	213.35
817.85	213.40
818.17	213.39
818.48	213.28
818.80	213.30
819.12	213.16
819.44	213.02
819.76	213.11
820.07	213.07
820.39	213.04
820.71	213.00
821.03	213.01
821.34	212.97
821.66	212.94
821.98	212.99
822.30	212.99
822.61	213.26
822.93	213.21
823.25	213.22
823.57	213.13
823.88	213.18
824.20	213.19
824.52	213.12
824.83	213.08
825.15	213.09
825.47	213.12
825.79	213.09
826.10	213.09
826.42	212.98
826.74	213.04
827.05	213.03
827.37	213.05
827.69	212.97
828.00	213.00
828.32	213.03
828.64	212.98
828.95	213.13
829.27	212.95
829.58	212.94
829.90	212.93
830.22	212.97
830.53	212.83
830.85	212.78
831.17	212.67
831.48	212.63
831.80	212.54
832.11	212.50
832.43	212.50
832.75	212.50
833.06	212.80
833.38	212.67
833.69	212.65
834.01	212.61
834.32	212.67
834.64	212.65
834.96	212.64
835.27	212.64
835.59	212.51
835.90	212.45
836.22	212.43
836.53	212.36
836.85	212.35
837.16	212.73
837.48	212.74
837.79	212.88
838.11	212.93
838.42	213.05
838.74	213.06
839.05	213.11
839.37	213.04
839.68	212.77
840.00	212.71
840.31	212.74
840.63	212.74
840.94	212.62
841.26	212.51
841.57	212.53
841.88	212.61
842.20	212.54
842.51	212.51
842.83	212.48
843.14	212.86
843.46	212.92
843.77	212.68
844.08	212.71
844.40	212.63
844.71	212.66
845.03	212.56
845.34	212.45
845.65	212.40
845.97	212.42
846.28	212.32
846.60	212.37
846.91	212.30
847.22	212.26
847.54	212.40
847.85	212.40
848.16	212.30
848.48	212.21
848.79	212.38
849.10	212.43
849.42	212.48
849.73	212.10
850.04	212.04
850.36	211.97
850.67	211.99
850.98	212.03
851.30	211.99
851.61	212.00
851.92	212.06
852.23	212.13
852.55	212.18
852.86	212.28
853.17	212.28
853.49	212.40
853.80	212.44
854.11	212.43
854.42	212.53
854.74	212.50
855.05	212.45
855.36	212.25
855.67	212.24
855.99	212.30
856.30	212.73
856.61	212.70
856.92	212.73
857.23	212.71
857.55	212.67
857.86	212.64
858.17	212.69
858.48	212.59
858.79	212.46
859.11	212.47
859.42	212.46
859.73	212.43
860.04	212.35
860.35	212.30
860.66	212.19
860.98	212.14
861.29	212.20
861.60	212.20
861.91	212.30
862.22	212.25
862.53	212.17
862.84	211.76
863.16	211.79
863.47	211.66
863.78	211.60
864.09	211.55
864.40	211.60
864.71	211.62
865.02	211.64
865.33	211.60
865.64	211.55
865.95	211.51
866.27	211.73
866.58	211.69
866.89	211.77
867.20	211.78
867.51	211.76
867.82	211.72
868.13	211.85
868.44	211.81
868.75	211.92
869.06	211.88
869.37	211.97
869.68	211.92
869.99	211.97
870.30	212.05
870.61	212.12
870.92	212.00
871.23	211.97
871.54	212.08
871.85	212.24
872.16	212.23
872.47	212.18
872.78	211.95
873.09	212.06
873.40	211.98
873.71	212.01
874.02	211.95
874.33	211.98
874.64	211.96
874.95	212.00
875.26	211.90
875.56	211.87
875.87	211.84
876.18	211.83
876.49	212.22
876.80	212.17
877.11	212.08
877.42	212.18
877.73	212.18
878.04	212.16
878.35	212.06
878.66	212.12
878.96	212.20
879.27	212.24
879.58	212.18
879.89	212.19
880.20	212.30
880.51	212.32
880.82	212.31
881.12	212.31
881.43	212.22
881.74	212.13
882.05	212.11
882.36	212.08
882.67	212.10
882.97	211.72
883.28	211.63
883.59	211.66
883.90	211.67
884.21	211.69
884.51	211.69
884.82	211.73
885.13	211.75
885.44	211.64
885.74	211.67
886.05	211.68
886.36	211.67
886.67	211.56
886.98	211.75
887.28	211.76
887.59	211.69
887.90	211.72
888.20	211.73
888.51	211.83
888.82	211.82
889.13	211.87
889.43	212.15
889.74	212.17
890.05	212.14
890.35	212.18
890.66	212.07
890.97	212.00
891.28	211.92
891.58	211.90
891.89	211.89
892.20	211.78
892.50	211.79
892.81	211.77
893.12	211.82
893.42	211.61
893.73	211.60
894.04	211.61
894.34	211.64
894.65	211.65
894.95	211.58
895.26	211.57
895.57	211.66
895.87	211.35
896.18	211.41
896.48	211.42
896.79	211.33
897.10	211.41
897.40	211.45
897.71	211.47
898.01	211.45
898.32	211.57
898.63	211.58
898.93	211.50
899.24	211.50
899.54	211.50
899.85	211.54
900.15	211.52
900.46	211.51
900.76	211.55
901.07	211.57
901.38	211.55
901.68	211.60
901.99	211.46
902.29	211.43
902.60	211.43
902.90	211.37
903.21	211.34
903.51	211.36
903.82	211.39
904.12	211.36
904.43	211.36
904.73	211.33
905.03	211.31
905.34	211.64
905.64	211.60
905.95	211.51
906.25	211.50
906.56	211.54
906.86	211.53
907.17	211.45
907.47	211.50
907.77	211.54
908.08	211.45
908.38	211.48
908.69	211.58
908.99	211.60
909.30	211.72
909.60	211.76
909.90	211.77
910.21	211.75
910.51	211.78
910.81	211.79
911.12	211.76
911.42	211.80
911.73	211.46
912.03	211.54
912.33	211.71
912.64	211.72
912.94	211.65
913.24	211.65
913.55	211.63
913.85	211.59
914.15	211.63
914.46	211.76
914.76	211.72
915.06	211.62
915.37	211.59
915.67	211.51
915.97	211.54
916.27	211.51
916.58	211.50
916.88	211.44
917.18	211.42
917.49	211.71
917.79	211.73
918.09	211.79
918.39	211.87
918.70	211.80
919.00	211.79
919.30	211.95
919.60	211.94
919.91	211.88
920.21	211.88
920.51	211.84
920.81	211.74
921.12	211.75
921.42	211.83
921.72	211.89
922.02	211.90
922.32	211.89
922.63	211.86
922.93	212.09
923.23	212.11
923.53	212.09
923.83	211.88
924.13	211.95
924.44	211.97
924.74	212.02
925.04	212.06
925.34	212.10
925.64	211.97
925.94	211.94
926.24	212.23
926.55	212.25
926.85	212.26
927.15	212.27
927.45	212.31
927.75	212.27
928.05	212.22
928.35	212.22
928.65	212.28
928.95	212.27
929.26	212.09
929.56	212.14
929.86	212.21
930.16	212.17
930.46	212.15
930.76	212.14
931.06	211.94
931.36	211.82
931.66	211.83
931.96	211.91
932.26	211.92
932.56	211.73
932.86	211.75
933.16	211.78
933.46	211.82
933.76	211.74
934.06	211.80
934.36	211.92
934.66	211.94
934.96	211.92
935.26	211.98
935.56	212.00
935.86	211.94
936.16	211.90
936.46	211.90
936.76	211.86
937.06	211.80
937.36	211.84
937.66	211.91
937.96	211.88
938.26	211.79
938.56	211.79
938.86	211.86
939.16	211.88
939.46	211.88
939.76	211.85
940.06	211.88
940.35	211.77
940.65	211.56
940.95	211.63
941.25	211.54
941.55	211.53
941.85	211.49
942.15	211.56
942.45	211.61
942.75	211.48
943.04	211.48
943.34	211.55
943.64	211.49
943.94	211.37
944.24	211.36
944.54	211.38
944.84	211.39
945.13	211.32
945.43	211.28
945.73	211.31
946.03	211.25
946.33	211.22
946.62	211.15
946.92	211.19
947.22	211.13
947.52	211.16
947.82	211.16
948.11	211.15
948.41	211.01
948.71	210.91
949.01	211.07
949.31	211.03
949.60	210.95
949.90	211.00
950.20	211.03
950.50	211.02
950.79	210.96
951.09	210.99
951.39	210.98
951.69	210.85
951.98	210.92
952.28	210.97
952.58	210.84
952.87	210.97
953.17	211.02
953.47	210.97
953.76	210.95
954.06	210.92
954.36	210.85
954.66	210.90
954.95	210.97
955.25	210.94
955.55	210.98
955.84	210.92
956.14	210.95
956.44	211.00
956.73	210.91
957.03	210.89
957.32	210.89
957.62	210.82
957.92	211.00
958.21	210.90
958.51	211.32
958.81	211.47
959.10	211.44
959.40	211.53
959.69	211.59
959.99	211.62
960.29	211.59
960.58	211.53
960.88	211.73
961.17	211.67
961.47	211.69
961.76	211.63
962.06	211.80
962.36	211.78
962.65	211.82
962.95	211.86
963.24	211.86
963.54	211.95
963.83	212.02
964.13	211.96
964.42	211.82
964.72	211.51
965.01	211.53
965.31	211.49
965.60	211.42
965.90	211.62
966.19	211.57
966.49	211.64
966.78	211.72
967.08	211.66
967.37	211.76
967.67	211.70
967.96	211.85
968.26	211.86
968.55	211.83
968.85	211.76
969.14	211.76
969.43	211.80
969.73	211.67
970.02	211.58
970.32	211.64
970.61	211.65
970.91	211.60
971.20	211.54
971.49	211.56
971.79	211.53
972.08	211.23
972.38	211.26
972.67	211.23
972.96	211.25
973.26	211.08
973.55	211.14
973.85	211.18
974.14	211.05
974.43	211.01
974.73	211.00
975.02	211.01
975.31	211.03
975.61	211.02
975.90	211.07
976.19	211.12
976.49	210.98
976.78	211.08
977.07	211.08
977.37	211.11
977.66	211.17
977.95	211.15
978.24	211.26
978.54	211.33
978.83	211.30
979.12	211.26
979.42	211.32
979.71	211.22
980.00	211.16
980.29	211.21
980.59	211.11
980.88	211.25
981.17	211.23
981.46	211.25
981.76	211.19
982.05	211.27
982.34	211.23
982.63	211.29
982.93	211.20
983.22	211.22
983.51	211.21
983.80	211.22
984.09	211.32
984.39	211.25
984.68	211.21
984.97	211.26
985.26	211.25
985.55	211.27
985.85	211.18
986.14	211.27
986.43	211.27
986.72	211.25
987.01	211.10
987.30	211.12
987.59	211.07
987.89	211.13
988.18	210.95
988.47	210.97
988.76	210.91
989.05	210.91
989.34	210.89
989.63	211.02
989.92	210.95
990.22	210.77
990.51	210.75
990.80	210.66
991.09	210.69
991.38	210.76
991.67	210.71
991.96	210.68
992.25	210.69
992.54	210.62
992.83	210.61
993.12	210.61
993.41	210.65
993.70	210.85
993.99	210.87
994.28	210.95
994.58	211.07
994.87	211.05
995.16	211.08
995.45	211.05
995.74	210.89
996.03	210.98
996.32	211.06
996.61	211.20
996.90	211.26
997.19	211.21
997.48	211.26
997.77	211.26
998.06	211.27
998.34	211.24
998.63	211.26
998.92	211.32
999.21	211.30
999.50	211.32
999.79	211.15
1000.08	211.15
1000.37	211.19
1000.66	211.07
1000.95	211.16
1001.24	211.19
1001.53	211.26
1001.82	211.28
1002.11	211.16
1002.40	211.28
1002.68	211.26
1002.97	211.46
1003.26	211.46
1003.55	211.32
1003.84	211.33
1004.13	211.52
1004.42	211.43
1004.71	211.42
1004.99	211.41
1005.28	211.56
1005.57	211.50
1005.86	211.50
1006.15	211.54
1006.44	211.46
1006.72	211.49
1007.01	211.41
1007.30	211.36
1007.59	211.31
1007.88	211.28
1008.17	211.35
1008.45	211.22
1008.74	211.15
1009.03	211.01
1009.32	210.96
1009.60	210.98
1009.89	211.00
1010.18	210.84
1010.47	210.89
1010.76	210.88
1011.04	210.86
1011.33	210.85
1011.62	210.90
1011.91	210.85
1012.19	210.85
1012.48	210.84
1012.77	210.88
1013.05	211.04
1013.34	211.05
1013.63	211.04
1013.92	211.08
1014.20	210.97
1014.49	210.99
1014.78	210.96
1015.06	210.80
1015.35	210.83
1015.64	210.93
1015.92	210.89
1016.21	210.87
1016.50	210.89
1016.78	211.00
1017.07	211.01
1017.36	210.92
1017.64	210.86
1017.93	210.90
1018.22	210.85
1018.50	210.78
1018.79	210.74
1019.08	210.59
1019.36	210.67
1019.65	210.64
1019.93	210.72
1020.22	210.77
1020.51	210.97
1020.79	210.95
1021.08	210.70
1021.36	209.00
1021.65	210.85
1021.94	209.85
1022.22	212.00
1022.51	210.55
1022.79	212.70
1023.08	210.00
1023.36	215.75
1023.65	209.35
>>>>>End Processed Spectral Data<<<<<
