SpectraSuite Data File
++++++++++++++++++++++++++++++++++++
Date: Mon Feb 25 17:06:38 EST 2013
User: group
Dark Spectrum Present: No
Reference Spectrum Present: No
Number of Sampled Component Spectra: 1
Spectrometers: USB2E7196
Integration Time (usec): 104000 (USB2E7196)
Spectra Averaged: 20 (USB2E7196)
Boxcar Smoothing: 10 (USB2E7196)
Correct for Electrical Dark: No (USB2E7196)
Strobe/Lamp Enabled: No (USB2E7196)
Correct for Detector Non-linearity: No (USB2E7196)
Correct for Stray Light: No (USB2E7196)
Number of Pixels in Processed Spectrum: 2048
>>>>>Begin Processed Spectral Data<<<<<
339.09	0.00
339.48	197.30
339.86	200.55
340.24	201.25
340.63	202.35
341.01	209.90
341.39	205.60
341.78	208.25
342.16	209.15
342.54	208.10
342.93	198.18
343.31	208.21
343.69	208.83
344.07	209.30
344.46	209.83
344.84	210.22
345.22	210.25
345.60	210.50
345.99	210.58
346.37	210.60
346.75	210.74
347.13	210.80
347.52	210.81
347.90	211.04
348.28	211.08
348.66	211.16
349.05	211.09
349.43	211.14
349.81	211.17
350.19	211.18
350.57	211.23
350.96	211.28
351.34	211.33
351.72	211.35
352.10	211.35
352.48	211.28
352.87	211.30
353.25	211.36
353.63	211.45
354.01	211.51
354.39	211.61
354.77	211.65
355.15	211.78
355.54	211.81
355.92	211.72
356.30	211.75
356.68	212.00
357.06	212.00
357.44	211.95
357.82	211.97
358.20	212.12
358.58	212.13
358.97	212.18
359.35	212.26
359.73	212.39
360.11	212.48
360.49	212.52
360.87	212.55
361.25	212.65
361.63	212.77
362.01	212.87
362.39	212.83
362.77	212.95
363.15	212.99
363.53	213.06
363.91	213.13
364.29	213.17
364.67	212.83
365.05	212.93
365.43	213.06
365.81	213.08
366.19	213.15
366.57	213.30
366.95	213.29
367.33	213.20
367.71	213.13
368.09	213.19
368.47	213.30
368.85	213.29
369.23	213.38
369.61	213.27
369.99	213.41
370.37	213.51
370.75	213.57
371.13	213.44
371.51	213.42
371.89	213.36
372.27	213.30
372.65	213.32
373.03	213.25
373.41	213.12
373.78	213.12
374.16	212.91
374.54	212.77
374.92	212.78
375.30	212.73
375.68	212.68
376.06	212.62
376.44	212.48
376.82	212.48
377.19	212.32
377.57	212.17
377.95	211.95
378.33	211.85
378.71	211.59
379.09	211.57
379.47	211.56
379.84	211.56
380.22	211.49
380.60	211.39
380.98	211.37
381.36	211.36
381.73	211.20
382.11	211.26
382.49	211.21
382.87	211.02
383.25	211.04
383.62	211.44
384.00	211.34
384.38	211.31
384.76	211.34
385.13	211.43
385.51	211.47
385.89	211.41
386.27	211.36
386.64	211.43
387.02	211.46
387.40	211.36
387.78	211.30
388.15	211.30
388.53	211.27
388.91	211.15
389.29	211.11
389.66	211.19
390.04	211.06
390.42	211.04
390.79	211.08
391.17	211.05
391.55	210.57
391.92	210.50
392.30	210.50
392.68	210.41
393.05	210.36
393.43	210.43
393.81	210.39
394.18	210.41
394.56	210.36
394.94	210.37
395.31	210.30
395.69	210.41
396.06	210.46
396.44	210.44
396.82	210.52
397.19	210.70
397.57	210.62
397.95	210.66
398.32	210.67
398.70	210.73
399.07	210.81
399.45	210.87
399.82	210.94
400.20	210.96
400.58	210.99
400.95	210.80
401.33	210.79
401.70	211.00
402.08	211.02
402.45	211.08
402.83	211.15
403.20	211.27
403.58	211.21
403.95	211.28
404.33	211.41
404.71	211.35
405.08	211.57
405.46	211.61
405.83	211.76
406.21	211.81
406.58	211.93
406.96	211.95
407.33	212.07
407.70	212.24
408.08	212.65
408.45	212.86
408.83	213.17
409.20	213.31
409.58	213.34
409.95	213.63
410.33	213.84
410.70	214.00
411.08	214.32
411.45	214.61
411.82	214.92
412.20	215.30
412.57	215.89
412.95	215.96
413.32	216.50
413.69	216.86
414.07	217.31
414.44	217.80
414.82	218.40
415.19	219.01
415.56	219.62
415.94	220.04
416.31	220.76
416.68	221.43
417.06	222.26
417.43	223.15
417.81	224.06
418.18	225.01
418.55	225.97
418.93	227.02
419.30	228.13
419.67	229.22
420.04	230.40
420.42	231.58
420.79	233.21
421.16	234.57
421.54	236.25
421.91	237.80
422.28	239.46
422.66	241.09
423.03	243.02
423.40	244.80
423.77	246.72
424.15	248.61
424.52	250.61
424.89	252.82
425.26	254.87
425.64	256.71
426.01	258.87
426.38	261.21
426.75	263.64
427.13	266.09
427.50	268.66
427.87	271.20
428.24	273.82
428.61	276.22
428.99	279.16
429.36	282.10
429.73	285.14
430.10	288.08
430.47	291.20
430.85	294.14
431.22	297.52
431.59	301.22
431.96	304.65
432.33	308.40
432.70	312.04
433.08	316.39
433.45	320.57
433.82	324.65
434.19	329.19
434.56	333.59
434.93	337.87
435.30	342.17
435.68	347.09
436.05	351.77
436.42	356.46
436.79	360.80
437.16	365.33
437.53	370.15
437.90	374.96
438.27	379.75
438.64	384.74
439.01	389.42
439.38	393.43
439.75	397.40
440.13	402.05
440.50	406.30
440.87	409.72
441.24	413.37
441.61	417.41
441.98	420.45
442.35	423.95
442.72	427.40
443.09	430.93
443.46	432.95
443.83	434.43
444.20	435.72
444.57	437.55
444.94	438.55
445.31	439.60
445.68	440.86
446.05	441.40
446.42	441.09
446.79	440.67
447.16	440.18
447.53	439.96
447.90	438.32
448.27	436.82
448.64	434.59
449.01	433.11
449.37	430.10
449.74	427.22
450.11	424.01
450.48	420.09
450.85	416.03
451.22	412.67
451.59	409.50
451.96	406.46
452.33	402.24
452.70	398.50
453.07	394.05
453.43	389.25
453.80	384.81
454.17	380.71
454.54	376.78
454.91	372.47
455.28	368.23
455.65	364.34
456.02	360.84
456.38	357.62
456.75	353.41
457.12	349.97
457.49	346.63
457.86	342.91
458.23	340.26
458.59	337.10
458.96	334.00
459.33	331.18
459.70	328.37
460.07	326.22
460.43	323.60
460.80	321.21
461.17	319.13
461.54	316.88
461.91	314.68
462.27	312.43
462.64	310.62
463.01	308.63
463.38	306.70
463.74	304.23
464.11	302.41
464.48	300.93
464.85	299.24
465.21	297.97
465.58	296.70
465.95	294.97
466.32	293.67
466.68	292.22
467.05	290.90
467.42	289.48
467.78	287.92
468.15	286.67
468.52	285.70
468.88	284.31
469.25	283.14
469.62	282.23
469.98	281.15
470.35	280.14
470.72	279.17
471.08	278.08
471.45	277.30
471.82	276.44
472.18	275.54
472.55	274.90
472.92	273.97
473.28	273.21
473.65	272.53
474.02	271.80
474.38	271.30
474.75	270.79
475.11	270.28
475.48	269.96
475.85	269.47
476.21	268.99
476.58	268.61
476.94	268.31
477.31	267.90
477.67	267.61
478.04	267.33
478.41	267.18
478.77	267.36
479.14	267.07
479.50	266.98
479.87	266.82
480.23	266.67
480.60	266.66
480.96	266.56
481.33	266.71
481.69	266.70
482.06	266.64
482.42	266.71
482.79	266.80
483.15	266.80
483.52	267.09
483.88	267.22
484.25	267.40
484.61	267.56
484.98	267.75
485.34	268.02
485.71	268.37
486.07	268.65
486.44	268.67
486.80	269.06
487.17	269.42
487.53	269.95
487.90	270.51
488.26	271.08
488.62	271.72
488.99	272.16
489.35	272.71
489.72	273.40
490.08	273.97
490.44	274.60
490.81	275.46
491.17	276.06
491.54	276.87
491.90	277.80
492.26	278.77
492.63	279.74
492.99	280.64
493.36	281.59
493.72	282.67
494.08	283.73
494.45	284.90
494.81	286.01
495.17	287.14
495.54	288.35
495.90	289.47
496.26	290.64
496.63	291.92
496.99	293.21
497.35	294.51
497.72	295.92
498.08	297.30
498.44	298.54
498.80	300.02
499.17	301.40
499.53	302.69
499.89	304.14
500.26	305.50
500.62	307.07
500.98	308.64
501.34	310.09
501.71	311.73
502.07	313.24
502.43	314.78
502.79	316.35
503.16	317.82
503.52	319.38
503.88	320.96
504.24	322.56
504.60	324.33
504.97	326.01
505.33	327.60
505.69	329.34
506.05	331.06
506.41	332.82
506.78	334.41
507.14	336.11
507.50	337.86
507.86	339.62
508.22	341.35
508.59	342.92
508.95	344.63
509.31	346.45
509.67	348.17
510.03	349.89
510.39	351.61
510.75	353.40
511.12	355.16
511.48	356.95
511.84	358.61
512.20	360.21
512.56	361.89
512.92	363.73
513.28	365.54
513.64	367.21
514.00	368.82
514.37	370.67
514.73	372.51
515.09	374.21
515.45	375.98
515.81	377.75
516.17	379.53
516.53	381.37
516.89	383.05
517.25	384.77
517.61	386.78
517.97	388.50
518.33	390.28
518.69	392.24
519.05	394.14
519.41	396.25
519.77	398.50
520.13	400.53
520.49	402.42
520.85	404.29
521.21	406.60
521.57	408.82
521.93	410.78
522.29	412.95
522.65	415.16
523.01	417.25
523.37	419.30
523.73	421.50
524.09	423.75
524.45	426.00
524.81	428.41
525.17	430.70
525.53	433.28
525.89	435.82
526.25	438.26
526.61	440.75
526.97	443.15
527.33	445.54
527.68	448.53
528.04	451.15
528.40	453.81
528.76	456.34
529.12	458.97
529.48	462.00
529.84	464.61
530.20	467.42
530.56	470.39
530.91	473.52
531.27	476.67
531.63	479.74
531.99	482.73
532.35	485.68
532.71	488.62
533.07	491.72
533.42	495.09
533.78	498.12
534.14	501.25
534.50	504.30
534.86	507.40
535.21	509.97
535.57	513.25
535.93	516.23
536.29	519.43
536.65	522.67
537.00	525.71
537.36	528.86
537.72	531.86
538.08	534.95
538.44	537.93
538.79	540.95
539.15	543.98
539.51	547.18
539.87	550.41
540.22	553.61
540.58	556.79
540.94	559.65
541.29	562.68
541.65	565.65
542.01	568.85
542.37	572.03
542.72	575.23
543.08	578.14
543.44	581.42
543.79	584.26
544.15	587.24
544.51	590.45
544.87	593.73
545.22	596.75
545.58	599.77
545.94	602.63
546.29	605.49
546.65	608.31
547.01	610.92
547.36	613.84
547.72	616.77
548.07	619.49
548.43	622.19
548.79	624.79
549.14	627.33
549.50	629.99
549.86	632.43
550.21	635.05
550.57	637.69
550.92	639.96
551.28	642.43
551.64	644.84
551.99	647.03
552.35	649.21
552.70	651.44
553.06	653.73
553.41	655.96
553.77	658.49
554.13	660.78
554.48	663.29
554.84	665.37
555.19	667.29
555.55	669.30
555.90	671.09
556.26	673.01
556.61	674.88
556.97	676.52
557.32	678.32
557.68	679.87
558.03	681.36
558.39	683.20
558.74	685.06
559.10	686.81
559.45	688.55
559.81	690.33
560.16	692.15
560.52	693.66
560.87	695.37
561.23	696.47
561.58	698.29
561.94	699.44
562.29	700.59
562.64	701.76
563.00	703.03
563.35	704.44
563.71	706.06
564.06	707.43
564.42	708.90
564.77	710.54
565.12	712.00
565.48	713.76
565.83	715.03
566.19	716.33
566.54	717.24
566.89	718.18
567.25	719.22
567.60	720.06
567.96	721.17
568.31	722.19
568.66	723.26
569.02	723.54
569.37	724.08
569.72	724.89
570.08	725.66
570.43	725.99
570.78	726.47
571.14	726.43
571.49	726.80
571.84	727.10
572.20	726.80
572.55	726.89
572.90	726.32
573.26	726.05
573.61	725.89
573.96	725.90
574.31	725.60
574.67	725.14
575.02	724.65
575.37	724.08
575.72	723.31
576.08	722.80
576.43	722.32
576.78	722.11
577.13	721.75
577.49	721.34
577.84	720.88
578.19	720.50
578.54	720.42
578.90	720.03
579.25	719.45
579.60	719.05
579.95	718.40
580.30	718.23
580.66	718.04
581.01	717.32
581.36	716.42
581.71	715.78
582.06	715.32
582.42	714.91
582.77	714.21
583.12	713.69
583.47	713.09
583.82	712.49
584.17	711.72
584.53	711.20
584.88	710.44
585.23	710.01
585.58	709.20
585.93	708.35
586.28	707.69
586.63	706.97
586.98	706.36
587.34	706.03
587.69	705.22
588.04	704.28
588.39	703.55
588.74	702.79
589.09	702.08
589.44	700.92
589.79	700.10
590.14	699.35
590.49	698.32
590.84	697.26
591.19	696.44
591.54	695.55
591.89	694.11
592.25	693.38
592.60	692.08
592.95	690.90
593.30	689.68
593.65	688.22
594.00	686.95
594.35	686.64
594.70	685.20
595.05	684.01
595.40	682.82
595.75	681.44
596.10	680.41
596.45	679.40
596.80	678.52
597.15	677.46
597.50	676.32
597.85	675.36
598.19	674.17
598.54	673.09
598.89	671.87
599.24	671.01
599.59	669.62
599.94	668.85
600.29	667.81
600.64	666.85
600.99	665.83
601.34	664.93
601.69	662.82
602.04	661.60
602.39	660.38
602.74	659.28
603.08	658.34
603.43	657.53
603.78	656.26
604.13	655.06
604.48	653.84
604.83	652.93
605.18	652.00
605.53	651.00
605.87	649.69
606.22	648.58
606.57	647.30
606.92	646.03
607.27	644.55
607.62	643.43
607.96	642.33
608.31	641.34
608.66	639.84
609.01	638.40
609.36	636.99
609.70	635.42
610.05	633.79
610.40	632.43
610.75	630.68
611.10	629.39
611.44	627.84
611.79	626.11
612.14	624.32
612.49	622.30
612.83	620.67
613.18	618.99
613.53	617.31
613.88	615.36
614.22	613.58
614.57	611.79
614.92	609.87
615.27	607.79
615.61	605.78
615.96	604.13
616.31	602.48
616.65	600.97
617.00	599.32
617.35	597.58
617.70	595.73
618.04	593.69
618.39	591.55
618.74	589.70
619.08	587.80
619.43	585.70
619.78	583.88
620.12	581.97
620.47	580.13
620.82	578.03
621.16	576.12
621.51	574.46
621.85	572.61
622.20	570.67
622.55	568.90
622.89	567.06
623.24	564.95
623.59	562.88
623.93	560.86
624.28	559.06
624.62	557.59
624.97	555.73
625.32	553.98
625.66	552.22
626.01	550.31
626.35	548.53
626.70	546.79
627.04	545.18
627.39	543.35
627.73	541.54
628.08	539.98
628.43	538.13
628.77	536.02
629.12	534.09
629.46	532.36
629.81	530.46
630.15	528.45
630.50	526.72
630.84	524.80
631.19	522.94
631.53	521.13
631.88	518.95
632.22	516.83
632.57	515.11
632.91	513.22
633.26	511.35
633.60	509.49
633.95	507.65
634.29	505.58
634.64	503.90
634.98	501.98
635.32	500.22
635.67	498.75
636.01	497.22
636.36	495.41
636.70	493.82
637.05	492.04
637.39	490.41
637.73	488.71
638.08	487.33
638.42	485.72
638.77	484.08
639.11	482.38
639.45	480.84
639.80	478.98
640.14	477.15
640.49	475.50
640.83	473.75
641.17	472.10
641.52	470.45
641.86	468.52
642.20	466.86
642.55	464.92
642.89	462.95
643.23	460.99
643.58	459.58
643.92	457.74
644.26	456.01
644.61	454.22
644.95	452.47
645.29	450.55
645.64	448.83
645.98	446.93
646.32	445.12
646.66	443.23
647.01	441.53
647.35	439.96
647.69	438.18
648.04	436.62
648.38	434.92
648.72	433.22
649.06	431.52
649.41	429.76
649.75	428.03
650.09	426.44
650.43	424.81
650.78	422.70
651.12	420.85
651.46	419.24
651.80	417.67
652.14	416.05
652.49	414.48
652.83	412.63
653.17	410.85
653.51	409.17
653.85	407.70
654.20	405.97
654.54	404.12
654.88	402.34
655.22	400.66
655.56	398.84
655.90	397.16
656.25	395.57
656.59	394.03
656.93	392.51
657.27	391.00
657.61	389.20
657.95	387.80
658.29	386.12
658.64	384.56
658.98	382.97
659.32	381.21
659.66	379.67
660.00	378.10
660.34	376.57
660.68	375.08
661.02	373.55
661.36	372.10
661.70	370.73
662.05	369.34
662.39	367.93
662.73	366.75
663.07	365.58
663.41	364.20
663.75	362.70
664.09	361.23
664.43	359.69
664.77	358.52
665.11	357.14
665.45	355.94
665.79	354.63
666.13	353.30
666.47	352.06
666.81	350.67
667.15	349.44
667.49	348.40
667.83	347.21
668.17	345.85
668.51	344.68
668.85	343.63
669.19	342.73
669.53	341.47
669.87	340.16
670.21	338.83
670.55	337.58
670.89	336.72
671.23	335.80
671.57	334.84
671.91	333.71
672.25	332.66
672.58	331.62
672.92	330.47
673.26	329.45
673.60	328.35
673.94	327.25
674.28	326.26
674.62	325.14
674.96	324.20
675.30	323.26
675.64	322.24
675.97	321.26
676.31	320.17
676.65	319.15
676.99	318.31
677.33	317.34
677.67	316.44
678.01	315.22
678.34	314.19
678.68	313.13
679.02	312.13
679.36	311.14
679.70	310.20
680.04	309.25
680.37	308.27
680.71	307.38
681.05	306.65
681.39	305.76
681.73	304.87
682.06	303.98
682.40	303.13
682.74	302.30
683.08	301.35
683.42	300.32
683.75	299.57
684.09	298.64
684.43	297.83
684.77	296.87
685.10	296.10
685.44	295.18
685.78	294.40
686.12	293.65
686.45	292.90
686.79	292.00
687.13	291.24
687.46	290.40
687.80	289.68
688.14	288.83
688.48	288.07
688.81	287.30
689.15	286.51
689.49	285.74
689.82	284.91
690.16	284.12
690.50	283.39
690.83	282.60
691.17	281.77
691.51	281.00
691.84	280.39
692.18	279.65
692.52	278.96
692.85	278.25
693.19	277.69
693.52	277.02
693.86	276.28
694.20	275.68
694.53	275.07
694.87	274.40
695.21	273.79
695.54	273.09
695.88	272.35
696.21	271.61
696.55	270.99
696.88	270.37
697.22	269.75
697.56	269.17
697.89	268.50
698.23	268.00
698.56	267.37
698.90	266.83
699.23	266.15
699.57	265.60
699.90	265.02
700.24	264.26
700.58	263.66
700.91	263.20
701.25	262.88
701.58	262.43
701.92	261.95
702.25	261.34
702.59	260.76
702.92	260.24
703.26	259.73
703.59	259.18
703.93	259.01
704.26	258.49
704.60	258.01
704.93	257.50
705.26	256.91
705.60	256.44
705.93	255.82
706.27	255.53
706.60	255.13
706.94	254.77
707.27	254.27
707.61	253.85
707.94	253.41
708.27	252.64
708.61	252.09
708.94	251.55
709.28	251.14
709.61	250.76
709.94	250.47
710.28	250.08
710.61	249.67
710.95	248.97
711.28	248.87
711.61	248.36
711.95	248.02
712.28	247.70
712.61	247.35
712.95	247.21
713.28	246.95
713.61	246.56
713.95	246.09
714.28	245.84
714.61	245.48
714.95	245.14
715.28	244.77
715.61	244.41
715.95	244.17
716.28	243.78
716.61	243.44
716.95	242.98
717.28	242.66
717.61	242.38
717.94	242.04
718.28	241.36
718.61	241.14
718.94	240.76
719.27	240.34
719.61	240.11
719.94	239.68
720.27	239.17
720.60	238.92
720.94	238.65
721.27	238.37
721.60	238.07
721.93	237.77
722.27	237.60
722.60	237.41
722.93	237.09
723.26	236.83
723.59	236.49
723.93	236.25
724.26	235.97
724.59	235.54
724.92	235.34
725.25	235.26
725.59	235.00
725.92	234.86
726.25	234.76
726.58	234.41
726.91	234.14
727.24	233.92
727.57	233.59
727.91	233.28
728.24	233.00
728.57	232.82
728.90	232.66
729.23	232.37
729.56	232.29
729.89	232.04
730.22	231.82
730.55	231.61
730.89	231.38
731.22	231.20
731.55	231.10
731.88	230.88
732.21	230.54
732.54	230.26
732.87	230.09
733.20	229.89
733.53	229.72
733.86	229.52
734.19	229.33
734.52	229.20
734.85	229.28
735.18	229.06
735.51	228.91
735.84	228.69
736.17	228.64
736.50	228.28
736.83	228.54
737.16	228.38
737.49	228.27
737.82	228.14
738.15	227.96
738.48	227.80
738.81	227.60
739.14	227.44
739.47	227.33
739.80	227.10
740.13	226.96
740.46	226.73
740.79	226.57
741.12	226.42
741.45	226.15
741.78	225.80
742.11	225.86
742.44	225.61
742.77	225.52
743.10	225.24
743.43	225.12
743.75	224.62
744.08	224.98
744.41	224.86
744.74	224.71
745.07	224.59
745.40	224.53
745.73	224.56
746.06	224.46
746.39	224.39
746.71	224.30
747.04	224.10
747.37	224.03
747.70	223.99
748.03	223.88
748.36	223.88
748.68	223.75
749.01	223.49
749.34	223.41
749.67	223.31
750.00	223.25
750.33	223.39
750.65	223.27
750.98	222.69
751.31	222.53
751.64	222.41
751.97	222.48
752.29	222.36
752.62	222.12
752.95	221.99
753.28	221.80
753.60	221.67
753.93	221.67
754.26	221.60
754.59	221.37
754.91	221.21
755.24	221.15
755.57	221.03
755.90	220.92
756.22	220.78
756.55	220.62
756.88	220.48
757.20	220.09
757.53	219.95
757.86	219.81
758.19	219.77
758.51	219.70
758.84	219.41
759.17	219.24
759.49	219.17
759.82	219.31
760.15	219.27
760.47	219.12
760.80	218.95
761.13	218.86
761.45	218.78
761.78	218.73
762.11	218.55
762.43	218.50
762.76	218.39
763.08	218.36
763.41	218.35
763.74	218.30
764.06	218.24
764.39	218.13
764.71	218.07
765.04	217.91
765.37	217.75
765.69	217.67
766.02	217.55
766.34	217.41
766.67	217.17
767.00	217.19
767.32	217.30
767.65	217.43
767.97	217.35
768.30	217.32
768.62	217.27
768.95	217.17
769.27	217.10
769.60	217.10
769.92	216.98
770.25	216.83
770.57	216.69
770.90	216.66
771.22	216.55
771.55	216.47
771.87	216.45
772.20	216.40
772.52	216.56
772.85	217.00
773.17	216.99
773.50	216.87
773.82	216.78
774.15	216.64
774.47	216.42
774.80	216.41
775.12	216.33
775.45	216.33
775.77	216.28
776.09	216.22
776.42	216.20
776.74	216.28
777.07	216.20
777.39	216.17
777.72	216.10
778.04	216.12
778.36	216.07
778.69	216.06
779.01	216.05
779.33	215.75
779.66	215.34
779.98	215.24
780.31	215.28
780.63	215.35
780.95	215.32
781.28	215.21
781.60	215.05
781.92	215.05
782.25	214.89
782.57	214.86
782.89	214.89
783.22	214.76
783.54	214.64
783.86	214.63
784.19	214.58
784.51	214.62
784.83	214.52
785.16	214.47
785.48	214.42
785.80	214.44
786.12	214.39
786.45	214.30
786.77	214.35
787.09	214.22
787.42	214.05
787.74	214.00
788.06	214.01
788.38	214.02
788.71	214.00
789.03	214.08
789.35	214.14
789.67	214.00
789.99	214.10
790.32	214.01
790.64	214.04
790.96	214.25
791.28	214.11
791.61	214.16
791.93	214.20
792.25	214.18
792.57	214.40
792.89	214.32
793.21	214.34
793.54	214.29
793.86	214.30
794.18	214.33
794.50	214.25
794.82	214.28
795.14	214.25
795.47	214.30
795.79	214.31
796.11	214.23
796.43	214.15
796.75	214.05
797.07	214.04
797.39	214.00
797.71	213.74
798.04	213.68
798.36	213.62
798.68	213.58
799.00	213.55
799.32	213.32
799.64	213.41
799.96	213.40
800.28	213.33
800.60	213.28
800.92	213.31
801.24	213.23
801.56	213.18
801.89	213.18
802.21	213.14
802.53	212.96
802.85	213.02
803.17	213.20
803.49	213.11
803.81	213.05
804.13	212.98
804.45	212.90
804.77	213.00
805.09	213.02
805.41	212.95
805.73	212.87
806.05	212.79
806.37	212.73
806.69	212.68
807.01	212.71
807.33	212.74
807.65	212.55
807.97	212.75
808.28	212.71
808.60	212.69
808.92	212.68
809.24	212.99
809.56	212.91
809.88	212.81
810.20	212.85
810.52	212.93
810.84	212.96
811.16	212.96
811.48	212.93
811.80	212.95
812.12	212.94
812.43	213.04
812.75	213.05
813.07	213.02
813.39	213.08
813.71	213.00
814.03	212.92
814.35	212.99
814.67	212.79
814.98	212.76
815.30	212.77
815.62	212.65
815.94	212.33
816.26	212.31
816.58	212.17
816.89	212.15
817.21	212.06
817.53	212.11
817.85	212.17
818.17	212.09
818.48	212.00
818.80	212.07
819.12	211.99
819.44	211.94
819.76	211.87
820.07	211.82
820.39	211.87
820.71	211.90
821.03	211.84
821.34	211.83
821.66	211.84
821.98	211.84
822.30	211.85
822.61	212.07
822.93	212.03
823.25	212.14
823.57	212.10
823.88	212.21
824.20	212.13
824.52	212.19
824.83	212.14
825.15	212.10
825.47	212.10
825.79	212.16
826.10	212.15
826.42	212.20
826.74	212.23
827.05	212.16
827.37	212.24
827.69	212.24
828.00	212.26
828.32	212.36
828.64	212.35
828.95	212.50
829.27	212.40
829.58	212.41
829.90	212.40
830.22	212.43
830.53	212.30
830.85	212.21
831.17	212.08
831.48	212.15
831.80	212.23
832.11	212.12
832.43	212.05
832.75	212.04
833.06	212.19
833.38	212.08
833.69	212.10
834.01	212.04
834.32	212.04
834.64	212.01
834.96	211.94
835.27	211.87
835.59	211.77
835.90	211.74
836.22	211.72
836.53	211.65
836.85	211.60
837.16	211.95
837.48	211.97
837.79	212.06
838.11	212.03
838.42	212.03
838.74	212.09
839.05	212.06
839.37	212.05
839.68	211.85
840.00	211.88
840.31	211.94
840.63	211.92
840.94	211.90
841.26	211.85
841.57	211.80
841.88	211.88
842.20	211.82
842.51	211.75
842.83	211.78
843.14	212.04
843.46	212.05
843.77	211.89
844.08	211.85
844.40	211.76
844.71	211.71
845.03	211.60
845.34	211.56
845.65	211.55
845.97	211.53
846.28	211.55
846.60	211.58
846.91	211.46
847.22	211.48
847.54	211.50
847.85	211.54
848.16	211.55
848.48	211.47
848.79	211.64
849.10	211.69
849.42	211.68
849.73	211.38
850.04	211.36
850.36	211.19
850.67	211.25
850.98	211.29
851.30	211.40
851.61	211.45
851.92	211.47
852.23	211.51
852.55	211.59
852.86	211.64
853.17	211.55
853.49	211.61
853.80	211.61
854.11	211.61
854.42	211.58
854.74	211.57
855.05	211.57
855.36	211.39
855.67	211.38
855.99	211.39
856.30	211.85
856.61	211.89
856.92	211.96
857.23	212.00
857.55	211.93
857.86	211.85
858.17	211.94
858.48	211.90
858.79	211.82
859.11	211.82
859.42	211.71
859.73	211.71
860.04	211.73
860.35	211.69
860.66	211.66
860.98	211.70
861.29	211.71
861.60	211.72
861.91	211.79
862.22	211.81
862.53	211.75
862.84	211.29
863.16	211.35
863.47	211.29
863.78	211.22
864.09	211.24
864.40	211.24
864.71	211.15
865.02	211.21
865.33	211.18
865.64	211.13
865.95	211.15
866.27	211.46
866.58	211.41
866.89	211.38
867.20	211.38
867.51	211.32
867.82	211.33
868.13	211.41
868.44	211.31
868.75	211.28
869.06	211.33
869.37	211.36
869.68	211.22
869.99	211.25
870.30	211.34
870.61	211.41
870.92	211.40
871.23	211.39
871.54	211.46
871.85	211.55
872.16	211.63
872.47	211.66
872.78	211.39
873.09	211.40
873.40	211.38
873.71	211.39
874.02	211.42
874.33	211.34
874.64	211.24
874.95	211.34
875.26	211.31
875.56	211.27
875.87	211.20
876.18	211.24
876.49	211.56
876.80	211.47
877.11	211.39
877.42	211.40
877.73	211.42
878.04	211.37
878.35	211.39
878.66	211.33
878.96	211.22
879.27	211.24
879.58	211.25
879.89	211.24
880.20	211.26
880.51	211.21
880.82	211.25
881.12	211.30
881.43	211.21
881.74	211.14
882.05	211.10
882.36	211.22
882.67	211.23
882.97	210.85
883.28	210.92
883.59	210.89
883.90	210.93
884.21	211.03
884.51	210.97
884.82	210.97
885.13	210.99
885.44	210.97
885.74	210.94
886.05	210.92
886.36	210.93
886.67	210.87
886.98	211.12
887.28	211.16
887.59	211.11
887.90	211.13
888.20	211.09
888.51	211.22
888.82	211.11
889.13	211.09
889.43	211.38
889.74	211.37
890.05	211.36
890.35	211.30
890.66	211.09
890.97	211.01
891.28	210.93
891.58	210.90
891.89	210.96
892.20	210.86
892.50	210.89
892.81	210.88
893.12	210.83
893.42	210.57
893.73	210.56
894.04	210.61
894.34	210.65
894.65	210.67
894.95	210.56
895.26	210.61
895.57	210.82
895.87	210.50
896.18	210.54
896.48	210.52
896.79	210.59
897.10	210.67
897.40	210.75
897.71	210.85
898.01	210.79
898.32	210.87
898.63	210.93
898.93	210.95
899.24	210.96
899.54	211.00
899.85	211.06
900.15	211.02
900.46	211.00
900.76	210.97
901.07	211.00
901.38	211.03
901.68	211.03
901.99	210.86
902.29	210.87
902.60	210.79
902.90	210.80
903.21	210.68
903.51	210.64
903.82	210.69
904.12	210.65
904.43	210.73
904.73	210.72
905.03	210.73
905.34	210.97
905.64	211.01
905.95	211.01
906.25	211.06
906.56	211.06
906.86	211.08
907.17	211.12
907.47	211.13
907.77	211.11
908.08	211.12
908.38	211.13
908.69	211.17
908.99	211.20
909.30	211.26
909.60	211.31
909.90	211.41
910.21	211.32
910.51	211.20
910.81	211.27
911.12	211.25
911.42	211.33
911.73	211.02
912.03	211.02
912.33	211.10
912.64	211.01
912.94	211.03
913.24	210.88
913.55	210.77
913.85	210.75
914.15	210.87
914.46	210.86
914.76	210.84
915.06	210.79
915.37	210.73
915.67	210.69
915.97	210.67
916.27	210.60
916.58	210.70
916.88	210.71
917.18	210.62
917.49	210.81
917.79	210.70
918.09	210.76
918.39	210.82
918.70	210.76
919.00	210.83
919.30	210.94
919.60	211.02
919.91	211.05
920.21	211.07
920.51	210.90
920.81	210.90
921.12	210.93
921.42	211.01
921.72	211.10
922.02	211.11
922.32	211.25
922.63	211.26
922.93	211.35
923.23	211.43
923.53	211.37
923.83	211.23
924.13	211.36
924.44	211.31
924.74	211.39
925.04	211.44
925.34	211.43
925.64	211.31
925.94	211.21
926.24	211.46
926.55	211.45
926.85	211.61
927.15	211.61
927.45	211.60
927.75	211.60
928.05	211.64
928.35	211.62
928.65	211.64
928.95	211.72
929.26	211.57
929.56	211.63
929.86	211.77
930.16	211.78
930.46	211.73
930.76	211.84
931.06	211.70
931.36	211.56
931.66	211.62
931.96	211.68
932.26	211.72
932.56	211.55
932.86	211.63
933.16	211.54
933.46	211.47
933.76	211.47
934.06	211.53
934.36	211.59
934.66	211.65
934.96	211.55
935.26	211.53
935.56	211.65
935.86	211.56
936.16	211.47
936.46	211.38
936.76	211.40
937.06	211.33
937.36	211.32
937.66	211.46
937.96	211.40
938.26	211.39
938.56	211.45
938.86	211.51
939.16	211.53
939.46	211.56
939.76	211.61
940.06	211.60
940.35	211.47
940.65	211.28
940.95	211.22
941.25	211.22
941.55	211.17
941.85	211.08
942.15	211.19
942.45	211.27
942.75	211.28
943.04	211.25
943.34	211.29
943.64	211.25
943.94	211.19
944.24	211.21
944.54	211.20
944.84	211.19
945.13	211.13
945.43	211.04
945.73	211.00
946.03	210.99
946.33	210.95
946.62	211.00
946.92	210.99
947.22	211.06
947.52	211.10
947.82	211.15
948.11	211.12
948.41	210.94
948.71	210.91
949.01	210.90
949.31	210.89
949.60	210.85
949.90	210.94
950.20	210.93
950.50	210.85
950.79	210.80
951.09	210.90
951.39	210.84
951.69	210.84
951.98	210.92
952.28	210.93
952.58	210.92
952.87	210.89
953.17	210.94
953.47	210.91
953.76	210.81
954.06	210.78
954.36	210.68
954.66	210.75
954.95	210.78
955.25	210.89
955.55	210.89
955.84	210.86
956.14	210.89
956.44	210.86
956.73	210.80
957.03	210.79
957.32	210.72
957.62	210.72
957.92	210.79
958.21	210.70
958.51	211.02
958.81	211.05
959.10	211.07
959.40	211.14
959.69	211.17
959.99	211.24
960.29	211.23
960.58	211.28
960.88	211.40
961.17	211.35
961.47	211.30
961.76	211.33
962.06	211.32
962.36	211.29
962.65	211.30
962.95	211.35
963.24	211.37
963.54	211.43
963.83	211.45
964.13	211.32
964.42	211.31
964.72	211.07
965.01	211.08
965.31	211.07
965.60	210.96
965.90	211.13
966.19	211.04
966.49	211.10
966.78	211.11
967.08	211.05
967.37	211.05
967.67	211.01
967.96	211.03
968.26	211.09
968.55	211.12
968.85	211.09
969.14	211.15
969.43	211.17
969.73	211.11
970.02	211.11
970.32	211.18
970.61	211.17
970.91	211.05
971.20	211.08
971.49	211.05
971.79	211.09
972.08	210.87
972.38	210.87
972.67	210.77
972.96	210.75
973.26	210.69
973.55	210.81
973.85	210.77
974.14	210.79
974.43	210.77
974.73	210.66
975.02	210.66
975.31	210.63
975.61	210.58
975.90	210.56
976.19	210.46
976.49	210.50
976.78	210.52
977.07	210.56
977.37	210.52
977.66	210.55
977.95	210.47
978.24	210.52
978.54	210.65
978.83	210.65
979.12	210.67
979.42	210.63
979.71	210.57
980.00	210.61
980.29	210.59
980.59	210.54
980.88	210.66
981.17	210.69
981.46	210.67
981.76	210.67
982.05	210.73
982.34	210.81
982.63	210.77
982.93	210.78
983.22	210.88
983.51	210.82
983.80	210.84
984.09	210.92
984.39	210.90
984.68	210.84
984.97	210.90
985.26	210.87
985.55	210.87
985.85	210.77
986.14	210.85
986.43	210.82
986.72	210.81
987.01	210.70
987.30	210.69
987.59	210.69
987.89	210.72
988.18	210.58
988.47	210.57
988.76	210.54
989.05	210.50
989.34	210.39
989.63	210.59
989.92	210.55
990.22	210.50
990.51	210.50
990.80	210.51
991.09	210.54
991.38	210.59
991.67	210.62
991.96	210.61
992.25	210.62
992.54	210.67
992.83	210.68
993.12	210.65
993.41	210.70
993.70	210.85
993.99	210.92
994.28	211.02
994.58	211.07
994.87	211.09
995.16	211.09
995.45	211.10
995.74	210.98
996.03	211.02
996.32	211.14
996.61	211.18
996.90	211.14
997.19	211.14
997.48	211.15
997.77	211.09
998.06	211.13
998.34	211.06
998.63	210.93
998.92	210.95
999.21	211.01
999.50	210.95
999.79	210.88
1000.08	210.79
1000.37	210.76
1000.66	210.69
1000.95	210.78
1001.24	210.78
1001.53	210.87
1001.82	210.87
1002.11	210.81
1002.40	210.80
1002.68	210.87
1002.97	211.09
1003.26	211.00
1003.55	211.02
1003.84	211.09
1004.13	211.19
1004.42	211.20
1004.71	211.27
1004.99	211.25
1005.28	211.40
1005.57	211.49
1005.86	211.45
1006.15	211.48
1006.44	211.43
1006.72	211.56
1007.01	211.47
1007.30	211.50
1007.59	211.40
1007.88	211.44
1008.17	211.43
1008.45	211.37
1008.74	211.21
1009.03	211.14
1009.32	211.10
1009.60	211.04
1009.89	211.03
1010.18	210.94
1010.47	210.89
1010.76	210.91
1011.04	210.95
1011.33	211.01
1011.62	210.99
1011.91	210.97
1012.19	210.96
1012.48	211.00
1012.77	210.93
1013.05	211.07
1013.34	211.10
1013.63	211.16
1013.92	211.07
1014.20	211.12
1014.49	211.18
1014.78	211.21
1015.06	211.01
1015.35	211.11
1015.64	211.16
1015.92	211.19
1016.21	211.17
1016.50	211.22
1016.78	211.26
1017.07	211.23
1017.36	211.04
1017.64	210.95
1017.93	210.96
1018.22	210.93
1018.50	210.88
1018.79	210.88
1019.08	210.74
1019.36	210.73
1019.65	210.64
1019.93	210.79
1020.22	210.84
1020.51	210.93
1020.79	210.90
1021.08	209.55
1021.36	209.40
1021.65	210.65
1021.94	211.00
1022.22	211.30
1022.51	210.20
1022.79	212.85
1023.08	211.65
1023.36	214.10
1023.65	209.60
>>>>>End Processed Spectral Data<<<<<
