SpectraSuite Data File
++++++++++++++++++++++++++++++++++++
Date: Mon Feb 25 17:18:51 EST 2013
User: group
Dark Spectrum Present: No
Reference Spectrum Present: No
Number of Sampled Component Spectra: 1
Spectrometers: USB2E7196
Integration Time (usec): 104000 (USB2E7196)
Spectra Averaged: 20 (USB2E7196)
Boxcar Smoothing: 10 (USB2E7196)
Correct for Electrical Dark: No (USB2E7196)
Strobe/Lamp Enabled: No (USB2E7196)
Correct for Detector Non-linearity: No (USB2E7196)
Correct for Stray Light: No (USB2E7196)
Number of Pixels in Processed Spectrum: 2048
>>>>>Begin Processed Spectral Data<<<<<
339.09	0.00
339.48	197.40
339.86	199.00
340.24	201.05
340.63	203.50
341.01	208.85
341.39	205.85
341.78	208.00
342.16	208.75
342.54	208.20
342.93	198.26
343.31	208.30
343.69	208.83
344.07	209.30
344.46	209.77
344.84	210.21
345.22	210.28
345.60	210.63
345.99	210.80
346.37	210.95
346.75	211.13
347.13	211.24
347.52	211.31
347.90	211.50
348.28	211.60
348.66	211.67
349.05	211.63
349.43	211.67
349.81	211.83
350.19	211.87
350.57	212.02
350.96	212.17
351.34	212.24
351.72	212.45
352.10	212.64
352.48	212.75
352.87	212.78
353.25	212.88
353.63	212.83
354.01	212.90
354.39	213.00
354.77	213.06
355.15	213.25
355.54	213.27
355.92	213.14
356.30	213.21
356.68	213.58
357.06	213.75
357.44	213.87
357.82	213.91
358.20	213.99
358.58	214.05
358.97	214.13
359.35	214.26
359.73	214.35
360.11	214.41
360.49	214.45
360.87	214.50
361.25	214.61
361.63	214.80
362.01	214.86
362.39	214.82
362.77	214.92
363.15	214.94
363.53	214.99
363.91	215.09
364.29	215.06
364.67	214.75
365.05	214.67
365.43	214.61
365.81	214.68
366.19	214.86
366.57	214.93
366.95	214.93
367.33	214.89
367.71	214.90
368.09	214.94
368.47	214.97
368.85	214.93
369.23	214.99
369.61	214.91
369.99	215.05
370.37	215.13
370.75	215.25
371.13	215.17
371.51	215.05
371.89	215.05
372.27	215.13
372.65	215.12
373.03	215.14
373.41	215.09
373.78	215.04
374.16	214.84
374.54	214.70
374.92	214.57
375.30	214.50
375.68	214.40
376.06	214.38
376.44	214.31
376.82	214.29
377.19	214.24
377.57	214.10
377.95	213.98
378.33	213.90
378.71	213.73
379.09	213.67
379.47	213.70
379.84	213.62
380.22	213.47
380.60	213.34
380.98	213.20
381.36	213.21
381.73	213.09
382.11	213.10
382.49	213.06
382.87	212.99
383.25	213.04
383.62	213.39
384.00	213.19
384.38	213.17
384.76	213.22
385.13	213.34
385.51	213.35
385.89	213.20
386.27	213.16
386.64	213.13
387.02	213.05
387.40	213.04
387.78	212.98
388.15	212.98
388.53	212.95
388.91	212.98
389.29	212.90
389.66	212.94
390.04	212.91
390.42	212.96
390.79	212.99
391.17	212.96
391.55	212.60
391.92	212.61
392.30	212.60
392.68	212.49
393.05	212.33
393.43	212.32
393.81	212.34
394.18	212.29
394.56	212.20
394.94	212.36
395.31	212.35
395.69	212.53
396.06	212.53
396.44	212.58
396.82	212.56
397.19	212.76
397.57	212.77
397.95	212.85
398.32	212.82
398.70	212.93
399.07	212.97
399.45	212.93
399.82	212.99
400.20	213.04
400.58	213.11
400.95	213.07
401.33	213.29
401.70	213.61
402.08	213.72
402.45	213.79
402.83	213.88
403.20	213.99
403.58	213.99
403.95	214.18
404.33	214.38
404.71	214.49
405.08	214.80
405.46	214.91
405.83	215.05
406.21	215.21
406.58	215.35
406.96	215.53
407.33	215.80
407.70	216.12
408.08	216.64
408.45	216.98
408.83	217.43
409.20	217.59
409.58	217.63
409.95	218.08
410.33	218.49
410.70	218.82
411.08	219.30
411.45	219.78
411.82	220.25
412.20	220.80
412.57	221.55
412.95	221.81
413.32	222.51
413.69	223.17
414.07	223.87
414.44	224.65
414.82	225.42
415.19	226.39
415.56	227.31
415.94	228.11
416.31	229.29
416.68	230.39
417.06	231.76
417.43	233.08
417.81	234.46
418.18	235.93
418.55	237.43
418.93	238.95
419.30	240.54
419.67	242.25
420.04	244.02
420.42	245.92
420.79	248.34
421.16	250.57
421.54	252.93
421.91	255.31
422.28	257.83
422.66	260.46
423.03	263.18
423.40	265.83
423.77	268.61
424.15	271.40
424.52	274.32
424.89	277.46
425.26	280.58
425.64	283.52
426.01	286.79
426.38	290.30
426.75	293.87
427.13	297.51
427.50	301.37
427.87	305.30
428.24	309.19
428.61	312.88
428.99	317.17
429.36	321.55
429.73	325.98
430.10	330.22
430.47	334.70
430.85	339.18
431.22	344.05
431.59	349.39
431.96	354.30
432.33	359.76
432.70	365.15
433.08	371.46
433.45	377.35
433.82	383.30
434.19	389.58
434.56	395.89
434.93	401.90
435.30	407.97
435.68	414.59
436.05	421.25
436.42	427.79
436.79	433.64
437.16	440.16
437.53	447.07
437.90	453.86
438.27	460.62
438.64	467.54
439.01	473.96
439.38	479.58
439.75	484.96
440.13	491.13
440.50	497.07
440.87	501.73
441.24	506.74
441.61	512.09
441.98	516.18
442.35	520.77
442.72	525.53
443.09	530.13
443.46	532.97
443.83	534.74
444.20	536.28
444.57	538.52
444.94	539.43
445.31	540.37
445.68	541.61
446.05	541.91
446.42	541.05
446.79	540.17
447.16	539.13
447.53	538.53
447.90	535.91
448.27	533.14
448.64	529.40
449.01	526.60
449.37	522.00
449.74	517.50
450.11	512.55
450.48	506.74
450.85	500.87
451.22	495.72
451.59	490.88
451.96	486.29
452.33	480.23
452.70	474.73
453.07	468.17
453.43	461.31
453.80	454.88
454.17	448.79
454.54	442.96
454.91	436.88
455.28	430.91
455.65	425.30
456.02	420.08
456.38	415.50
456.75	409.72
457.12	404.84
457.49	400.08
457.86	395.16
458.23	391.28
458.59	386.80
458.96	382.35
459.33	378.39
459.70	374.33
460.07	371.27
460.43	367.72
460.80	364.45
461.17	361.63
461.54	358.65
461.91	355.77
462.27	352.85
462.64	350.25
463.01	347.41
463.38	344.98
463.74	341.99
464.11	339.59
464.48	337.61
464.85	335.37
465.21	333.75
465.58	332.00
465.95	329.81
466.32	328.00
466.68	326.33
467.05	324.57
467.42	322.90
467.78	321.01
468.15	319.30
468.52	318.07
468.88	316.30
469.25	314.75
469.62	313.64
469.98	312.40
470.35	311.22
470.72	310.24
471.08	308.87
471.45	307.90
471.82	307.06
472.18	305.97
472.55	305.26
472.92	304.36
473.28	303.64
473.65	302.84
474.02	302.32
474.38	301.78
474.75	301.50
475.11	301.12
475.48	300.92
475.85	300.74
476.21	300.47
476.58	300.42
476.94	300.53
477.31	300.45
477.67	300.54
478.04	300.64
478.41	300.84
478.77	301.46
479.14	301.65
479.50	301.92
479.87	302.45
480.23	302.99
480.60	303.43
480.96	304.02
481.33	305.05
481.69	305.81
482.06	306.69
482.42	307.47
482.79	308.34
483.15	309.35
483.52	310.66
483.88	311.85
484.25	313.03
484.61	314.49
484.98	316.13
485.34	317.85
485.71	319.74
486.07	321.68
486.44	323.36
486.80	325.55
487.17	327.85
487.53	330.19
487.90	332.75
488.26	335.66
488.62	338.54
488.99	341.44
489.35	344.60
489.72	347.82
490.08	351.39
490.44	355.02
490.81	359.02
491.17	362.88
491.54	367.14
491.90	371.61
492.26	376.20
492.63	380.87
492.99	385.88
493.36	391.11
493.72	396.70
494.08	402.49
494.45	408.75
494.81	415.29
495.17	421.97
495.54	429.10
495.90	436.43
496.26	443.93
496.63	451.88
496.99	460.00
497.35	468.72
497.72	477.65
498.08	487.02
498.44	496.61
498.80	506.94
499.17	517.48
499.53	528.43
499.89	539.69
500.26	551.34
500.62	563.15
500.98	575.71
501.34	588.61
501.71	601.94
502.07	615.41
502.43	629.44
502.79	643.91
503.16	658.88
503.52	674.27
503.88	690.31
504.24	706.53
504.60	723.33
504.97	740.41
505.33	757.94
505.69	776.53
506.05	795.35
506.41	814.17
506.78	833.45
507.14	853.24
507.50	873.57
507.86	894.60
508.22	916.19
508.59	937.85
508.95	960.05
509.31	982.73
509.67	1006.06
510.03	1029.85
510.39	1054.35
510.75	1078.94
511.12	1103.60
511.48	1128.74
511.84	1154.44
512.20	1180.30
512.56	1206.85
512.92	1233.61
513.28	1260.42
513.64	1287.63
514.00	1314.95
514.37	1342.72
514.73	1371.01
515.09	1399.25
515.45	1427.27
515.81	1455.74
516.17	1484.42
516.53	1513.23
516.89	1542.19
517.25	1571.11
517.61	1599.97
517.97	1628.52
518.33	1657.09
518.69	1686.34
519.05	1715.71
519.41	1745.25
519.77	1774.84
520.13	1804.03
520.49	1833.26
520.85	1862.53
521.21	1892.02
521.57	1922.10
521.93	1950.84
522.29	1980.63
522.65	2010.38
523.01	2039.98
523.37	2068.37
523.73	2097.36
524.09	2125.90
524.45	2155.05
524.81	2183.97
525.17	2212.87
525.53	2241.74
525.89	2270.60
526.25	2298.69
526.61	2325.87
526.97	2353.37
527.33	2380.77
527.68	2408.48
528.04	2435.01
528.40	2460.77
528.76	2486.59
529.12	2512.88
529.48	2540.23
529.84	2565.79
530.20	2591.20
530.56	2616.89
530.91	2643.72
531.27	2669.28
531.63	2694.49
531.99	2718.84
532.35	2742.90
532.71	2766.56
533.07	2790.50
533.42	2813.27
533.78	2836.45
534.14	2859.22
534.50	2880.09
534.86	2902.16
535.21	2922.38
535.57	2944.31
535.93	2965.19
536.29	2985.39
536.65	3005.41
537.00	3023.80
537.36	3041.80
537.72	3059.65
538.08	3077.11
538.44	3094.35
538.79	3111.93
539.15	3129.04
539.51	3145.80
539.87	3162.90
540.22	3178.93
540.58	3195.58
540.94	3211.63
541.29	3225.72
541.65	3239.62
542.01	3254.25
542.37	3267.06
542.72	3280.88
543.08	3292.93
543.44	3306.53
543.79	3318.06
544.15	3328.29
544.51	3340.05
544.87	3351.99
545.22	3362.48
545.58	3372.02
545.94	3379.91
546.29	3387.00
546.65	3393.63
547.01	3400.19
547.36	3406.25
547.72	3412.51
548.07	3416.79
548.43	3420.87
548.79	3425.60
549.14	3429.90
549.50	3434.29
549.86	3437.41
550.21	3440.55
550.57	3444.23
550.92	3445.26
551.28	3447.50
551.64	3449.87
551.99	3452.04
552.35	3453.00
552.70	3454.03
553.06	3455.31
553.41	3456.68
553.77	3457.49
554.13	3458.24
554.48	3459.01
554.84	3459.49
555.19	3458.74
555.55	3457.52
555.90	3456.03
556.26	3454.23
556.61	3452.82
556.97	3450.18
557.32	3448.93
557.68	3445.72
558.03	3442.13
558.39	3439.90
558.74	3437.87
559.10	3435.51
559.45	3431.82
559.81	3428.73
560.16	3424.86
560.52	3421.31
560.87	3417.35
561.23	3412.05
561.58	3408.28
561.94	3402.72
562.29	3396.59
562.64	3392.02
563.00	3387.86
563.35	3384.50
563.71	3381.07
564.06	3376.55
564.42	3372.70
564.77	3368.22
565.12	3364.49
565.48	3359.90
565.83	3354.77
566.19	3350.04
566.54	3343.54
566.89	3337.38
567.25	3331.53
567.60	3326.09
567.96	3319.75
568.31	3313.81
568.66	3308.06
569.02	3300.93
569.37	3294.03
569.72	3287.51
570.08	3279.78
570.43	3272.03
570.78	3263.49
571.14	3254.73
571.49	3245.85
571.84	3237.71
572.20	3228.25
572.55	3219.35
572.90	3210.05
573.26	3200.56
573.61	3190.52
573.96	3180.92
574.31	3170.25
574.67	3159.13
575.02	3147.36
575.37	3136.33
575.72	3124.39
576.08	3114.37
576.43	3103.12
576.78	3092.42
577.13	3082.53
577.49	3072.55
577.84	3061.68
578.19	3051.69
578.54	3042.22
578.90	3033.40
579.25	3022.25
579.60	3010.68
579.95	2998.75
580.30	2988.50
580.66	2978.35
581.01	2967.08
581.36	2955.77
581.71	2945.01
582.06	2934.45
582.42	2924.26
582.77	2912.51
583.12	2901.55
583.47	2890.77
583.82	2881.07
584.17	2870.36
584.53	2859.13
584.88	2847.98
585.23	2836.89
585.58	2825.49
585.93	2813.73
586.28	2802.33
586.63	2791.31
586.98	2781.06
587.34	2771.56
587.69	2760.38
588.04	2749.47
588.39	2738.92
588.74	2728.02
589.09	2717.98
589.44	2706.90
589.79	2696.72
590.14	2687.35
590.49	2677.28
590.84	2666.51
591.19	2656.56
591.54	2646.44
591.89	2634.34
592.25	2623.25
592.60	2612.09
592.95	2600.84
593.30	2588.58
593.65	2576.41
594.00	2564.99
594.35	2555.75
594.70	2544.35
595.05	2533.85
595.40	2523.06
595.75	2511.36
596.10	2501.41
596.45	2491.08
596.80	2481.57
597.15	2471.60
597.50	2460.64
597.85	2450.52
598.19	2439.68
598.54	2428.98
598.89	2419.05
599.24	2410.85
599.59	2401.43
599.94	2393.04
600.29	2383.58
600.64	2374.85
600.99	2365.27
601.34	2356.54
601.69	2345.39
602.04	2335.44
602.39	2325.42
602.74	2315.56
603.08	2307.54
603.43	2298.83
603.78	2289.24
604.13	2279.18
604.48	2269.44
604.83	2261.63
605.18	2253.64
605.53	2244.83
605.87	2234.96
606.22	2225.98
606.57	2216.04
606.92	2206.47
607.27	2196.02
607.62	2186.62
607.96	2177.89
608.31	2169.66
608.66	2159.60
609.01	2150.06
609.36	2140.34
609.70	2130.37
610.05	2120.39
610.40	2110.11
610.75	2099.38
611.10	2089.73
611.44	2078.67
611.79	2067.64
612.14	2055.71
612.49	2043.68
612.83	2033.01
613.18	2022.04
613.53	2010.52
613.88	1999.19
614.22	1988.25
614.57	1977.34
614.92	1966.16
615.27	1954.52
615.61	1942.65
615.96	1932.09
616.31	1921.80
616.65	1911.95
617.00	1901.85
617.35	1891.37
617.70	1880.07
618.04	1868.70
618.39	1856.94
618.74	1846.65
619.08	1835.96
619.43	1825.46
619.78	1815.13
620.12	1804.84
620.47	1794.81
620.82	1784.02
621.16	1773.04
621.51	1762.14
621.85	1752.02
622.20	1741.29
622.55	1730.85
622.89	1720.53
623.24	1709.99
623.59	1698.93
623.93	1688.08
624.28	1677.71
624.62	1667.70
624.97	1657.76
625.32	1648.09
625.66	1638.79
626.01	1629.15
626.35	1619.86
626.70	1610.22
627.04	1601.03
627.39	1591.25
627.73	1581.60
628.08	1572.48
628.43	1563.23
628.77	1554.13
629.12	1544.33
629.46	1535.68
629.81	1526.69
630.15	1517.61
630.50	1508.24
630.84	1498.96
631.19	1489.88
631.53	1480.79
631.88	1471.07
632.22	1461.58
632.57	1452.76
632.91	1443.28
633.26	1434.16
633.60	1424.97
633.95	1416.39
634.29	1407.07
634.64	1398.27
634.98	1388.98
635.32	1380.14
635.67	1371.83
636.01	1363.39
636.36	1354.70
636.70	1346.34
637.05	1337.58
637.39	1329.16
637.73	1321.22
638.08	1313.93
638.42	1306.12
638.77	1298.03
639.11	1290.09
639.45	1282.01
639.80	1273.18
640.14	1264.76
640.49	1256.36
640.83	1248.04
641.17	1239.51
641.52	1231.32
641.86	1222.84
642.20	1214.81
642.55	1206.14
642.89	1197.36
643.23	1188.61
643.58	1180.73
643.92	1171.90
644.26	1163.78
644.61	1155.29
644.95	1146.81
645.29	1138.10
645.64	1129.46
645.98	1121.32
646.32	1113.32
646.66	1105.33
647.01	1097.64
647.35	1090.00
647.69	1081.76
648.04	1073.97
648.38	1066.18
648.72	1058.25
649.06	1050.48
649.41	1042.68
649.75	1035.13
650.09	1027.89
650.43	1020.25
650.78	1012.27
651.12	1004.53
651.46	996.78
651.80	989.61
652.14	982.22
652.49	974.60
652.83	967.08
653.17	958.75
653.51	950.94
653.85	943.56
654.20	936.29
654.54	928.67
654.88	921.64
655.22	914.29
655.56	906.77
655.90	899.23
656.25	891.84
656.59	884.77
656.93	877.80
657.27	870.74
657.61	863.62
657.95	856.63
658.29	850.05
658.64	843.55
658.98	836.69
659.32	829.47
659.66	822.96
660.00	816.22
660.34	809.66
660.68	802.97
661.02	796.29
661.36	789.94
661.70	783.76
662.05	777.72
662.39	771.95
662.73	766.22
663.07	760.60
663.41	754.98
663.75	748.94
664.09	742.84
664.43	736.68
664.77	731.05
665.11	725.49
665.45	719.85
665.79	714.17
666.13	708.55
666.47	703.32
666.81	697.82
667.15	692.62
667.49	687.95
667.83	683.27
668.17	678.38
668.51	673.46
668.85	668.64
669.19	663.97
669.53	658.78
669.87	653.75
670.21	648.90
670.55	644.07
670.89	639.81
671.23	635.67
671.57	631.40
671.91	627.06
672.25	622.56
672.58	618.15
672.92	613.69
673.26	609.64
673.60	605.58
673.94	601.33
674.28	597.14
674.62	593.09
674.96	588.90
675.30	584.89
675.64	580.81
675.97	576.86
676.31	572.78
676.65	569.08
676.99	565.65
677.33	561.80
677.67	557.96
678.01	553.96
678.34	550.17
678.68	546.37
679.02	542.56
679.36	539.08
679.70	535.59
680.04	532.19
680.37	528.53
680.71	524.86
681.05	521.71
681.39	518.32
681.73	514.84
682.06	511.67
682.40	508.51
682.74	505.27
683.08	502.14
683.42	498.76
683.75	495.52
684.09	491.99
684.43	488.85
684.77	485.56
685.10	482.47
685.44	479.25
685.78	476.15
686.12	473.25
686.45	470.15
686.79	467.14
687.13	464.31
687.46	461.43
687.80	458.67
688.14	455.59
688.48	452.80
688.81	449.80
689.15	447.01
689.49	444.06
689.82	441.13
690.16	438.02
690.50	435.28
690.83	432.47
691.17	429.65
691.51	426.99
691.84	424.54
692.18	421.91
692.52	419.32
692.85	417.03
693.19	414.56
693.52	412.10
693.86	409.62
694.20	407.26
694.53	404.86
694.87	402.44
695.21	400.10
695.54	397.61
695.88	395.21
696.21	392.78
696.55	390.63
696.88	388.43
697.22	386.35
697.56	384.30
697.89	382.11
698.23	380.21
698.56	378.07
698.90	376.00
699.23	373.95
699.57	372.05
699.90	370.04
700.24	367.97
700.58	366.00
700.91	364.16
701.25	362.41
701.58	360.59
701.92	358.73
702.25	356.90
702.59	355.20
702.92	353.61
703.26	351.81
703.59	349.98
703.93	348.75
704.26	347.12
704.60	345.46
704.93	343.80
705.26	342.06
705.60	340.62
705.93	339.07
706.27	337.52
706.60	336.06
706.94	334.70
707.27	333.12
707.61	331.71
707.94	330.12
708.27	328.29
708.61	326.81
708.94	325.35
709.28	323.94
709.61	322.53
709.94	321.19
710.28	319.94
710.61	318.83
710.95	317.09
711.28	315.95
711.61	314.70
711.95	313.59
712.28	312.31
712.61	311.01
712.95	309.99
713.28	309.00
713.61	307.70
713.95	306.39
714.28	305.34
714.61	304.19
714.95	303.11
715.28	302.00
715.61	300.86
715.95	299.80
716.28	298.75
716.61	297.74
716.95	296.59
717.28	295.57
717.61	294.47
717.94	293.53
718.28	292.32
718.61	291.29
718.94	290.24
719.27	289.34
719.61	288.44
719.94	287.25
720.27	286.08
720.60	285.20
720.94	284.37
721.27	283.54
721.60	282.75
721.93	281.96
722.27	281.31
722.60	280.57
722.93	279.84
723.26	279.08
723.59	278.18
723.93	277.50
724.26	276.68
724.59	275.82
724.92	275.06
725.25	274.41
725.59	273.70
725.92	273.08
726.25	272.41
726.58	271.75
726.91	271.14
727.24	270.59
727.57	269.90
727.91	269.20
728.24	268.52
728.57	267.86
728.90	267.25
729.23	266.57
729.56	266.05
729.89	265.42
730.22	264.68
730.55	264.10
730.89	263.49
731.22	262.86
731.55	262.36
731.88	261.82
732.21	261.21
732.54	260.64
732.87	259.99
733.20	259.40
733.53	258.87
733.86	258.41
734.19	257.79
734.52	257.30
734.85	257.00
735.18	256.49
735.51	256.08
735.84	255.64
736.17	255.18
736.50	254.53
736.83	254.44
737.16	254.08
737.49	253.61
737.82	253.09
738.15	252.70
738.48	252.19
738.81	251.73
739.14	251.25
739.47	250.79
739.80	250.39
740.13	250.10
740.46	249.51
740.79	248.98
741.12	248.56
741.45	248.06
741.78	247.45
742.11	247.16
742.44	246.68
742.77	246.34
743.10	245.90
743.43	245.53
743.75	244.75
744.08	244.80
744.41	244.34
744.74	243.95
745.07	243.57
745.40	243.23
745.73	243.04
746.06	242.70
746.39	242.42
746.71	242.01
747.04	241.46
747.37	241.09
747.70	240.77
748.03	240.48
748.36	240.25
748.68	239.89
749.01	239.46
749.34	239.16
749.67	238.74
750.00	238.43
750.33	238.36
750.65	238.08
750.98	237.32
751.31	237.09
751.64	236.77
751.97	236.72
752.29	236.41
752.62	235.91
752.95	235.62
753.28	235.27
753.60	235.05
753.93	234.89
754.26	234.66
754.59	234.38
754.91	234.10
755.24	233.81
755.57	233.61
755.90	233.28
756.22	232.99
756.55	232.74
756.88	232.40
757.20	231.90
757.53	231.55
757.86	231.31
758.19	231.12
758.51	230.88
758.84	230.46
759.17	230.12
759.49	229.93
759.82	229.85
760.15	229.63
760.47	229.39
760.80	229.08
761.13	228.90
761.45	228.69
761.78	228.42
762.11	228.20
762.43	227.88
762.76	227.72
763.08	227.56
763.41	227.34
763.74	227.17
764.06	227.01
764.39	226.83
764.71	226.63
765.04	226.37
765.37	226.23
765.69	225.93
766.02	225.84
766.34	225.61
766.67	225.30
767.00	225.21
767.32	225.20
767.65	225.23
767.97	225.09
768.30	224.98
768.62	224.85
768.95	224.69
769.27	224.53
769.60	224.41
769.92	224.19
770.25	224.08
770.57	223.97
770.90	223.79
771.22	223.59
771.55	223.47
771.87	223.33
772.20	223.06
772.52	223.32
772.85	223.57
773.17	223.45
773.50	223.30
773.82	223.13
774.15	222.86
774.47	222.49
774.80	222.28
775.12	222.07
775.45	221.92
775.77	221.77
776.09	221.72
776.42	221.58
776.74	221.56
777.07	221.39
777.39	221.30
777.72	221.10
778.04	221.10
778.36	220.96
778.69	220.93
779.01	220.99
779.33	220.52
779.66	220.05
779.98	219.90
780.31	219.83
780.63	219.86
780.95	219.85
781.28	219.85
781.60	219.81
781.92	219.79
782.25	219.73
782.57	219.59
782.89	219.52
783.22	219.39
783.54	219.21
783.86	219.09
784.19	218.93
784.51	218.98
784.83	218.85
785.16	218.72
785.48	218.69
785.80	218.55
786.12	218.51
786.45	218.51
786.77	218.52
787.09	218.44
787.42	218.22
787.74	218.13
788.06	218.15
788.38	218.04
788.71	217.99
789.03	217.99
789.35	218.06
789.67	217.93
789.99	217.94
790.32	217.90
790.64	217.95
790.96	218.16
791.28	217.98
791.61	217.95
791.93	217.99
792.25	217.89
792.57	218.12
792.89	218.05
793.21	217.99
793.54	217.93
793.86	217.84
794.18	217.81
794.50	217.72
794.82	217.60
795.14	217.61
795.47	217.62
795.79	217.56
796.11	217.41
796.43	217.35
796.75	217.33
797.07	217.30
797.39	217.25
797.71	216.99
798.04	216.99
798.36	216.93
798.68	216.87
799.00	216.80
799.32	216.55
799.64	216.63
799.96	216.55
800.28	216.60
800.60	216.51
800.92	216.60
801.24	216.50
801.56	216.51
801.89	216.50
802.21	216.44
802.53	216.33
802.85	216.43
803.17	216.51
803.49	216.38
803.81	216.32
804.13	216.25
804.45	216.21
804.77	216.21
805.09	216.22
805.41	216.19
805.73	216.06
806.05	216.00
806.37	215.86
806.69	215.84
807.01	215.69
807.33	215.74
807.65	215.50
807.97	215.64
808.28	215.46
808.60	215.35
808.92	215.25
809.24	215.45
809.56	215.37
809.88	215.24
810.20	215.24
810.52	215.21
810.84	215.16
811.16	215.09
811.48	215.10
811.80	215.15
812.12	215.14
812.43	215.21
812.75	215.17
813.07	215.14
813.39	215.09
813.71	214.99
814.03	215.00
814.35	214.99
814.67	214.86
814.98	214.90
815.30	214.91
815.62	214.93
815.94	214.67
816.26	214.60
816.58	214.54
816.89	214.57
817.21	214.50
817.53	214.54
817.85	214.55
818.17	214.44
818.48	214.34
818.80	214.34
819.12	214.30
819.44	214.24
819.76	214.19
820.07	214.20
820.39	214.27
820.71	214.19
821.03	214.15
821.34	214.10
821.66	214.16
821.98	214.12
822.30	214.00
822.61	214.16
822.93	214.08
823.25	214.05
823.57	213.98
823.88	214.04
824.20	213.91
824.52	213.98
824.83	213.93
825.15	213.79
825.47	213.69
825.79	213.67
826.10	213.58
826.42	213.54
826.74	213.54
827.05	213.46
827.37	213.45
827.69	213.50
828.00	213.48
828.32	213.38
828.64	213.34
828.95	213.53
829.27	213.49
829.58	213.49
829.90	213.56
830.22	213.58
830.53	213.50
830.85	213.49
831.17	213.33
831.48	213.36
831.80	213.31
832.11	213.35
832.43	213.34
832.75	213.39
833.06	213.60
833.38	213.43
833.69	213.44
834.01	213.40
834.32	213.32
834.64	213.25
834.96	213.23
835.27	213.18
835.59	213.05
835.90	212.88
836.22	212.93
836.53	212.82
836.85	212.81
837.16	213.11
837.48	213.10
837.79	213.16
838.11	213.15
838.42	213.20
838.74	213.17
839.05	213.14
839.37	213.10
839.68	212.82
840.00	212.84
840.31	212.84
840.63	212.80
840.94	212.78
841.26	212.75
841.57	212.72
841.88	212.75
842.20	212.68
842.51	212.71
842.83	212.63
843.14	212.90
843.46	212.84
843.77	212.64
844.08	212.62
844.40	212.56
844.71	212.50
845.03	212.48
845.34	212.46
845.65	212.39
845.97	212.45
846.28	212.52
846.60	212.48
846.91	212.41
847.22	212.41
847.54	212.45
847.85	212.45
848.16	212.48
848.48	212.41
848.79	212.47
849.10	212.42
849.42	212.47
849.73	212.17
850.04	212.16
850.36	212.04
850.67	212.08
850.98	212.10
851.30	212.21
851.61	212.16
851.92	212.13
852.23	212.24
852.55	212.21
852.86	212.15
853.17	212.31
853.49	212.40
853.80	212.52
854.11	212.50
854.42	212.55
854.74	212.45
855.05	212.47
855.36	212.40
855.67	212.45
855.99	212.38
856.30	212.80
856.61	212.82
856.92	212.80
857.23	212.80
857.55	212.82
857.86	212.75
858.17	212.83
858.48	212.77
858.79	212.73
859.11	212.73
859.42	212.80
859.73	212.72
860.04	212.75
860.35	212.59
860.66	212.54
860.98	212.57
861.29	212.68
861.60	212.71
861.91	212.79
862.22	212.75
862.53	212.77
862.84	212.40
863.16	212.48
863.47	212.53
863.78	212.54
864.09	212.51
864.40	212.58
864.71	212.58
865.02	212.66
865.33	212.55
865.64	212.51
865.95	212.49
866.27	212.66
866.58	212.62
866.89	212.64
867.20	212.60
867.51	212.48
867.82	212.47
868.13	212.59
868.44	212.48
868.75	212.50
869.06	212.50
869.37	212.52
869.68	212.39
869.99	212.31
870.30	212.33
870.61	212.35
870.92	212.26
871.23	212.25
871.54	212.27
871.85	212.38
872.16	212.45
872.47	212.38
872.78	212.19
873.09	212.20
873.40	212.18
873.71	212.21
874.02	212.33
874.33	212.34
874.64	212.18
874.95	212.19
875.26	212.17
875.56	212.16
875.87	212.09
876.18	212.11
876.49	212.51
876.80	212.44
877.11	212.39
877.42	212.40
877.73	212.41
878.04	212.33
878.35	212.40
878.66	212.35
878.96	212.36
879.27	212.40
879.58	212.34
879.89	212.37
880.20	212.44
880.51	212.33
880.82	212.25
881.12	212.30
881.43	212.17
881.74	212.09
882.05	212.04
882.36	212.10
882.67	212.04
882.97	211.60
883.28	211.58
883.59	211.55
883.90	211.60
884.21	211.60
884.51	211.62
884.82	211.55
885.13	211.52
885.44	211.56
885.74	211.49
886.05	211.48
886.36	211.47
886.67	211.41
886.98	211.60
887.28	211.67
887.59	211.66
887.90	211.76
888.20	211.81
888.51	211.86
888.82	211.83
889.13	211.90
889.43	212.23
889.74	212.20
890.05	212.20
890.35	212.09
890.66	212.04
890.97	211.97
891.28	211.90
891.58	211.97
891.89	211.93
892.20	211.88
892.50	211.86
892.81	211.88
893.12	211.90
893.42	211.72
893.73	211.71
894.04	211.71
894.34	211.76
894.65	211.69
894.95	211.68
895.26	211.71
895.57	211.90
895.87	211.58
896.18	211.65
896.48	211.61
896.79	211.64
897.10	211.70
897.40	211.81
897.71	211.81
898.01	211.68
898.32	211.67
898.63	211.70
898.93	211.68
899.24	211.67
899.54	211.64
899.85	211.65
900.15	211.66
900.46	211.70
900.76	211.71
901.07	211.75
901.38	211.76
901.68	211.80
901.99	211.65
902.29	211.65
902.60	211.66
902.90	211.69
903.21	211.67
903.51	211.66
903.82	211.66
904.12	211.70
904.43	211.79
904.73	211.85
905.03	211.86
905.34	212.30
905.64	212.31
905.95	212.31
906.25	212.28
906.56	212.24
906.86	212.22
907.17	212.19
907.47	212.20
907.77	212.20
908.08	212.12
908.38	212.08
908.69	212.17
908.99	212.19
909.30	212.25
909.60	212.29
909.90	212.32
910.21	212.28
910.51	212.30
910.81	212.37
911.12	212.31
911.42	212.40
911.73	212.00
912.03	212.00
912.33	212.12
912.64	212.23
912.94	212.17
913.24	212.13
913.55	212.19
913.85	212.22
914.15	212.31
914.46	212.40
914.76	212.40
915.06	212.35
915.37	212.33
915.67	212.24
915.97	212.29
916.27	212.25
916.58	212.25
916.88	212.18
917.18	212.11
917.49	212.40
917.79	212.35
918.09	212.38
918.39	212.50
918.70	212.50
919.00	212.44
919.30	212.63
919.60	212.69
919.91	212.61
920.21	212.64
920.51	212.50
920.81	212.41
921.12	212.46
921.42	212.50
921.72	212.52
922.02	212.66
922.32	212.68
922.63	212.66
922.93	212.83
923.23	212.91
923.53	212.89
923.83	212.65
924.13	212.71
924.44	212.80
924.74	212.84
925.04	212.85
925.34	212.83
925.64	212.69
925.94	212.71
926.24	212.92
926.55	212.87
926.85	212.95
927.15	212.98
927.45	212.95
927.75	212.90
928.05	212.94
928.35	212.81
928.65	212.86
928.95	212.92
929.26	212.82
929.56	212.88
929.86	212.93
930.16	212.93
930.46	212.86
930.76	212.82
931.06	212.60
931.36	212.57
931.66	212.68
931.96	212.74
932.26	212.67
932.56	212.44
932.86	212.43
933.16	212.44
933.46	212.39
933.76	212.38
934.06	212.42
934.36	212.44
934.66	212.45
934.96	212.40
935.26	212.34
935.56	212.36
935.86	212.23
936.16	212.14
936.46	212.06
936.76	212.03
937.06	211.97
937.36	212.00
937.66	211.91
937.96	211.84
938.26	211.73
938.56	211.69
938.86	211.74
939.16	211.78
939.46	211.72
939.76	211.75
940.06	211.65
940.35	211.65
940.65	211.52
940.95	211.55
941.25	211.48
941.55	211.43
941.85	211.40
942.15	211.46
942.45	211.53
942.75	211.51
943.04	211.52
943.34	211.53
943.64	211.51
943.94	211.46
944.24	211.36
944.54	211.40
944.84	211.39
945.13	211.29
945.43	211.23
945.73	211.28
946.03	211.26
946.33	211.19
946.62	211.13
946.92	211.09
947.22	211.12
947.52	211.09
947.82	211.17
948.11	211.15
948.41	211.04
948.71	211.00
949.01	211.05
949.31	211.06
949.60	211.03
949.90	211.10
950.20	211.10
950.50	211.08
950.79	211.01
951.09	211.02
951.39	211.03
951.69	210.99
951.98	211.03
952.28	211.03
952.58	211.08
952.87	211.10
953.17	211.18
953.47	211.15
953.76	211.14
954.06	211.09
954.36	210.97
954.66	211.01
954.95	211.11
955.25	211.13
955.55	211.15
955.84	211.13
956.14	211.03
956.44	211.06
956.73	211.08
957.03	211.11
957.32	211.12
957.62	211.07
957.92	211.07
958.21	211.07
958.51	211.47
958.81	211.58
959.10	211.59
959.40	211.66
959.69	211.62
959.99	211.67
960.29	211.67
960.58	211.66
960.88	211.78
961.17	211.76
961.47	211.78
961.76	211.72
962.06	211.79
962.36	211.80
962.65	211.80
962.95	211.88
963.24	211.88
963.54	211.90
963.83	211.96
964.13	211.95
964.42	211.85
964.72	211.57
965.01	211.56
965.31	211.50
965.60	211.39
965.90	211.60
966.19	211.55
966.49	211.52
966.78	211.56
967.08	211.57
967.37	211.49
967.67	211.42
967.96	211.44
968.26	211.37
968.55	211.47
968.85	211.50
969.14	211.45
969.43	211.40
969.73	211.40
970.02	211.43
970.32	211.44
970.61	211.42
970.91	211.28
971.20	211.18
971.49	211.17
971.79	211.22
972.08	211.00
972.38	211.03
972.67	211.00
972.96	211.08
973.26	210.93
973.55	211.05
973.85	210.95
974.14	210.94
974.43	210.98
974.73	210.88
975.02	210.89
975.31	210.92
975.61	210.93
975.90	210.88
976.19	210.84
976.49	210.87
976.78	210.88
977.07	210.95
977.37	210.97
977.66	210.99
977.95	210.97
978.24	210.97
978.54	211.05
978.83	211.09
979.12	211.07
979.42	211.12
979.71	211.06
980.00	211.18
980.29	211.25
980.59	211.20
980.88	211.32
981.17	211.33
981.46	211.32
981.76	211.42
982.05	211.49
982.34	211.48
982.63	211.48
982.93	211.48
983.22	211.52
983.51	211.53
983.80	211.61
984.09	211.65
984.39	211.65
984.68	211.60
984.97	211.60
985.26	211.57
985.55	211.56
985.85	211.53
986.14	211.55
986.43	211.61
986.72	211.56
987.01	211.41
987.30	211.40
987.59	211.32
987.89	211.28
988.18	211.22
988.47	211.22
988.76	211.17
989.05	211.09
989.34	211.11
989.63	211.25
989.92	211.19
990.22	211.06
990.51	211.10
990.80	211.05
991.09	211.07
991.38	211.15
991.67	211.06
991.96	211.01
992.25	211.03
992.54	210.84
992.83	210.86
993.12	210.87
993.41	210.88
993.70	211.06
993.99	211.08
994.28	211.12
994.58	211.08
994.87	211.14
995.16	211.18
995.45	211.06
995.74	210.93
996.03	210.90
996.32	210.99
996.61	211.00
996.90	210.91
997.19	210.91
997.48	210.81
997.77	210.86
998.06	210.86
998.34	210.80
998.63	210.81
998.92	210.87
999.21	210.94
999.50	210.92
999.79	210.81
1000.08	210.86
1000.37	210.88
1000.66	210.87
1000.95	210.93
1001.24	210.98
1001.53	211.04
1001.82	211.01
1002.11	211.00
1002.40	211.02
1002.68	211.17
1002.97	211.48
1003.26	211.44
1003.55	211.39
1003.84	211.42
1004.13	211.53
1004.42	211.55
1004.71	211.55
1004.99	211.45
1005.28	211.57
1005.57	211.53
1005.86	211.47
1006.15	211.35
1006.44	211.28
1006.72	211.35
1007.01	211.30
1007.30	211.36
1007.59	211.37
1007.88	211.38
1008.17	211.47
1008.45	211.40
1008.74	211.18
1009.03	210.97
1009.32	210.98
1009.60	211.07
1009.89	211.03
1010.18	210.91
1010.47	210.87
1010.76	210.90
1011.04	210.94
1011.33	210.90
1011.62	210.90
1011.91	210.94
1012.19	211.07
1012.48	211.06
1012.77	211.02
1013.05	211.13
1013.34	211.00
1013.63	210.95
1013.92	210.95
1014.20	210.90
1014.49	210.91
1014.78	211.07
1015.06	211.04
1015.35	210.97
1015.64	210.98
1015.92	211.07
1016.21	211.16
1016.50	211.14
1016.78	211.21
1017.07	211.29
1017.36	211.22
1017.64	211.20
1017.93	211.25
1018.22	211.10
1018.50	211.11
1018.79	211.11
1019.08	211.04
1019.36	211.10
1019.65	211.05
1019.93	211.12
1020.22	211.15
1020.51	211.34
1020.79	211.13
1021.08	209.60
1021.36	210.15
1021.65	210.65
1021.94	211.75
1022.22	211.25
1022.51	209.80
1022.79	211.65
1023.08	211.90
1023.36	214.90
1023.65	208.95
>>>>>End Processed Spectral Data<<<<<
