SpectraSuite Data File
++++++++++++++++++++++++++++++++++++
Date: Mon Feb 25 17:07:40 EST 2013
User: group
Dark Spectrum Present: No
Reference Spectrum Present: No
Number of Sampled Component Spectra: 1
Spectrometers: USB2E7196
Integration Time (usec): 104000 (USB2E7196)
Spectra Averaged: 20 (USB2E7196)
Boxcar Smoothing: 10 (USB2E7196)
Correct for Electrical Dark: No (USB2E7196)
Strobe/Lamp Enabled: No (USB2E7196)
Correct for Detector Non-linearity: No (USB2E7196)
Correct for Stray Light: No (USB2E7196)
Number of Pixels in Processed Spectrum: 2048
>>>>>Begin Processed Spectral Data<<<<<
339.09	0.00
339.48	198.25
339.86	199.20
340.24	201.10
340.63	200.85
341.01	208.45
341.39	204.75
341.78	206.55
342.16	208.35
342.54	209.20
342.93	197.80
343.31	207.74
343.69	208.32
344.07	208.82
344.46	209.30
344.84	209.70
345.22	209.79
345.60	210.06
345.99	210.23
346.37	210.33
346.75	210.39
347.13	210.50
347.52	210.54
347.90	210.64
348.28	210.65
348.66	210.81
349.05	210.72
349.43	210.75
349.81	210.86
350.19	210.84
350.57	210.85
350.96	210.91
351.34	211.00
351.72	211.05
352.10	211.11
352.48	211.14
352.87	211.32
353.25	211.43
353.63	211.54
354.01	211.64
354.39	211.74
354.77	211.84
355.15	211.97
355.54	212.06
355.92	212.04
356.30	212.18
356.68	212.47
357.06	212.54
357.44	212.60
357.82	212.61
358.20	212.72
358.58	212.74
358.97	212.81
359.35	212.99
359.73	213.08
360.11	213.15
360.49	213.18
360.87	213.20
361.25	213.23
361.63	213.29
362.01	213.37
362.39	213.36
362.77	213.35
363.15	213.25
363.53	213.24
363.91	213.27
364.29	213.32
364.67	212.98
365.05	213.01
365.43	213.02
365.81	213.10
366.19	213.32
366.57	213.46
366.95	213.53
367.33	213.45
367.71	213.49
368.09	213.55
368.47	213.56
368.85	213.50
369.23	213.58
369.61	213.49
369.99	213.54
370.37	213.58
370.75	213.79
371.13	213.75
371.51	213.73
371.89	213.74
372.27	213.63
372.65	213.64
373.03	213.53
373.41	213.45
373.78	213.33
374.16	213.05
374.54	212.87
374.92	212.75
375.30	212.67
375.68	212.56
376.06	212.49
376.44	212.39
376.82	212.40
377.19	212.38
377.57	212.33
377.95	212.20
378.33	212.10
378.71	211.83
379.09	211.82
379.47	211.81
379.84	211.71
380.22	211.65
380.60	211.60
380.98	211.56
381.36	211.55
381.73	211.41
382.11	211.44
382.49	211.40
382.87	211.30
383.25	211.30
383.62	211.60
384.00	211.50
384.38	211.46
384.76	211.42
385.13	211.47
385.51	211.39
385.89	211.28
386.27	211.24
386.64	211.21
387.02	211.25
387.40	211.17
387.78	211.12
388.15	211.09
388.53	210.98
388.91	211.05
389.29	210.94
389.66	211.03
390.04	210.95
390.42	211.01
390.79	211.05
391.17	210.98
391.55	210.56
391.92	210.60
392.30	210.62
392.68	210.53
393.05	210.40
393.43	210.48
393.81	210.45
394.18	210.45
394.56	210.48
394.94	210.47
395.31	210.41
395.69	210.57
396.06	210.61
396.44	210.66
396.82	210.55
397.19	210.75
397.57	210.64
397.95	210.75
398.32	210.66
398.70	210.63
399.07	210.77
399.45	210.79
399.82	210.71
400.20	210.63
400.58	210.61
400.95	210.57
401.33	210.58
401.70	210.88
402.08	210.85
402.45	210.80
402.83	210.94
403.20	210.89
403.58	210.84
403.95	210.94
404.33	210.99
404.71	211.02
405.08	211.24
405.46	211.38
405.83	211.40
406.21	211.54
406.58	211.63
406.96	211.68
407.33	211.80
407.70	212.01
408.08	212.45
408.45	212.63
408.83	212.76
409.20	212.90
409.58	212.92
409.95	213.23
410.33	213.54
410.70	213.67
411.08	214.08
411.45	214.35
411.82	214.63
412.20	215.05
412.57	215.62
412.95	215.67
413.32	216.10
413.69	216.45
414.07	216.77
414.44	217.24
414.82	217.72
415.19	218.31
415.56	218.87
415.94	219.33
416.31	220.05
416.68	220.88
417.06	221.68
417.43	222.46
417.81	223.22
418.18	224.07
418.55	224.88
418.93	225.81
419.30	226.80
419.67	227.81
420.04	228.88
420.42	229.94
420.79	231.53
421.16	232.83
421.54	234.42
421.91	235.99
422.28	237.40
422.66	238.96
423.03	240.74
423.40	242.31
423.77	244.01
424.15	245.65
424.52	247.41
424.89	249.49
425.26	251.26
425.64	253.16
426.01	255.10
426.38	257.30
426.75	259.50
427.13	261.77
427.50	264.06
427.87	266.50
428.24	268.92
428.61	271.05
428.99	273.78
429.36	276.35
429.73	278.99
430.10	281.85
430.47	284.70
430.85	287.35
431.22	290.55
431.59	293.96
431.96	297.17
432.33	300.59
432.70	303.84
433.08	307.85
433.45	311.59
433.82	315.35
434.19	319.53
434.56	323.63
434.93	327.41
435.30	331.31
435.68	335.62
436.05	339.97
436.42	344.21
436.79	348.01
437.16	352.27
437.53	356.77
437.90	361.11
438.27	365.46
438.64	369.95
439.01	374.10
439.38	377.71
439.75	381.39
440.13	385.48
440.50	389.35
440.87	392.60
441.24	395.89
441.61	399.57
441.98	402.25
442.35	405.33
442.72	408.61
443.09	411.92
443.46	413.80
443.83	415.09
444.20	416.33
444.57	418.04
444.94	418.79
445.31	419.66
445.68	420.88
446.05	421.30
446.42	421.15
446.79	420.83
447.16	420.44
447.53	420.29
447.90	418.95
448.27	417.62
448.64	415.58
449.01	414.15
449.37	411.55
449.74	408.85
450.11	406.03
450.48	402.52
450.85	398.78
451.22	395.71
451.59	392.79
451.96	389.89
452.33	386.12
452.70	382.83
453.07	378.76
453.43	374.26
453.80	370.23
454.17	366.31
454.54	362.59
454.91	358.65
455.28	354.69
455.65	351.10
456.02	347.86
456.38	344.79
456.75	340.96
457.12	337.69
457.49	334.61
457.86	331.19
458.23	328.65
458.59	325.76
458.96	322.88
459.33	320.29
459.70	317.77
460.07	315.70
460.43	313.37
460.80	311.17
461.17	309.33
461.54	307.34
461.91	305.48
462.27	303.58
462.64	301.80
463.01	299.97
463.38	298.15
463.74	295.85
464.11	294.17
464.48	292.77
464.85	291.20
465.21	290.12
465.58	289.02
465.95	287.46
466.32	286.35
466.68	285.07
467.05	283.82
467.42	282.55
467.78	281.25
468.15	279.95
468.52	278.99
468.88	277.68
469.25	276.56
469.62	275.64
469.98	274.66
470.35	273.77
470.72	272.93
471.08	272.04
471.45	271.36
471.82	270.75
472.18	269.91
472.55	269.36
472.92	268.50
473.28	267.79
473.65	267.10
474.02	266.39
474.38	265.91
474.75	265.57
475.11	265.18
475.48	264.77
475.85	264.44
476.21	264.07
476.58	263.88
476.94	263.58
477.31	263.30
477.67	262.99
478.04	262.86
478.41	262.68
478.77	262.83
479.14	262.58
479.50	262.40
479.87	262.39
480.23	262.35
480.60	262.33
480.96	262.26
481.33	262.42
481.69	262.50
482.06	262.58
482.42	262.56
482.79	262.64
483.15	262.71
483.52	262.97
483.88	263.10
484.25	263.20
484.61	263.43
484.98	263.68
485.34	264.12
485.71	264.49
486.07	264.81
486.44	264.84
486.80	265.25
487.17	265.59
487.53	266.02
487.90	266.55
488.26	267.17
488.62	267.79
488.99	268.36
489.35	268.95
489.72	269.55
490.08	270.23
490.44	270.78
490.81	271.62
491.17	272.39
491.54	273.25
491.90	274.14
492.26	275.10
492.63	275.97
492.99	276.74
493.36	277.73
493.72	278.86
494.08	279.94
494.45	281.16
494.81	282.51
495.17	283.68
495.54	284.95
495.90	286.15
496.26	287.52
496.63	288.86
496.99	290.25
497.35	291.74
497.72	293.18
498.08	294.72
498.44	296.28
498.80	297.89
499.17	299.46
499.53	301.11
499.89	302.78
500.26	304.51
500.62	306.35
500.98	308.12
501.34	309.90
501.71	311.81
502.07	313.62
502.43	315.30
502.79	317.13
503.16	319.00
503.52	321.02
503.88	322.90
504.24	324.93
504.60	327.04
504.97	329.17
505.33	331.31
505.69	333.70
506.05	335.89
506.41	338.16
506.78	340.34
507.14	342.57
507.50	344.80
507.86	347.16
508.22	349.52
508.59	351.93
508.95	354.39
509.31	356.93
509.67	359.45
510.03	362.06
510.39	364.66
510.75	367.38
511.12	369.90
511.48	372.50
511.84	375.14
512.20	377.69
512.56	380.28
512.92	383.07
513.28	385.79
513.64	388.37
514.00	391.04
514.37	393.96
514.73	396.87
515.09	399.89
515.45	402.67
515.81	405.43
516.17	408.19
516.53	411.07
516.89	413.75
517.25	416.63
517.61	419.63
517.97	422.47
518.33	425.34
518.69	428.38
519.05	431.44
519.41	434.54
519.77	438.07
520.13	441.20
520.49	444.21
520.85	447.38
521.21	450.86
521.57	454.10
521.93	457.19
522.29	460.35
522.65	463.48
523.01	466.91
523.37	470.20
523.73	473.71
524.09	477.02
524.45	480.46
524.81	483.91
525.17	487.40
525.53	491.12
525.89	494.64
526.25	498.17
526.61	501.68
526.97	505.26
527.33	508.69
527.68	512.68
528.04	516.33
528.40	519.90
528.76	523.55
529.12	527.40
529.48	531.27
529.84	535.19
530.20	539.15
530.56	542.95
530.91	547.02
531.27	550.92
531.63	554.86
531.99	558.88
532.35	562.65
532.71	566.43
533.07	570.53
533.42	574.82
533.78	578.89
534.14	582.76
534.50	586.49
534.86	590.34
535.21	593.91
535.57	597.93
535.93	601.72
536.29	605.69
536.65	609.42
537.00	612.98
537.36	616.67
537.72	620.25
538.08	624.04
538.44	627.75
538.79	631.49
539.15	635.19
539.51	638.94
539.87	642.90
540.22	646.59
540.58	650.39
540.94	653.83
541.29	657.36
541.65	660.91
542.01	664.52
542.37	668.10
542.72	671.48
543.08	674.85
543.44	678.56
543.79	681.70
544.15	685.16
544.51	688.97
544.87	692.46
545.22	695.83
545.58	698.96
545.94	702.12
546.29	705.07
546.65	708.10
547.01	710.90
547.36	713.78
547.72	717.02
548.07	719.52
548.43	722.02
548.79	724.46
549.14	727.14
549.50	729.87
549.86	732.19
550.21	734.62
550.57	737.14
550.92	739.12
551.28	741.60
551.64	743.70
551.99	745.82
552.35	747.78
552.70	749.77
553.06	751.93
553.41	753.86
553.77	755.98
554.13	757.97
554.48	760.22
554.84	762.22
555.19	763.70
555.55	765.57
555.90	767.30
556.26	769.04
556.61	770.60
556.97	771.91
557.32	773.58
557.68	775.11
558.03	776.45
558.39	777.78
558.74	779.28
559.10	780.87
559.45	782.16
559.81	783.66
560.16	784.89
560.52	786.13
560.87	787.33
561.23	788.47
561.58	789.80
561.94	790.67
562.29	791.56
562.64	792.69
563.00	793.65
563.35	794.79
563.71	796.04
564.06	797.17
564.42	798.30
564.77	799.26
565.12	800.33
565.48	801.73
565.83	802.96
566.19	803.73
566.54	804.31
566.89	804.89
567.25	805.65
567.60	806.64
567.96	807.57
568.31	808.34
568.66	808.79
569.02	808.86
569.37	808.97
569.72	809.20
570.08	809.37
570.43	809.42
570.78	809.50
571.14	809.28
571.49	808.89
571.84	808.81
572.20	808.39
572.55	808.17
572.90	807.31
573.26	806.73
573.61	806.13
573.96	805.50
574.31	804.83
574.67	803.76
575.02	802.57
575.37	801.31
575.72	800.19
576.08	799.39
576.43	798.58
576.78	797.68
577.13	796.96
577.49	796.26
577.84	795.26
578.19	794.35
578.54	793.55
578.90	793.04
579.25	791.95
579.60	790.79
579.95	789.57
580.30	788.59
580.66	787.69
581.01	786.66
581.36	785.56
581.71	784.46
582.06	783.71
582.42	782.96
582.77	781.80
583.12	780.98
583.47	780.02
583.82	779.20
584.17	778.31
584.53	777.29
584.88	775.95
585.23	774.98
585.58	773.94
585.93	772.85
586.28	771.87
586.63	770.96
586.98	770.19
587.34	769.33
587.69	768.20
588.04	767.05
588.39	766.01
588.74	764.84
589.09	763.86
589.44	762.46
589.79	761.31
590.14	760.33
590.49	758.91
590.84	757.53
591.19	756.45
591.54	755.25
591.89	753.79
592.25	752.57
592.60	751.10
592.95	749.44
593.30	747.77
593.65	746.00
594.00	744.26
594.35	743.76
594.70	742.15
595.05	740.82
595.40	739.20
595.75	737.34
596.10	736.02
596.45	734.53
596.80	733.34
597.15	731.96
597.50	730.46
597.85	729.17
598.19	727.61
598.54	726.07
598.89	724.39
599.24	723.27
599.59	721.87
599.94	720.69
600.29	719.50
600.64	718.15
600.99	716.79
601.34	715.73
601.69	713.25
602.04	711.78
602.39	710.20
602.74	708.91
603.08	707.88
603.43	706.76
603.78	705.40
604.13	704.00
604.48	702.48
604.83	701.36
605.18	700.18
605.53	698.82
605.87	697.03
606.22	695.85
606.57	694.12
606.92	692.47
607.27	690.89
607.62	689.27
607.96	688.00
608.31	686.53
608.66	684.85
609.01	683.31
609.36	681.65
609.70	680.02
610.05	678.23
610.40	676.51
610.75	674.52
611.10	673.02
611.44	670.86
611.79	668.82
612.14	666.68
612.49	664.40
612.83	662.64
613.18	660.63
613.53	658.61
613.88	656.52
614.22	654.80
614.57	652.53
614.92	650.50
615.27	648.33
615.61	646.33
615.96	644.19
616.31	642.23
616.65	640.42
617.00	638.41
617.35	636.48
617.70	634.20
618.04	631.95
618.39	629.30
618.74	627.41
619.08	625.28
619.43	623.10
619.78	621.04
620.12	618.69
620.47	616.81
620.82	614.40
621.16	612.08
621.51	609.83
621.85	607.84
622.20	605.53
622.55	603.20
622.89	600.88
623.24	598.79
623.59	596.26
623.93	593.97
624.28	591.70
624.62	589.75
624.97	587.71
625.32	585.70
625.66	583.83
626.01	581.65
626.35	579.58
626.70	577.35
627.04	575.35
627.39	573.35
627.73	571.20
628.08	569.40
628.43	567.43
628.77	565.17
629.12	562.99
629.46	561.34
629.81	559.40
630.15	557.22
630.50	555.01
630.84	553.14
631.19	551.05
631.53	549.07
631.88	546.55
632.22	544.30
632.57	542.33
632.91	540.28
633.26	538.27
633.60	536.29
633.95	534.43
634.29	532.26
634.64	530.33
634.98	528.22
635.32	526.17
635.67	524.43
636.01	522.58
636.36	520.61
636.70	518.52
637.05	516.53
637.39	514.69
637.73	512.97
638.08	511.32
638.42	509.53
638.77	507.76
639.11	505.91
639.45	504.06
639.80	501.87
640.14	499.83
640.49	497.95
640.83	495.90
641.17	493.98
641.52	492.08
641.86	489.97
642.20	488.03
642.55	486.03
642.89	483.90
643.23	481.84
643.58	480.16
643.92	478.03
644.26	476.06
644.61	474.20
644.95	472.16
645.29	470.05
645.64	468.12
645.98	466.09
646.32	464.34
646.66	462.33
647.01	460.56
647.35	458.69
647.69	456.61
648.04	454.72
648.38	452.73
648.72	450.95
649.06	449.16
649.41	447.23
649.75	445.35
650.09	443.43
650.43	441.58
650.78	439.46
651.12	437.51
651.46	435.77
651.80	433.98
652.14	432.10
652.49	430.28
652.83	428.46
653.17	426.48
653.51	424.53
653.85	422.74
654.20	420.99
654.54	419.23
654.88	417.36
655.22	415.70
655.56	413.97
655.90	412.05
656.25	410.10
656.59	408.35
656.93	406.66
657.27	404.99
657.61	403.17
657.95	401.53
658.29	399.89
658.64	398.25
658.98	396.42
659.32	394.74
659.66	392.98
660.00	391.07
660.34	389.50
660.68	387.82
661.02	386.23
661.36	384.64
661.70	383.02
662.05	381.53
662.39	379.97
662.73	378.49
663.07	377.11
663.41	375.79
663.75	374.24
664.09	372.53
664.43	370.91
664.77	369.56
665.11	368.02
665.45	366.56
665.79	365.04
666.13	363.66
666.47	362.20
666.81	360.80
667.15	359.42
667.49	358.05
667.83	356.84
668.17	355.50
668.51	354.09
668.85	352.82
669.19	351.67
669.53	350.24
669.87	348.81
670.21	347.45
670.55	346.10
670.89	345.11
671.23	344.06
671.57	342.91
671.91	341.64
672.25	340.51
672.58	339.42
672.92	338.19
673.26	337.02
673.60	335.89
673.94	334.83
674.28	333.87
674.62	332.79
674.96	331.56
675.30	330.52
675.64	329.40
675.97	328.28
676.31	327.06
676.65	326.09
676.99	325.20
677.33	323.98
677.67	322.91
678.01	321.66
678.34	320.55
678.68	319.55
679.02	318.55
679.36	317.41
679.70	316.36
680.04	315.33
680.37	314.32
680.71	313.31
681.05	312.26
681.39	311.19
681.73	310.16
682.06	309.30
682.40	308.25
682.74	307.45
683.08	306.64
683.42	305.64
683.75	304.81
684.09	303.83
684.43	303.00
684.77	302.08
685.10	301.21
685.44	300.30
685.78	299.36
686.12	298.49
686.45	297.77
686.79	296.90
687.13	296.17
687.46	295.30
687.80	294.53
688.14	293.73
688.48	292.92
688.81	292.11
689.15	291.32
689.49	290.50
689.82	289.59
690.16	288.58
690.50	287.90
690.83	287.01
691.17	286.12
691.51	285.35
691.84	284.65
692.18	283.89
692.52	283.11
692.85	282.46
693.19	281.80
693.52	281.00
693.86	280.19
694.20	279.50
694.53	278.85
694.87	278.10
695.21	277.43
695.54	276.69
695.88	275.95
696.21	275.10
696.55	274.51
696.88	273.88
697.22	273.24
697.56	272.55
697.89	271.85
698.23	271.29
698.56	270.65
698.90	270.06
699.23	269.43
699.57	268.90
699.90	268.21
700.24	267.55
700.58	267.00
700.91	266.48
701.25	266.02
701.58	265.49
701.92	264.99
702.25	264.34
702.59	263.79
702.92	263.35
703.26	262.91
703.59	262.30
703.93	261.93
704.26	261.38
704.60	260.89
704.93	260.45
705.26	259.88
705.60	259.38
705.93	258.77
706.27	258.45
706.60	258.00
706.94	257.74
707.27	257.14
707.61	256.63
707.94	256.10
708.27	255.39
708.61	254.88
708.94	254.33
709.28	253.89
709.61	253.39
709.94	252.92
710.28	252.37
710.61	252.02
710.95	251.30
711.28	251.16
711.61	250.74
711.95	250.36
712.28	249.91
712.61	249.56
712.95	249.42
713.28	249.01
713.61	248.57
713.95	247.92
714.28	247.61
714.61	247.21
714.95	246.81
715.28	246.47
715.61	245.98
715.95	245.67
716.28	245.22
716.61	244.95
716.95	244.48
717.28	244.16
717.61	243.71
717.94	243.44
718.28	242.84
718.61	242.47
718.94	242.04
719.27	241.75
719.61	241.38
719.94	240.88
720.27	240.36
720.60	240.04
720.94	239.74
721.27	239.38
721.60	239.13
721.93	238.85
722.27	238.63
722.60	238.43
722.93	238.07
723.26	237.83
723.59	237.45
723.93	237.29
724.26	237.08
724.59	236.83
724.92	236.57
725.25	236.45
725.59	236.20
725.92	235.94
726.25	235.74
726.58	235.53
726.91	235.24
727.24	235.05
727.57	234.80
727.91	234.49
728.24	234.39
728.57	234.14
728.90	234.00
729.23	233.67
729.56	233.57
729.89	233.39
730.22	233.14
730.55	232.91
730.89	232.66
731.22	232.44
731.55	232.20
731.88	231.97
732.21	231.64
732.54	231.40
732.87	231.27
733.20	230.95
733.53	230.84
733.86	230.71
734.19	230.46
734.52	230.27
734.85	230.44
735.18	230.12
735.51	230.03
735.84	229.82
736.17	229.71
736.50	229.35
736.83	229.61
737.16	229.46
737.49	229.32
737.82	229.16
738.15	228.96
738.48	228.83
738.81	228.60
739.14	228.43
739.47	228.20
739.80	228.01
740.13	227.93
740.46	227.56
740.79	227.30
741.12	227.14
741.45	226.94
741.78	226.57
742.11	226.53
742.44	226.26
742.77	226.15
743.10	226.00
743.43	225.85
743.75	225.29
744.08	225.65
744.41	225.49
744.74	225.30
745.07	225.26
745.40	225.22
745.73	225.29
746.06	225.13
746.39	225.05
746.71	224.91
747.04	224.70
747.37	224.59
747.70	224.56
748.03	224.46
748.36	224.34
748.68	224.23
749.01	224.00
749.34	223.90
749.67	223.80
750.00	223.70
750.33	223.80
750.65	223.74
750.98	223.10
751.31	222.98
751.64	222.86
751.97	222.87
752.29	222.64
752.62	222.30
752.95	222.23
753.28	222.09
753.60	221.90
753.93	221.95
754.26	221.85
754.59	221.60
754.91	221.45
755.24	221.40
755.57	221.31
755.90	221.13
756.22	220.94
756.55	220.81
756.88	220.58
757.20	220.26
757.53	219.94
757.86	219.87
758.19	219.84
758.51	219.71
758.84	219.46
759.17	219.46
759.49	219.43
759.82	219.50
760.15	219.48
760.47	219.43
760.80	219.24
761.13	219.19
761.45	219.13
761.78	219.07
762.11	219.01
762.43	218.78
762.76	218.75
763.08	218.72
763.41	218.61
763.74	218.57
764.06	218.54
764.39	218.58
764.71	218.48
765.04	218.40
765.37	218.33
765.69	218.20
766.02	217.95
766.34	217.85
766.67	217.61
767.00	217.58
767.32	217.61
767.65	217.74
767.97	217.61
768.30	217.56
768.62	217.45
768.95	217.27
769.27	217.23
769.60	217.21
769.92	217.10
770.25	216.98
770.57	216.80
770.90	216.77
771.22	216.70
771.55	216.69
771.87	216.63
772.20	216.54
772.52	216.74
772.85	217.20
773.17	217.18
773.50	217.12
773.82	216.97
774.15	216.77
774.47	216.48
774.80	216.48
775.12	216.43
775.45	216.37
775.77	216.32
776.09	216.33
776.42	216.27
776.74	216.37
777.07	216.30
777.39	216.36
777.72	216.23
778.04	216.19
778.36	216.06
778.69	215.94
779.01	216.01
779.33	215.62
779.66	215.13
779.98	215.02
780.31	215.03
780.63	215.19
780.95	215.24
781.28	215.21
781.60	215.14
781.92	215.15
782.25	215.14
782.57	215.08
782.89	215.01
783.22	214.97
783.54	214.77
783.86	214.79
784.19	214.70
784.51	214.76
784.83	214.67
785.16	214.66
785.48	214.70
785.80	214.65
786.12	214.67
786.45	214.65
786.77	214.69
787.09	214.60
787.42	214.39
787.74	214.38
788.06	214.40
788.38	214.25
788.71	214.09
789.03	214.13
789.35	214.17
789.67	214.09
789.99	214.14
790.32	214.08
790.64	214.10
790.96	214.35
791.28	214.20
791.61	214.18
791.93	214.22
792.25	214.11
792.57	214.30
792.89	214.23
793.21	214.27
793.54	214.18
793.86	214.09
794.18	214.14
794.50	214.01
794.82	213.94
795.14	214.03
795.47	214.14
795.79	214.10
796.11	214.03
796.43	213.98
796.75	213.87
797.07	213.89
797.39	213.84
797.71	213.63
798.04	213.65
798.36	213.55
798.68	213.48
799.00	213.52
799.32	213.28
799.64	213.32
799.96	213.27
800.28	213.33
800.60	213.24
800.92	213.20
801.24	213.15
801.56	213.13
801.89	213.08
802.21	213.06
802.53	212.95
802.85	213.00
803.17	213.14
803.49	213.06
803.81	213.00
804.13	212.97
804.45	212.89
804.77	212.92
805.09	212.96
805.41	212.89
805.73	212.81
806.05	212.75
806.37	212.70
806.69	212.63
807.01	212.53
807.33	212.62
807.65	212.42
807.97	212.61
808.28	212.57
808.60	212.59
808.92	212.49
809.24	212.65
809.56	212.54
809.88	212.37
810.20	212.42
810.52	212.51
810.84	212.45
811.16	212.42
811.48	212.45
811.80	212.59
812.12	212.58
812.43	212.67
812.75	212.62
813.07	212.52
813.39	212.53
813.71	212.53
814.03	212.48
814.35	212.56
814.67	212.40
814.98	212.37
815.30	212.39
815.62	212.32
815.94	212.11
816.26	212.15
816.58	212.09
816.89	212.08
817.21	212.01
817.53	212.00
817.85	211.96
818.17	211.89
818.48	211.71
818.80	211.83
819.12	211.71
819.44	211.68
819.76	211.75
820.07	211.80
820.39	211.68
820.71	211.73
821.03	211.72
821.34	211.62
821.66	211.64
821.98	211.64
822.30	211.66
822.61	211.87
822.93	211.85
823.25	211.85
823.57	211.76
823.88	211.78
824.20	211.78
824.52	211.82
824.83	211.82
825.15	211.77
825.47	211.69
825.79	211.71
826.10	211.77
826.42	211.66
826.74	211.68
827.05	211.76
827.37	211.75
827.69	211.75
828.00	211.82
828.32	211.82
828.64	211.70
828.95	211.88
829.27	211.76
829.58	211.74
829.90	211.83
830.22	211.84
830.53	211.76
830.85	211.72
831.17	211.68
831.48	211.64
831.80	211.69
832.11	211.63
832.43	211.56
832.75	211.46
833.06	211.75
833.38	211.63
833.69	211.60
834.01	211.59
834.32	211.55
834.64	211.55
834.96	211.54
835.27	211.60
835.59	211.47
835.90	211.42
836.22	211.43
836.53	211.35
836.85	211.39
837.16	211.76
837.48	211.76
837.79	211.86
838.11	211.86
838.42	211.81
838.74	211.88
839.05	211.93
839.37	211.92
839.68	211.63
840.00	211.62
840.31	211.71
840.63	211.75
840.94	211.75
841.26	211.79
841.57	211.81
841.88	211.88
842.20	211.85
842.51	211.86
842.83	211.85
843.14	212.16
843.46	212.09
843.77	211.95
844.08	211.94
844.40	211.84
844.71	211.83
845.03	211.85
845.34	211.85
845.65	211.83
845.97	211.88
846.28	211.94
846.60	211.94
846.91	211.81
847.22	211.77
847.54	211.85
847.85	211.82
848.16	211.76
848.48	211.65
848.79	211.79
849.10	211.82
849.42	211.86
849.73	211.51
850.04	211.54
850.36	211.37
850.67	211.42
850.98	211.40
851.30	211.39
851.61	211.40
851.92	211.32
852.23	211.46
852.55	211.49
852.86	211.55
853.17	211.62
853.49	211.73
853.80	211.80
854.11	211.85
854.42	211.87
854.74	211.93
855.05	211.96
855.36	211.71
855.67	211.73
855.99	211.78
856.30	212.23
856.61	212.26
856.92	212.29
857.23	212.30
857.55	212.28
857.86	212.30
858.17	212.35
858.48	212.30
858.79	212.21
859.11	212.22
859.42	212.14
859.73	211.99
860.04	212.01
860.35	211.92
860.66	211.77
860.98	211.80
861.29	211.80
861.60	211.78
861.91	211.96
862.22	211.85
862.53	211.75
862.84	211.39
863.16	211.45
863.47	211.40
863.78	211.43
864.09	211.52
864.40	211.52
864.71	211.52
865.02	211.61
865.33	211.56
865.64	211.53
865.95	211.57
866.27	211.82
866.58	211.74
866.89	211.78
867.20	211.71
867.51	211.65
867.82	211.63
868.13	211.75
868.44	211.66
868.75	211.78
869.06	211.78
869.37	211.74
869.68	211.66
869.99	211.61
870.30	211.58
870.61	211.54
870.92	211.53
871.23	211.47
871.54	211.50
871.85	211.55
872.16	211.59
872.47	211.55
872.78	211.31
873.09	211.34
873.40	211.22
873.71	211.36
874.02	211.33
874.33	211.29
874.64	211.18
874.95	211.21
875.26	211.10
875.56	211.09
875.87	211.10
876.18	211.12
876.49	211.46
876.80	211.45
877.11	211.39
877.42	211.42
877.73	211.43
878.04	211.31
878.35	211.35
878.66	211.30
878.96	211.32
879.27	211.39
879.58	211.35
879.89	211.36
880.20	211.37
880.51	211.37
880.82	211.37
881.12	211.40
881.43	211.34
881.74	211.30
882.05	211.31
882.36	211.33
882.67	211.32
882.97	211.00
883.28	210.97
883.59	211.00
883.90	210.98
884.21	210.97
884.51	211.03
884.82	210.93
885.13	210.96
885.44	210.91
885.74	210.89
886.05	210.91
886.36	210.95
886.67	210.82
886.98	211.01
887.28	211.00
887.59	211.02
887.90	211.05
888.20	211.05
888.51	211.05
888.82	211.08
889.13	211.08
889.43	211.39
889.74	211.36
890.05	211.31
890.35	211.29
890.66	211.33
890.97	211.31
891.28	211.27
891.58	211.17
891.89	211.22
892.20	211.24
892.50	211.21
892.81	211.18
893.12	211.26
893.42	211.05
893.73	211.06
894.04	211.03
894.34	211.03
894.65	211.03
894.95	211.02
895.26	210.98
895.57	211.11
895.87	210.83
896.18	210.88
896.48	210.94
896.79	210.93
897.10	210.91
897.40	210.95
897.71	211.00
898.01	211.04
898.32	211.09
898.63	211.08
898.93	211.11
899.24	211.17
899.54	211.15
899.85	211.17
900.15	211.18
900.46	211.16
900.76	211.22
901.07	211.27
901.38	211.31
901.68	211.33
901.99	211.17
902.29	211.14
902.60	211.12
902.90	211.10
903.21	211.15
903.51	211.10
903.82	211.15
904.12	211.15
904.43	211.21
904.73	211.23
905.03	211.21
905.34	211.55
905.64	211.50
905.95	211.44
906.25	211.44
906.56	211.43
906.86	211.45
907.17	211.32
907.47	211.29
907.77	211.23
908.08	211.24
908.38	211.28
908.69	211.33
908.99	211.39
909.30	211.41
909.60	211.42
909.90	211.51
910.21	211.47
910.51	211.49
910.81	211.46
911.12	211.40
911.42	211.46
911.73	211.06
912.03	211.08
912.33	211.22
912.64	211.24
912.94	211.27
913.24	211.23
913.55	211.27
913.85	211.25
914.15	211.30
914.46	211.28
914.76	211.18
915.06	211.19
915.37	211.09
915.67	211.07
915.97	211.02
916.27	210.86
916.58	210.81
916.88	210.76
917.18	210.74
917.49	210.96
917.79	210.93
918.09	210.99
918.39	211.12
918.70	211.08
919.00	211.05
919.30	211.12
919.60	211.03
919.91	211.02
920.21	211.12
920.51	211.10
920.81	211.16
921.12	211.30
921.42	211.25
921.72	211.32
922.02	211.33
922.32	211.39
922.63	211.47
922.93	211.65
923.23	211.64
923.53	211.58
923.83	211.35
924.13	211.36
924.44	211.40
924.74	211.46
925.04	211.50
925.34	211.50
925.64	211.37
925.94	211.46
926.24	211.63
926.55	211.53
926.85	211.58
927.15	211.54
927.45	211.43
927.75	211.42
928.05	211.44
928.35	211.41
928.65	211.48
928.95	211.52
929.26	211.37
929.56	211.49
929.86	211.58
930.16	211.57
930.46	211.52
930.76	211.47
931.06	211.28
931.36	211.17
931.66	211.25
931.96	211.29
932.26	211.23
932.56	211.08
932.86	211.13
933.16	211.09
933.46	211.01
933.76	211.06
934.06	211.15
934.36	211.20
934.66	211.22
934.96	211.13
935.26	211.15
935.56	211.22
935.86	211.07
936.16	211.02
936.46	210.95
936.76	210.97
937.06	210.90
937.36	210.94
937.66	210.96
937.96	210.90
938.26	210.91
938.56	210.95
938.86	211.04
939.16	211.02
939.46	211.00
939.76	211.06
940.06	211.10
940.35	211.04
940.65	210.85
940.95	210.83
941.25	210.68
941.55	210.56
941.85	210.55
942.15	210.72
942.45	210.77
942.75	210.82
943.04	210.82
943.34	210.93
943.64	210.84
943.94	210.81
944.24	210.83
944.54	210.78
944.84	210.80
945.13	210.63
945.43	210.70
945.73	210.75
946.03	210.76
946.33	210.74
946.62	210.70
946.92	210.76
947.22	210.79
947.52	210.95
947.82	211.07
948.11	210.97
948.41	210.83
948.71	210.72
949.01	210.70
949.31	210.61
949.60	210.55
949.90	210.63
950.20	210.57
950.50	210.55
950.79	210.58
951.09	210.59
951.39	210.64
951.69	210.58
951.98	210.69
952.28	210.63
952.58	210.61
952.87	210.63
953.17	210.68
953.47	210.70
953.76	210.64
954.06	210.50
954.36	210.54
954.66	210.62
954.95	210.77
955.25	210.82
955.55	210.92
955.84	210.93
956.14	210.95
956.44	211.00
956.73	210.94
957.03	210.89
957.32	210.91
957.62	210.89
957.92	210.89
958.21	210.77
958.51	211.10
958.81	211.11
959.10	211.10
959.40	211.09
959.69	211.10
959.99	211.14
960.29	211.22
960.58	211.20
960.88	211.24
961.17	211.15
961.47	211.18
961.76	211.17
962.06	211.20
962.36	211.20
962.65	211.25
962.95	211.33
963.24	211.32
963.54	211.27
963.83	211.26
964.13	211.18
964.42	211.07
964.72	210.84
965.01	210.83
965.31	210.83
965.60	210.82
965.90	210.97
966.19	210.89
966.49	210.93
966.78	210.90
967.08	210.88
967.37	210.92
967.67	210.90
967.96	211.00
968.26	210.98
968.55	210.95
968.85	210.93
969.14	210.88
969.43	210.95
969.73	210.86
970.02	210.86
970.32	210.95
970.61	211.03
970.91	210.88
971.20	210.78
971.49	210.75
971.79	210.77
972.08	210.51
972.38	210.56
972.67	210.46
972.96	210.50
973.26	210.41
973.55	210.44
973.85	210.38
974.14	210.28
974.43	210.29
974.73	210.24
975.02	210.21
975.31	210.20
975.61	210.16
975.90	210.16
976.19	210.16
976.49	210.12
976.78	210.14
977.07	210.20
977.37	210.30
977.66	210.34
977.95	210.26
978.24	210.32
978.54	210.38
978.83	210.39
979.12	210.33
979.42	210.35
979.71	210.33
980.00	210.28
980.29	210.29
980.59	210.19
980.88	210.31
981.17	210.30
981.46	210.33
981.76	210.31
982.05	210.42
982.34	210.45
982.63	210.49
982.93	210.46
983.22	210.54
983.51	210.59
983.80	210.65
984.09	210.62
984.39	210.65
984.68	210.55
984.97	210.56
985.26	210.53
985.55	210.54
985.85	210.43
986.14	210.49
986.43	210.49
986.72	210.48
987.01	210.36
987.30	210.36
987.59	210.28
987.89	210.33
988.18	210.28
988.47	210.24
988.76	210.20
989.05	210.21
989.34	210.15
989.63	210.18
989.92	210.10
990.22	210.16
990.51	210.11
990.80	210.13
991.09	210.11
991.38	210.21
991.67	210.23
991.96	210.25
992.25	210.32
992.54	210.27
992.83	210.29
993.12	210.32
993.41	210.42
993.70	210.59
993.99	210.61
994.28	210.66
994.58	210.74
994.87	210.73
995.16	210.62
995.45	210.58
995.74	210.41
996.03	210.48
996.32	210.44
996.61	210.58
996.90	210.58
997.19	210.66
997.48	210.62
997.77	210.59
998.06	210.61
998.34	210.57
998.63	210.65
998.92	210.67
999.21	210.68
999.50	210.63
999.79	210.57
1000.08	210.54
1000.37	210.53
1000.66	210.55
1000.95	210.57
1001.24	210.66
1001.53	210.78
1001.82	210.79
1002.11	210.69
1002.40	210.80
1002.68	210.82
1002.97	211.06
1003.26	210.95
1003.55	210.92
1003.84	210.93
1004.13	211.09
1004.42	211.05
1004.71	211.00
1004.99	210.91
1005.28	210.98
1005.57	211.00
1005.86	210.95
1006.15	210.96
1006.44	210.90
1006.72	210.87
1007.01	210.84
1007.30	210.92
1007.59	210.88
1007.88	210.86
1008.17	210.95
1008.45	210.92
1008.74	210.81
1009.03	210.65
1009.32	210.63
1009.60	210.62
1009.89	210.60
1010.18	210.41
1010.47	210.43
1010.76	210.41
1011.04	210.50
1011.33	210.48
1011.62	210.43
1011.91	210.47
1012.19	210.41
1012.48	210.45
1012.77	210.47
1013.05	210.62
1013.34	210.56
1013.63	210.54
1013.92	210.53
1014.20	210.46
1014.49	210.43
1014.78	210.42
1015.06	210.34
1015.35	210.36
1015.64	210.47
1015.92	210.53
1016.21	210.60
1016.50	210.56
1016.78	210.60
1017.07	210.59
1017.36	210.57
1017.64	210.58
1017.93	210.59
1018.22	210.60
1018.50	210.62
1018.79	210.66
1019.08	210.54
1019.36	210.57
1019.65	210.53
1019.93	210.72
1020.22	210.78
1020.51	211.07
1020.79	211.07
1021.08	210.05
1021.36	210.65
1021.65	212.25
1021.94	210.65
1022.22	211.35
1022.51	210.05
1022.79	212.75
1023.08	211.70
1023.36	216.85
1023.65	210.50
>>>>>End Processed Spectral Data<<<<<
