SpectraSuite Data File
++++++++++++++++++++++++++++++++++++
Date: Mon Feb 25 17:09:07 EST 2013
User: group
Dark Spectrum Present: No
Reference Spectrum Present: No
Number of Sampled Component Spectra: 1
Spectrometers: USB2E7196
Integration Time (usec): 104000 (USB2E7196)
Spectra Averaged: 20 (USB2E7196)
Boxcar Smoothing: 10 (USB2E7196)
Correct for Electrical Dark: No (USB2E7196)
Strobe/Lamp Enabled: No (USB2E7196)
Correct for Detector Non-linearity: No (USB2E7196)
Correct for Stray Light: No (USB2E7196)
Number of Pixels in Processed Spectrum: 2048
>>>>>Begin Processed Spectral Data<<<<<
339.09	0.00
339.48	196.85
339.86	199.50
340.24	201.05
340.63	202.30
341.01	208.75
341.39	205.70
341.78	206.25
342.16	208.15
342.54	207.95
342.93	197.75
343.31	207.71
343.69	208.31
344.07	208.83
344.46	209.27
344.84	209.67
345.22	209.75
345.60	209.97
345.99	210.16
346.37	210.24
346.75	210.31
347.13	210.31
347.52	210.39
347.90	210.61
348.28	210.65
348.66	210.71
349.05	210.58
349.43	210.65
349.81	210.66
350.19	210.70
350.57	210.72
350.96	210.75
351.34	210.88
351.72	211.02
352.10	211.09
352.48	211.16
352.87	211.18
353.25	211.23
353.63	211.25
354.01	211.31
354.39	211.45
354.77	211.58
355.15	211.77
355.54	211.75
355.92	211.68
356.30	211.75
356.68	211.99
357.06	212.14
357.44	212.18
357.82	212.31
358.20	212.37
358.58	212.45
358.97	212.56
359.35	212.62
359.73	212.67
360.11	212.76
360.49	212.78
360.87	212.89
361.25	213.04
361.63	213.26
362.01	213.29
362.39	213.29
362.77	213.36
363.15	213.30
363.53	213.28
363.91	213.39
364.29	213.42
364.67	213.23
365.05	213.23
365.43	213.20
365.81	213.24
366.19	213.42
366.57	213.51
366.95	213.46
367.33	213.43
367.71	213.40
368.09	213.34
368.47	213.33
368.85	213.26
369.23	213.25
369.61	213.10
369.99	213.17
370.37	213.22
370.75	213.36
371.13	213.31
371.51	213.36
371.89	213.30
372.27	213.23
372.65	213.20
373.03	213.20
373.41	213.17
373.78	213.05
374.16	212.84
374.54	212.68
374.92	212.60
375.30	212.55
375.68	212.50
376.06	212.56
376.44	212.52
376.82	212.53
377.19	212.49
377.57	212.46
377.95	212.32
378.33	212.17
378.71	211.94
379.09	211.95
379.47	211.94
379.84	211.87
380.22	211.80
380.60	211.71
380.98	211.60
381.36	211.55
381.73	211.55
382.11	211.60
382.49	211.59
382.87	211.51
383.25	211.48
383.62	211.83
384.00	211.67
384.38	211.69
384.76	211.72
385.13	211.74
385.51	211.69
385.89	211.64
386.27	211.68
386.64	211.64
387.02	211.58
387.40	211.53
387.78	211.45
388.15	211.44
388.53	211.40
388.91	211.37
389.29	211.33
389.66	211.29
390.04	211.16
390.42	211.25
390.79	211.30
391.17	211.34
391.55	210.92
391.92	210.93
392.30	210.89
392.68	210.73
393.05	210.75
393.43	210.77
393.81	210.76
394.18	210.70
394.56	210.75
394.94	210.86
395.31	210.77
395.69	210.93
396.06	210.98
396.44	210.99
396.82	210.99
397.19	211.26
397.57	211.19
397.95	211.21
398.32	211.13
398.70	211.16
399.07	211.22
399.45	211.19
399.82	211.16
400.20	211.16
400.58	211.22
400.95	211.09
401.33	211.13
401.70	211.40
402.08	211.41
402.45	211.41
402.83	211.51
403.20	211.60
403.58	211.59
403.95	211.69
404.33	211.81
404.71	211.92
405.08	212.13
405.46	212.23
405.83	212.35
406.21	212.36
406.58	212.47
406.96	212.55
407.33	212.72
407.70	212.87
408.08	213.22
408.45	213.40
408.83	213.59
409.20	213.70
409.58	213.73
409.95	214.00
410.33	214.20
410.70	214.23
411.08	214.51
411.45	214.77
411.82	214.95
412.20	215.24
412.57	215.75
412.95	215.72
413.32	216.11
413.69	216.44
414.07	216.87
414.44	217.30
414.82	217.72
415.19	218.20
415.56	218.83
415.94	219.21
416.31	219.95
416.68	220.61
417.06	221.37
417.43	222.12
417.81	222.88
418.18	223.73
418.55	224.64
418.93	225.51
419.30	226.40
419.67	227.40
420.04	228.40
420.42	229.35
420.79	230.92
421.16	232.14
421.54	233.68
421.91	235.01
422.28	236.30
422.66	237.81
423.03	239.62
423.40	241.03
423.77	242.64
424.15	244.13
424.52	245.79
424.89	247.63
425.26	249.33
425.64	251.00
426.01	252.81
426.38	254.71
426.75	256.78
427.13	258.86
427.50	260.96
427.87	263.21
428.24	265.38
428.61	267.26
428.99	269.83
429.36	272.24
429.73	274.84
430.10	277.54
430.47	280.06
430.85	282.47
431.22	285.35
431.59	288.65
431.96	291.58
432.33	294.79
432.70	298.00
433.08	301.73
433.45	305.26
433.82	308.75
434.19	312.73
434.56	316.50
434.93	320.11
435.30	323.76
435.68	327.71
436.05	331.63
436.42	335.60
436.79	339.20
437.16	343.07
437.53	347.16
437.90	351.12
438.27	355.25
438.64	359.34
439.01	363.17
439.38	366.31
439.75	369.67
440.13	373.53
440.50	376.98
440.87	379.75
441.24	382.75
441.61	386.10
441.98	388.59
442.35	391.34
442.72	394.32
443.09	397.31
443.46	399.17
443.83	400.45
444.20	401.51
444.57	402.85
444.94	403.63
445.31	404.40
445.68	405.46
446.05	405.80
446.42	405.62
446.79	405.34
447.16	404.96
447.53	404.79
447.90	403.32
448.27	401.95
448.64	400.10
449.01	398.66
449.37	395.99
449.74	393.48
450.11	390.85
450.48	387.50
450.85	384.07
451.22	381.14
451.59	378.44
451.96	375.70
452.33	372.26
452.70	369.00
453.07	365.15
453.43	360.88
453.80	357.10
454.17	353.41
454.54	350.04
454.91	346.43
455.28	342.79
455.65	339.44
456.02	336.65
456.38	333.73
456.75	330.30
457.12	327.49
457.49	324.52
457.86	321.39
458.23	319.01
458.59	316.34
458.96	313.66
459.33	311.25
459.70	308.98
460.07	307.05
460.43	304.90
460.80	302.82
461.17	301.26
461.54	299.39
461.91	297.61
462.27	295.66
462.64	294.01
463.01	292.30
463.38	290.75
463.74	288.54
464.11	287.10
464.48	285.79
464.85	284.35
465.21	283.34
465.58	282.24
465.95	280.85
466.32	279.67
466.68	278.55
467.05	277.39
467.42	276.24
467.78	275.03
468.15	273.91
468.52	273.16
468.88	271.89
469.25	270.86
469.62	270.20
469.98	269.32
470.35	268.58
470.72	267.74
471.08	266.83
471.45	266.27
471.82	265.66
472.18	264.86
472.55	264.27
472.92	263.56
473.28	262.94
473.65	262.39
474.02	261.90
474.38	261.43
474.75	261.08
475.11	260.61
475.48	260.32
475.85	260.03
476.21	259.64
476.58	259.47
476.94	259.32
477.31	259.02
477.67	258.79
478.04	258.55
478.41	258.52
478.77	258.65
479.14	258.35
479.50	258.23
479.87	258.22
480.23	258.24
480.60	258.20
480.96	258.16
481.33	258.34
481.69	258.39
482.06	258.50
482.42	258.58
482.79	258.74
483.15	258.80
483.52	259.12
483.88	259.35
484.25	259.49
484.61	259.70
484.98	259.94
485.34	260.45
485.71	260.92
486.07	261.27
486.44	261.41
486.80	261.95
487.17	262.36
487.53	262.96
487.90	263.53
488.26	264.25
488.62	265.03
488.99	265.63
489.35	266.30
489.72	266.98
490.08	267.79
490.44	268.63
490.81	269.60
491.17	270.40
491.54	271.39
491.90	272.44
492.26	273.50
492.63	274.59
492.99	275.57
493.36	276.67
493.72	277.88
494.08	279.23
494.45	280.58
494.81	282.14
495.17	283.57
495.54	285.14
495.90	286.66
496.26	288.17
496.63	289.80
496.99	291.41
497.35	293.17
497.72	295.05
498.08	296.86
498.44	298.78
498.80	300.77
499.17	302.82
499.53	304.95
499.89	307.24
500.26	309.43
500.62	311.80
500.98	314.27
501.34	316.75
501.71	319.25
502.07	321.78
502.43	324.23
502.79	326.69
503.16	329.26
503.52	331.88
503.88	334.52
504.24	337.41
504.60	340.44
504.97	343.46
505.33	346.30
505.69	349.52
506.05	352.60
506.41	355.83
506.78	358.91
507.14	362.00
507.50	365.20
507.86	368.65
508.22	372.07
508.59	375.54
508.95	379.04
509.31	382.74
509.67	386.43
510.03	390.18
510.39	394.11
510.75	397.96
511.12	401.79
511.48	405.91
511.84	409.86
512.20	413.72
512.56	417.83
512.92	421.89
513.28	426.07
513.64	430.20
514.00	434.41
514.37	438.77
514.73	443.30
515.09	447.84
515.45	452.20
515.81	456.54
516.17	460.95
516.53	465.33
516.89	469.70
517.25	474.22
517.61	478.70
517.97	483.31
518.33	487.99
518.69	492.73
519.05	497.49
519.41	502.36
519.77	507.50
520.13	512.26
520.49	517.09
520.85	521.85
521.21	526.92
521.57	532.00
521.93	536.65
522.29	541.64
522.65	546.45
523.01	551.37
523.37	556.43
523.73	561.60
524.09	566.79
524.45	571.92
524.81	576.99
525.17	582.32
525.53	587.46
525.89	592.56
526.25	597.80
526.61	602.68
526.97	607.77
527.33	612.91
527.68	618.48
528.04	623.78
528.40	628.98
528.76	634.15
529.12	639.26
529.48	645.02
529.84	650.23
530.20	655.62
530.56	661.11
530.91	666.61
531.27	672.10
531.63	677.52
531.99	682.87
532.35	688.08
532.71	693.28
533.07	698.79
533.42	704.55
533.78	709.78
534.14	715.19
534.50	720.10
534.86	725.28
535.21	729.80
535.57	734.95
535.93	739.82
536.29	744.88
536.65	749.95
537.00	754.72
537.36	759.44
537.72	764.14
538.08	768.70
538.44	773.27
538.79	777.82
539.15	782.30
539.51	787.00
539.87	791.81
540.22	796.38
540.58	800.83
540.94	804.86
541.29	809.25
541.65	813.53
542.01	817.82
542.37	821.86
542.72	826.41
543.08	830.64
543.44	835.10
543.79	838.78
544.15	842.42
544.51	846.35
544.87	850.40
545.22	854.00
545.58	857.76
545.94	861.27
546.29	864.40
546.65	867.57
547.01	870.63
547.36	873.77
547.72	876.81
548.07	879.64
548.43	882.20
548.79	884.65
549.14	887.13
549.50	889.94
549.86	892.34
550.21	894.55
550.57	896.88
550.92	898.67
551.28	900.93
551.64	903.22
551.99	905.35
552.35	907.13
552.70	909.07
553.06	910.78
553.41	912.64
553.77	914.72
554.13	916.60
554.48	918.44
554.84	920.02
555.19	921.55
555.55	923.09
555.90	924.42
556.26	925.85
556.61	927.14
556.97	928.25
557.32	929.50
557.68	930.26
558.03	931.01
558.39	932.08
558.74	933.23
559.10	934.10
559.45	934.92
559.81	936.15
560.16	936.90
560.52	937.79
560.87	938.54
561.23	938.98
561.58	939.99
561.94	940.34
562.29	940.58
562.64	941.02
563.00	941.34
563.35	942.21
563.71	943.03
564.06	943.67
564.42	944.12
564.77	944.75
565.12	945.56
565.48	946.44
565.83	946.94
566.19	947.47
566.54	947.64
566.89	947.63
567.25	947.62
567.60	947.86
567.96	948.25
568.31	948.47
568.66	948.38
569.02	947.70
569.37	947.27
569.72	947.10
570.08	946.56
570.43	945.97
570.78	945.17
571.14	944.06
571.49	943.12
571.84	942.43
572.20	941.25
572.55	940.31
572.90	938.98
573.26	937.68
573.61	936.33
573.96	935.17
574.31	933.72
574.67	932.17
575.02	930.64
575.37	928.81
575.72	926.71
576.08	925.10
576.43	923.48
576.78	922.03
577.13	920.63
577.49	919.39
577.84	918.02
578.19	916.60
578.54	915.55
578.90	914.33
579.25	912.80
579.60	911.08
579.95	909.01
580.30	907.39
580.66	906.01
581.01	904.26
581.36	902.51
581.71	900.93
582.06	899.33
582.42	897.73
582.77	895.63
583.12	894.10
583.47	892.57
583.82	891.07
584.17	889.71
584.53	888.18
584.88	886.44
585.23	884.69
585.58	883.06
585.93	881.04
586.28	879.47
586.63	877.81
586.98	876.38
587.34	875.19
587.69	873.47
588.04	871.75
588.39	870.11
588.74	868.40
589.09	866.85
589.44	864.76
589.79	863.06
590.14	861.75
590.49	860.12
590.84	858.29
591.19	856.93
591.54	854.76
591.89	852.39
592.25	850.57
592.60	848.57
592.95	846.36
593.30	844.15
593.65	841.74
594.00	839.35
594.35	838.10
594.70	835.98
595.05	833.85
595.40	831.85
595.75	829.57
596.10	827.59
596.45	825.67
596.80	824.19
597.15	822.34
597.50	820.24
597.85	818.24
598.19	816.09
598.54	813.74
598.89	812.05
599.24	810.53
599.59	808.52
599.94	806.89
600.29	805.20
600.64	803.45
600.99	801.51
601.34	799.83
601.69	797.09
602.04	794.84
602.39	793.02
602.74	791.10
603.08	789.39
603.43	787.88
603.78	785.87
604.13	783.84
604.48	781.85
604.83	780.35
605.18	778.79
605.53	777.14
605.87	775.22
606.22	773.49
606.57	771.66
606.92	769.74
607.27	767.80
607.62	765.73
607.96	764.06
608.31	762.45
608.66	760.56
609.01	758.44
609.36	756.63
609.70	754.45
610.05	752.32
610.40	750.42
610.75	747.88
611.10	745.89
611.44	743.43
611.79	741.16
612.14	738.45
612.49	735.43
612.83	733.11
613.18	730.44
613.53	727.77
613.88	724.90
614.22	722.45
614.57	719.70
614.92	717.20
615.27	714.52
615.61	711.73
615.96	709.17
616.31	706.82
616.65	704.64
617.00	702.31
617.35	699.67
617.70	696.78
618.04	694.12
618.39	691.05
618.74	688.57
619.08	685.72
619.43	683.15
619.78	680.71
620.12	677.96
620.47	675.65
620.82	672.87
621.16	670.00
621.51	667.32
621.85	664.70
622.20	662.02
622.55	659.34
622.89	656.82
623.24	654.07
623.59	651.26
623.93	648.37
624.28	645.64
624.62	643.50
624.97	641.14
625.32	638.66
625.66	636.49
626.01	633.92
626.35	631.55
626.70	629.07
627.04	627.01
627.39	624.64
627.73	622.11
628.08	619.72
628.43	617.50
628.77	614.96
629.12	612.47
629.46	610.28
629.81	607.99
630.15	605.46
630.50	602.96
630.84	600.43
631.19	598.05
631.53	595.64
631.88	592.76
632.22	589.94
632.57	587.53
632.91	584.89
633.26	582.59
633.60	580.09
633.95	577.75
634.29	575.06
634.64	572.67
634.98	570.12
635.32	567.88
635.67	565.70
636.01	563.50
636.36	561.13
636.70	558.82
637.05	556.48
637.39	554.31
637.73	552.40
638.08	550.66
638.42	548.52
638.77	546.36
639.11	544.15
639.45	542.01
639.80	539.66
640.14	537.43
640.49	535.01
640.83	532.89
641.17	530.69
641.52	528.37
641.86	526.04
642.20	523.99
642.55	521.46
642.89	519.17
643.23	516.88
643.58	514.95
643.92	512.55
644.26	510.17
644.61	507.94
644.95	505.53
645.29	502.97
645.64	500.58
645.98	498.28
646.32	496.22
646.66	494.03
647.01	491.95
647.35	489.83
647.69	487.64
648.04	485.47
648.38	483.19
648.72	480.93
649.06	478.69
649.41	476.41
649.75	474.38
650.09	472.20
650.43	469.85
650.78	467.37
651.12	465.15
651.46	463.17
651.80	461.06
652.14	458.87
652.49	456.76
652.83	454.66
653.17	452.52
653.51	450.18
653.85	448.16
654.20	446.02
654.54	443.91
654.88	441.86
655.22	439.88
655.56	437.76
655.90	435.86
656.25	433.83
656.59	431.77
656.93	429.74
657.27	427.86
657.61	425.86
657.95	424.01
658.29	422.11
658.64	420.20
658.98	418.19
659.32	416.15
659.66	414.24
660.00	412.36
660.34	410.36
660.68	408.53
661.02	406.52
661.36	404.71
661.70	402.85
662.05	401.00
662.39	399.24
662.73	397.59
663.07	395.96
663.41	394.23
663.75	392.51
664.09	390.72
664.43	388.80
664.77	387.13
665.11	385.39
665.45	383.72
665.79	381.96
666.13	380.20
666.47	378.59
666.81	376.97
667.15	375.24
667.49	373.86
667.83	372.35
668.17	370.90
668.51	369.25
668.85	367.75
669.19	366.60
669.53	364.94
669.87	363.43
670.21	361.93
670.55	360.61
670.89	359.40
671.23	358.12
671.57	356.85
671.91	355.56
672.25	354.15
672.58	352.82
672.92	351.45
673.26	350.29
673.60	349.07
673.94	347.78
674.28	346.53
674.62	345.31
674.96	344.10
675.30	342.88
675.64	341.75
675.97	340.50
676.31	339.02
676.65	337.90
676.99	336.76
677.33	335.50
677.67	334.22
678.01	332.90
678.34	331.65
678.68	330.55
679.02	329.28
679.36	328.19
679.70	327.10
680.04	325.95
680.37	324.80
680.71	323.69
681.05	322.59
681.39	321.55
681.73	320.40
682.06	319.31
682.40	318.28
682.74	317.16
683.08	316.36
683.42	315.23
683.75	314.21
684.09	313.15
684.43	312.10
684.77	311.00
685.10	309.98
685.44	308.98
685.78	307.85
686.12	306.96
686.45	305.92
686.79	304.90
687.13	304.10
687.46	303.06
687.80	302.19
688.14	301.23
688.48	300.36
688.81	299.31
689.15	298.32
689.49	297.41
689.82	296.51
690.16	295.30
690.50	294.39
690.83	293.44
691.17	292.45
691.51	291.64
691.84	290.83
692.18	290.04
692.52	289.21
692.85	288.45
693.19	287.74
693.52	287.02
693.86	286.09
694.20	285.32
694.53	284.51
694.87	283.66
695.21	282.91
695.54	281.97
695.88	281.16
696.21	280.37
696.55	279.60
696.88	278.92
697.22	278.15
697.56	277.51
697.89	276.76
698.23	276.03
698.56	275.27
698.90	274.65
699.23	273.83
699.57	273.14
699.90	272.31
700.24	271.47
700.58	270.80
700.91	270.24
701.25	269.67
701.58	269.23
701.92	268.55
702.25	267.90
702.59	267.39
702.92	266.80
703.26	266.20
703.59	265.60
703.93	265.26
704.26	264.74
704.60	264.16
704.93	263.52
705.26	262.93
705.60	262.40
705.93	261.72
706.27	261.39
706.60	260.88
706.94	260.57
707.27	260.02
707.61	259.41
707.94	258.82
708.27	258.02
708.61	257.33
708.94	256.81
709.28	256.26
709.61	255.65
709.94	255.20
710.28	254.75
710.61	254.28
710.95	253.49
711.28	253.27
711.61	252.85
711.95	252.55
712.28	252.14
712.61	251.67
712.95	251.41
713.28	251.05
713.61	250.61
713.95	250.10
714.28	249.71
714.61	249.28
714.95	248.90
715.28	248.53
715.61	248.03
715.95	247.69
716.28	247.24
716.61	246.88
716.95	246.42
717.28	246.03
717.61	245.63
717.94	245.23
718.28	244.63
718.61	244.20
718.94	243.68
719.27	243.33
719.61	243.00
719.94	242.61
720.27	242.03
720.60	241.73
720.94	241.37
721.27	241.07
721.60	240.86
721.93	240.55
722.27	240.35
722.60	240.22
722.93	239.84
723.26	239.67
723.59	239.39
723.93	239.22
724.26	238.91
724.59	238.66
724.92	238.50
725.25	238.32
725.59	238.08
725.92	237.97
726.25	237.70
726.58	237.41
726.91	237.08
727.24	236.99
727.57	236.66
727.91	236.40
728.24	236.24
728.57	235.94
728.90	235.73
729.23	235.37
729.56	235.26
729.89	235.10
730.22	234.80
730.55	234.62
730.89	234.35
731.22	234.08
731.55	233.85
731.88	233.55
732.21	233.29
732.54	233.07
732.87	232.84
733.20	232.61
733.53	232.48
733.86	232.39
734.19	232.03
734.52	231.91
734.85	231.99
735.18	231.60
735.51	231.54
735.84	231.29
736.17	231.25
736.50	230.85
736.83	231.10
737.16	230.95
737.49	230.73
737.82	230.47
738.15	230.40
738.48	230.20
738.81	230.02
739.14	229.75
739.47	229.51
739.80	229.26
740.13	229.13
740.46	228.80
740.79	228.50
741.12	228.35
741.45	228.10
741.78	227.72
742.11	227.68
742.44	227.43
742.77	227.36
743.10	227.15
743.43	226.97
743.75	226.40
744.08	226.71
744.41	226.55
744.74	226.40
745.07	226.04
745.40	225.86
745.73	225.91
746.06	225.79
746.39	225.69
746.71	225.54
747.04	225.34
747.37	225.20
747.70	225.11
748.03	224.96
748.36	224.87
748.68	224.67
749.01	224.42
749.34	224.26
749.67	224.06
750.00	223.96
750.33	224.05
750.65	223.89
750.98	223.28
751.31	223.22
751.64	223.14
751.97	223.33
752.29	223.25
752.62	222.90
752.95	222.77
753.28	222.63
753.60	222.50
753.93	222.47
754.26	222.37
754.59	222.16
754.91	222.02
755.24	221.88
755.57	221.77
755.90	221.66
756.22	221.51
756.55	221.43
756.88	221.15
757.20	220.83
757.53	220.68
757.86	220.58
758.19	220.39
758.51	220.29
758.84	219.92
759.17	219.80
759.49	219.77
759.82	219.86
760.15	219.74
760.47	219.62
760.80	219.41
761.13	219.39
761.45	219.30
761.78	219.13
762.11	219.01
762.43	218.92
762.76	218.86
763.08	218.84
763.41	218.75
763.74	218.77
764.06	218.69
764.39	218.61
764.71	218.48
765.04	218.44
765.37	218.30
765.69	218.21
766.02	218.12
766.34	217.98
766.67	217.65
767.00	217.64
767.32	217.72
767.65	217.88
767.97	217.81
768.30	217.86
768.62	217.95
768.95	217.91
769.27	217.84
769.60	217.85
769.92	217.67
770.25	217.50
770.57	217.34
770.90	217.25
771.22	217.11
771.55	217.04
771.87	216.97
772.20	216.91
772.52	217.12
772.85	217.48
773.17	217.45
773.50	217.49
773.82	217.38
774.15	217.17
774.47	216.96
774.80	216.82
775.12	216.64
775.45	216.48
775.77	216.38
776.09	216.29
776.42	216.20
776.74	216.32
777.07	216.32
777.39	216.35
777.72	216.26
778.04	216.27
778.36	216.22
778.69	216.17
779.01	216.17
779.33	215.90
779.66	215.43
779.98	215.31
780.31	215.30
780.63	215.48
780.95	215.55
781.28	215.42
781.60	215.39
781.92	215.36
782.25	215.37
782.57	215.36
782.89	215.29
783.22	215.25
783.54	215.12
783.86	215.06
784.19	214.96
784.51	215.06
784.83	215.00
785.16	214.96
785.48	214.95
785.80	214.92
786.12	214.87
786.45	214.82
786.77	214.83
787.09	214.76
787.42	214.61
787.74	214.58
788.06	214.57
788.38	214.57
788.71	214.54
789.03	214.52
789.35	214.52
789.67	214.50
789.99	214.46
790.32	214.31
790.64	214.30
790.96	214.55
791.28	214.38
791.61	214.35
791.93	214.43
792.25	214.34
792.57	214.57
792.89	214.50
793.21	214.53
793.54	214.51
793.86	214.43
794.18	214.41
794.50	214.24
794.82	214.26
795.14	214.21
795.47	214.22
795.79	214.20
796.11	214.09
796.43	214.08
796.75	214.03
797.07	214.13
797.39	214.11
797.71	213.90
798.04	213.96
798.36	213.94
798.68	213.84
799.00	213.85
799.32	213.61
799.64	213.72
799.96	213.73
800.28	213.75
800.60	213.71
800.92	213.65
801.24	213.69
801.56	213.65
801.89	213.59
802.21	213.56
802.53	213.50
802.85	213.59
803.17	213.69
803.49	213.59
803.81	213.49
804.13	213.52
804.45	213.43
804.77	213.40
805.09	213.37
805.41	213.33
805.73	213.25
806.05	213.11
806.37	212.97
806.69	212.88
807.01	212.80
807.33	212.74
807.65	212.60
807.97	212.71
808.28	212.69
808.60	212.68
808.92	212.67
809.24	212.83
809.56	212.75
809.88	212.64
810.20	212.67
810.52	212.77
810.84	212.63
811.16	212.58
811.48	212.55
811.80	212.61
812.12	212.60
812.43	212.70
812.75	212.74
813.07	212.76
813.39	212.77
813.71	212.79
814.03	212.82
814.35	212.86
814.67	212.67
814.98	212.59
815.30	212.60
815.62	212.50
815.94	212.29
816.26	212.31
816.58	212.25
816.89	212.29
817.21	212.23
817.53	212.29
817.85	212.28
818.17	212.28
818.48	212.21
818.80	212.25
819.12	212.16
819.44	212.10
819.76	212.02
820.07	211.94
820.39	211.91
820.71	211.90
821.03	211.87
821.34	211.85
821.66	211.93
821.98	211.95
822.30	211.98
822.61	212.16
822.93	212.10
823.25	212.05
823.57	211.99
823.88	212.06
824.20	212.03
824.52	212.07
824.83	212.10
825.15	212.05
825.47	211.99
825.79	212.00
826.10	212.02
826.42	212.01
826.74	212.16
827.05	212.14
827.37	212.19
827.69	212.17
828.00	212.18
828.32	212.20
828.64	212.21
828.95	212.39
829.27	212.24
829.58	212.24
829.90	212.33
830.22	212.41
830.53	212.24
830.85	212.21
831.17	212.16
831.48	212.18
831.80	212.19
832.11	212.23
832.43	212.22
832.75	212.16
833.06	212.43
833.38	212.27
833.69	212.30
834.01	212.32
834.32	212.33
834.64	212.34
834.96	212.32
835.27	212.33
835.59	212.19
835.90	212.20
836.22	212.18
836.53	212.10
836.85	212.02
837.16	212.48
837.48	212.49
837.79	212.65
838.11	212.54
838.42	212.54
838.74	212.55
839.05	212.49
839.37	212.51
839.68	212.21
840.00	212.20
840.31	212.24
840.63	212.21
840.94	212.21
841.26	212.11
841.57	212.12
841.88	212.09
842.20	211.99
842.51	211.99
842.83	212.01
843.14	212.26
843.46	212.30
843.77	212.07
844.08	212.08
844.40	211.90
844.71	211.92
845.03	211.90
845.34	211.90
845.65	211.89
845.97	211.91
846.28	211.98
846.60	212.02
846.91	211.95
847.22	211.90
847.54	211.94
847.85	212.03
848.16	212.03
848.48	211.94
848.79	212.15
849.10	212.18
849.42	212.12
849.73	211.86
850.04	211.84
850.36	211.61
850.67	211.65
850.98	211.66
851.30	211.69
851.61	211.68
851.92	211.67
852.23	211.82
852.55	211.85
852.86	211.88
853.17	211.90
853.49	211.90
853.80	212.02
854.11	212.03
854.42	212.06
854.74	211.97
855.05	212.09
855.36	211.85
855.67	211.80
855.99	211.83
856.30	212.23
856.61	212.21
856.92	212.26
857.23	212.25
857.55	212.12
857.86	212.10
858.17	212.15
858.48	212.08
858.79	211.96
859.11	211.97
859.42	211.92
859.73	211.82
860.04	211.82
860.35	211.64
860.66	211.58
860.98	211.57
861.29	211.63
861.60	211.54
861.91	211.68
862.22	211.61
862.53	211.60
862.84	211.17
863.16	211.28
863.47	211.26
863.78	211.26
864.09	211.38
864.40	211.45
864.71	211.45
865.02	211.53
865.33	211.46
865.64	211.39
865.95	211.35
866.27	211.61
866.58	211.61
866.89	211.70
867.20	211.66
867.51	211.60
867.82	211.59
868.13	211.70
868.44	211.65
868.75	211.82
869.06	211.82
869.37	211.81
869.68	211.64
869.99	211.70
870.30	211.66
870.61	211.65
870.92	211.54
871.23	211.48
871.54	211.55
871.85	211.71
872.16	211.81
872.47	211.76
872.78	211.57
873.09	211.55
873.40	211.54
873.71	211.67
874.02	211.70
874.33	211.62
874.64	211.45
874.95	211.50
875.26	211.33
875.56	211.40
875.87	211.43
876.18	211.43
876.49	211.75
876.80	211.73
877.11	211.71
877.42	211.73
877.73	211.74
878.04	211.70
878.35	211.60
878.66	211.51
878.96	211.56
879.27	211.57
879.58	211.52
879.89	211.45
880.20	211.45
880.51	211.37
880.82	211.46
881.12	211.52
881.43	211.42
881.74	211.43
882.05	211.40
882.36	211.49
882.67	211.48
882.97	211.13
883.28	211.19
883.59	211.15
883.90	211.16
884.21	211.23
884.51	211.20
884.82	211.20
885.13	211.25
885.44	211.20
885.74	211.15
886.05	211.15
886.36	211.25
886.67	211.15
886.98	211.39
887.28	211.41
887.59	211.46
887.90	211.51
888.20	211.52
888.51	211.52
888.82	211.41
889.13	211.48
889.43	211.73
889.74	211.71
890.05	211.75
890.35	211.73
890.66	211.73
890.97	211.65
891.28	211.58
891.58	211.61
891.89	211.68
892.20	211.69
892.50	211.75
892.81	211.68
893.12	211.67
893.42	211.49
893.73	211.48
894.04	211.51
894.34	211.55
894.65	211.48
894.95	211.49
895.26	211.51
895.57	211.63
895.87	211.37
896.18	211.43
896.48	211.41
896.79	211.41
897.10	211.38
897.40	211.43
897.71	211.57
898.01	211.54
898.32	211.59
898.63	211.61
898.93	211.58
899.24	211.62
899.54	211.63
899.85	211.64
900.15	211.71
900.46	211.64
900.76	211.68
901.07	211.75
901.38	211.74
901.68	211.82
901.99	211.66
902.29	211.65
902.60	211.62
902.90	211.63
903.21	211.70
903.51	211.75
903.82	211.85
904.12	211.75
904.43	211.77
904.73	211.70
905.03	211.75
905.34	212.11
905.64	212.08
905.95	212.09
906.25	212.01
906.56	212.00
906.86	211.99
907.17	211.92
907.47	211.85
907.77	211.82
908.08	211.73
908.38	211.80
908.69	211.79
908.99	211.87
909.30	211.93
909.60	211.88
909.90	211.84
910.21	211.70
910.51	211.69
910.81	211.66
911.12	211.70
911.42	211.64
911.73	211.27
912.03	211.34
912.33	211.39
912.64	211.42
912.94	211.30
913.24	211.27
913.55	211.21
913.85	211.26
914.15	211.31
914.46	211.39
914.76	211.33
915.06	211.28
915.37	211.18
915.67	211.10
915.97	211.04
916.27	211.00
916.58	211.00
916.88	210.98
917.18	210.97
917.49	211.24
917.79	211.24
918.09	211.29
918.39	211.26
918.70	211.22
919.00	211.27
919.30	211.43
919.60	211.38
919.91	211.37
920.21	211.37
920.51	211.31
920.81	211.25
921.12	211.27
921.42	211.25
921.72	211.28
922.02	211.26
922.32	211.37
922.63	211.31
922.93	211.50
923.23	211.53
923.53	211.47
923.83	211.19
924.13	211.19
924.44	211.11
924.74	211.18
925.04	211.25
925.34	211.18
925.64	211.00
925.94	211.05
926.24	211.25
926.55	211.18
926.85	211.24
927.15	211.22
927.45	211.24
927.75	211.24
928.05	211.18
928.35	211.10
928.65	211.14
928.95	211.16
929.26	211.02
929.56	211.01
929.86	211.06
930.16	211.06
930.46	211.01
930.76	211.10
931.06	210.97
931.36	210.86
931.66	210.84
931.96	210.93
932.26	210.98
932.56	210.79
932.86	210.80
933.16	210.76
933.46	210.79
933.76	210.71
934.06	210.80
934.36	210.94
934.66	211.06
934.96	210.99
935.26	211.04
935.56	211.09
935.86	211.08
936.16	211.08
936.46	211.02
936.76	211.05
937.06	211.01
937.36	210.99
937.66	210.98
937.96	211.03
938.26	210.97
938.56	210.92
938.86	210.94
939.16	211.06
939.46	211.14
939.76	211.07
940.06	211.12
940.35	211.07
940.65	210.94
940.95	210.96
941.25	210.83
941.55	210.79
941.85	210.76
942.15	210.75
942.45	210.84
942.75	210.88
943.04	210.87
943.34	210.85
943.64	210.81
943.94	210.78
944.24	210.76
944.54	210.76
944.84	210.79
945.13	210.74
945.43	210.75
945.73	210.70
946.03	210.72
946.33	210.63
946.62	210.63
946.92	210.55
947.22	210.48
947.52	210.53
947.82	210.57
948.11	210.59
948.41	210.56
948.71	210.40
949.01	210.49
949.31	210.47
949.60	210.44
949.90	210.51
950.20	210.53
950.50	210.55
950.79	210.45
951.09	210.50
951.39	210.49
951.69	210.41
951.98	210.50
952.28	210.50
952.58	210.50
952.87	210.46
953.17	210.60
953.47	210.57
953.76	210.65
954.06	210.55
954.36	210.41
954.66	210.40
954.95	210.57
955.25	210.53
955.55	210.60
955.84	210.61
956.14	210.69
956.44	210.70
956.73	210.63
957.03	210.70
957.32	210.67
957.62	210.67
957.92	210.69
958.21	210.62
958.51	211.05
958.81	211.14
959.10	211.23
959.40	211.27
959.69	211.39
959.99	211.42
960.29	211.50
960.58	211.51
960.88	211.67
961.17	211.64
961.47	211.59
961.76	211.58
962.06	211.70
962.36	211.66
962.65	211.66
962.95	211.70
963.24	211.74
963.54	211.72
963.83	211.83
964.13	211.85
964.42	211.77
964.72	211.43
965.01	211.38
965.31	211.33
965.60	211.22
965.90	211.39
966.19	211.30
966.49	211.30
966.78	211.34
967.08	211.26
967.37	211.21
967.67	211.19
967.96	211.20
968.26	211.01
968.55	211.05
968.85	211.05
969.14	211.01
969.43	210.88
969.73	210.88
970.02	210.77
970.32	210.75
970.61	210.71
970.91	210.65
971.20	210.60
971.49	210.61
971.79	210.68
972.08	210.38
972.38	210.40
972.67	210.34
972.96	210.38
973.26	210.31
973.55	210.41
973.85	210.44
974.14	210.36
974.43	210.46
974.73	210.35
975.02	210.35
975.31	210.47
975.61	210.58
975.90	210.58
976.19	210.55
976.49	210.60
976.78	210.65
977.07	210.65
977.37	210.68
977.66	210.72
977.95	210.60
978.24	210.72
978.54	210.77
978.83	210.77
979.12	210.79
979.42	210.79
979.71	210.67
980.00	210.69
980.29	210.73
980.59	210.69
980.88	210.83
981.17	210.86
981.46	210.82
981.76	210.82
982.05	210.88
982.34	210.96
982.63	210.96
982.93	210.95
983.22	211.03
983.51	211.05
983.80	211.05
984.09	211.14
984.39	211.03
984.68	210.97
984.97	211.00
985.26	210.94
985.55	211.05
985.85	211.09
986.14	211.11
986.43	211.20
986.72	211.21
987.01	211.08
987.30	211.00
987.59	210.95
987.89	210.93
988.18	210.77
988.47	210.73
988.76	210.64
989.05	210.65
989.34	210.56
989.63	210.66
989.92	210.55
990.22	210.52
990.51	210.56
990.80	210.52
991.09	210.56
991.38	210.61
991.67	210.49
991.96	210.40
992.25	210.35
992.54	210.25
992.83	210.20
993.12	210.25
993.41	210.36
993.70	210.53
993.99	210.62
994.28	210.71
994.58	210.79
994.87	210.79
995.16	210.82
995.45	210.82
995.74	210.75
996.03	210.89
996.32	210.90
996.61	210.97
996.90	210.98
997.19	210.98
997.48	211.00
997.77	211.00
998.06	211.10
998.34	211.12
998.63	211.11
998.92	211.20
999.21	211.20
999.50	211.16
999.79	211.00
1000.08	210.97
1000.37	210.99
1000.66	210.87
1000.95	210.93
1001.24	210.92
1001.53	210.99
1001.82	210.91
1002.11	210.79
1002.40	210.89
1002.68	210.95
1002.97	211.22
1003.26	211.10
1003.55	211.03
1003.84	211.05
1004.13	211.20
1004.42	211.19
1004.71	211.26
1004.99	211.19
1005.28	211.27
1005.57	211.31
1005.86	211.37
1006.15	211.38
1006.44	211.32
1006.72	211.38
1007.01	211.36
1007.30	211.34
1007.59	211.24
1007.88	211.20
1008.17	211.27
1008.45	211.20
1008.74	211.08
1009.03	210.90
1009.32	210.91
1009.60	210.92
1009.89	210.85
1010.18	210.65
1010.47	210.62
1010.76	210.60
1011.04	210.57
1011.33	210.55
1011.62	210.53
1011.91	210.53
1012.19	210.46
1012.48	210.45
1012.77	210.44
1013.05	210.55
1013.34	210.61
1013.63	210.67
1013.92	210.76
1014.20	210.67
1014.49	210.64
1014.78	210.68
1015.06	210.54
1015.35	210.62
1015.64	210.69
1015.92	210.78
1016.21	210.82
1016.50	210.72
1016.78	210.71
1017.07	210.81
1017.36	210.83
1017.64	210.75
1017.93	210.75
1018.22	210.77
1018.50	210.80
1018.79	210.82
1019.08	210.62
1019.36	210.61
1019.65	210.48
1019.93	210.51
1020.22	210.60
1020.51	210.75
1020.79	210.68
1021.08	210.60
1021.36	210.15
1021.65	211.50
1021.94	208.90
1022.22	210.95
1022.51	208.70
1022.79	211.45
1023.08	210.95
1023.36	214.20
1023.65	209.50
>>>>>End Processed Spectral Data<<<<<
