SpectraSuite Data File
++++++++++++++++++++++++++++++++++++
Date: Mon Feb 25 17:16:55 EST 2013
User: group
Dark Spectrum Present: No
Reference Spectrum Present: No
Number of Sampled Component Spectra: 1
Spectrometers: USB2E7196
Integration Time (usec): 104000 (USB2E7196)
Spectra Averaged: 20 (USB2E7196)
Boxcar Smoothing: 10 (USB2E7196)
Correct for Electrical Dark: No (USB2E7196)
Strobe/Lamp Enabled: No (USB2E7196)
Correct for Detector Non-linearity: No (USB2E7196)
Correct for Stray Light: No (USB2E7196)
Number of Pixels in Processed Spectrum: 2048
>>>>>Begin Processed Spectral Data<<<<<
339.09	0.00
339.48	198.30
339.86	201.35
340.24	200.75
340.63	203.25
341.01	209.85
341.39	206.05
341.78	206.95
342.16	209.90
342.54	209.55
342.93	198.39
343.31	208.38
343.69	208.94
344.07	209.37
344.46	209.85
344.84	210.23
345.22	210.22
345.60	210.46
345.99	210.68
346.37	210.74
346.75	210.75
347.13	210.77
347.52	210.85
347.90	211.00
348.28	211.05
348.66	211.13
349.05	210.99
349.43	211.07
349.81	211.10
350.19	211.07
350.57	211.13
350.96	211.22
351.34	211.32
351.72	211.35
352.10	211.41
352.48	211.46
352.87	211.45
353.25	211.56
353.63	211.57
354.01	211.63
354.39	211.72
354.77	211.84
355.15	212.01
355.54	212.00
355.92	211.93
356.30	211.90
356.68	212.13
357.06	212.25
357.44	212.30
357.82	212.35
358.20	212.53
358.58	212.54
358.97	212.55
359.35	212.66
359.73	212.81
360.11	212.91
360.49	213.05
360.87	213.20
361.25	213.30
361.63	213.54
362.01	213.57
362.39	213.65
362.77	213.71
363.15	213.74
363.53	213.76
363.91	213.82
364.29	213.92
364.67	213.71
365.05	213.80
365.43	213.83
365.81	214.02
366.19	214.19
366.57	214.37
366.95	214.51
367.33	214.51
367.71	214.58
368.09	214.60
368.47	214.50
368.85	214.53
369.23	214.64
369.61	214.46
369.99	214.60
370.37	214.53
370.75	214.73
371.13	214.73
371.51	214.75
371.89	214.83
372.27	214.86
372.65	214.88
373.03	214.85
373.41	214.87
373.78	214.77
374.16	214.57
374.54	214.48
374.92	214.41
375.30	214.35
375.68	214.26
376.06	214.26
376.44	214.27
376.82	214.20
377.19	214.07
377.57	214.03
377.95	213.87
378.33	213.92
378.71	213.64
379.09	213.58
379.47	213.58
379.84	213.50
380.22	213.40
380.60	213.30
380.98	213.22
381.36	213.18
381.73	213.11
382.11	213.12
382.49	213.08
382.87	212.93
383.25	212.91
383.62	213.24
384.00	213.13
384.38	213.11
384.76	213.19
385.13	213.34
385.51	213.33
385.89	213.29
386.27	213.25
386.64	213.27
387.02	213.22
387.40	213.19
387.78	213.17
388.15	213.15
388.53	213.08
388.91	213.12
389.29	213.11
389.66	213.15
390.04	213.07
390.42	213.11
390.79	213.13
391.17	213.10
391.55	212.75
391.92	212.73
392.30	212.70
392.68	212.61
393.05	212.58
393.43	212.54
393.81	212.46
394.18	212.42
394.56	212.38
394.94	212.44
395.31	212.42
395.69	212.50
396.06	212.59
396.44	212.63
396.82	212.55
397.19	212.70
397.57	212.57
397.95	212.68
398.32	212.54
398.70	212.61
399.07	212.67
399.45	212.68
399.82	212.74
400.20	212.73
400.58	212.68
400.95	212.55
401.33	212.67
401.70	213.00
402.08	213.03
402.45	213.09
402.83	213.21
403.20	213.25
403.58	213.32
403.95	213.41
404.33	213.57
404.71	213.70
405.08	213.93
405.46	214.10
405.83	214.21
406.21	214.35
406.58	214.52
406.96	214.68
407.33	214.80
407.70	214.98
408.08	215.45
408.45	215.72
408.83	216.01
409.20	216.20
409.58	216.31
409.95	216.65
410.33	217.01
410.70	217.26
411.08	217.64
411.45	217.98
411.82	218.32
412.20	218.73
412.57	219.38
412.95	219.49
413.32	220.02
413.69	220.47
414.07	221.09
414.44	221.65
414.82	222.25
415.19	223.12
415.56	223.85
415.94	224.52
416.31	225.42
416.68	226.30
417.06	227.35
417.43	228.27
417.81	229.42
418.18	230.59
418.55	231.69
418.93	233.01
419.30	234.42
419.67	235.84
420.04	237.35
420.42	238.75
420.79	240.88
421.16	242.69
421.54	244.70
421.91	246.59
422.28	248.56
422.66	250.76
423.03	252.87
423.40	255.03
423.77	257.28
424.15	259.66
424.52	262.03
424.89	264.69
425.26	267.31
425.64	269.60
426.01	272.23
426.38	275.10
426.75	278.00
427.13	280.81
427.50	283.84
427.87	286.95
428.24	290.21
428.61	293.04
428.99	296.44
429.36	300.04
429.73	303.57
430.10	307.09
430.47	310.68
430.85	314.27
431.22	318.31
431.59	322.70
431.96	326.77
432.33	331.22
432.70	335.48
433.08	340.49
433.45	345.31
433.82	350.05
434.19	355.21
434.56	360.26
434.93	365.12
435.30	370.07
435.68	375.46
436.05	380.76
436.42	385.99
436.79	390.75
437.16	395.91
437.53	401.49
437.90	407.01
438.27	412.42
438.64	417.97
439.01	423.07
439.38	427.43
439.75	431.78
440.13	436.81
440.50	441.62
440.87	445.44
441.24	449.44
441.61	453.75
441.98	457.06
442.35	460.73
442.72	464.68
443.09	468.56
443.46	470.71
443.83	472.02
444.20	473.35
444.57	475.12
444.94	475.90
445.31	476.70
445.68	477.83
446.05	477.94
446.42	477.26
446.79	476.49
447.16	475.74
447.53	475.10
447.90	472.95
448.27	470.77
448.64	467.86
449.01	465.70
449.37	462.24
449.74	458.66
450.11	454.78
450.48	450.09
450.85	445.13
451.22	441.13
451.59	437.42
451.96	433.70
452.33	428.88
452.70	424.55
453.07	419.29
453.43	413.68
453.80	408.65
454.17	403.80
454.54	399.17
454.91	394.16
455.28	389.25
455.65	384.82
456.02	380.71
456.38	376.88
456.75	372.12
457.12	367.96
457.49	364.02
457.86	359.90
458.23	356.68
458.59	353.16
458.96	349.59
459.33	346.32
459.70	343.09
460.07	340.66
460.43	337.64
460.80	334.96
461.17	332.52
461.54	330.01
461.91	327.67
462.27	325.18
462.64	323.02
463.01	320.83
463.38	318.69
463.74	316.09
464.11	314.10
464.48	312.48
464.85	310.69
465.21	309.36
465.58	307.97
465.95	306.13
466.32	304.58
466.68	303.09
467.05	301.71
467.42	300.37
467.78	298.80
468.15	297.43
468.52	296.45
468.88	295.03
469.25	293.89
469.62	292.94
469.98	292.09
470.35	291.25
470.72	290.41
471.08	289.32
471.45	288.59
471.82	287.92
472.18	287.02
472.55	286.58
472.92	285.81
473.28	285.22
473.65	284.66
474.02	284.22
474.38	283.88
474.75	283.61
475.11	283.18
475.48	283.05
475.85	282.84
476.21	282.52
476.58	282.46
476.94	282.43
477.31	282.39
477.67	282.32
478.04	282.39
478.41	282.59
478.77	283.17
479.14	283.30
479.50	283.70
479.87	284.16
480.23	284.48
480.60	284.80
480.96	285.18
481.33	285.88
481.69	286.44
482.06	286.98
482.42	287.55
482.79	288.30
483.15	289.02
483.52	290.07
483.88	291.06
484.25	292.10
484.61	293.23
484.98	294.41
485.34	295.70
485.71	297.12
486.07	298.46
486.44	299.65
486.80	301.27
487.17	302.79
487.53	304.57
487.90	306.49
488.26	308.70
488.62	310.96
488.99	313.21
489.35	315.67
489.72	318.21
490.08	320.88
490.44	323.68
490.81	326.64
491.17	329.59
491.54	332.82
491.90	336.22
492.26	339.85
492.63	343.54
492.99	347.43
493.36	351.44
493.72	355.79
494.08	360.23
494.45	364.80
494.81	369.90
495.17	374.97
495.54	380.38
495.90	385.95
496.26	391.75
496.63	397.80
496.99	403.97
497.35	410.71
497.72	417.62
498.08	424.81
498.44	432.21
498.80	440.13
499.17	448.20
499.53	456.51
499.89	465.22
500.26	474.19
500.62	483.30
500.98	492.88
501.34	502.84
501.71	513.16
502.07	523.80
502.43	534.42
502.79	545.49
503.16	556.99
503.52	568.74
503.88	580.74
504.24	593.30
504.60	606.21
504.97	619.34
505.33	632.65
505.69	646.83
506.05	661.31
506.41	675.80
506.78	690.55
507.14	705.83
507.50	721.35
507.86	737.20
508.22	753.59
508.59	770.31
508.95	787.39
509.31	804.68
509.67	822.26
510.03	840.32
510.39	858.90
510.75	877.77
511.12	896.90
511.48	916.54
511.84	936.20
512.20	956.06
512.56	976.59
512.92	997.74
513.28	1018.50
513.64	1039.32
514.00	1060.39
514.37	1082.08
514.73	1103.84
515.09	1125.72
515.45	1147.64
515.81	1169.76
516.17	1191.94
516.53	1214.39
516.89	1237.08
517.25	1260.05
517.61	1282.82
517.97	1305.75
518.33	1328.43
518.69	1351.41
519.05	1374.41
519.41	1397.53
519.77	1421.27
520.13	1444.22
520.49	1466.70
520.85	1489.78
521.21	1513.39
521.57	1537.17
521.93	1559.91
522.29	1583.65
522.65	1607.12
523.01	1630.36
523.37	1653.06
523.73	1676.26
524.09	1699.10
524.45	1722.18
524.81	1745.13
525.17	1768.46
525.53	1791.16
525.89	1814.13
526.25	1836.39
526.61	1858.18
526.97	1880.09
527.33	1901.58
527.68	1923.67
528.04	1945.16
528.40	1966.03
528.76	1986.78
529.12	2007.85
529.48	2029.72
529.84	2050.20
530.20	2070.71
530.56	2091.43
530.91	2112.63
531.27	2133.23
531.63	2153.14
531.99	2172.82
532.35	2191.88
532.71	2210.55
533.07	2230.09
533.42	2248.21
533.78	2267.08
534.14	2285.63
534.50	2302.81
534.86	2320.54
535.21	2337.12
535.57	2354.74
535.93	2371.27
536.29	2387.95
536.65	2404.05
537.00	2419.00
537.36	2433.52
537.72	2447.89
538.08	2462.56
538.44	2477.16
538.79	2491.31
539.15	2505.04
539.51	2518.74
539.87	2533.05
540.22	2546.45
540.58	2559.69
540.94	2572.95
541.29	2584.68
541.65	2595.74
542.01	2607.66
542.37	2618.77
542.72	2629.95
543.08	2640.09
543.44	2651.77
543.79	2661.08
544.15	2670.30
544.51	2680.32
544.87	2690.57
545.22	2699.21
545.58	2706.72
545.94	2713.15
546.29	2719.47
546.65	2725.89
547.01	2731.90
547.36	2737.11
547.72	2742.12
548.07	2746.25
548.43	2750.06
548.79	2753.95
549.14	2757.80
549.50	2761.45
549.86	2764.39
550.21	2767.27
550.57	2770.70
550.92	2771.56
551.28	2772.89
551.64	2774.57
551.99	2776.29
552.35	2777.03
552.70	2778.58
553.06	2779.95
553.41	2781.42
553.77	2782.17
554.13	2782.90
554.48	2783.77
554.84	2784.30
555.19	2784.22
555.55	2783.27
555.90	2782.19
556.26	2780.91
556.61	2779.77
556.97	2777.82
557.32	2776.33
557.68	2773.70
558.03	2770.79
558.39	2768.84
558.74	2768.26
559.10	2766.36
559.45	2763.33
559.81	2760.97
560.16	2757.30
560.52	2754.31
560.87	2751.46
561.23	2747.37
561.58	2744.11
561.94	2739.75
562.29	2735.15
562.64	2731.58
563.00	2728.37
563.35	2725.53
563.71	2723.36
564.06	2720.03
564.42	2717.36
564.77	2714.50
565.12	2711.72
565.48	2708.26
565.83	2705.18
566.19	2701.30
566.54	2696.34
566.89	2691.76
567.25	2687.24
567.60	2683.34
567.96	2678.66
568.31	2673.94
568.66	2669.44
569.02	2664.08
569.37	2658.03
569.72	2652.96
570.08	2647.21
570.43	2641.18
570.78	2634.62
571.14	2627.30
571.49	2620.66
571.84	2614.04
572.20	2606.35
572.55	2599.72
572.90	2592.00
573.26	2583.89
573.61	2575.53
573.96	2567.89
574.31	2559.43
574.67	2550.88
575.02	2541.88
575.37	2533.12
575.72	2523.64
576.08	2516.03
576.43	2506.67
576.78	2498.67
577.13	2490.51
577.49	2482.04
577.84	2473.44
578.19	2465.75
578.54	2458.09
578.90	2450.79
579.25	2442.24
579.60	2433.43
579.95	2423.92
580.30	2416.09
580.66	2408.14
581.01	2399.40
581.36	2390.65
581.71	2382.38
582.06	2373.68
582.42	2365.64
582.77	2356.73
583.12	2347.88
583.47	2339.09
583.82	2331.51
584.17	2322.83
584.53	2314.57
584.88	2306.05
585.23	2297.46
585.58	2288.42
585.93	2279.50
586.28	2270.83
586.63	2262.02
586.98	2253.82
587.34	2246.13
587.69	2237.38
588.04	2228.77
588.39	2220.71
588.74	2212.05
589.09	2204.00
589.44	2195.45
589.79	2187.47
590.14	2180.03
590.49	2172.21
590.84	2163.79
591.19	2156.46
591.54	2148.55
591.89	2138.85
592.25	2130.25
592.60	2121.26
592.95	2112.39
593.30	2102.65
593.65	2092.85
594.00	2084.17
594.35	2077.07
594.70	2068.38
595.05	2060.17
595.40	2051.75
595.75	2042.63
596.10	2034.60
596.45	2026.62
596.80	2019.26
597.15	2011.52
597.50	2003.03
597.85	1995.13
598.19	1987.29
598.54	1978.61
598.89	1970.77
599.24	1964.23
599.59	1957.04
599.94	1950.72
600.29	1943.44
600.64	1936.80
600.99	1929.37
601.34	1922.48
601.69	1913.33
602.04	1905.44
602.39	1897.56
602.74	1889.92
603.08	1883.76
603.43	1877.24
603.78	1869.71
604.13	1862.28
604.48	1854.65
604.83	1848.27
605.18	1841.90
605.53	1834.15
605.87	1826.84
606.22	1819.85
606.57	1812.47
606.92	1804.75
607.27	1796.44
607.62	1788.86
607.96	1781.70
608.31	1775.32
608.66	1767.25
609.01	1759.81
609.36	1752.24
609.70	1744.12
610.05	1736.11
610.40	1727.69
610.75	1719.26
611.10	1711.61
611.44	1702.47
611.79	1693.71
612.14	1684.56
612.49	1674.98
612.83	1666.60
613.18	1657.23
613.53	1648.33
613.88	1638.65
614.22	1630.02
614.57	1621.34
614.92	1612.32
615.27	1603.22
615.61	1594.06
615.96	1585.86
616.31	1577.68
616.65	1569.79
617.00	1561.87
617.35	1553.70
617.70	1545.13
618.04	1536.01
618.39	1526.80
618.74	1518.50
619.08	1509.81
619.43	1501.20
619.78	1493.25
620.12	1484.88
620.47	1477.21
620.82	1468.09
621.16	1459.51
621.51	1450.99
621.85	1442.81
622.20	1434.34
622.55	1426.13
622.89	1417.46
623.24	1408.87
623.59	1400.02
623.93	1391.38
624.28	1382.87
624.62	1374.82
624.97	1366.56
625.32	1359.05
625.66	1351.25
626.01	1343.65
626.35	1336.02
626.70	1328.25
627.04	1320.80
627.39	1313.23
627.73	1305.41
628.08	1298.44
628.43	1290.81
628.77	1283.10
629.12	1275.05
629.46	1268.23
629.81	1260.77
630.15	1253.47
630.50	1245.84
630.84	1238.25
631.19	1230.81
631.53	1223.66
631.88	1215.41
632.22	1207.58
632.57	1200.27
632.91	1193.04
633.26	1185.73
633.60	1178.71
633.95	1171.90
634.29	1164.36
634.64	1157.40
634.98	1149.94
635.32	1142.80
635.67	1136.16
636.01	1129.46
636.36	1122.77
636.70	1115.73
637.05	1108.90
637.39	1102.11
637.73	1095.81
638.08	1090.07
638.42	1083.89
638.77	1077.55
639.11	1071.51
639.45	1065.33
639.80	1058.50
640.14	1051.37
640.49	1044.60
640.83	1037.88
641.17	1031.48
641.52	1024.84
641.86	1017.91
642.20	1011.60
642.55	1004.76
642.89	998.08
643.23	990.85
643.58	984.76
643.92	978.06
644.26	971.37
644.61	965.09
644.95	958.36
645.29	951.41
645.64	944.34
645.98	937.79
646.32	931.66
646.66	925.39
647.01	919.21
647.35	913.45
647.69	906.98
648.04	900.74
648.38	894.06
648.72	887.77
649.06	881.63
649.41	875.54
649.75	869.55
650.09	863.64
650.43	857.90
650.78	851.27
651.12	845.06
651.46	839.09
651.80	833.16
652.14	827.35
652.49	821.26
652.83	815.41
653.17	809.15
653.51	802.90
653.85	797.10
654.20	791.24
654.54	785.08
654.88	779.41
655.22	773.59
655.56	767.79
655.90	762.00
656.25	756.15
656.59	750.39
656.93	744.66
657.27	739.19
657.61	733.62
657.95	728.39
658.29	723.08
658.64	717.80
658.98	712.14
659.32	706.42
659.66	701.28
660.00	695.91
660.34	690.54
660.68	685.19
661.02	679.78
661.36	674.82
661.70	669.95
662.05	665.19
662.39	660.69
662.73	656.19
663.07	651.82
663.41	647.31
663.75	642.70
664.09	638.17
664.43	633.36
664.77	628.86
665.11	624.30
665.45	619.95
665.79	615.64
666.13	611.47
666.47	607.22
666.81	602.95
667.15	598.86
667.49	595.08
667.83	591.22
668.17	587.23
668.51	583.20
668.85	579.27
669.19	575.59
669.53	571.49
669.87	567.54
670.21	563.67
670.55	559.85
670.89	556.48
671.23	553.00
671.57	549.52
671.91	546.00
672.25	542.40
672.58	538.85
672.92	535.34
673.26	531.99
673.60	528.74
673.94	525.41
674.28	522.20
674.62	519.11
674.96	516.02
675.30	512.94
675.64	509.81
675.97	506.68
676.31	503.50
676.65	500.46
676.99	497.63
677.33	494.55
677.67	491.58
678.01	488.37
678.34	485.42
678.68	482.55
679.02	479.66
679.36	476.84
679.70	474.01
680.04	471.39
680.37	468.51
680.71	465.75
681.05	463.07
681.39	460.26
681.73	457.45
682.06	454.84
682.40	452.22
682.74	449.54
683.08	447.06
683.42	444.36
683.75	441.82
684.09	439.15
684.43	436.53
684.77	433.91
685.10	431.34
685.44	428.69
685.78	426.22
686.12	423.93
686.45	421.68
686.79	419.34
687.13	416.99
687.46	414.76
687.80	412.59
688.14	410.18
688.48	408.01
688.81	405.67
689.15	403.26
689.49	400.95
689.82	398.75
690.16	396.26
690.50	393.96
690.83	391.75
691.17	389.41
691.51	387.26
691.84	385.16
692.18	383.23
692.52	381.29
692.85	379.39
693.19	377.32
693.52	375.18
693.86	373.05
694.20	371.05
694.53	369.11
694.87	367.08
695.21	365.24
695.54	363.29
695.88	361.34
696.21	359.51
696.55	357.80
696.88	356.00
697.22	354.33
697.56	352.75
697.89	350.92
698.23	349.26
698.56	347.61
698.90	346.16
699.23	344.43
699.57	342.77
699.90	341.02
700.24	339.34
700.58	337.82
700.91	336.48
701.25	335.13
701.58	333.65
701.92	332.15
702.25	330.63
702.59	329.19
702.92	327.81
703.26	326.52
703.59	325.14
703.93	324.03
704.26	322.67
704.60	321.24
704.93	320.02
705.26	318.74
705.60	317.47
705.93	316.10
706.27	314.85
706.60	313.81
706.94	312.78
707.27	311.56
707.61	310.36
707.94	309.06
708.27	307.60
708.61	306.38
708.94	305.25
709.28	304.17
709.61	303.09
709.94	302.11
710.28	301.00
710.61	299.93
710.95	298.54
711.28	297.67
711.61	296.62
711.95	295.66
712.28	294.62
712.61	293.67
712.95	292.86
713.28	291.95
713.61	290.89
713.95	289.80
714.28	288.90
714.61	287.97
714.95	287.14
715.28	286.22
715.61	285.26
715.95	284.44
716.28	283.43
716.61	282.54
716.95	281.52
717.28	280.58
717.61	279.67
717.94	278.85
718.28	277.85
718.61	277.11
718.94	276.29
719.27	275.58
719.61	274.83
719.94	274.01
720.27	273.17
720.60	272.39
720.94	271.70
721.27	271.01
721.60	270.40
721.93	269.69
722.27	269.14
722.60	268.55
722.93	267.88
723.26	267.41
723.59	266.68
723.93	266.14
724.26	265.69
724.59	265.04
724.92	264.56
725.25	264.09
725.59	263.48
725.92	262.97
726.25	262.41
726.58	261.89
726.91	261.38
727.24	260.88
727.57	260.35
727.91	259.80
728.24	259.33
728.57	258.73
728.90	258.22
729.23	257.67
729.56	257.37
729.89	256.74
730.22	256.17
730.55	255.66
730.89	255.20
731.22	254.58
731.55	254.16
731.88	253.70
732.21	253.20
732.54	252.79
732.87	252.28
733.20	251.80
733.53	251.24
733.86	250.68
734.19	250.21
734.52	249.87
734.85	249.65
735.18	249.22
735.51	248.97
735.84	248.61
736.17	248.33
736.50	247.69
736.83	247.79
737.16	247.37
737.49	247.06
737.82	246.61
738.15	246.27
738.48	245.90
738.81	245.41
739.14	245.02
739.47	244.55
739.80	244.09
740.13	243.73
740.46	243.35
740.79	243.00
741.12	242.67
741.45	242.22
741.78	241.71
742.11	241.37
742.44	240.84
742.77	240.59
743.10	240.15
743.43	239.72
743.75	239.05
744.08	239.20
744.41	238.83
744.74	238.48
745.07	238.11
745.40	237.90
745.73	237.78
746.06	237.49
746.39	237.28
746.71	236.98
747.04	236.62
747.37	236.35
747.70	236.09
748.03	235.80
748.36	235.56
748.68	235.24
749.01	234.97
749.34	234.75
749.67	234.48
750.00	234.27
750.33	234.36
750.65	234.06
750.98	233.37
751.31	233.15
751.64	232.90
751.97	232.83
752.29	232.53
752.62	232.21
752.95	231.88
753.28	231.53
753.60	231.31
753.93	231.28
754.26	231.06
754.59	230.77
754.91	230.52
755.24	230.31
755.57	230.08
755.90	229.90
756.22	229.58
756.55	229.34
756.88	229.05
757.20	228.62
757.53	228.39
757.86	228.15
758.19	228.02
758.51	227.80
758.84	227.40
759.17	227.20
759.49	226.96
759.82	227.02
760.15	226.89
760.47	226.67
760.80	226.32
761.13	226.16
761.45	225.96
761.78	225.88
762.11	225.65
762.43	225.50
762.76	225.21
763.08	225.23
763.41	225.05
763.74	224.95
764.06	224.74
764.39	224.59
764.71	224.49
765.04	224.31
765.37	224.20
765.69	224.13
766.02	223.93
766.34	223.79
766.67	223.55
767.00	223.47
767.32	223.57
767.65	223.62
767.97	223.56
768.30	223.45
768.62	223.28
768.95	223.22
769.27	223.09
769.60	223.09
769.92	222.84
770.25	222.65
770.57	222.41
770.90	222.36
771.22	222.21
771.55	222.12
771.87	221.99
772.20	221.87
772.52	222.04
772.85	222.36
773.17	222.25
773.50	222.08
773.82	221.93
774.15	221.71
774.47	221.45
774.80	221.25
775.12	221.11
775.45	220.99
775.77	220.85
776.09	220.80
776.42	220.65
776.74	220.73
777.07	220.67
777.39	220.65
777.72	220.45
778.04	220.42
778.36	220.27
778.69	220.22
779.01	220.24
779.33	219.83
779.66	219.39
779.98	219.28
780.31	219.24
780.63	219.32
780.95	219.24
781.28	219.16
781.60	219.14
781.92	219.10
782.25	219.00
782.57	218.92
782.89	218.75
783.22	218.67
783.54	218.47
783.86	218.39
784.19	218.24
784.51	218.33
784.83	218.22
785.16	218.14
785.48	218.06
785.80	217.87
786.12	217.89
786.45	217.73
786.77	217.76
787.09	217.68
787.42	217.50
787.74	217.45
788.06	217.38
788.38	217.22
788.71	217.20
789.03	217.17
789.35	217.17
789.67	217.15
789.99	217.12
790.32	217.07
790.64	217.12
790.96	217.37
791.28	217.20
791.61	217.10
791.93	217.09
792.25	216.98
792.57	217.22
792.89	217.00
793.21	217.02
793.54	216.88
793.86	216.83
794.18	216.74
794.50	216.61
794.82	216.63
795.14	216.63
795.47	216.65
795.79	216.64
796.11	216.49
796.43	216.45
796.75	216.36
797.07	216.27
797.39	216.13
797.71	215.92
798.04	215.88
798.36	215.85
798.68	215.84
799.00	215.86
799.32	215.65
799.64	215.80
799.96	215.81
800.28	215.90
800.60	215.77
800.92	215.83
801.24	215.78
801.56	215.75
801.89	215.68
802.21	215.58
802.53	215.39
802.85	215.50
803.17	215.57
803.49	215.48
803.81	215.47
804.13	215.46
804.45	215.44
804.77	215.49
805.09	215.45
805.41	215.32
805.73	215.22
806.05	215.12
806.37	215.02
806.69	214.91
807.01	214.85
807.33	214.90
807.65	214.74
807.97	214.85
808.28	214.78
808.60	214.78
808.92	214.77
809.24	215.04
809.56	214.87
809.88	214.77
810.20	214.81
810.52	214.78
810.84	214.67
811.16	214.52
811.48	214.37
811.80	214.56
812.12	214.52
812.43	214.59
812.75	214.56
813.07	214.51
813.39	214.53
813.71	214.38
814.03	214.28
814.35	214.25
814.67	214.14
814.98	214.00
815.30	213.96
815.62	213.90
815.94	213.63
816.26	213.69
816.58	213.60
816.89	213.60
817.21	213.52
817.53	213.62
817.85	213.63
818.17	213.62
818.48	213.38
818.80	213.49
819.12	213.36
819.44	213.29
819.76	213.21
820.07	213.15
820.39	213.13
820.71	213.12
821.03	213.14
821.34	213.11
821.66	213.21
821.98	213.24
822.30	213.23
822.61	213.40
822.93	213.31
823.25	213.24
823.57	213.14
823.88	213.28
824.20	213.15
824.52	213.21
824.83	213.26
825.15	213.20
825.47	213.16
825.79	213.19
826.10	213.19
826.42	213.19
826.74	213.23
827.05	213.22
827.37	213.20
827.69	213.15
828.00	213.13
828.32	213.07
828.64	212.95
828.95	213.10
829.27	212.98
829.58	212.98
829.90	213.04
830.22	213.01
830.53	212.89
830.85	212.85
831.17	212.72
831.48	212.67
831.80	212.70
832.11	212.70
832.43	212.71
832.75	212.66
833.06	212.77
833.38	212.67
833.69	212.63
834.01	212.65
834.32	212.64
834.64	212.60
834.96	212.60
835.27	212.61
835.59	212.48
835.90	212.35
836.22	212.36
836.53	212.28
836.85	212.30
837.16	212.62
837.48	212.70
837.79	212.80
838.11	212.81
838.42	212.79
838.74	212.84
839.05	212.74
839.37	212.83
839.68	212.72
840.00	212.74
840.31	212.79
840.63	212.75
840.94	212.75
841.26	212.71
841.57	212.76
841.88	212.83
842.20	212.83
842.51	212.91
842.83	212.94
843.14	213.30
843.46	213.34
843.77	213.21
844.08	213.18
844.40	213.08
844.71	213.03
845.03	213.01
845.34	212.96
845.65	213.02
845.97	212.97
846.28	213.01
846.60	213.03
846.91	213.05
847.22	213.08
847.54	213.13
847.85	213.21
848.16	213.20
848.48	213.13
848.79	213.14
849.10	213.13
849.42	213.15
849.73	212.82
850.04	212.74
850.36	212.52
850.67	212.60
850.98	212.59
851.30	212.59
851.61	212.62
851.92	212.63
852.23	212.69
852.55	212.63
852.86	212.59
853.17	212.57
853.49	212.59
853.80	212.65
854.11	212.70
854.42	212.67
854.74	212.56
855.05	212.51
855.36	212.39
855.67	212.36
855.99	212.30
856.30	212.72
856.61	212.77
856.92	212.77
857.23	212.67
857.55	212.65
857.86	212.70
858.17	212.71
858.48	212.60
858.79	212.53
859.11	212.63
859.42	212.60
859.73	212.51
860.04	212.50
860.35	212.37
860.66	212.20
860.98	212.19
861.29	212.28
861.60	212.29
861.91	212.38
862.22	212.39
862.53	212.29
862.84	211.83
863.16	211.89
863.47	211.88
863.78	211.87
864.09	211.92
864.40	211.89
864.71	211.90
865.02	211.95
865.33	211.90
865.64	211.82
865.95	211.84
866.27	212.13
866.58	212.09
866.89	212.09
867.20	212.14
867.51	212.13
867.82	212.08
868.13	212.17
868.44	212.08
868.75	212.12
869.06	212.18
869.37	212.30
869.68	212.19
869.99	212.19
870.30	212.23
870.61	212.30
870.92	212.25
871.23	212.17
871.54	212.21
871.85	212.29
872.16	212.31
872.47	212.32
872.78	212.03
873.09	212.10
873.40	212.10
873.71	212.07
874.02	212.00
874.33	211.99
874.64	211.97
874.95	211.97
875.26	211.91
875.56	211.93
875.87	211.82
876.18	211.79
876.49	212.14
876.80	212.04
877.11	211.94
877.42	211.92
877.73	211.91
878.04	211.87
878.35	211.85
878.66	211.86
878.96	211.82
879.27	211.80
879.58	211.68
879.89	211.69
880.20	211.82
880.51	211.93
880.82	211.95
881.12	211.89
881.43	211.89
881.74	211.79
882.05	211.76
882.36	211.82
882.67	211.85
882.97	211.47
883.28	211.45
883.59	211.38
883.90	211.44
884.21	211.57
884.51	211.60
884.82	211.52
885.13	211.54
885.44	211.54
885.74	211.64
886.05	211.69
886.36	211.66
886.67	211.53
886.98	211.61
887.28	211.67
887.59	211.74
887.90	211.72
888.20	211.76
888.51	211.84
888.82	211.74
889.13	211.77
889.43	212.09
889.74	212.09
890.05	212.10
890.35	212.08
890.66	212.05
890.97	211.94
891.28	211.99
891.58	212.01
891.89	212.00
892.20	211.99
892.50	211.97
892.81	212.01
893.12	211.99
893.42	211.85
893.73	211.78
894.04	211.80
894.34	211.90
894.65	211.91
894.95	211.88
895.26	211.96
895.57	212.17
895.87	211.84
896.18	211.95
896.48	212.01
896.79	212.01
897.10	212.05
897.40	212.19
897.71	212.18
898.01	212.09
898.32	212.20
898.63	212.16
898.93	212.16
899.24	212.14
899.54	212.16
899.85	212.16
900.15	212.19
900.46	212.14
900.76	212.17
901.07	212.14
901.38	212.13
901.68	212.20
901.99	211.97
902.29	211.98
902.60	211.97
902.90	211.95
903.21	211.99
903.51	211.91
903.82	211.89
904.12	211.88
904.43	211.93
904.73	211.87
905.03	211.85
905.34	212.18
905.64	212.17
905.95	212.12
906.25	212.16
906.56	212.12
906.86	212.17
907.17	212.08
907.47	212.12
907.77	212.07
908.08	211.92
908.38	211.94
908.69	212.02
908.99	212.01
909.30	212.00
909.60	211.89
909.90	211.94
910.21	211.87
910.51	211.80
910.81	211.73
911.12	211.73
911.42	211.81
911.73	211.47
912.03	211.46
912.33	211.56
912.64	211.56
912.94	211.55
913.24	211.38
913.55	211.37
913.85	211.34
914.15	211.38
914.46	211.39
914.76	211.38
915.06	211.34
915.37	211.37
915.67	211.40
915.97	211.40
916.27	211.30
916.58	211.30
916.88	211.33
917.18	211.36
917.49	211.54
917.79	211.52
918.09	211.58
918.39	211.66
918.70	211.65
919.00	211.60
919.30	211.76
919.60	211.82
919.91	211.78
920.21	211.83
920.51	211.75
920.81	211.73
921.12	211.74
921.42	211.73
921.72	211.69
922.02	211.67
922.32	211.74
922.63	211.75
922.93	211.85
923.23	211.84
923.53	211.82
923.83	211.61
924.13	211.60
924.44	211.65
924.74	211.72
925.04	211.80
925.34	211.82
925.64	211.65
925.94	211.59
926.24	211.81
926.55	211.75
926.85	211.87
927.15	211.91
927.45	211.94
927.75	212.00
928.05	211.96
928.35	211.95
928.65	211.98
928.95	212.08
929.26	211.99
929.56	212.06
929.86	212.04
930.16	212.05
930.46	211.96
930.76	211.92
931.06	211.74
931.36	211.64
931.66	211.64
931.96	211.64
932.26	211.69
932.56	211.56
932.86	211.59
933.16	211.52
933.46	211.54
933.76	211.45
934.06	211.47
934.36	211.57
934.66	211.56
934.96	211.50
935.26	211.43
935.56	211.52
935.86	211.39
936.16	211.44
936.46	211.40
936.76	211.39
937.06	211.34
937.36	211.37
937.66	211.32
937.96	211.32
938.26	211.35
938.56	211.32
938.86	211.37
939.16	211.46
939.46	211.53
939.76	211.51
940.06	211.51
940.35	211.38
940.65	211.30
940.95	211.36
941.25	211.38
941.55	211.37
941.85	211.33
942.15	211.52
942.45	211.59
942.75	211.56
943.04	211.59
943.34	211.63
943.64	211.62
943.94	211.69
944.24	211.70
944.54	211.70
944.84	211.69
945.13	211.58
945.43	211.49
945.73	211.43
946.03	211.41
946.33	211.41
946.62	211.46
946.92	211.44
947.22	211.46
947.52	211.44
947.82	211.42
948.11	211.36
948.41	211.22
948.71	211.20
949.01	211.30
949.31	211.31
949.60	211.32
949.90	211.34
950.20	211.29
950.50	211.30
950.79	211.27
951.09	211.36
951.39	211.39
951.69	211.39
951.98	211.45
952.28	211.42
952.58	211.45
952.87	211.40
953.17	211.44
953.47	211.35
953.76	211.36
954.06	211.35
954.36	211.35
954.66	211.36
954.95	211.35
955.25	211.33
955.55	211.41
955.84	211.34
956.14	211.41
956.44	211.39
956.73	211.36
957.03	211.40
957.32	211.40
957.62	211.39
957.92	211.46
958.21	211.48
958.51	211.90
958.81	211.94
959.10	212.04
959.40	212.10
959.69	212.15
959.99	212.15
960.29	212.15
960.58	212.09
960.88	212.22
961.17	212.20
961.47	212.21
961.76	212.17
962.06	212.22
962.36	212.15
962.65	212.18
962.95	212.19
963.24	212.08
963.54	212.08
963.83	212.07
964.13	212.05
964.42	211.92
964.72	211.67
965.01	211.63
965.31	211.53
965.60	211.42
965.90	211.59
966.19	211.51
966.49	211.50
966.78	211.50
967.08	211.47
967.37	211.43
967.67	211.36
967.96	211.38
968.26	211.37
968.55	211.42
968.85	211.39
969.14	211.35
969.43	211.35
969.73	211.34
970.02	211.32
970.32	211.28
970.61	211.25
970.91	211.08
971.20	211.08
971.49	211.07
971.79	211.18
972.08	210.91
972.38	211.02
972.67	211.06
972.96	211.10
973.26	211.04
973.55	211.17
973.85	211.25
974.14	211.19
974.43	211.23
974.73	211.20
975.02	211.19
975.31	211.19
975.61	211.23
975.90	211.17
976.19	211.15
976.49	211.16
976.78	211.28
977.07	211.30
977.37	211.35
977.66	211.37
977.95	211.23
978.24	211.32
978.54	211.41
978.83	211.39
979.12	211.39
979.42	211.40
979.71	211.30
980.00	211.23
980.29	211.29
980.59	211.21
980.88	211.25
981.17	211.26
981.46	211.33
981.76	211.40
982.05	211.46
982.34	211.52
982.63	211.57
982.93	211.47
983.22	211.61
983.51	211.56
983.80	211.69
984.09	211.75
984.39	211.73
984.68	211.63
984.97	211.66
985.26	211.62
985.55	211.65
985.85	211.62
986.14	211.61
986.43	211.67
986.72	211.61
987.01	211.53
987.30	211.51
987.59	211.46
987.89	211.37
988.18	211.33
988.47	211.28
988.76	211.20
989.05	211.19
989.34	211.08
989.63	211.09
989.92	210.97
990.22	210.95
990.51	210.88
990.80	210.78
991.09	210.75
991.38	210.78
991.67	210.73
991.96	210.68
992.25	210.67
992.54	210.59
992.83	210.65
993.12	210.62
993.41	210.69
993.70	210.72
993.99	210.83
994.28	210.87
994.58	210.88
994.87	210.88
995.16	210.90
995.45	210.88
995.74	210.79
996.03	210.82
996.32	210.84
996.61	210.97
996.90	210.97
997.19	210.99
997.48	211.06
997.77	210.98
998.06	211.06
998.34	211.05
998.63	211.07
998.92	211.06
999.21	211.18
999.50	211.14
999.79	211.10
1000.08	211.09
1000.37	211.07
1000.66	211.06
1000.95	211.09
1001.24	211.06
1001.53	211.09
1001.82	211.10
1002.11	211.01
1002.40	210.97
1002.68	211.01
1002.97	211.33
1003.26	211.26
1003.55	211.13
1003.84	211.16
1004.13	211.26
1004.42	211.29
1004.71	211.26
1004.99	211.26
1005.28	211.33
1005.57	211.27
1005.86	211.21
1006.15	211.15
1006.44	211.12
1006.72	211.16
1007.01	211.18
1007.30	211.17
1007.59	211.16
1007.88	211.18
1008.17	211.20
1008.45	211.22
1008.74	211.05
1009.03	210.91
1009.32	210.91
1009.60	210.93
1009.89	210.98
1010.18	210.86
1010.47	210.88
1010.76	210.87
1011.04	210.84
1011.33	211.18
1011.62	211.30
1011.91	211.34
1012.19	211.36
1012.48	211.40
1012.77	211.40
1013.05	211.54
1013.34	211.63
1013.63	211.62
1013.92	211.67
1014.20	211.74
1014.49	211.74
1014.78	211.78
1015.06	211.62
1015.35	211.64
1015.64	211.78
1015.92	211.78
1016.21	211.76
1016.50	211.73
1016.78	211.75
1017.07	211.77
1017.36	211.29
1017.64	211.20
1017.93	211.22
1018.22	211.26
1018.50	211.24
1018.79	211.28
1019.08	211.09
1019.36	211.06
1019.65	211.01
1019.93	211.03
1020.22	211.13
1020.51	211.30
1020.79	211.25
1021.08	211.70
1021.36	211.20
1021.65	211.75
1021.94	210.80
1022.22	211.05
1022.51	209.75
1022.79	211.90
1023.08	213.60
1023.36	214.95
1023.65	209.30
>>>>>End Processed Spectral Data<<<<<
