SpectraSuite Data File
++++++++++++++++++++++++++++++++++++
Date: Mon Feb 25 17:00:26 EST 2013
User: group
Dark Spectrum Present: No
Reference Spectrum Present: No
Number of Sampled Component Spectra: 1
Spectrometers: USB2E7196
Integration Time (usec): 104000 (USB2E7196)
Spectra Averaged: 20 (USB2E7196)
Boxcar Smoothing: 10 (USB2E7196)
Correct for Electrical Dark: No (USB2E7196)
Strobe/Lamp Enabled: No (USB2E7196)
Correct for Detector Non-linearity: No (USB2E7196)
Correct for Stray Light: No (USB2E7196)
Number of Pixels in Processed Spectrum: 2048
>>>>>Begin Processed Spectral Data<<<<<
339.09	0.00
339.48	198.05
339.86	199.90
340.24	201.55
340.63	202.00
341.01	209.00
341.39	204.80
341.78	207.20
342.16	208.70
342.54	208.10
342.93	197.87
343.31	207.83
343.69	208.40
344.07	208.82
344.46	209.29
344.84	209.69
345.22	209.71
345.60	210.00
345.99	210.13
346.37	210.13
346.75	210.18
347.13	210.24
347.52	210.21
347.90	210.40
348.28	210.47
348.66	210.54
349.05	210.44
349.43	210.58
349.81	210.65
350.19	210.65
350.57	210.76
350.96	210.74
351.34	210.86
351.72	210.98
352.10	211.11
352.48	211.08
352.87	211.12
353.25	211.26
353.63	211.29
354.01	211.45
354.39	211.65
354.77	211.77
355.15	211.91
355.54	211.96
355.92	211.94
356.30	211.99
356.68	212.31
357.06	212.43
357.44	212.37
357.82	212.44
358.20	212.53
358.58	212.60
358.97	212.69
359.35	212.80
359.73	212.84
360.11	212.91
360.49	212.95
360.87	212.99
361.25	212.99
361.63	213.16
362.01	213.10
362.39	213.14
362.77	213.23
363.15	213.25
363.53	213.35
363.91	213.38
364.29	213.41
364.67	213.10
365.05	213.16
365.43	213.21
365.81	213.23
366.19	213.39
366.57	213.50
366.95	213.54
367.33	213.53
367.71	213.57
368.09	213.64
368.47	213.74
368.85	213.79
369.23	213.91
369.61	213.83
369.99	214.01
370.37	214.01
370.75	214.15
371.13	214.10
371.51	214.02
371.89	214.02
372.27	214.01
372.65	214.04
373.03	214.05
373.41	214.11
373.78	214.06
374.16	213.90
374.54	213.75
374.92	213.66
375.30	213.63
375.68	213.55
376.06	213.48
376.44	213.46
376.82	213.46
377.19	213.37
377.57	213.26
377.95	213.11
378.33	212.99
378.71	212.66
379.09	212.64
379.47	212.62
379.84	212.55
380.22	212.48
380.60	212.28
380.98	212.26
381.36	212.15
381.73	212.00
382.11	211.98
382.49	212.04
382.87	211.98
383.25	211.90
383.62	212.26
384.00	212.14
384.38	212.11
384.76	212.04
385.13	212.13
385.51	212.16
385.89	212.06
386.27	212.09
386.64	212.22
387.02	212.20
387.40	212.13
387.78	212.06
388.15	212.01
388.53	212.08
388.91	211.97
389.29	211.90
389.66	211.94
390.04	211.89
390.42	211.86
390.79	211.85
391.17	211.82
391.55	211.36
391.92	211.38
392.30	211.29
392.68	211.22
393.05	211.17
393.43	211.06
393.81	211.05
394.18	210.98
394.56	210.87
394.94	210.99
395.31	210.99
395.69	211.15
396.06	211.19
396.44	211.20
396.82	211.14
397.19	211.35
397.57	211.31
397.95	211.30
398.32	211.18
398.70	211.27
399.07	211.31
399.45	211.35
399.82	211.35
400.20	211.34
400.58	211.42
400.95	211.36
401.33	211.51
401.70	211.87
402.08	211.93
402.45	212.06
402.83	212.11
403.20	212.20
403.58	212.18
403.95	212.30
404.33	212.46
404.71	212.65
405.08	212.93
405.46	213.17
405.83	213.41
406.21	213.59
406.58	213.77
406.96	213.99
407.33	214.28
407.70	214.62
408.08	215.27
408.45	215.62
408.83	216.03
409.20	216.35
409.58	216.49
409.95	217.02
410.33	217.52
410.70	217.90
411.08	218.46
411.45	219.05
411.82	219.65
412.20	220.33
412.57	221.22
412.95	221.70
413.32	222.52
413.69	223.41
414.07	224.37
414.44	225.31
414.82	226.40
415.19	227.57
415.56	228.74
415.94	229.76
416.31	231.18
416.68	232.49
417.06	234.18
417.43	235.77
417.81	237.58
418.18	239.36
418.55	241.31
418.93	243.28
419.30	245.43
419.67	247.71
420.04	250.08
420.42	252.50
420.79	255.51
421.16	258.39
421.54	261.44
421.91	264.60
422.28	267.86
422.66	271.24
423.03	274.83
423.40	278.42
423.77	282.13
424.15	285.93
424.52	290.05
424.89	294.42
425.26	298.65
425.64	302.63
426.01	307.03
426.38	311.79
426.75	316.68
427.13	321.59
427.50	326.71
427.87	332.09
428.24	337.49
428.61	342.54
428.99	348.35
429.36	354.49
429.73	360.53
430.10	366.65
430.47	372.92
430.85	379.23
431.22	386.16
431.59	393.70
431.96	400.79
432.33	408.63
432.70	416.20
433.08	425.07
433.45	433.45
433.82	441.94
434.19	451.24
434.56	460.56
434.93	469.45
435.30	478.50
435.68	488.38
436.05	498.15
436.42	508.05
436.79	517.07
437.16	526.66
437.53	536.96
437.90	547.05
438.27	557.20
438.64	567.53
439.01	577.21
439.38	585.81
439.75	594.36
440.13	604.17
440.50	613.28
440.87	620.96
441.24	629.08
441.61	637.94
441.98	644.71
442.35	652.27
442.72	659.98
443.09	667.36
443.46	672.01
443.83	675.39
444.20	678.29
444.57	682.30
444.94	684.70
445.31	687.09
445.68	689.69
446.05	691.01
446.42	690.88
446.79	690.57
447.16	690.10
447.53	689.91
447.90	686.58
448.27	683.74
448.64	679.14
449.01	675.96
449.37	669.86
449.74	663.86
450.11	656.90
450.48	649.11
450.85	641.09
451.22	634.35
451.59	627.91
451.96	621.78
452.33	613.17
452.70	605.52
453.07	596.27
453.43	586.75
453.80	577.75
454.17	569.14
454.54	560.79
454.91	551.87
455.28	543.03
455.65	535.10
456.02	527.04
456.38	520.22
456.75	511.57
457.12	504.24
457.49	497.11
457.86	490.05
458.23	484.11
458.59	477.62
458.96	471.03
459.33	465.12
459.70	459.33
460.07	454.92
460.43	449.51
460.80	444.51
461.17	440.10
461.54	435.36
461.91	430.88
462.27	426.38
462.64	422.50
463.01	418.36
463.38	414.30
463.74	409.93
464.11	406.25
464.48	403.01
464.85	399.56
465.21	396.95
465.58	394.06
465.95	390.57
466.32	387.74
466.68	384.97
467.05	382.15
467.42	379.17
467.78	376.11
468.15	373.29
468.52	371.13
468.88	368.24
469.25	365.83
469.62	363.81
469.98	361.50
470.35	359.45
470.72	357.55
471.08	355.38
471.45	353.71
471.82	351.87
472.18	349.85
472.55	348.55
472.92	346.87
473.28	345.32
473.65	343.83
474.02	342.39
474.38	341.19
474.75	340.24
475.11	339.20
475.48	338.27
475.85	337.50
476.21	336.63
476.58	335.99
476.94	335.42
477.31	334.90
477.67	334.43
478.04	333.91
478.41	333.48
478.77	333.45
479.14	332.97
479.50	332.82
479.87	332.85
480.23	332.70
480.60	332.48
480.96	332.38
481.33	332.72
481.69	332.86
482.06	332.96
482.42	332.96
482.79	333.12
483.15	333.43
483.52	333.91
483.88	334.31
484.25	334.65
484.61	335.06
484.98	335.44
485.34	336.18
485.71	336.94
486.07	337.72
486.44	338.15
486.80	338.97
487.17	339.91
487.53	340.95
487.90	342.00
488.26	343.39
488.62	344.79
488.99	345.93
489.35	347.14
489.72	348.48
490.08	350.01
490.44	351.49
490.81	353.11
491.17	354.70
491.54	356.54
491.90	358.27
492.26	360.11
492.63	361.94
492.99	363.78
493.36	365.82
493.72	367.92
494.08	370.15
494.45	372.51
494.81	374.77
495.17	377.06
495.54	379.61
495.90	382.02
496.26	384.39
496.63	386.90
496.99	389.54
497.35	392.15
497.72	394.86
498.08	397.65
498.44	400.43
498.80	403.28
499.17	405.96
499.53	408.95
499.89	412.06
500.26	415.00
500.62	417.78
500.98	420.79
501.34	423.77
501.71	426.67
502.07	429.49
502.43	432.42
502.79	435.15
503.16	437.81
503.52	440.56
503.88	443.28
504.24	446.04
504.60	448.77
504.97	451.50
505.33	454.07
505.69	456.80
506.05	459.40
506.41	461.84
506.78	464.28
507.14	466.51
507.50	468.62
507.86	470.95
508.22	473.30
508.59	475.27
508.95	477.26
509.31	479.45
509.67	481.55
510.03	483.48
510.39	485.51
510.75	487.42
511.12	489.05
511.48	490.83
511.84	492.55
512.20	494.09
512.56	495.75
512.92	497.25
513.28	498.69
513.64	499.90
514.00	501.21
514.37	502.40
514.73	503.67
515.09	504.87
515.45	505.89
515.81	506.96
516.17	507.99
516.53	508.83
516.89	509.53
517.25	510.01
517.61	510.65
517.97	511.25
518.33	511.71
518.69	512.29
519.05	512.80
519.41	513.26
519.77	514.03
520.13	514.29
520.49	514.52
520.85	514.78
521.21	515.25
521.57	515.60
521.93	515.79
522.29	516.15
522.65	516.30
523.01	516.58
523.37	516.55
523.73	516.75
524.09	517.09
524.45	517.33
524.81	517.82
525.17	518.25
525.53	518.73
525.89	519.14
526.25	519.53
526.61	519.75
526.97	520.09
527.33	520.23
527.68	521.01
528.04	521.73
528.40	522.09
528.76	522.59
529.12	523.29
529.48	524.30
529.84	524.98
530.20	525.78
530.56	526.61
530.91	527.79
531.27	528.71
531.63	529.55
531.99	530.66
532.35	531.74
532.71	532.75
533.07	533.90
533.42	535.54
533.78	536.88
534.14	538.27
534.50	539.66
534.86	541.21
535.21	542.37
535.57	543.81
535.93	545.50
536.29	547.29
536.65	548.87
537.00	550.17
537.36	551.76
537.72	553.47
538.08	555.26
538.44	556.84
538.79	558.80
539.15	560.66
539.51	562.51
539.87	564.52
540.22	566.62
540.58	568.79
540.94	570.58
541.29	572.70
541.65	574.76
542.01	576.88
542.37	579.03
542.72	581.35
543.08	583.59
543.44	586.06
543.79	588.10
544.15	590.51
544.51	593.17
544.87	595.68
545.22	598.19
545.58	600.56
545.94	603.05
546.29	605.30
546.65	607.78
547.01	610.18
547.36	612.62
547.72	615.10
548.07	617.44
548.43	619.82
548.79	622.14
549.14	624.67
549.50	627.28
549.86	629.72
550.21	632.23
550.57	634.97
550.92	637.16
551.28	639.78
551.64	642.21
551.99	644.65
552.35	647.16
552.70	649.70
553.06	652.43
553.41	654.97
553.77	657.75
554.13	660.51
554.48	663.29
554.84	666.19
555.19	668.76
555.55	671.48
555.90	674.01
556.26	676.71
556.61	679.01
556.97	681.19
557.32	683.58
557.68	685.79
558.03	687.89
558.39	690.09
558.74	692.26
559.10	694.45
559.45	696.64
559.81	698.98
560.16	701.01
560.52	703.04
560.87	705.37
561.23	707.34
561.58	709.56
561.94	711.46
562.29	713.13
562.64	715.11
563.00	716.99
563.35	718.91
563.71	720.98
564.06	723.05
564.42	725.33
564.77	727.51
565.12	729.77
565.48	732.25
565.83	734.42
566.19	736.61
566.54	738.57
566.89	740.45
567.25	742.48
567.60	744.62
567.96	746.71
568.31	748.73
568.66	750.53
569.02	751.85
569.37	753.24
569.72	754.84
570.08	756.36
570.43	757.68
570.78	758.96
571.14	759.93
571.49	761.21
571.84	762.17
572.20	762.98
572.55	763.69
572.90	763.91
573.26	764.60
573.61	765.00
573.96	765.60
574.31	766.10
574.67	766.14
575.02	766.17
575.37	766.10
575.72	765.86
576.08	765.86
576.43	765.77
576.78	765.93
577.13	765.82
577.49	765.74
577.84	765.45
578.19	765.44
578.54	765.70
578.90	765.71
579.25	765.57
579.60	765.14
579.95	764.62
580.30	764.40
580.66	764.28
581.01	763.99
581.36	763.51
581.71	763.02
582.06	762.77
582.42	762.27
582.77	761.60
583.12	761.01
583.47	760.60
583.82	760.26
584.17	759.77
584.53	759.30
584.88	758.63
585.23	758.22
585.58	757.49
585.93	756.50
586.28	755.77
586.63	754.95
586.98	754.55
587.34	754.32
587.69	753.47
588.04	752.64
588.39	751.95
588.74	750.90
589.09	750.35
589.44	749.16
589.79	748.31
590.14	747.62
590.49	746.74
590.84	745.71
591.19	744.86
591.54	743.85
591.89	742.43
592.25	741.49
592.60	740.07
592.95	738.73
593.30	737.35
593.65	735.87
594.00	734.55
594.35	734.02
594.70	732.35
595.05	731.25
595.40	729.77
595.75	728.04
596.10	726.77
596.45	725.24
596.80	724.01
597.15	722.67
597.50	720.89
597.85	719.51
598.19	717.85
598.54	716.33
598.89	714.85
599.24	713.60
599.59	711.96
599.94	710.77
600.29	709.40
600.64	708.13
600.99	706.64
601.34	705.24
601.69	702.65
602.04	701.03
602.39	699.35
602.74	697.71
603.08	696.50
603.43	695.16
603.78	693.55
604.13	692.10
604.48	690.54
604.83	689.40
605.18	688.03
605.53	686.50
605.87	684.85
606.22	683.23
606.57	681.52
606.92	679.76
607.27	677.82
607.62	676.20
607.96	674.54
608.31	672.97
608.66	671.22
609.01	669.44
609.36	667.75
609.70	665.85
610.05	664.03
610.40	662.14
610.75	660.10
611.10	658.27
611.44	656.00
611.79	653.97
612.14	651.69
612.49	649.40
612.83	647.48
613.18	645.28
613.53	643.15
613.88	640.95
614.22	638.97
614.57	637.00
614.92	634.90
615.27	632.62
615.61	630.35
615.96	628.31
616.31	626.54
616.65	624.51
617.00	622.43
617.35	620.28
617.70	617.96
618.04	615.56
618.39	613.14
618.74	611.15
619.08	608.96
619.43	606.86
619.78	604.86
620.12	602.76
620.47	600.75
620.82	598.52
621.16	596.33
621.51	594.22
621.85	592.12
622.20	589.72
622.55	587.37
622.89	585.04
623.24	582.68
623.59	580.00
623.93	577.74
624.28	575.56
624.62	573.78
624.97	571.83
625.32	569.81
625.66	567.97
626.01	565.76
626.35	563.69
626.70	561.44
627.04	559.33
627.39	557.08
627.73	555.13
628.08	553.20
628.43	551.17
628.77	548.91
629.12	546.60
629.46	544.77
629.81	542.85
630.15	540.90
630.50	538.90
630.84	536.93
631.19	534.99
631.53	533.06
631.88	530.56
632.22	528.27
632.57	526.35
632.91	524.19
633.26	522.39
633.60	520.10
633.95	518.25
634.29	516.17
634.64	514.35
634.98	512.02
635.32	510.02
635.67	508.26
636.01	506.41
636.36	504.48
636.70	502.63
637.05	500.93
637.39	499.09
637.73	497.40
638.08	495.92
638.42	494.10
638.77	492.38
639.11	490.65
639.45	488.87
639.80	486.90
640.14	484.94
640.49	483.03
640.83	481.38
641.17	479.67
641.52	477.58
641.86	475.56
642.20	473.92
642.55	471.83
642.89	469.76
643.23	467.88
643.58	466.32
643.92	464.29
644.26	462.25
644.61	460.40
644.95	458.40
645.29	456.36
645.64	454.48
645.98	452.45
646.32	450.68
646.66	448.69
647.01	446.94
647.35	445.24
647.69	443.16
648.04	441.43
648.38	439.49
648.72	437.82
649.06	436.08
649.41	434.22
649.75	432.63
650.09	431.02
650.43	429.27
650.78	427.24
651.12	425.40
651.46	423.72
651.80	422.05
652.14	420.41
652.49	418.83
652.83	417.12
653.17	415.47
653.51	413.67
653.85	412.13
654.20	410.50
654.54	408.79
654.88	407.19
655.22	405.54
655.56	403.78
655.90	402.14
656.25	400.52
656.59	398.82
656.93	397.10
657.27	395.60
657.61	393.92
657.95	392.36
658.29	390.82
658.64	389.25
658.98	387.48
659.32	385.70
659.66	383.98
660.00	382.26
660.34	380.57
660.68	378.98
661.02	377.40
661.36	375.77
661.70	374.22
662.05	372.79
662.39	371.35
662.73	370.08
663.07	368.85
663.41	367.43
663.75	365.92
664.09	364.48
664.43	362.88
664.77	361.34
665.11	359.92
665.45	358.54
665.79	357.20
666.13	355.87
666.47	354.55
666.81	353.17
667.15	351.81
667.49	350.71
667.83	349.60
668.17	348.28
668.51	347.12
668.85	345.99
669.19	344.91
669.53	343.54
669.87	342.20
670.21	340.87
670.55	339.63
670.89	338.79
671.23	337.77
671.57	336.56
671.91	335.57
672.25	334.56
672.58	333.56
672.92	332.39
673.26	331.26
673.60	330.27
673.94	329.21
674.28	328.31
674.62	327.22
674.96	326.10
675.30	325.14
675.64	324.04
675.97	322.95
676.31	321.88
676.65	320.90
676.99	320.09
677.33	318.96
677.67	318.10
678.01	316.91
678.34	315.95
678.68	315.08
679.02	314.12
679.36	313.08
679.70	312.20
680.04	311.18
680.37	310.42
680.71	309.48
681.05	308.75
681.39	307.81
681.73	306.91
682.06	306.04
682.40	305.20
682.74	304.33
683.08	303.56
683.42	302.61
683.75	301.78
684.09	300.84
684.43	300.11
684.77	299.15
685.10	298.30
685.44	297.38
685.78	296.51
686.12	295.80
686.45	295.00
686.79	294.09
687.13	293.55
687.46	292.72
687.80	291.97
688.14	291.08
688.48	290.44
688.81	289.66
689.15	288.95
689.49	288.19
689.82	287.53
690.16	286.73
690.50	285.98
690.83	285.18
691.17	284.27
691.51	283.45
691.84	282.65
692.18	281.84
692.52	281.19
692.85	280.64
693.19	280.02
693.52	279.30
693.86	278.54
694.20	277.75
694.53	277.11
694.87	276.37
695.21	275.60
695.54	274.83
695.88	274.06
696.21	273.26
696.55	272.62
696.88	271.90
697.22	271.14
697.56	270.60
697.89	270.01
698.23	269.55
698.56	269.00
698.90	268.56
699.23	268.10
699.57	267.43
699.90	266.71
700.24	265.94
700.58	265.39
700.91	264.91
701.25	264.55
701.58	264.07
701.92	263.57
702.25	263.08
702.59	262.55
702.92	262.01
703.26	261.52
703.59	261.03
703.93	260.82
704.26	260.47
704.60	259.92
704.93	259.37
705.26	258.75
705.60	258.27
705.93	257.63
706.27	257.15
706.60	256.79
706.94	256.52
707.27	256.03
707.61	255.56
707.94	255.05
708.27	254.34
708.61	253.70
708.94	253.21
709.28	252.78
709.61	252.29
709.94	251.89
710.28	251.45
710.61	251.02
710.95	250.34
711.28	250.10
711.61	249.72
711.95	249.47
712.28	249.15
712.61	248.82
712.95	248.67
713.28	248.51
713.61	248.14
713.95	247.69
714.28	247.40
714.61	247.03
714.95	246.72
715.28	246.33
715.61	246.05
715.95	245.73
716.28	245.35
716.61	245.02
716.95	244.63
717.28	244.29
717.61	243.86
717.94	243.48
718.28	242.89
718.61	242.55
718.94	242.11
719.27	241.81
719.61	241.45
719.94	240.99
720.27	240.35
720.60	239.94
720.94	239.59
721.27	239.32
721.60	239.06
721.93	238.70
722.27	238.55
722.60	238.28
722.93	237.97
723.26	237.78
723.59	237.50
723.93	237.33
724.26	237.09
724.59	236.85
724.92	236.71
725.25	236.58
725.59	236.29
725.92	236.09
726.25	235.82
726.58	235.58
726.91	235.35
727.24	235.21
727.57	234.95
727.91	234.54
728.24	234.30
728.57	234.07
728.90	233.88
729.23	233.56
729.56	233.53
729.89	233.32
730.22	233.04
730.55	232.82
730.89	232.56
731.22	232.42
731.55	232.26
731.88	232.06
732.21	231.70
732.54	231.50
732.87	231.30
733.20	231.09
733.53	230.91
733.86	230.74
734.19	230.51
734.52	230.35
734.85	230.58
735.18	230.37
735.51	230.27
735.84	230.15
736.17	230.06
736.50	229.74
736.83	229.95
737.16	229.74
737.49	229.65
737.82	229.43
738.15	229.25
738.48	229.05
738.81	228.84
739.14	228.66
739.47	228.47
739.80	228.32
740.13	228.18
740.46	227.91
740.79	227.68
741.12	227.62
741.45	227.43
741.78	227.01
742.11	226.96
742.44	226.72
742.77	226.60
743.10	226.33
743.43	226.07
743.75	225.55
744.08	225.88
744.41	225.60
744.74	225.43
745.07	225.18
745.40	225.10
745.73	225.08
746.06	224.95
746.39	224.79
746.71	224.61
747.04	224.51
747.37	224.34
747.70	224.28
748.03	224.12
748.36	224.04
748.68	223.89
749.01	223.67
749.34	223.52
749.67	223.46
750.00	223.41
750.33	223.60
750.65	223.50
750.98	223.02
751.31	222.94
751.64	222.84
751.97	222.94
752.29	222.81
752.62	222.43
752.95	222.33
753.28	222.23
753.60	222.05
753.93	222.01
754.26	222.00
754.59	221.76
754.91	221.56
755.24	221.49
755.57	221.37
755.90	221.21
756.22	221.04
756.55	220.82
756.88	220.64
757.20	220.28
757.53	220.08
757.86	219.86
758.19	219.76
758.51	219.68
758.84	219.45
759.17	219.24
759.49	219.29
759.82	219.38
760.15	219.25
760.47	219.18
760.80	219.00
761.13	218.95
761.45	218.83
761.78	218.71
762.11	218.58
762.43	218.46
762.76	218.36
763.08	218.40
763.41	218.36
763.74	218.29
764.06	218.19
764.39	218.17
764.71	218.15
765.04	218.08
765.37	218.00
765.69	217.91
766.02	217.89
766.34	217.78
766.67	217.59
767.00	217.69
767.32	217.86
767.65	217.90
767.97	217.84
768.30	217.82
768.62	217.81
768.95	217.74
769.27	217.71
769.60	217.73
769.92	217.56
770.25	217.41
770.57	217.31
770.90	217.25
771.22	217.15
771.55	217.11
771.87	217.06
772.20	217.00
772.52	217.19
772.85	217.65
773.17	217.60
773.50	217.58
773.82	217.42
774.15	217.15
774.47	216.94
774.80	216.88
775.12	216.90
775.45	216.83
775.77	216.81
776.09	216.80
776.42	216.74
776.74	216.87
777.07	216.78
777.39	216.76
777.72	216.76
778.04	216.70
778.36	216.59
778.69	216.63
779.01	216.61
779.33	216.33
779.66	215.71
779.98	215.63
780.31	215.53
780.63	215.61
780.95	215.63
781.28	215.57
781.60	215.50
781.92	215.36
782.25	215.41
782.57	215.35
782.89	215.28
783.22	215.23
783.54	215.11
783.86	215.15
784.19	215.10
784.51	215.08
784.83	215.00
785.16	214.95
785.48	214.80
785.80	214.78
786.12	214.65
786.45	214.77
786.77	214.77
787.09	214.71
787.42	214.55
787.74	214.53
788.06	214.56
788.38	214.51
788.71	214.46
789.03	214.39
789.35	214.33
789.67	214.25
789.99	214.20
790.32	214.11
790.64	214.05
790.96	214.34
791.28	214.29
791.61	214.33
791.93	214.40
792.25	214.35
792.57	214.59
792.89	214.55
793.21	214.50
793.54	214.45
793.86	214.45
794.18	214.46
794.50	214.40
794.82	214.30
795.14	214.32
795.47	214.41
795.79	214.41
796.11	214.33
796.43	214.31
796.75	214.36
797.07	214.39
797.39	214.42
797.71	214.12
798.04	214.08
798.36	214.07
798.68	214.00
799.00	214.08
799.32	213.89
799.64	213.97
799.96	213.96
800.28	214.00
800.60	213.91
800.92	213.89
801.24	213.75
801.56	213.78
801.89	213.67
802.21	213.67
802.53	213.61
802.85	213.72
803.17	213.85
803.49	213.68
803.81	213.58
804.13	213.55
804.45	213.51
804.77	213.52
805.09	213.52
805.41	213.48
805.73	213.39
806.05	213.31
806.37	213.23
806.69	213.20
807.01	213.21
807.33	213.22
807.65	213.19
807.97	213.51
808.28	213.45
808.60	213.48
808.92	213.39
809.24	213.55
809.56	213.48
809.88	213.36
810.20	213.46
810.52	213.52
810.84	213.52
811.16	213.45
811.48	213.37
811.80	213.47
812.12	213.45
812.43	213.46
812.75	213.47
813.07	213.52
813.39	213.48
813.71	213.35
814.03	213.37
814.35	213.37
814.67	213.13
814.98	213.12
815.30	213.08
815.62	213.06
815.94	212.86
816.26	212.89
816.58	212.91
816.89	212.86
817.21	212.74
817.53	212.69
817.85	212.66
818.17	212.73
818.48	212.55
818.80	212.61
819.12	212.60
819.44	212.53
819.76	212.42
820.07	212.40
820.39	212.46
820.71	212.40
821.03	212.38
821.34	212.32
821.66	212.40
821.98	212.48
822.30	212.43
822.61	212.60
822.93	212.51
823.25	212.52
823.57	212.48
823.88	212.63
824.20	212.62
824.52	212.67
824.83	212.69
825.15	212.66
825.47	212.59
825.79	212.54
826.10	212.49
826.42	212.46
826.74	212.52
827.05	212.48
827.37	212.55
827.69	212.48
828.00	212.51
828.32	212.49
828.64	212.43
828.95	212.62
829.27	212.57
829.58	212.55
829.90	212.48
830.22	212.51
830.53	212.40
830.85	212.37
831.17	212.31
831.48	212.22
831.80	212.22
832.11	212.18
832.43	212.14
832.75	212.13
833.06	212.37
833.38	212.25
833.69	212.24
834.01	212.11
834.32	212.15
834.64	212.05
834.96	212.00
835.27	211.91
835.59	211.69
835.90	211.62
836.22	211.58
836.53	211.55
836.85	211.46
837.16	211.77
837.48	211.72
837.79	211.83
838.11	211.84
838.42	211.78
838.74	211.88
839.05	211.95
839.37	211.91
839.68	211.62
840.00	211.67
840.31	211.67
840.63	211.75
840.94	211.61
841.26	211.66
841.57	211.70
841.88	211.70
842.20	211.75
842.51	211.63
842.83	211.67
843.14	211.98
843.46	212.00
843.77	211.76
844.08	211.75
844.40	211.64
844.71	211.62
845.03	211.65
845.34	211.61
845.65	211.57
845.97	211.67
846.28	211.70
846.60	211.73
846.91	211.68
847.22	211.60
847.54	211.72
847.85	211.72
848.16	211.73
848.48	211.75
848.79	211.88
849.10	211.97
849.42	212.03
849.73	211.65
850.04	211.67
850.36	211.54
850.67	211.62
850.98	211.61
851.30	211.67
851.61	211.61
851.92	211.60
852.23	211.66
852.55	211.59
852.86	211.70
853.17	211.72
853.49	211.88
853.80	211.98
854.11	212.08
854.42	212.13
854.74	212.01
855.05	211.98
855.36	211.85
855.67	211.91
855.99	211.84
856.30	212.31
856.61	212.41
856.92	212.46
857.23	212.46
857.55	212.41
857.86	212.32
858.17	212.45
858.48	212.37
858.79	212.33
859.11	212.33
859.42	212.20
859.73	212.06
860.04	211.94
860.35	211.88
860.66	211.69
860.98	211.65
861.29	211.68
861.60	211.68
861.91	211.69
862.22	211.60
862.53	211.54
862.84	211.13
863.16	211.09
863.47	211.04
863.78	211.02
864.09	211.14
864.40	211.20
864.71	211.14
865.02	211.18
865.33	211.06
865.64	211.05
865.95	211.03
866.27	211.34
866.58	211.34
866.89	211.36
867.20	211.31
867.51	211.30
867.82	211.27
868.13	211.37
868.44	211.31
868.75	211.31
869.06	211.40
869.37	211.38
869.68	211.32
869.99	211.45
870.30	211.45
870.61	211.44
870.92	211.34
871.23	211.30
871.54	211.31
871.85	211.44
872.16	211.49
872.47	211.51
872.78	211.21
873.09	211.28
873.40	211.16
873.71	211.17
874.02	211.07
874.33	211.06
874.64	211.00
874.95	211.08
875.26	210.98
875.56	210.89
875.87	210.95
876.18	210.92
876.49	211.11
876.80	211.10
877.11	210.98
877.42	211.06
877.73	211.12
878.04	211.09
878.35	211.09
878.66	211.09
878.96	211.09
879.27	211.18
879.58	211.12
879.89	211.16
880.20	211.32
880.51	211.43
880.82	211.45
881.12	211.44
881.43	211.36
881.74	211.43
882.05	211.41
882.36	211.41
882.67	211.40
882.97	211.10
883.28	211.09
883.59	211.05
883.90	211.10
884.21	211.11
884.51	211.06
884.82	211.04
885.13	211.03
885.44	210.97
885.74	210.86
886.05	210.85
886.36	210.88
886.67	210.74
886.98	210.87
887.28	210.93
887.59	210.96
887.90	210.95
888.20	210.90
888.51	211.05
888.82	210.90
889.13	210.96
889.43	211.26
889.74	211.26
890.05	211.25
890.35	211.13
890.66	211.10
890.97	211.07
891.28	211.01
891.58	211.02
891.89	211.12
892.20	211.14
892.50	211.06
892.81	211.03
893.12	211.07
893.42	210.93
893.73	210.91
894.04	210.91
894.34	210.99
894.65	210.95
894.95	210.86
895.26	210.97
895.57	211.09
895.87	210.80
896.18	210.84
896.48	210.90
896.79	210.90
897.10	210.92
897.40	210.94
897.71	210.99
898.01	210.98
898.32	210.99
898.63	211.02
898.93	211.03
899.24	211.01
899.54	210.96
899.85	210.91
900.15	210.92
900.46	210.87
900.76	210.93
901.07	210.92
901.38	210.88
901.68	210.88
901.99	210.82
902.29	210.82
902.60	210.81
902.90	210.85
903.21	210.84
903.51	210.84
903.82	210.94
904.12	210.95
904.43	211.01
904.73	210.95
905.03	210.97
905.34	211.40
905.64	211.42
905.95	211.48
906.25	211.50
906.56	211.50
906.86	211.44
907.17	211.33
907.47	211.35
907.77	211.39
908.08	211.33
908.38	211.26
908.69	211.29
908.99	211.32
909.30	211.32
909.60	211.36
909.90	211.34
910.21	211.19
910.51	211.11
910.81	211.10
911.12	211.08
911.42	211.04
911.73	210.66
912.03	210.73
912.33	210.76
912.64	210.76
912.94	210.66
913.24	210.70
913.55	210.68
913.85	210.70
914.15	210.70
914.46	210.75
914.76	210.76
915.06	210.65
915.37	210.59
915.67	210.56
915.97	210.60
916.27	210.45
916.58	210.55
916.88	210.57
917.18	210.48
917.49	210.74
917.79	210.77
918.09	210.82
918.39	210.87
918.70	210.86
919.00	210.85
919.30	211.12
919.60	211.10
919.91	211.11
920.21	211.15
920.51	211.18
920.81	211.11
921.12	211.15
921.42	211.23
921.72	211.20
922.02	211.22
922.32	211.28
922.63	211.43
922.93	211.63
923.23	211.60
923.53	211.60
923.83	211.40
924.13	211.38
924.44	211.35
924.74	211.40
925.04	211.51
925.34	211.48
925.64	211.31
925.94	211.35
926.24	211.50
926.55	211.46
926.85	211.43
927.15	211.46
927.45	211.39
927.75	211.35
928.05	211.49
928.35	211.49
928.65	211.55
928.95	211.57
929.26	211.40
929.56	211.50
929.86	211.54
930.16	211.49
930.46	211.45
930.76	211.52
931.06	211.38
931.36	211.25
931.66	211.32
931.96	211.38
932.26	211.36
932.56	211.21
932.86	211.25
933.16	211.31
933.46	211.31
933.76	211.33
934.06	211.41
934.36	211.51
934.66	211.50
934.96	211.46
935.26	211.41
935.56	211.48
935.86	211.39
936.16	211.28
936.46	211.30
936.76	211.32
937.06	211.22
937.36	211.20
937.66	211.20
937.96	211.18
938.26	211.09
938.56	211.08
938.86	211.08
939.16	211.13
939.46	211.10
939.76	211.09
940.06	211.07
940.35	211.04
940.65	210.85
940.95	210.90
941.25	210.81
941.55	210.81
941.85	210.80
942.15	210.89
942.45	211.06
942.75	211.10
943.04	211.15
943.34	211.22
943.64	211.26
943.94	211.23
944.24	211.26
944.54	211.24
944.84	211.20
945.13	211.22
945.43	211.15
945.73	211.14
946.03	211.11
946.33	211.13
946.62	211.02
946.92	211.03
947.22	211.02
947.52	210.99
947.82	211.00
948.11	210.99
948.41	210.90
948.71	210.80
949.01	210.84
949.31	210.82
949.60	210.74
949.90	210.75
950.20	210.78
950.50	210.79
950.79	210.78
951.09	210.84
951.39	210.81
951.69	210.79
951.98	210.84
952.28	210.87
952.58	210.76
952.87	210.80
953.17	210.86
953.47	210.80
953.76	210.77
954.06	210.82
954.36	210.73
954.66	210.73
954.95	210.88
955.25	210.87
955.55	210.87
955.84	210.84
956.14	210.90
956.44	210.87
956.73	210.80
957.03	210.89
957.32	210.95
957.62	210.96
957.92	211.00
958.21	210.94
958.51	211.33
958.81	211.42
959.10	211.42
959.40	211.44
959.69	211.53
959.99	211.63
960.29	211.63
960.58	211.62
960.88	211.75
961.17	211.70
961.47	211.62
961.76	211.62
962.06	211.71
962.36	211.64
962.65	211.69
962.95	211.68
963.24	211.65
963.54	211.58
963.83	211.68
964.13	211.61
964.42	211.58
964.72	211.34
965.01	211.39
965.31	211.41
965.60	211.34
965.90	211.53
966.19	211.49
966.49	211.47
966.78	211.48
967.08	211.46
967.37	211.41
967.67	211.45
967.96	211.44
968.26	211.41
968.55	211.44
968.85	211.41
969.14	211.43
969.43	211.44
969.73	211.50
970.02	211.43
970.32	211.53
970.61	211.49
970.91	211.35
971.20	211.30
971.49	211.20
971.79	211.28
972.08	210.98
972.38	211.02
972.67	210.99
972.96	211.07
973.26	210.96
973.55	211.10
973.85	211.09
974.14	211.15
974.43	211.19
974.73	211.16
975.02	211.11
975.31	211.05
975.61	211.02
975.90	210.94
976.19	210.89
976.49	210.87
976.78	210.96
977.07	210.96
977.37	210.99
977.66	211.03
977.95	210.92
978.24	210.99
978.54	211.00
978.83	210.93
979.12	210.89
979.42	210.89
979.71	210.81
980.00	210.77
980.29	210.71
980.59	210.61
980.88	210.66
981.17	210.71
981.46	210.76
981.76	210.78
982.05	210.86
982.34	210.81
982.63	210.76
982.93	210.71
983.22	210.76
983.51	210.73
983.80	210.77
984.09	210.82
984.39	210.78
984.68	210.72
984.97	210.74
985.26	210.69
985.55	210.67
985.85	210.57
986.14	210.67
986.43	210.74
986.72	210.80
987.01	210.71
987.30	210.70
987.59	210.67
987.89	210.68
988.18	210.63
988.47	210.67
988.76	210.63
989.05	210.61
989.34	210.60
989.63	210.68
989.92	210.66
990.22	210.62
990.51	210.59
990.80	210.60
991.09	210.68
991.38	210.74
991.67	210.73
991.96	210.72
992.25	210.69
992.54	210.62
992.83	210.64
993.12	210.60
993.41	210.62
993.70	210.76
993.99	210.80
994.28	210.84
994.58	210.93
994.87	211.02
995.16	211.06
995.45	211.06
995.74	210.96
996.03	211.10
996.32	211.19
996.61	211.34
996.90	211.31
997.19	211.25
997.48	211.25
997.77	211.17
998.06	211.18
998.34	211.17
998.63	211.13
998.92	211.04
999.21	211.06
999.50	211.07
999.79	210.95
1000.08	210.88
1000.37	210.82
1000.66	210.73
1000.95	210.72
1001.24	210.76
1001.53	210.72
1001.82	210.69
1002.11	210.56
1002.40	210.53
1002.68	210.57
1002.97	210.84
1003.26	210.80
1003.55	210.75
1003.84	210.82
1004.13	211.00
1004.42	210.99
1004.71	211.00
1004.99	211.04
1005.28	211.14
1005.57	211.14
1005.86	211.10
1006.15	211.16
1006.44	211.11
1006.72	211.12
1007.01	211.12
1007.30	211.10
1007.59	211.14
1007.88	211.15
1008.17	211.15
1008.45	211.09
1008.74	210.90
1009.03	210.81
1009.32	210.81
1009.60	210.82
1009.89	210.88
1010.18	210.66
1010.47	210.59
1010.76	210.54
1011.04	210.53
1011.33	210.65
1011.62	210.65
1011.91	210.65
1012.19	210.68
1012.48	210.73
1012.77	210.77
1013.05	210.98
1013.34	210.98
1013.63	210.94
1013.92	211.01
1014.20	211.00
1014.49	211.09
1014.78	211.12
1015.06	210.95
1015.35	210.95
1015.64	210.94
1015.92	210.98
1016.21	211.08
1016.50	211.11
1016.78	211.18
1017.07	211.24
1017.36	211.05
1017.64	210.98
1017.93	211.08
1018.22	211.04
1018.50	211.05
1018.79	211.04
1019.08	210.88
1019.36	210.90
1019.65	210.93
1019.93	210.99
1020.22	211.03
1020.51	211.13
1020.79	211.10
1021.08	211.05
1021.36	210.75
1021.65	211.10
1021.94	212.10
1022.22	211.45
1022.51	211.40
1022.79	212.35
1023.08	211.25
1023.36	214.45
1023.65	209.60
>>>>>End Processed Spectral Data<<<<<
