SpectraSuite Data File
++++++++++++++++++++++++++++++++++++
Date: Mon Feb 25 16:55:45 EST 2013
User: group
Dark Spectrum Present: No
Reference Spectrum Present: No
Number of Sampled Component Spectra: 1
Spectrometers: USB2E7196
Integration Time (usec): 104000 (USB2E7196)
Spectra Averaged: 20 (USB2E7196)
Boxcar Smoothing: 10 (USB2E7196)
Correct for Electrical Dark: No (USB2E7196)
Strobe/Lamp Enabled: No (USB2E7196)
Correct for Detector Non-linearity: No (USB2E7196)
Correct for Stray Light: No (USB2E7196)
Number of Pixels in Processed Spectrum: 2048
>>>>>Begin Processed Spectral Data<<<<<
339.09	0.00
339.48	197.55
339.86	201.35
340.24	200.05
340.63	202.25
341.01	209.85
341.39	205.45
341.78	207.60
342.16	209.55
342.54	208.30
342.93	198.24
343.31	208.28
343.69	208.84
344.07	209.22
344.46	209.73
344.84	210.17
345.22	210.19
345.60	210.46
345.99	210.63
346.37	210.72
346.75	210.83
347.13	210.92
347.52	211.01
347.90	211.09
348.28	211.13
348.66	211.22
349.05	211.11
349.43	211.19
349.81	211.24
350.19	211.15
350.57	211.34
350.96	211.42
351.34	211.50
351.72	211.64
352.10	211.85
352.48	211.88
352.87	211.95
353.25	212.05
353.63	212.07
354.01	212.13
354.39	212.20
354.77	212.34
355.15	212.50
355.54	212.54
355.92	212.57
356.30	212.65
356.68	212.96
357.06	213.07
357.44	213.11
357.82	213.15
358.20	213.33
358.58	213.33
358.97	213.38
359.35	213.57
359.73	213.66
360.11	213.64
360.49	213.75
360.87	213.75
361.25	213.78
361.63	214.06
362.01	214.17
362.39	214.20
362.77	214.34
363.15	214.39
363.53	214.40
363.91	214.43
364.29	214.53
364.67	214.17
365.05	214.22
365.43	214.32
365.81	214.44
366.19	214.60
366.57	214.82
366.95	214.85
367.33	214.73
367.71	214.76
368.09	214.80
368.47	214.86
368.85	214.89
369.23	215.04
369.61	214.81
369.99	214.88
370.37	214.95
370.75	215.05
371.13	214.98
371.51	214.98
371.89	214.93
372.27	214.88
372.65	214.96
373.03	214.98
373.41	214.95
373.78	214.90
374.16	214.74
374.54	214.48
374.92	214.44
375.30	214.39
375.68	214.34
376.06	214.35
376.44	214.20
376.82	214.11
377.19	214.01
377.57	214.01
377.95	213.86
378.33	213.76
378.71	213.46
379.09	213.41
379.47	213.36
379.84	213.36
380.22	213.23
380.60	213.09
380.98	212.94
381.36	212.88
381.73	212.79
382.11	212.73
382.49	212.72
382.87	212.59
383.25	212.60
383.62	212.89
384.00	212.75
384.38	212.72
384.76	212.86
385.13	212.99
385.51	212.91
385.89	212.80
386.27	212.80
386.64	212.86
387.02	212.82
387.40	212.71
387.78	212.73
388.15	212.74
388.53	212.75
388.91	212.77
389.29	212.71
389.66	212.76
390.04	212.74
390.42	212.78
390.79	212.78
391.17	212.75
391.55	212.35
391.92	212.37
392.30	212.40
392.68	212.25
393.05	212.16
393.43	212.18
393.81	212.22
394.18	212.08
394.56	212.04
394.94	212.10
395.31	212.15
395.69	212.24
396.06	212.31
396.44	212.33
396.82	212.30
397.19	212.50
397.57	212.49
397.95	212.55
398.32	212.48
398.70	212.62
399.07	212.73
399.45	212.85
399.82	212.98
400.20	213.03
400.58	213.18
400.95	213.09
401.33	213.30
401.70	213.62
402.08	213.87
402.45	214.01
402.83	214.25
403.20	214.41
403.58	214.58
403.95	214.82
404.33	215.14
404.71	215.43
405.08	215.85
405.46	216.17
405.83	216.55
406.21	216.98
406.58	217.31
406.96	217.65
407.33	218.10
407.70	218.55
408.08	219.38
408.45	219.94
408.83	220.71
409.20	221.29
409.58	221.82
409.95	222.57
410.33	223.40
410.70	224.15
411.08	225.10
411.45	226.01
411.82	226.99
412.20	228.11
412.57	229.64
412.95	230.62
413.32	232.01
413.69	233.46
414.07	234.96
414.44	236.73
414.82	238.54
415.19	240.59
415.56	242.74
415.94	244.76
416.31	247.26
416.68	249.70
417.06	252.57
417.43	255.32
417.81	258.46
418.18	261.72
418.55	265.24
418.93	268.93
419.30	272.77
419.67	276.84
420.04	281.04
420.42	285.25
420.79	290.36
421.16	295.51
421.54	300.87
421.91	306.30
422.28	312.00
422.66	318.10
423.03	324.10
423.40	330.27
423.77	337.07
424.15	343.84
424.52	351.05
424.89	358.71
425.26	366.29
425.64	373.53
426.01	381.44
426.38	389.65
426.75	398.07
427.13	406.87
427.50	416.00
427.87	425.55
428.24	435.25
428.61	444.61
428.99	454.67
429.36	465.67
429.73	476.66
430.10	487.28
430.47	498.49
430.85	510.04
431.22	522.32
431.59	535.19
431.96	547.67
432.33	561.45
432.70	574.88
433.08	590.66
433.45	605.55
433.82	620.61
434.19	637.20
434.56	653.64
434.93	669.46
435.30	685.48
435.68	703.24
436.05	720.72
436.42	738.04
436.79	753.94
437.16	771.24
437.53	789.62
437.90	807.99
438.27	826.09
438.64	844.97
439.01	862.75
439.38	878.51
439.75	894.07
440.13	911.44
440.50	928.01
440.87	941.78
441.24	956.18
441.61	971.84
441.98	983.89
442.35	997.72
442.72	1011.40
443.09	1024.85
443.46	1033.34
443.83	1039.64
444.20	1045.41
444.57	1053.43
444.94	1057.53
445.31	1062.09
445.68	1066.26
446.05	1068.80
446.42	1068.43
446.79	1067.38
447.16	1066.58
447.53	1066.20
447.90	1060.99
448.27	1055.81
448.64	1047.75
449.01	1042.20
449.37	1031.32
449.74	1021.08
450.11	1008.37
450.48	994.60
450.85	980.28
451.22	968.25
451.59	956.57
451.96	945.36
452.33	929.99
452.70	916.50
453.07	899.81
453.43	883.26
453.80	867.10
454.17	851.52
454.54	836.85
454.91	820.80
455.28	805.27
455.65	790.90
456.02	776.15
456.38	763.90
456.75	748.38
457.12	735.79
457.49	723.03
457.86	710.72
458.23	700.15
458.59	688.35
458.96	676.50
459.33	666.16
459.70	655.73
460.07	647.48
460.43	637.89
460.80	628.78
461.17	620.79
461.54	612.37
461.91	604.50
462.27	596.55
462.64	589.83
463.01	582.14
463.38	574.76
463.74	567.56
464.11	561.20
464.48	555.72
464.85	549.57
465.21	544.74
465.58	539.78
465.95	533.71
466.32	528.75
466.68	523.77
467.05	518.74
467.42	513.69
467.78	508.43
468.15	503.56
468.52	500.00
468.88	495.29
469.25	491.16
469.62	487.59
469.98	483.87
470.35	480.38
470.72	477.15
471.08	473.48
471.45	470.45
471.82	467.29
472.18	463.84
472.55	461.32
472.92	458.50
473.28	455.91
473.65	453.50
474.02	451.17
474.38	449.15
474.75	447.50
475.11	445.80
475.48	444.43
475.85	443.24
476.21	441.99
476.58	440.94
476.94	440.23
477.31	439.29
477.67	438.39
478.04	437.74
478.41	437.31
478.77	437.36
479.14	437.01
479.50	436.99
479.87	437.17
480.23	437.35
480.60	437.48
480.96	437.56
481.33	438.31
481.69	438.82
482.06	439.35
482.42	439.60
482.79	440.20
483.15	441.15
483.52	442.38
483.88	443.38
484.25	444.52
484.61	445.61
484.98	447.05
485.34	448.87
485.71	450.74
486.07	452.58
486.44	454.29
486.80	456.45
487.17	458.75
487.53	461.38
487.90	464.07
488.26	467.00
488.62	470.24
488.99	473.18
489.35	476.46
489.72	480.07
490.08	484.00
490.44	487.79
490.81	491.79
491.17	495.68
491.54	500.01
491.90	504.37
492.26	508.90
492.63	513.72
492.99	518.62
493.36	523.84
493.72	529.37
494.08	535.00
494.45	540.86
494.81	546.94
495.17	553.13
495.54	559.59
495.90	566.11
496.26	572.43
496.63	579.32
496.99	586.42
497.35	593.66
497.72	601.25
498.08	608.74
498.44	616.39
498.80	624.69
499.17	632.96
499.53	641.31
499.89	650.00
500.26	658.58
500.62	666.92
500.98	675.74
501.34	684.70
501.71	693.94
502.07	703.12
502.43	712.28
502.79	721.25
503.16	730.50
503.52	739.93
503.88	749.70
504.24	759.31
504.60	769.01
504.97	778.96
505.33	788.42
505.69	798.86
506.05	808.97
506.41	818.76
506.78	828.48
507.14	838.22
507.50	848.12
507.86	858.09
508.22	868.49
508.59	878.22
508.95	888.27
509.31	898.14
509.67	907.96
510.03	917.91
510.39	928.30
510.75	938.37
511.12	948.45
511.48	958.20
511.84	968.10
512.20	977.74
512.56	987.46
512.92	997.45
513.28	1006.84
513.64	1016.37
514.00	1025.83
514.37	1035.07
514.73	1044.77
515.09	1054.18
515.45	1063.27
515.81	1072.18
516.17	1081.10
516.53	1089.57
516.89	1098.21
517.25	1106.68
517.61	1114.78
517.97	1122.75
518.33	1130.35
518.69	1137.89
519.05	1145.90
519.41	1153.62
519.77	1161.49
520.13	1168.50
520.49	1175.30
520.85	1182.09
521.21	1189.11
521.57	1196.14
521.93	1202.62
522.29	1209.46
522.65	1215.87
523.01	1222.32
523.37	1228.11
523.73	1234.32
524.09	1240.45
524.45	1246.20
524.81	1252.19
525.17	1258.36
525.53	1264.46
525.89	1270.39
526.25	1276.09
526.61	1280.89
526.97	1285.72
527.33	1290.70
527.68	1296.08
528.04	1301.15
528.40	1305.75
528.76	1310.18
529.12	1314.85
529.48	1320.01
529.84	1324.07
530.20	1328.26
530.56	1332.49
530.91	1337.41
531.27	1341.89
531.63	1346.14
531.99	1350.24
532.35	1353.82
532.71	1357.24
533.07	1361.07
533.42	1364.93
533.78	1368.70
534.14	1372.89
534.50	1376.23
534.86	1379.74
535.21	1382.73
535.57	1386.34
535.93	1389.88
536.29	1393.05
536.65	1395.94
537.00	1398.52
537.36	1401.06
537.72	1403.70
538.08	1406.01
538.44	1408.24
538.79	1410.59
539.15	1412.96
539.51	1415.45
539.87	1418.45
540.22	1421.10
540.58	1423.69
540.94	1425.85
541.29	1427.71
541.65	1428.75
542.01	1430.92
542.37	1432.53
542.72	1434.27
543.08	1435.65
543.44	1437.49
543.79	1438.58
544.15	1439.82
544.51	1441.44
544.87	1443.29
545.22	1444.92
545.58	1446.52
545.94	1447.40
546.29	1447.90
546.65	1448.30
547.01	1448.77
547.36	1448.80
547.72	1448.96
548.07	1448.38
548.43	1448.33
548.79	1448.02
549.14	1448.54
549.50	1448.50
549.86	1448.42
550.21	1448.28
550.57	1448.32
550.92	1447.73
551.28	1447.61
551.64	1447.23
551.99	1447.07
552.35	1446.59
552.70	1445.72
553.06	1445.28
553.41	1445.07
553.77	1445.22
554.13	1445.12
554.48	1445.00
554.84	1445.39
555.19	1444.97
555.55	1444.59
555.90	1443.75
556.26	1443.23
556.61	1442.50
556.97	1441.78
557.32	1441.35
557.68	1440.14
558.03	1439.00
558.39	1437.83
558.74	1437.13
559.10	1436.45
559.45	1435.27
559.81	1434.42
560.16	1433.10
560.52	1431.93
560.87	1430.99
561.23	1429.45
561.58	1428.38
561.94	1426.79
562.29	1424.71
562.64	1423.67
563.00	1422.72
563.35	1422.08
563.71	1421.47
564.06	1420.67
564.42	1420.12
564.77	1419.34
565.12	1419.20
565.48	1418.66
565.83	1418.20
566.19	1417.60
566.54	1416.31
566.89	1415.29
567.25	1414.38
567.60	1414.11
567.96	1413.54
568.31	1412.77
568.66	1411.68
569.02	1410.04
569.37	1408.56
569.72	1407.44
570.08	1405.95
570.43	1404.10
570.78	1402.25
571.14	1400.07
571.49	1397.85
571.84	1395.42
572.20	1392.67
572.55	1390.27
572.90	1387.55
573.26	1384.67
573.61	1381.77
573.96	1379.08
574.31	1375.92
574.67	1372.43
575.02	1368.78
575.37	1365.00
575.72	1360.68
576.08	1357.50
576.43	1353.97
576.78	1350.70
577.13	1347.34
577.49	1343.99
577.84	1340.76
578.19	1337.54
578.54	1334.70
578.90	1332.11
579.25	1328.93
579.60	1325.43
579.95	1321.39
580.30	1318.00
580.66	1314.90
581.01	1311.04
581.36	1307.26
581.71	1303.69
582.06	1300.19
582.42	1296.62
582.77	1292.47
583.12	1289.04
583.47	1285.24
583.82	1281.92
584.17	1278.15
584.53	1274.44
584.88	1270.20
585.23	1266.24
585.58	1261.74
585.93	1257.60
586.28	1253.16
586.63	1249.09
586.98	1245.10
587.34	1241.58
587.69	1237.60
588.04	1233.38
588.39	1229.72
588.74	1225.51
589.09	1221.76
589.44	1217.50
589.79	1213.78
590.14	1210.32
590.49	1206.58
590.84	1202.25
591.19	1198.65
591.54	1194.71
591.89	1189.92
592.25	1186.27
592.60	1181.64
592.95	1177.49
593.30	1172.77
593.65	1167.96
594.00	1163.14
594.35	1159.84
594.70	1155.26
595.05	1151.03
595.40	1146.77
595.75	1141.90
596.10	1138.08
596.45	1133.71
596.80	1129.79
597.15	1125.28
597.50	1120.57
597.85	1116.09
598.19	1111.87
598.54	1107.12
598.89	1102.70
599.24	1099.17
599.59	1094.57
599.94	1090.80
600.29	1086.70
600.64	1082.52
600.99	1078.20
601.34	1074.42
601.69	1068.97
602.04	1064.55
602.39	1059.92
602.74	1055.56
603.08	1051.79
603.43	1047.66
603.78	1043.20
604.13	1038.71
604.48	1034.68
604.83	1031.21
605.18	1027.38
605.53	1023.23
605.87	1018.89
606.22	1014.90
606.57	1010.09
606.92	1005.66
607.27	1001.07
607.62	996.60
607.96	992.32
608.31	988.54
608.66	984.01
609.01	979.71
609.36	975.20
609.70	970.67
610.05	965.88
610.40	961.13
610.75	956.29
611.10	952.06
611.44	947.08
611.79	942.02
612.14	937.03
612.49	931.79
612.83	927.01
613.18	922.10
613.53	917.06
613.88	912.19
614.22	907.41
614.57	902.53
614.92	897.85
615.27	893.23
615.61	888.35
615.96	883.81
616.31	879.51
616.65	875.38
617.00	871.01
617.35	866.63
617.70	862.06
618.04	857.31
618.39	852.36
618.74	848.13
619.08	843.80
619.43	839.23
619.78	835.22
620.12	830.85
620.47	826.61
620.82	822.15
621.16	817.60
621.51	813.41
621.85	809.31
622.20	804.94
622.55	800.40
622.89	796.03
623.24	791.52
623.59	786.77
623.93	782.35
624.28	778.16
624.62	774.27
624.97	770.13
625.32	765.98
625.66	761.96
626.01	757.86
626.35	753.67
626.70	749.45
627.04	745.01
627.39	741.14
627.73	737.24
628.08	733.58
628.43	729.87
628.77	725.91
629.12	721.69
629.46	717.87
629.81	714.17
630.15	710.34
630.50	706.49
630.84	702.82
631.19	699.09
631.53	695.25
631.88	691.13
632.22	687.42
632.57	684.12
632.91	680.44
633.26	676.85
633.60	673.20
633.95	669.88
634.29	666.52
634.64	663.01
634.98	659.22
635.32	655.52
635.67	652.35
636.01	648.96
636.36	645.80
636.70	642.54
637.05	639.25
637.39	636.09
637.73	632.94
638.08	630.11
638.42	627.10
638.77	624.09
639.11	620.97
639.45	618.02
639.80	614.65
640.14	611.41
640.49	608.38
640.83	605.43
641.17	602.09
641.52	598.89
641.86	595.66
642.20	592.72
642.55	589.52
642.89	586.20
643.23	583.09
643.58	580.10
643.92	577.03
644.26	573.99
644.61	571.03
644.95	568.05
645.29	564.77
645.64	561.62
645.98	558.50
646.32	555.56
646.66	552.41
647.01	549.46
647.35	546.65
647.69	543.47
648.04	540.60
648.38	537.89
648.72	535.10
649.06	532.16
649.41	529.33
649.75	526.62
650.09	524.00
650.43	521.26
650.78	518.44
651.12	515.58
651.46	512.90
651.80	510.13
652.14	507.45
652.49	504.96
652.83	502.21
653.17	499.45
653.51	496.79
653.85	494.27
654.20	491.74
654.54	489.19
654.88	486.67
655.22	483.97
655.56	481.20
655.90	478.47
656.25	475.88
656.59	473.40
656.93	470.88
657.27	468.36
657.61	465.71
657.95	463.20
658.29	460.86
658.64	458.44
658.98	455.90
659.32	453.22
659.66	450.74
660.00	448.39
660.34	446.08
660.68	443.60
661.02	441.03
661.36	438.59
661.70	436.26
662.05	434.08
662.39	432.10
662.73	430.17
663.07	428.20
663.41	426.15
663.75	424.08
664.09	422.00
664.43	419.77
664.77	417.85
665.11	415.74
665.45	413.71
665.79	411.70
666.13	409.79
666.47	407.97
666.81	406.01
667.15	403.92
667.49	402.01
667.83	400.34
668.17	398.58
668.51	396.92
668.85	395.11
669.19	393.53
669.53	391.46
669.87	389.48
670.21	387.72
670.55	385.96
670.89	384.41
671.23	382.89
671.57	381.40
671.91	379.76
672.25	378.30
672.58	376.80
672.92	375.19
673.26	373.66
673.60	372.16
673.94	370.54
674.28	369.09
674.62	367.73
674.96	366.21
675.30	364.77
675.64	363.23
675.97	361.93
676.31	360.33
676.65	359.01
676.99	357.93
677.33	356.43
677.67	355.14
678.01	353.44
678.34	351.97
678.68	350.53
679.02	349.15
679.36	347.80
679.70	346.31
680.04	344.91
680.37	343.47
680.71	342.12
681.05	340.97
681.39	339.76
681.73	338.33
682.06	337.24
682.40	336.12
682.74	334.85
683.08	333.67
683.42	332.40
683.75	331.33
684.09	329.93
684.43	328.82
684.77	327.51
685.10	326.48
685.44	325.27
685.78	324.10
686.12	322.96
686.45	321.72
686.79	320.61
687.13	319.69
687.46	318.65
687.80	317.59
688.14	316.42
688.48	315.39
688.81	314.41
689.15	313.22
689.49	312.10
689.82	311.19
690.16	309.93
690.50	308.84
690.83	307.72
691.17	306.65
691.51	305.56
691.84	304.67
692.18	303.66
692.52	302.73
692.85	301.85
693.19	300.95
693.52	299.99
693.86	298.95
694.20	298.01
694.53	297.06
694.87	296.12
695.21	295.30
695.54	294.30
695.88	293.22
696.21	292.22
696.55	291.26
696.88	290.30
697.22	289.43
697.56	288.71
697.89	287.84
698.23	287.09
698.56	286.23
698.90	285.41
699.23	284.54
699.57	283.70
699.90	282.80
700.24	281.94
700.58	281.13
700.91	280.50
701.25	279.95
701.58	279.25
701.92	278.55
702.25	277.72
702.59	277.02
702.92	276.30
703.26	275.60
703.59	274.90
703.93	274.60
704.26	273.89
704.60	273.15
704.93	272.45
705.26	271.62
705.60	271.10
705.93	270.35
706.27	269.74
706.60	269.21
706.94	268.77
707.27	268.12
707.61	267.59
707.94	266.97
708.27	266.00
708.61	265.26
708.94	264.64
709.28	264.03
709.61	263.36
709.94	262.92
710.28	262.39
710.61	261.95
710.95	261.04
711.28	260.76
711.61	260.16
711.95	259.73
712.28	259.27
712.61	258.73
712.95	258.40
713.28	258.10
713.61	257.53
713.95	256.98
714.28	256.55
714.61	255.99
714.95	255.52
715.28	255.08
715.61	254.70
715.95	254.39
716.28	253.91
716.61	253.55
716.95	253.02
717.28	252.56
717.61	252.05
717.94	251.66
718.28	251.04
718.61	250.77
718.94	250.23
719.27	249.80
719.61	249.39
719.94	248.95
720.27	248.30
720.60	247.91
720.94	247.44
721.27	247.01
721.60	246.73
721.93	246.35
722.27	246.08
722.60	245.75
722.93	245.20
723.26	244.94
723.59	244.62
723.93	244.35
724.26	244.08
724.59	243.73
724.92	243.32
725.25	243.13
725.59	242.69
725.92	242.50
726.25	242.21
726.58	241.95
726.91	241.54
727.24	241.24
727.57	240.96
727.91	240.65
728.24	240.44
728.57	240.15
728.90	239.93
729.23	239.56
729.56	239.44
729.89	239.23
730.22	238.97
730.55	238.73
730.89	238.46
731.22	238.14
731.55	237.89
731.88	237.66
732.21	237.22
732.54	236.99
732.87	236.66
733.20	236.40
733.53	236.15
733.86	235.96
734.19	235.76
734.52	235.59
734.85	235.57
735.18	235.22
735.51	235.05
735.84	234.75
736.17	234.61
736.50	234.15
736.83	234.34
737.16	234.09
737.49	233.77
737.82	233.44
738.15	233.26
738.48	233.02
738.81	232.76
739.14	232.56
739.47	232.31
739.80	232.16
740.13	231.98
740.46	231.69
740.79	231.46
741.12	231.19
741.45	230.85
741.78	230.45
742.11	230.39
742.44	230.09
742.77	229.95
743.10	229.72
743.43	229.53
743.75	229.03
744.08	229.30
744.41	229.04
744.74	228.86
745.07	228.60
745.40	228.44
745.73	228.48
746.06	228.33
746.39	228.19
746.71	227.91
747.04	227.74
747.37	227.57
747.70	227.45
748.03	227.35
748.36	227.22
748.68	227.10
749.01	226.84
749.34	226.70
749.67	226.50
750.00	226.42
750.33	226.51
750.65	226.31
750.98	225.65
751.31	225.53
751.64	225.45
751.97	225.43
752.29	225.23
752.62	224.86
752.95	224.59
753.28	224.39
753.60	224.23
753.93	224.20
754.26	224.03
754.59	223.87
754.91	223.70
755.24	223.56
755.57	223.40
755.90	223.14
756.22	222.96
756.55	222.86
756.88	222.61
757.20	222.27
757.53	222.01
757.86	221.93
758.19	221.87
758.51	221.70
758.84	221.42
759.17	221.33
759.49	221.23
759.82	221.38
760.15	221.33
760.47	221.25
760.80	220.95
761.13	220.97
761.45	220.73
761.78	220.67
762.11	220.60
762.43	220.50
762.76	220.47
763.08	220.38
763.41	220.31
763.74	220.23
764.06	220.19
764.39	220.12
764.71	220.00
765.04	219.80
765.37	219.79
765.69	219.74
766.02	219.61
766.34	219.56
766.67	219.30
767.00	219.27
767.32	219.39
767.65	219.57
767.97	219.39
768.30	219.34
768.62	219.21
768.95	219.07
769.27	219.02
769.60	219.00
769.92	218.94
770.25	218.78
770.57	218.64
770.90	218.50
771.22	218.41
771.55	218.39
771.87	218.43
772.20	218.34
772.52	218.53
772.85	218.89
773.17	218.78
773.50	218.68
773.82	218.60
774.15	218.36
774.47	218.02
774.80	217.95
775.12	217.96
775.45	217.84
775.77	217.83
776.09	217.78
776.42	217.72
776.74	217.71
777.07	217.65
777.39	217.64
777.72	217.59
778.04	217.61
778.36	217.47
778.69	217.40
779.01	217.32
779.33	217.03
779.66	216.61
779.98	216.59
780.31	216.61
780.63	216.67
780.95	216.65
781.28	216.64
781.60	216.64
781.92	216.52
782.25	216.49
782.57	216.39
782.89	216.35
783.22	216.26
783.54	216.14
783.86	216.10
784.19	216.03
784.51	216.05
784.83	215.88
785.16	215.85
785.48	215.79
785.80	215.75
786.12	215.72
786.45	215.70
786.77	215.64
787.09	215.56
787.42	215.34
787.74	215.31
788.06	215.27
788.38	215.21
788.71	215.18
789.03	215.23
789.35	215.24
789.67	215.11
789.99	215.17
790.32	215.12
790.64	215.12
790.96	215.35
791.28	215.23
791.61	215.23
791.93	215.20
792.25	215.16
792.57	215.37
792.89	215.27
793.21	215.22
793.54	215.11
793.86	215.07
794.18	215.06
794.50	214.99
794.82	214.92
795.14	214.90
795.47	214.90
795.79	214.76
796.11	214.66
796.43	214.55
796.75	214.45
797.07	214.39
797.39	214.33
797.71	214.10
798.04	214.08
798.36	214.06
798.68	214.03
799.00	214.06
799.32	213.86
799.64	213.91
799.96	213.92
800.28	214.06
800.60	214.00
800.92	214.04
801.24	214.04
801.56	214.03
801.89	213.98
802.21	213.94
802.53	213.90
802.85	213.94
803.17	214.17
803.49	214.09
803.81	214.06
804.13	213.98
804.45	213.90
804.77	213.90
805.09	213.88
805.41	213.85
805.73	213.70
806.05	213.62
806.37	213.50
806.69	213.43
807.01	213.33
807.33	213.36
807.65	213.16
807.97	213.27
808.28	213.30
808.60	213.23
808.92	213.25
809.24	213.48
809.56	213.38
809.88	213.19
810.20	213.20
810.52	213.21
810.84	213.20
811.16	213.14
811.48	213.05
811.80	213.17
812.12	213.11
812.43	213.11
812.75	213.12
813.07	213.10
813.39	213.09
813.71	213.05
814.03	213.01
814.35	213.06
814.67	212.94
814.98	212.87
815.30	212.94
815.62	212.76
815.94	212.44
816.26	212.43
816.58	212.38
816.89	212.37
817.21	212.33
817.53	212.32
817.85	212.36
818.17	212.38
818.48	212.26
818.80	212.36
819.12	212.37
819.44	212.28
819.76	212.28
820.07	212.17
820.39	212.13
820.71	212.05
821.03	212.05
821.34	212.00
821.66	212.05
821.98	212.02
822.30	212.02
822.61	212.32
822.93	212.30
823.25	212.29
823.57	212.35
823.88	212.46
824.20	212.42
824.52	212.40
824.83	212.38
825.15	212.29
825.47	212.27
825.79	212.29
826.10	212.30
826.42	212.29
826.74	212.38
827.05	212.39
827.37	212.44
827.69	212.39
828.00	212.41
828.32	212.36
828.64	212.32
828.95	212.57
829.27	212.43
829.58	212.48
829.90	212.59
830.22	212.53
830.53	212.39
830.85	212.36
831.17	212.32
831.48	212.32
831.80	212.41
832.11	212.31
832.43	212.28
832.75	212.24
833.06	212.47
833.38	212.35
833.69	212.32
834.01	212.38
834.32	212.49
834.64	212.40
834.96	212.39
835.27	212.37
835.59	212.22
835.90	212.13
836.22	212.08
836.53	211.98
836.85	211.96
837.16	212.35
837.48	212.40
837.79	212.49
838.11	212.52
838.42	212.46
838.74	212.57
839.05	212.52
839.37	212.52
839.68	212.32
840.00	212.43
840.31	212.51
840.63	212.43
840.94	212.29
841.26	212.32
841.57	212.37
841.88	212.44
842.20	212.38
842.51	212.40
842.83	212.44
843.14	212.75
843.46	212.77
843.77	212.52
844.08	212.49
844.40	212.45
844.71	212.41
845.03	212.39
845.34	212.35
845.65	212.38
845.97	212.44
846.28	212.43
846.60	212.31
846.91	212.29
847.22	212.31
847.54	212.44
847.85	212.47
848.16	212.43
848.48	212.45
848.79	212.65
849.10	212.72
849.42	212.82
849.73	212.52
850.04	212.45
850.36	212.32
850.67	212.36
850.98	212.35
851.30	212.41
851.61	212.36
851.92	212.33
852.23	212.39
852.55	212.33
852.86	212.29
853.17	212.46
853.49	212.50
853.80	212.54
854.11	212.52
854.42	212.52
854.74	212.49
855.05	212.47
855.36	212.26
855.67	212.28
855.99	212.16
856.30	212.51
856.61	212.58
856.92	212.63
857.23	212.72
857.55	212.65
857.86	212.55
858.17	212.65
858.48	212.55
858.79	212.55
859.11	212.60
859.42	212.59
859.73	212.43
860.04	212.39
860.35	212.30
860.66	212.24
860.98	212.16
861.29	212.20
861.60	212.11
861.91	212.17
862.22	212.06
862.53	212.05
862.84	211.69
863.16	211.75
863.47	211.70
863.78	211.62
864.09	211.71
864.40	211.76
864.71	211.75
865.02	211.80
865.33	211.71
865.64	211.60
865.95	211.64
866.27	211.91
866.58	211.86
866.89	211.89
867.20	211.84
867.51	211.80
867.82	211.71
868.13	211.76
868.44	211.70
868.75	211.74
869.06	211.71
869.37	211.67
869.68	211.52
869.99	211.55
870.30	211.52
870.61	211.51
870.92	211.45
871.23	211.43
871.54	211.52
871.85	211.58
872.16	211.67
872.47	211.60
872.78	211.35
873.09	211.38
873.40	211.35
873.71	211.43
874.02	211.44
874.33	211.46
874.64	211.44
874.95	211.38
875.26	211.34
875.56	211.35
875.87	211.35
876.18	211.36
876.49	211.61
876.80	211.61
877.11	211.53
877.42	211.57
877.73	211.57
878.04	211.54
878.35	211.55
878.66	211.54
878.96	211.61
879.27	211.60
879.58	211.59
879.89	211.53
880.20	211.59
880.51	211.65
880.82	211.63
881.12	211.67
881.43	211.65
881.74	211.54
882.05	211.55
882.36	211.54
882.67	211.54
882.97	211.24
883.28	211.18
883.59	211.16
883.90	211.14
884.21	211.15
884.51	211.08
884.82	211.03
885.13	211.07
885.44	210.99
885.74	210.96
886.05	210.97
886.36	210.97
886.67	210.85
886.98	211.00
887.28	211.02
887.59	211.00
887.90	211.03
888.20	211.08
888.51	211.10
888.82	211.11
889.13	211.14
889.43	211.36
889.74	211.33
890.05	211.30
890.35	211.27
890.66	211.20
890.97	211.13
891.28	211.10
891.58	210.98
891.89	211.03
892.20	210.98
892.50	210.91
892.81	210.96
893.12	210.98
893.42	210.77
893.73	210.79
894.04	210.81
894.34	210.81
894.65	210.83
894.95	210.83
895.26	210.87
895.57	211.07
895.87	210.83
896.18	210.92
896.48	210.92
896.79	210.97
897.10	211.11
897.40	211.20
897.71	211.22
898.01	211.22
898.32	211.27
898.63	211.32
898.93	211.37
899.24	211.33
899.54	211.28
899.85	211.28
900.15	211.24
900.46	211.20
900.76	211.26
901.07	211.20
901.38	211.18
901.68	211.15
901.99	211.01
902.29	211.09
902.60	211.04
902.90	211.07
903.21	211.02
903.51	210.91
903.82	210.93
904.12	211.00
904.43	211.09
904.73	211.06
905.03	211.11
905.34	211.44
905.64	211.33
905.95	211.34
906.25	211.38
906.56	211.42
906.86	211.45
907.17	211.42
907.47	211.51
907.77	211.43
908.08	211.41
908.38	211.35
908.69	211.26
908.99	211.30
909.30	211.37
909.60	211.37
909.90	211.45
910.21	211.36
910.51	211.25
910.81	211.19
911.12	211.18
911.42	211.24
911.73	210.93
912.03	211.01
912.33	211.05
912.64	211.03
912.94	211.01
913.24	210.96
913.55	210.95
913.85	210.87
914.15	210.94
914.46	211.00
914.76	210.97
915.06	210.96
915.37	210.92
915.67	210.93
915.97	210.94
916.27	210.85
916.58	210.94
916.88	210.97
917.18	211.00
917.49	211.21
917.79	211.22
918.09	211.27
918.39	211.33
918.70	211.30
919.00	211.32
919.30	211.44
919.60	211.50
919.91	211.51
920.21	211.58
920.51	211.51
920.81	211.40
921.12	211.53
921.42	211.50
921.72	211.55
922.02	211.49
922.32	211.53
922.63	211.53
922.93	211.63
923.23	211.68
923.53	211.60
923.83	211.36
924.13	211.30
924.44	211.25
924.74	211.36
925.04	211.46
925.34	211.45
925.64	211.43
925.94	211.39
926.24	211.60
926.55	211.59
926.85	211.64
927.15	211.68
927.45	211.65
927.75	211.63
928.05	211.64
928.35	211.60
928.65	211.69
928.95	211.76
929.26	211.61
929.56	211.64
929.86	211.76
930.16	211.81
930.46	211.77
930.76	211.81
931.06	211.72
931.36	211.60
931.66	211.66
931.96	211.59
932.26	211.63
932.56	211.43
932.86	211.49
933.16	211.51
933.46	211.43
933.76	211.39
934.06	211.53
934.36	211.66
934.66	211.70
934.96	211.61
935.26	211.64
935.56	211.71
935.86	211.56
936.16	211.43
936.46	211.39
936.76	211.37
937.06	211.30
937.36	211.25
937.66	211.32
937.96	211.27
938.26	211.26
938.56	211.21
938.86	211.24
939.16	211.28
939.46	211.31
939.76	211.36
940.06	211.31
940.35	211.25
940.65	211.05
940.95	211.10
941.25	211.06
941.55	210.90
941.85	210.93
942.15	211.16
942.45	211.29
942.75	211.30
943.04	211.39
943.34	211.51
943.64	211.45
943.94	211.36
944.24	211.40
944.54	211.34
944.84	211.29
945.13	211.17
945.43	211.10
945.73	211.10
946.03	211.15
946.33	211.17
946.62	211.14
946.92	211.15
947.22	211.15
947.52	211.14
947.82	211.27
948.11	211.18
948.41	210.96
948.71	210.84
949.01	210.87
949.31	210.81
949.60	210.76
949.90	210.94
950.20	210.95
950.50	210.88
950.79	210.78
951.09	210.89
951.39	210.95
951.69	210.87
951.98	210.94
952.28	210.91
952.58	210.86
952.87	210.84
953.17	210.86
953.47	210.76
953.76	210.80
954.06	210.70
954.36	210.64
954.66	210.67
954.95	210.79
955.25	210.75
955.55	210.71
955.84	210.64
956.14	210.59
956.44	210.63
956.73	210.63
957.03	210.72
957.32	210.70
957.62	210.68
957.92	210.78
958.21	210.69
958.51	211.10
958.81	211.17
959.10	211.23
959.40	211.29
959.69	211.39
959.99	211.39
960.29	211.44
960.58	211.43
960.88	211.55
961.17	211.50
961.47	211.50
961.76	211.55
962.06	211.59
962.36	211.55
962.65	211.58
962.95	211.61
963.24	211.56
963.54	211.61
963.83	211.60
964.13	211.61
964.42	211.51
964.72	211.20
965.01	211.22
965.31	211.16
965.60	211.12
965.90	211.32
966.19	211.22
966.49	211.23
966.78	211.22
967.08	211.26
967.37	211.27
967.67	211.25
967.96	211.25
968.26	211.22
968.55	211.22
968.85	211.18
969.14	211.15
969.43	211.13
969.73	211.05
970.02	211.06
970.32	211.04
970.61	211.12
970.91	211.00
971.20	210.95
971.49	210.92
971.79	210.94
972.08	210.68
972.38	210.69
972.67	210.69
972.96	210.69
973.26	210.58
973.55	210.74
973.85	210.72
974.14	210.65
974.43	210.67
974.73	210.65
975.02	210.60
975.31	210.62
975.61	210.63
975.90	210.64
976.19	210.59
976.49	210.59
976.78	210.58
977.07	210.59
977.37	210.59
977.66	210.64
977.95	210.60
978.24	210.71
978.54	210.81
978.83	210.77
979.12	210.78
979.42	210.78
979.71	210.65
980.00	210.64
980.29	210.72
980.59	210.66
980.88	210.77
981.17	210.77
981.46	210.78
981.76	210.78
982.05	210.84
982.34	210.89
982.63	210.85
982.93	210.79
983.22	210.85
983.51	210.88
983.80	210.90
984.09	210.92
984.39	210.79
984.68	210.73
984.97	210.74
985.26	210.73
985.55	210.76
985.85	210.70
986.14	210.78
986.43	210.87
986.72	210.90
987.01	210.74
987.30	210.76
987.59	210.73
987.89	210.84
988.18	210.76
988.47	210.72
988.76	210.70
989.05	210.73
989.34	210.78
989.63	210.91
989.92	210.82
990.22	210.81
990.51	210.85
990.80	210.85
991.09	210.90
991.38	210.99
991.67	210.94
991.96	210.94
992.25	210.90
992.54	210.82
992.83	210.80
993.12	210.79
993.41	210.84
993.70	211.01
993.99	211.04
994.28	211.02
994.58	211.07
994.87	211.10
995.16	211.12
995.45	211.11
995.74	210.96
996.03	211.08
996.32	211.12
996.61	211.19
996.90	211.22
997.19	211.15
997.48	211.19
997.77	211.15
998.06	211.18
998.34	211.18
998.63	211.11
998.92	211.08
999.21	211.07
999.50	211.07
999.79	210.94
1000.08	210.85
1000.37	210.91
1000.66	210.86
1000.95	210.86
1001.24	210.87
1001.53	210.88
1001.82	210.89
1002.11	210.78
1002.40	210.84
1002.68	210.93
1002.97	211.16
1003.26	211.15
1003.55	211.02
1003.84	211.12
1004.13	211.24
1004.42	211.20
1004.71	211.25
1004.99	211.27
1005.28	211.46
1005.57	211.46
1005.86	211.40
1006.15	211.43
1006.44	211.40
1006.72	211.50
1007.01	211.47
1007.30	211.51
1007.59	211.46
1007.88	211.37
1008.17	211.41
1008.45	211.34
1008.74	211.16
1009.03	210.96
1009.32	210.95
1009.60	210.98
1009.89	210.86
1010.18	210.66
1010.47	210.62
1010.76	210.56
1011.04	210.65
1011.33	210.60
1011.62	210.58
1011.91	210.62
1012.19	210.61
1012.48	210.60
1012.77	210.55
1013.05	210.69
1013.34	210.59
1013.63	210.62
1013.92	210.76
1014.20	210.75
1014.49	210.76
1014.78	210.84
1015.06	210.74
1015.35	210.74
1015.64	210.81
1015.92	210.97
1016.21	211.03
1016.50	211.09
1016.78	211.14
1017.07	211.07
1017.36	211.05
1017.64	211.06
1017.93	211.08
1018.22	211.10
1018.50	211.08
1018.79	211.09
1019.08	210.96
1019.36	211.01
1019.65	210.97
1019.93	210.95
1020.22	211.03
1020.51	211.16
1020.79	211.14
1021.08	211.25
1021.36	210.10
1021.65	211.25
1021.94	210.65
1022.22	210.80
1022.51	210.85
1022.79	211.65
1023.08	212.00
1023.36	214.35
1023.65	210.85
>>>>>End Processed Spectral Data<<<<<
