SpectraSuite Data File
++++++++++++++++++++++++++++++++++++
Date: Mon Feb 25 17:04:20 EST 2013
User: group
Dark Spectrum Present: No
Reference Spectrum Present: No
Number of Sampled Component Spectra: 1
Spectrometers: USB2E7196
Integration Time (usec): 104000 (USB2E7196)
Spectra Averaged: 20 (USB2E7196)
Boxcar Smoothing: 10 (USB2E7196)
Correct for Electrical Dark: No (USB2E7196)
Strobe/Lamp Enabled: No (USB2E7196)
Correct for Detector Non-linearity: No (USB2E7196)
Correct for Stray Light: No (USB2E7196)
Number of Pixels in Processed Spectrum: 2048
>>>>>Begin Processed Spectral Data<<<<<
339.09	0.00
339.48	198.15
339.86	200.15
340.24	201.45
340.63	203.05
341.01	209.05
341.39	205.35
341.78	208.65
342.16	209.05
342.54	209.00
342.93	198.21
343.31	208.22
343.69	208.77
344.07	209.20
344.46	209.56
344.84	209.91
345.22	209.91
345.60	210.20
345.99	210.28
346.37	210.36
346.75	210.40
347.13	210.45
347.52	210.44
347.90	210.51
348.28	210.51
348.66	210.55
349.05	210.43
349.43	210.47
349.81	210.52
350.19	210.55
350.57	210.56
350.96	210.64
351.34	210.73
351.72	210.80
352.10	210.91
352.48	211.00
352.87	210.97
353.25	211.07
353.63	211.07
354.01	211.12
354.39	211.20
354.77	211.33
355.15	211.46
355.54	211.51
355.92	211.47
356.30	211.46
356.68	211.77
357.06	211.86
357.44	211.86
357.82	211.85
358.20	212.00
358.58	212.02
358.97	212.05
359.35	212.20
359.73	212.30
360.11	212.35
360.49	212.37
360.87	212.49
361.25	212.58
361.63	212.68
362.01	212.71
362.39	212.76
362.77	212.79
363.15	212.80
363.53	212.85
363.91	212.86
364.29	212.94
364.67	212.65
365.05	212.65
365.43	212.70
365.81	212.80
366.19	213.04
366.57	213.28
366.95	213.24
367.33	213.18
367.71	213.17
368.09	213.23
368.47	213.31
368.85	213.32
369.23	213.47
369.61	213.37
369.99	213.54
370.37	213.51
370.75	213.68
371.13	213.62
371.51	213.52
371.89	213.60
372.27	213.61
372.65	213.62
373.03	213.61
373.41	213.60
373.78	213.55
374.16	213.29
374.54	213.11
374.92	213.14
375.30	213.08
375.68	213.03
376.06	213.08
376.44	212.95
376.82	212.94
377.19	212.77
377.57	212.71
377.95	212.50
378.33	212.47
378.71	212.17
379.09	212.11
379.47	212.22
379.84	212.11
380.22	212.08
380.60	211.95
380.98	211.95
381.36	211.86
381.73	211.75
382.11	211.71
382.49	211.70
382.87	211.60
383.25	211.55
383.62	211.85
384.00	211.62
384.38	211.65
384.76	211.70
385.13	211.76
385.51	211.83
385.89	211.75
386.27	211.74
386.64	211.74
387.02	211.66
387.40	211.45
387.78	211.48
388.15	211.44
388.53	211.41
388.91	211.37
389.29	211.38
389.66	211.32
390.04	211.25
390.42	211.27
390.79	211.26
391.17	211.21
391.55	210.84
391.92	210.78
392.30	210.74
392.68	210.52
393.05	210.51
393.43	210.43
393.81	210.44
394.18	210.36
394.56	210.38
394.94	210.49
395.31	210.50
395.69	210.50
396.06	210.50
396.44	210.53
396.82	210.43
397.19	210.51
397.57	210.50
397.95	210.51
398.32	210.41
398.70	210.45
399.07	210.54
399.45	210.54
399.82	210.60
400.20	210.61
400.58	210.69
400.95	210.50
401.33	210.61
401.70	210.90
402.08	210.91
402.45	210.92
402.83	211.00
403.20	211.10
403.58	211.17
403.95	211.31
404.33	211.44
404.71	211.55
405.08	211.83
405.46	211.98
405.83	212.16
406.21	212.31
406.58	212.46
406.96	212.57
407.33	212.69
407.70	212.86
408.08	213.38
408.45	213.62
408.83	213.96
409.20	214.09
409.58	214.14
409.95	214.60
410.33	214.91
410.70	215.17
411.08	215.54
411.45	215.89
411.82	216.16
412.20	216.55
412.57	217.21
412.95	217.36
413.32	217.89
413.69	218.45
414.07	218.97
414.44	219.64
414.82	220.25
415.19	221.06
415.56	221.87
415.94	222.49
416.31	223.40
416.68	224.28
417.06	225.32
417.43	226.31
417.81	227.28
418.18	228.37
418.55	229.59
418.93	230.86
419.30	232.18
419.67	233.65
420.04	235.09
420.42	236.57
420.79	238.62
421.16	240.44
421.54	242.40
421.91	244.37
422.28	246.31
422.66	248.35
423.03	250.61
423.40	252.74
423.77	254.96
424.15	257.25
424.52	259.70
424.89	262.44
425.26	265.06
425.64	267.59
426.01	270.36
426.38	273.28
426.75	276.20
427.13	279.15
427.50	282.20
427.87	285.50
428.24	288.68
428.61	291.73
428.99	295.23
429.36	298.90
429.73	302.61
430.10	306.24
430.47	310.21
430.85	314.15
431.22	318.37
431.59	322.96
431.96	327.25
432.33	331.95
432.70	336.49
433.08	341.77
433.45	346.89
433.82	352.02
434.19	357.66
434.56	363.25
434.93	368.65
435.30	374.01
435.68	379.95
436.05	385.86
436.42	391.67
436.79	397.08
437.16	402.87
437.53	409.04
437.90	415.24
438.27	421.16
438.64	427.33
439.01	433.26
439.38	438.36
439.75	443.59
440.13	449.41
440.50	454.98
440.87	459.59
441.24	464.32
441.61	469.49
441.98	473.38
442.35	477.84
442.72	482.48
443.09	487.10
443.46	489.87
443.83	491.83
444.20	493.63
444.57	496.04
444.94	497.42
445.31	498.79
445.68	500.39
446.05	501.31
446.42	501.01
446.79	500.66
447.16	500.36
447.53	500.07
447.90	498.17
448.27	496.21
448.64	493.47
449.01	491.51
449.37	487.87
449.74	484.37
450.11	480.37
450.48	475.61
450.85	470.59
451.22	466.47
451.59	462.61
451.96	458.81
452.33	453.58
452.70	448.95
453.07	443.26
453.43	437.27
453.80	431.79
454.17	426.49
454.54	421.40
454.91	415.81
455.28	410.51
455.65	405.60
456.02	400.90
456.38	396.57
456.75	391.25
457.12	386.86
457.49	382.40
457.86	377.92
458.23	374.35
458.59	370.36
458.96	366.40
459.33	362.87
459.70	359.25
460.07	356.49
460.43	353.17
460.80	350.15
461.17	347.53
461.54	344.61
461.91	341.95
462.27	339.24
462.64	336.97
463.01	334.37
463.38	331.90
463.74	329.12
464.11	326.96
464.48	325.03
464.85	322.78
465.21	321.24
465.58	319.45
465.95	317.21
466.32	315.50
466.68	313.86
467.05	312.05
467.42	310.34
467.78	308.37
468.15	306.63
468.52	305.40
468.88	303.65
469.25	302.21
469.62	300.96
469.98	299.57
470.35	298.30
470.72	297.21
471.08	295.94
471.45	294.93
471.82	293.90
472.18	292.74
472.55	291.99
472.92	290.91
473.28	290.03
473.65	289.12
474.02	288.40
474.38	287.62
474.75	287.01
475.11	286.26
475.48	285.83
475.85	285.39
476.21	284.82
476.58	284.39
476.94	283.95
477.31	283.50
477.67	283.18
478.04	282.92
478.41	282.67
478.77	282.61
479.14	282.32
479.50	282.10
479.87	281.99
480.23	281.89
480.60	281.65
480.96	281.58
481.33	281.84
481.69	281.81
482.06	281.72
482.42	281.70
482.79	281.78
483.15	281.92
483.52	282.18
483.88	282.27
484.25	282.42
484.61	282.63
484.98	282.91
485.34	283.23
485.71	283.51
486.07	283.80
486.44	283.90
486.80	284.32
487.17	284.79
487.53	285.40
487.90	285.94
488.26	286.74
488.62	287.40
488.99	287.89
489.35	288.40
489.72	289.08
490.08	289.77
490.44	290.53
490.81	291.34
491.17	292.00
491.54	292.94
491.90	293.80
492.26	294.68
492.63	295.62
492.99	296.42
493.36	297.50
493.72	298.62
494.08	299.79
494.45	300.95
494.81	302.22
495.17	303.29
495.54	304.53
495.90	305.67
496.26	306.90
496.63	308.20
496.99	309.50
497.35	310.87
497.72	312.32
498.08	313.74
498.44	315.04
498.80	316.41
499.17	317.78
499.53	319.29
499.89	320.80
500.26	322.18
500.62	323.65
500.98	325.04
501.34	326.33
501.71	327.73
502.07	329.04
502.43	330.25
502.79	331.50
503.16	332.68
503.52	333.86
503.88	334.96
504.24	336.02
504.60	337.27
504.97	338.50
505.33	339.51
505.69	340.75
506.05	341.86
506.41	342.89
506.78	343.92
507.14	344.75
507.50	345.70
507.86	346.60
508.22	347.53
508.59	348.30
508.95	349.15
509.31	350.05
509.67	350.89
510.03	351.63
510.39	352.39
510.75	353.01
511.12	353.73
511.48	354.44
511.84	355.17
512.20	355.80
512.56	356.28
512.92	356.98
513.28	357.39
513.64	357.86
514.00	358.39
514.37	358.88
514.73	359.42
515.09	359.89
515.45	360.22
515.81	360.52
516.17	360.92
516.53	361.22
516.89	361.38
517.25	361.59
517.61	361.94
517.97	362.27
518.33	362.71
518.69	363.03
519.05	363.40
519.41	363.84
519.77	364.33
520.13	364.71
520.49	364.91
520.85	365.23
521.21	365.66
521.57	366.18
521.93	366.46
522.29	366.92
522.65	367.18
523.01	367.86
523.37	368.37
523.73	368.94
524.09	369.54
524.45	370.10
524.81	370.82
525.17	371.63
525.53	372.45
525.89	373.27
526.25	374.12
526.61	374.80
526.97	375.58
527.33	376.41
527.68	377.68
528.04	378.72
528.40	379.79
528.76	380.96
529.12	382.02
529.48	383.36
529.84	384.45
530.20	385.87
530.56	387.15
530.91	388.64
531.27	390.13
531.63	391.77
531.99	393.38
532.35	394.88
532.71	396.47
533.07	398.07
533.42	400.13
533.78	401.85
534.14	403.66
534.50	405.44
534.86	407.40
535.21	409.02
535.57	411.05
535.93	412.91
536.29	415.09
536.65	417.16
537.00	419.23
537.36	421.46
537.72	423.54
538.08	425.71
538.44	427.78
538.79	430.11
539.15	432.33
539.51	434.77
539.87	437.32
540.22	439.68
540.58	442.19
540.94	444.44
541.29	446.93
541.65	449.48
542.01	452.07
542.37	454.56
542.72	457.11
543.08	459.64
543.44	462.45
543.79	464.86
544.15	467.58
544.51	470.46
544.87	473.20
545.22	476.03
545.58	478.72
545.94	481.72
546.29	484.30
546.65	486.90
547.01	489.49
547.36	492.19
547.72	494.90
548.07	497.68
548.43	500.07
548.79	502.86
549.14	505.48
549.50	508.24
549.86	510.85
550.21	513.55
550.57	516.30
550.92	518.80
551.28	521.39
551.64	523.89
551.99	526.31
552.35	528.67
552.70	531.08
553.06	533.68
553.41	535.97
553.77	538.58
554.13	541.18
554.48	543.86
554.84	546.41
555.19	548.78
555.55	551.40
555.90	553.86
556.26	555.98
556.61	558.45
556.97	560.48
557.32	562.84
557.68	564.98
558.03	567.15
558.39	569.31
558.74	571.67
559.10	574.03
559.45	576.16
559.81	578.55
560.16	580.60
560.52	582.69
560.87	584.82
561.23	586.66
561.58	588.89
561.94	590.61
562.29	592.44
562.64	594.50
563.00	596.17
563.35	598.19
563.71	600.21
564.06	602.12
564.42	604.13
564.77	605.99
565.12	607.99
565.48	610.29
565.83	612.19
566.19	613.91
566.54	615.26
566.89	617.04
567.25	618.85
567.60	620.71
567.96	622.50
568.31	624.31
568.66	626.02
569.02	627.13
569.37	628.40
569.72	629.59
570.08	630.87
570.43	631.96
570.78	632.84
571.14	633.76
571.49	634.51
571.84	635.42
572.20	636.00
572.55	636.79
572.90	636.90
573.26	637.47
573.61	637.87
573.96	638.57
574.31	638.87
574.67	638.84
575.02	639.02
575.37	639.07
575.72	638.91
576.08	639.08
576.43	639.20
576.78	639.42
577.13	639.54
577.49	639.79
577.84	639.79
578.19	639.99
578.54	640.38
578.90	640.74
579.25	640.75
579.60	640.84
579.95	640.58
580.30	640.65
580.66	640.82
581.01	640.64
581.36	640.52
581.71	640.48
582.06	640.58
582.42	640.47
582.77	640.20
583.12	640.23
583.47	640.09
583.82	640.20
584.17	640.10
584.53	640.20
584.88	639.71
585.23	639.84
585.58	639.80
585.93	639.40
586.28	639.19
586.63	638.82
586.98	638.64
587.34	638.76
587.69	638.34
588.04	637.81
588.39	637.68
588.74	637.35
589.09	636.99
589.44	636.55
589.79	636.09
590.14	635.65
590.49	635.11
590.84	634.44
591.19	634.04
591.54	633.63
591.89	632.61
592.25	632.28
592.60	631.37
592.95	630.47
593.30	629.57
593.65	628.56
594.00	627.69
594.35	627.97
594.70	626.83
595.05	626.10
595.40	625.21
595.75	624.16
596.10	623.34
596.45	622.55
596.80	621.89
597.15	621.26
597.50	620.34
597.85	619.66
598.19	618.87
598.54	617.85
598.89	616.96
599.24	616.49
599.59	615.55
599.94	614.77
600.29	614.01
600.64	613.15
600.99	612.36
601.34	611.86
601.69	609.93
602.04	609.04
602.39	608.14
602.74	607.47
603.08	607.02
603.43	606.51
603.78	605.60
604.13	604.62
604.48	603.65
604.83	603.07
605.18	602.39
605.53	601.57
605.87	600.63
606.22	599.75
606.57	598.77
606.92	597.61
607.27	596.68
607.62	595.70
607.96	594.90
608.31	594.09
608.66	592.93
609.01	591.75
609.36	590.70
609.70	589.64
610.05	588.35
610.40	587.12
610.75	585.49
611.10	584.43
611.44	583.01
611.79	581.54
612.14	580.11
612.49	578.34
612.83	577.11
613.18	575.54
613.53	573.99
613.88	572.34
614.22	570.94
614.57	569.28
614.92	567.78
615.27	566.39
615.61	564.75
615.96	563.38
616.31	561.95
616.65	560.70
617.00	559.25
617.35	557.66
617.70	555.96
618.04	554.43
618.39	552.52
618.74	551.11
619.08	549.62
619.43	547.96
619.78	546.49
620.12	544.71
620.47	543.28
620.82	541.54
621.16	539.80
621.51	538.27
621.85	536.74
622.20	535.02
622.55	533.07
622.89	531.16
623.24	529.44
623.59	527.89
623.93	526.14
624.28	524.68
624.62	523.46
624.97	521.82
625.32	520.25
625.66	518.73
626.01	517.06
626.35	515.46
626.70	513.96
627.04	512.45
627.39	510.83
627.73	509.36
628.08	507.94
628.43	506.51
628.77	504.79
629.12	503.16
629.46	501.75
629.81	500.28
630.15	498.98
630.50	497.35
630.84	495.63
631.19	493.99
631.53	492.16
631.88	490.13
632.22	488.45
632.57	486.98
632.91	485.40
633.26	483.88
633.60	482.32
633.95	480.80
634.29	479.06
634.64	477.59
634.98	475.81
635.32	474.24
635.67	472.80
636.01	471.25
636.36	469.74
636.70	468.18
637.05	466.69
637.39	465.21
637.73	463.68
638.08	462.52
638.42	461.05
638.77	459.79
639.11	458.40
639.45	456.88
639.80	455.25
640.14	453.62
640.49	451.96
640.83	450.46
641.17	449.01
641.52	447.49
641.86	445.89
642.20	444.37
642.55	442.76
642.89	441.22
643.23	439.66
643.58	438.30
643.92	436.68
644.26	435.07
644.61	433.42
644.95	431.81
645.29	430.02
645.64	428.54
645.98	426.86
646.32	425.40
646.66	423.80
647.01	422.14
647.35	420.68
647.69	419.22
648.04	417.65
648.38	415.99
648.72	414.49
649.06	412.84
649.41	411.32
649.75	409.75
650.09	408.20
650.43	406.72
650.78	405.04
651.12	403.41
651.46	401.88
651.80	400.34
652.14	398.92
652.49	397.42
652.83	395.83
653.17	394.23
653.51	392.61
653.85	391.23
654.20	389.89
654.54	388.38
654.88	386.88
655.22	385.48
655.56	383.93
655.90	382.39
656.25	380.96
656.59	379.50
656.93	378.08
657.27	376.67
657.61	375.21
657.95	373.74
658.29	372.36
658.64	371.15
658.98	369.70
659.32	368.22
659.66	366.87
660.00	365.45
660.34	364.03
660.68	362.52
661.02	361.14
661.36	359.80
661.70	358.46
662.05	357.12
662.39	355.90
662.73	354.72
663.07	353.77
663.41	352.53
663.75	351.23
664.09	349.98
664.43	348.61
664.77	347.34
665.11	346.08
665.45	344.94
665.79	343.65
666.13	342.54
666.47	341.37
666.81	340.14
667.15	338.93
667.49	337.88
667.83	336.99
668.17	335.81
668.51	334.65
668.85	333.55
669.19	332.61
669.53	331.40
669.87	330.13
670.21	328.81
670.55	327.72
670.89	326.94
671.23	325.98
671.57	325.04
671.91	324.09
672.25	323.10
672.58	322.24
672.92	321.19
673.26	320.16
673.60	319.27
673.94	318.38
674.28	317.40
674.62	316.54
674.96	315.56
675.30	314.69
675.64	313.77
675.97	312.81
676.31	311.85
676.65	310.95
676.99	310.34
677.33	309.45
677.67	308.60
678.01	307.51
678.34	306.67
678.68	305.82
679.02	304.82
679.36	304.07
679.70	303.10
680.04	302.31
680.37	301.46
680.71	300.53
681.05	299.68
681.39	298.98
681.73	298.13
682.06	297.30
682.40	296.57
682.74	295.76
683.08	295.20
683.42	294.33
683.75	293.62
684.09	292.72
684.43	292.00
684.77	291.23
685.10	290.43
685.44	289.64
685.78	288.86
686.12	288.29
686.45	287.48
686.79	286.71
687.13	286.11
687.46	285.47
687.80	284.78
688.14	284.02
688.48	283.32
688.81	282.58
689.15	282.03
689.49	281.30
689.82	280.69
690.16	279.81
690.50	279.11
690.83	278.29
691.17	277.42
691.51	276.73
691.84	276.10
692.18	275.51
692.52	274.82
692.85	274.23
693.19	273.75
693.52	273.07
693.86	272.44
694.20	271.73
694.53	271.09
694.87	270.50
695.21	269.87
695.54	269.23
695.88	268.54
696.21	267.74
696.55	267.10
696.88	266.44
697.22	265.86
697.56	265.45
697.89	265.00
698.23	264.55
698.56	264.00
698.90	263.49
699.23	262.88
699.57	262.35
699.90	261.77
700.24	261.06
700.58	260.56
700.91	260.10
701.25	259.83
701.58	259.38
701.92	258.97
702.25	258.50
702.59	257.90
702.92	257.49
703.26	257.04
703.59	256.55
703.93	256.35
704.26	255.93
704.60	255.35
704.93	254.75
705.26	254.34
705.60	253.95
705.93	253.44
706.27	253.18
706.60	252.83
706.94	252.63
707.27	252.15
707.61	251.77
707.94	251.29
708.27	250.60
708.61	250.14
708.94	249.69
709.28	249.31
709.61	249.02
709.94	248.68
710.28	248.32
710.61	247.98
710.95	247.29
711.28	247.10
711.61	246.75
711.95	246.47
712.28	246.05
712.61	245.66
712.95	245.50
713.28	245.29
713.61	244.87
713.95	244.26
714.28	244.01
714.61	243.57
714.95	243.26
715.28	242.96
715.61	242.62
715.95	242.27
716.28	241.88
716.61	241.56
716.95	241.17
717.28	240.93
717.61	240.66
717.94	240.46
718.28	239.97
718.61	239.64
718.94	239.35
719.27	239.09
719.61	238.87
719.94	238.44
720.27	237.93
720.60	237.63
720.94	237.50
721.27	237.19
721.60	237.06
721.93	236.82
722.27	236.65
722.60	236.47
722.93	236.20
723.26	236.07
723.59	235.85
723.93	235.64
724.26	235.38
724.59	235.16
724.92	234.95
725.25	234.82
725.59	234.65
725.92	234.46
726.25	234.33
726.58	234.07
726.91	233.89
727.24	233.75
727.57	233.57
727.91	233.25
728.24	233.11
728.57	232.92
728.90	232.71
729.23	232.39
729.56	232.30
729.89	232.22
730.22	232.00
730.55	231.75
730.89	231.64
731.22	231.42
731.55	231.19
731.88	231.01
732.21	230.74
732.54	230.48
732.87	230.27
733.20	230.06
733.53	229.89
733.86	229.70
734.19	229.40
734.52	229.24
734.85	229.35
735.18	229.12
735.51	228.97
735.84	228.85
736.17	228.79
736.50	228.39
736.83	228.52
737.16	228.23
737.49	228.11
737.82	227.88
738.15	227.74
738.48	227.47
738.81	227.28
739.14	227.11
739.47	226.98
739.80	226.84
740.13	226.72
740.46	226.43
740.79	226.21
741.12	226.16
741.45	225.97
741.78	225.64
742.11	225.54
742.44	225.32
742.77	225.18
743.10	225.06
743.43	224.87
743.75	224.36
744.08	224.76
744.41	224.55
744.74	224.34
745.07	224.12
745.40	224.06
745.73	224.00
746.06	223.89
746.39	223.75
746.71	223.62
747.04	223.36
747.37	223.26
747.70	223.22
748.03	223.13
748.36	223.08
748.68	222.91
749.01	222.74
749.34	222.66
749.67	222.50
750.00	222.37
750.33	222.56
750.65	222.56
750.98	222.04
751.31	222.00
751.64	221.96
751.97	222.07
752.29	221.97
752.62	221.72
752.95	221.60
753.28	221.43
753.60	221.28
753.93	221.30
754.26	221.23
754.59	221.04
754.91	220.81
755.24	220.72
755.57	220.65
755.90	220.53
756.22	220.37
756.55	220.29
756.88	220.11
757.20	219.76
757.53	219.50
757.86	219.40
758.19	219.31
758.51	219.24
758.84	218.96
759.17	218.87
759.49	218.90
759.82	219.01
760.15	218.98
760.47	218.85
760.80	218.72
761.13	218.71
761.45	218.60
761.78	218.61
762.11	218.52
762.43	218.44
762.76	218.37
763.08	218.33
763.41	218.28
763.74	218.22
764.06	218.22
764.39	218.16
764.71	218.09
765.04	217.91
765.37	217.81
765.69	217.77
766.02	217.75
766.34	217.62
766.67	217.37
767.00	217.37
767.32	217.51
767.65	217.63
767.97	217.62
768.30	217.56
768.62	217.56
768.95	217.44
769.27	217.43
769.60	217.36
769.92	217.30
770.25	217.17
770.57	217.07
770.90	217.00
771.22	216.97
771.55	216.91
771.87	216.96
772.20	216.89
772.52	217.14
772.85	217.50
773.17	217.44
773.50	217.43
773.82	217.32
774.15	217.11
774.47	216.90
774.80	216.80
775.12	216.80
775.45	216.65
775.77	216.60
776.09	216.50
776.42	216.52
776.74	216.56
777.07	216.55
777.39	216.46
777.72	216.31
778.04	216.25
778.36	216.14
778.69	216.08
779.01	216.04
779.33	215.62
779.66	215.20
779.98	215.15
780.31	215.10
780.63	215.21
780.95	215.23
781.28	215.17
781.60	215.09
781.92	215.05
782.25	215.02
782.57	215.05
782.89	214.93
783.22	214.79
783.54	214.60
783.86	214.50
784.19	214.51
784.51	214.62
784.83	214.62
785.16	214.60
785.48	214.58
785.80	214.56
786.12	214.70
786.45	214.66
786.77	214.66
787.09	214.62
787.42	214.39
787.74	214.37
788.06	214.28
788.38	214.27
788.71	214.15
789.03	214.11
789.35	214.14
789.67	214.12
789.99	214.15
790.32	214.16
790.64	214.21
790.96	214.43
791.28	214.27
791.61	214.23
791.93	214.24
792.25	214.17
792.57	214.43
792.89	214.22
793.21	214.10
793.54	214.04
793.86	213.97
794.18	214.03
794.50	213.92
794.82	213.92
795.14	213.88
795.47	213.94
795.79	213.93
796.11	213.70
796.43	213.71
796.75	213.71
797.07	213.68
797.39	213.61
797.71	213.37
798.04	213.43
798.36	213.43
798.68	213.42
799.00	213.40
799.32	213.20
799.64	213.30
799.96	213.31
800.28	213.24
800.60	213.20
800.92	213.19
801.24	213.21
801.56	213.18
801.89	213.08
802.21	213.09
802.53	213.06
802.85	213.13
803.17	213.25
803.49	213.12
803.81	213.09
804.13	213.10
804.45	213.05
804.77	213.02
805.09	213.00
805.41	212.94
805.73	212.91
806.05	212.80
806.37	212.76
806.69	212.73
807.01	212.76
807.33	212.85
807.65	212.75
807.97	212.87
808.28	212.87
808.60	212.92
808.92	212.83
809.24	212.99
809.56	212.98
809.88	212.82
810.20	212.90
810.52	212.89
810.84	212.84
811.16	212.81
811.48	212.79
811.80	212.92
812.12	212.94
812.43	212.93
812.75	212.92
813.07	212.89
813.39	212.93
813.71	212.99
814.03	212.89
814.35	212.92
814.67	212.71
814.98	212.70
815.30	212.62
815.62	212.57
815.94	212.35
816.26	212.32
816.58	212.32
816.89	212.29
817.21	212.20
817.53	212.18
817.85	212.22
818.17	212.16
818.48	212.02
818.80	212.05
819.12	212.01
819.44	211.92
819.76	211.87
820.07	211.88
820.39	211.79
820.71	211.81
821.03	211.76
821.34	211.79
821.66	211.82
821.98	211.88
822.30	211.87
822.61	212.10
822.93	212.03
823.25	211.98
823.57	211.96
823.88	212.07
824.20	212.06
824.52	212.09
824.83	212.08
825.15	211.95
825.47	211.89
825.79	211.95
826.10	211.90
826.42	211.81
826.74	211.78
827.05	211.78
827.37	211.76
827.69	211.72
828.00	211.70
828.32	211.61
828.64	211.51
828.95	211.68
829.27	211.50
829.58	211.51
829.90	211.59
830.22	211.62
830.53	211.52
830.85	211.47
831.17	211.30
831.48	211.31
831.80	211.35
832.11	211.26
832.43	211.16
832.75	211.17
833.06	211.43
833.38	211.30
833.69	211.28
834.01	211.30
834.32	211.28
834.64	211.22
834.96	211.32
835.27	211.35
835.59	211.19
835.90	211.16
836.22	211.10
836.53	210.96
836.85	210.88
837.16	211.27
837.48	211.25
837.79	211.43
838.11	211.43
838.42	211.45
838.74	211.54
839.05	211.56
839.37	211.53
839.68	211.31
840.00	211.32
840.31	211.34
840.63	211.29
840.94	211.30
841.26	211.35
841.57	211.27
841.88	211.32
842.20	211.33
842.51	211.24
842.83	211.29
843.14	211.60
843.46	211.66
843.77	211.40
844.08	211.43
844.40	211.33
844.71	211.32
845.03	211.21
845.34	211.19
845.65	211.20
845.97	211.26
846.28	211.29
846.60	211.29
846.91	211.26
847.22	211.25
847.54	211.35
847.85	211.35
848.16	211.37
848.48	211.31
848.79	211.44
849.10	211.49
849.42	211.60
849.73	211.31
850.04	211.30
850.36	211.23
850.67	211.34
850.98	211.34
851.30	211.35
851.61	211.43
851.92	211.44
852.23	211.53
852.55	211.58
852.86	211.57
853.17	211.57
853.49	211.60
853.80	211.72
854.11	211.70
854.42	211.72
854.74	211.65
855.05	211.75
855.36	211.62
855.67	211.67
855.99	211.60
856.30	212.05
856.61	212.03
856.92	211.98
857.23	211.89
857.55	211.80
857.86	211.76
858.17	211.75
858.48	211.63
858.79	211.60
859.11	211.62
859.42	211.58
859.73	211.57
860.04	211.55
860.35	211.45
860.66	211.31
860.98	211.26
861.29	211.36
861.60	211.24
861.91	211.26
862.22	211.18
862.53	211.10
862.84	210.75
863.16	210.76
863.47	210.77
863.78	210.75
864.09	210.78
864.40	210.88
864.71	210.92
865.02	211.00
865.33	210.83
865.64	210.68
865.95	210.71
866.27	210.95
866.58	210.99
866.89	211.00
867.20	211.05
867.51	211.00
867.82	210.98
868.13	211.10
868.44	210.95
868.75	211.02
869.06	211.07
869.37	211.00
869.68	210.95
869.99	210.96
870.30	210.95
870.61	211.10
870.92	210.97
871.23	210.91
871.54	210.97
871.85	211.12
872.16	211.29
872.47	211.26
872.78	211.01
873.09	210.98
873.40	210.88
873.71	210.91
874.02	210.93
874.33	210.85
874.64	210.77
874.95	210.94
875.26	210.90
875.56	210.94
875.87	210.96
876.18	210.93
876.49	211.30
876.80	211.29
877.11	211.08
877.42	211.14
877.73	211.16
878.04	211.19
878.35	211.26
878.66	211.22
878.96	211.21
879.27	211.25
879.58	211.22
879.89	211.26
880.20	211.33
880.51	211.32
880.82	211.35
881.12	211.40
881.43	211.35
881.74	211.23
882.05	211.18
882.36	211.16
882.67	211.21
882.97	210.85
883.28	210.88
883.59	210.88
883.90	210.90
884.21	211.02
884.51	210.86
884.82	210.75
885.13	210.76
885.44	210.76
885.74	210.80
886.05	210.81
886.36	210.85
886.67	210.72
886.98	210.95
887.28	211.00
887.59	210.99
887.90	210.98
888.20	211.02
888.51	211.17
888.82	211.14
889.13	211.15
889.43	211.43
889.74	211.41
890.05	211.49
890.35	211.46
890.66	211.37
890.97	211.40
891.28	211.41
891.58	211.38
891.89	211.41
892.20	211.39
892.50	211.34
892.81	211.32
893.12	211.33
893.42	211.12
893.73	211.11
894.04	211.10
894.34	211.16
894.65	211.25
894.95	211.19
895.26	211.23
895.57	211.38
895.87	211.07
896.18	211.20
896.48	211.23
896.79	211.23
897.10	211.25
897.40	211.27
897.71	211.32
898.01	211.36
898.32	211.37
898.63	211.32
898.93	211.42
899.24	211.39
899.54	211.41
899.85	211.40
900.15	211.36
900.46	211.41
900.76	211.44
901.07	211.31
901.38	211.35
901.68	211.35
901.99	211.23
902.29	211.21
902.60	211.09
902.90	211.01
903.21	211.06
903.51	211.04
903.82	211.17
904.12	211.16
904.43	211.22
904.73	211.29
905.03	211.32
905.34	211.62
905.64	211.63
905.95	211.69
906.25	211.70
906.56	211.71
906.86	211.69
907.17	211.62
907.47	211.70
907.77	211.55
908.08	211.55
908.38	211.64
908.69	211.67
908.99	211.75
909.30	211.81
909.60	211.74
909.90	211.77
910.21	211.66
910.51	211.56
910.81	211.49
911.12	211.43
911.42	211.47
911.73	211.04
912.03	211.06
912.33	211.13
912.64	211.18
912.94	211.16
913.24	211.05
913.55	211.00
913.85	211.01
914.15	211.03
914.46	211.04
914.76	210.88
915.06	210.89
915.37	210.84
915.67	210.78
915.97	210.81
916.27	210.71
916.58	210.72
916.88	210.70
917.18	210.65
917.49	210.91
917.79	210.87
918.09	211.03
918.39	211.05
918.70	210.92
919.00	210.95
919.30	211.13
919.60	211.15
919.91	211.21
920.21	211.19
920.51	211.21
920.81	211.21
921.12	211.25
921.42	211.27
921.72	211.27
922.02	211.35
922.32	211.42
922.63	211.44
922.93	211.55
923.23	211.59
923.53	211.65
923.83	211.39
924.13	211.38
924.44	211.33
924.74	211.39
925.04	211.51
925.34	211.44
925.64	211.33
925.94	211.31
926.24	211.46
926.55	211.49
926.85	211.45
927.15	211.43
927.45	211.49
927.75	211.41
928.05	211.37
928.35	211.30
928.65	211.31
928.95	211.33
929.26	211.21
929.56	211.30
929.86	211.25
930.16	211.21
930.46	211.25
930.76	211.27
931.06	211.23
931.36	211.13
931.66	211.19
931.96	211.14
932.26	211.17
932.56	210.99
932.86	210.89
933.16	210.95
933.46	210.91
933.76	210.83
934.06	210.95
934.36	211.11
934.66	211.11
934.96	211.10
935.26	211.11
935.56	211.20
935.86	211.14
936.16	211.15
936.46	211.12
936.76	211.06
937.06	211.02
937.36	210.99
937.66	211.01
937.96	210.94
938.26	210.87
938.56	210.83
938.86	210.92
939.16	211.07
939.46	211.09
939.76	211.10
940.06	211.05
940.35	211.03
940.65	210.83
940.95	210.85
941.25	210.75
941.55	210.67
941.85	210.60
942.15	210.58
942.45	210.61
942.75	210.64
943.04	210.66
943.34	210.74
943.64	210.67
943.94	210.64
944.24	210.80
944.54	210.88
944.84	210.84
945.13	210.78
945.43	210.71
945.73	210.72
946.03	210.72
946.33	210.71
946.62	210.66
946.92	210.71
947.22	210.78
947.52	210.82
947.82	210.95
948.11	210.95
948.41	210.94
948.71	210.89
949.01	210.87
949.31	210.83
949.60	210.74
949.90	210.78
950.20	210.74
950.50	210.67
950.79	210.62
951.09	210.73
951.39	210.66
951.69	210.61
951.98	210.75
952.28	210.78
952.58	210.83
952.87	210.80
953.17	210.86
953.47	210.84
953.76	210.82
954.06	210.78
954.36	210.74
954.66	210.72
954.95	210.79
955.25	210.87
955.55	210.86
955.84	210.87
956.14	210.91
956.44	210.97
956.73	210.95
957.03	210.93
957.32	210.90
957.62	210.90
957.92	211.00
958.21	210.85
958.51	211.22
958.81	211.19
959.10	211.23
959.40	211.26
959.69	211.28
959.99	211.35
960.29	211.33
960.58	211.33
960.88	211.49
961.17	211.48
961.47	211.49
961.76	211.48
962.06	211.48
962.36	211.45
962.65	211.45
962.95	211.38
963.24	211.35
963.54	211.43
963.83	211.58
964.13	211.51
964.42	211.44
964.72	211.15
965.01	211.20
965.31	211.16
965.60	211.09
965.90	211.21
966.19	211.05
966.49	211.10
966.78	211.01
967.08	210.99
967.37	211.01
967.67	210.90
967.96	210.94
968.26	210.92
968.55	210.98
968.85	210.97
969.14	211.00
969.43	211.05
969.73	210.99
970.02	210.88
970.32	210.91
970.61	210.94
970.91	210.87
971.20	210.80
971.49	210.82
971.79	210.84
972.08	210.70
972.38	210.81
972.67	210.73
972.96	210.80
973.26	210.73
973.55	210.77
973.85	210.82
974.14	210.83
974.43	210.90
974.73	210.83
975.02	210.79
975.31	210.84
975.61	210.82
975.90	210.80
976.19	210.79
976.49	210.77
976.78	210.74
977.07	210.72
977.37	210.76
977.66	210.78
977.95	210.71
978.24	210.69
978.54	210.66
978.83	210.67
979.12	210.64
979.42	210.61
979.71	210.59
980.00	210.54
980.29	210.59
980.59	210.50
980.88	210.62
981.17	210.64
981.46	210.55
981.76	210.51
982.05	210.58
982.34	210.57
982.63	210.60
982.93	210.57
983.22	210.66
983.51	210.68
983.80	210.67
984.09	210.70
984.39	210.65
984.68	210.67
984.97	210.70
985.26	210.69
985.55	210.69
985.85	210.56
986.14	210.63
986.43	210.65
986.72	210.72
987.01	210.63
987.30	210.65
987.59	210.74
987.89	210.81
988.18	210.77
988.47	210.72
988.76	210.75
989.05	210.78
989.34	210.80
989.63	210.81
989.92	210.77
990.22	210.71
990.51	210.72
990.80	210.69
991.09	210.67
991.38	210.73
991.67	210.75
991.96	210.77
992.25	210.78
992.54	210.72
992.83	210.62
993.12	210.48
993.41	210.57
993.70	210.60
993.99	210.65
994.28	210.65
994.58	210.72
994.87	210.61
995.16	210.54
995.45	210.44
995.74	210.39
996.03	210.50
996.32	210.63
996.61	210.75
996.90	210.76
997.19	210.72
997.48	210.73
997.77	210.65
998.06	210.69
998.34	210.62
998.63	210.58
998.92	210.62
999.21	210.76
999.50	210.68
999.79	210.56
1000.08	210.46
1000.37	210.43
1000.66	210.36
1000.95	210.54
1001.24	210.57
1001.53	210.67
1001.82	210.66
1002.11	210.56
1002.40	210.54
1002.68	210.55
1002.97	210.81
1003.26	210.89
1003.55	210.88
1003.84	210.90
1004.13	211.03
1004.42	211.05
1004.71	211.07
1004.99	211.02
1005.28	211.10
1005.57	211.09
1005.86	211.02
1006.15	211.10
1006.44	211.15
1006.72	211.22
1007.01	211.15
1007.30	211.22
1007.59	211.15
1007.88	211.13
1008.17	211.13
1008.45	211.02
1008.74	210.93
1009.03	210.72
1009.32	210.65
1009.60	210.67
1009.89	210.65
1010.18	210.48
1010.47	210.45
1010.76	210.47
1011.04	210.54
1011.33	210.54
1011.62	210.57
1011.91	210.61
1012.19	210.55
1012.48	210.55
1012.77	210.59
1013.05	210.66
1013.34	210.61
1013.63	210.61
1013.92	210.67
1014.20	210.65
1014.49	210.75
1014.78	210.80
1015.06	210.67
1015.35	210.64
1015.64	210.69
1015.92	210.74
1016.21	210.75
1016.50	210.75
1016.78	210.78
1017.07	210.76
1017.36	210.65
1017.64	210.59
1017.93	210.73
1018.22	210.75
1018.50	210.75
1018.79	210.69
1019.08	210.58
1019.36	210.58
1019.65	210.48
1019.93	210.53
1020.22	210.62
1020.51	210.79
1020.79	210.70
1021.08	210.50
1021.36	210.95
1021.65	210.20
1021.94	210.70
1022.22	210.05
1022.51	209.20
1022.79	211.35
1023.08	211.65
1023.36	215.10
1023.65	209.65
>>>>>End Processed Spectral Data<<<<<
