SpectraSuite Data File
++++++++++++++++++++++++++++++++++++
Date: Mon Feb 25 17:10:51 EST 2013
User: group
Dark Spectrum Present: No
Reference Spectrum Present: No
Number of Sampled Component Spectra: 1
Spectrometers: USB2E7196
Integration Time (usec): 104000 (USB2E7196)
Spectra Averaged: 20 (USB2E7196)
Boxcar Smoothing: 10 (USB2E7196)
Correct for Electrical Dark: No (USB2E7196)
Strobe/Lamp Enabled: No (USB2E7196)
Correct for Detector Non-linearity: No (USB2E7196)
Correct for Stray Light: No (USB2E7196)
Number of Pixels in Processed Spectrum: 2048
>>>>>Begin Processed Spectral Data<<<<<
339.09	0.00
339.48	197.95
339.86	199.30
340.24	201.70
340.63	202.50
341.01	209.20
341.39	206.05
341.78	206.00
342.16	208.30
342.54	209.10
342.93	197.96
343.31	208.01
343.69	208.61
344.07	209.07
344.46	209.47
344.84	209.86
345.22	209.88
345.60	210.05
345.99	210.30
346.37	210.41
346.75	210.49
347.13	210.54
347.52	210.59
347.90	210.74
348.28	210.72
348.66	210.84
349.05	210.82
349.43	210.88
349.81	210.96
350.19	210.95
350.57	211.02
350.96	211.05
351.34	211.06
351.72	211.08
352.10	211.25
352.48	211.28
352.87	211.33
353.25	211.39
353.63	211.48
354.01	211.49
354.39	211.64
354.77	211.63
355.15	211.79
355.54	211.84
355.92	211.72
356.30	211.82
356.68	212.11
357.06	212.24
357.44	212.24
357.82	212.21
358.20	212.38
358.58	212.48
358.97	212.53
359.35	212.64
359.73	212.81
360.11	212.81
360.49	212.92
360.87	212.98
361.25	213.08
361.63	213.23
362.01	213.29
362.39	213.30
362.77	213.38
363.15	213.38
363.53	213.43
363.91	213.57
364.29	213.58
364.67	213.26
365.05	213.26
365.43	213.30
365.81	213.42
366.19	213.55
366.57	213.70
366.95	213.73
367.33	213.68
367.71	213.65
368.09	213.70
368.47	213.76
368.85	213.75
369.23	213.87
369.61	213.70
369.99	213.84
370.37	213.84
370.75	214.00
371.13	213.89
371.51	213.82
371.89	213.81
372.27	213.82
372.65	213.85
373.03	213.80
373.41	213.70
373.78	213.60
374.16	213.35
374.54	213.18
374.92	213.10
375.30	213.10
375.68	212.97
376.06	213.00
376.44	212.84
376.82	212.80
377.19	212.65
377.57	212.69
377.95	212.53
378.33	212.42
378.71	212.18
379.09	212.19
379.47	212.15
379.84	212.10
380.22	212.00
380.60	211.84
380.98	211.78
381.36	211.76
381.73	211.69
382.11	211.74
382.49	211.71
382.87	211.68
383.25	211.58
383.62	211.92
384.00	211.71
384.38	211.70
384.76	211.71
385.13	211.79
385.51	211.66
385.89	211.53
386.27	211.46
386.64	211.49
387.02	211.40
387.40	211.35
387.78	211.25
388.15	211.23
388.53	211.20
388.91	211.11
389.29	211.06
389.66	211.11
390.04	211.01
390.42	211.01
390.79	210.99
391.17	210.96
391.55	210.52
391.92	210.50
392.30	210.50
392.68	210.41
393.05	210.37
393.43	210.45
393.81	210.46
394.18	210.50
394.56	210.50
394.94	210.59
395.31	210.59
395.69	210.72
396.06	210.73
396.44	210.75
396.82	210.74
397.19	210.93
397.57	210.84
397.95	210.97
398.32	210.91
398.70	210.89
399.07	211.09
399.45	211.16
399.82	211.21
400.20	211.22
400.58	211.28
400.95	211.14
401.33	211.19
401.70	211.50
402.08	211.55
402.45	211.55
402.83	211.65
403.20	211.70
403.58	211.68
403.95	211.81
404.33	211.89
404.71	212.02
405.08	212.25
405.46	212.35
405.83	212.37
406.21	212.51
406.58	212.62
406.96	212.64
407.33	212.83
407.70	213.03
408.08	213.40
408.45	213.58
408.83	213.84
409.20	213.99
409.58	213.96
409.95	214.15
410.33	214.37
410.70	214.45
411.08	214.68
411.45	214.98
411.82	215.20
412.20	215.55
412.57	215.99
412.95	215.94
413.32	216.32
413.69	216.64
414.07	216.97
414.44	217.34
414.82	217.78
415.19	218.25
415.56	218.70
415.94	218.99
416.31	219.67
416.68	220.31
417.06	220.97
417.43	221.74
417.81	222.50
418.18	223.32
418.55	224.18
418.93	225.09
419.30	225.91
419.67	226.86
420.04	227.92
420.42	228.89
420.79	230.38
421.16	231.64
421.54	233.10
421.91	234.47
422.28	235.92
422.66	237.36
423.03	238.95
423.40	240.37
423.77	241.98
424.15	243.47
424.52	245.15
424.89	247.01
425.26	248.70
425.64	250.30
426.01	252.11
426.38	253.99
426.75	255.98
427.13	258.01
427.50	260.12
427.87	262.26
428.24	264.45
428.61	266.36
428.99	268.66
429.36	270.88
429.73	273.35
430.10	275.85
430.47	278.35
430.85	280.71
431.22	283.46
431.59	286.56
431.96	289.32
432.33	292.31
432.70	295.21
433.08	298.62
433.45	301.98
433.82	305.31
434.19	308.96
434.56	312.58
434.93	316.04
435.30	319.35
435.68	323.04
436.05	326.78
436.42	330.46
436.79	333.87
437.16	337.59
437.53	341.33
437.90	345.05
438.27	348.86
438.64	352.77
439.01	356.52
439.38	359.62
439.75	362.77
440.13	366.30
440.50	369.60
440.87	372.47
441.24	375.23
441.61	378.26
441.98	380.48
442.35	383.05
442.72	385.81
443.09	388.65
443.46	390.29
443.83	391.28
444.20	392.25
444.57	393.69
444.94	394.39
445.31	395.26
445.68	396.28
446.05	396.56
446.42	396.28
446.79	395.85
447.16	395.36
447.53	394.95
447.90	393.67
448.27	392.25
448.64	390.17
449.01	388.79
449.37	386.33
449.74	384.04
450.11	381.37
450.48	378.07
450.85	374.63
451.22	371.92
451.59	369.43
451.96	366.90
452.33	363.45
452.70	360.37
453.07	356.58
453.43	352.55
453.80	348.94
454.17	345.54
454.54	342.30
454.91	338.82
455.28	335.46
455.65	332.20
456.02	329.58
456.38	326.92
456.75	323.67
457.12	320.93
457.49	318.18
457.86	315.24
458.23	313.08
458.59	310.68
458.96	308.15
459.33	305.82
459.70	303.59
460.07	301.81
460.43	299.72
460.80	297.87
461.17	296.22
461.54	294.51
461.91	292.82
462.27	291.08
462.64	289.57
463.01	288.04
463.38	286.63
463.74	284.52
464.11	283.09
464.48	281.87
464.85	280.53
465.21	279.67
465.58	278.73
465.95	277.33
466.32	276.32
466.68	275.19
467.05	274.21
467.42	273.12
467.78	272.02
468.15	270.91
468.52	270.11
468.88	269.02
469.25	268.06
469.62	267.32
469.98	266.53
470.35	265.70
470.72	264.94
471.08	264.04
471.45	263.60
471.82	263.14
472.18	262.40
472.55	261.89
472.92	261.19
473.28	260.58
473.65	260.11
474.02	259.54
474.38	259.23
474.75	258.87
475.11	258.54
475.48	258.21
475.85	258.00
476.21	257.79
476.58	257.63
476.94	257.55
477.31	257.32
477.67	257.13
478.04	257.09
478.41	257.08
478.77	257.39
479.14	257.26
479.50	257.15
479.87	257.20
480.23	257.24
480.60	257.15
480.96	257.25
481.33	257.55
481.69	257.77
482.06	257.90
482.42	258.06
482.79	258.22
483.15	258.43
483.52	258.79
483.88	259.00
484.25	259.23
484.61	259.51
484.98	259.89
485.34	260.40
485.71	260.97
486.07	261.44
486.44	261.71
486.80	262.32
487.17	262.90
487.53	263.73
487.90	264.52
488.26	265.50
488.62	266.37
488.99	267.23
489.35	268.03
489.72	268.97
490.08	269.90
490.44	271.00
490.81	272.23
491.17	273.34
491.54	274.60
491.90	276.05
492.26	277.35
492.63	278.87
492.99	280.30
493.36	281.84
493.72	283.52
494.08	285.20
494.45	286.97
494.81	288.95
495.17	290.76
495.54	292.74
495.90	294.81
496.26	296.89
496.63	299.00
496.99	301.36
497.35	303.71
497.72	306.25
498.08	308.74
498.44	311.33
498.80	314.08
499.17	316.81
499.53	319.73
499.89	322.85
500.26	325.86
500.62	329.05
500.98	332.38
501.34	335.68
501.71	339.20
502.07	342.75
502.43	346.36
502.79	350.04
503.16	353.97
503.52	357.80
503.88	361.90
504.24	366.06
504.60	370.31
504.97	374.81
505.33	379.29
505.69	384.14
506.05	388.86
506.41	393.80
506.78	398.67
507.14	403.56
507.50	408.54
507.86	413.81
508.22	419.25
508.59	424.56
508.95	430.12
509.31	435.75
509.67	441.46
510.03	447.33
510.39	453.44
510.75	459.38
511.12	465.49
511.48	471.73
511.84	478.13
512.20	484.48
512.56	490.98
512.92	497.53
513.28	504.07
513.64	510.76
514.00	517.54
514.37	524.44
514.73	531.51
515.09	538.65
515.45	545.68
515.81	552.66
516.17	559.81
516.53	567.13
516.89	574.40
517.25	581.68
517.61	589.10
517.97	596.35
518.33	603.81
518.69	611.45
519.05	619.01
519.41	626.68
519.77	634.68
520.13	642.33
520.49	649.94
520.85	657.75
521.21	665.69
521.57	673.58
521.93	681.35
522.29	689.27
522.65	697.21
523.01	705.18
523.37	713.06
523.73	721.17
524.09	729.05
524.45	736.94
524.81	744.92
525.17	752.96
525.53	761.22
525.89	769.41
526.25	777.32
526.61	785.03
526.97	792.85
527.33	800.66
527.68	808.96
528.04	817.04
528.40	824.51
528.76	832.32
529.12	840.26
529.48	848.51
529.84	856.30
530.20	864.08
530.56	871.96
530.91	880.07
531.27	887.89
531.63	895.74
531.99	903.58
532.35	911.19
532.71	918.54
533.07	926.18
533.42	933.81
533.78	941.39
534.14	948.83
534.50	955.85
534.86	963.06
535.21	969.71
535.57	976.78
535.93	983.87
536.29	990.79
536.65	997.37
537.00	1003.64
537.36	1009.83
537.72	1016.07
538.08	1022.39
538.44	1028.48
538.79	1034.65
539.15	1040.73
539.51	1046.90
539.87	1053.31
540.22	1059.22
540.58	1065.27
540.94	1070.90
541.29	1076.28
541.65	1081.75
542.01	1087.38
542.37	1092.35
542.72	1097.59
543.08	1102.39
543.44	1107.91
543.79	1112.46
544.15	1116.88
544.51	1121.92
544.87	1127.14
545.22	1131.80
545.58	1135.98
545.94	1139.91
546.29	1143.58
546.65	1147.20
547.01	1150.82
547.36	1154.07
547.72	1157.51
548.07	1160.30
548.43	1162.91
548.79	1165.53
549.14	1168.05
549.50	1170.58
549.86	1173.05
550.21	1175.31
550.57	1177.84
550.92	1179.37
551.28	1181.59
551.64	1183.90
551.99	1185.75
552.35	1186.80
552.70	1188.39
553.06	1190.34
553.41	1192.02
553.77	1193.69
554.13	1195.00
554.48	1196.13
554.84	1197.37
555.19	1198.29
555.55	1199.44
555.90	1200.25
556.26	1201.18
556.61	1202.04
556.97	1202.53
557.32	1203.27
557.68	1203.70
558.03	1203.97
558.39	1204.50
558.74	1205.00
559.10	1205.40
559.45	1205.50
559.81	1206.36
560.16	1206.35
560.52	1206.07
560.87	1205.93
561.23	1205.51
561.58	1205.84
561.94	1205.37
562.29	1204.76
562.64	1204.62
563.00	1204.24
563.35	1204.24
563.71	1204.48
564.06	1204.40
564.42	1204.57
564.77	1204.66
565.12	1204.63
565.48	1204.52
565.83	1204.31
566.19	1204.08
566.54	1203.14
566.89	1202.54
567.25	1201.81
567.60	1201.26
567.96	1200.69
568.31	1199.93
568.66	1199.22
569.02	1197.78
569.37	1196.45
569.72	1195.59
570.08	1194.34
570.43	1192.79
570.78	1191.37
571.14	1189.21
571.49	1187.23
571.84	1185.45
572.20	1182.98
572.55	1181.18
572.90	1178.71
573.26	1176.18
573.61	1173.46
573.96	1171.38
574.31	1168.64
574.67	1166.03
575.02	1163.25
575.37	1160.33
575.72	1157.43
576.08	1154.94
576.43	1152.12
576.78	1149.58
577.13	1147.17
577.49	1144.48
577.84	1141.89
578.19	1139.13
578.54	1136.99
578.90	1134.86
579.25	1132.02
579.60	1129.14
579.95	1125.87
580.30	1123.66
580.66	1121.36
581.01	1118.59
581.36	1115.48
581.71	1112.68
582.06	1109.74
582.42	1107.00
582.77	1104.00
583.12	1101.26
583.47	1098.64
583.82	1096.24
584.17	1093.50
584.53	1090.72
584.88	1088.01
585.23	1085.28
585.58	1082.83
585.93	1079.81
586.28	1077.06
586.63	1074.39
586.98	1072.05
587.34	1069.76
587.69	1066.75
588.04	1063.88
588.39	1061.32
588.74	1058.55
589.09	1056.14
589.44	1053.18
589.79	1050.63
590.14	1048.05
590.49	1045.12
590.84	1042.14
591.19	1039.49
591.54	1036.81
591.89	1033.25
592.25	1030.54
592.60	1027.25
592.95	1023.82
593.30	1020.55
593.65	1017.04
594.00	1013.78
594.35	1011.63
594.70	1008.39
595.05	1005.54
595.40	1002.45
595.75	999.18
596.10	996.65
596.45	993.69
596.80	991.11
597.15	988.26
597.50	985.28
597.85	982.58
598.19	979.56
598.54	976.49
598.89	973.70
599.24	971.39
599.59	968.40
599.94	966.22
600.29	963.70
600.64	961.00
600.99	958.37
601.34	955.93
601.69	952.13
602.04	949.16
602.39	946.21
602.74	943.58
603.08	941.29
603.43	938.90
603.78	936.10
604.13	933.32
604.48	930.52
604.83	928.45
605.18	926.45
605.53	923.90
605.87	921.29
606.22	918.74
606.57	916.25
606.92	913.65
607.27	910.67
607.62	907.77
607.96	905.38
608.31	903.17
608.66	900.12
609.01	897.42
609.36	894.73
609.70	891.72
610.05	888.57
610.40	885.44
610.75	882.03
611.10	879.26
611.44	875.80
611.79	872.26
612.14	868.55
612.49	864.51
612.83	861.20
613.18	857.64
613.53	854.14
613.88	850.13
614.22	846.53
614.57	843.09
614.92	839.61
615.27	835.99
615.61	832.03
615.96	828.66
616.31	825.24
616.65	822.03
617.00	818.99
617.35	815.67
617.70	812.01
618.04	808.37
618.39	804.52
618.74	801.20
619.08	797.89
619.43	794.47
619.78	791.34
620.12	787.79
620.47	784.56
620.82	780.98
621.16	777.45
621.51	774.01
621.85	770.35
622.20	766.67
622.55	763.20
622.89	759.83
623.24	756.29
623.59	752.70
623.93	749.03
624.28	745.39
624.62	742.24
624.97	739.19
625.32	735.88
625.66	732.77
626.01	729.55
626.35	726.32
626.70	723.10
627.04	720.07
627.39	716.94
627.73	713.61
628.08	710.66
628.43	707.55
628.77	704.26
629.12	701.10
629.46	698.47
629.81	695.30
630.15	692.15
630.50	689.07
630.84	685.87
631.19	682.84
631.53	679.85
631.88	676.28
632.22	672.75
632.57	669.87
632.91	666.75
633.26	663.63
633.60	660.54
633.95	657.64
634.29	654.30
634.64	651.38
634.98	648.23
635.32	645.10
635.67	642.29
636.01	639.44
636.36	636.42
636.70	633.50
637.05	630.48
637.39	627.60
637.73	624.89
638.08	622.50
638.42	619.92
638.77	616.99
639.11	614.30
639.45	611.45
639.80	608.27
640.14	605.28
640.49	602.37
640.83	599.55
641.17	596.68
641.52	593.74
641.86	590.67
642.20	588.12
642.55	584.97
642.89	581.96
643.23	578.99
643.58	576.47
643.92	573.20
644.26	570.47
644.61	567.60
644.95	564.57
645.29	561.61
645.64	558.56
645.98	555.75
646.32	553.05
646.66	550.43
647.01	547.75
647.35	545.00
647.69	542.18
648.04	539.46
648.38	536.73
648.72	534.08
649.06	531.37
649.41	528.40
649.75	525.83
650.09	523.37
650.43	520.70
650.78	517.85
651.12	515.24
651.46	512.63
651.80	510.18
652.14	507.58
652.49	504.94
652.83	502.35
653.17	499.70
653.51	496.99
653.85	494.45
654.20	491.87
654.54	489.36
654.88	486.94
655.22	484.36
655.56	481.60
655.90	478.99
656.25	476.50
656.59	474.01
656.93	471.50
657.27	469.11
657.61	466.72
657.95	464.33
658.29	461.96
658.64	459.74
658.98	457.09
659.32	454.57
659.66	452.23
660.00	449.81
660.34	447.32
660.68	445.01
661.02	442.65
661.36	440.44
661.70	438.14
662.05	435.85
662.39	433.83
662.73	431.76
663.07	429.84
663.41	427.66
663.75	425.57
664.09	423.51
664.43	421.21
664.77	419.04
665.11	416.78
665.45	414.71
665.79	412.56
666.13	410.63
666.47	408.74
666.81	406.62
667.15	404.57
667.49	402.81
667.83	401.01
668.17	399.11
668.51	397.17
668.85	395.38
669.19	393.72
669.53	391.76
669.87	389.96
670.21	388.02
670.55	386.30
670.89	384.85
671.23	383.26
671.57	381.74
671.91	380.14
672.25	378.60
672.58	377.09
672.92	375.49
673.26	373.92
673.60	372.48
673.94	370.94
674.28	369.46
674.62	367.97
674.96	366.41
675.30	364.89
675.64	363.50
675.97	361.99
676.31	360.45
676.65	359.12
676.99	357.93
677.33	356.55
677.67	355.13
678.01	353.39
678.34	351.94
678.68	350.55
679.02	349.09
679.36	347.82
679.70	346.49
680.04	345.03
680.37	343.61
680.71	342.20
681.05	340.98
681.39	339.73
681.73	338.44
682.06	337.33
682.40	336.25
682.74	335.03
683.08	333.92
683.42	332.54
683.75	331.34
684.09	329.97
684.43	328.67
684.77	327.50
685.10	326.50
685.44	325.23
685.78	323.97
686.12	322.88
686.45	321.62
686.79	320.34
687.13	319.28
687.46	318.20
687.80	317.16
688.14	315.94
688.48	314.85
688.81	313.62
689.15	312.40
689.49	311.16
689.82	310.07
690.16	308.79
690.50	307.75
690.83	306.69
691.17	305.58
691.51	304.55
691.84	303.46
692.18	302.35
692.52	301.33
692.85	300.43
693.19	299.67
693.52	298.72
693.86	297.75
694.20	296.77
694.53	295.88
694.87	294.85
695.21	293.88
695.54	292.87
695.88	291.94
696.21	290.95
696.55	290.05
696.88	289.06
697.22	288.18
697.56	287.50
697.89	286.55
698.23	285.63
698.56	284.90
698.90	284.16
699.23	283.31
699.57	282.60
699.90	281.71
700.24	280.69
700.58	279.87
700.91	279.17
701.25	278.69
701.58	277.94
701.92	277.36
702.25	276.76
702.59	276.04
702.92	275.35
703.26	274.61
703.59	273.95
703.93	273.54
704.26	272.88
704.60	272.10
704.93	271.41
705.26	270.75
705.60	270.05
705.93	269.26
706.27	268.72
706.60	268.20
706.94	267.67
707.27	266.97
707.61	266.35
707.94	265.66
708.27	264.75
708.61	264.02
708.94	263.21
709.28	262.56
709.61	262.05
709.94	261.59
710.28	261.14
710.61	260.64
710.95	259.82
711.28	259.48
711.61	258.96
711.95	258.49
712.28	257.98
712.61	257.39
712.95	257.11
713.28	256.68
713.61	256.06
713.95	255.55
714.28	255.13
714.61	254.63
714.95	254.24
715.28	253.80
715.61	253.29
715.95	252.87
716.28	252.39
716.61	251.97
716.95	251.35
717.28	250.83
717.61	250.39
717.94	250.06
718.28	249.45
718.61	248.96
718.94	248.52
719.27	248.10
719.61	247.78
719.94	247.35
720.27	246.74
720.60	246.33
720.94	245.82
721.27	245.47
721.60	245.14
721.93	244.71
722.27	244.41
722.60	244.20
722.93	243.82
723.26	243.49
723.59	243.04
723.93	242.80
724.26	242.54
724.59	242.14
724.92	241.82
725.25	241.59
725.59	241.30
725.92	241.00
726.25	240.69
726.58	240.41
726.91	239.97
727.24	239.83
727.57	239.50
727.91	239.30
728.24	239.03
728.57	238.77
728.90	238.57
729.23	238.21
729.56	238.07
729.89	237.87
730.22	237.63
730.55	237.34
730.89	237.08
731.22	236.75
731.55	236.48
731.88	236.12
732.21	235.84
732.54	235.57
732.87	235.29
733.20	235.08
733.53	234.84
733.86	234.61
734.19	234.21
734.52	233.99
734.85	233.98
735.18	233.67
735.51	233.51
735.84	233.27
736.17	233.06
736.50	232.68
736.83	232.76
737.16	232.54
737.49	232.38
737.82	232.12
738.15	231.93
738.48	231.69
738.81	231.53
739.14	231.28
739.47	231.08
739.80	230.85
740.13	230.63
740.46	230.30
740.79	230.04
741.12	229.84
741.45	229.60
741.78	229.13
742.11	229.05
742.44	228.77
742.77	228.56
743.10	228.44
743.43	228.19
743.75	227.70
744.08	227.96
744.41	227.73
744.74	227.52
745.07	227.30
745.40	227.18
745.73	227.14
746.06	226.99
746.39	226.77
746.71	226.61
747.04	226.40
747.37	226.28
747.70	226.21
748.03	226.08
748.36	226.01
748.68	225.91
749.01	225.68
749.34	225.55
749.67	225.42
750.00	225.24
750.33	225.36
750.65	225.25
750.98	224.67
751.31	224.51
751.64	224.37
751.97	224.41
752.29	224.21
752.62	223.96
752.95	223.77
753.28	223.63
753.60	223.53
753.93	223.44
754.26	223.30
754.59	223.09
754.91	222.89
755.24	222.79
755.57	222.64
755.90	222.48
756.22	222.25
756.55	222.07
756.88	221.86
757.20	221.50
757.53	221.29
757.86	221.09
758.19	221.07
758.51	220.98
758.84	220.69
759.17	220.67
759.49	220.48
759.82	220.56
760.15	220.51
760.47	220.40
760.80	220.31
761.13	220.30
761.45	220.22
761.78	220.19
762.11	220.09
762.43	219.95
762.76	219.87
763.08	219.84
763.41	219.82
763.74	219.78
764.06	219.74
764.39	219.65
764.71	219.58
765.04	219.46
765.37	219.30
765.69	219.22
766.02	219.05
766.34	218.99
766.67	218.74
767.00	218.72
767.32	218.80
767.65	218.96
767.97	218.86
768.30	218.87
768.62	218.80
768.95	218.66
769.27	218.61
769.60	218.62
769.92	218.57
770.25	218.41
770.57	218.35
770.90	218.28
771.22	218.13
771.55	218.13
771.87	218.04
772.20	217.99
772.52	218.25
772.85	218.72
773.17	218.68
773.50	218.66
773.82	218.61
774.15	218.36
774.47	218.02
774.80	217.88
775.12	217.82
775.45	217.77
775.77	217.77
776.09	217.79
776.42	217.69
776.74	217.74
777.07	217.71
777.39	217.62
777.72	217.54
778.04	217.58
778.36	217.50
778.69	217.50
779.01	217.51
779.33	217.15
779.66	216.56
779.98	216.43
780.31	216.43
780.63	216.44
780.95	216.48
781.28	216.43
781.60	216.41
781.92	216.29
782.25	216.26
782.57	216.21
782.89	216.09
783.22	215.96
783.54	215.82
783.86	215.80
784.19	215.83
784.51	215.80
784.83	215.70
785.16	215.69
785.48	215.61
785.80	215.53
786.12	215.58
786.45	215.59
786.77	215.68
787.09	215.55
787.42	215.42
787.74	215.38
788.06	215.33
788.38	215.20
788.71	215.19
789.03	215.11
789.35	215.11
789.67	215.06
789.99	215.19
790.32	215.06
790.64	215.12
790.96	215.35
791.28	215.26
791.61	215.28
791.93	215.19
792.25	215.08
792.57	215.30
792.89	215.19
793.21	215.24
793.54	215.08
793.86	215.06
794.18	215.06
794.50	214.94
794.82	214.94
795.14	215.07
795.47	215.06
795.79	215.08
796.11	214.96
796.43	214.95
796.75	214.83
797.07	214.91
797.39	214.79
797.71	214.48
798.04	214.52
798.36	214.46
798.68	214.43
799.00	214.52
799.32	214.35
799.64	214.35
799.96	214.30
800.28	214.40
800.60	214.36
800.92	214.37
801.24	214.30
801.56	214.30
801.89	214.16
802.21	214.18
802.53	214.10
802.85	214.17
803.17	214.30
803.49	214.28
803.81	214.15
804.13	214.11
804.45	214.06
804.77	214.03
805.09	214.05
805.41	214.02
805.73	213.85
806.05	213.78
806.37	213.81
806.69	213.75
807.01	213.77
807.33	213.77
807.65	213.60
807.97	213.86
808.28	213.78
808.60	213.81
808.92	213.71
809.24	213.92
809.56	213.84
809.88	213.73
810.20	213.70
810.52	213.75
810.84	213.72
811.16	213.65
811.48	213.58
811.80	213.67
812.12	213.64
812.43	213.82
812.75	213.79
813.07	213.68
813.39	213.74
813.71	213.56
814.03	213.52
814.35	213.48
814.67	213.25
814.98	213.22
815.30	213.18
815.62	213.16
815.94	212.88
816.26	212.85
816.58	212.68
816.89	212.69
817.21	212.66
817.53	212.58
817.85	212.70
818.17	212.71
818.48	212.55
818.80	212.61
819.12	212.50
819.44	212.40
819.76	212.37
820.07	212.29
820.39	212.30
820.71	212.20
821.03	212.28
821.34	212.21
821.66	212.27
821.98	212.30
822.30	212.23
822.61	212.46
822.93	212.46
823.25	212.47
823.57	212.43
823.88	212.45
824.20	212.43
824.52	212.38
824.83	212.32
825.15	212.28
825.47	212.25
825.79	212.20
826.10	212.14
826.42	212.11
826.74	212.22
827.05	212.19
827.37	212.27
827.69	212.20
828.00	212.28
828.32	212.26
828.64	212.18
828.95	212.41
829.27	212.25
829.58	212.21
829.90	212.28
830.22	212.30
830.53	212.23
830.85	212.24
831.17	212.13
831.48	212.14
831.80	212.19
832.11	212.18
832.43	212.10
832.75	212.11
833.06	212.32
833.38	212.10
833.69	212.13
834.01	212.20
834.32	212.19
834.64	212.09
834.96	212.08
835.27	212.15
835.59	211.97
835.90	211.90
836.22	211.86
836.53	211.75
836.85	211.71
837.16	212.07
837.48	212.05
837.79	212.26
838.11	212.28
838.42	212.21
838.74	212.18
839.05	212.19
839.37	212.21
839.68	212.01
840.00	212.01
840.31	212.04
840.63	211.92
840.94	211.93
841.26	211.88
841.57	211.86
841.88	211.90
842.20	211.86
842.51	211.84
842.83	211.88
843.14	212.25
843.46	212.31
843.77	212.11
844.08	212.16
844.40	212.02
844.71	212.00
845.03	212.00
845.34	212.03
845.65	212.07
845.97	212.11
846.28	212.11
846.60	212.15
846.91	212.16
847.22	212.17
847.54	212.23
847.85	212.25
848.16	212.21
848.48	212.13
848.79	212.32
849.10	212.34
849.42	212.40
849.73	212.09
850.04	212.00
850.36	211.88
850.67	211.92
850.98	211.92
851.30	211.95
851.61	211.91
851.92	211.97
852.23	212.05
852.55	212.05
852.86	212.03
853.17	212.03
853.49	212.00
853.80	212.07
854.11	212.05
854.42	212.09
854.74	212.07
855.05	212.02
855.36	211.80
855.67	211.86
855.99	211.80
856.30	212.17
856.61	212.09
856.92	212.06
857.23	212.00
857.55	211.95
857.86	211.95
858.17	212.09
858.48	211.94
858.79	211.90
859.11	211.90
859.42	211.92
859.73	211.92
860.04	211.91
860.35	211.81
860.66	211.67
860.98	211.66
861.29	211.72
861.60	211.73
861.91	211.77
862.22	211.67
862.53	211.58
862.84	211.16
863.16	211.32
863.47	211.23
863.78	211.23
864.09	211.20
864.40	211.16
864.71	211.08
865.02	211.20
865.33	211.13
865.64	211.05
865.95	211.07
866.27	211.29
866.58	211.27
866.89	211.38
867.20	211.45
867.51	211.41
867.82	211.40
868.13	211.48
868.44	211.45
868.75	211.52
869.06	211.62
869.37	211.64
869.68	211.51
869.99	211.59
870.30	211.60
870.61	211.67
870.92	211.61
871.23	211.59
871.54	211.55
871.85	211.61
872.16	211.70
872.47	211.67
872.78	211.43
873.09	211.43
873.40	211.25
873.71	211.25
874.02	211.33
874.33	211.28
874.64	211.19
874.95	211.22
875.26	211.16
875.56	211.12
875.87	211.10
876.18	211.11
876.49	211.43
876.80	211.40
877.11	211.34
877.42	211.40
877.73	211.41
878.04	211.35
878.35	211.38
878.66	211.36
878.96	211.34
879.27	211.34
879.58	211.38
879.89	211.46
880.20	211.54
880.51	211.50
880.82	211.45
881.12	211.47
881.43	211.42
881.74	211.35
882.05	211.34
882.36	211.34
882.67	211.40
882.97	211.08
883.28	211.04
883.59	211.08
883.90	211.10
884.21	211.20
884.51	211.18
884.82	211.06
885.13	211.03
885.44	210.98
885.74	211.05
886.05	211.00
886.36	211.00
886.67	210.88
886.98	211.05
887.28	211.09
887.59	211.06
887.90	211.03
888.20	211.02
888.51	211.07
888.82	211.02
889.13	211.07
889.43	211.31
889.74	211.29
890.05	211.27
890.35	211.23
890.66	211.08
890.97	211.11
891.28	211.08
891.58	211.14
891.89	211.22
892.20	211.03
892.50	210.95
892.81	210.96
893.12	210.93
893.42	210.71
893.73	210.76
894.04	210.78
894.34	210.87
894.65	210.81
894.95	210.68
895.26	210.73
895.57	210.86
895.87	210.55
896.18	210.55
896.48	210.59
896.79	210.50
897.10	210.57
897.40	210.51
897.71	210.60
898.01	210.55
898.32	210.51
898.63	210.61
898.93	210.70
899.24	210.69
899.54	210.70
899.85	210.68
900.15	210.66
900.46	210.74
900.76	210.71
901.07	210.80
901.38	210.91
901.68	210.93
901.99	210.82
902.29	210.83
902.60	210.86
902.90	210.80
903.21	210.86
903.51	210.81
903.82	210.88
904.12	210.88
904.43	210.89
904.73	210.89
905.03	210.89
905.34	211.16
905.64	211.11
905.95	211.17
906.25	211.14
906.56	211.10
906.86	211.09
907.17	211.05
907.47	211.07
907.77	211.00
908.08	211.02
908.38	211.01
908.69	211.00
908.99	211.09
909.30	211.10
909.60	211.04
909.90	211.13
910.21	211.12
910.51	211.11
910.81	211.13
911.12	211.13
911.42	211.16
911.73	210.85
912.03	210.88
912.33	210.95
912.64	211.04
912.94	211.02
913.24	210.93
913.55	210.91
913.85	210.85
914.15	210.98
914.46	211.01
914.76	210.93
915.06	210.93
915.37	210.87
915.67	210.83
915.97	210.94
916.27	210.87
916.58	210.81
916.88	210.71
917.18	210.64
917.49	210.96
917.79	210.96
918.09	211.03
918.39	211.17
918.70	211.09
919.00	211.03
919.30	211.20
919.60	211.20
919.91	211.25
920.21	211.31
920.51	211.21
920.81	211.12
921.12	211.24
921.42	211.28
921.72	211.19
922.02	211.24
922.32	211.26
922.63	211.23
922.93	211.45
923.23	211.52
923.53	211.52
923.83	211.20
924.13	211.20
924.44	211.17
924.74	211.23
925.04	211.33
925.34	211.35
925.64	211.23
925.94	211.22
926.24	211.35
926.55	211.36
926.85	211.35
927.15	211.40
927.45	211.24
927.75	211.27
928.05	211.31
928.35	211.30
928.65	211.32
928.95	211.35
929.26	211.25
929.56	211.31
929.86	211.35
930.16	211.38
930.46	211.31
930.76	211.31
931.06	211.10
931.36	211.00
931.66	211.07
931.96	211.12
932.26	211.20
932.56	211.11
932.86	211.11
933.16	211.15
933.46	211.12
933.76	211.16
934.06	211.17
934.36	211.36
934.66	211.36
934.96	211.25
935.26	211.26
935.56	211.23
935.86	211.14
936.16	211.09
936.46	211.01
936.76	211.09
937.06	211.03
937.36	211.03
937.66	210.99
937.96	210.97
938.26	210.83
938.56	210.76
938.86	210.74
939.16	210.80
939.46	210.83
939.76	210.87
940.06	210.88
940.35	210.82
940.65	210.62
940.95	210.60
941.25	210.64
941.55	210.58
941.85	210.60
942.15	210.68
942.45	210.82
942.75	210.90
943.04	210.84
943.34	210.96
943.64	210.96
943.94	210.93
944.24	210.83
944.54	210.89
944.84	210.90
945.13	210.85
945.43	210.83
945.73	210.79
946.03	210.74
946.33	210.70
946.62	210.74
946.92	210.77
947.22	210.85
947.52	210.84
947.82	210.90
948.11	210.86
948.41	210.80
948.71	210.68
949.01	210.66
949.31	210.60
949.60	210.55
949.90	210.62
950.20	210.70
950.50	210.80
950.79	210.87
951.09	210.89
951.39	210.91
951.69	210.79
951.98	210.84
952.28	210.81
952.58	210.81
952.87	210.79
953.17	210.82
953.47	210.77
953.76	210.76
954.06	210.70
954.36	210.70
954.66	210.68
954.95	210.76
955.25	210.81
955.55	210.83
955.84	210.77
956.14	210.85
956.44	210.77
956.73	210.76
957.03	210.71
957.32	210.71
957.62	210.69
957.92	210.75
958.21	210.79
958.51	211.20
958.81	211.26
959.10	211.31
959.40	211.37
959.69	211.34
959.99	211.34
960.29	211.34
960.58	211.30
960.88	211.36
961.17	211.32
961.47	211.27
961.76	211.27
962.06	211.35
962.36	211.24
962.65	211.24
962.95	211.23
963.24	211.17
963.54	211.20
963.83	211.27
964.13	211.24
964.42	211.13
964.72	210.87
965.01	210.83
965.31	210.78
965.60	210.61
965.90	210.84
966.19	210.75
966.49	210.81
966.78	210.77
967.08	210.83
967.37	210.90
967.67	210.93
967.96	211.06
968.26	211.07
968.55	211.13
968.85	211.20
969.14	211.17
969.43	211.21
969.73	211.19
970.02	211.10
970.32	211.18
970.61	211.16
970.91	211.03
971.20	211.03
971.49	210.98
971.79	211.09
972.08	210.90
972.38	211.04
972.67	211.01
972.96	211.11
973.26	211.02
973.55	211.03
973.85	211.04
974.14	211.00
974.43	211.02
974.73	210.99
975.02	211.01
975.31	211.02
975.61	211.03
975.90	210.98
976.19	210.96
976.49	210.94
976.78	211.00
977.07	211.10
977.37	211.08
977.66	211.20
977.95	211.19
978.24	211.24
978.54	211.29
978.83	211.26
979.12	211.30
979.42	211.34
979.71	211.26
980.00	211.25
980.29	211.29
980.59	211.26
980.88	211.29
981.17	211.25
981.46	211.22
981.76	211.27
982.05	211.37
982.34	211.45
982.63	211.48
982.93	211.48
983.22	211.54
983.51	211.61
983.80	211.63
984.09	211.65
984.39	211.56
984.68	211.52
984.97	211.52
985.26	211.48
985.55	211.48
985.85	211.50
986.14	211.50
986.43	211.45
986.72	211.40
987.01	211.32
987.30	211.37
987.59	211.39
987.89	211.39
988.18	211.30
988.47	211.31
988.76	211.30
989.05	211.26
989.34	211.22
989.63	211.26
989.92	211.18
990.22	211.16
990.51	211.17
990.80	211.13
991.09	211.20
991.38	211.18
991.67	211.14
991.96	211.01
992.25	211.07
992.54	210.97
992.83	210.95
993.12	210.96
993.41	211.02
993.70	211.21
993.99	211.21
994.28	211.26
994.58	211.32
994.87	211.23
995.16	211.25
995.45	211.18
995.74	211.11
996.03	211.18
996.32	211.24
996.61	211.30
996.90	211.28
997.19	211.25
997.48	211.30
997.77	211.26
998.06	211.36
998.34	211.30
998.63	211.35
998.92	211.38
999.21	211.27
999.50	211.20
999.79	211.00
1000.08	210.98
1000.37	210.98
1000.66	210.85
1000.95	210.95
1001.24	210.88
1001.53	210.90
1001.82	210.84
1002.11	210.78
1002.40	210.74
1002.68	210.79
1002.97	211.09
1003.26	211.02
1003.55	211.00
1003.84	211.08
1004.13	211.16
1004.42	211.18
1004.71	211.23
1004.99	211.14
1005.28	211.38
1005.57	211.36
1005.86	211.40
1006.15	211.42
1006.44	211.29
1006.72	211.38
1007.01	211.26
1007.30	211.32
1007.59	211.29
1007.88	211.27
1008.17	211.31
1008.45	211.26
1008.74	211.13
1009.03	210.90
1009.32	210.94
1009.60	210.95
1009.89	210.88
1010.18	210.76
1010.47	210.72
1010.76	210.66
1011.04	210.75
1011.33	210.73
1011.62	210.79
1011.91	210.76
1012.19	210.78
1012.48	210.84
1012.77	210.80
1013.05	210.98
1013.34	210.95
1013.63	210.92
1013.92	211.06
1014.20	210.98
1014.49	211.00
1014.78	211.11
1015.06	211.10
1015.35	211.16
1015.64	211.24
1015.92	211.25
1016.21	211.22
1016.50	211.21
1016.78	211.30
1017.07	211.25
1017.36	211.20
1017.64	211.07
1017.93	211.17
1018.22	211.08
1018.50	211.19
1018.79	211.19
1019.08	211.10
1019.36	211.15
1019.65	211.15
1019.93	211.15
1020.22	211.26
1020.51	211.43
1020.79	211.32
1021.08	209.85
1021.36	212.40
1021.65	211.00
1021.94	211.35
1022.22	211.20
1022.51	210.60
1022.79	212.15
1023.08	212.10
1023.36	214.75
1023.65	209.70
>>>>>End Processed Spectral Data<<<<<
