SpectraSuite Data File
++++++++++++++++++++++++++++++++++++
Date: Mon Feb 25 16:58:44 EST 2013
User: group
Dark Spectrum Present: No
Reference Spectrum Present: No
Number of Sampled Component Spectra: 1
Spectrometers: USB2E7196
Integration Time (usec): 104000 (USB2E7196)
Spectra Averaged: 20 (USB2E7196)
Boxcar Smoothing: 10 (USB2E7196)
Correct for Electrical Dark: No (USB2E7196)
Strobe/Lamp Enabled: No (USB2E7196)
Correct for Detector Non-linearity: No (USB2E7196)
Correct for Stray Light: No (USB2E7196)
Number of Pixels in Processed Spectrum: 2048
>>>>>Begin Processed Spectral Data<<<<<
339.09	0.00
339.48	197.95
339.86	200.20
340.24	201.65
340.63	203.05
341.01	208.80
341.39	205.65
341.78	207.30
342.16	208.15
342.54	209.25
342.93	198.32
343.31	208.34
343.69	208.89
344.07	209.36
344.46	209.80
344.84	210.19
345.22	210.28
345.60	210.53
345.99	210.65
346.37	210.79
346.75	210.90
347.13	210.91
347.52	210.90
347.90	211.08
348.28	211.10
348.66	211.22
349.05	211.11
349.43	211.21
349.81	211.34
350.19	211.45
350.57	211.42
350.96	211.58
351.34	211.66
351.72	211.78
352.10	211.90
352.48	212.04
352.87	212.08
353.25	212.12
353.63	212.22
354.01	212.36
354.39	212.48
354.77	212.55
355.15	212.70
355.54	212.74
355.92	212.72
356.30	212.84
356.68	213.05
357.06	213.16
357.44	213.17
357.82	213.26
358.20	213.30
358.58	213.34
358.97	213.35
359.35	213.50
359.73	213.66
360.11	213.61
360.49	213.65
360.87	213.68
361.25	213.79
361.63	213.94
362.01	214.00
362.39	213.95
362.77	214.00
363.15	213.95
363.53	213.95
363.91	213.98
364.29	213.95
364.67	213.73
365.05	213.82
365.43	213.82
365.81	213.85
366.19	214.00
366.57	214.12
366.95	214.25
367.33	214.13
367.71	214.12
368.09	214.27
368.47	214.24
368.85	214.24
369.23	214.37
369.61	214.16
369.99	214.25
370.37	214.33
370.75	214.38
371.13	214.35
371.51	214.34
371.89	214.33
372.27	214.42
372.65	214.40
373.03	214.31
373.41	214.27
373.78	214.19
374.16	214.01
374.54	213.85
374.92	213.70
375.30	213.73
375.68	213.53
376.06	213.48
376.44	213.37
376.82	213.40
377.19	213.25
377.57	213.26
377.95	213.10
378.33	212.99
378.71	212.81
379.09	212.87
379.47	212.82
379.84	212.70
380.22	212.48
380.60	212.36
380.98	212.27
381.36	212.11
381.73	212.04
382.11	212.02
382.49	211.95
382.87	211.89
383.25	211.76
383.62	212.16
384.00	212.09
384.38	211.99
384.76	211.96
385.13	212.10
385.51	212.06
385.89	211.94
386.27	211.89
386.64	211.89
387.02	211.76
387.40	211.70
387.78	211.71
388.15	211.77
388.53	211.74
388.91	211.69
389.29	211.68
389.66	211.74
390.04	211.63
390.42	211.67
390.79	211.68
391.17	211.63
391.55	211.22
391.92	211.13
392.30	211.23
392.68	211.15
393.05	211.08
393.43	211.00
393.81	211.04
394.18	211.00
394.56	211.09
394.94	211.17
395.31	211.17
395.69	211.32
396.06	211.36
396.44	211.43
396.82	211.46
397.19	211.71
397.57	211.62
397.95	211.76
398.32	211.71
398.70	211.68
399.07	211.89
399.45	211.90
399.82	211.97
400.20	211.92
400.58	211.97
400.95	211.86
401.33	212.01
401.70	212.31
402.08	212.43
402.45	212.38
402.83	212.52
403.20	212.68
403.58	212.68
403.95	212.88
404.33	213.00
404.71	213.13
405.08	213.53
405.46	213.77
405.83	213.99
406.21	214.27
406.58	214.60
406.96	214.87
407.33	215.23
407.70	215.65
408.08	216.31
408.45	216.78
408.83	217.29
409.20	217.73
409.58	217.90
409.95	218.45
410.33	219.09
410.70	219.59
411.08	220.26
411.45	220.96
411.82	221.58
412.20	222.47
412.57	223.60
412.95	224.12
413.32	225.15
413.69	226.15
414.07	227.15
414.44	228.35
414.82	229.49
415.19	230.99
415.56	232.33
415.94	233.80
416.31	235.45
416.68	237.19
417.06	239.18
417.43	241.26
417.81	243.40
418.18	245.60
418.55	248.03
418.93	250.60
419.30	253.22
419.67	256.05
420.04	258.94
420.42	261.88
420.79	265.51
421.16	269.10
421.54	272.94
421.91	276.84
422.28	280.80
422.66	285.13
423.03	289.33
423.40	293.78
423.77	298.48
424.15	303.24
424.52	308.16
424.89	313.57
425.26	318.69
425.64	323.74
426.01	329.26
426.38	335.13
426.75	340.96
427.13	347.06
427.50	353.51
427.87	360.26
428.24	366.98
428.61	373.31
428.99	380.41
429.36	387.98
429.73	395.55
430.10	403.20
430.47	410.90
430.85	418.93
431.22	427.62
431.59	436.65
431.96	445.31
432.33	455.10
432.70	464.47
433.08	475.60
433.45	486.19
433.82	496.61
434.19	508.12
434.56	519.50
434.93	530.62
435.30	541.62
435.68	553.98
436.05	566.18
436.42	578.31
436.79	589.37
437.16	601.57
437.53	614.34
437.90	626.92
438.27	639.50
438.64	652.54
439.01	664.61
439.38	675.58
439.75	686.36
440.13	698.34
440.50	709.82
440.87	719.43
441.24	729.19
441.61	740.08
441.98	748.35
442.35	758.08
442.72	767.63
443.09	777.05
443.46	782.89
443.83	787.09
444.20	790.98
444.57	796.37
444.94	799.10
445.31	802.22
445.68	805.15
446.05	806.93
446.42	806.68
446.79	806.05
447.16	805.27
447.53	804.96
447.90	801.22
448.27	797.57
448.64	791.78
449.01	788.00
449.37	780.55
449.74	773.37
450.11	764.65
450.48	754.90
450.85	744.96
451.22	736.67
451.59	728.72
451.96	721.08
452.33	710.50
452.70	701.14
453.07	689.54
453.43	677.93
453.80	666.82
454.17	656.02
454.54	645.81
454.91	634.77
455.28	623.94
455.65	613.93
456.02	603.91
456.38	595.42
456.75	584.62
457.12	575.76
457.49	566.87
457.86	558.09
458.23	550.80
458.59	542.69
458.96	534.28
459.33	527.11
459.70	519.83
460.07	514.05
460.43	507.42
460.80	501.09
461.17	495.64
461.54	489.60
461.91	484.01
462.27	478.41
462.64	473.65
463.01	468.39
463.38	463.25
463.74	458.05
464.11	453.69
464.48	449.77
464.85	445.36
465.21	442.19
465.58	438.71
465.95	434.51
466.32	430.98
466.68	427.42
467.05	423.81
467.42	420.32
467.78	416.52
468.15	413.00
468.52	410.48
468.88	407.08
469.25	404.14
469.62	401.71
469.98	399.03
470.35	396.54
470.72	394.35
471.08	391.87
471.45	389.64
471.82	387.40
472.18	385.01
472.55	383.29
472.92	381.11
473.28	379.30
473.65	377.45
474.02	375.56
474.38	374.09
474.75	372.87
475.11	371.47
475.48	370.56
475.85	369.55
476.21	368.57
476.58	367.76
476.94	367.17
477.31	366.47
477.67	365.80
478.04	365.21
478.41	364.77
478.77	364.68
479.14	364.22
479.50	364.07
479.87	364.06
480.23	364.08
480.60	364.06
480.96	363.87
481.33	364.30
481.69	364.62
482.06	364.86
482.42	364.98
482.79	365.38
483.15	365.75
483.52	366.37
483.88	366.96
484.25	367.48
484.61	368.17
484.98	368.80
485.34	369.79
485.71	370.98
486.07	371.98
486.44	372.83
486.80	374.08
487.17	375.27
487.53	376.88
487.90	378.53
488.26	380.30
488.62	382.26
488.99	384.00
489.35	385.89
489.72	387.99
490.08	390.10
490.44	392.20
490.81	394.42
491.17	396.60
491.54	399.03
491.90	401.59
492.26	404.32
492.63	407.05
492.99	409.76
493.36	412.52
493.72	415.48
494.08	418.61
494.45	421.97
494.81	425.45
495.17	428.70
495.54	432.08
495.90	435.68
496.26	439.20
496.63	442.79
496.99	446.62
497.35	450.57
497.72	454.62
498.08	458.59
498.44	462.75
498.80	467.17
499.17	471.56
499.53	475.87
499.89	480.15
500.26	484.54
500.62	488.94
500.98	493.56
501.34	498.27
501.71	502.74
502.07	507.25
502.43	511.71
502.79	516.08
503.16	520.69
503.52	525.25
503.88	529.68
504.24	534.28
504.60	538.76
504.97	543.23
505.33	547.65
505.69	552.46
506.05	557.07
506.41	561.48
506.78	565.73
507.14	569.90
507.50	574.18
507.86	578.50
508.22	582.87
508.59	586.77
508.95	590.59
509.31	594.73
509.67	598.51
510.03	602.31
510.39	606.43
510.75	610.22
511.12	613.84
511.48	617.60
511.84	621.10
512.20	624.56
512.56	628.16
512.92	631.69
513.28	634.88
513.64	637.94
514.00	641.05
514.37	644.10
514.73	647.25
515.09	650.40
515.45	653.10
515.81	655.66
516.17	658.55
516.53	661.11
516.89	663.58
517.25	666.09
517.61	668.57
517.97	670.68
518.33	672.76
518.69	674.87
519.05	677.00
519.41	679.17
519.77	681.50
520.13	683.37
520.49	685.07
520.85	686.71
521.21	688.59
521.57	690.36
521.93	691.92
522.29	693.67
522.65	695.03
523.01	696.86
523.37	698.33
523.73	699.87
524.09	701.34
524.45	702.87
524.81	704.50
525.17	705.99
525.53	707.53
525.89	708.99
526.25	710.56
526.61	711.63
526.97	712.76
527.33	714.01
527.68	715.51
528.04	716.82
528.40	718.04
528.76	719.30
529.12	720.73
529.48	722.43
529.84	723.58
530.20	725.15
530.56	726.80
530.91	728.57
531.27	730.10
531.63	731.88
531.99	733.45
532.35	734.97
532.71	736.63
533.07	738.39
533.42	740.42
533.78	742.12
534.14	744.17
534.50	746.00
534.86	747.87
535.21	749.43
535.57	751.55
535.93	753.52
536.29	755.43
536.65	757.32
537.00	758.99
537.36	760.86
537.72	762.57
538.08	764.10
538.44	765.81
538.79	767.78
539.15	769.85
539.51	771.93
539.87	774.22
540.22	776.30
540.58	778.62
540.94	780.64
541.29	782.52
541.65	784.39
542.01	786.47
542.37	788.57
542.72	790.47
543.08	792.50
543.44	795.03
543.79	797.09
544.15	799.11
544.51	801.45
544.87	804.17
545.22	806.46
545.58	808.71
545.94	810.74
546.29	812.62
546.65	814.44
547.01	816.39
547.36	818.30
547.72	820.30
548.07	822.23
548.43	823.97
548.79	825.86
549.14	827.98
549.50	830.18
549.86	832.09
550.21	834.34
550.57	836.63
550.92	838.37
551.28	840.62
551.64	842.69
551.99	844.73
552.35	846.47
552.70	848.43
553.06	850.52
553.41	852.90
553.77	855.34
554.13	857.71
554.48	859.94
554.84	862.13
555.19	864.22
555.55	866.30
555.90	868.35
556.26	870.30
556.61	871.97
556.97	873.65
557.32	875.45
557.68	877.10
558.03	878.43
558.39	879.87
558.74	881.48
559.10	883.21
559.45	885.07
559.81	886.92
560.16	888.51
560.52	890.05
560.87	891.69
561.23	892.83
561.58	894.43
561.94	895.68
562.29	896.82
562.64	898.26
563.00	899.55
563.35	900.95
563.71	902.71
564.06	904.39
564.42	906.06
564.77	907.90
565.12	909.63
565.48	911.45
565.83	913.08
566.19	914.73
566.54	915.98
566.89	917.03
567.25	918.34
567.60	920.00
567.96	921.68
568.31	923.07
568.66	924.43
569.02	925.07
569.37	925.95
569.72	927.05
570.08	927.89
570.43	928.60
570.78	929.44
571.14	929.76
571.49	930.00
571.84	930.40
572.20	930.36
572.55	930.51
572.90	930.49
573.26	930.40
573.61	930.10
573.96	930.07
574.31	929.76
574.67	929.35
575.02	928.62
575.37	927.78
575.72	926.59
576.08	925.91
576.43	925.18
576.78	924.70
577.13	923.99
577.49	923.38
577.84	922.76
578.19	921.97
578.54	921.56
578.90	921.46
579.25	920.81
579.60	919.81
579.95	918.59
580.30	917.71
580.66	916.92
581.01	915.72
581.36	914.50
581.71	913.35
582.06	912.14
582.42	910.97
582.77	909.52
583.12	908.34
583.47	907.13
583.82	906.08
584.17	904.73
584.53	903.39
584.88	901.77
585.23	900.24
585.58	898.64
585.93	896.85
586.28	895.09
586.63	893.25
586.98	891.70
587.34	890.66
587.69	888.76
588.04	887.20
588.39	885.93
588.74	884.12
589.09	882.54
589.44	880.65
589.79	878.99
590.14	877.46
590.49	875.89
590.84	873.91
591.19	872.43
591.54	870.61
591.89	868.33
592.25	866.74
592.60	864.66
592.95	862.51
593.30	860.26
593.65	857.84
594.00	855.55
594.35	854.42
594.70	851.83
595.05	849.82
595.40	847.56
595.75	844.77
596.10	842.92
596.45	840.99
596.80	838.97
597.15	836.89
597.50	834.45
597.85	832.23
598.19	830.06
598.54	827.55
598.89	825.36
599.24	823.63
599.59	821.08
599.94	818.87
600.29	816.64
600.64	814.51
600.99	812.22
601.34	810.22
601.69	807.01
602.04	804.73
602.39	802.33
602.74	800.19
603.08	798.24
603.43	796.17
603.78	793.72
604.13	791.45
604.48	789.12
604.83	787.35
605.18	785.49
605.53	783.24
605.87	780.95
606.22	778.63
606.57	776.00
606.92	773.59
607.27	771.05
607.62	768.65
607.96	766.43
608.31	764.33
608.66	761.87
609.01	759.21
609.36	756.72
609.70	754.12
610.05	751.26
610.40	748.55
610.75	745.54
611.10	742.97
611.44	739.92
611.79	736.88
612.14	733.75
612.49	730.40
612.83	727.51
613.18	724.28
613.53	721.47
613.88	718.47
614.22	715.55
614.57	712.81
614.92	709.99
615.27	707.11
615.61	704.08
615.96	701.35
616.31	698.77
616.65	696.16
617.00	693.37
617.35	690.66
617.70	687.72
618.04	684.77
618.39	681.53
618.74	678.84
619.08	676.15
619.43	673.38
619.78	670.66
620.12	667.98
620.47	665.46
620.82	662.17
621.16	659.36
621.51	656.65
621.85	653.84
622.20	651.01
622.55	648.05
622.89	645.11
623.24	642.15
623.59	639.14
623.93	636.29
624.28	633.65
624.62	631.18
624.97	628.69
625.32	625.85
625.66	623.28
626.01	620.55
626.35	617.84
626.70	615.02
627.04	612.54
627.39	609.73
627.73	607.26
628.08	605.01
628.43	602.30
628.77	599.59
629.12	596.85
629.46	594.25
629.81	591.77
630.15	589.26
630.50	586.59
630.84	584.03
631.19	581.39
631.53	578.80
631.88	575.97
632.22	573.27
632.57	571.04
632.91	568.52
633.26	566.10
633.60	563.51
633.95	561.23
634.29	558.59
634.64	556.35
634.98	553.71
635.32	551.37
635.67	549.27
636.01	546.87
636.36	544.52
636.70	542.39
637.05	539.99
637.39	537.80
637.73	535.58
638.08	533.56
638.42	531.40
638.77	529.38
639.11	527.08
639.45	524.85
639.80	522.52
640.14	520.33
640.49	518.02
640.83	515.92
641.17	513.69
641.52	511.44
641.86	509.06
642.20	507.04
642.55	504.64
642.89	502.35
643.23	500.09
643.58	498.05
643.92	495.61
644.26	493.41
644.61	491.17
644.95	489.00
645.29	486.64
645.64	484.37
645.98	482.06
646.32	480.04
646.66	477.78
647.01	475.73
647.35	473.74
647.69	471.68
648.04	469.55
648.38	467.40
648.72	465.32
649.06	463.28
649.41	461.06
649.75	458.90
650.09	456.92
650.43	454.99
650.78	452.80
651.12	450.79
651.46	448.79
651.80	446.81
652.14	444.84
652.49	442.87
652.83	440.95
653.17	438.73
653.51	436.69
653.85	434.87
654.20	432.90
654.54	430.68
654.88	428.71
655.22	426.75
655.56	424.68
655.90	422.64
656.25	420.54
656.59	418.54
656.93	416.70
657.27	414.79
657.61	412.83
657.95	410.97
658.29	409.18
658.64	407.37
658.98	405.54
659.32	403.60
659.66	401.80
660.00	399.93
660.34	398.14
660.68	396.27
661.02	394.39
661.36	392.57
661.70	390.98
662.05	389.26
662.39	387.81
662.73	386.33
663.07	384.93
663.41	383.38
663.75	381.65
664.09	380.03
664.43	378.31
664.77	376.83
665.11	375.22
665.45	373.72
665.79	372.27
666.13	370.66
666.47	369.18
666.81	367.66
667.15	366.19
667.49	364.91
667.83	363.63
668.17	362.26
668.51	360.89
668.85	359.52
669.19	358.30
669.53	356.61
669.87	355.16
670.21	353.83
670.55	352.57
670.89	351.61
671.23	350.45
671.57	349.31
671.91	348.02
672.25	346.89
672.58	345.67
672.92	344.35
673.26	343.23
673.60	342.10
673.94	341.02
674.28	339.81
674.62	338.64
674.96	337.46
675.30	336.40
675.64	335.29
675.97	334.11
676.31	332.98
676.65	331.95
676.99	331.03
677.33	329.81
677.67	328.74
678.01	327.41
678.34	326.24
678.68	325.20
679.02	324.01
679.36	322.77
679.70	321.71
680.04	320.68
680.37	319.55
680.71	318.46
681.05	317.46
681.39	316.50
681.73	315.45
682.06	314.46
682.40	313.49
682.74	312.54
683.08	311.75
683.42	310.63
683.75	309.79
684.09	308.67
684.43	307.71
684.77	306.73
685.10	305.82
685.44	304.97
685.78	303.92
686.12	303.13
686.45	302.35
686.79	301.41
687.13	300.68
687.46	299.88
687.80	299.14
688.14	298.17
688.48	297.34
688.81	296.48
689.15	295.71
689.49	294.81
689.82	293.97
690.16	292.90
690.50	292.09
690.83	291.20
691.17	290.27
691.51	289.43
691.84	288.66
692.18	287.87
692.52	287.06
692.85	286.38
693.19	285.72
693.52	284.89
693.86	283.98
694.20	283.14
694.53	282.36
694.87	281.53
695.21	280.80
695.54	280.04
695.88	279.25
696.21	278.37
696.55	277.73
696.88	276.94
697.22	276.32
697.56	275.72
697.89	275.02
698.23	274.50
698.56	273.85
698.90	273.23
699.23	272.51
699.57	271.83
699.90	271.15
700.24	270.33
700.58	269.74
700.91	269.30
701.25	268.91
701.58	268.43
701.92	267.91
702.25	267.26
702.59	266.65
702.92	266.05
703.26	265.47
703.59	264.87
703.93	264.66
704.26	264.10
704.60	263.44
704.93	262.83
705.26	262.12
705.60	261.57
705.93	260.92
706.27	260.46
706.60	260.11
706.94	259.79
707.27	259.23
707.61	258.73
707.94	258.23
708.27	257.42
708.61	256.77
708.94	256.28
709.28	255.81
709.61	255.33
709.94	254.96
710.28	254.51
710.61	254.10
710.95	253.29
711.28	253.02
711.61	252.68
711.95	252.43
712.28	252.01
712.61	251.68
712.95	251.39
713.28	251.18
713.61	250.68
713.95	250.14
714.28	249.86
714.61	249.41
714.95	248.91
715.28	248.50
715.61	248.11
715.95	247.68
716.28	247.30
716.61	247.00
716.95	246.64
717.28	246.30
717.61	245.86
717.94	245.60
718.28	245.05
718.61	244.58
718.94	244.13
719.27	243.85
719.61	243.47
719.94	243.11
720.27	242.55
720.60	242.20
720.94	241.84
721.27	241.48
721.60	241.25
721.93	240.92
722.27	240.76
722.60	240.59
722.93	240.32
723.26	240.13
723.59	239.70
723.93	239.33
724.26	239.08
724.59	238.77
724.92	238.42
725.25	238.32
725.59	238.12
725.92	237.95
726.25	237.74
726.58	237.55
726.91	237.29
727.24	237.13
727.57	236.80
727.91	236.46
728.24	236.26
728.57	235.98
728.90	235.85
729.23	235.45
729.56	235.29
729.89	234.98
730.22	234.69
730.55	234.47
730.89	234.23
731.22	233.89
731.55	233.64
731.88	233.49
732.21	233.06
732.54	232.78
732.87	232.46
733.20	232.21
733.53	231.99
733.86	231.81
734.19	231.50
734.52	231.46
734.85	231.51
735.18	231.24
735.51	231.10
735.84	230.91
736.17	230.87
736.50	230.50
736.83	230.80
737.16	230.55
737.49	230.43
737.82	230.23
738.15	230.15
738.48	229.92
738.81	229.68
739.14	229.51
739.47	229.32
739.80	229.17
740.13	228.96
740.46	228.63
740.79	228.28
741.12	228.15
741.45	227.82
741.78	227.49
742.11	227.39
742.44	227.13
742.77	226.96
743.10	226.74
743.43	226.60
743.75	225.99
744.08	226.26
744.41	226.07
744.74	225.95
745.07	225.61
745.40	225.59
745.73	225.58
746.06	225.42
746.39	225.29
746.71	225.08
747.04	224.92
747.37	224.83
747.70	224.90
748.03	224.66
748.36	224.58
748.68	224.40
749.01	224.19
749.34	224.11
749.67	224.03
750.00	223.91
750.33	224.00
750.65	223.89
750.98	223.40
751.31	223.25
751.64	223.16
751.97	223.31
752.29	223.08
752.62	222.78
752.95	222.64
753.28	222.47
753.60	222.37
753.93	222.39
754.26	222.30
754.59	222.02
754.91	221.95
755.24	221.89
755.57	221.80
755.90	221.74
756.22	221.61
756.55	221.39
756.88	221.30
757.20	220.91
757.53	220.75
757.86	220.70
758.19	220.64
758.51	220.52
758.84	220.27
759.17	220.23
759.49	220.13
759.82	220.33
760.15	220.30
760.47	220.18
760.80	220.05
761.13	219.99
761.45	219.94
761.78	219.88
762.11	219.77
762.43	219.70
762.76	219.58
763.08	219.54
763.41	219.50
763.74	219.37
764.06	219.32
764.39	219.18
764.71	218.98
765.04	218.84
765.37	218.69
765.69	218.58
766.02	218.43
766.34	218.37
766.67	218.10
767.00	218.09
767.32	218.16
767.65	218.18
767.97	218.08
768.30	218.02
768.62	217.96
768.95	217.87
769.27	217.76
769.60	217.74
769.92	217.57
770.25	217.44
770.57	217.28
770.90	217.22
771.22	217.18
771.55	217.21
771.87	217.23
772.20	217.21
772.52	217.47
772.85	217.83
773.17	217.74
773.50	217.73
773.82	217.63
774.15	217.44
774.47	217.22
774.80	217.11
775.12	217.05
775.45	216.95
775.77	216.83
776.09	216.84
776.42	216.70
776.74	216.83
777.07	216.77
777.39	216.82
777.72	216.73
778.04	216.68
778.36	216.56
778.69	216.50
779.01	216.41
779.33	216.07
779.66	215.68
779.98	215.65
780.31	215.48
780.63	215.61
780.95	215.65
781.28	215.58
781.60	215.55
781.92	215.54
782.25	215.48
782.57	215.40
782.89	215.34
783.22	215.32
783.54	215.18
783.86	215.13
784.19	215.00
784.51	215.05
784.83	215.06
785.16	215.00
785.48	214.99
785.80	214.99
786.12	214.97
786.45	214.88
786.77	214.86
787.09	214.82
787.42	214.57
787.74	214.48
788.06	214.45
788.38	214.40
788.71	214.26
789.03	214.30
789.35	214.40
789.67	214.32
789.99	214.34
790.32	214.25
790.64	214.27
790.96	214.55
791.28	214.41
791.61	214.30
791.93	214.35
792.25	214.26
792.57	214.55
792.89	214.50
793.21	214.57
793.54	214.55
793.86	214.53
794.18	214.56
794.50	214.52
794.82	214.55
795.14	214.56
795.47	214.64
795.79	214.57
796.11	214.47
796.43	214.40
796.75	214.33
797.07	214.36
797.39	214.35
797.71	214.07
798.04	214.07
798.36	214.14
798.68	213.96
799.00	214.01
799.32	213.76
799.64	213.80
799.96	213.70
800.28	213.72
800.60	213.65
800.92	213.74
801.24	213.70
801.56	213.69
801.89	213.67
802.21	213.63
802.53	213.56
802.85	213.61
803.17	213.78
803.49	213.73
803.81	213.69
804.13	213.62
804.45	213.54
804.77	213.50
805.09	213.42
805.41	213.51
805.73	213.42
806.05	213.24
806.37	213.15
806.69	213.09
807.01	213.10
807.33	213.17
807.65	212.94
807.97	213.09
808.28	213.01
808.60	212.97
808.92	212.96
809.24	213.16
809.56	213.10
809.88	212.97
810.20	212.97
810.52	213.04
810.84	213.06
811.16	213.07
811.48	213.10
811.80	213.22
812.12	213.19
812.43	213.21
812.75	213.31
813.07	213.22
813.39	213.35
813.71	213.29
814.03	213.25
814.35	213.23
814.67	213.03
814.98	213.00
815.30	213.01
815.62	212.92
815.94	212.66
816.26	212.64
816.58	212.50
816.89	212.52
817.21	212.34
817.53	212.30
817.85	212.28
818.17	212.29
818.48	212.15
818.80	212.18
819.12	212.12
819.44	212.02
819.76	212.03
820.07	211.98
820.39	211.97
820.71	211.91
821.03	211.94
821.34	211.93
821.66	211.98
821.98	212.00
822.30	211.94
822.61	212.13
822.93	212.13
823.25	212.15
823.57	212.05
823.88	212.18
824.20	212.17
824.52	212.21
824.83	212.16
825.15	212.07
825.47	212.04
825.79	212.11
826.10	212.10
826.42	212.01
826.74	212.03
827.05	211.97
827.37	212.01
827.69	212.01
828.00	212.05
828.32	212.04
828.64	212.01
828.95	212.23
829.27	212.18
829.58	212.21
829.90	212.30
830.22	212.35
830.53	212.21
830.85	212.16
831.17	212.15
831.48	212.16
831.80	212.23
832.11	212.17
832.43	212.05
832.75	212.03
833.06	212.35
833.38	212.26
833.69	212.24
834.01	212.27
834.32	212.21
834.64	212.19
834.96	212.15
835.27	212.15
835.59	212.02
835.90	211.87
836.22	211.80
836.53	211.70
836.85	211.74
837.16	212.10
837.48	212.14
837.79	212.18
838.11	212.15
838.42	212.17
838.74	212.24
839.05	212.23
839.37	212.23
839.68	211.99
840.00	211.97
840.31	212.04
840.63	211.98
840.94	211.96
841.26	211.87
841.57	211.99
841.88	211.93
842.20	211.90
842.51	211.93
842.83	211.90
843.14	212.23
843.46	212.21
843.77	212.09
844.08	212.05
844.40	211.96
844.71	211.91
845.03	211.89
845.34	211.91
845.65	211.92
845.97	211.88
846.28	211.85
846.60	211.88
846.91	211.82
847.22	211.86
847.54	211.98
847.85	212.02
848.16	211.86
848.48	211.80
848.79	211.97
849.10	212.00
849.42	212.10
849.73	211.75
850.04	211.74
850.36	211.51
850.67	211.57
850.98	211.59
851.30	211.67
851.61	211.65
851.92	211.60
852.23	211.64
852.55	211.68
852.86	211.70
853.17	211.66
853.49	211.72
853.80	211.76
854.11	211.73
854.42	211.78
854.74	211.77
855.05	211.82
855.36	211.59
855.67	211.52
855.99	211.47
856.30	211.76
856.61	211.72
856.92	211.78
857.23	211.81
857.55	211.74
857.86	211.70
858.17	211.76
858.48	211.73
858.79	211.73
859.11	211.75
859.42	211.81
859.73	211.77
860.04	211.76
860.35	211.59
860.66	211.51
860.98	211.48
861.29	211.55
861.60	211.53
861.91	211.55
862.22	211.54
862.53	211.39
862.84	211.13
863.16	211.23
863.47	211.24
863.78	211.16
864.09	211.23
864.40	211.27
864.71	211.22
865.02	211.25
865.33	211.21
865.64	211.19
865.95	211.10
866.27	211.34
866.58	211.27
866.89	211.37
867.20	211.40
867.51	211.34
867.82	211.33
868.13	211.41
868.44	211.42
868.75	211.49
869.06	211.63
869.37	211.63
869.68	211.48
869.99	211.49
870.30	211.50
870.61	211.54
870.92	211.39
871.23	211.35
871.54	211.33
871.85	211.37
872.16	211.41
872.47	211.44
872.78	211.27
873.09	211.30
873.40	211.29
873.71	211.31
874.02	211.33
874.33	211.26
874.64	211.27
874.95	211.33
875.26	211.32
875.56	211.30
875.87	211.33
876.18	211.39
876.49	211.68
876.80	211.69
877.11	211.60
877.42	211.77
877.73	211.75
878.04	211.80
878.35	211.81
878.66	211.79
878.96	211.76
879.27	211.76
879.58	211.79
879.89	211.78
880.20	211.87
880.51	211.83
880.82	211.82
881.12	211.75
881.43	211.73
881.74	211.70
882.05	211.64
882.36	211.61
882.67	211.62
882.97	211.29
883.28	211.23
883.59	211.23
883.90	211.22
884.21	211.32
884.51	211.25
884.82	211.21
885.13	211.23
885.44	211.24
885.74	211.20
886.05	211.16
886.36	211.17
886.67	211.06
886.98	211.32
887.28	211.32
887.59	211.32
887.90	211.27
888.20	211.25
888.51	211.33
888.82	211.38
889.13	211.36
889.43	211.67
889.74	211.61
890.05	211.63
890.35	211.55
890.66	211.45
890.97	211.40
891.28	211.33
891.58	211.30
891.89	211.29
892.20	211.28
892.50	211.30
892.81	211.20
893.12	211.21
893.42	210.97
893.73	210.98
894.04	210.93
894.34	210.95
894.65	210.92
894.95	210.91
895.26	210.81
895.57	211.00
895.87	210.63
896.18	210.77
896.48	210.75
896.79	210.73
897.10	210.84
897.40	210.88
897.71	210.97
898.01	211.00
898.32	211.02
898.63	211.01
898.93	211.05
899.24	211.09
899.54	211.10
899.85	211.11
900.15	211.12
900.46	211.14
900.76	211.21
901.07	211.18
901.38	211.19
901.68	211.31
901.99	211.13
902.29	211.18
902.60	211.17
902.90	211.18
903.21	211.18
903.51	211.11
903.82	211.21
904.12	211.22
904.43	211.24
904.73	211.22
905.03	211.29
905.34	211.55
905.64	211.46
905.95	211.39
906.25	211.45
906.56	211.41
906.86	211.41
907.17	211.33
907.47	211.37
907.77	211.32
908.08	211.18
908.38	211.24
908.69	211.27
908.99	211.30
909.30	211.29
909.60	211.35
909.90	211.40
910.21	211.30
910.51	211.26
910.81	211.24
911.12	211.27
911.42	211.19
911.73	210.85
912.03	210.91
912.33	211.05
912.64	210.99
912.94	211.06
913.24	211.00
913.55	211.03
913.85	211.04
914.15	211.10
914.46	211.18
914.76	211.16
915.06	211.14
915.37	211.10
915.67	211.11
915.97	211.06
916.27	210.94
916.58	210.95
916.88	210.95
917.18	210.92
917.49	211.17
917.79	211.21
918.09	211.27
918.39	211.44
918.70	211.35
919.00	211.34
919.30	211.49
919.60	211.55
919.91	211.50
920.21	211.52
920.51	211.44
920.81	211.45
921.12	211.50
921.42	211.48
921.72	211.52
922.02	211.50
922.32	211.66
922.63	211.69
922.93	211.90
923.23	211.89
923.53	211.82
923.83	211.56
924.13	211.56
924.44	211.60
924.74	211.56
925.04	211.66
925.34	211.66
925.64	211.48
925.94	211.48
926.24	211.67
926.55	211.60
926.85	211.64
927.15	211.65
927.45	211.66
927.75	211.65
928.05	211.66
928.35	211.69
928.65	211.67
928.95	211.65
929.26	211.46
929.56	211.56
929.86	211.65
930.16	211.62
930.46	211.59
930.76	211.48
931.06	211.35
931.36	211.29
931.66	211.33
931.96	211.32
932.26	211.35
932.56	211.26
932.86	211.34
933.16	211.36
933.46	211.22
933.76	211.05
934.06	211.18
934.36	211.20
934.66	211.15
934.96	211.09
935.26	211.16
935.56	211.17
935.86	211.06
936.16	210.94
936.46	210.96
936.76	210.98
937.06	210.94
937.36	210.99
937.66	211.01
937.96	211.03
938.26	211.01
938.56	210.98
938.86	210.96
939.16	210.93
939.46	210.91
939.76	210.98
940.06	211.00
940.35	210.90
940.65	210.80
940.95	210.82
941.25	210.71
941.55	210.66
941.85	210.71
942.15	210.75
942.45	210.90
942.75	210.88
943.04	210.85
943.34	210.98
943.64	210.88
943.94	210.71
944.24	210.62
944.54	210.63
944.84	210.65
945.13	210.53
945.43	210.54
945.73	210.56
946.03	210.58
946.33	210.65
946.62	210.55
946.92	210.55
947.22	210.53
947.52	210.57
947.82	210.65
948.11	210.57
948.41	210.51
948.71	210.37
949.01	210.41
949.31	210.38
949.60	210.34
949.90	210.43
950.20	210.47
950.50	210.50
950.79	210.52
951.09	210.56
951.39	210.59
951.69	210.55
951.98	210.57
952.28	210.59
952.58	210.62
952.87	210.70
953.17	210.75
953.47	210.76
953.76	210.76
954.06	210.63
954.36	210.57
954.66	210.58
954.95	210.70
955.25	210.69
955.55	210.78
955.84	210.79
956.14	210.83
956.44	210.94
956.73	210.91
957.03	210.90
957.32	210.85
957.62	210.86
957.92	210.95
958.21	210.98
958.51	211.39
958.81	211.35
959.10	211.40
959.40	211.51
959.69	211.50
959.99	211.56
960.29	211.66
960.58	211.70
960.88	211.84
961.17	211.83
961.47	211.92
961.76	211.92
962.06	211.90
962.36	211.87
962.65	211.80
962.95	211.82
963.24	211.80
963.54	211.84
963.83	211.88
964.13	211.86
964.42	211.76
964.72	211.42
965.01	211.45
965.31	211.41
965.60	211.24
965.90	211.42
966.19	211.37
966.49	211.35
966.78	211.36
967.08	211.29
967.37	211.25
967.67	211.09
967.96	211.18
968.26	211.19
968.55	211.23
968.85	211.25
969.14	211.30
969.43	211.25
969.73	211.29
970.02	211.25
970.32	211.25
970.61	211.22
970.91	211.12
971.20	211.07
971.49	210.98
971.79	211.06
972.08	210.78
972.38	210.77
972.67	210.73
972.96	210.73
973.26	210.71
973.55	210.87
973.85	210.94
974.14	210.88
974.43	210.89
974.73	210.80
975.02	210.73
975.31	210.67
975.61	210.75
975.90	210.60
976.19	210.56
976.49	210.55
976.78	210.60
977.07	210.65
977.37	210.65
977.66	210.73
977.95	210.67
978.24	210.79
978.54	210.87
978.83	210.86
979.12	210.85
979.42	210.85
979.71	210.76
980.00	210.68
980.29	210.68
980.59	210.61
980.88	210.65
981.17	210.68
981.46	210.73
981.76	210.68
982.05	210.90
982.34	210.82
982.63	210.83
982.93	210.84
983.22	210.87
983.51	210.84
983.80	210.90
984.09	210.99
984.39	210.94
984.68	210.92
984.97	210.96
985.26	210.94
985.55	210.98
985.85	210.98
986.14	211.07
986.43	211.06
986.72	211.11
987.01	211.03
987.30	211.06
987.59	211.06
987.89	211.05
988.18	210.87
988.47	210.95
988.76	210.90
989.05	210.85
989.34	210.80
989.63	210.89
989.92	210.85
990.22	210.75
990.51	210.75
990.80	210.69
991.09	210.66
991.38	210.75
991.67	210.62
991.96	210.52
992.25	210.55
992.54	210.50
992.83	210.45
993.12	210.45
993.41	210.50
993.70	210.60
993.99	210.72
994.28	210.80
994.58	210.92
994.87	210.92
995.16	210.90
995.45	210.86
995.74	210.71
996.03	210.74
996.32	210.78
996.61	210.92
996.90	210.94
997.19	210.98
997.48	210.91
997.77	210.96
998.06	210.98
998.34	210.91
998.63	210.93
998.92	210.95
999.21	211.10
999.50	211.12
999.79	211.01
1000.08	211.02
1000.37	211.07
1000.66	211.00
1000.95	211.16
1001.24	211.22
1001.53	211.27
1001.82	211.32
1002.11	211.19
1002.40	211.25
1002.68	211.23
1002.97	211.43
1003.26	211.39
1003.55	211.36
1003.84	211.36
1004.13	211.49
1004.42	211.50
1004.71	211.51
1004.99	211.46
1005.28	211.50
1005.57	211.37
1005.86	211.28
1006.15	211.17
1006.44	211.04
1006.72	211.05
1007.01	210.94
1007.30	210.96
1007.59	210.97
1007.88	210.96
1008.17	211.01
1008.45	210.97
1008.74	210.88
1009.03	210.79
1009.32	210.84
1009.60	210.86
1009.89	210.84
1010.18	210.70
1010.47	210.62
1010.76	210.61
1011.04	210.60
1011.33	210.60
1011.62	210.65
1011.91	210.77
1012.19	210.84
1012.48	210.93
1012.77	210.88
1013.05	211.02
1013.34	211.00
1013.63	210.97
1013.92	211.07
1014.20	211.01
1014.49	211.10
1014.78	211.09
1015.06	210.91
1015.35	210.85
1015.64	210.79
1015.92	210.81
1016.21	210.84
1016.50	210.87
1016.78	210.91
1017.07	210.96
1017.36	210.87
1017.64	210.87
1017.93	210.88
1018.22	210.83
1018.50	210.82
1018.79	210.87
1019.08	210.72
1019.36	210.74
1019.65	210.68
1019.93	210.70
1020.22	210.75
1020.51	210.84
1020.79	210.84
1021.08	210.35
1021.36	211.10
1021.65	211.65
1021.94	210.70
1022.22	211.20
1022.51	209.85
1022.79	212.20
1023.08	210.25
1023.36	215.10
1023.65	210.40
>>>>>End Processed Spectral Data<<<<<
