SpectraSuite Data File
++++++++++++++++++++++++++++++++++++
Date: Mon Feb 25 17:06:25 EST 2013
User: group
Dark Spectrum Present: No
Reference Spectrum Present: No
Number of Sampled Component Spectra: 1
Spectrometers: USB2E7196
Integration Time (usec): 104000 (USB2E7196)
Spectra Averaged: 20 (USB2E7196)
Boxcar Smoothing: 10 (USB2E7196)
Correct for Electrical Dark: No (USB2E7196)
Strobe/Lamp Enabled: No (USB2E7196)
Correct for Detector Non-linearity: No (USB2E7196)
Correct for Stray Light: No (USB2E7196)
Number of Pixels in Processed Spectrum: 2048
>>>>>Begin Processed Spectral Data<<<<<
339.09	0.00
339.48	198.10
339.86	198.40
340.24	200.80
340.63	202.00
341.01	208.20
341.39	205.45
341.78	206.90
342.16	208.60
342.54	209.15
342.93	197.71
343.31	207.67
343.69	208.25
344.07	208.76
344.46	209.27
344.84	209.71
345.22	209.85
345.60	210.14
345.99	210.29
346.37	210.39
346.75	210.48
347.13	210.53
347.52	210.54
347.90	210.66
348.28	210.73
348.66	210.83
349.05	210.67
349.43	210.74
349.81	210.87
350.19	210.85
350.57	210.98
350.96	211.12
351.34	211.26
351.72	211.31
352.10	211.38
352.48	211.41
352.87	211.46
353.25	211.50
353.63	211.48
354.01	211.63
354.39	211.75
354.77	211.82
355.15	211.96
355.54	212.04
355.92	212.05
356.30	212.08
356.68	212.35
357.06	212.54
357.44	212.55
357.82	212.58
358.20	212.73
358.58	212.77
358.97	212.83
359.35	212.94
359.73	213.07
360.11	213.13
360.49	213.21
360.87	213.25
361.25	213.29
361.63	213.45
362.01	213.45
362.39	213.43
362.77	213.45
363.15	213.50
363.53	213.62
363.91	213.59
364.29	213.64
364.67	213.32
365.05	213.31
365.43	213.41
365.81	213.50
366.19	213.67
366.57	213.81
366.95	213.79
367.33	213.73
367.71	213.67
368.09	213.78
368.47	213.71
368.85	213.67
369.23	213.79
369.61	213.69
369.99	213.75
370.37	213.77
370.75	213.90
371.13	213.75
371.51	213.58
371.89	213.63
372.27	213.56
372.65	213.59
373.03	213.57
373.41	213.47
373.78	213.39
374.16	213.03
374.54	212.85
374.92	212.74
375.30	212.64
375.68	212.55
376.06	212.48
376.44	212.39
376.82	212.40
377.19	212.31
377.57	212.24
377.95	212.11
378.33	212.05
378.71	211.77
379.09	211.84
379.47	211.83
379.84	211.72
380.22	211.70
380.60	211.54
380.98	211.44
381.36	211.42
381.73	211.27
382.11	211.25
382.49	211.24
382.87	211.10
383.25	211.10
383.62	211.46
384.00	211.31
384.38	211.35
384.76	211.32
385.13	211.34
385.51	211.35
385.89	211.22
386.27	211.17
386.64	211.25
387.02	211.08
387.40	211.04
387.78	211.04
388.15	210.97
388.53	210.96
388.91	210.94
389.29	210.85
389.66	210.94
390.04	210.95
390.42	211.01
390.79	211.06
391.17	211.04
391.55	210.64
391.92	210.59
392.30	210.53
392.68	210.42
393.05	210.44
393.43	210.40
393.81	210.43
394.18	210.38
394.56	210.33
394.94	210.43
395.31	210.41
395.69	210.50
396.06	210.59
396.44	210.63
396.82	210.60
397.19	210.72
397.57	210.62
397.95	210.71
398.32	210.54
398.70	210.59
399.07	210.65
399.45	210.62
399.82	210.68
400.20	210.72
400.58	210.79
400.95	210.65
401.33	210.75
401.70	211.00
402.08	211.01
402.45	211.02
402.83	211.17
403.20	211.23
403.58	211.17
403.95	211.30
404.33	211.41
404.71	211.45
405.08	211.73
405.46	211.83
405.83	211.91
406.21	212.04
406.58	212.13
406.96	212.24
407.33	212.43
407.70	212.62
408.08	213.02
408.45	213.15
408.83	213.38
409.20	213.48
409.58	213.53
409.95	213.80
410.33	214.08
410.70	214.14
411.08	214.45
411.45	214.77
411.82	214.97
412.20	215.31
412.57	215.96
412.95	216.11
413.32	216.59
413.69	216.91
414.07	217.37
414.44	217.85
414.82	218.36
415.19	218.97
415.56	219.59
415.94	220.06
416.31	220.80
416.68	221.47
417.06	222.31
417.43	223.15
417.81	224.10
418.18	225.02
418.55	226.03
418.93	227.07
419.30	228.18
419.67	229.32
420.04	230.54
420.42	231.59
420.79	233.28
421.16	234.70
421.54	236.46
421.91	238.02
422.28	239.72
422.66	241.49
423.03	243.39
423.40	245.15
423.77	247.07
424.15	248.99
424.52	251.07
424.89	253.34
425.26	255.44
425.64	257.48
426.01	259.68
426.38	262.00
426.75	264.35
427.13	266.72
427.50	269.29
427.87	272.00
428.24	274.69
428.61	277.05
428.99	279.96
429.36	282.85
429.73	285.96
430.10	289.04
430.47	292.10
430.85	295.25
431.22	298.74
431.59	302.57
431.96	306.06
432.33	309.88
432.70	313.60
433.08	317.95
433.45	322.11
433.82	326.27
434.19	330.89
434.56	335.57
434.93	340.00
435.30	344.39
435.68	349.11
436.05	353.95
436.42	358.76
436.79	363.12
437.16	367.84
437.53	372.75
437.90	377.58
438.27	382.58
438.64	387.50
439.01	392.23
439.38	396.25
439.75	400.44
440.13	405.21
440.50	409.53
440.87	413.21
441.24	416.97
441.61	421.16
441.98	424.34
442.35	427.81
442.72	431.39
443.09	434.94
443.46	437.21
443.83	438.81
444.20	440.12
444.57	441.92
444.94	442.96
445.31	444.21
445.68	445.54
446.05	446.05
446.42	445.82
446.79	445.48
447.16	444.99
447.53	444.72
447.90	443.01
448.27	441.53
448.64	439.22
449.01	437.56
449.37	434.65
449.74	431.65
450.11	428.29
450.48	424.41
450.85	420.39
451.22	417.02
451.59	413.67
451.96	410.63
452.33	406.52
452.70	402.80
453.07	398.11
453.43	393.14
453.80	388.62
454.17	384.36
454.54	380.29
454.91	375.90
455.28	371.59
455.65	367.59
456.02	363.96
456.38	360.51
456.75	356.21
457.12	352.54
457.49	349.12
457.86	345.59
458.23	342.85
458.59	339.66
458.96	336.45
459.33	333.58
459.70	330.68
460.07	328.41
460.43	325.68
460.80	323.18
461.17	321.14
461.54	318.85
461.91	316.64
462.27	314.27
462.64	312.36
463.01	310.27
463.38	308.34
463.74	305.86
464.11	304.07
464.48	302.67
464.85	300.93
465.21	299.67
465.58	298.14
465.95	296.28
466.32	294.93
466.68	293.41
467.05	292.07
467.42	290.65
467.78	289.15
468.15	287.79
468.52	286.85
468.88	285.39
469.25	284.20
469.62	283.22
469.98	282.20
470.35	281.34
470.72	280.49
471.08	279.32
471.45	278.54
471.82	277.77
472.18	276.74
472.55	276.08
472.92	275.20
473.28	274.55
473.65	273.82
474.02	273.05
474.38	272.56
474.75	272.09
475.11	271.53
475.48	271.09
475.85	270.68
476.21	270.12
476.58	269.87
476.94	269.59
477.31	269.28
477.67	268.97
478.04	268.70
478.41	268.40
478.77	268.62
479.14	268.28
479.50	268.13
479.87	268.06
480.23	267.94
480.60	267.91
480.96	267.82
481.33	268.11
481.69	268.16
482.06	268.15
482.42	268.16
482.79	268.22
483.15	268.29
483.52	268.48
483.88	268.68
484.25	268.84
484.61	268.96
484.98	269.10
485.34	269.44
485.71	269.68
486.07	269.99
486.44	270.01
486.80	270.47
487.17	270.78
487.53	271.34
487.90	271.84
488.26	272.43
488.62	273.04
488.99	273.45
489.35	274.08
489.72	274.67
490.08	275.20
490.44	275.80
490.81	276.61
491.17	277.27
491.54	278.05
491.90	278.82
492.26	279.64
492.63	280.58
492.99	281.46
493.36	282.48
493.72	283.51
494.08	284.55
494.45	285.58
494.81	286.72
495.17	287.67
495.54	288.89
495.90	289.99
496.26	291.20
496.63	292.43
496.99	293.59
497.35	294.95
497.72	296.37
498.08	297.76
498.44	299.14
498.80	300.70
499.17	302.15
499.53	303.57
499.89	305.17
500.26	306.67
500.62	308.13
500.98	309.65
501.34	311.09
501.71	312.75
502.07	314.33
502.43	315.85
502.79	317.33
503.16	318.83
503.52	320.26
503.88	321.67
504.24	323.12
504.60	324.74
504.97	326.33
505.33	327.82
505.69	329.63
506.05	331.23
506.41	332.66
506.78	334.19
507.14	335.75
507.50	337.25
507.86	338.82
508.22	340.37
508.59	341.77
508.95	343.40
509.31	344.99
509.67	346.52
510.03	348.07
510.39	349.69
510.75	351.31
511.12	352.94
511.48	354.51
511.84	356.26
512.20	357.71
512.56	359.19
512.92	360.89
513.28	362.31
513.64	363.72
514.00	365.25
514.37	366.80
514.73	368.41
515.09	370.04
515.45	371.51
515.81	373.14
516.17	374.89
516.53	376.46
516.89	377.89
517.25	379.53
517.61	381.26
517.97	382.99
518.33	384.61
518.69	386.23
519.05	388.00
519.41	389.56
519.77	391.62
520.13	393.40
520.49	395.08
520.85	396.93
521.21	398.90
521.57	400.83
521.93	402.58
522.29	404.54
522.65	406.32
523.01	408.45
523.37	410.36
523.73	412.39
524.09	414.35
524.45	416.39
524.81	418.54
525.17	420.70
525.53	422.94
525.89	425.09
526.25	427.53
526.61	429.76
526.97	432.14
527.33	434.38
527.68	437.14
528.04	439.62
528.40	441.94
528.76	444.40
529.12	446.99
529.48	449.77
529.84	452.27
530.20	455.15
530.56	457.87
530.91	460.85
531.27	463.62
531.63	466.57
531.99	469.48
532.35	472.21
532.71	475.05
533.07	477.87
533.42	481.18
533.78	484.03
534.14	487.03
534.50	489.90
534.86	492.75
535.21	495.36
535.57	498.39
535.93	501.27
536.29	504.59
536.65	507.56
537.00	510.46
537.36	513.40
537.72	516.23
538.08	519.30
538.44	522.09
538.79	525.05
539.15	527.93
539.51	530.91
539.87	534.14
540.22	537.15
540.58	540.37
540.94	543.24
541.29	546.32
541.65	549.33
542.01	552.54
542.37	555.85
542.72	558.97
543.08	561.80
543.44	565.23
543.79	567.94
544.15	571.06
544.51	574.24
544.87	577.52
545.22	580.67
545.58	583.49
545.94	586.49
546.29	589.40
546.65	592.28
547.01	595.28
547.36	598.17
547.72	601.03
548.07	603.71
548.43	606.20
548.79	608.69
549.14	611.16
549.50	613.67
549.86	616.06
550.21	618.60
550.57	621.28
550.92	623.59
551.28	626.00
551.64	628.35
551.99	630.65
552.35	632.79
552.70	634.86
553.06	637.13
553.41	639.41
553.77	641.58
554.13	643.69
554.48	645.87
554.84	647.98
555.19	650.03
555.55	652.06
555.90	654.10
556.26	655.95
556.61	657.94
556.97	659.82
557.32	661.56
557.68	663.14
558.03	664.74
558.39	666.47
558.74	668.29
559.10	670.07
559.45	671.84
559.81	673.46
560.16	674.93
560.52	676.67
560.87	678.25
561.23	679.74
561.58	681.62
561.94	682.79
562.29	684.15
562.64	685.50
563.00	686.88
563.35	688.42
563.71	690.31
564.06	691.82
564.42	693.35
564.77	694.90
565.12	696.50
565.48	698.18
565.83	699.57
566.19	700.94
566.54	701.90
566.89	702.91
567.25	704.40
567.60	705.89
567.96	707.13
568.31	708.34
568.66	709.36
569.02	709.90
569.37	710.73
569.72	711.35
570.08	712.01
570.43	712.60
570.78	712.94
571.14	713.01
571.49	713.20
571.84	713.42
572.20	713.54
572.55	713.75
572.90	713.53
573.26	713.48
573.61	713.21
573.96	713.20
574.31	713.04
574.67	712.53
575.02	712.03
575.37	711.20
575.72	710.52
576.08	710.35
576.43	709.93
576.78	709.66
577.13	709.36
577.49	709.08
577.84	708.63
578.19	708.34
578.54	708.24
578.90	708.07
579.25	707.71
579.60	707.08
579.95	706.45
580.30	706.21
580.66	705.72
581.01	705.18
581.36	704.66
581.71	704.12
582.06	703.73
582.42	703.30
582.77	702.81
583.12	702.29
583.47	701.65
583.82	701.20
584.17	700.55
584.53	700.12
584.88	699.46
585.23	698.97
585.58	698.25
585.93	697.38
586.28	696.74
586.63	695.95
586.98	695.36
587.34	694.95
587.69	694.12
588.04	693.40
588.39	692.71
588.74	691.78
589.09	691.14
589.44	689.98
589.79	689.12
590.14	688.52
590.49	687.71
590.84	686.83
591.19	686.16
591.54	685.37
591.89	684.14
592.25	683.39
592.60	682.19
592.95	681.09
593.30	679.95
593.65	678.60
594.00	677.33
594.35	677.25
594.70	675.84
595.05	674.78
595.40	673.57
595.75	672.24
596.10	671.44
596.45	670.25
596.80	669.40
597.15	668.35
597.50	667.05
597.85	665.99
598.19	664.81
598.54	663.46
598.89	662.38
599.24	661.56
599.59	660.24
599.94	659.34
600.29	658.37
600.64	657.39
600.99	656.37
601.34	655.47
601.69	653.28
602.04	652.11
602.39	650.98
602.74	650.05
603.08	649.32
603.43	648.35
603.78	647.21
604.13	646.19
604.48	645.11
604.83	644.32
605.18	643.35
605.53	642.31
605.87	641.24
606.22	640.09
606.57	638.87
606.92	637.51
607.27	636.17
607.62	635.01
607.96	633.96
608.31	632.88
608.66	631.57
609.01	630.48
609.36	629.30
609.70	627.85
610.05	626.28
610.40	624.98
610.75	623.27
611.10	622.08
611.44	620.32
611.79	618.68
612.14	616.95
612.49	615.09
612.83	613.41
613.18	611.69
613.53	609.95
613.88	608.08
614.22	606.67
614.57	605.09
614.92	603.36
615.27	601.44
615.61	599.64
615.96	597.90
616.31	596.14
616.65	594.63
617.00	593.09
617.35	591.39
617.70	589.39
618.04	587.49
618.39	585.40
618.74	583.80
619.08	581.92
619.43	580.01
619.78	578.28
620.12	576.49
620.47	574.58
620.82	572.50
621.16	570.48
621.51	568.54
621.85	566.61
622.20	564.74
622.55	562.91
622.89	560.96
623.24	559.17
623.59	557.20
623.93	555.13
624.28	553.19
624.62	551.60
624.97	549.91
625.32	548.18
625.66	546.46
626.01	544.68
626.35	543.05
626.70	541.19
627.04	539.61
627.39	537.81
627.73	536.19
628.08	534.59
628.43	532.99
628.77	531.17
629.12	529.36
629.46	527.67
629.81	525.91
630.15	524.17
630.50	522.21
630.84	520.33
631.19	518.58
631.53	516.69
631.88	514.57
632.22	512.49
632.57	510.79
632.91	508.99
633.26	507.05
633.60	505.21
633.95	503.64
634.29	501.74
634.64	500.15
634.98	498.36
635.32	496.85
635.67	495.16
636.01	493.47
636.36	491.68
636.70	490.02
637.05	488.19
637.39	486.53
637.73	485.08
638.08	483.74
638.42	482.07
638.77	480.57
639.11	478.96
639.45	477.36
639.80	475.47
640.14	473.61
640.49	471.92
640.83	470.19
641.17	468.59
641.52	466.78
641.86	464.83
642.20	463.23
642.55	461.11
642.89	459.34
643.23	457.53
643.58	456.11
643.92	454.21
644.26	452.57
644.61	450.89
644.95	449.14
645.29	447.17
645.64	445.62
645.98	443.81
646.32	442.21
646.66	440.46
647.01	438.84
647.35	437.30
647.69	435.56
648.04	433.86
648.38	431.85
648.72	430.23
649.06	428.52
649.41	426.68
649.75	425.20
650.09	423.60
650.43	421.97
650.78	419.96
651.12	418.22
651.46	416.62
651.80	415.11
652.14	413.39
652.49	411.99
652.83	410.18
653.17	408.43
653.51	406.60
653.85	405.09
654.20	403.52
654.54	401.81
654.88	400.18
655.22	398.54
655.56	397.02
655.90	395.34
656.25	393.70
656.59	392.03
656.93	390.51
657.27	388.92
657.61	387.23
657.95	385.81
658.29	384.30
658.64	382.79
658.98	381.08
659.32	379.46
659.66	377.77
660.00	376.15
660.34	374.59
660.68	373.13
661.02	371.47
661.36	369.92
661.70	368.55
662.05	367.15
662.39	365.98
662.73	364.66
663.07	363.37
663.41	362.08
663.75	360.78
664.09	359.36
664.43	357.90
664.77	356.68
665.11	355.31
665.45	354.11
665.79	352.78
666.13	351.52
666.47	350.19
666.81	348.90
667.15	347.73
667.49	346.66
667.83	345.51
668.17	344.40
668.51	343.33
668.85	342.19
669.19	341.29
669.53	339.91
669.87	338.58
670.21	337.42
670.55	336.31
670.89	335.43
671.23	334.40
671.57	333.45
671.91	332.35
672.25	331.35
672.58	330.26
672.92	329.19
673.26	328.14
673.60	327.14
673.94	326.18
674.28	325.13
674.62	324.10
674.96	323.07
675.30	322.08
675.64	321.06
675.97	320.08
676.31	318.93
676.65	318.00
676.99	317.28
677.33	316.20
677.67	315.15
678.01	314.01
678.34	313.05
678.68	312.06
679.02	311.05
679.36	310.05
679.70	309.06
680.04	308.07
680.37	307.19
680.71	306.30
681.05	305.48
681.39	304.57
681.73	303.66
682.06	302.86
682.40	301.94
682.74	301.10
683.08	300.29
683.42	299.29
683.75	298.48
684.09	297.56
684.43	296.75
684.77	295.96
685.10	295.03
685.44	294.16
685.78	293.31
686.12	292.55
686.45	291.81
686.79	291.01
687.13	290.34
687.46	289.45
687.80	288.75
688.14	287.94
688.48	287.21
688.81	286.42
689.15	285.73
689.49	285.04
689.82	284.23
690.16	283.32
690.50	282.66
690.83	281.87
691.17	281.11
691.51	280.30
691.84	279.57
692.18	278.84
692.52	278.13
692.85	277.49
693.19	276.93
693.52	276.20
693.86	275.45
694.20	274.75
694.53	274.05
694.87	273.35
695.21	272.58
695.54	271.93
695.88	271.23
696.21	270.45
696.55	269.82
696.88	269.33
697.22	268.78
697.56	268.25
697.89	267.57
698.23	266.99
698.56	266.43
698.90	265.89
699.23	265.39
699.57	264.81
699.90	264.16
700.24	263.56
700.58	263.00
700.91	262.61
701.25	262.31
701.58	261.90
701.92	261.41
702.25	260.90
702.59	260.32
702.92	259.80
703.26	259.29
703.59	258.77
703.93	258.45
704.26	257.96
704.60	257.49
704.93	257.07
705.26	256.52
705.60	256.16
705.93	255.60
706.27	255.26
706.60	254.88
706.94	254.63
707.27	254.03
707.61	253.66
707.94	253.12
708.27	252.41
708.61	251.84
708.94	251.43
709.28	251.02
709.61	250.58
709.94	250.30
710.28	249.95
710.61	249.56
710.95	248.83
711.28	248.68
711.61	248.26
711.95	247.95
712.28	247.53
712.61	247.18
712.95	247.02
713.28	246.65
713.61	246.26
713.95	245.79
714.28	245.48
714.61	245.02
714.95	244.63
715.28	244.25
715.61	243.91
715.95	243.60
716.28	243.28
716.61	243.04
716.95	242.59
717.28	242.20
717.61	241.87
717.94	241.60
718.28	241.00
718.61	240.63
718.94	240.19
719.27	239.90
719.61	239.55
719.94	239.14
720.27	238.71
720.60	238.35
720.94	238.03
721.27	237.73
721.60	237.58
721.93	237.36
722.27	237.24
722.60	237.11
722.93	236.76
723.26	236.55
723.59	236.23
723.93	236.03
724.26	235.82
724.59	235.55
724.92	235.27
725.25	235.12
725.59	234.93
725.92	234.81
726.25	234.59
726.58	234.42
726.91	234.17
727.24	234.03
727.57	233.82
727.91	233.54
728.24	233.37
728.57	233.04
728.90	232.80
729.23	232.44
729.56	232.37
729.89	232.25
730.22	231.92
730.55	231.74
730.89	231.55
731.22	231.35
731.55	231.12
731.88	231.00
732.21	230.78
732.54	230.52
732.87	230.32
733.20	230.13
733.53	229.86
733.86	229.64
734.19	229.42
734.52	229.26
734.85	229.37
735.18	229.24
735.51	229.17
735.84	229.05
736.17	229.03
736.50	228.62
736.83	228.78
737.16	228.71
737.49	228.50
737.82	228.33
738.15	228.20
738.48	228.11
738.81	227.92
739.14	227.69
739.47	227.54
739.80	227.35
740.13	227.25
740.46	227.04
740.79	226.87
741.12	226.69
741.45	226.57
741.78	226.19
742.11	226.08
742.44	225.90
742.77	225.77
743.10	225.56
743.43	225.41
743.75	224.91
744.08	225.18
744.41	225.07
744.74	224.87
745.07	224.65
745.40	224.50
745.73	224.54
746.06	224.39
746.39	224.30
746.71	224.12
747.04	223.99
747.37	223.90
747.70	223.89
748.03	223.81
748.36	223.67
748.68	223.64
749.01	223.40
749.34	223.24
749.67	223.11
750.00	222.97
750.33	223.08
750.65	223.02
750.98	222.45
751.31	222.27
751.64	222.19
751.97	222.25
752.29	222.09
752.62	221.81
752.95	221.66
753.28	221.54
753.60	221.43
753.93	221.31
754.26	221.21
754.59	220.96
754.91	220.83
755.24	220.69
755.57	220.50
755.90	220.46
756.22	220.31
756.55	220.17
756.88	220.03
757.20	219.72
757.53	219.46
757.86	219.37
758.19	219.40
758.51	219.33
758.84	219.03
759.17	218.91
759.49	218.81
759.82	218.93
760.15	218.79
760.47	218.76
760.80	218.67
761.13	218.68
761.45	218.58
761.78	218.49
762.11	218.40
762.43	218.35
762.76	218.15
763.08	218.14
763.41	218.05
763.74	217.98
764.06	217.85
764.39	217.84
764.71	217.78
765.04	217.63
765.37	217.49
765.69	217.45
766.02	217.38
766.34	217.28
766.67	217.07
767.00	217.12
767.32	217.24
767.65	217.26
767.97	217.10
768.30	217.08
768.62	217.04
768.95	216.97
769.27	216.94
769.60	216.95
769.92	216.79
770.25	216.68
770.57	216.63
770.90	216.64
771.22	216.58
771.55	216.56
771.87	216.53
772.20	216.45
772.52	216.69
772.85	217.11
773.17	217.09
773.50	217.02
773.82	216.95
774.15	216.69
774.47	216.45
774.80	216.38
775.12	216.29
775.45	216.17
775.77	216.11
776.09	216.03
776.42	215.97
776.74	216.06
777.07	216.05
777.39	216.03
777.72	215.95
778.04	215.92
778.36	215.81
778.69	215.74
779.01	215.72
779.33	215.33
779.66	214.82
779.98	214.77
780.31	214.76
780.63	214.81
780.95	214.77
781.28	214.79
781.60	214.77
781.92	214.75
782.25	214.69
782.57	214.69
782.89	214.58
783.22	214.62
783.54	214.49
783.86	214.44
784.19	214.36
784.51	214.41
784.83	214.37
785.16	214.32
785.48	214.27
785.80	214.30
786.12	214.33
786.45	214.29
786.77	214.25
787.09	214.19
787.42	214.00
787.74	214.01
788.06	214.05
788.38	213.97
788.71	213.99
789.03	213.93
789.35	213.96
789.67	213.93
789.99	213.85
790.32	213.81
790.64	213.87
790.96	214.15
791.28	214.02
791.61	213.92
791.93	213.82
792.25	213.80
792.57	213.97
792.89	213.84
793.21	213.86
793.54	213.78
793.86	213.71
794.18	213.70
794.50	213.58
794.82	213.51
795.14	213.59
795.47	213.56
795.79	213.67
796.11	213.62
796.43	213.59
796.75	213.53
797.07	213.57
797.39	213.51
797.71	213.18
798.04	213.20
798.36	213.25
798.68	213.28
799.00	213.31
799.32	213.14
799.64	213.26
799.96	213.25
800.28	213.32
800.60	213.33
800.92	213.34
801.24	213.36
801.56	213.30
801.89	213.12
802.21	213.11
802.53	212.96
802.85	212.97
803.17	213.11
803.49	213.09
803.81	213.02
804.13	213.03
804.45	212.96
804.77	212.96
805.09	212.91
805.41	212.87
805.73	212.81
806.05	212.72
806.37	212.71
806.69	212.65
807.01	212.68
807.33	212.67
807.65	212.58
807.97	212.73
808.28	212.70
808.60	212.78
808.92	212.71
809.24	212.90
809.56	212.78
809.88	212.60
810.20	212.58
810.52	212.57
810.84	212.47
811.16	212.47
811.48	212.49
811.80	212.59
812.12	212.64
812.43	212.67
812.75	212.64
813.07	212.56
813.39	212.62
813.71	212.47
814.03	212.41
814.35	212.44
814.67	212.27
814.98	212.17
815.30	212.13
815.62	212.06
815.94	211.86
816.26	211.92
816.58	211.90
816.89	211.94
817.21	211.91
817.53	211.88
817.85	211.88
818.17	211.78
818.48	211.60
818.80	211.62
819.12	211.62
819.44	211.61
819.76	211.56
820.07	211.55
820.39	211.58
820.71	211.60
821.03	211.50
821.34	211.46
821.66	211.60
821.98	211.62
822.30	211.65
822.61	211.89
822.93	211.86
823.25	211.84
823.57	211.80
823.88	211.89
824.20	211.88
824.52	211.95
824.83	211.96
825.15	211.99
825.47	211.90
825.79	211.88
826.10	211.81
826.42	211.77
826.74	211.81
827.05	211.84
827.37	211.85
827.69	211.87
828.00	211.90
828.32	211.81
828.64	211.72
828.95	211.82
829.27	211.68
829.58	211.64
829.90	211.75
830.22	211.78
830.53	211.66
830.85	211.70
831.17	211.62
831.48	211.68
831.80	211.70
832.11	211.72
832.43	211.61
832.75	211.63
833.06	211.87
833.38	211.72
833.69	211.62
834.01	211.62
834.32	211.59
834.64	211.60
834.96	211.65
835.27	211.70
835.59	211.68
835.90	211.65
836.22	211.65
836.53	211.55
836.85	211.50
837.16	211.85
837.48	211.82
837.79	211.90
838.11	211.89
838.42	211.87
838.74	211.93
839.05	211.94
839.37	211.98
839.68	211.78
840.00	211.78
840.31	211.92
840.63	211.88
840.94	211.89
841.26	211.84
841.57	211.85
841.88	211.92
842.20	211.82
842.51	211.82
842.83	211.86
843.14	212.16
843.46	212.19
843.77	211.97
844.08	211.94
844.40	211.82
844.71	211.76
845.03	211.81
845.34	211.80
845.65	211.82
845.97	211.80
846.28	211.81
846.60	211.85
846.91	211.75
847.22	211.81
847.54	211.91
847.85	211.96
848.16	212.00
848.48	211.92
848.79	212.12
849.10	212.18
849.42	212.14
849.73	211.81
850.04	211.78
850.36	211.62
850.67	211.74
850.98	211.76
851.30	211.73
851.61	211.70
851.92	211.66
852.23	211.71
852.55	211.76
852.86	211.78
853.17	211.82
853.49	211.89
853.80	211.87
854.11	211.90
854.42	211.91
854.74	211.80
855.05	211.82
855.36	211.63
855.67	211.61
855.99	211.65
856.30	212.07
856.61	212.15
856.92	212.18
857.23	212.13
857.55	212.13
857.86	212.20
858.17	212.20
858.48	212.16
858.79	212.12
859.11	212.07
859.42	212.06
859.73	212.01
860.04	212.01
860.35	211.98
860.66	211.89
860.98	211.90
861.29	211.93
861.60	211.93
861.91	212.00
862.22	211.86
862.53	211.79
862.84	211.37
863.16	211.43
863.47	211.40
863.78	211.40
864.09	211.40
864.40	211.38
864.71	211.37
865.02	211.45
865.33	211.42
865.64	211.42
865.95	211.39
866.27	211.57
866.58	211.54
866.89	211.56
867.20	211.55
867.51	211.51
867.82	211.46
868.13	211.54
868.44	211.36
868.75	211.44
869.06	211.40
869.37	211.45
869.68	211.27
869.99	211.33
870.30	211.30
870.61	211.32
870.92	211.29
871.23	211.28
871.54	211.36
871.85	211.43
872.16	211.49
872.47	211.51
872.78	211.38
873.09	211.33
873.40	211.27
873.71	211.30
874.02	211.29
874.33	211.33
874.64	211.30
874.95	211.45
875.26	211.46
875.56	211.46
875.87	211.45
876.18	211.41
876.49	211.73
876.80	211.74
877.11	211.72
877.42	211.77
877.73	211.80
878.04	211.66
878.35	211.66
878.66	211.68
878.96	211.65
879.27	211.64
879.58	211.71
879.89	211.72
880.20	211.80
880.51	211.80
880.82	211.79
881.12	211.73
881.43	211.69
881.74	211.57
882.05	211.60
882.36	211.56
882.67	211.66
882.97	211.31
883.28	211.26
883.59	211.25
883.90	211.30
884.21	211.33
884.51	211.37
884.82	211.38
885.13	211.32
885.44	211.40
885.74	211.31
886.05	211.25
886.36	211.24
886.67	211.17
886.98	211.40
887.28	211.45
887.59	211.51
887.90	211.49
888.20	211.60
888.51	211.63
888.82	211.64
889.13	211.66
889.43	211.92
889.74	211.89
890.05	211.85
890.35	211.75
890.66	211.69
890.97	211.55
891.28	211.46
891.58	211.47
891.89	211.36
892.20	211.37
892.50	211.32
892.81	211.37
893.12	211.28
893.42	211.08
893.73	211.07
894.04	211.08
894.34	211.10
894.65	211.02
894.95	211.02
895.26	211.06
895.57	211.23
895.87	210.95
896.18	211.12
896.48	211.14
896.79	211.12
897.10	211.17
897.40	211.27
897.71	211.35
898.01	211.31
898.32	211.45
898.63	211.46
898.93	211.53
899.24	211.49
899.54	211.58
899.85	211.51
900.15	211.46
900.46	211.41
900.76	211.45
901.07	211.42
901.38	211.43
901.68	211.43
901.99	211.25
902.29	211.19
902.60	211.14
902.90	211.16
903.21	211.23
903.51	211.16
903.82	211.22
904.12	211.22
904.43	211.26
904.73	211.16
905.03	211.18
905.34	211.56
905.64	211.50
905.95	211.46
906.25	211.49
906.56	211.51
906.86	211.51
907.17	211.44
907.47	211.55
907.77	211.51
908.08	211.49
908.38	211.49
908.69	211.52
908.99	211.51
909.30	211.48
909.60	211.45
909.90	211.52
910.21	211.44
910.51	211.32
910.81	211.33
911.12	211.38
911.42	211.35
911.73	210.94
912.03	211.05
912.33	211.09
912.64	211.02
912.94	210.97
913.24	210.87
913.55	210.86
913.85	210.74
914.15	210.86
914.46	210.91
914.76	210.86
915.06	210.87
915.37	210.76
915.67	210.75
915.97	210.77
916.27	210.63
916.58	210.66
916.88	210.69
917.18	210.61
917.49	210.83
917.79	210.82
918.09	210.91
918.39	210.97
918.70	210.93
919.00	210.98
919.30	211.21
919.60	211.20
919.91	211.25
920.21	211.32
920.51	211.16
920.81	211.12
921.12	211.17
921.42	211.22
921.72	211.30
922.02	211.35
922.32	211.43
922.63	211.52
922.93	211.65
923.23	211.64
923.53	211.65
923.83	211.44
924.13	211.46
924.44	211.37
924.74	211.39
925.04	211.50
925.34	211.50
925.64	211.33
925.94	211.33
926.24	211.50
926.55	211.43
926.85	211.47
927.15	211.45
927.45	211.50
927.75	211.38
928.05	211.36
928.35	211.35
928.65	211.32
928.95	211.32
929.26	211.23
929.56	211.32
929.86	211.41
930.16	211.39
930.46	211.40
930.76	211.48
931.06	211.31
931.36	211.21
931.66	211.31
931.96	211.32
932.26	211.38
932.56	211.19
932.86	211.27
933.16	211.31
933.46	211.25
933.76	211.17
934.06	211.32
934.36	211.50
934.66	211.41
934.96	211.37
935.26	211.35
935.56	211.38
935.86	211.34
936.16	211.28
936.46	211.22
936.76	211.24
937.06	211.12
937.36	211.17
937.66	211.15
937.96	211.10
938.26	211.05
938.56	211.08
938.86	211.08
939.16	211.16
939.46	211.20
939.76	211.29
940.06	211.27
940.35	211.17
940.65	210.97
940.95	211.05
941.25	210.95
941.55	210.91
941.85	210.92
942.15	210.89
942.45	210.99
942.75	211.01
943.04	210.96
943.34	211.10
943.64	211.06
943.94	211.00
944.24	210.95
944.54	210.97
944.84	210.84
945.13	210.81
945.43	210.71
945.73	210.58
946.03	210.55
946.33	210.50
946.62	210.49
946.92	210.51
947.22	210.55
947.52	210.62
947.82	210.67
948.11	210.51
948.41	210.52
948.71	210.41
949.01	210.44
949.31	210.43
949.60	210.36
949.90	210.44
950.20	210.45
950.50	210.42
950.79	210.40
951.09	210.46
951.39	210.52
951.69	210.47
951.98	210.60
952.28	210.61
952.58	210.65
952.87	210.66
953.17	210.60
953.47	210.53
953.76	210.52
954.06	210.49
954.36	210.53
954.66	210.51
954.95	210.61
955.25	210.66
955.55	210.70
955.84	210.62
956.14	210.62
956.44	210.63
956.73	210.65
957.03	210.64
957.32	210.68
957.62	210.63
957.92	210.73
958.21	210.75
958.51	211.17
958.81	211.11
959.10	211.17
959.40	211.28
959.69	211.37
959.99	211.44
960.29	211.53
960.58	211.50
960.88	211.59
961.17	211.53
961.47	211.49
961.76	211.41
962.06	211.56
962.36	211.50
962.65	211.56
962.95	211.50
963.24	211.49
963.54	211.53
963.83	211.53
964.13	211.51
964.42	211.38
964.72	211.05
965.01	211.14
965.31	211.15
965.60	211.09
965.90	211.21
966.19	211.15
966.49	211.14
966.78	211.17
967.08	211.23
967.37	211.18
967.67	211.10
967.96	211.14
968.26	211.08
968.55	211.13
968.85	211.09
969.14	211.09
969.43	211.16
969.73	211.11
970.02	211.14
970.32	211.13
970.61	211.12
970.91	211.11
971.20	211.03
971.49	210.96
971.79	211.03
972.08	210.78
972.38	210.79
972.67	210.73
972.96	210.71
973.26	210.63
973.55	210.82
973.85	210.86
974.14	210.81
974.43	210.80
974.73	210.71
975.02	210.70
975.31	210.72
975.61	210.60
975.90	210.57
976.19	210.54
976.49	210.51
976.78	210.59
977.07	210.52
977.37	210.54
977.66	210.55
977.95	210.50
978.24	210.56
978.54	210.64
978.83	210.67
979.12	210.65
979.42	210.55
979.71	210.42
980.00	210.44
980.29	210.47
980.59	210.42
980.88	210.50
981.17	210.48
981.46	210.52
981.76	210.60
982.05	210.69
982.34	210.66
982.63	210.74
982.93	210.71
983.22	210.80
983.51	210.85
983.80	210.88
984.09	210.88
984.39	210.84
984.68	210.72
984.97	210.70
985.26	210.69
985.55	210.78
985.85	210.70
986.14	210.73
986.43	210.80
986.72	210.78
987.01	210.73
987.30	210.77
987.59	210.74
987.89	210.77
988.18	210.71
988.47	210.72
988.76	210.60
989.05	210.50
989.34	210.43
989.63	210.52
989.92	210.53
990.22	210.48
990.51	210.45
990.80	210.42
991.09	210.43
991.38	210.52
991.67	210.47
991.96	210.46
992.25	210.44
992.54	210.35
992.83	210.36
993.12	210.38
993.41	210.37
993.70	210.53
993.99	210.55
994.28	210.58
994.58	210.64
994.87	210.64
995.16	210.71
995.45	210.67
995.74	210.50
996.03	210.53
996.32	210.58
996.61	210.68
996.90	210.65
997.19	210.66
997.48	210.62
997.77	210.55
998.06	210.61
998.34	210.58
998.63	210.65
998.92	210.71
999.21	210.78
999.50	210.83
999.79	210.70
1000.08	210.68
1000.37	210.72
1000.66	210.69
1000.95	210.77
1001.24	210.85
1001.53	210.93
1001.82	210.95
1002.11	210.85
1002.40	210.90
1002.68	210.99
1002.97	211.25
1003.26	211.18
1003.55	211.20
1003.84	211.28
1004.13	211.36
1004.42	211.36
1004.71	211.36
1004.99	211.37
1005.28	211.42
1005.57	211.44
1005.86	211.37
1006.15	211.38
1006.44	211.31
1006.72	211.35
1007.01	211.31
1007.30	211.23
1007.59	211.21
1007.88	211.22
1008.17	211.26
1008.45	211.24
1008.74	211.05
1009.03	210.94
1009.32	211.01
1009.60	210.95
1009.89	210.97
1010.18	210.90
1010.47	210.87
1010.76	210.80
1011.04	210.77
1011.33	210.84
1011.62	210.80
1011.91	210.87
1012.19	210.86
1012.48	210.88
1012.77	210.80
1013.05	210.86
1013.34	210.86
1013.63	210.75
1013.92	210.83
1014.20	210.90
1014.49	210.82
1014.78	210.93
1015.06	210.78
1015.35	210.70
1015.64	210.77
1015.92	210.74
1016.21	210.65
1016.50	210.61
1016.78	210.66
1017.07	210.67
1017.36	210.46
1017.64	210.38
1017.93	210.42
1018.22	210.32
1018.50	210.27
1018.79	210.32
1019.08	210.22
1019.36	210.30
1019.65	210.31
1019.93	210.37
1020.22	210.32
1020.51	210.54
1020.79	210.46
1021.08	209.10
1021.36	209.40
1021.65	210.80
1021.94	210.10
1022.22	212.00
1022.51	209.65
1022.79	212.30
1023.08	211.20
1023.36	214.95
1023.65	209.60
>>>>>End Processed Spectral Data<<<<<
