SpectraSuite Data File
++++++++++++++++++++++++++++++++++++
Date: Mon Feb 25 17:01:49 EST 2013
User: group
Dark Spectrum Present: No
Reference Spectrum Present: No
Number of Sampled Component Spectra: 1
Spectrometers: USB2E7196
Integration Time (usec): 104000 (USB2E7196)
Spectra Averaged: 20 (USB2E7196)
Boxcar Smoothing: 10 (USB2E7196)
Correct for Electrical Dark: No (USB2E7196)
Strobe/Lamp Enabled: No (USB2E7196)
Correct for Detector Non-linearity: No (USB2E7196)
Correct for Stray Light: No (USB2E7196)
Number of Pixels in Processed Spectrum: 2048
>>>>>Begin Processed Spectral Data<<<<<
339.09	0.00
339.48	198.60
339.86	200.20
340.24	200.95
340.63	202.45
341.01	209.15
341.39	205.65
341.78	207.35
342.16	208.70
342.54	208.50
342.93	198.26
343.31	208.24
343.69	208.81
344.07	209.29
344.46	209.71
344.84	210.15
345.22	210.22
345.60	210.50
345.99	210.65
346.37	210.77
346.75	210.88
347.13	210.88
347.52	210.94
347.90	211.12
348.28	211.09
348.66	211.15
349.05	211.01
349.43	211.02
349.81	211.03
350.19	210.99
350.57	211.03
350.96	211.12
351.34	211.27
351.72	211.29
352.10	211.38
352.48	211.48
352.87	211.48
353.25	211.54
353.63	211.56
354.01	211.55
354.39	211.60
354.77	211.66
355.15	211.82
355.54	211.81
355.92	211.68
356.30	211.74
356.68	212.05
357.06	212.16
357.44	212.21
357.82	212.30
358.20	212.47
358.58	212.51
358.97	212.55
359.35	212.60
359.73	212.76
360.11	212.77
360.49	212.83
360.87	212.82
361.25	212.95
361.63	213.13
362.01	213.25
362.39	213.30
362.77	213.30
363.15	213.27
363.53	213.34
363.91	213.39
364.29	213.44
364.67	213.20
365.05	213.17
365.43	213.21
365.81	213.26
366.19	213.36
366.57	213.45
366.95	213.47
367.33	213.41
367.71	213.36
368.09	213.37
368.47	213.26
368.85	213.26
369.23	213.26
369.61	213.08
369.99	213.18
370.37	213.15
370.75	213.30
371.13	213.20
371.51	213.11
371.89	213.09
372.27	213.00
372.65	212.89
373.03	212.82
373.41	212.75
373.78	212.68
374.16	212.44
374.54	212.29
374.92	212.15
375.30	212.15
375.68	212.01
376.06	212.04
376.44	212.01
376.82	212.01
377.19	211.95
377.57	211.93
377.95	211.80
378.33	211.74
378.71	211.51
379.09	211.58
379.47	211.58
379.84	211.52
380.22	211.50
380.60	211.38
380.98	211.38
381.36	211.30
381.73	211.24
382.11	211.30
382.49	211.28
382.87	211.26
383.25	211.19
383.62	211.60
384.00	211.52
384.38	211.52
384.76	211.55
385.13	211.60
385.51	211.53
385.89	211.40
386.27	211.40
386.64	211.38
387.02	211.28
387.40	211.25
387.78	211.26
388.15	211.28
388.53	211.32
388.91	211.30
389.29	211.31
389.66	211.32
390.04	211.24
390.42	211.31
390.79	211.29
391.17	211.32
391.55	210.94
391.92	210.88
392.30	210.88
392.68	210.87
393.05	210.78
393.43	210.81
393.81	210.83
394.18	210.75
394.56	210.79
394.94	210.86
395.31	210.87
395.69	210.91
396.06	210.93
396.44	210.92
396.82	210.87
397.19	211.06
397.57	211.06
397.95	211.09
398.32	211.04
398.70	211.11
399.07	211.17
399.45	211.14
399.82	211.14
400.20	211.17
400.58	211.14
400.95	211.09
401.33	211.15
401.70	211.46
402.08	211.50
402.45	211.58
402.83	211.75
403.20	211.72
403.58	211.79
403.95	211.97
404.33	212.11
404.71	212.25
405.08	212.49
405.46	212.57
405.83	212.70
406.21	212.80
406.58	212.97
406.96	213.13
407.33	213.39
407.70	213.70
408.08	214.22
408.45	214.50
408.83	214.85
409.20	215.14
409.58	215.17
409.95	215.62
410.33	216.06
410.70	216.43
411.08	217.02
411.45	217.49
411.82	217.90
412.20	218.51
412.57	219.28
412.95	219.66
413.32	220.39
413.69	221.12
414.07	221.93
414.44	222.74
414.82	223.53
415.19	224.52
415.56	225.54
415.94	226.40
416.31	227.63
416.68	228.78
417.06	230.23
417.43	231.72
417.81	233.23
418.18	234.78
418.55	236.39
418.93	238.14
419.30	239.97
419.67	241.94
420.04	243.92
420.42	245.98
420.79	248.54
421.16	250.95
421.54	253.67
421.91	256.30
422.28	259.02
422.66	261.97
423.03	264.99
423.40	267.96
423.77	271.15
424.15	274.37
424.52	277.70
424.89	281.32
425.26	284.90
425.64	288.34
426.01	292.02
426.38	295.97
426.75	300.03
427.13	304.19
427.50	308.55
427.87	313.05
428.24	317.49
428.61	321.82
428.99	326.71
429.36	331.79
429.73	336.80
430.10	342.01
430.47	347.26
430.85	352.55
431.22	358.42
431.59	364.84
431.96	370.73
432.33	377.44
432.70	383.76
433.08	391.14
433.45	398.24
433.82	405.47
434.19	413.25
434.56	421.03
434.93	428.46
435.30	435.95
435.68	444.35
436.05	452.67
436.42	460.71
436.79	468.28
437.16	476.29
437.53	484.89
437.90	493.37
438.27	501.84
438.64	510.58
439.01	518.71
439.38	525.80
439.75	532.90
440.13	540.90
440.50	548.61
440.87	554.95
441.24	561.55
441.61	568.76
441.98	574.29
442.35	580.53
442.72	586.87
443.09	593.07
443.46	596.98
443.83	599.83
444.20	602.49
444.57	605.81
444.94	607.99
445.31	610.00
445.68	612.15
446.05	613.37
446.42	613.12
446.79	612.68
447.16	612.25
447.53	612.13
447.90	609.68
448.27	607.22
448.64	603.44
449.01	600.80
449.37	595.64
449.74	590.74
450.11	584.98
450.48	578.43
450.85	571.59
451.22	565.78
451.59	560.30
451.96	554.96
452.33	547.96
452.70	541.42
453.07	533.69
453.43	525.42
453.80	517.78
454.17	510.59
454.54	503.63
454.91	496.07
455.28	488.75
455.65	481.82
456.02	475.19
456.38	469.26
456.75	461.93
457.12	455.96
457.49	450.06
457.86	444.07
458.23	439.21
458.59	433.88
458.96	428.45
459.33	423.49
459.70	418.62
460.07	414.57
460.43	410.00
460.80	405.78
461.17	402.20
461.54	398.32
461.91	394.48
462.27	390.73
462.64	387.45
463.01	383.93
463.38	380.64
463.74	376.92
464.11	373.97
464.48	371.30
464.85	368.28
465.21	366.04
465.58	363.64
465.95	360.59
466.32	358.12
466.68	355.59
467.05	353.20
467.42	350.85
467.78	348.39
468.15	346.08
468.52	344.42
468.88	342.10
469.25	339.87
469.62	338.25
469.98	336.35
470.35	334.72
470.72	333.00
471.08	331.07
471.45	329.50
471.82	328.01
472.18	326.40
472.55	325.25
472.92	323.70
473.28	322.38
473.65	321.23
474.02	319.97
474.38	319.20
474.75	318.38
475.11	317.39
475.48	316.68
475.85	315.90
476.21	315.04
476.58	314.41
476.94	314.08
477.31	313.43
477.67	312.99
478.04	312.52
478.41	312.20
478.77	312.35
479.14	312.06
479.50	311.75
479.87	311.55
480.23	311.42
480.60	311.34
480.96	311.21
481.33	311.40
481.69	311.46
482.06	311.34
482.42	311.22
482.79	311.33
483.15	311.54
483.52	311.91
483.88	312.21
484.25	312.50
484.61	312.74
484.98	313.05
485.34	313.56
485.71	314.14
486.07	314.72
486.44	314.94
486.80	315.52
487.17	316.20
487.53	317.07
487.90	317.92
488.26	318.90
488.62	320.06
488.99	320.92
489.35	321.93
489.72	323.03
490.08	324.17
490.44	325.32
490.81	326.57
491.17	327.67
491.54	329.02
491.90	330.44
492.26	331.89
492.63	333.48
492.99	334.83
493.36	336.36
493.72	338.01
494.08	339.63
494.45	341.47
494.81	343.28
495.17	345.10
495.54	347.00
495.90	348.79
496.26	350.50
496.63	352.40
496.99	354.43
497.35	356.37
497.72	358.52
498.08	360.45
498.44	362.42
498.80	364.69
499.17	366.63
499.53	368.56
499.89	370.63
500.26	372.71
500.62	374.76
500.98	376.82
501.34	378.89
501.71	380.95
502.07	382.90
502.43	384.88
502.79	386.71
503.16	388.63
503.52	390.48
503.88	392.28
504.24	394.12
504.60	395.85
504.97	397.65
505.33	399.28
505.69	401.19
506.05	402.84
506.41	404.38
506.78	405.84
507.14	407.36
507.50	408.87
507.86	410.15
508.22	411.54
508.59	412.69
508.95	413.78
509.31	415.04
509.67	416.13
510.03	417.20
510.39	418.39
510.75	419.33
511.12	420.31
511.48	421.19
511.84	421.99
512.20	422.75
512.56	423.44
512.92	424.11
513.28	424.56
513.64	425.13
514.00	425.56
514.37	426.05
514.73	426.56
515.09	426.82
515.45	427.08
515.81	427.21
516.17	427.48
516.53	427.59
516.89	427.58
517.25	427.63
517.61	427.80
517.97	427.62
518.33	427.54
518.69	427.40
519.05	427.28
519.41	427.14
519.77	427.16
520.13	427.00
520.49	426.80
520.85	426.61
521.21	426.46
521.57	426.30
521.93	426.22
522.29	426.02
522.65	425.84
523.01	425.71
523.37	425.60
523.73	425.45
524.09	425.41
524.45	425.24
524.81	425.23
525.17	425.22
525.53	425.45
525.89	425.50
526.25	425.67
526.61	425.86
526.97	425.97
527.33	426.20
527.68	426.82
528.04	427.14
528.40	427.52
528.76	427.85
529.12	428.28
529.48	428.88
529.84	429.38
530.20	430.11
530.56	430.94
530.91	431.97
531.27	432.96
531.63	433.92
531.99	434.97
532.35	435.85
532.71	436.72
533.07	437.73
533.42	439.31
533.78	440.44
534.14	441.66
534.50	442.92
534.86	444.34
535.21	445.28
535.57	446.80
535.93	448.23
536.29	449.86
536.65	451.46
537.00	452.90
537.36	454.49
537.72	455.97
538.08	457.65
538.44	459.25
538.79	460.99
539.15	462.74
539.51	464.64
539.87	466.68
540.22	468.82
540.58	470.88
540.94	472.71
541.29	474.83
541.65	476.93
542.01	479.38
542.37	481.53
542.72	483.95
543.08	486.14
543.44	488.77
543.79	490.83
544.15	493.41
544.51	496.11
544.87	498.73
545.22	501.36
545.58	503.87
545.94	506.49
546.29	509.10
546.65	511.65
547.01	514.28
547.36	517.00
547.72	519.55
548.07	522.19
548.43	524.70
548.79	527.43
549.14	530.10
549.50	532.65
549.86	535.31
550.21	538.10
550.57	540.93
550.92	543.20
551.28	546.05
551.64	548.55
551.99	551.25
552.35	553.97
552.70	556.64
553.06	559.25
553.41	561.83
553.77	564.60
554.13	567.18
554.48	570.02
554.84	572.85
555.19	575.60
555.55	578.59
555.90	581.05
556.26	583.35
556.61	585.86
556.97	588.31
557.32	590.74
557.68	593.04
558.03	595.55
558.39	597.95
558.74	600.37
559.10	602.93
559.45	605.24
559.81	607.76
560.16	610.00
560.52	612.44
560.87	614.83
561.23	616.98
561.58	619.68
561.94	621.74
562.29	623.82
562.64	626.11
563.00	627.95
563.35	630.25
563.71	632.72
564.06	634.94
564.42	637.28
564.77	639.66
565.12	641.96
565.48	644.46
565.83	646.91
566.19	649.08
566.54	650.99
566.89	653.03
567.25	654.97
567.60	657.25
567.96	659.59
568.31	661.50
568.66	663.40
569.02	664.76
569.37	666.39
569.72	667.97
570.08	669.46
570.43	670.89
570.78	672.13
571.14	673.35
571.49	674.53
571.84	675.59
572.20	676.57
572.55	677.38
572.90	677.79
573.26	678.45
573.61	679.24
573.96	679.95
574.31	680.55
574.67	680.74
575.02	680.84
575.37	680.78
575.72	680.91
576.08	681.14
576.43	681.52
576.78	681.68
577.13	681.87
577.49	682.04
577.84	682.20
578.19	682.70
578.54	682.96
578.90	683.52
579.25	683.56
579.60	683.29
579.95	683.30
580.30	683.39
580.66	683.59
581.01	683.35
581.36	683.25
581.71	682.97
582.06	683.35
582.42	683.36
582.77	683.22
583.12	683.08
583.47	683.15
583.82	682.89
584.17	682.69
584.53	682.55
584.88	682.31
585.23	682.04
585.58	681.46
585.93	680.95
586.28	680.39
586.63	680.10
586.98	680.06
587.34	680.00
587.69	679.50
588.04	678.97
588.39	678.68
588.74	678.02
589.09	677.71
589.44	676.69
589.79	676.23
590.14	675.60
590.49	675.17
590.84	674.38
591.19	673.88
591.54	673.24
591.89	671.99
592.25	671.30
592.60	670.47
592.95	669.62
593.30	668.63
593.65	667.49
594.00	666.47
594.35	666.14
594.70	664.76
595.05	663.96
595.40	662.79
595.75	661.60
596.10	660.81
596.45	659.77
596.80	659.01
597.15	658.01
597.50	656.85
597.85	655.84
598.19	654.68
598.54	653.55
598.89	652.57
599.24	652.10
599.59	650.87
599.94	649.94
600.29	648.92
600.64	647.95
600.99	646.92
601.34	645.87
601.69	643.85
602.04	642.66
602.39	641.33
602.74	640.37
603.08	639.48
603.43	638.59
603.78	637.52
604.13	636.46
604.48	635.32
604.83	634.55
605.18	633.52
605.53	632.41
605.87	631.23
606.22	630.09
606.57	628.67
606.92	627.45
607.27	626.15
607.62	624.81
607.96	623.82
608.31	622.68
608.66	621.37
609.01	620.24
609.36	619.02
609.70	617.60
610.05	616.15
610.40	614.74
610.75	612.95
611.10	611.44
611.44	609.57
611.79	608.00
612.14	606.22
612.49	604.25
612.83	602.56
613.18	600.71
613.53	598.99
613.88	597.13
614.22	595.42
614.57	593.71
614.92	591.98
615.27	590.11
615.61	588.28
615.96	586.47
616.31	584.81
616.65	583.41
617.00	581.84
617.35	580.04
617.70	578.14
618.04	576.37
618.39	574.25
618.74	572.63
619.08	570.59
619.43	568.80
619.78	567.07
620.12	565.17
620.47	563.60
620.82	561.47
621.16	559.51
621.51	557.76
621.85	555.99
622.20	554.21
622.55	552.11
622.89	550.19
623.24	548.43
623.59	546.27
623.93	544.28
624.28	542.44
624.62	541.05
624.97	539.42
625.32	537.47
625.66	536.00
626.01	534.19
626.35	532.45
626.70	530.63
627.04	529.15
627.39	527.60
627.73	525.89
628.08	524.50
628.43	522.85
628.77	520.99
629.12	519.07
629.46	517.43
629.81	515.89
630.15	514.20
630.50	512.28
630.84	510.59
631.19	508.69
631.53	506.86
631.88	504.62
632.22	502.55
632.57	501.12
632.91	499.32
633.26	497.65
633.60	496.00
633.95	494.34
634.29	492.34
634.64	490.55
634.98	488.65
635.32	487.04
635.67	485.56
636.01	483.88
636.36	482.10
636.70	480.45
637.05	478.68
637.39	477.02
637.73	475.46
638.08	474.18
638.42	472.81
638.77	471.30
639.11	469.72
639.45	468.15
639.80	466.32
640.14	464.51
640.49	462.82
640.83	461.20
641.17	459.53
641.52	457.94
641.86	456.28
642.20	454.87
642.55	452.94
642.89	451.16
643.23	449.45
643.58	448.00
643.92	446.22
644.26	444.55
644.61	443.00
644.95	441.35
645.29	439.47
645.64	437.69
645.98	435.97
646.32	434.37
646.66	432.74
647.01	431.17
647.35	429.68
647.69	427.87
648.04	426.30
648.38	424.71
648.72	423.03
649.06	421.32
649.41	419.49
649.75	417.83
650.09	416.22
650.43	414.70
650.78	413.03
651.12	411.34
651.46	409.73
651.80	408.19
652.14	406.67
652.49	405.16
652.83	403.50
653.17	401.70
653.51	400.21
653.85	398.61
654.20	397.10
654.54	395.45
654.88	393.93
655.22	392.32
655.56	390.65
655.90	389.04
656.25	387.43
656.59	385.87
656.93	384.42
657.27	383.10
657.61	381.45
657.95	380.04
658.29	378.61
658.64	377.34
658.98	375.68
659.32	374.09
659.66	372.55
660.00	371.05
660.34	369.74
660.68	368.17
661.02	366.71
661.36	365.15
661.70	363.75
662.05	362.42
662.39	361.13
662.73	359.97
663.07	358.88
663.41	357.66
663.75	356.33
664.09	355.06
664.43	353.58
664.77	352.35
665.11	350.93
665.45	349.71
665.79	348.46
666.13	347.23
666.47	346.05
666.81	344.80
667.15	343.63
667.49	342.60
667.83	341.57
668.17	340.44
668.51	339.35
668.85	338.34
669.19	337.43
669.53	336.18
669.87	334.92
670.21	333.73
670.55	332.58
670.89	331.79
671.23	330.75
671.57	329.66
671.91	328.63
672.25	327.62
672.58	326.71
672.92	325.56
673.26	324.62
673.60	323.66
673.94	322.75
674.28	321.83
674.62	320.81
674.96	319.74
675.30	318.77
675.64	317.90
675.97	316.92
676.31	315.94
676.65	315.08
676.99	314.29
677.33	313.32
677.67	312.51
678.01	311.33
678.34	310.37
678.68	309.51
679.02	308.63
679.36	307.79
679.70	306.82
680.04	306.02
680.37	305.09
680.71	304.15
681.05	303.30
681.39	302.40
681.73	301.55
682.06	300.87
682.40	300.11
682.74	299.33
683.08	298.56
683.42	297.59
683.75	296.77
684.09	295.91
684.43	295.04
684.77	294.17
685.10	293.46
685.44	292.70
685.78	291.94
686.12	291.19
686.45	290.39
686.79	289.57
687.13	288.80
687.46	288.09
687.80	287.55
688.14	286.70
688.48	286.09
688.81	285.25
689.15	284.38
689.49	283.53
689.82	282.77
690.16	281.97
690.50	281.28
690.83	280.55
691.17	279.72
691.51	279.02
691.84	278.40
692.18	277.68
692.52	276.96
692.85	276.33
693.19	275.75
693.52	275.10
693.86	274.41
694.20	273.75
694.53	273.12
694.87	272.35
695.21	271.79
695.54	271.00
695.88	270.35
696.21	269.61
696.55	269.08
696.88	268.41
697.22	267.75
697.56	267.19
697.89	266.55
698.23	266.11
698.56	265.59
698.90	265.03
699.23	264.42
699.57	263.87
699.90	263.26
700.24	262.66
700.58	262.15
700.91	261.73
701.25	261.49
701.58	260.97
701.92	260.50
702.25	260.05
702.59	259.62
702.92	259.24
703.26	258.85
703.59	258.29
703.93	258.12
704.26	257.76
704.60	257.31
704.93	256.87
705.26	256.27
705.60	255.85
705.93	255.30
706.27	255.05
706.60	254.75
706.94	254.51
707.27	254.06
707.61	253.55
707.94	253.02
708.27	252.31
708.61	251.83
708.94	251.38
709.28	250.92
709.61	250.48
709.94	250.03
710.28	249.60
710.61	249.35
710.95	248.64
711.28	248.41
711.61	247.95
711.95	247.68
712.28	247.33
712.61	246.95
712.95	246.77
713.28	246.42
713.61	245.91
713.95	245.40
714.28	245.00
714.61	244.61
714.95	244.27
715.28	243.85
715.61	243.51
715.95	243.18
716.28	242.73
716.61	242.47
716.95	242.06
717.28	241.77
717.61	241.35
717.94	241.02
718.28	240.50
718.61	240.28
718.94	239.80
719.27	239.49
719.61	239.26
719.94	238.89
720.27	238.44
720.60	238.16
720.94	237.83
721.27	237.54
721.60	237.41
721.93	237.20
722.27	237.14
722.60	236.90
722.93	236.62
723.26	236.51
723.59	236.15
723.93	235.98
724.26	235.79
724.59	235.51
724.92	235.37
725.25	235.28
725.59	234.98
725.92	234.97
726.25	234.71
726.58	234.42
726.91	234.19
727.24	234.04
727.57	233.83
727.91	233.59
728.24	233.45
728.57	233.19
728.90	233.07
729.23	232.74
729.56	232.72
729.89	232.50
730.22	232.21
730.55	232.03
730.89	231.88
731.22	231.61
731.55	231.46
731.88	231.20
732.21	230.89
732.54	230.68
732.87	230.46
733.20	230.34
733.53	230.16
733.86	230.04
734.19	229.89
734.52	229.87
734.85	229.93
735.18	229.69
735.51	229.61
735.84	229.37
736.17	229.25
736.50	228.93
736.83	229.24
737.16	229.15
737.49	229.00
737.82	228.79
738.15	228.64
738.48	228.52
738.81	228.31
739.14	228.15
739.47	227.99
739.80	227.75
740.13	227.59
740.46	227.35
740.79	227.08
741.12	226.82
741.45	226.56
741.78	226.27
742.11	226.27
742.44	226.04
742.77	225.95
743.10	225.78
743.43	225.55
743.75	225.00
744.08	225.23
744.41	225.07
744.74	224.94
745.07	224.70
745.40	224.63
745.73	224.64
746.06	224.50
746.39	224.44
746.71	224.34
747.04	224.16
747.37	224.03
747.70	223.95
748.03	223.87
748.36	223.76
748.68	223.57
749.01	223.29
749.34	223.14
749.67	223.07
750.00	223.00
750.33	223.19
750.65	223.06
750.98	222.55
751.31	222.48
751.64	222.36
751.97	222.55
752.29	222.35
752.62	222.10
752.95	221.95
753.28	221.76
753.60	221.56
753.93	221.50
754.26	221.42
754.59	221.20
754.91	220.97
755.24	220.84
755.57	220.74
755.90	220.61
756.22	220.48
756.55	220.29
756.88	220.04
757.20	219.68
757.53	219.52
757.86	219.47
758.19	219.33
758.51	219.19
758.84	218.90
759.17	218.78
759.49	218.73
759.82	218.77
760.15	218.68
760.47	218.60
760.80	218.43
761.13	218.42
761.45	218.29
761.78	218.30
762.11	218.20
762.43	218.12
762.76	218.07
763.08	218.05
763.41	217.95
763.74	217.92
764.06	217.85
764.39	217.75
764.71	217.61
765.04	217.48
765.37	217.40
765.69	217.27
766.02	217.20
766.34	217.08
766.67	216.96
767.00	217.05
767.32	217.15
767.65	217.37
767.97	217.23
768.30	217.30
768.62	217.24
768.95	217.08
769.27	217.00
769.60	217.02
769.92	216.88
770.25	216.75
770.57	216.66
770.90	216.61
771.22	216.51
771.55	216.48
771.87	216.47
772.20	216.41
772.52	216.70
772.85	217.07
773.17	217.04
773.50	216.99
773.82	216.82
774.15	216.59
774.47	216.24
774.80	216.20
775.12	216.13
775.45	216.00
775.77	216.07
776.09	216.02
776.42	215.91
776.74	216.01
777.07	215.97
777.39	215.97
777.72	215.83
778.04	215.85
778.36	215.72
778.69	215.74
779.01	215.72
779.33	215.38
779.66	214.95
779.98	214.88
780.31	214.87
780.63	214.94
780.95	215.03
781.28	215.12
781.60	215.08
781.92	215.01
782.25	215.03
782.57	214.94
782.89	214.91
783.22	214.85
783.54	214.72
783.86	214.84
784.19	214.76
784.51	214.85
784.83	214.83
785.16	214.78
785.48	214.73
785.80	214.75
786.12	214.84
786.45	214.80
786.77	214.90
787.09	214.79
787.42	214.68
787.74	214.60
788.06	214.55
788.38	214.57
788.71	214.47
789.03	214.49
789.35	214.49
789.67	214.37
789.99	214.38
790.32	214.33
790.64	214.29
790.96	214.56
791.28	214.44
791.61	214.42
791.93	214.48
792.25	214.47
792.57	214.71
792.89	214.51
793.21	214.54
793.54	214.38
793.86	214.35
794.18	214.33
794.50	214.31
794.82	214.32
795.14	214.27
795.47	214.39
795.79	214.37
796.11	214.27
796.43	214.28
796.75	214.30
797.07	214.22
797.39	214.14
797.71	213.87
798.04	213.85
798.36	213.77
798.68	213.75
799.00	213.64
799.32	213.46
799.64	213.59
799.96	213.45
800.28	213.61
800.60	213.53
800.92	213.50
801.24	213.43
801.56	213.44
801.89	213.36
802.21	213.32
802.53	213.20
802.85	213.32
803.17	213.49
803.49	213.42
803.81	213.46
804.13	213.39
804.45	213.37
804.77	213.42
805.09	213.50
805.41	213.41
805.73	213.43
806.05	213.22
806.37	213.11
806.69	213.09
807.01	212.97
807.33	213.03
807.65	212.93
807.97	213.06
808.28	212.99
808.60	213.02
808.92	212.97
809.24	213.22
809.56	213.15
809.88	212.97
810.20	212.95
810.52	213.00
810.84	212.95
811.16	212.92
811.48	212.90
811.80	212.92
812.12	212.96
812.43	212.96
812.75	212.98
813.07	212.93
813.39	212.93
813.71	212.89
814.03	212.75
814.35	212.84
814.67	212.70
814.98	212.64
815.30	212.59
815.62	212.50
815.94	212.25
816.26	212.20
816.58	212.17
816.89	212.22
817.21	212.09
817.53	212.17
817.85	212.12
818.17	212.07
818.48	211.94
818.80	211.97
819.12	211.90
819.44	211.87
819.76	211.81
820.07	211.84
820.39	211.85
820.71	211.90
821.03	211.74
821.34	211.76
821.66	211.74
821.98	211.85
822.30	211.88
822.61	212.08
822.93	212.08
823.25	212.08
823.57	211.94
823.88	211.96
824.20	211.89
824.52	211.92
824.83	211.83
825.15	211.78
825.47	211.74
825.79	211.80
826.10	211.77
826.42	211.76
826.74	211.81
827.05	211.77
827.37	211.75
827.69	211.80
828.00	211.75
828.32	211.76
828.64	211.64
828.95	211.84
829.27	211.77
829.58	211.79
829.90	211.85
830.22	211.93
830.53	211.88
830.85	211.86
831.17	211.75
831.48	211.79
831.80	211.80
832.11	211.79
832.43	211.70
832.75	211.67
833.06	211.95
833.38	211.82
833.69	211.80
834.01	211.86
834.32	211.83
834.64	211.80
834.96	211.78
835.27	211.77
835.59	211.65
835.90	211.49
836.22	211.42
836.53	211.26
836.85	211.28
837.16	211.58
837.48	211.57
837.79	211.69
838.11	211.72
838.42	211.74
838.74	211.75
839.05	211.75
839.37	211.74
839.68	211.44
840.00	211.40
840.31	211.44
840.63	211.35
840.94	211.32
841.26	211.27
841.57	211.20
841.88	211.27
842.20	211.20
842.51	211.21
842.83	211.25
843.14	211.63
843.46	211.64
843.77	211.45
844.08	211.44
844.40	211.30
844.71	211.30
845.03	211.24
845.34	211.21
845.65	211.22
845.97	211.23
846.28	211.25
846.60	211.29
846.91	211.15
847.22	211.18
847.54	211.28
847.85	211.36
848.16	211.43
848.48	211.31
848.79	211.39
849.10	211.39
849.42	211.35
849.73	211.00
850.04	210.92
850.36	210.85
850.67	210.91
850.98	210.96
851.30	210.94
851.61	210.92
851.92	210.92
852.23	211.04
852.55	211.06
852.86	211.14
853.17	211.22
853.49	211.33
853.80	211.42
854.11	211.45
854.42	211.43
854.74	211.39
855.05	211.41
855.36	211.27
855.67	211.29
855.99	211.31
856.30	211.75
856.61	211.77
856.92	211.80
857.23	211.78
857.55	211.79
857.86	211.77
858.17	211.82
858.48	211.79
858.79	211.67
859.11	211.66
859.42	211.61
859.73	211.54
860.04	211.53
860.35	211.43
860.66	211.32
860.98	211.26
861.29	211.28
861.60	211.25
861.91	211.40
862.22	211.37
862.53	211.35
862.84	210.95
863.16	211.08
863.47	210.95
863.78	211.00
864.09	210.94
864.40	210.94
864.71	210.99
865.02	211.07
865.33	211.13
865.64	211.08
865.95	211.14
866.27	211.40
866.58	211.41
866.89	211.42
867.20	211.41
867.51	211.45
867.82	211.37
868.13	211.49
868.44	211.42
868.75	211.46
869.06	211.43
869.37	211.43
869.68	211.24
869.99	211.30
870.30	211.30
870.61	211.42
870.92	211.46
871.23	211.41
871.54	211.49
871.85	211.53
872.16	211.59
872.47	211.52
872.78	211.25
873.09	211.30
873.40	211.25
873.71	211.28
874.02	211.27
874.33	211.24
874.64	211.13
874.95	211.15
875.26	211.17
875.56	211.26
875.87	211.28
876.18	211.28
876.49	211.63
876.80	211.54
877.11	211.45
877.42	211.41
877.73	211.44
878.04	211.35
878.35	211.31
878.66	211.32
878.96	211.35
879.27	211.34
879.58	211.28
879.89	211.28
880.20	211.39
880.51	211.37
880.82	211.48
881.12	211.57
881.43	211.49
881.74	211.45
882.05	211.36
882.36	211.38
882.67	211.40
882.97	211.11
883.28	211.05
883.59	210.99
883.90	211.05
884.21	211.11
884.51	211.08
884.82	211.09
885.13	211.06
885.44	211.02
885.74	210.99
886.05	210.99
886.36	210.99
886.67	210.90
886.98	211.12
887.28	211.09
887.59	211.04
887.90	211.06
888.20	211.00
888.51	211.09
888.82	211.04
889.13	211.05
889.43	211.32
889.74	211.41
890.05	211.42
890.35	211.40
890.66	211.30
890.97	211.22
891.28	211.10
891.58	211.17
891.89	211.12
892.20	211.10
892.50	211.03
892.81	210.94
893.12	210.90
893.42	210.70
893.73	210.68
894.04	210.66
894.34	210.68
894.65	210.65
894.95	210.62
895.26	210.64
895.57	210.79
895.87	210.43
896.18	210.43
896.48	210.48
896.79	210.50
897.10	210.56
897.40	210.59
897.71	210.65
898.01	210.58
898.32	210.69
898.63	210.74
898.93	210.81
899.24	210.90
899.54	210.93
899.85	210.99
900.15	211.03
900.46	211.06
900.76	211.11
901.07	211.11
901.38	211.08
901.68	211.15
901.99	210.99
902.29	211.00
902.60	211.03
902.90	211.06
903.21	211.04
903.51	211.00
903.82	211.16
904.12	211.16
904.43	211.17
904.73	211.10
905.03	211.12
905.34	211.44
905.64	211.39
905.95	211.41
906.25	211.40
906.56	211.39
906.86	211.37
907.17	211.33
907.47	211.35
907.77	211.36
908.08	211.26
908.38	211.27
908.69	211.30
908.99	211.37
909.30	211.34
909.60	211.36
909.90	211.43
910.21	211.21
910.51	211.19
910.81	211.30
911.12	211.38
911.42	211.42
911.73	211.08
912.03	211.17
912.33	211.22
912.64	211.13
912.94	211.14
913.24	211.13
913.55	211.11
913.85	211.16
914.15	211.25
914.46	211.35
914.76	211.35
915.06	211.35
915.37	211.27
915.67	211.27
915.97	211.23
916.27	211.12
916.58	211.19
916.88	211.17
917.18	211.00
917.49	211.28
917.79	211.27
918.09	211.35
918.39	211.41
918.70	211.35
919.00	211.35
919.30	211.41
919.60	211.42
919.91	211.40
920.21	211.42
920.51	211.27
920.81	211.22
921.12	211.33
921.42	211.32
921.72	211.35
922.02	211.45
922.32	211.49
922.63	211.53
922.93	211.70
923.23	211.73
923.53	211.74
923.83	211.46
924.13	211.47
924.44	211.47
924.74	211.48
925.04	211.61
925.34	211.68
925.64	211.65
925.94	211.61
926.24	211.80
926.55	211.70
926.85	211.80
927.15	211.72
927.45	211.71
927.75	211.71
928.05	211.67
928.35	211.56
928.65	211.63
928.95	211.58
929.26	211.50
929.56	211.56
929.86	211.74
930.16	211.74
930.46	211.71
930.76	211.75
931.06	211.60
931.36	211.48
931.66	211.44
931.96	211.41
932.26	211.48
932.56	211.27
932.86	211.35
933.16	211.30
933.46	211.35
933.76	211.20
934.06	211.22
934.36	211.35
934.66	211.30
934.96	211.27
935.26	211.29
935.56	211.34
935.86	211.23
936.16	211.09
936.46	211.00
936.76	210.91
937.06	210.77
937.36	210.85
937.66	210.90
937.96	210.93
938.26	210.89
938.56	210.83
938.86	210.89
939.16	210.97
939.46	211.08
939.76	211.11
940.06	211.20
940.35	211.14
940.65	210.91
940.95	210.97
941.25	210.88
941.55	210.82
941.85	210.65
942.15	210.76
942.45	210.82
942.75	210.76
943.04	210.86
943.34	210.91
943.64	210.88
943.94	210.85
944.24	210.79
944.54	210.76
944.84	210.75
945.13	210.67
945.43	210.60
945.73	210.55
946.03	210.55
946.33	210.42
946.62	210.38
946.92	210.45
947.22	210.46
947.52	210.41
947.82	210.50
948.11	210.48
948.41	210.37
948.71	210.30
949.01	210.37
949.31	210.35
949.60	210.37
949.90	210.34
950.20	210.26
950.50	210.29
950.79	210.29
951.09	210.40
951.39	210.40
951.69	210.37
951.98	210.43
952.28	210.38
952.58	210.42
952.87	210.41
953.17	210.45
953.47	210.42
953.76	210.46
954.06	210.36
954.36	210.31
954.66	210.25
954.95	210.37
955.25	210.43
955.55	210.37
955.84	210.25
956.14	210.28
956.44	210.22
956.73	210.17
957.03	210.18
957.32	210.08
957.62	210.09
957.92	210.10
958.21	210.06
958.51	210.52
958.81	210.61
959.10	210.71
959.40	210.79
959.69	210.82
959.99	210.90
960.29	210.92
960.58	210.94
960.88	211.12
961.17	211.07
961.47	211.06
961.76	211.02
962.06	211.13
962.36	211.10
962.65	211.12
962.95	211.13
963.24	211.19
963.54	211.25
963.83	211.27
964.13	211.28
964.42	211.21
964.72	210.91
965.01	210.89
965.31	210.86
965.60	210.76
965.90	210.99
966.19	210.92
966.49	210.94
966.78	211.01
967.08	211.01
967.37	211.02
967.67	210.95
967.96	211.09
968.26	211.15
968.55	211.27
968.85	211.40
969.14	211.46
969.43	211.44
969.73	211.38
970.02	211.37
970.32	211.38
970.61	211.36
970.91	211.29
971.20	211.24
971.49	211.19
971.79	211.20
972.08	210.97
972.38	210.99
972.67	210.99
972.96	211.05
973.26	210.99
973.55	211.12
973.85	211.16
974.14	211.10
974.43	211.04
974.73	210.94
975.02	210.82
975.31	210.84
975.61	210.85
975.90	210.86
976.19	210.80
976.49	210.77
976.78	210.79
977.07	210.73
977.37	210.79
977.66	210.87
977.95	210.84
978.24	210.79
978.54	210.89
978.83	210.90
979.12	210.85
979.42	210.80
979.71	210.68
980.00	210.69
980.29	210.75
980.59	210.72
980.88	210.83
981.17	210.89
981.46	210.86
981.76	210.80
982.05	210.88
982.34	210.95
982.63	211.00
982.93	211.01
983.22	211.12
983.51	211.10
983.80	211.12
984.09	211.21
984.39	211.23
984.68	211.23
984.97	211.21
985.26	211.14
985.55	211.21
985.85	211.16
986.14	211.15
986.43	211.19
986.72	211.16
987.01	211.10
987.30	211.12
987.59	211.10
987.89	211.20
988.18	211.15
988.47	211.08
988.76	211.02
989.05	210.97
989.34	210.86
989.63	210.93
989.92	210.85
990.22	210.71
990.51	210.65
990.80	210.57
991.09	210.66
991.38	210.78
991.67	210.76
991.96	210.71
992.25	210.74
992.54	210.70
992.83	210.72
993.12	210.67
993.41	210.67
993.70	210.78
993.99	210.75
994.28	210.77
994.58	210.89
994.87	210.90
995.16	210.98
995.45	211.00
995.74	210.89
996.03	210.95
996.32	211.06
996.61	211.23
996.90	211.17
997.19	211.10
997.48	211.03
997.77	211.03
998.06	211.06
998.34	211.00
998.63	210.92
998.92	210.90
999.21	210.93
999.50	210.95
999.79	210.85
1000.08	210.90
1000.37	210.94
1000.66	210.87
1000.95	210.94
1001.24	210.96
1001.53	210.97
1001.82	210.98
1002.11	210.90
1002.40	210.92
1002.68	210.96
1002.97	211.25
1003.26	211.19
1003.55	211.20
1003.84	211.19
1004.13	211.33
1004.42	211.33
1004.71	211.34
1004.99	211.30
1005.28	211.38
1005.57	211.30
1005.86	211.20
1006.15	211.08
1006.44	210.95
1006.72	210.95
1007.01	210.90
1007.30	210.87
1007.59	210.84
1007.88	210.82
1008.17	210.85
1008.45	210.80
1008.74	210.63
1009.03	210.43
1009.32	210.45
1009.60	210.44
1009.89	210.44
1010.18	210.28
1010.47	210.28
1010.76	210.31
1011.04	210.31
1011.33	210.30
1011.62	210.37
1011.91	210.49
1012.19	210.52
1012.48	210.61
1012.77	210.64
1013.05	210.77
1013.34	210.75
1013.63	210.72
1013.92	210.75
1014.20	210.69
1014.49	210.67
1014.78	210.77
1015.06	210.71
1015.35	210.74
1015.64	210.77
1015.92	210.75
1016.21	210.75
1016.50	210.77
1016.78	210.80
1017.07	210.90
1017.36	210.82
1017.64	210.77
1017.93	210.77
1018.22	210.70
1018.50	210.64
1018.79	210.63
1019.08	210.51
1019.36	210.57
1019.65	210.64
1019.93	210.67
1020.22	210.73
1020.51	210.93
1020.79	210.89
1021.08	209.15
1021.36	210.15
1021.65	210.70
1021.94	211.25
1022.22	212.10
1022.51	211.40
1022.79	211.05
1023.08	210.20
1023.36	215.20
1023.65	210.45
>>>>>End Processed Spectral Data<<<<<
