SpectraSuite Data File
++++++++++++++++++++++++++++++++++++
Date: Mon Feb 25 17:13:17 EST 2013
User: group
Dark Spectrum Present: No
Reference Spectrum Present: No
Number of Sampled Component Spectra: 1
Spectrometers: USB2E7196
Integration Time (usec): 104000 (USB2E7196)
Spectra Averaged: 20 (USB2E7196)
Boxcar Smoothing: 10 (USB2E7196)
Correct for Electrical Dark: No (USB2E7196)
Strobe/Lamp Enabled: No (USB2E7196)
Correct for Detector Non-linearity: No (USB2E7196)
Correct for Stray Light: No (USB2E7196)
Number of Pixels in Processed Spectrum: 2048
>>>>>Begin Processed Spectral Data<<<<<
339.09	0.00
339.48	198.95
339.86	199.60
340.24	201.10
340.63	203.85
341.01	209.50
341.39	206.65
341.78	208.50
342.16	209.90
342.54	209.20
342.93	198.95
343.31	209.01
343.69	209.54
344.07	210.05
344.46	210.57
344.84	210.95
345.22	210.95
345.60	211.22
345.99	211.33
346.37	211.39
346.75	211.57
347.13	211.62
347.52	211.71
347.90	211.86
348.28	211.91
348.66	212.01
349.05	211.91
349.43	212.00
349.81	212.10
350.19	212.03
350.57	211.98
350.96	211.95
351.34	211.97
351.72	212.00
352.10	212.01
352.48	212.04
352.87	212.10
353.25	212.24
353.63	212.19
354.01	212.25
354.39	212.28
354.77	212.24
355.15	212.40
355.54	212.35
355.92	212.24
356.30	212.29
356.68	212.50
357.06	212.54
357.44	212.45
357.82	212.38
358.20	212.48
358.58	212.54
358.97	212.60
359.35	212.74
359.73	212.88
360.11	212.99
360.49	212.98
360.87	212.89
361.25	212.92
361.63	213.11
362.01	213.19
362.39	213.21
362.77	213.24
363.15	213.21
363.53	213.24
363.91	213.32
364.29	213.30
364.67	212.96
365.05	212.96
365.43	213.06
365.81	213.17
366.19	213.30
366.57	213.48
366.95	213.42
367.33	213.31
367.71	213.31
368.09	213.33
368.47	213.32
368.85	213.32
369.23	213.45
369.61	213.30
369.99	213.31
370.37	213.34
370.75	213.49
371.13	213.34
371.51	213.23
371.89	213.19
372.27	213.16
372.65	213.20
373.03	213.16
373.41	213.01
373.78	212.95
374.16	212.72
374.54	212.57
374.92	212.58
375.30	212.54
375.68	212.46
376.06	212.44
376.44	212.35
376.82	212.34
377.19	212.25
377.57	212.18
377.95	212.11
378.33	212.05
378.71	211.80
379.09	211.87
379.47	211.86
379.84	211.77
380.22	211.66
380.60	211.53
380.98	211.56
381.36	211.61
381.73	211.45
382.11	211.54
382.49	211.47
382.87	211.36
383.25	211.34
383.62	211.65
384.00	211.56
384.38	211.62
384.76	211.76
385.13	211.80
385.51	211.76
385.89	211.68
386.27	211.67
386.64	211.74
387.02	211.67
387.40	211.66
387.78	211.67
388.15	211.67
388.53	211.62
388.91	211.62
389.29	211.61
389.66	211.69
390.04	211.54
390.42	211.58
390.79	211.59
391.17	211.55
391.55	211.17
391.92	211.18
392.30	211.16
392.68	210.99
393.05	210.97
393.43	211.00
393.81	211.00
394.18	210.95
394.56	210.92
394.94	210.98
395.31	210.90
395.69	211.01
396.06	211.10
396.44	211.18
396.82	211.11
397.19	211.29
397.57	211.31
397.95	211.43
398.32	211.31
398.70	211.31
399.07	211.35
399.45	211.40
399.82	211.37
400.20	211.34
400.58	211.34
400.95	211.19
401.33	211.23
401.70	211.49
402.08	211.53
402.45	211.58
402.83	211.66
403.20	211.81
403.58	211.79
403.95	211.85
404.33	211.92
404.71	212.05
405.08	212.23
405.46	212.29
405.83	212.45
406.21	212.62
406.58	212.78
406.96	212.93
407.33	213.05
407.70	213.19
408.08	213.63
408.45	213.84
408.83	214.10
409.20	214.27
409.58	214.25
409.95	214.46
410.33	214.70
410.70	214.86
411.08	215.08
411.45	215.36
411.82	215.59
412.20	215.98
412.57	216.47
412.95	216.54
413.32	216.98
413.69	217.28
414.07	217.70
414.44	218.16
414.82	218.58
415.19	219.15
415.56	219.72
415.94	220.14
416.31	220.77
416.68	221.45
417.06	222.18
417.43	222.97
417.81	223.79
418.18	224.66
418.55	225.57
418.93	226.45
419.30	227.50
419.67	228.51
420.04	229.51
420.42	230.46
420.79	232.02
421.16	233.27
421.54	234.77
421.91	236.23
422.28	237.61
422.66	239.21
423.03	240.84
423.40	242.42
423.77	244.09
424.15	245.81
424.52	247.60
424.89	249.60
425.26	251.45
425.64	253.25
426.01	255.17
426.38	257.14
426.75	259.37
427.13	261.47
427.50	263.73
427.87	266.07
428.24	268.45
428.61	270.56
428.99	273.16
429.36	275.66
429.73	278.21
430.10	280.91
430.47	283.63
430.85	286.24
431.22	289.17
431.59	292.53
431.96	295.52
432.33	298.77
432.70	301.89
433.08	305.58
433.45	309.21
433.82	312.65
434.19	316.56
434.56	320.27
434.93	323.88
435.30	327.49
435.68	331.45
436.05	335.35
436.42	339.21
436.79	342.75
437.16	346.63
437.53	350.68
437.90	354.76
438.27	358.70
438.64	362.84
439.01	366.48
439.38	369.50
439.75	372.73
440.13	376.44
440.50	379.92
440.87	382.75
441.24	385.53
441.61	388.91
441.98	391.29
442.35	394.03
442.72	396.87
443.09	399.71
443.46	401.43
443.83	402.56
444.20	403.40
444.57	404.65
444.94	405.27
445.31	406.00
445.68	406.81
446.05	406.92
446.42	406.43
446.79	406.15
447.16	405.62
447.53	405.36
447.90	403.85
448.27	402.33
448.64	400.30
449.01	398.77
449.37	396.01
449.74	393.43
450.11	390.66
450.48	387.22
450.85	383.59
451.22	380.59
451.59	377.74
451.96	375.15
452.33	371.61
452.70	368.36
453.07	364.33
453.43	360.15
453.80	356.53
454.17	352.92
454.54	349.44
454.91	345.78
455.28	341.98
455.65	338.45
456.02	335.57
456.38	332.55
456.75	329.11
457.12	326.11
457.49	323.19
457.86	320.11
458.23	317.70
458.59	315.14
458.96	312.38
459.33	310.03
459.70	307.59
460.07	305.72
460.43	303.50
460.80	301.47
461.17	299.71
461.54	297.83
461.91	296.09
462.27	294.20
462.64	292.74
463.01	291.18
463.38	289.75
463.74	287.66
464.11	286.20
464.48	284.92
464.85	283.60
465.21	282.63
465.58	281.46
465.95	280.06
466.32	279.06
466.68	278.02
467.05	276.94
467.42	275.84
467.78	274.61
468.15	273.56
468.52	272.98
468.88	271.90
469.25	270.94
469.62	270.25
469.98	269.56
470.35	268.75
470.72	268.00
471.08	267.14
471.45	266.54
471.82	266.11
472.18	265.50
472.55	265.05
472.92	264.43
473.28	263.99
473.65	263.54
474.02	263.09
474.38	262.78
474.75	262.42
475.11	262.11
475.48	261.88
475.85	261.69
476.21	261.47
476.58	261.38
476.94	261.27
477.31	261.18
477.67	261.02
478.04	261.02
478.41	261.13
478.77	261.62
479.14	261.61
479.50	261.71
479.87	261.84
480.23	261.95
480.60	262.18
480.96	262.41
481.33	262.86
481.69	263.09
482.06	263.39
482.42	263.77
482.79	264.23
483.15	264.80
483.52	265.40
483.88	265.82
484.25	266.35
484.61	266.98
484.98	267.56
485.34	268.45
485.71	269.34
486.07	270.08
486.44	270.48
486.80	271.44
487.17	272.30
487.53	273.40
487.90	274.52
488.26	275.72
488.62	277.02
488.99	278.29
489.35	279.66
489.72	281.14
490.08	282.66
490.44	284.13
490.81	285.86
491.17	287.56
491.54	289.49
491.90	291.48
492.26	293.53
492.63	295.72
492.99	297.90
493.36	300.11
493.72	302.67
494.08	305.35
494.45	308.07
494.81	310.98
495.17	313.84
495.54	317.00
495.90	320.18
496.26	323.40
496.63	326.83
496.99	330.45
497.35	334.16
497.72	338.10
498.08	342.19
498.44	346.26
498.80	350.71
499.17	355.23
499.53	359.92
499.89	364.79
500.26	369.78
500.62	374.94
500.98	380.41
501.34	385.96
501.71	391.75
502.07	397.62
502.43	403.66
502.79	409.87
503.16	416.17
503.52	422.74
503.88	429.46
504.24	436.36
504.60	443.56
504.97	450.90
505.33	458.37
505.69	466.47
506.05	474.45
506.41	482.55
506.78	490.67
507.14	499.05
507.50	507.68
507.86	516.49
508.22	525.50
508.59	534.66
508.95	544.09
509.31	553.62
509.67	563.39
510.03	573.45
510.39	583.65
510.75	594.10
511.12	604.64
511.48	615.51
511.84	626.40
512.20	637.22
512.56	648.48
512.92	659.94
513.28	671.19
513.64	682.96
514.00	694.60
514.37	706.49
514.73	718.61
515.09	730.87
515.45	743.15
515.81	755.51
516.17	768.04
516.53	780.53
516.89	793.20
517.25	805.94
517.61	818.75
517.97	831.41
518.33	844.27
518.69	857.31
519.05	870.46
519.41	883.49
519.77	897.16
520.13	910.24
520.49	923.11
520.85	936.25
521.21	949.46
521.57	962.96
521.93	976.26
522.29	989.86
522.65	1003.44
523.01	1016.83
523.37	1029.99
523.73	1043.35
524.09	1056.64
524.45	1070.08
524.81	1083.55
525.17	1097.14
525.53	1110.79
525.89	1124.34
526.25	1137.91
526.61	1150.55
526.97	1163.74
527.33	1176.65
527.68	1190.26
528.04	1203.28
528.40	1215.85
528.76	1228.57
529.12	1241.30
529.48	1254.68
529.84	1267.31
530.20	1279.66
530.56	1292.30
530.91	1305.44
531.27	1318.08
531.63	1330.51
531.99	1342.82
532.35	1354.81
532.71	1366.37
533.07	1378.45
533.42	1390.22
533.78	1401.52
534.14	1413.08
534.50	1423.67
534.86	1434.94
535.21	1445.05
535.57	1455.95
535.93	1466.48
536.29	1476.83
536.65	1487.35
537.00	1496.74
537.36	1506.16
537.72	1515.43
538.08	1524.58
538.44	1533.46
538.79	1542.59
539.15	1551.58
539.51	1560.08
539.87	1568.92
540.22	1577.22
540.58	1585.73
540.94	1593.71
541.29	1601.18
541.65	1608.37
542.01	1616.34
542.37	1623.36
542.72	1630.86
543.08	1637.75
543.44	1644.96
543.79	1651.18
544.15	1656.97
544.51	1663.38
544.87	1669.74
545.22	1675.62
545.58	1681.18
545.94	1686.32
546.29	1690.70
546.65	1694.92
547.01	1699.29
547.36	1703.29
547.72	1707.43
548.07	1710.47
548.43	1713.56
548.79	1716.42
549.14	1719.60
549.50	1722.45
549.86	1724.87
550.21	1726.97
550.57	1729.51
550.92	1731.23
551.28	1733.13
551.64	1734.98
551.99	1736.92
552.35	1738.03
552.70	1739.39
553.06	1740.70
553.41	1741.97
553.77	1743.28
554.13	1744.47
554.48	1745.80
554.84	1746.94
555.19	1747.42
555.55	1747.84
555.90	1747.67
556.26	1748.23
556.61	1748.23
556.97	1747.86
557.32	1747.55
557.68	1746.88
558.03	1746.14
558.39	1745.60
558.74	1745.83
559.10	1745.44
559.45	1744.45
559.81	1743.98
560.16	1742.78
560.52	1741.81
560.87	1740.33
561.23	1738.67
561.58	1737.59
561.94	1735.51
562.29	1733.27
562.64	1731.76
563.00	1730.27
563.35	1729.23
563.71	1728.18
564.06	1726.97
564.42	1725.61
564.77	1724.55
565.12	1723.56
565.48	1721.85
565.83	1720.32
566.19	1718.37
566.54	1715.74
566.89	1713.40
567.25	1711.35
567.60	1709.52
567.96	1707.12
568.31	1704.97
568.66	1702.47
569.02	1699.39
569.37	1696.04
569.72	1693.45
570.08	1690.52
570.43	1687.26
570.78	1683.85
571.14	1679.89
571.49	1675.98
571.84	1672.65
572.20	1668.60
572.55	1664.83
572.90	1660.48
573.26	1656.05
573.61	1651.49
573.96	1647.63
574.31	1642.99
574.67	1637.68
575.02	1632.64
575.37	1627.71
575.72	1622.45
576.08	1617.95
576.43	1612.99
576.78	1608.61
577.13	1603.97
577.49	1599.15
577.84	1594.33
578.19	1589.90
578.54	1585.74
578.90	1581.86
579.25	1577.15
579.60	1571.97
579.95	1566.60
580.30	1562.28
580.66	1558.03
581.01	1553.19
581.36	1548.06
581.71	1543.34
582.06	1538.98
582.42	1534.12
582.77	1529.09
583.12	1524.06
583.47	1519.54
583.82	1515.20
584.17	1510.65
584.53	1505.90
584.88	1501.04
585.23	1496.27
585.58	1491.45
585.93	1486.22
586.28	1481.37
586.63	1476.05
586.98	1471.48
587.34	1467.13
587.69	1462.32
588.04	1457.28
588.39	1452.48
588.74	1447.59
589.09	1443.04
589.44	1437.90
589.79	1433.40
590.14	1429.34
590.49	1425.01
590.84	1420.15
591.19	1415.85
591.54	1411.05
591.89	1405.48
592.25	1400.67
592.60	1395.67
592.95	1390.13
593.30	1384.66
593.65	1378.76
594.00	1373.99
594.35	1370.03
594.70	1364.81
595.05	1359.79
595.40	1355.06
595.75	1349.85
596.10	1345.20
596.45	1340.56
596.80	1336.44
597.15	1331.87
597.50	1326.75
597.85	1322.23
598.19	1317.24
598.54	1312.25
598.89	1307.67
599.24	1303.75
599.59	1299.30
599.94	1295.32
600.29	1291.27
600.64	1287.20
600.99	1282.86
601.34	1278.52
601.69	1272.91
602.04	1268.30
602.39	1264.13
602.74	1259.57
603.08	1256.10
603.43	1252.30
603.78	1247.73
604.13	1243.06
604.48	1238.77
604.83	1235.25
605.18	1231.34
605.53	1227.16
605.87	1222.59
606.22	1218.65
606.57	1214.29
606.92	1209.85
607.27	1205.20
607.62	1200.70
607.96	1196.62
608.31	1192.85
608.66	1188.23
609.01	1183.85
609.36	1179.44
609.70	1174.35
610.05	1169.65
610.40	1164.56
610.75	1159.37
611.10	1155.04
611.44	1149.76
611.79	1144.45
612.14	1138.67
612.49	1132.96
612.83	1127.87
613.18	1122.36
613.53	1116.83
613.88	1111.15
614.22	1105.98
614.57	1100.41
614.92	1095.11
615.27	1089.54
615.61	1083.98
615.96	1078.97
616.31	1073.77
616.65	1069.06
617.00	1064.32
617.35	1059.52
617.70	1054.12
618.04	1048.67
618.39	1042.67
618.74	1037.59
619.08	1032.39
619.43	1027.25
619.78	1022.16
620.12	1016.95
620.47	1012.26
620.82	1006.66
621.16	1001.44
621.51	996.10
621.85	991.05
622.20	985.88
622.55	980.60
622.89	975.54
623.24	970.33
623.59	965.10
623.93	959.77
624.28	954.72
624.62	949.62
624.97	944.81
625.32	940.00
625.66	935.36
626.01	930.59
626.35	925.99
626.70	921.18
627.04	916.85
627.39	912.03
627.73	907.13
628.08	902.95
628.43	898.11
628.77	893.44
629.12	888.72
629.46	884.49
629.81	880.11
630.15	875.46
630.50	870.78
630.84	866.16
631.19	861.51
631.53	856.70
631.88	851.71
632.22	846.78
632.57	842.30
632.91	837.63
633.26	833.11
633.60	828.58
633.95	824.49
634.29	819.81
634.64	815.64
634.98	811.19
635.32	806.90
635.67	802.93
636.01	798.82
636.36	794.50
636.70	790.15
637.05	785.95
637.39	781.94
637.73	778.06
638.08	774.51
638.42	770.70
638.77	766.84
639.11	762.94
639.45	758.96
639.80	754.74
640.14	750.65
640.49	746.57
640.83	742.28
641.17	738.02
641.52	733.75
641.86	729.46
642.20	725.54
642.55	721.03
642.89	716.81
643.23	712.50
643.58	708.73
643.92	704.46
644.26	700.30
644.61	696.16
644.95	692.05
645.29	687.73
645.64	683.43
645.98	679.44
646.32	675.55
646.66	671.76
647.01	667.98
647.35	664.25
647.69	660.17
648.04	656.55
648.38	652.49
648.72	648.75
649.06	644.86
649.41	640.95
649.75	637.44
650.09	633.85
650.43	630.06
650.78	626.01
651.12	622.22
651.46	618.45
651.80	614.78
652.14	611.04
652.49	607.34
652.83	603.72
653.17	599.68
653.51	595.92
653.85	592.18
654.20	588.45
654.54	584.53
654.88	581.00
655.22	577.35
655.56	573.73
655.90	569.98
656.25	566.48
656.59	562.86
656.93	559.21
657.27	555.74
657.61	552.32
657.95	549.11
658.29	545.79
658.64	542.70
658.98	539.24
659.32	535.73
659.66	532.34
660.00	528.91
660.34	525.74
660.68	522.30
661.02	518.82
661.36	515.81
661.70	512.77
662.05	509.84
662.39	506.89
662.73	503.97
663.07	501.33
663.41	498.40
663.75	495.58
664.09	492.58
664.43	489.49
664.77	486.68
665.11	483.78
665.45	481.00
665.79	478.10
666.13	475.34
666.47	472.64
666.81	469.88
667.15	467.20
667.49	464.69
667.83	462.34
668.17	459.89
668.51	457.28
668.85	454.92
669.19	452.50
669.53	449.98
669.87	447.55
670.21	444.94
670.55	442.55
670.89	440.37
671.23	438.27
671.57	436.02
671.91	433.73
672.25	431.47
672.58	429.21
672.92	426.98
673.26	424.90
673.60	422.78
673.94	420.67
674.28	418.63
674.62	416.62
674.96	414.46
675.30	412.49
675.64	410.45
675.97	408.40
676.31	406.43
676.65	404.39
676.99	402.53
677.33	400.48
677.67	398.59
678.01	396.50
678.34	394.61
678.68	392.81
679.02	390.84
679.36	388.98
679.70	387.20
680.04	385.33
680.37	383.39
680.71	381.54
681.05	380.00
681.39	378.29
681.73	376.56
682.06	374.92
682.40	373.27
682.74	371.62
683.08	370.00
683.42	368.12
683.75	366.52
684.09	364.78
684.43	363.25
684.77	361.54
685.10	359.96
685.44	358.24
685.78	356.57
686.12	355.02
686.45	353.48
686.79	351.89
687.13	350.55
687.46	349.21
687.80	347.85
688.14	346.11
688.48	344.79
688.81	343.20
689.15	341.75
689.49	340.23
689.82	338.81
690.16	337.26
690.50	335.79
690.83	334.27
691.17	332.73
691.51	331.36
691.84	330.00
692.18	328.61
692.52	327.34
692.85	326.12
693.19	324.91
693.52	323.58
693.86	322.24
694.20	320.88
694.53	319.48
694.87	318.17
695.21	316.93
695.54	315.47
695.88	314.15
696.21	312.76
696.55	311.58
696.88	310.30
697.22	309.13
697.56	308.16
697.89	307.10
698.23	305.96
698.56	304.80
698.90	303.80
699.23	302.64
699.57	301.45
699.90	300.32
700.24	299.24
700.58	298.21
700.91	297.20
701.25	296.40
701.58	295.52
701.92	294.56
702.25	293.58
702.59	292.59
702.92	291.73
703.26	290.87
703.59	290.02
703.93	289.39
704.26	288.48
704.60	287.49
704.93	286.52
705.26	285.66
705.60	284.88
705.93	283.99
706.27	283.19
706.60	282.48
706.94	281.89
707.27	280.97
707.61	280.12
707.94	279.26
708.27	278.18
708.61	277.27
708.94	276.42
709.28	275.70
709.61	275.05
709.94	274.30
710.28	273.61
710.61	272.82
710.95	271.74
711.28	271.30
711.61	270.63
711.95	270.11
712.28	269.46
712.61	268.78
712.95	268.30
713.28	267.77
713.61	267.11
713.95	266.29
714.28	265.73
714.61	265.17
714.95	264.65
715.28	263.95
715.61	263.42
715.95	262.84
716.28	262.28
716.61	261.75
716.95	261.12
717.28	260.52
717.61	260.06
717.94	259.69
718.28	258.86
718.61	258.33
718.94	257.73
719.27	257.22
719.61	256.72
719.94	256.05
720.27	255.44
720.60	254.85
720.94	254.42
721.27	253.98
721.60	253.55
721.93	253.10
722.27	252.88
722.60	252.49
722.93	252.09
723.26	251.61
723.59	251.13
723.93	250.77
724.26	250.39
724.59	249.88
724.92	249.42
725.25	249.15
725.59	248.69
725.92	248.29
726.25	247.92
726.58	247.51
726.91	247.18
727.24	246.85
727.57	246.52
727.91	246.10
728.24	245.69
728.57	245.30
728.90	244.94
729.23	244.48
729.56	244.27
729.89	243.83
730.22	243.47
730.55	243.12
730.89	242.81
731.22	242.42
731.55	242.15
731.88	241.87
732.21	241.43
732.54	241.18
732.87	240.86
733.20	240.58
733.53	240.27
733.86	239.91
734.19	239.54
734.52	239.31
734.85	239.22
735.18	238.90
735.51	238.69
735.84	238.50
736.17	238.31
736.50	237.87
736.83	238.07
737.16	237.83
737.49	237.56
737.82	237.22
738.15	237.00
738.48	236.70
738.81	236.36
739.14	236.09
739.47	235.80
739.80	235.58
740.13	235.38
740.46	235.09
740.79	234.81
741.12	234.57
741.45	234.28
741.78	233.83
742.11	233.73
742.44	233.38
742.77	233.21
743.10	232.88
743.43	232.59
743.75	231.99
744.08	232.21
744.41	231.93
744.74	231.68
745.07	231.38
745.40	231.16
745.73	231.16
746.06	230.95
746.39	230.76
746.71	230.45
747.04	230.09
747.37	229.84
747.70	229.74
748.03	229.55
748.36	229.39
748.68	229.25
749.01	228.95
749.34	228.82
749.67	228.56
750.00	228.41
750.33	228.49
750.65	228.33
750.98	227.74
751.31	227.60
751.64	227.45
751.97	227.46
752.29	227.31
752.62	226.87
752.95	226.65
753.28	226.50
753.60	226.25
753.93	226.26
754.26	226.16
754.59	225.82
754.91	225.57
755.24	225.36
755.57	225.16
755.90	225.00
756.22	224.84
756.55	224.65
756.88	224.43
757.20	224.00
757.53	223.77
757.86	223.60
758.19	223.42
758.51	223.32
758.84	223.01
759.17	222.88
759.49	222.88
759.82	222.94
760.15	222.82
760.47	222.80
760.80	222.48
761.13	222.38
761.45	222.26
761.78	222.14
762.11	222.04
762.43	221.86
762.76	221.71
763.08	221.57
763.41	221.48
763.74	221.40
764.06	221.38
764.39	221.25
764.71	221.14
765.04	221.06
765.37	220.95
765.69	220.78
766.02	220.65
766.34	220.47
766.67	220.24
767.00	220.16
767.32	220.23
767.65	220.38
767.97	220.21
768.30	220.20
768.62	220.16
768.95	219.95
769.27	219.88
769.60	219.78
769.92	219.67
770.25	219.45
770.57	219.28
770.90	219.11
771.22	218.99
771.55	218.92
771.87	218.75
772.20	218.58
772.52	218.86
772.85	219.18
773.17	219.14
773.50	219.06
773.82	218.95
774.15	218.70
774.47	218.40
774.80	218.36
775.12	218.22
775.45	218.23
775.77	218.20
776.09	218.13
776.42	218.12
776.74	218.17
777.07	218.13
777.39	218.16
777.72	218.07
778.04	218.12
778.36	218.00
778.69	217.93
779.01	217.95
779.33	217.58
779.66	217.11
779.98	217.02
780.31	217.05
780.63	217.09
780.95	217.09
781.28	217.07
781.60	216.99
781.92	217.02
782.25	216.93
782.57	216.92
782.89	216.86
783.22	216.79
783.54	216.69
783.86	216.65
784.19	216.56
784.51	216.63
784.83	216.45
785.16	216.36
785.48	216.38
785.80	216.37
786.12	216.37
786.45	216.44
786.77	216.36
787.09	216.17
787.42	216.02
787.74	215.92
788.06	215.84
788.38	215.85
788.71	215.78
789.03	215.69
789.35	215.67
789.67	215.65
789.99	215.58
790.32	215.41
790.64	215.46
790.96	215.61
791.28	215.45
791.61	215.45
791.93	215.41
792.25	215.42
792.57	215.56
792.89	215.46
793.21	215.35
793.54	215.30
793.86	215.32
794.18	215.30
794.50	215.27
794.82	215.30
795.14	215.28
795.47	215.33
795.79	215.28
796.11	215.17
796.43	215.06
796.75	215.10
797.07	215.04
797.39	214.88
797.71	214.69
798.04	214.70
798.36	214.72
798.68	214.68
799.00	214.66
799.32	214.40
799.64	214.38
799.96	214.32
800.28	214.37
800.60	214.28
800.92	214.28
801.24	214.24
801.56	214.17
801.89	214.10
802.21	213.99
802.53	213.93
802.85	214.02
803.17	214.20
803.49	214.10
803.81	214.17
804.13	214.22
804.45	214.13
804.77	214.13
805.09	214.06
805.41	214.09
805.73	214.00
806.05	213.98
806.37	213.99
806.69	214.01
807.01	213.95
807.33	214.06
807.65	213.94
807.97	214.10
808.28	214.09
808.60	214.08
808.92	214.08
809.24	214.29
809.56	214.15
809.88	214.03
810.20	214.06
810.52	214.10
810.84	213.99
811.16	213.94
811.48	213.89
811.80	214.10
812.12	214.07
812.43	214.05
812.75	214.00
813.07	213.90
813.39	213.92
813.71	213.83
814.03	213.71
814.35	213.71
814.67	213.62
814.98	213.54
815.30	213.51
815.62	213.50
815.94	213.34
816.26	213.43
816.58	213.35
816.89	213.36
817.21	213.20
817.53	213.22
817.85	213.28
818.17	213.22
818.48	213.01
818.80	213.00
819.12	213.00
819.44	212.95
819.76	212.92
820.07	212.76
820.39	212.77
820.71	212.78
821.03	212.77
821.34	212.69
821.66	212.70
821.98	212.74
822.30	212.72
822.61	212.82
822.93	212.75
823.25	212.74
823.57	212.68
823.88	212.79
824.20	212.73
824.52	212.74
824.83	212.81
825.15	212.80
825.47	212.75
825.79	212.78
826.10	212.75
826.42	212.77
826.74	212.91
827.05	212.93
827.37	212.90
827.69	212.91
828.00	212.87
828.32	212.87
828.64	212.74
828.95	212.80
829.27	212.76
829.58	212.72
829.90	212.75
830.22	212.76
830.53	212.75
830.85	212.81
831.17	212.68
831.48	212.64
831.80	212.61
832.11	212.68
832.43	212.62
832.75	212.63
833.06	212.86
833.38	212.69
833.69	212.70
834.01	212.72
834.32	212.62
834.64	212.63
834.96	212.63
835.27	212.63
835.59	212.55
835.90	212.43
836.22	212.43
836.53	212.34
836.85	212.30
837.16	212.60
837.48	212.50
837.79	212.67
838.11	212.64
838.42	212.63
838.74	212.60
839.05	212.59
839.37	212.60
839.68	212.34
840.00	212.42
840.31	212.40
840.63	212.36
840.94	212.35
841.26	212.33
841.57	212.34
841.88	212.44
842.20	212.39
842.51	212.35
842.83	212.38
843.14	212.71
843.46	212.71
843.77	212.46
844.08	212.51
844.40	212.38
844.71	212.42
845.03	212.41
845.34	212.43
845.65	212.36
845.97	212.36
846.28	212.43
846.60	212.42
846.91	212.35
847.22	212.36
847.54	212.47
847.85	212.46
848.16	212.44
848.48	212.36
848.79	212.48
849.10	212.51
849.42	212.48
849.73	212.18
850.04	212.19
850.36	212.12
850.67	212.17
850.98	212.21
851.30	212.19
851.61	212.18
851.92	212.14
852.23	212.27
852.55	212.26
852.86	212.24
853.17	212.21
853.49	212.36
853.80	212.43
854.11	212.41
854.42	212.43
854.74	212.38
855.05	212.38
855.36	212.20
855.67	212.27
855.99	212.33
856.30	212.74
856.61	212.69
856.92	212.75
857.23	212.74
857.55	212.67
857.86	212.58
858.17	212.60
858.48	212.52
858.79	212.46
859.11	212.49
859.42	212.51
859.73	212.46
860.04	212.33
860.35	212.20
860.66	212.08
860.98	212.11
861.29	212.07
861.60	211.99
861.91	212.08
862.22	211.99
862.53	211.84
862.84	211.41
863.16	211.51
863.47	211.36
863.78	211.31
864.09	211.34
864.40	211.45
864.71	211.45
865.02	211.47
865.33	211.36
865.64	211.33
865.95	211.26
866.27	211.50
866.58	211.54
866.89	211.57
867.20	211.56
867.51	211.53
867.82	211.53
868.13	211.71
868.44	211.65
868.75	211.71
869.06	211.73
869.37	211.70
869.68	211.53
869.99	211.65
870.30	211.65
870.61	211.66
870.92	211.53
871.23	211.57
871.54	211.71
871.85	211.80
872.16	211.85
872.47	211.76
872.78	211.58
873.09	211.60
873.40	211.55
873.71	211.59
874.02	211.56
874.33	211.55
874.64	211.48
874.95	211.55
875.26	211.40
875.56	211.44
875.87	211.47
876.18	211.53
876.49	211.81
876.80	211.80
877.11	211.71
877.42	211.79
877.73	211.69
878.04	211.58
878.35	211.53
878.66	211.57
878.96	211.62
879.27	211.56
879.58	211.46
879.89	211.51
880.20	211.53
880.51	211.50
880.82	211.53
881.12	211.55
881.43	211.42
881.74	211.45
882.05	211.46
882.36	211.53
882.67	211.50
882.97	211.10
883.28	211.05
883.59	211.05
883.90	211.08
884.21	211.18
884.51	211.09
884.82	211.07
885.13	210.99
885.44	211.00
885.74	211.02
886.05	211.05
886.36	211.04
886.67	211.00
886.98	211.13
887.28	211.15
887.59	211.09
887.90	211.16
888.20	211.15
888.51	211.16
888.82	211.04
889.13	211.08
889.43	211.40
889.74	211.45
890.05	211.53
890.35	211.42
890.66	211.34
890.97	211.36
891.28	211.31
891.58	211.35
891.89	211.31
892.20	211.29
892.50	211.24
892.81	211.14
893.12	211.08
893.42	210.94
893.73	210.92
894.04	210.98
894.34	210.98
894.65	210.95
894.95	210.93
895.26	210.97
895.57	211.15
895.87	210.79
896.18	210.78
896.48	210.76
896.79	210.77
897.10	210.82
897.40	210.85
897.71	211.00
898.01	211.00
898.32	211.07
898.63	211.08
898.93	211.15
899.24	211.21
899.54	211.23
899.85	211.23
900.15	211.24
900.46	211.17
900.76	211.12
901.07	211.16
901.38	211.16
901.68	211.20
901.99	211.03
902.29	211.07
902.60	211.03
902.90	210.97
903.21	211.02
903.51	210.99
903.82	211.06
904.12	210.99
904.43	210.99
904.73	210.94
905.03	210.95
905.34	211.27
905.64	211.31
905.95	211.32
906.25	211.29
906.56	211.24
906.86	211.28
907.17	211.25
907.47	211.22
907.77	211.22
908.08	211.11
908.38	211.18
908.69	211.25
908.99	211.35
909.30	211.37
909.60	211.30
909.90	211.29
910.21	211.17
910.51	211.14
910.81	211.15
911.12	211.15
911.42	211.09
911.73	210.72
912.03	210.77
912.33	210.87
912.64	210.88
912.94	210.90
913.24	210.84
913.55	210.86
913.85	210.87
914.15	210.91
914.46	210.95
914.76	210.82
915.06	210.74
915.37	210.68
915.67	210.71
915.97	210.74
916.27	210.71
916.58	210.73
916.88	210.67
917.18	210.63
917.49	210.95
917.79	211.00
918.09	211.06
918.39	211.10
918.70	211.09
919.00	211.12
919.30	211.30
919.60	211.28
919.91	211.27
920.21	211.27
920.51	211.22
920.81	211.29
921.12	211.42
921.42	211.48
921.72	211.52
922.02	211.51
922.32	211.57
922.63	211.61
922.93	211.87
923.23	211.98
923.53	211.94
923.83	211.63
924.13	211.65
924.44	211.67
924.74	211.74
925.04	211.81
925.34	211.79
925.64	211.68
925.94	211.74
926.24	211.93
926.55	211.96
926.85	212.09
927.15	212.05
927.45	212.09
927.75	212.05
928.05	212.06
928.35	212.02
928.65	212.07
928.95	212.05
929.26	211.77
929.56	211.79
929.86	211.84
930.16	211.85
930.46	211.84
930.76	211.85
931.06	211.73
931.36	211.60
931.66	211.62
931.96	211.57
932.26	211.60
932.56	211.51
932.86	211.46
933.16	211.38
933.46	211.26
933.76	211.13
934.06	211.21
934.36	211.33
934.66	211.37
934.96	211.29
935.26	211.37
935.56	211.53
935.86	211.46
936.16	211.35
936.46	211.32
936.76	211.32
937.06	211.22
937.36	211.20
937.66	211.17
937.96	211.17
938.26	211.16
938.56	211.15
938.86	211.15
939.16	211.25
939.46	211.25
939.76	211.30
940.06	211.30
940.35	211.23
940.65	211.05
940.95	211.09
941.25	210.99
941.55	210.90
941.85	210.88
942.15	210.94
942.45	211.11
942.75	211.06
943.04	211.04
943.34	211.08
943.64	211.05
943.94	211.08
944.24	211.19
944.54	211.20
944.84	211.15
945.13	211.04
945.43	211.03
945.73	211.02
946.03	211.00
946.33	210.86
946.62	210.77
946.92	210.78
947.22	210.80
947.52	210.83
947.82	210.84
948.11	210.76
948.41	210.68
948.71	210.61
949.01	210.71
949.31	210.72
949.60	210.72
949.90	210.79
950.20	210.74
950.50	210.57
950.79	210.57
951.09	210.55
951.39	210.62
951.69	210.56
951.98	210.59
952.28	210.65
952.58	210.75
952.87	210.78
953.17	210.81
953.47	210.75
953.76	210.83
954.06	210.80
954.36	210.75
954.66	210.78
954.95	210.87
955.25	210.88
955.55	210.91
955.84	210.85
956.14	210.80
956.44	210.77
956.73	210.81
957.03	210.86
957.32	210.91
957.62	210.86
957.92	210.91
958.21	210.94
958.51	211.37
958.81	211.41
959.10	211.46
959.40	211.52
959.69	211.50
959.99	211.49
960.29	211.50
960.58	211.54
960.88	211.71
961.17	211.66
961.47	211.69
961.76	211.59
962.06	211.65
962.36	211.69
962.65	211.82
962.95	211.86
963.24	211.73
963.54	211.80
963.83	211.86
964.13	211.80
964.42	211.69
964.72	211.44
965.01	211.50
965.31	211.54
965.60	211.48
965.90	211.73
966.19	211.71
966.49	211.77
966.78	211.75
967.08	211.65
967.37	211.65
967.67	211.61
967.96	211.72
968.26	211.77
968.55	211.82
968.85	211.75
969.14	211.70
969.43	211.69
969.73	211.64
970.02	211.61
970.32	211.63
970.61	211.60
970.91	211.45
971.20	211.25
971.49	211.27
971.79	211.26
972.08	211.03
972.38	211.06
972.67	210.99
972.96	211.06
973.26	210.94
973.55	211.05
973.85	211.02
974.14	210.95
974.43	210.96
974.73	210.88
975.02	210.86
975.31	210.90
975.61	210.98
975.90	210.86
976.19	210.84
976.49	210.89
976.78	210.93
977.07	210.92
977.37	211.03
977.66	211.01
977.95	210.95
978.24	210.89
978.54	210.89
978.83	210.89
979.12	210.85
979.42	210.92
979.71	210.78
980.00	210.77
980.29	210.78
980.59	210.70
980.88	210.83
981.17	210.77
981.46	210.70
981.76	210.68
982.05	210.85
982.34	210.82
982.63	210.78
982.93	210.74
983.22	210.85
983.51	210.88
983.80	210.84
984.09	210.92
984.39	210.98
984.68	210.99
984.97	210.97
985.26	210.95
985.55	210.95
985.85	210.89
986.14	210.93
986.43	211.04
986.72	211.00
987.01	210.83
987.30	210.96
987.59	210.95
987.89	210.98
988.18	210.91
988.47	210.93
988.76	210.89
989.05	210.87
989.34	210.90
989.63	210.99
989.92	210.95
990.22	210.90
990.51	210.89
990.80	210.82
991.09	210.88
991.38	210.93
991.67	210.94
991.96	210.95
992.25	210.92
992.54	210.81
992.83	210.90
993.12	210.90
993.41	210.91
993.70	211.05
993.99	211.11
994.28	211.20
994.58	211.25
994.87	211.29
995.16	211.32
995.45	211.22
995.74	211.10
996.03	211.24
996.32	211.28
996.61	211.39
996.90	211.37
997.19	211.40
997.48	211.43
997.77	211.34
998.06	211.37
998.34	211.35
998.63	211.37
998.92	211.27
999.21	211.36
999.50	211.41
999.79	211.33
1000.08	211.30
1000.37	211.24
1000.66	211.23
1000.95	211.27
1001.24	211.29
1001.53	211.36
1001.82	211.34
1002.11	211.23
1002.40	211.28
1002.68	211.31
1002.97	211.66
1003.26	211.61
1003.55	211.65
1003.84	211.72
1004.13	211.85
1004.42	211.87
1004.71	211.90
1004.99	211.94
1005.28	211.99
1005.57	211.90
1005.86	211.89
1006.15	211.85
1006.44	211.75
1006.72	211.80
1007.01	211.75
1007.30	211.66
1007.59	211.59
1007.88	211.53
1008.17	211.54
1008.45	211.50
1008.74	211.36
1009.03	211.07
1009.32	211.05
1009.60	210.98
1009.89	210.87
1010.18	210.66
1010.47	210.59
1010.76	210.55
1011.04	210.54
1011.33	210.55
1011.62	210.59
1011.91	210.58
1012.19	210.62
1012.48	210.65
1012.77	210.63
1013.05	210.75
1013.34	210.84
1013.63	210.82
1013.92	210.94
1014.20	210.88
1014.49	210.82
1014.78	210.88
1015.06	210.76
1015.35	210.71
1015.64	210.72
1015.92	210.81
1016.21	210.86
1016.50	210.91
1016.78	210.95
1017.07	210.86
1017.36	210.78
1017.64	210.72
1017.93	210.83
1018.22	210.79
1018.50	210.77
1018.79	210.73
1019.08	210.58
1019.36	210.61
1019.65	210.52
1019.93	210.51
1020.22	210.62
1020.51	210.84
1020.79	210.78
1021.08	211.10
1021.36	209.80
1021.65	210.90
1021.94	210.55
1022.22	210.95
1022.51	209.20
1022.79	211.45
1023.08	212.10
1023.36	214.80
1023.65	210.20
>>>>>End Processed Spectral Data<<<<<
