SpectraSuite Data File
++++++++++++++++++++++++++++++++++++
Date: Mon Feb 25 16:58:26 EST 2013
User: group
Dark Spectrum Present: No
Reference Spectrum Present: No
Number of Sampled Component Spectra: 1
Spectrometers: USB2E7196
Integration Time (usec): 104000 (USB2E7196)
Spectra Averaged: 20 (USB2E7196)
Boxcar Smoothing: 10 (USB2E7196)
Correct for Electrical Dark: No (USB2E7196)
Strobe/Lamp Enabled: No (USB2E7196)
Correct for Detector Non-linearity: No (USB2E7196)
Correct for Stray Light: No (USB2E7196)
Number of Pixels in Processed Spectrum: 2048
>>>>>Begin Processed Spectral Data<<<<<
339.09	0.00
339.48	198.15
339.86	199.10
340.24	201.95
340.63	203.20
341.01	209.15
341.39	205.40
341.78	208.30
342.16	209.60
342.54	209.25
342.93	198.40
343.31	208.44
343.69	208.97
344.07	209.49
344.46	209.95
344.84	210.31
345.22	210.40
345.60	210.67
345.99	210.82
346.37	210.90
346.75	210.96
347.13	210.98
347.52	211.04
347.90	211.07
348.28	211.09
348.66	211.16
349.05	211.10
349.43	211.16
349.81	211.24
350.19	211.20
350.57	211.23
350.96	211.26
351.34	211.40
351.72	211.50
352.10	211.64
352.48	211.64
352.87	211.71
353.25	211.75
353.63	211.83
354.01	211.90
354.39	211.99
354.77	212.13
355.15	212.34
355.54	212.33
355.92	212.33
356.30	212.37
356.68	212.66
357.06	212.67
357.44	212.68
357.82	212.75
358.20	212.84
358.58	212.92
358.97	213.02
359.35	213.12
359.73	213.28
360.11	213.26
360.49	213.38
360.87	213.45
361.25	213.53
361.63	213.64
362.01	213.67
362.39	213.64
362.77	213.69
363.15	213.67
363.53	213.82
363.91	213.92
364.29	214.03
364.67	213.83
365.05	213.91
365.43	214.04
365.81	214.05
366.19	214.18
366.57	214.36
366.95	214.32
367.33	214.15
367.71	214.09
368.09	214.21
368.47	214.18
368.85	214.10
369.23	214.12
369.61	213.96
369.99	214.05
370.37	214.13
370.75	214.29
371.13	214.25
371.51	214.12
371.89	214.08
372.27	214.04
372.65	214.00
373.03	213.93
373.41	213.83
373.78	213.80
374.16	213.58
374.54	213.35
374.92	213.31
375.30	213.37
375.68	213.34
376.06	213.24
376.44	213.16
376.82	213.17
377.19	213.15
377.57	213.07
377.95	212.92
378.33	212.77
378.71	212.47
379.09	212.40
379.47	212.31
379.84	212.28
380.22	212.19
380.60	212.04
380.98	212.04
381.36	211.95
381.73	211.81
382.11	211.85
382.49	211.92
382.87	211.86
383.25	211.79
383.62	212.05
384.00	212.04
384.38	212.02
384.76	212.07
385.13	212.13
385.51	212.13
385.89	212.04
386.27	212.05
386.64	212.10
387.02	212.03
387.40	212.04
387.78	211.99
388.15	212.01
388.53	212.03
388.91	212.00
389.29	211.93
389.66	212.02
390.04	211.90
390.42	211.87
390.79	211.84
391.17	211.76
391.55	211.39
391.92	211.30
392.30	211.29
392.68	211.20
393.05	211.22
393.43	211.30
393.81	211.30
394.18	211.18
394.56	211.15
394.94	211.26
395.31	211.25
395.69	211.36
396.06	211.32
396.44	211.30
396.82	211.30
397.19	211.52
397.57	211.50
397.95	211.58
398.32	211.52
398.70	211.60
399.07	211.72
399.45	211.77
399.82	211.85
400.20	211.88
400.58	211.93
400.95	211.83
401.33	211.93
401.70	212.22
402.08	212.45
402.45	212.49
402.83	212.66
403.20	212.76
403.58	212.81
403.95	213.10
404.33	213.35
404.71	213.56
405.08	213.95
405.46	214.08
405.83	214.39
406.21	214.64
406.58	214.93
406.96	215.20
407.33	215.48
407.70	215.82
408.08	216.50
408.45	216.92
408.83	217.51
409.20	217.92
409.58	218.27
409.95	218.81
410.33	219.55
410.70	220.06
411.08	220.82
411.45	221.60
411.82	222.28
412.20	223.11
412.57	224.20
412.95	224.84
413.32	226.04
413.69	227.05
414.07	228.24
414.44	229.55
414.82	230.88
415.19	232.43
415.56	234.01
415.94	235.49
416.31	237.39
416.68	239.16
417.06	241.25
417.43	243.36
417.81	245.70
418.18	248.00
418.55	250.55
418.93	253.21
419.30	255.99
419.67	258.92
420.04	261.99
420.42	265.17
420.79	268.95
421.16	272.57
421.54	276.54
421.91	280.55
422.28	284.66
422.66	289.14
423.03	293.67
423.40	298.25
423.77	303.10
424.15	307.95
424.52	313.04
424.89	318.65
425.26	324.05
425.64	329.21
426.01	334.95
426.38	341.02
426.75	347.16
427.13	353.40
427.50	360.14
427.87	367.20
428.24	374.12
428.61	380.77
428.99	388.13
429.36	396.07
429.73	403.86
430.10	411.66
430.47	419.68
430.85	427.91
431.22	436.72
431.59	446.20
431.96	455.20
432.33	465.34
432.70	475.08
433.08	486.53
433.45	497.39
433.82	508.32
434.19	520.30
434.56	532.20
434.93	543.74
435.30	555.35
435.68	568.01
436.05	580.73
436.42	593.31
436.79	605.02
437.16	617.63
437.53	630.95
437.90	644.28
438.27	657.45
438.64	671.10
439.01	683.80
439.38	695.12
439.75	706.43
440.13	718.96
440.50	730.90
440.87	740.80
441.24	751.06
441.61	762.25
441.98	770.90
442.35	780.92
442.72	790.83
443.09	800.20
443.46	806.45
443.83	810.81
444.20	814.77
444.57	820.23
444.94	823.06
445.31	826.29
445.68	829.40
446.05	831.32
446.42	830.92
446.79	830.39
447.16	829.80
447.53	829.60
447.90	825.83
448.27	822.05
448.64	816.37
449.01	812.56
449.37	804.74
449.74	797.34
450.11	788.18
450.48	778.31
450.85	768.21
451.22	759.36
451.59	751.07
451.96	743.20
452.33	732.24
452.70	722.65
453.07	710.54
453.43	698.20
453.80	686.30
454.17	675.10
454.54	664.48
454.91	652.77
455.28	641.38
455.65	630.89
456.02	620.32
456.38	611.33
456.75	599.97
457.12	590.73
457.49	581.51
457.86	572.34
458.23	564.52
458.59	556.08
458.96	547.56
459.33	540.03
459.70	532.37
460.07	526.26
460.43	519.31
460.80	512.86
461.17	507.09
461.54	501.10
461.91	495.44
462.27	489.58
462.64	484.73
463.01	479.05
463.38	473.65
463.74	468.23
464.11	463.54
464.48	459.50
464.85	455.13
465.21	451.70
465.58	448.11
465.95	443.82
466.32	440.13
466.68	436.53
467.05	432.84
467.42	429.22
467.78	425.51
468.15	421.86
468.52	419.22
468.88	415.82
469.25	412.65
469.62	409.97
469.98	407.11
470.35	404.56
470.72	402.22
471.08	399.54
471.45	397.43
471.82	395.18
472.18	392.71
472.55	390.87
472.92	388.67
473.28	386.80
473.65	384.92
474.02	383.06
474.38	381.56
474.75	380.26
475.11	378.95
475.48	377.79
475.85	376.69
476.21	375.60
476.58	374.80
476.94	374.22
477.31	373.51
477.67	372.91
478.04	372.32
478.41	371.93
478.77	371.97
479.14	371.55
479.50	371.29
479.87	371.29
480.23	371.26
480.60	371.11
480.96	370.98
481.33	371.38
481.69	371.65
482.06	371.84
482.42	371.99
482.79	372.22
483.15	372.73
483.52	373.51
483.88	374.06
484.25	374.56
484.61	375.22
484.98	375.96
485.34	376.92
485.71	378.03
486.07	379.17
486.44	380.08
486.80	381.43
487.17	382.91
487.53	384.50
487.90	386.30
488.26	388.27
488.62	390.35
488.99	392.02
489.35	393.89
489.72	396.12
490.08	398.40
490.44	400.68
490.81	403.09
491.17	405.52
491.54	408.29
491.90	411.06
492.26	413.96
492.63	416.95
492.99	420.01
493.36	423.17
493.72	426.50
494.08	429.81
494.45	433.29
494.81	436.90
495.17	440.45
495.54	444.02
495.90	447.69
496.26	451.37
496.63	455.40
496.99	459.56
497.35	463.68
497.72	467.92
498.08	472.26
498.44	476.52
498.80	481.04
499.17	485.70
499.53	490.29
499.89	495.01
500.26	499.63
500.62	504.29
500.98	509.13
501.34	513.90
501.71	518.98
502.07	523.94
502.43	528.77
502.79	533.64
503.16	538.61
503.52	543.63
503.88	548.63
504.24	553.59
504.60	558.52
504.97	563.66
505.33	568.57
505.69	573.81
506.05	578.94
506.41	583.80
506.78	588.41
507.14	593.14
507.50	597.92
507.86	602.64
508.22	607.23
508.59	611.63
508.95	616.03
509.31	620.55
509.67	624.95
510.03	629.28
510.39	633.71
510.75	638.08
511.12	642.14
511.48	646.34
511.84	650.53
512.20	654.53
512.56	658.37
512.92	662.33
513.28	666.10
513.64	669.69
514.00	673.46
514.37	677.03
514.73	680.61
515.09	684.05
515.45	687.40
515.81	690.56
516.17	693.86
516.53	697.08
516.89	700.18
517.25	702.88
517.61	705.81
517.97	708.49
518.33	710.95
518.69	713.58
519.05	716.25
519.41	718.64
519.77	721.33
520.13	723.69
520.49	725.73
520.85	727.69
521.21	730.06
521.57	732.02
521.93	733.94
522.29	735.99
522.65	737.90
523.01	739.91
523.37	741.82
523.73	743.72
524.09	745.39
524.45	746.89
524.81	748.76
525.17	750.45
525.53	752.32
525.89	754.14
526.25	755.82
526.61	757.05
526.97	758.48
527.33	759.95
527.68	761.88
528.04	763.49
528.40	765.10
528.76	766.51
529.12	768.11
529.48	770.01
529.84	771.63
530.20	773.24
530.56	774.86
530.91	776.72
531.27	778.35
531.63	780.15
531.99	781.88
532.35	783.50
532.71	785.32
533.07	787.25
533.42	789.20
533.78	791.25
534.14	793.56
534.50	795.38
534.86	797.30
535.21	798.71
535.57	801.00
535.93	802.90
536.29	805.03
536.65	807.10
537.00	808.80
537.36	810.60
537.72	812.53
538.08	814.39
538.44	816.20
538.79	818.47
539.15	820.64
539.51	822.78
539.87	824.93
540.22	826.96
540.58	829.26
540.94	831.49
541.29	833.51
541.65	835.20
542.01	837.47
542.37	839.70
542.72	841.86
543.08	843.84
543.44	846.25
543.79	848.17
544.15	850.15
544.51	852.75
544.87	855.20
545.22	857.33
545.58	859.63
545.94	861.81
546.29	863.53
546.65	865.43
547.01	867.34
547.36	869.53
547.72	871.56
548.07	873.20
548.43	874.88
548.79	876.53
549.14	878.68
549.50	880.61
549.86	882.26
550.21	884.16
550.57	886.09
550.92	887.94
551.28	889.93
551.64	891.72
551.99	893.42
552.35	895.10
552.70	896.84
553.06	898.54
553.41	900.33
553.77	902.35
554.13	904.19
554.48	906.41
554.84	908.44
555.19	910.39
555.55	912.28
555.90	913.94
556.26	915.86
556.61	917.36
556.97	918.90
557.32	920.69
557.68	922.09
558.03	923.57
558.39	924.76
558.74	926.23
559.10	928.00
559.45	929.47
559.81	931.20
560.16	932.60
560.52	934.01
560.87	935.43
561.23	936.55
561.58	938.18
561.94	938.90
562.29	939.73
562.64	941.12
563.00	942.21
563.35	943.55
563.71	944.91
564.06	946.38
564.42	948.01
564.77	949.41
565.12	951.11
565.48	952.78
565.83	954.19
566.19	955.56
566.54	956.72
566.89	957.89
567.25	959.13
567.60	960.58
567.96	962.05
568.31	963.68
568.66	964.71
569.02	965.39
569.37	966.34
569.72	967.35
570.08	967.80
570.43	968.71
570.78	969.10
571.14	969.32
571.49	969.37
571.84	969.70
572.20	969.73
572.55	969.76
572.90	969.42
573.26	969.08
573.61	968.93
573.96	968.59
574.31	968.12
574.67	967.35
575.02	966.32
575.37	965.30
575.72	963.64
576.08	963.09
576.43	961.98
576.78	961.08
577.13	960.14
577.49	959.34
577.84	958.11
578.19	957.39
578.54	956.69
578.90	956.25
579.25	954.92
579.60	953.55
579.95	952.19
580.30	950.87
580.66	949.96
581.01	948.35
581.36	946.93
581.71	945.43
582.06	944.06
582.42	942.69
582.77	941.01
583.12	939.80
583.47	938.20
583.82	936.78
584.17	935.28
584.53	933.84
584.88	932.00
585.23	930.50
585.58	928.71
585.93	926.82
586.28	924.83
586.63	923.07
586.98	921.37
587.34	919.70
587.69	917.76
588.04	915.83
588.39	914.22
588.74	912.07
589.09	910.39
589.44	908.18
589.79	906.35
590.14	904.78
590.49	902.92
590.84	900.89
591.19	899.26
591.54	897.33
591.89	894.68
592.25	892.91
592.60	890.36
592.95	888.00
593.30	885.57
593.65	883.03
594.00	880.45
594.35	879.22
594.70	876.68
595.05	874.71
595.40	872.33
595.75	869.61
596.10	867.45
596.45	865.06
596.80	862.99
597.15	860.87
597.50	858.18
597.85	855.69
598.19	853.40
598.54	850.76
598.89	848.27
599.24	846.42
599.59	843.69
599.94	841.67
600.29	839.29
600.64	836.85
600.99	834.44
601.34	832.36
601.69	828.82
602.04	826.35
602.39	823.64
602.74	821.21
603.08	819.08
603.43	816.90
603.78	814.30
604.13	811.86
604.48	809.35
604.83	807.25
605.18	805.05
605.53	802.31
605.87	799.80
606.22	797.45
606.57	794.81
606.92	792.18
607.27	789.41
607.62	786.82
607.96	784.58
608.31	782.23
608.66	779.38
609.01	776.82
609.36	774.14
609.70	771.42
610.05	768.53
610.40	765.60
610.75	762.56
611.10	760.01
611.44	756.76
611.79	753.65
612.14	750.64
612.49	747.34
612.83	744.47
613.18	741.30
613.53	738.12
613.88	734.77
614.22	731.84
614.57	728.75
614.92	725.72
615.27	722.52
615.61	719.41
615.96	716.57
616.31	713.62
616.65	710.95
617.00	707.98
617.35	705.02
617.70	701.94
618.04	698.91
618.39	695.56
618.74	692.77
619.08	689.84
619.43	686.73
619.78	683.97
620.12	681.09
620.47	678.19
620.82	675.02
621.16	671.94
621.51	669.15
621.85	666.36
622.20	663.36
622.55	660.19
622.89	657.12
623.24	654.11
623.59	651.01
623.93	647.82
624.28	644.97
624.62	642.43
624.97	639.74
625.32	636.73
625.66	633.97
626.01	631.03
626.35	628.21
626.70	625.34
627.04	622.66
627.39	619.82
627.73	617.26
628.08	614.92
628.43	612.29
628.77	609.44
629.12	606.50
629.46	604.06
629.81	601.71
630.15	599.00
630.50	596.25
630.84	593.54
631.19	590.86
631.53	588.27
631.88	585.37
632.22	582.54
632.57	580.11
632.91	577.50
633.26	575.02
633.60	572.42
633.95	570.00
634.29	567.19
634.64	564.95
634.98	562.22
635.32	559.51
635.67	557.25
636.01	554.70
636.36	552.34
636.70	549.98
637.05	547.32
637.39	545.19
637.73	543.00
638.08	540.94
638.42	538.75
638.77	536.42
639.11	534.07
639.45	531.75
639.80	529.36
640.14	527.00
640.49	524.65
640.83	522.33
641.17	520.07
641.52	517.79
641.86	515.15
642.20	512.95
642.55	510.55
642.89	508.15
643.23	505.76
643.58	503.72
643.92	501.20
644.26	499.05
644.61	496.75
644.95	494.44
645.29	492.12
645.64	489.78
645.98	487.52
646.32	485.45
646.66	483.29
647.01	481.18
647.35	479.09
647.69	476.88
648.04	474.75
648.38	472.54
648.72	470.44
649.06	468.31
649.41	466.10
649.75	464.01
650.09	462.06
650.43	460.10
650.78	457.70
651.12	455.49
651.46	453.38
651.80	451.30
652.14	449.21
652.49	447.19
652.83	445.20
653.17	442.99
653.51	440.80
653.85	438.89
654.20	436.90
654.54	434.90
654.88	432.83
655.22	430.93
655.56	428.71
655.90	426.76
656.25	424.85
656.59	423.02
656.93	421.11
657.27	419.16
657.61	417.14
657.95	415.35
658.29	413.63
658.64	411.86
658.98	409.92
659.32	407.91
659.66	405.97
660.00	404.09
660.34	402.27
660.68	400.44
661.02	398.53
661.36	396.66
661.70	394.85
662.05	393.20
662.39	391.55
662.73	390.24
663.07	388.67
663.41	387.00
663.75	385.23
664.09	383.72
664.43	381.94
664.77	380.35
665.11	378.74
665.45	377.16
665.79	375.59
666.13	374.13
666.47	372.67
666.81	371.18
667.15	369.72
667.49	368.39
667.83	367.15
668.17	365.61
668.51	364.24
668.85	362.92
669.19	361.59
669.53	360.04
669.87	358.38
670.21	356.93
670.55	355.65
670.89	354.55
671.23	353.23
671.57	352.05
671.91	350.88
672.25	349.61
672.58	348.42
672.92	347.07
673.26	345.81
673.60	344.70
673.94	343.49
674.28	342.28
674.62	341.10
674.96	339.77
675.30	338.71
675.64	337.50
675.97	336.29
676.31	335.12
676.65	334.02
676.99	333.16
677.33	332.05
677.67	330.86
678.01	329.55
678.34	328.45
678.68	327.36
679.02	326.19
679.36	325.03
679.70	323.85
680.04	322.90
680.37	321.69
680.71	320.55
681.05	319.54
681.39	318.51
681.73	317.42
682.06	316.45
682.40	315.55
682.74	314.66
683.08	313.73
683.42	312.69
683.75	311.75
684.09	310.70
684.43	309.72
684.77	308.71
685.10	307.80
685.44	306.81
685.78	305.81
686.12	304.89
686.45	304.10
686.79	303.15
687.13	302.23
687.46	301.45
687.80	300.64
688.14	299.65
688.48	298.87
688.81	297.98
689.15	297.17
689.49	296.21
689.82	295.32
690.16	294.36
690.50	293.57
690.83	292.69
691.17	291.70
691.51	290.80
691.84	290.01
692.18	289.17
692.52	288.39
692.85	287.71
693.19	286.98
693.52	286.08
693.86	285.30
694.20	284.51
694.53	283.74
694.87	282.96
695.21	282.21
695.54	281.37
695.88	280.66
696.21	279.75
696.55	278.97
696.88	278.15
697.22	277.39
697.56	276.72
697.89	275.97
698.23	275.37
698.56	274.72
698.90	274.09
699.23	273.33
699.57	272.60
699.90	271.84
700.24	271.08
700.58	270.49
700.91	269.91
701.25	269.49
701.58	268.92
701.92	268.27
702.25	267.68
702.59	267.00
702.92	266.39
703.26	265.84
703.59	265.34
703.93	265.11
704.26	264.57
704.60	264.00
704.93	263.49
705.26	262.91
705.60	262.37
705.93	261.80
706.27	261.45
706.60	261.12
706.94	260.73
707.27	260.25
707.61	259.70
707.94	259.11
708.27	258.37
708.61	257.81
708.94	257.33
709.28	256.90
709.61	256.46
709.94	256.05
710.28	255.63
710.61	255.25
710.95	254.46
711.28	254.27
711.61	253.82
711.95	253.42
712.28	252.97
712.61	252.65
712.95	252.35
713.28	252.05
713.61	251.47
713.95	250.89
714.28	250.50
714.61	250.06
714.95	249.68
715.28	249.27
715.61	248.90
715.95	248.53
716.28	248.13
716.61	247.82
716.95	247.42
717.28	246.95
717.61	246.51
717.94	246.13
718.28	245.44
718.61	245.07
718.94	244.65
719.27	244.30
719.61	243.85
719.94	243.47
720.27	242.96
720.60	242.62
720.94	242.33
721.27	241.95
721.60	241.72
721.93	241.40
722.27	241.21
722.60	240.96
722.93	240.58
723.26	240.32
723.59	239.92
723.93	239.61
724.26	239.35
724.59	239.01
724.92	238.79
725.25	238.67
725.59	238.41
725.92	238.22
726.25	237.94
726.58	237.73
726.91	237.38
727.24	237.24
727.57	236.97
727.91	236.69
728.24	236.47
728.57	236.16
728.90	236.00
729.23	235.62
729.56	235.50
729.89	235.29
730.22	234.99
730.55	234.71
730.89	234.48
731.22	234.24
731.55	234.02
731.88	233.75
732.21	233.51
732.54	233.25
732.87	232.93
733.20	232.70
733.53	232.44
733.86	232.30
734.19	231.91
734.52	231.76
734.85	231.83
735.18	231.61
735.51	231.53
735.84	231.33
736.17	231.27
736.50	230.90
736.83	231.15
737.16	231.03
737.49	230.88
737.82	230.65
738.15	230.54
738.48	230.32
738.81	230.17
739.14	229.96
739.47	229.70
739.80	229.57
740.13	229.45
740.46	229.21
740.79	228.93
741.12	228.80
741.45	228.60
741.78	228.21
742.11	228.13
742.44	227.79
742.77	227.67
743.10	227.37
743.43	227.18
743.75	226.58
744.08	226.85
744.41	226.70
744.74	226.54
745.07	226.31
745.40	226.29
745.73	226.29
746.06	226.12
746.39	226.14
746.71	225.91
747.04	225.73
747.37	225.67
747.70	225.59
748.03	225.46
748.36	225.35
748.68	225.25
749.01	224.98
749.34	224.91
749.67	224.79
750.00	224.71
750.33	224.84
750.65	224.71
750.98	224.12
751.31	224.05
751.64	223.91
751.97	223.99
752.29	223.83
752.62	223.49
752.95	223.33
753.28	223.15
753.60	223.07
753.93	223.08
754.26	222.96
754.59	222.75
754.91	222.64
755.24	222.52
755.57	222.33
755.90	222.28
756.22	222.14
756.55	221.99
756.88	221.94
757.20	221.62
757.53	221.54
757.86	221.40
758.19	221.19
758.51	221.11
758.84	220.77
759.17	220.61
759.49	220.57
759.82	220.68
760.15	220.62
760.47	220.54
760.80	220.33
761.13	220.29
761.45	220.22
761.78	220.18
762.11	220.11
762.43	220.03
762.76	219.92
763.08	219.96
763.41	219.89
763.74	219.75
764.06	219.65
764.39	219.60
764.71	219.51
765.04	219.47
765.37	219.40
765.69	219.36
766.02	219.29
766.34	219.25
766.67	218.94
767.00	218.93
767.32	219.05
767.65	219.19
767.97	219.10
768.30	219.06
768.62	218.94
768.95	218.79
769.27	218.66
769.60	218.66
769.92	218.45
770.25	218.29
770.57	218.11
770.90	217.99
771.22	217.83
771.55	217.79
771.87	217.73
772.20	217.63
772.52	217.89
772.85	218.21
773.17	218.15
773.50	218.12
773.82	217.97
774.15	217.77
774.47	217.46
774.80	217.39
775.12	217.22
775.45	217.18
775.77	217.22
776.09	217.30
776.42	217.22
776.74	217.30
777.07	217.22
777.39	217.26
777.72	217.23
778.04	217.19
778.36	217.10
778.69	217.15
779.01	217.09
779.33	216.74
779.66	216.33
779.98	216.17
780.31	216.12
780.63	216.18
780.95	216.16
781.28	216.09
781.60	216.01
781.92	216.00
782.25	215.99
782.57	215.85
782.89	215.70
783.22	215.69
783.54	215.50
783.86	215.51
784.19	215.40
784.51	215.47
784.83	215.40
785.16	215.40
785.48	215.33
785.80	215.29
786.12	215.20
786.45	215.11
786.77	215.13
787.09	215.13
787.42	214.92
787.74	214.88
788.06	214.89
788.38	214.82
788.71	214.77
789.03	214.69
789.35	214.71
789.67	214.62
789.99	214.51
790.32	214.49
790.64	214.49
790.96	214.75
791.28	214.58
791.61	214.58
791.93	214.55
792.25	214.41
792.57	214.68
792.89	214.61
793.21	214.55
793.54	214.49
793.86	214.41
794.18	214.44
794.50	214.37
794.82	214.25
795.14	214.30
795.47	214.33
795.79	214.35
796.11	214.22
796.43	214.26
796.75	214.26
797.07	214.24
797.39	214.18
797.71	213.89
798.04	213.81
798.36	213.72
798.68	213.72
799.00	213.74
799.32	213.49
799.64	213.60
799.96	213.67
800.28	213.71
800.60	213.64
800.92	213.56
801.24	213.54
801.56	213.61
801.89	213.47
802.21	213.48
802.53	213.37
802.85	213.43
803.17	213.54
803.49	213.45
803.81	213.39
804.13	213.44
804.45	213.38
804.77	213.46
805.09	213.44
805.41	213.36
805.73	213.32
806.05	213.17
806.37	213.10
806.69	213.03
807.01	212.94
807.33	212.92
807.65	212.83
807.97	212.93
808.28	212.91
808.60	212.99
808.92	212.92
809.24	213.11
809.56	213.04
809.88	212.94
810.20	212.99
810.52	213.05
810.84	212.87
811.16	212.81
811.48	212.76
811.80	212.94
812.12	212.91
812.43	212.97
812.75	213.05
813.07	213.03
813.39	213.03
813.71	212.96
814.03	213.09
814.35	213.18
814.67	212.99
814.98	212.92
815.30	212.83
815.62	212.78
815.94	212.51
816.26	212.53
816.58	212.35
816.89	212.34
817.21	212.30
817.53	212.34
817.85	212.42
818.17	212.48
818.48	212.25
818.80	212.32
819.12	212.20
819.44	212.08
819.76	212.05
820.07	212.01
820.39	212.10
820.71	212.04
821.03	211.95
821.34	211.97
821.66	211.96
821.98	212.04
822.30	212.04
822.61	212.32
822.93	212.25
823.25	212.31
823.57	212.20
823.88	212.21
824.20	212.20
824.52	212.18
824.83	212.06
825.15	212.12
825.47	212.11
825.79	212.16
826.10	212.15
826.42	212.13
826.74	212.21
827.05	212.15
827.37	212.13
827.69	212.09
828.00	212.13
828.32	212.15
828.64	212.10
828.95	212.25
829.27	212.06
829.58	212.06
829.90	212.05
830.22	212.12
830.53	212.07
830.85	212.06
831.17	211.99
831.48	212.03
831.80	212.03
832.11	211.95
832.43	211.93
832.75	211.98
833.06	212.11
833.38	211.98
833.69	212.00
834.01	212.03
834.32	211.95
834.64	211.88
834.96	211.91
835.27	211.80
835.59	211.66
835.90	211.63
836.22	211.68
836.53	211.62
836.85	211.60
837.16	211.93
837.48	211.93
837.79	212.05
838.11	212.06
838.42	212.07
838.74	212.10
839.05	212.02
839.37	211.98
839.68	211.75
840.00	211.71
840.31	211.73
840.63	211.66
840.94	211.73
841.26	211.68
841.57	211.66
841.88	211.78
842.20	211.73
842.51	211.70
842.83	211.61
843.14	211.99
843.46	211.96
843.77	211.83
844.08	211.83
844.40	211.69
844.71	211.59
845.03	211.50
845.34	211.47
845.65	211.51
845.97	211.47
846.28	211.57
846.60	211.60
846.91	211.55
847.22	211.54
847.54	211.61
847.85	211.67
848.16	211.60
848.48	211.50
848.79	211.63
849.10	211.69
849.42	211.76
849.73	211.43
850.04	211.43
850.36	211.29
850.67	211.30
850.98	211.30
851.30	211.46
851.61	211.46
851.92	211.50
852.23	211.64
852.55	211.70
852.86	211.65
853.17	211.71
853.49	211.83
853.80	211.96
854.11	212.04
854.42	212.02
854.74	212.02
855.05	212.11
855.36	211.97
855.67	211.93
855.99	211.92
856.30	212.33
856.61	212.28
856.92	212.24
857.23	212.24
857.55	212.21
857.86	212.13
858.17	212.20
858.48	212.11
858.79	212.00
859.11	212.07
859.42	212.07
859.73	211.98
860.04	211.94
860.35	211.80
860.66	211.62
860.98	211.63
861.29	211.72
861.60	211.65
861.91	211.63
862.22	211.61
862.53	211.58
862.84	211.21
863.16	211.32
863.47	211.23
863.78	211.20
864.09	211.21
864.40	211.22
864.71	211.19
865.02	211.26
865.33	211.15
865.64	211.11
865.95	211.08
866.27	211.30
866.58	211.28
866.89	211.27
867.20	211.27
867.51	211.20
867.82	211.10
868.13	211.23
868.44	211.27
868.75	211.30
869.06	211.33
869.37	211.28
869.68	211.14
869.99	211.27
870.30	211.26
870.61	211.35
870.92	211.31
871.23	211.27
871.54	211.24
871.85	211.36
872.16	211.35
872.47	211.34
872.78	211.19
873.09	211.24
873.40	211.27
873.71	211.31
874.02	211.36
874.33	211.36
874.64	211.24
874.95	211.32
875.26	211.23
875.56	211.16
875.87	211.20
876.18	211.21
876.49	211.52
876.80	211.52
877.11	211.40
877.42	211.47
877.73	211.46
878.04	211.43
878.35	211.43
878.66	211.46
878.96	211.45
879.27	211.44
879.58	211.35
879.89	211.33
880.20	211.39
880.51	211.34
880.82	211.41
881.12	211.41
881.43	211.21
881.74	211.23
882.05	211.17
882.36	211.15
882.67	211.21
882.97	210.85
883.28	210.87
883.59	210.89
883.90	210.82
884.21	210.88
884.51	210.87
884.82	210.81
885.13	210.74
885.44	210.75
885.74	210.75
886.05	210.71
886.36	210.65
886.67	210.51
886.98	210.66
887.28	210.63
887.59	210.66
887.90	210.81
888.20	210.78
888.51	210.90
888.82	210.94
889.13	210.92
889.43	211.17
889.74	211.09
890.05	211.07
890.35	211.11
890.66	211.09
890.97	211.11
891.28	211.03
891.58	211.17
891.89	211.18
892.20	211.14
892.50	211.14
892.81	211.19
893.12	211.27
893.42	211.12
893.73	211.11
894.04	211.07
894.34	211.03
894.65	211.06
894.95	211.04
895.26	211.00
895.57	211.18
895.87	210.93
896.18	211.03
896.48	211.10
896.79	211.02
897.10	211.02
897.40	210.96
897.71	211.01
898.01	210.89
898.32	210.90
898.63	210.88
898.93	210.92
899.24	210.94
899.54	210.86
899.85	210.90
900.15	210.94
900.46	210.98
900.76	211.01
901.07	211.03
901.38	211.02
901.68	211.07
901.99	210.88
902.29	210.76
902.60	210.75
902.90	210.70
903.21	210.76
903.51	210.70
903.82	210.83
904.12	210.87
904.43	210.91
904.73	210.95
905.03	210.96
905.34	211.30
905.64	211.26
905.95	211.29
906.25	211.28
906.56	211.26
906.86	211.24
907.17	211.19
907.47	211.15
907.77	211.12
908.08	211.00
908.38	211.02
908.69	211.14
908.99	211.14
909.30	211.19
909.60	211.12
909.90	211.20
910.21	211.16
910.51	211.10
910.81	211.04
911.12	211.04
911.42	211.08
911.73	210.69
912.03	210.71
912.33	210.78
912.64	210.76
912.94	210.65
913.24	210.60
913.55	210.60
913.85	210.66
914.15	210.75
914.46	210.88
914.76	210.88
915.06	210.83
915.37	210.84
915.67	210.77
915.97	210.86
916.27	210.79
916.58	210.82
916.88	210.86
917.18	210.86
917.49	211.05
917.79	211.00
918.09	211.15
918.39	211.28
918.70	211.29
919.00	211.30
919.30	211.52
919.60	211.53
919.91	211.49
920.21	211.45
920.51	211.32
920.81	211.30
921.12	211.36
921.42	211.38
921.72	211.40
922.02	211.43
922.32	211.45
922.63	211.45
922.93	211.56
923.23	211.60
923.53	211.64
923.83	211.52
924.13	211.60
924.44	211.52
924.74	211.54
925.04	211.60
925.34	211.62
925.64	211.45
925.94	211.50
926.24	211.74
926.55	211.71
926.85	211.78
927.15	211.72
927.45	211.68
927.75	211.69
928.05	211.68
928.35	211.78
928.65	211.83
928.95	211.83
929.26	211.74
929.56	211.80
929.86	211.88
930.16	211.83
930.46	211.78
930.76	211.83
931.06	211.64
931.36	211.56
931.66	211.66
931.96	211.73
932.26	211.72
932.56	211.60
932.86	211.62
933.16	211.59
933.46	211.61
933.76	211.53
934.06	211.65
934.36	211.73
934.66	211.63
934.96	211.60
935.26	211.69
935.56	211.71
935.86	211.59
936.16	211.46
936.46	211.38
936.76	211.32
937.06	211.27
937.36	211.28
937.66	211.28
937.96	211.14
938.26	211.10
938.56	211.06
938.86	211.03
939.16	211.10
939.46	211.15
939.76	211.18
940.06	211.27
940.35	211.18
940.65	211.02
940.95	211.06
941.25	210.96
941.55	210.87
941.85	210.88
942.15	210.99
942.45	211.12
942.75	211.12
943.04	211.16
943.34	211.22
943.64	211.18
943.94	211.15
944.24	211.18
944.54	211.20
944.84	211.18
945.13	211.11
945.43	211.10
945.73	211.13
946.03	211.10
946.33	211.04
946.62	211.02
946.92	210.97
947.22	210.96
947.52	210.99
947.82	211.07
948.11	211.00
948.41	210.91
948.71	210.78
949.01	210.85
949.31	210.88
949.60	210.83
949.90	210.91
950.20	210.82
950.50	210.90
950.79	210.81
951.09	210.94
951.39	211.00
951.69	210.96
951.98	211.00
952.28	211.03
952.58	211.04
952.87	211.08
953.17	211.17
953.47	211.14
953.76	211.13
954.06	211.02
954.36	210.96
954.66	211.01
954.95	211.13
955.25	211.11
955.55	211.05
955.84	211.01
956.14	211.08
956.44	211.23
956.73	211.10
957.03	211.16
957.32	211.15
957.62	211.15
957.92	211.20
958.21	211.18
958.51	211.50
958.81	211.57
959.10	211.60
959.40	211.72
959.69	211.77
959.99	211.83
960.29	211.91
960.58	211.91
960.88	212.04
961.17	211.98
961.47	212.03
961.76	211.99
962.06	212.02
962.36	211.95
962.65	211.89
962.95	211.92
963.24	211.90
963.54	211.88
963.83	211.91
964.13	211.87
964.42	211.76
964.72	211.52
965.01	211.49
965.31	211.43
965.60	211.34
965.90	211.49
966.19	211.42
966.49	211.46
966.78	211.49
967.08	211.42
967.37	211.39
967.67	211.29
967.96	211.34
968.26	211.38
968.55	211.43
968.85	211.49
969.14	211.52
969.43	211.51
969.73	211.46
970.02	211.42
970.32	211.47
970.61	211.49
970.91	211.44
971.20	211.40
971.49	211.34
971.79	211.36
972.08	211.15
972.38	211.24
972.67	211.17
972.96	211.21
973.26	211.08
973.55	211.24
973.85	211.25
974.14	211.35
974.43	211.38
974.73	211.30
975.02	211.25
975.31	211.20
975.61	211.20
975.90	211.18
976.19	211.14
976.49	211.11
976.78	211.11
977.07	211.08
977.37	211.14
977.66	211.14
977.95	211.01
978.24	211.02
978.54	211.07
978.83	211.04
979.12	211.00
979.42	211.04
979.71	210.92
980.00	210.87
980.29	210.86
980.59	210.76
980.88	210.86
981.17	210.86
981.46	210.85
981.76	210.89
982.05	211.02
982.34	211.11
982.63	211.08
982.93	211.08
983.22	211.11
983.51	211.08
983.80	211.19
984.09	211.26
984.39	211.31
984.68	211.23
984.97	211.27
985.26	211.17
985.55	211.21
985.85	211.16
986.14	211.24
986.43	211.25
986.72	211.24
987.01	211.12
987.30	211.13
987.59	211.12
987.89	211.13
988.18	211.01
988.47	210.92
988.76	210.99
989.05	210.97
989.34	210.97
989.63	211.09
989.92	211.10
990.22	211.17
990.51	211.14
990.80	211.08
991.09	211.10
991.38	211.19
991.67	211.16
991.96	211.20
992.25	211.23
992.54	211.13
992.83	211.15
993.12	211.20
993.41	211.26
993.70	211.38
993.99	211.50
994.28	211.53
994.58	211.58
994.87	211.46
995.16	211.41
995.45	211.31
995.74	211.21
996.03	211.20
996.32	211.15
996.61	211.23
996.90	211.19
997.19	211.14
997.48	211.16
997.77	211.03
998.06	211.01
998.34	210.98
998.63	211.04
998.92	211.03
999.21	211.00
999.50	211.00
999.79	210.90
1000.08	210.83
1000.37	210.86
1000.66	210.82
1000.95	210.90
1001.24	211.01
1001.53	211.15
1001.82	211.08
1002.11	211.03
1002.40	211.05
1002.68	211.10
1002.97	211.37
1003.26	211.37
1003.55	211.40
1003.84	211.55
1004.13	211.70
1004.42	211.71
1004.71	211.67
1004.99	211.67
1005.28	211.81
1005.57	211.69
1005.86	211.61
1006.15	211.56
1006.44	211.49
1006.72	211.55
1007.01	211.47
1007.30	211.42
1007.59	211.37
1007.88	211.37
1008.17	211.33
1008.45	211.31
1008.74	211.15
1009.03	211.03
1009.32	211.05
1009.60	210.98
1009.89	210.98
1010.18	210.79
1010.47	210.81
1010.76	210.86
1011.04	210.84
1011.33	210.95
1011.62	210.99
1011.91	211.07
1012.19	211.03
1012.48	211.08
1012.77	211.07
1013.05	211.23
1013.34	211.21
1013.63	211.12
1013.92	211.17
1014.20	211.15
1014.49	211.13
1014.78	211.23
1015.06	211.11
1015.35	211.06
1015.64	211.17
1015.92	211.23
1016.21	211.28
1016.50	211.21
1016.78	211.17
1017.07	211.25
1017.36	211.07
1017.64	211.06
1017.93	211.11
1018.22	211.11
1018.50	211.11
1018.79	211.04
1019.08	210.94
1019.36	210.97
1019.65	211.03
1019.93	211.09
1020.22	211.13
1020.51	211.31
1020.79	211.22
1021.08	210.25
1021.36	211.15
1021.65	209.95
1021.94	211.10
1022.22	210.90
1022.51	211.20
1022.79	212.25
1023.08	210.85
1023.36	214.95
1023.65	209.90
>>>>>End Processed Spectral Data<<<<<
