SpectraSuite Data File
++++++++++++++++++++++++++++++++++++
Date: Mon Feb 25 16:56:21 EST 2013
User: group
Dark Spectrum Present: No
Reference Spectrum Present: No
Number of Sampled Component Spectra: 1
Spectrometers: USB2E7196
Integration Time (usec): 104000 (USB2E7196)
Spectra Averaged: 20 (USB2E7196)
Boxcar Smoothing: 10 (USB2E7196)
Correct for Electrical Dark: No (USB2E7196)
Strobe/Lamp Enabled: No (USB2E7196)
Correct for Detector Non-linearity: No (USB2E7196)
Correct for Stray Light: No (USB2E7196)
Number of Pixels in Processed Spectrum: 2048
>>>>>Begin Processed Spectral Data<<<<<
339.09	0.00
339.48	199.40
339.86	200.70
340.24	201.90
340.63	204.10
341.01	208.95
341.39	205.60
341.78	209.35
342.16	207.90
342.54	208.60
342.93	198.44
343.31	208.45
343.69	209.00
344.07	209.36
344.46	209.83
344.84	210.13
345.22	210.24
345.60	210.50
345.99	210.61
346.37	210.79
346.75	210.83
347.13	210.86
347.52	210.86
347.90	211.04
348.28	211.09
348.66	211.17
349.05	211.06
349.43	211.11
349.81	211.19
350.19	211.23
350.57	211.37
350.96	211.51
351.34	211.59
351.72	211.63
352.10	211.83
352.48	211.80
352.87	211.85
353.25	211.86
353.63	211.87
354.01	211.91
354.39	211.95
354.77	212.18
355.15	212.32
355.54	212.40
355.92	212.30
356.30	212.30
356.68	212.54
357.06	212.68
357.44	212.56
357.82	212.57
358.20	212.69
358.58	212.70
358.97	212.76
359.35	212.87
359.73	213.04
360.11	213.08
360.49	213.20
360.87	213.32
361.25	213.45
361.63	213.61
362.01	213.59
362.39	213.62
362.77	213.59
363.15	213.60
363.53	213.58
363.91	213.70
364.29	213.77
364.67	213.56
365.05	213.54
365.43	213.63
365.81	213.70
366.19	213.87
366.57	214.06
366.95	214.07
367.33	214.00
367.71	214.00
368.09	214.02
368.47	213.99
368.85	213.94
369.23	213.95
369.61	213.87
369.99	214.00
370.37	213.99
370.75	214.15
371.13	214.09
371.51	214.11
371.89	214.10
372.27	214.17
372.65	214.18
373.03	214.21
373.41	214.24
373.78	214.14
374.16	213.91
374.54	213.70
374.92	213.58
375.30	213.56
375.68	213.40
376.06	213.41
376.44	213.45
376.82	213.45
377.19	213.38
377.57	213.34
377.95	213.21
378.33	213.19
378.71	212.96
379.09	212.99
379.47	212.99
379.84	212.96
380.22	212.83
380.60	212.74
380.98	212.75
381.36	212.78
381.73	212.82
382.11	212.86
382.49	212.90
382.87	212.83
383.25	212.82
383.62	213.28
384.00	213.19
384.38	213.11
384.76	213.14
385.13	213.28
385.51	213.27
385.89	213.23
386.27	213.29
386.64	213.34
387.02	213.23
387.40	213.15
387.78	213.12
388.15	213.12
388.53	213.09
388.91	212.95
389.29	212.84
389.66	212.79
390.04	212.71
390.42	212.69
390.79	212.70
391.17	212.68
391.55	212.29
391.92	212.21
392.30	212.20
392.68	212.10
393.05	212.06
393.43	212.04
393.81	212.07
394.18	212.00
394.56	211.96
394.94	212.09
395.31	212.13
395.69	212.30
396.06	212.32
396.44	212.38
396.82	212.43
397.19	212.61
397.57	212.58
397.95	212.71
398.32	212.69
398.70	212.88
399.07	212.96
399.45	212.93
399.82	213.02
400.20	213.10
400.58	213.22
400.95	213.16
401.33	213.39
401.70	213.72
402.08	213.78
402.45	213.86
402.83	213.99
403.20	214.12
403.58	214.19
403.95	214.46
404.33	214.74
404.71	215.01
405.08	215.49
405.46	215.82
405.83	216.13
406.21	216.42
406.58	216.71
406.96	217.13
407.33	217.56
407.70	218.11
408.08	218.92
408.45	219.49
408.83	220.19
409.20	220.75
409.58	221.20
409.95	221.95
410.33	222.80
410.70	223.58
411.08	224.48
411.45	225.40
411.82	226.34
412.20	227.45
412.57	228.84
412.95	229.78
413.32	231.09
413.69	232.54
414.07	234.13
414.44	235.85
414.82	237.58
415.19	239.60
415.56	241.55
415.94	243.50
416.31	245.92
416.68	248.26
417.06	250.98
417.43	253.70
417.81	256.78
418.18	259.89
418.55	263.25
418.93	266.81
419.30	270.57
419.67	274.53
420.04	278.57
420.42	282.74
420.79	287.66
421.16	292.72
421.54	297.85
421.91	303.13
422.28	308.72
422.66	314.59
423.03	320.42
423.40	326.50
423.77	332.94
424.15	339.59
424.52	346.55
424.89	354.08
425.26	361.30
425.64	368.21
426.01	375.95
426.38	384.03
426.75	392.24
427.13	400.63
427.50	409.50
427.87	418.76
428.24	428.08
428.61	437.17
428.99	447.04
429.36	457.68
429.73	468.25
430.10	478.63
430.47	489.40
430.85	500.73
431.22	512.55
431.59	525.08
431.96	536.95
432.33	550.36
432.70	563.43
433.08	578.70
433.45	593.28
433.82	607.75
434.19	623.67
434.56	639.60
434.93	655.01
435.30	670.33
435.68	687.32
436.05	704.27
436.42	721.10
436.79	736.49
437.16	753.32
437.53	770.95
437.90	788.65
438.27	806.17
438.64	824.25
439.01	841.17
439.38	856.36
439.75	871.35
440.13	888.18
440.50	904.17
440.87	917.78
441.24	931.43
441.61	946.51
441.98	958.15
442.35	971.61
442.72	984.95
443.09	997.85
443.46	1006.11
443.83	1012.01
444.20	1017.45
444.57	1024.91
444.94	1028.97
445.31	1033.39
445.68	1037.38
446.05	1039.73
446.42	1039.37
446.79	1038.79
447.16	1037.93
447.53	1037.83
447.90	1032.76
448.27	1027.63
448.64	1019.54
449.01	1014.54
449.37	1004.05
449.74	994.05
450.11	981.69
450.48	968.36
450.85	954.64
451.22	943.00
451.59	931.95
451.96	921.12
452.33	906.30
452.70	893.09
453.07	876.97
453.43	860.65
453.80	845.18
454.17	830.18
454.54	815.93
454.91	800.65
455.28	785.38
455.65	771.38
456.02	757.03
456.38	745.30
456.75	730.09
457.12	717.97
457.49	705.78
457.86	693.65
458.23	683.29
458.59	672.07
458.96	660.81
459.33	650.61
459.70	640.59
460.07	632.56
460.43	623.45
460.80	614.79
461.17	607.33
461.54	599.15
461.91	591.32
462.27	583.59
462.64	577.00
463.01	569.73
463.38	562.64
463.74	555.78
464.11	549.59
464.48	544.23
464.85	538.15
465.21	533.65
465.58	528.89
465.95	523.13
466.32	518.43
466.68	513.49
467.05	508.63
467.42	503.70
467.78	498.71
468.15	493.92
468.52	490.42
468.88	485.83
469.25	481.80
469.62	478.53
469.98	474.84
470.35	471.65
470.72	468.47
471.08	464.99
471.45	462.00
471.82	458.94
472.18	455.72
472.55	453.45
472.92	450.60
473.28	448.27
473.65	445.77
474.02	443.24
474.38	441.28
474.75	439.80
475.11	437.98
475.48	436.66
475.85	435.41
476.21	434.13
476.58	433.13
476.94	432.38
477.31	431.47
477.67	430.69
478.04	429.91
478.41	429.54
478.77	429.58
479.14	429.24
479.50	429.08
479.87	429.17
480.23	429.25
480.60	429.19
480.96	429.06
481.33	429.84
481.69	430.40
482.06	431.02
482.42	431.39
482.79	432.05
483.15	432.83
483.52	433.92
483.88	434.99
484.25	436.01
484.61	437.19
484.98	438.46
485.34	440.04
485.71	441.79
486.07	443.52
486.44	445.06
486.80	447.07
487.17	449.43
487.53	452.10
487.90	454.73
488.26	457.52
488.62	460.55
488.99	463.39
489.35	466.40
489.72	469.78
490.08	473.41
490.44	477.05
490.81	480.95
491.17	484.70
491.54	488.84
491.90	493.00
492.26	497.42
492.63	502.10
492.99	506.69
493.36	511.65
493.72	516.82
494.08	522.11
494.45	527.76
494.81	533.37
495.17	539.02
495.54	545.15
495.90	551.40
496.26	557.60
496.63	564.20
496.99	571.04
497.35	577.88
497.72	584.82
498.08	591.97
498.44	599.25
498.80	606.84
499.17	614.64
499.53	622.60
499.89	630.80
500.26	638.89
500.62	646.96
500.98	655.27
501.34	663.73
501.71	672.29
502.07	680.97
502.43	689.73
502.79	698.27
503.16	707.07
503.52	715.81
503.88	724.77
504.24	733.75
504.60	743.00
504.97	752.12
505.33	761.38
505.69	771.27
506.05	781.06
506.41	790.58
506.78	799.49
507.14	808.61
507.50	817.89
507.86	827.30
508.22	836.87
508.59	846.04
508.95	855.31
509.31	864.79
509.67	874.00
510.03	883.18
510.39	892.83
510.75	902.09
511.12	911.44
511.48	920.73
511.84	929.91
512.20	938.72
512.56	947.98
512.92	956.97
513.28	965.60
513.64	974.01
514.00	982.61
514.37	991.53
514.73	1000.42
515.09	1008.89
515.45	1017.10
515.81	1025.27
516.17	1033.58
516.53	1041.59
516.89	1049.33
517.25	1056.81
517.61	1064.35
517.97	1071.54
518.33	1078.35
518.69	1085.35
519.05	1092.64
519.41	1099.79
519.77	1107.02
520.13	1113.32
520.49	1119.65
520.85	1125.73
521.21	1132.14
521.57	1138.54
521.93	1144.26
522.29	1150.40
522.65	1156.51
523.01	1162.37
523.37	1167.72
523.73	1173.13
524.09	1178.66
524.45	1184.02
524.81	1189.74
525.17	1195.23
525.53	1200.59
525.89	1205.89
526.25	1211.14
526.61	1215.49
526.97	1219.80
527.33	1224.15
527.68	1228.92
528.04	1233.36
528.40	1237.48
528.76	1241.51
529.12	1245.71
529.48	1250.48
529.84	1254.40
530.20	1258.09
530.56	1262.02
530.91	1266.59
531.27	1270.88
531.63	1274.58
531.99	1278.38
532.35	1281.59
532.71	1284.87
533.07	1288.79
533.42	1292.53
533.78	1295.94
534.14	1299.42
534.50	1302.46
534.86	1305.72
535.21	1308.54
535.57	1312.00
535.93	1315.23
536.29	1318.24
536.65	1321.10
537.00	1323.20
537.36	1325.34
537.72	1327.94
538.08	1330.34
538.44	1332.53
538.79	1334.58
539.15	1336.92
539.51	1339.13
539.87	1341.81
540.22	1344.06
540.58	1346.22
540.94	1348.50
541.29	1350.33
541.65	1351.82
542.01	1353.84
542.37	1355.52
542.72	1357.54
543.08	1358.89
543.44	1360.93
543.79	1361.94
544.15	1363.09
544.51	1365.14
544.87	1367.21
545.22	1368.35
545.58	1369.35
545.94	1370.30
546.29	1370.91
546.65	1371.48
547.01	1372.05
547.36	1372.49
547.72	1373.17
548.07	1372.92
548.43	1372.59
548.79	1372.49
549.14	1372.93
549.50	1373.03
549.86	1372.84
550.21	1372.66
550.57	1373.10
550.92	1372.60
551.28	1372.69
551.64	1372.62
551.99	1372.40
552.35	1371.79
552.70	1371.57
553.06	1371.55
553.41	1371.09
553.77	1371.31
554.13	1371.33
554.48	1371.36
554.84	1371.47
555.19	1371.24
555.55	1371.59
555.90	1371.48
556.26	1371.20
556.61	1370.65
556.97	1370.09
557.32	1370.00
557.68	1369.39
558.03	1368.26
558.39	1367.24
558.74	1366.86
559.10	1366.42
559.45	1365.40
559.81	1364.92
560.16	1363.98
560.52	1363.25
560.87	1362.74
561.23	1361.54
561.58	1361.01
561.94	1359.93
562.29	1358.37
562.64	1357.50
563.00	1356.29
563.35	1355.61
563.71	1355.29
564.06	1354.55
564.42	1354.12
564.77	1353.79
565.12	1353.25
565.48	1352.95
565.83	1352.81
566.19	1352.42
566.54	1351.32
566.89	1350.60
567.25	1350.10
567.60	1349.66
567.96	1349.21
568.31	1348.81
568.66	1347.93
569.02	1346.32
569.37	1345.01
569.72	1344.16
570.08	1342.89
570.43	1341.49
570.78	1339.94
571.14	1338.02
571.49	1336.31
571.84	1334.52
572.20	1332.12
572.55	1330.22
572.90	1327.57
573.26	1325.01
573.61	1322.54
573.96	1320.23
574.31	1317.31
574.67	1314.28
575.02	1310.95
575.37	1307.48
575.72	1303.87
576.08	1301.18
576.43	1298.16
576.78	1295.19
577.13	1292.02
577.49	1288.92
577.84	1285.72
578.19	1282.62
578.54	1280.09
578.90	1277.98
579.25	1274.78
579.60	1271.41
579.95	1267.72
580.30	1264.88
580.66	1262.07
581.01	1258.29
581.36	1254.81
581.71	1251.45
582.06	1247.95
582.42	1244.84
582.77	1241.26
583.12	1237.68
583.47	1234.03
583.82	1230.51
584.17	1226.84
584.53	1223.35
584.88	1219.36
585.23	1215.77
585.58	1211.93
585.93	1207.68
586.28	1203.08
586.63	1199.31
586.98	1195.76
587.34	1192.67
587.69	1188.70
588.04	1184.74
588.39	1181.13
588.74	1177.20
589.09	1173.66
589.44	1169.37
589.79	1165.56
590.14	1161.99
590.49	1158.19
590.84	1154.21
591.19	1150.82
591.54	1147.04
591.89	1142.75
592.25	1139.13
592.60	1134.85
592.95	1130.55
593.30	1126.20
593.65	1121.86
594.00	1117.50
594.35	1114.30
594.70	1109.68
595.05	1105.54
595.40	1101.20
595.75	1096.83
596.10	1092.88
596.45	1088.75
596.80	1085.13
597.15	1081.33
597.50	1076.98
597.85	1073.03
598.19	1068.75
598.54	1064.55
598.89	1060.37
599.24	1056.91
599.59	1052.61
599.94	1048.92
600.29	1045.14
600.64	1041.18
600.99	1037.27
601.34	1033.43
601.69	1028.06
602.04	1023.75
602.39	1019.54
602.74	1015.62
603.08	1012.00
603.43	1008.19
603.78	1004.14
604.13	1000.08
604.48	995.96
604.83	992.57
605.18	988.80
605.53	984.86
605.87	980.57
606.22	976.88
606.57	972.44
606.92	968.29
607.27	963.73
607.62	959.53
607.96	955.52
608.31	951.73
608.66	947.47
609.01	943.46
609.36	939.51
609.70	935.18
610.05	930.74
610.40	926.41
610.75	922.05
611.10	917.86
611.44	913.00
611.79	908.39
612.14	903.62
612.49	898.84
612.83	894.36
613.18	889.76
613.53	884.99
613.88	880.26
614.22	875.73
614.57	871.34
614.92	866.83
615.27	862.39
615.61	857.77
615.96	853.52
616.31	849.35
616.65	845.36
617.00	841.20
617.35	836.97
617.70	832.56
618.04	827.78
618.39	823.06
618.74	819.13
619.08	814.83
619.43	810.59
619.78	806.63
620.12	802.71
620.47	798.89
620.82	794.60
621.16	790.24
621.51	786.26
621.85	782.18
622.20	778.12
622.55	773.87
622.89	769.70
623.24	765.44
623.59	760.97
623.93	756.59
624.28	752.72
624.62	749.07
624.97	745.09
625.32	741.28
625.66	737.61
626.01	733.56
626.35	729.73
626.70	725.78
627.04	721.75
627.39	717.77
627.73	713.71
628.08	710.25
628.43	706.74
628.77	703.00
629.12	699.27
629.46	695.60
629.81	692.10
630.15	688.42
630.50	684.73
630.84	681.06
631.19	677.56
631.53	673.78
631.88	669.70
632.22	665.99
632.57	662.70
632.91	659.21
633.26	655.82
633.60	652.17
633.95	648.75
634.29	645.36
634.64	642.18
634.98	638.66
635.32	635.40
635.67	632.24
636.01	628.99
636.36	625.71
636.70	622.73
637.05	619.50
637.39	616.51
637.73	613.73
638.08	611.22
638.42	608.37
638.77	605.54
639.11	602.79
639.45	599.90
639.80	596.69
640.14	593.54
640.49	590.58
640.83	587.76
641.17	584.89
641.52	581.88
641.86	578.87
642.20	576.10
642.55	572.63
642.89	569.54
643.23	566.48
643.58	563.91
643.92	560.73
644.26	557.88
644.61	555.09
644.95	552.10
645.29	549.05
645.64	546.14
645.98	543.20
646.32	540.23
646.66	537.32
647.01	534.61
647.35	532.08
647.69	529.21
648.04	526.45
648.38	523.66
648.72	520.97
649.06	518.15
649.41	515.39
649.75	513.01
650.09	510.43
650.43	507.99
650.78	504.97
651.12	502.36
651.46	499.72
651.80	497.18
652.14	494.62
652.49	492.00
652.83	489.27
653.17	486.61
653.51	484.17
653.85	481.79
654.20	479.26
654.54	476.62
654.88	474.12
655.22	471.77
655.56	469.21
655.90	466.75
656.25	464.21
656.59	461.76
656.93	459.30
657.27	457.04
657.61	454.30
657.95	452.00
658.29	449.71
658.64	447.45
658.98	445.01
659.32	442.48
659.66	440.14
660.00	437.83
660.34	435.57
660.68	433.13
661.02	430.70
661.36	428.43
661.70	426.19
662.05	424.19
662.39	422.13
662.73	420.30
663.07	418.43
663.41	416.46
663.75	414.33
664.09	412.38
664.43	410.32
664.77	408.48
665.11	406.45
665.45	404.50
665.79	402.60
666.13	400.75
666.47	399.06
666.81	397.20
667.15	395.48
667.49	393.79
667.83	392.12
668.17	390.41
668.51	388.85
668.85	387.44
669.19	385.84
669.53	383.93
669.87	382.00
670.21	380.26
670.55	378.59
670.89	377.34
671.23	375.82
671.57	374.23
671.91	372.78
672.25	371.37
672.58	369.93
672.92	368.42
673.26	366.80
673.60	365.31
673.94	363.83
674.28	362.35
674.62	361.04
674.96	359.64
675.30	358.37
675.64	356.97
675.97	355.42
676.31	354.07
676.65	352.82
676.99	351.78
677.33	350.31
677.67	349.02
678.01	347.52
678.34	346.19
678.68	345.02
679.02	343.63
679.36	342.41
679.70	341.15
680.04	339.90
680.37	338.81
680.71	337.53
681.05	336.39
681.39	335.19
681.73	333.88
682.06	332.72
682.40	331.57
682.74	330.30
683.08	329.15
683.42	327.72
683.75	326.62
684.09	325.22
684.43	324.16
684.77	322.94
685.10	321.82
685.44	320.61
685.78	319.42
686.12	318.39
686.45	317.25
686.79	316.18
687.13	315.18
687.46	314.10
687.80	313.11
688.14	312.02
688.48	311.04
688.81	310.05
689.15	309.12
689.49	308.00
689.82	307.06
690.16	305.93
690.50	304.93
690.83	303.78
691.17	302.84
691.51	301.76
691.84	300.83
692.18	299.88
692.52	299.02
692.85	298.19
693.19	297.43
693.52	296.47
693.86	295.31
694.20	294.37
694.53	293.42
694.87	292.41
695.21	291.51
695.54	290.52
695.88	289.46
696.21	288.50
696.55	287.68
696.88	286.76
697.22	285.89
697.56	285.19
697.89	284.42
698.23	283.49
698.56	282.72
698.90	281.95
699.23	281.22
699.57	280.48
699.90	279.60
700.24	278.66
700.58	277.93
700.91	277.42
701.25	276.91
701.58	276.26
701.92	275.67
702.25	274.91
702.59	274.25
702.92	273.70
703.26	273.03
703.59	272.39
703.93	272.05
704.26	271.50
704.60	270.88
704.93	270.18
705.26	269.65
705.60	269.18
705.93	268.57
706.27	268.00
706.60	267.45
706.94	267.00
707.27	266.45
707.61	265.85
707.94	265.18
708.27	264.37
708.61	263.71
708.94	263.16
709.28	262.68
709.61	262.12
709.94	261.54
710.28	260.98
710.61	260.36
710.95	259.54
711.28	259.31
711.61	258.83
711.95	258.45
712.28	257.96
712.61	257.45
712.95	257.14
713.28	256.80
713.61	256.25
713.95	255.78
714.28	255.29
714.61	254.83
714.95	254.45
715.28	253.95
715.61	253.48
715.95	253.03
716.28	252.55
716.61	252.19
716.95	251.78
717.28	251.37
717.61	251.05
717.94	250.70
718.28	249.97
718.61	249.49
718.94	249.05
719.27	248.65
719.61	248.23
719.94	247.82
720.27	247.27
720.60	246.88
720.94	246.39
721.27	246.09
721.60	245.82
721.93	245.47
722.27	245.20
722.60	244.96
722.93	244.55
723.26	244.19
723.59	243.76
723.93	243.46
724.26	243.15
724.59	242.77
724.92	242.44
725.25	242.23
725.59	241.99
725.92	241.81
726.25	241.52
726.58	241.17
726.91	240.82
727.24	240.53
727.57	240.24
727.91	239.95
728.24	239.70
728.57	239.31
728.90	239.03
729.23	238.64
729.56	238.51
729.89	238.20
730.22	237.99
730.55	237.76
730.89	237.49
731.22	237.19
731.55	236.95
731.88	236.65
732.21	236.30
732.54	236.02
732.87	235.65
733.20	235.35
733.53	235.13
733.86	234.87
734.19	234.53
734.52	234.35
734.85	234.26
735.18	233.92
735.51	233.84
735.84	233.68
736.17	233.57
736.50	233.17
736.83	233.40
737.16	233.14
737.49	232.96
737.82	232.66
738.15	232.48
738.48	232.21
738.81	231.97
739.14	231.77
739.47	231.54
739.80	231.41
740.13	231.24
740.46	230.96
740.79	230.81
741.12	230.62
741.45	230.35
741.78	230.00
742.11	229.97
742.44	229.68
742.77	229.45
743.10	229.28
743.43	229.10
743.75	228.57
744.08	228.83
744.41	228.63
744.74	228.42
745.07	228.15
745.40	228.14
745.73	228.14
746.06	228.02
746.39	227.85
746.71	227.63
747.04	227.45
747.37	227.30
747.70	227.07
748.03	227.04
748.36	226.94
748.68	226.80
749.01	226.50
749.34	226.28
749.67	226.14
750.00	226.01
750.33	226.07
750.65	225.90
750.98	225.25
751.31	225.08
751.64	224.94
751.97	225.03
752.29	224.83
752.62	224.52
752.95	224.30
753.28	224.18
753.60	224.04
753.93	223.97
754.26	223.83
754.59	223.60
754.91	223.43
755.24	223.29
755.57	223.20
755.90	223.01
756.22	223.00
756.55	222.82
756.88	222.64
757.20	222.35
757.53	222.09
757.86	222.08
758.19	222.07
758.51	222.05
758.84	221.72
759.17	221.58
759.49	221.47
759.82	221.54
760.15	221.40
760.47	221.33
760.80	221.10
761.13	221.03
761.45	220.92
761.78	220.78
762.11	220.56
762.43	220.31
762.76	220.21
763.08	220.08
763.41	220.06
763.74	219.92
764.06	219.71
764.39	219.67
764.71	219.54
765.04	219.35
765.37	219.19
765.69	219.14
766.02	219.04
766.34	218.98
766.67	218.76
767.00	218.78
767.32	218.82
767.65	219.06
767.97	218.96
768.30	218.99
768.62	218.96
768.95	218.97
769.27	219.00
769.60	219.02
769.92	218.91
770.25	218.69
770.57	218.59
770.90	218.60
771.22	218.55
771.55	218.49
771.87	218.42
772.20	218.34
772.52	218.61
772.85	218.93
773.17	218.85
773.50	218.75
773.82	218.64
774.15	218.38
774.47	218.02
774.80	217.95
775.12	217.85
775.45	217.74
775.77	217.68
776.09	217.65
776.42	217.61
776.74	217.64
777.07	217.67
777.39	217.64
777.72	217.57
778.04	217.55
778.36	217.45
778.69	217.38
779.01	217.40
779.33	217.07
779.66	216.69
779.98	216.56
780.31	216.54
780.63	216.58
780.95	216.59
781.28	216.60
781.60	216.55
781.92	216.50
782.25	216.43
782.57	216.41
782.89	216.35
783.22	216.25
783.54	216.16
783.86	216.10
784.19	215.98
784.51	215.96
784.83	215.80
785.16	215.71
785.48	215.72
785.80	215.62
786.12	215.53
786.45	215.44
786.77	215.44
787.09	215.47
787.42	215.32
787.74	215.28
788.06	215.28
788.38	215.26
788.71	215.22
789.03	215.19
789.35	215.18
789.67	215.10
789.99	215.06
790.32	215.01
790.64	215.07
790.96	215.42
791.28	215.33
791.61	215.34
791.93	215.42
792.25	215.38
792.57	215.61
792.89	215.51
793.21	215.56
793.54	215.56
793.86	215.44
794.18	215.42
794.50	215.40
794.82	215.32
795.14	215.33
795.47	215.37
795.79	215.44
796.11	215.32
796.43	215.27
796.75	215.27
797.07	215.27
797.39	215.10
797.71	214.78
798.04	214.74
798.36	214.70
798.68	214.64
799.00	214.58
799.32	214.37
799.64	214.40
799.96	214.32
800.28	214.32
800.60	214.24
800.92	214.19
801.24	214.11
801.56	214.11
801.89	214.02
802.21	213.99
802.53	213.85
802.85	213.89
803.17	214.02
803.49	213.91
803.81	213.89
804.13	213.88
804.45	213.79
804.77	213.83
805.09	213.84
805.41	213.81
805.73	213.73
806.05	213.65
806.37	213.68
806.69	213.67
807.01	213.63
807.33	213.61
807.65	213.53
807.97	213.75
808.28	213.76
808.60	213.75
808.92	213.71
809.24	213.92
809.56	213.89
809.88	213.73
810.20	213.71
810.52	213.72
810.84	213.68
811.16	213.66
811.48	213.62
811.80	213.72
812.12	213.73
812.43	213.75
812.75	213.76
813.07	213.70
813.39	213.71
813.71	213.66
814.03	213.65
814.35	213.66
814.67	213.37
814.98	213.30
815.30	213.24
815.62	213.13
815.94	212.88
816.26	212.82
816.58	212.78
816.89	212.84
817.21	212.78
817.53	212.81
817.85	212.83
818.17	212.77
818.48	212.66
818.80	212.65
819.12	212.65
819.44	212.58
819.76	212.53
820.07	212.45
820.39	212.40
820.71	212.47
821.03	212.46
821.34	212.49
821.66	212.49
821.98	212.59
822.30	212.65
822.61	212.84
822.93	212.78
823.25	212.79
823.57	212.70
823.88	212.71
824.20	212.62
824.52	212.66
824.83	212.70
825.15	212.65
825.47	212.58
825.79	212.58
826.10	212.60
826.42	212.57
826.74	212.59
827.05	212.58
827.37	212.53
827.69	212.42
828.00	212.44
828.32	212.43
828.64	212.36
828.95	212.51
829.27	212.43
829.58	212.49
829.90	212.51
830.22	212.58
830.53	212.53
830.85	212.54
831.17	212.45
831.48	212.42
831.80	212.38
832.11	212.41
832.43	212.36
832.75	212.33
833.06	212.55
833.38	212.43
833.69	212.47
834.01	212.53
834.32	212.60
834.64	212.54
834.96	212.55
835.27	212.52
835.59	212.29
835.90	212.19
836.22	212.12
836.53	212.05
836.85	211.96
837.16	212.32
837.48	212.31
837.79	212.41
838.11	212.43
838.42	212.44
838.74	212.47
839.05	212.42
839.37	212.40
839.68	212.19
840.00	212.24
840.31	212.27
840.63	212.24
840.94	212.24
841.26	212.25
841.57	212.18
841.88	212.17
842.20	212.15
842.51	212.14
842.83	212.11
843.14	212.40
843.46	212.40
843.77	212.19
844.08	212.18
844.40	212.07
844.71	212.06
845.03	212.03
845.34	212.01
845.65	211.98
845.97	211.93
846.28	212.02
846.60	211.99
846.91	211.90
847.22	211.82
847.54	211.82
847.85	211.79
848.16	211.87
848.48	211.89
848.79	212.01
849.10	212.00
849.42	212.13
849.73	211.80
850.04	211.85
850.36	211.73
850.67	211.85
850.98	211.84
851.30	211.80
851.61	211.83
851.92	211.87
852.23	212.01
852.55	212.00
852.86	211.90
853.17	211.96
853.49	212.00
853.80	212.07
854.11	212.05
854.42	212.14
854.74	212.03
855.05	212.03
855.36	211.86
855.67	211.86
855.99	211.77
856.30	212.21
856.61	212.18
856.92	212.14
857.23	212.10
857.55	212.09
857.86	212.09
858.17	212.13
858.48	211.99
858.79	211.92
859.11	212.00
859.42	212.01
859.73	211.96
860.04	212.04
860.35	211.96
860.66	211.91
860.98	211.87
861.29	211.91
861.60	211.89
861.91	212.03
862.22	212.00
862.53	211.96
862.84	211.55
863.16	211.66
863.47	211.63
863.78	211.58
864.09	211.65
864.40	211.67
864.71	211.69
865.02	211.73
865.33	211.70
865.64	211.59
865.95	211.61
866.27	211.85
866.58	211.77
866.89	211.79
867.20	211.79
867.51	211.74
867.82	211.77
868.13	211.85
868.44	211.72
868.75	211.79
869.06	211.81
869.37	211.84
869.68	211.68
869.99	211.70
870.30	211.72
870.61	211.71
870.92	211.65
871.23	211.61
871.54	211.65
871.85	211.70
872.16	211.82
872.47	211.76
872.78	211.54
873.09	211.62
873.40	211.63
873.71	211.68
874.02	211.70
874.33	211.59
874.64	211.50
874.95	211.56
875.26	211.47
875.56	211.46
875.87	211.45
876.18	211.52
876.49	211.87
876.80	211.91
877.11	211.89
877.42	211.88
877.73	211.89
878.04	211.86
878.35	211.82
878.66	211.89
878.96	211.92
879.27	211.85
879.58	211.82
879.89	211.81
880.20	211.95
880.51	211.96
880.82	211.99
881.12	211.99
881.43	211.88
881.74	211.92
882.05	211.84
882.36	211.88
882.67	211.90
882.97	211.52
883.28	211.37
883.59	211.32
883.90	211.37
884.21	211.41
884.51	211.36
884.82	211.38
885.13	211.30
885.44	211.29
885.74	211.33
886.05	211.25
886.36	211.19
886.67	211.02
886.98	211.20
887.28	211.27
887.59	211.32
887.90	211.44
888.20	211.41
888.51	211.51
888.82	211.42
889.13	211.41
889.43	211.75
889.74	211.76
890.05	211.80
890.35	211.78
890.66	211.73
890.97	211.74
891.28	211.72
891.58	211.73
891.89	211.75
892.20	211.75
892.50	211.74
892.81	211.78
893.12	211.78
893.42	211.58
893.73	211.62
894.04	211.57
894.34	211.58
894.65	211.59
894.95	211.56
895.26	211.62
895.57	211.77
895.87	211.44
896.18	211.55
896.48	211.52
896.79	211.52
897.10	211.57
897.40	211.62
897.71	211.61
898.01	211.59
898.32	211.58
898.63	211.60
898.93	211.65
899.24	211.71
899.54	211.67
899.85	211.67
900.15	211.66
900.46	211.73
900.76	211.73
901.07	211.72
901.38	211.74
901.68	211.73
901.99	211.52
902.29	211.56
902.60	211.55
902.90	211.55
903.21	211.52
903.51	211.43
903.82	211.48
904.12	211.58
904.43	211.62
904.73	211.63
905.03	211.65
905.34	212.04
905.64	211.99
905.95	212.02
906.25	212.00
906.56	211.92
906.86	211.88
907.17	211.85
907.47	211.85
907.77	211.75
908.08	211.71
908.38	211.80
908.69	211.75
908.99	211.80
909.30	211.85
909.60	211.99
909.90	212.06
910.21	211.93
910.51	211.76
910.81	211.74
911.12	211.73
911.42	211.71
911.73	211.23
912.03	211.24
912.33	211.31
912.64	211.35
912.94	211.32
913.24	211.21
913.55	211.20
913.85	211.18
914.15	211.26
914.46	211.25
914.76	211.22
915.06	211.14
915.37	211.09
915.67	210.99
915.97	210.85
916.27	210.75
916.58	210.82
916.88	210.84
917.18	210.79
917.49	211.02
917.79	211.02
918.09	211.15
918.39	211.22
918.70	211.15
919.00	211.13
919.30	211.32
919.60	211.32
919.91	211.24
920.21	211.31
920.51	211.33
920.81	211.37
921.12	211.42
921.42	211.47
921.72	211.45
922.02	211.55
922.32	211.62
922.63	211.68
922.93	211.78
923.23	211.85
923.53	211.83
923.83	211.52
924.13	211.52
924.44	211.46
924.74	211.53
925.04	211.65
925.34	211.59
925.64	211.44
925.94	211.49
926.24	211.66
926.55	211.55
926.85	211.56
927.15	211.59
927.45	211.60
927.75	211.61
928.05	211.61
928.35	211.53
928.65	211.55
928.95	211.60
929.26	211.49
929.56	211.46
929.86	211.51
930.16	211.55
930.46	211.51
930.76	211.51
931.06	211.33
931.36	211.20
931.66	211.33
931.96	211.34
932.26	211.36
932.56	211.25
932.86	211.34
933.16	211.33
933.46	211.24
933.76	211.10
934.06	211.20
934.36	211.31
934.66	211.29
934.96	211.27
935.26	211.25
935.56	211.37
935.86	211.35
936.16	211.31
936.46	211.30
936.76	211.35
937.06	211.30
937.36	211.34
937.66	211.36
937.96	211.28
938.26	211.21
938.56	211.16
938.86	211.22
939.16	211.27
939.46	211.26
939.76	211.27
940.06	211.32
940.35	211.22
940.65	211.00
940.95	211.01
941.25	210.97
941.55	210.89
941.85	210.83
942.15	210.91
942.45	211.00
942.75	210.98
943.04	210.99
943.34	211.05
943.64	210.97
943.94	211.00
944.24	211.03
944.54	211.12
944.84	211.10
945.13	211.02
945.43	210.99
945.73	211.01
946.03	210.97
946.33	210.93
946.62	210.96
946.92	211.04
947.22	211.15
947.52	211.17
947.82	211.25
948.11	211.21
948.41	211.15
948.71	211.05
949.01	211.13
949.31	211.06
949.60	211.06
949.90	211.17
950.20	211.17
950.50	211.17
950.79	211.11
951.09	211.24
951.39	211.21
951.69	211.18
951.98	211.24
952.28	211.27
952.58	211.24
952.87	211.31
953.17	211.31
953.47	211.29
953.76	211.32
954.06	211.24
954.36	211.18
954.66	211.16
954.95	211.35
955.25	211.31
955.55	211.47
955.84	211.39
956.14	211.39
956.44	211.40
956.73	211.35
957.03	211.38
957.32	211.34
957.62	211.34
957.92	211.38
958.21	211.33
958.51	211.78
958.81	211.96
959.10	211.90
959.40	212.00
959.69	211.95
959.99	211.95
960.29	211.93
960.58	211.94
960.88	212.04
961.17	211.88
961.47	211.88
961.76	211.69
962.06	211.79
962.36	211.76
962.65	211.75
962.95	211.80
963.24	211.79
963.54	211.79
963.83	211.85
964.13	211.84
964.42	211.80
964.72	211.43
965.01	211.34
965.31	211.34
965.60	211.24
965.90	211.53
966.19	211.45
966.49	211.53
966.78	211.51
967.08	211.48
967.37	211.50
967.67	211.46
967.96	211.62
968.26	211.60
968.55	211.70
968.85	211.64
969.14	211.62
969.43	211.59
969.73	211.59
970.02	211.57
970.32	211.55
970.61	211.49
970.91	211.42
971.20	211.38
971.49	211.33
971.79	211.36
972.08	211.05
972.38	211.09
972.67	211.04
972.96	211.12
973.26	211.10
973.55	211.25
973.85	211.22
974.14	211.16
974.43	211.18
974.73	211.07
975.02	211.10
975.31	211.09
975.61	211.08
975.90	211.02
976.19	210.95
976.49	210.98
976.78	211.02
977.07	211.04
977.37	211.06
977.66	211.12
977.95	211.08
978.24	211.15
978.54	211.22
978.83	211.25
979.12	211.18
979.42	211.15
979.71	211.08
980.00	211.12
980.29	211.08
980.59	211.02
980.88	211.11
981.17	211.10
981.46	211.11
981.76	211.10
982.05	211.22
982.34	211.28
982.63	211.32
982.93	211.37
983.22	211.46
983.51	211.47
983.80	211.46
984.09	211.48
984.39	211.45
984.68	211.39
984.97	211.34
985.26	211.31
985.55	211.33
985.85	211.22
986.14	211.26
986.43	211.36
986.72	211.36
987.01	211.22
987.30	211.22
987.59	211.21
987.89	211.26
988.18	211.19
988.47	211.10
988.76	211.02
989.05	210.97
989.34	210.95
989.63	211.09
989.92	211.07
990.22	210.96
990.51	211.00
990.80	211.01
991.09	211.03
991.38	211.17
991.67	211.18
991.96	211.19
992.25	211.21
992.54	211.10
992.83	211.05
993.12	211.08
993.41	211.11
993.70	211.22
993.99	211.23
994.28	211.20
994.58	211.27
994.87	211.25
995.16	211.25
995.45	211.21
995.74	211.10
996.03	211.10
996.32	211.24
996.61	211.23
996.90	211.15
997.19	211.14
997.48	211.12
997.77	211.10
998.06	211.13
998.34	211.05
998.63	211.07
998.92	211.10
999.21	211.07
999.50	211.07
999.79	210.94
1000.08	210.97
1000.37	210.95
1000.66	210.97
1000.95	211.09
1001.24	211.06
1001.53	211.05
1001.82	210.96
1002.11	210.95
1002.40	210.94
1002.68	211.00
1002.97	211.31
1003.26	211.26
1003.55	211.11
1003.84	211.12
1004.13	211.26
1004.42	211.23
1004.71	211.22
1004.99	211.27
1005.28	211.39
1005.57	211.33
1005.86	211.27
1006.15	211.19
1006.44	211.22
1006.72	211.26
1007.01	211.16
1007.30	211.15
1007.59	211.13
1007.88	211.15
1008.17	211.22
1008.45	211.17
1008.74	211.10
1009.03	210.88
1009.32	210.91
1009.60	210.96
1009.89	210.96
1010.18	210.75
1010.47	210.72
1010.76	210.72
1011.04	210.64
1011.33	210.66
1011.62	210.76
1011.91	210.82
1012.19	210.90
1012.48	210.81
1012.77	210.75
1013.05	210.90
1013.34	210.95
1013.63	210.88
1013.92	210.90
1014.20	210.83
1014.49	210.87
1014.78	210.84
1015.06	210.73
1015.35	210.72
1015.64	210.72
1015.92	210.72
1016.21	210.77
1016.50	210.86
1016.78	210.96
1017.07	211.02
1017.36	210.94
1017.64	210.85
1017.93	210.91
1018.22	210.85
1018.50	210.93
1018.79	210.98
1019.08	210.87
1019.36	210.90
1019.65	210.93
1019.93	210.99
1020.22	211.02
1020.51	211.15
1020.79	211.16
1021.08	210.40
1021.36	211.20
1021.65	211.70
1021.94	211.45
1022.22	211.55
1022.51	210.30
1022.79	211.40
1023.08	211.40
1023.36	214.50
1023.65	211.00
>>>>>End Processed Spectral Data<<<<<
