SpectraSuite Data File
++++++++++++++++++++++++++++++++++++
Date: Mon Feb 25 17:20:06 EST 2013
User: group
Dark Spectrum Present: No
Reference Spectrum Present: No
Number of Sampled Component Spectra: 1
Spectrometers: USB2E7196
Integration Time (usec): 104000 (USB2E7196)
Spectra Averaged: 20 (USB2E7196)
Boxcar Smoothing: 10 (USB2E7196)
Correct for Electrical Dark: No (USB2E7196)
Strobe/Lamp Enabled: No (USB2E7196)
Correct for Detector Non-linearity: No (USB2E7196)
Correct for Stray Light: No (USB2E7196)
Number of Pixels in Processed Spectrum: 2048
>>>>>Begin Processed Spectral Data<<<<<
339.09	0.00
339.48	199.90
339.86	199.15
340.24	201.40
340.63	203.60
341.01	209.10
341.39	204.10
341.78	206.80
342.16	209.25
342.54	207.00
342.93	198.42
343.31	208.39
343.69	208.88
344.07	209.42
344.46	209.89
344.84	210.32
345.22	210.47
345.60	210.88
345.99	211.13
346.37	211.27
346.75	211.55
347.13	211.61
347.52	211.68
347.90	211.88
348.28	211.96
348.66	211.99
349.05	211.93
349.43	212.11
349.81	212.15
350.19	212.22
350.57	212.33
350.96	212.39
351.34	212.60
351.72	212.70
352.10	212.80
352.48	212.92
352.87	212.97
353.25	213.01
353.63	213.06
354.01	213.19
354.39	213.32
354.77	213.40
355.15	213.61
355.54	213.72
355.92	213.70
356.30	213.77
356.68	214.08
357.06	214.18
357.44	214.19
357.82	214.28
358.20	214.38
358.58	214.40
358.97	214.54
359.35	214.66
359.73	214.82
360.11	214.89
360.49	214.92
360.87	214.96
361.25	215.07
361.63	215.20
362.01	215.26
362.39	215.26
362.77	215.29
363.15	215.19
363.53	215.20
363.91	215.19
364.29	215.24
364.67	214.95
365.05	214.94
365.43	214.95
365.81	214.91
366.19	215.09
366.57	215.27
366.95	215.20
367.33	215.10
367.71	215.11
368.09	215.17
368.47	215.15
368.85	215.12
369.23	215.16
369.61	215.09
369.99	215.15
370.37	215.16
370.75	215.30
371.13	215.28
371.51	215.21
371.89	215.26
372.27	215.17
372.65	215.22
373.03	215.28
373.41	215.19
373.78	215.27
374.16	215.04
374.54	214.87
374.92	214.81
375.30	214.77
375.68	214.65
376.06	214.65
376.44	214.57
376.82	214.57
377.19	214.54
377.57	214.47
377.95	214.26
378.33	214.19
378.71	213.95
379.09	214.00
379.47	214.01
379.84	213.89
380.22	213.84
380.60	213.62
380.98	213.54
381.36	213.47
381.73	213.36
382.11	213.35
382.49	213.33
382.87	213.28
383.25	213.30
383.62	213.67
384.00	213.56
384.38	213.58
384.76	213.57
385.13	213.65
385.51	213.55
385.89	213.50
386.27	213.47
386.64	213.55
387.02	213.43
387.40	213.34
387.78	213.35
388.15	213.41
388.53	213.48
388.91	213.45
389.29	213.41
389.66	213.40
390.04	213.36
390.42	213.37
390.79	213.44
391.17	213.40
391.55	212.96
391.92	212.94
392.30	212.98
392.68	212.90
393.05	212.84
393.43	212.84
393.81	212.94
394.18	212.92
394.56	212.89
394.94	213.00
395.31	213.05
395.69	213.23
396.06	213.27
396.44	213.30
396.82	213.29
397.19	213.64
397.57	213.64
397.95	213.77
398.32	213.74
398.70	213.81
399.07	213.88
399.45	213.89
399.82	213.99
400.20	214.04
400.58	214.11
400.95	214.08
401.33	214.25
401.70	214.54
402.08	214.60
402.45	214.68
402.83	214.80
403.20	214.94
403.58	214.95
403.95	215.12
404.33	215.28
404.71	215.45
405.08	215.61
405.46	215.82
405.83	216.02
406.21	216.23
406.58	216.40
406.96	216.62
407.33	216.99
407.70	217.28
408.08	217.87
408.45	218.24
408.83	218.63
409.20	218.98
409.58	219.06
409.95	219.53
410.33	219.97
410.70	220.47
411.08	220.99
411.45	221.45
411.82	221.93
412.20	222.62
412.57	223.46
412.95	223.90
413.32	224.67
413.69	225.36
414.07	226.23
414.44	227.13
414.82	228.09
415.19	229.10
415.56	230.15
415.94	231.08
416.31	232.37
416.68	233.60
417.06	235.09
417.43	236.58
417.81	238.25
418.18	239.94
418.55	241.60
418.93	243.45
419.30	245.42
419.67	247.43
420.04	249.40
420.42	251.53
420.79	254.17
421.16	256.72
421.54	259.48
421.91	262.17
422.28	264.94
422.66	267.85
423.03	270.92
423.40	273.95
423.77	277.20
424.15	280.49
424.52	283.94
424.89	287.64
425.26	291.15
425.64	294.58
426.01	298.26
426.38	302.26
426.75	306.30
427.13	310.37
427.50	314.70
427.87	319.28
428.24	323.79
428.61	328.05
428.99	332.91
429.36	338.05
429.73	343.07
430.10	348.17
430.47	353.50
430.85	358.68
431.22	364.33
431.59	370.43
431.96	376.09
432.33	382.40
432.70	388.55
433.08	395.81
433.45	402.45
433.82	409.32
434.19	416.74
434.56	424.02
434.93	431.12
435.30	438.12
435.68	445.74
436.05	453.40
436.42	461.05
436.79	467.88
437.16	475.25
437.53	483.15
437.90	490.92
438.27	498.41
438.64	506.48
439.01	513.90
439.38	520.16
439.75	526.61
440.13	533.80
440.50	540.51
440.87	546.04
441.24	552.02
441.61	558.15
441.98	562.76
442.35	568.23
442.72	573.74
443.09	579.18
443.46	582.51
443.83	584.63
444.20	586.33
444.57	588.94
444.94	590.18
445.31	591.38
445.68	592.86
446.05	593.29
446.42	592.35
446.79	591.37
447.16	590.43
447.53	589.70
447.90	586.75
448.27	583.79
448.64	579.66
449.01	576.43
449.37	571.34
449.74	566.28
450.11	560.33
450.48	553.62
450.85	546.75
451.22	540.90
451.59	535.38
451.96	530.15
452.33	523.14
452.70	516.83
453.07	509.22
453.43	501.23
453.80	494.02
454.17	486.94
454.54	480.19
454.91	473.14
455.28	466.06
455.65	459.67
456.02	453.56
456.38	448.10
456.75	441.36
457.12	435.70
457.49	430.07
457.86	424.50
458.23	420.01
458.59	414.93
458.96	409.81
459.33	405.34
459.70	400.79
460.07	397.33
460.43	393.18
460.80	389.40
461.17	386.09
461.54	382.53
461.91	379.27
462.27	375.83
462.64	372.86
463.01	369.66
463.38	366.61
463.74	363.08
464.11	360.36
464.48	358.08
464.85	355.50
465.21	353.61
465.58	351.55
465.95	348.99
466.32	346.85
466.68	344.78
467.05	342.64
467.42	340.63
467.78	338.38
468.15	336.38
468.52	335.08
468.88	333.10
469.25	331.39
469.62	330.04
469.98	328.61
470.35	327.29
470.72	326.13
471.08	324.67
471.45	323.68
471.82	322.58
472.18	321.31
472.55	320.41
472.92	319.44
473.28	318.55
473.65	317.71
474.02	317.04
474.38	316.50
474.75	316.03
475.11	315.55
475.48	315.21
475.85	314.94
476.21	314.67
476.58	314.65
476.94	314.69
477.31	314.66
477.67	314.72
478.04	314.90
478.41	315.13
478.77	315.86
479.14	316.08
479.50	316.58
479.87	317.20
480.23	317.91
480.60	318.43
480.96	319.10
481.33	320.22
481.69	321.21
482.06	322.25
482.42	323.31
482.79	324.54
483.15	325.84
483.52	327.40
483.88	328.88
484.25	330.43
484.61	332.09
484.98	333.82
485.34	335.87
485.71	337.97
486.07	340.05
486.44	342.00
486.80	344.46
487.17	347.01
487.53	349.89
487.90	352.80
488.26	356.01
488.62	359.48
488.99	362.75
489.35	366.23
489.72	370.04
490.08	374.16
490.44	378.27
490.81	382.80
491.17	387.43
491.54	392.36
491.90	397.58
492.26	403.02
492.63	408.79
492.99	414.76
493.36	420.99
493.72	427.64
494.08	434.43
494.45	441.82
494.81	449.37
495.17	457.12
495.54	465.41
495.90	473.95
496.26	482.86
496.63	492.27
496.99	502.06
497.35	512.17
497.72	522.56
498.08	533.36
498.44	544.78
498.80	556.75
499.17	569.04
499.53	581.85
499.89	595.06
500.26	608.50
500.62	622.38
500.98	637.16
501.34	652.20
501.71	667.99
502.07	683.85
502.43	700.23
502.79	717.28
503.16	734.98
503.52	753.04
503.88	771.58
504.24	790.57
504.60	810.14
504.97	830.25
505.33	850.66
505.69	872.75
506.05	894.78
506.41	917.00
506.78	939.63
507.14	962.86
507.50	986.51
507.86	1010.90
508.22	1035.98
508.59	1060.98
508.95	1086.85
509.31	1113.06
509.67	1140.35
510.03	1167.98
510.39	1196.28
510.75	1224.67
511.12	1253.53
511.48	1282.73
511.84	1312.37
512.20	1342.11
512.56	1372.95
512.92	1404.14
513.28	1434.87
513.64	1466.19
514.00	1497.69
514.37	1529.65
514.73	1562.10
515.09	1594.96
515.45	1627.70
515.81	1660.24
516.17	1693.44
516.53	1726.59
516.89	1759.98
517.25	1792.97
517.61	1826.53
517.97	1859.35
518.33	1892.55
518.69	1926.18
519.05	1959.94
519.41	1993.68
519.77	2028.13
520.13	2061.33
520.49	2094.61
520.85	2128.24
521.21	2161.86
521.57	2196.06
521.93	2229.14
522.29	2263.24
522.65	2297.27
523.01	2330.73
523.37	2363.57
523.73	2396.63
524.09	2429.52
524.45	2462.55
524.81	2495.49
525.17	2528.58
525.53	2561.45
525.89	2594.14
526.25	2625.80
526.61	2656.97
526.97	2688.26
527.33	2719.39
527.68	2751.03
528.04	2781.36
528.40	2810.44
528.76	2839.81
529.12	2869.70
529.48	2900.96
529.84	2929.92
530.20	2958.49
530.56	2987.31
530.91	3017.67
531.27	3046.80
531.63	3075.09
531.99	3102.71
532.35	3129.54
532.71	3155.64
533.07	3182.86
533.42	3208.52
533.78	3234.88
534.14	3260.37
534.50	3284.37
534.86	3309.06
535.21	3331.75
535.57	3356.37
535.93	3380.14
536.29	3402.61
536.65	3424.97
537.00	3445.32
537.36	3465.59
537.72	3485.53
538.08	3505.55
538.44	3524.94
538.79	3544.21
539.15	3563.60
539.51	3582.42
539.87	3602.34
540.22	3620.64
540.58	3639.08
540.94	3656.87
541.29	3672.63
541.65	3687.97
542.01	3703.91
542.37	3718.62
542.72	3734.06
543.08	3747.50
543.44	3762.81
543.79	3776.40
544.15	3788.26
544.51	3801.01
544.87	3814.11
545.22	3825.65
545.58	3835.77
545.94	3844.26
546.29	3852.00
546.65	3859.70
547.01	3867.33
547.36	3874.24
547.72	3880.40
548.07	3885.43
548.43	3890.44
548.79	3895.47
549.14	3900.50
549.50	3905.47
549.86	3908.90
550.21	3912.13
550.57	3916.25
550.92	3917.36
551.28	3919.13
551.64	3921.63
551.99	3924.18
552.35	3924.94
552.70	3926.30
553.06	3927.80
553.41	3928.95
553.77	3930.19
554.13	3930.57
554.48	3930.95
554.84	3930.65
555.19	3930.80
555.55	3929.10
555.90	3927.02
556.26	3925.24
556.61	3923.25
556.97	3919.91
557.32	3918.03
557.68	3914.33
558.03	3910.47
558.39	3907.06
558.74	3905.12
559.10	3901.82
559.45	3897.48
559.81	3894.52
560.16	3889.63
560.52	3885.93
560.87	3881.42
561.23	3875.60
561.58	3871.09
561.94	3864.90
562.29	3858.05
562.64	3852.42
563.00	3847.60
563.35	3843.06
563.71	3839.55
564.06	3834.77
564.42	3830.66
564.77	3825.69
565.12	3821.45
565.48	3815.81
565.83	3810.56
566.19	3805.45
566.54	3798.40
566.89	3791.24
567.25	3784.53
567.60	3778.54
567.96	3771.00
568.31	3764.33
568.66	3757.46
569.02	3749.05
569.37	3740.81
569.72	3733.66
570.08	3725.02
570.43	3716.01
570.78	3707.02
571.14	3696.41
571.49	3686.47
571.84	3677.18
572.20	3666.07
572.55	3656.36
572.90	3645.89
573.26	3634.93
573.61	3622.72
573.96	3611.53
574.31	3599.83
574.67	3586.68
575.02	3573.54
575.37	3561.27
575.72	3547.89
576.08	3536.49
576.43	3523.90
576.78	3512.26
577.13	3500.61
577.49	3488.70
577.84	3476.40
578.19	3464.71
578.54	3453.91
578.90	3443.30
579.25	3430.62
579.60	3417.91
579.95	3404.35
580.30	3392.47
580.66	3381.33
581.01	3368.56
581.36	3355.89
581.71	3343.23
582.06	3331.23
582.42	3319.66
582.77	3306.30
583.12	3293.70
583.47	3281.54
583.82	3269.81
584.17	3256.94
584.53	3244.31
584.88	3231.65
585.23	3219.09
585.58	3206.35
585.93	3193.13
586.28	3180.19
586.63	3167.58
586.98	3155.41
587.34	3143.84
587.69	3131.18
588.04	3118.06
588.39	3106.19
588.74	3093.40
589.09	3081.61
589.44	3069.12
589.79	3057.31
590.14	3046.44
590.49	3034.85
590.84	3021.99
591.19	3011.02
591.54	2999.08
591.89	2985.27
592.25	2972.53
592.60	2959.43
592.95	2946.12
593.30	2931.65
593.65	2917.62
594.00	2904.71
594.35	2893.60
594.70	2880.80
595.05	2868.57
595.40	2855.89
595.75	2842.55
596.10	2831.16
596.45	2819.79
596.80	2808.77
597.15	2797.19
597.50	2784.52
597.85	2772.99
598.19	2761.25
598.54	2749.06
598.89	2738.01
599.24	2728.33
599.59	2717.64
599.94	2708.12
600.29	2697.88
600.64	2688.21
600.99	2676.69
601.34	2666.28
601.69	2654.13
602.04	2642.23
602.39	2630.86
602.74	2620.45
603.08	2610.92
603.43	2600.85
603.78	2589.74
604.13	2578.51
604.48	2567.32
604.83	2558.44
605.18	2548.74
605.53	2537.92
605.87	2526.67
606.22	2516.35
606.57	2505.30
606.92	2494.22
607.27	2482.29
607.62	2471.00
607.96	2460.70
608.31	2451.61
608.66	2440.16
609.01	2428.99
609.36	2418.31
609.70	2406.58
610.05	2394.49
610.40	2382.57
610.75	2370.11
611.10	2359.09
611.44	2346.02
611.79	2333.52
612.14	2319.96
612.49	2306.16
612.83	2293.85
613.18	2281.31
613.53	2268.33
613.88	2254.66
614.22	2242.32
614.57	2229.59
614.92	2216.80
615.27	2203.65
615.61	2190.26
615.96	2178.07
616.31	2166.50
616.65	2155.15
617.00	2143.87
617.35	2132.25
617.70	2119.92
618.04	2107.36
618.39	2093.93
618.74	2082.48
619.08	2070.27
619.43	2058.22
619.78	2047.25
620.12	2035.52
620.47	2024.01
620.82	2011.79
621.16	1999.75
621.51	1987.45
621.85	1975.96
622.20	1963.95
622.55	1952.10
622.89	1940.22
623.24	1928.18
623.59	1915.29
623.93	1903.03
624.28	1891.16
624.62	1879.66
624.97	1868.09
625.32	1857.09
625.66	1846.31
626.01	1835.18
626.35	1824.44
626.70	1813.26
627.04	1802.49
627.39	1791.88
627.73	1780.81
628.08	1770.35
628.43	1759.46
628.77	1748.74
629.12	1737.74
629.46	1728.10
629.81	1717.46
630.15	1707.10
630.50	1696.52
630.84	1686.24
631.19	1675.92
631.53	1665.51
631.88	1654.31
632.22	1643.52
632.57	1633.31
632.91	1622.82
633.26	1612.52
633.60	1602.19
633.95	1592.52
634.29	1581.78
634.64	1571.71
634.98	1561.53
635.32	1551.71
635.67	1542.54
636.01	1532.98
636.36	1522.67
636.70	1512.71
637.05	1503.04
637.39	1493.63
637.73	1484.75
638.08	1476.04
638.42	1467.25
638.77	1458.06
639.11	1448.70
639.45	1439.71
639.80	1429.79
640.14	1420.18
640.49	1410.61
640.83	1401.03
641.17	1391.59
641.52	1382.04
641.86	1372.04
642.20	1362.55
642.55	1352.39
642.89	1342.41
643.23	1332.56
643.58	1324.09
643.92	1313.98
644.26	1304.52
644.61	1295.25
644.95	1285.33
645.29	1275.79
645.64	1265.76
645.98	1256.38
646.32	1247.60
646.66	1238.17
647.01	1229.43
647.35	1220.44
647.69	1210.72
648.04	1201.77
648.38	1192.53
648.72	1183.69
649.06	1174.90
649.41	1165.94
649.75	1157.22
650.09	1148.55
650.43	1139.90
650.78	1130.39
651.12	1121.43
651.46	1112.63
651.80	1103.96
652.14	1095.44
652.49	1086.49
652.83	1077.76
653.17	1068.30
653.51	1059.26
653.85	1050.95
654.20	1042.26
654.54	1033.65
654.88	1025.62
655.22	1017.08
655.56	1008.40
655.90	999.72
656.25	991.40
656.59	983.16
656.93	975.11
657.27	967.23
657.61	958.82
657.95	951.20
658.29	943.74
658.64	936.09
658.98	927.98
659.32	919.85
659.66	912.32
660.00	904.77
660.34	897.44
660.68	889.90
661.02	882.05
661.36	874.73
661.70	867.60
662.05	860.73
662.39	854.05
662.73	847.39
663.07	840.98
663.41	834.23
663.75	827.55
664.09	820.79
664.43	813.79
664.77	807.39
665.11	800.83
665.45	794.39
665.79	788.06
666.13	781.83
666.47	775.73
666.81	769.44
667.15	763.08
667.49	757.44
667.83	751.68
668.17	745.91
668.51	740.38
668.85	734.61
669.19	729.01
669.53	723.20
669.87	717.42
670.21	711.75
670.55	706.27
670.89	701.16
671.23	696.13
671.57	691.25
671.91	686.06
672.25	680.83
672.58	675.61
672.92	670.53
673.26	665.72
673.60	660.93
673.94	656.12
674.28	651.40
674.62	646.74
674.96	642.23
675.30	637.74
675.64	632.99
675.97	628.52
676.31	624.03
676.65	619.62
676.99	615.67
677.33	611.19
677.67	606.71
678.01	602.02
678.34	597.69
678.68	593.35
679.02	589.06
679.36	584.97
679.70	581.05
680.04	576.94
680.37	572.67
680.71	568.60
681.05	564.81
681.39	560.95
681.73	556.97
682.06	553.19
682.40	549.49
682.74	545.76
683.08	541.91
683.42	538.02
683.75	534.25
684.09	530.21
684.43	526.60
684.77	522.92
685.10	519.43
685.44	515.68
685.78	512.03
686.12	508.88
686.45	505.44
686.79	501.88
687.13	498.59
687.46	495.30
687.80	492.10
688.14	488.57
688.48	485.27
688.81	481.87
689.15	478.49
689.49	475.25
689.82	472.00
690.16	468.64
690.50	465.30
690.83	462.23
691.17	459.06
691.51	456.05
691.84	453.16
692.18	450.15
692.52	447.37
692.85	444.72
693.19	441.81
693.52	439.00
693.86	436.18
694.20	433.50
694.53	430.87
694.87	428.07
695.21	425.34
695.54	422.62
695.88	419.90
696.21	417.24
696.55	414.65
696.88	412.12
697.22	409.69
697.56	407.54
697.89	404.98
698.23	402.65
698.56	400.17
698.90	397.89
699.23	395.55
699.57	393.20
699.90	390.80
700.24	388.43
700.58	386.07
700.91	383.95
701.25	381.85
701.58	379.70
701.92	377.56
702.25	375.62
702.59	373.61
702.92	371.71
703.26	369.69
703.59	367.75
703.93	366.14
704.26	364.38
704.60	362.33
704.93	360.44
705.26	358.55
705.60	356.75
705.93	354.80
706.27	353.11
706.60	351.44
706.94	349.87
707.27	348.07
707.61	346.50
707.94	344.75
708.27	342.86
708.61	341.13
708.94	339.47
709.28	337.83
709.61	336.28
709.94	334.83
710.28	333.39
710.61	331.89
710.95	330.05
711.28	328.68
711.61	327.25
711.95	326.02
712.28	324.66
712.61	323.38
712.95	322.20
713.28	321.01
713.61	319.58
713.95	318.15
714.28	316.92
714.61	315.55
714.95	314.25
715.28	312.95
715.61	311.62
715.95	310.43
716.28	309.13
716.61	307.90
716.95	306.56
717.28	305.41
717.61	304.16
717.94	303.11
718.28	301.86
718.61	300.80
718.94	299.61
719.27	298.57
719.61	297.51
719.94	296.44
720.27	295.16
720.60	294.14
720.94	293.05
721.27	292.07
721.60	291.20
721.93	290.30
722.27	289.51
722.60	288.72
722.93	287.93
723.26	287.11
723.59	286.25
723.93	285.46
724.26	284.53
724.59	283.70
724.92	282.91
725.25	282.21
725.59	281.39
725.92	280.70
726.25	279.88
726.58	279.15
726.91	278.36
727.24	277.70
727.57	277.03
727.91	276.40
728.24	275.75
728.57	275.00
728.90	274.33
729.23	273.57
729.56	273.05
729.89	272.29
730.22	271.62
730.55	270.92
730.89	270.16
731.22	269.48
731.55	268.85
731.88	268.15
732.21	267.34
732.54	266.61
732.87	265.88
733.20	265.25
733.53	264.53
733.86	263.95
734.19	263.37
734.52	262.69
734.85	262.40
735.18	261.76
735.51	261.29
735.84	260.71
736.17	260.25
736.50	259.53
736.83	259.38
737.16	258.80
737.49	258.29
737.82	257.75
738.15	257.28
738.48	256.76
738.81	256.15
739.14	255.66
739.47	255.17
739.80	254.68
740.13	254.24
740.46	253.75
740.79	253.18
741.12	252.62
741.45	252.18
741.78	251.34
742.11	250.97
742.44	250.50
742.77	250.08
743.10	249.60
743.43	249.11
743.75	248.30
744.08	248.33
744.41	247.94
744.74	247.50
745.07	247.07
745.40	246.69
745.73	246.49
746.06	246.09
746.39	245.80
746.71	245.40
747.04	244.95
747.37	244.54
747.70	244.24
748.03	243.84
748.36	243.53
748.68	243.25
749.01	242.80
749.34	242.39
749.67	242.00
750.00	241.72
750.33	241.64
750.65	241.38
750.98	240.72
751.31	240.30
751.64	240.04
751.97	239.91
752.29	239.58
752.62	239.14
752.95	238.79
753.28	238.40
753.60	238.03
753.93	237.84
754.26	237.58
754.59	237.19
754.91	236.92
755.24	236.61
755.57	236.31
755.90	236.10
756.22	235.78
756.55	235.54
756.88	235.15
757.20	234.70
757.53	234.23
757.86	233.91
758.19	233.68
758.51	233.43
758.84	232.95
759.17	232.71
759.49	232.53
759.82	232.52
760.15	232.33
760.47	232.10
760.80	231.72
761.13	231.49
761.45	231.28
761.78	231.11
762.11	230.86
762.43	230.69
762.76	230.41
763.08	230.26
763.41	230.02
763.74	229.79
764.06	229.49
764.39	229.33
764.71	229.08
765.04	228.90
765.37	228.66
765.69	228.48
766.02	228.25
766.34	227.95
766.67	227.57
767.00	227.43
767.32	227.50
767.65	227.60
767.97	227.45
768.30	227.34
768.62	227.06
768.95	226.84
769.27	226.63
769.60	226.52
769.92	226.31
770.25	226.09
770.57	225.92
770.90	225.74
771.22	225.59
771.55	225.47
771.87	225.32
772.20	225.13
772.52	225.35
772.85	225.55
773.17	225.46
773.50	225.31
773.82	225.07
774.15	224.73
774.47	224.34
774.80	224.05
775.12	223.77
775.45	223.67
775.77	223.64
776.09	223.49
776.42	223.35
776.74	223.29
777.07	223.11
777.39	223.02
777.72	222.87
778.04	222.76
778.36	222.59
778.69	222.45
779.01	222.38
779.33	221.89
779.66	221.39
779.98	221.18
780.31	220.99
780.63	221.06
780.95	221.06
781.28	220.97
781.60	220.92
781.92	220.91
782.25	220.88
782.57	220.73
782.89	220.68
783.22	220.50
783.54	220.36
783.86	220.35
784.19	220.19
784.51	220.25
784.83	220.12
785.16	219.99
785.48	219.87
785.80	219.76
786.12	219.69
786.45	219.67
786.77	219.72
787.09	219.68
787.42	219.45
787.74	219.36
788.06	219.33
788.38	219.25
788.71	219.04
789.03	218.88
789.35	218.90
789.67	218.73
789.99	218.66
790.32	218.59
790.64	218.54
790.96	218.83
791.28	218.70
791.61	218.63
791.93	218.59
792.25	218.60
792.57	218.82
792.89	218.78
793.21	218.75
793.54	218.63
793.86	218.56
794.18	218.53
794.50	218.38
794.82	218.31
795.14	218.25
795.47	218.32
795.79	218.33
796.11	218.10
796.43	218.05
796.75	218.02
797.07	217.96
797.39	217.89
797.71	217.62
798.04	217.55
798.36	217.51
798.68	217.47
799.00	217.47
799.32	217.12
799.64	217.13
799.96	217.08
800.28	217.04
800.60	216.96
800.92	216.97
801.24	216.94
801.56	216.88
801.89	216.82
802.21	216.86
802.53	216.75
802.85	216.78
803.17	216.86
803.49	216.76
803.81	216.61
804.13	216.56
804.45	216.35
804.77	216.29
805.09	216.24
805.41	216.12
805.73	215.92
806.05	215.89
806.37	215.81
806.69	215.64
807.01	215.61
807.33	215.61
807.65	215.33
807.97	215.42
808.28	215.34
808.60	215.35
808.92	215.21
809.24	215.39
809.56	215.33
809.88	215.19
810.20	215.24
810.52	215.36
810.84	215.28
811.16	215.21
811.48	215.26
811.80	215.30
812.12	215.28
812.43	215.29
812.75	215.20
813.07	215.11
813.39	215.15
813.71	215.04
814.03	214.94
814.35	214.98
814.67	214.79
814.98	214.72
815.30	214.65
815.62	214.56
815.94	214.30
816.26	214.33
816.58	214.22
816.89	214.15
817.21	214.02
817.53	214.05
817.85	214.09
818.17	214.01
818.48	213.84
818.80	213.89
819.12	213.84
819.44	213.84
819.76	213.78
820.07	213.71
820.39	213.71
820.71	213.70
821.03	213.70
821.34	213.65
821.66	213.71
821.98	213.74
822.30	213.70
822.61	213.89
822.93	213.79
823.25	213.78
823.57	213.78
823.88	213.82
824.20	213.77
824.52	213.83
824.83	213.77
825.15	213.78
825.47	213.71
825.79	213.72
826.10	213.73
826.42	213.69
826.74	213.74
827.05	213.72
827.37	213.71
827.69	213.69
828.00	213.73
828.32	213.63
828.64	213.49
828.95	213.65
829.27	213.57
829.58	213.52
829.90	213.56
830.22	213.49
830.53	213.40
830.85	213.34
831.17	213.16
831.48	213.17
831.80	213.11
832.11	213.05
832.43	213.03
832.75	212.95
833.06	213.18
833.38	213.07
833.69	213.10
834.01	213.13
834.32	213.11
834.64	213.07
834.96	213.11
835.27	213.14
835.59	213.09
835.90	212.98
836.22	213.04
836.53	212.91
836.85	212.92
837.16	213.25
837.48	213.26
837.79	213.43
838.11	213.41
838.42	213.42
838.74	213.52
839.05	213.50
839.37	213.51
839.68	213.30
840.00	213.34
840.31	213.39
840.63	213.37
840.94	213.32
841.26	213.25
841.57	213.18
841.88	213.21
842.20	213.15
842.51	213.11
842.83	213.08
843.14	213.40
843.46	213.43
843.77	213.23
844.08	213.13
844.40	212.95
844.71	212.88
845.03	212.85
845.34	212.78
845.65	212.70
845.97	212.69
846.28	212.68
846.60	212.66
846.91	212.58
847.22	212.50
847.54	212.57
847.85	212.65
848.16	212.67
848.48	212.63
848.79	212.75
849.10	212.73
849.42	212.76
849.73	212.49
850.04	212.45
850.36	212.31
850.67	212.45
850.98	212.53
851.30	212.59
851.61	212.59
851.92	212.56
852.23	212.74
852.55	212.77
852.86	212.81
853.17	212.88
853.49	212.94
853.80	213.03
854.11	213.05
854.42	213.02
854.74	212.95
855.05	212.97
855.36	212.81
855.67	212.87
855.99	212.89
856.30	213.30
856.61	213.25
856.92	213.34
857.23	213.38
857.55	213.31
857.86	213.27
858.17	213.33
858.48	213.36
858.79	213.29
859.11	213.29
859.42	213.26
859.73	213.23
860.04	213.19
860.35	213.12
860.66	213.01
860.98	213.01
861.29	213.07
861.60	213.01
861.91	212.98
862.22	212.89
862.53	212.77
862.84	212.34
863.16	212.47
863.47	212.33
863.78	212.27
864.09	212.28
864.40	212.34
864.71	212.29
865.02	212.25
865.33	212.22
865.64	212.20
865.95	212.14
866.27	212.34
866.58	212.25
866.89	212.28
867.20	212.24
867.51	212.18
867.82	212.13
868.13	212.21
868.44	212.21
868.75	212.31
869.06	212.37
869.37	212.36
869.68	212.19
869.99	212.26
870.30	212.21
870.61	212.18
870.92	212.09
871.23	212.12
871.54	212.16
871.85	212.24
872.16	212.26
872.47	212.21
872.78	211.94
873.09	212.00
873.40	211.94
873.71	211.98
874.02	212.06
874.33	211.97
874.64	211.92
874.95	211.99
875.26	211.95
875.56	211.90
875.87	211.92
876.18	211.93
876.49	212.30
876.80	212.27
877.11	212.21
877.42	212.22
877.73	212.23
878.04	212.20
878.35	212.18
878.66	212.18
878.96	212.18
879.27	212.20
879.58	212.22
879.89	212.22
880.20	212.35
880.51	212.30
880.82	212.39
881.12	212.37
881.43	212.30
881.74	212.21
882.05	212.14
882.36	212.20
882.67	212.23
882.97	211.85
883.28	211.86
883.59	211.92
883.90	211.94
884.21	212.01
884.51	211.98
884.82	211.91
885.13	211.86
885.44	211.85
885.74	211.85
886.05	211.80
886.36	211.75
886.67	211.62
886.98	211.80
887.28	211.85
887.59	211.91
887.90	211.92
888.20	211.92
888.51	212.00
888.82	211.90
889.13	211.92
889.43	212.20
889.74	212.15
890.05	212.17
890.35	212.15
890.66	212.10
890.97	212.08
891.28	212.11
891.58	212.13
891.89	212.21
892.20	212.23
892.50	212.23
892.81	212.27
893.12	212.25
893.42	212.10
893.73	212.04
894.04	212.02
894.34	212.05
894.65	212.05
894.95	212.02
895.26	212.05
895.57	212.16
895.87	211.81
896.18	211.98
896.48	212.01
896.79	211.99
897.10	212.03
897.40	212.09
897.71	212.08
898.01	212.07
898.32	212.08
898.63	212.02
898.93	212.05
899.24	212.09
899.54	212.19
899.85	212.21
900.15	212.26
900.46	212.26
900.76	212.27
901.07	212.26
901.38	212.32
901.68	212.40
901.99	212.33
902.29	212.34
902.60	212.25
902.90	212.17
903.21	212.20
903.51	212.11
903.82	212.15
904.12	212.10
904.43	212.09
904.73	212.10
905.03	212.12
905.34	212.42
905.64	212.40
905.95	212.33
906.25	212.33
906.56	212.34
906.86	212.32
907.17	212.32
907.47	212.37
907.77	212.35
908.08	212.27
908.38	212.23
908.69	212.23
908.99	212.27
909.30	212.35
909.60	212.38
909.90	212.52
910.21	212.46
910.51	212.50
910.81	212.50
911.12	212.50
911.42	212.52
911.73	212.15
912.03	212.18
912.33	212.23
912.64	212.23
912.94	212.16
913.24	212.17
913.55	212.11
913.85	212.10
914.15	212.18
914.46	212.17
914.76	212.11
915.06	212.21
915.37	212.15
915.67	212.08
915.97	212.09
916.27	211.93
916.58	211.93
916.88	211.88
917.18	211.81
917.49	212.04
917.79	212.05
918.09	212.13
918.39	212.18
918.70	212.14
919.00	212.03
919.30	212.17
919.60	212.10
919.91	212.08
920.21	212.10
920.51	211.98
920.81	211.97
921.12	212.02
921.42	211.94
921.72	211.95
922.02	211.98
922.32	211.99
922.63	212.03
922.93	212.19
923.23	212.26
923.53	212.29
923.83	211.98
924.13	211.92
924.44	211.90
924.74	211.90
925.04	211.96
925.34	211.93
925.64	211.78
925.94	211.77
926.24	211.95
926.55	211.90
926.85	212.02
927.15	212.03
927.45	212.07
927.75	212.05
928.05	212.02
928.35	211.95
928.65	211.98
928.95	212.01
929.26	211.85
929.56	211.89
929.86	211.94
930.16	211.91
930.46	211.99
930.76	212.01
931.06	211.90
931.36	211.83
931.66	211.85
931.96	211.89
932.26	211.93
932.56	211.71
932.86	211.74
933.16	211.68
933.46	211.67
933.76	211.61
934.06	211.68
934.36	211.82
934.66	211.88
934.96	211.83
935.26	211.85
935.56	211.88
935.86	211.78
936.16	211.76
936.46	211.79
936.76	211.77
937.06	211.63
937.36	211.60
937.66	211.57
937.96	211.69
938.26	211.58
938.56	211.51
938.86	211.63
939.16	211.69
939.46	211.74
939.76	211.74
940.06	211.75
940.35	211.63
940.65	211.48
940.95	211.52
941.25	211.41
941.55	211.26
941.85	211.30
942.15	211.34
942.45	211.38
942.75	211.38
943.04	211.34
943.34	211.50
943.64	211.48
943.94	211.50
944.24	211.44
944.54	211.57
944.84	211.59
945.13	211.54
945.43	211.38
945.73	211.35
946.03	211.29
946.33	211.24
946.62	211.31
946.92	211.26
947.22	211.26
947.52	211.29
947.82	211.43
948.11	211.34
948.41	211.28
948.71	211.21
949.01	211.24
949.31	211.21
949.60	211.16
949.90	211.29
950.20	211.24
950.50	211.27
950.79	211.23
951.09	211.35
951.39	211.31
951.69	211.37
951.98	211.46
952.28	211.50
952.58	211.50
952.87	211.46
953.17	211.47
953.47	211.45
953.76	211.47
954.06	211.36
954.36	211.28
954.66	211.30
954.95	211.34
955.25	211.32
955.55	211.35
955.84	211.35
956.14	211.29
956.44	211.30
956.73	211.26
957.03	211.28
957.32	211.18
957.62	211.18
957.92	211.23
958.21	211.10
958.51	211.54
958.81	211.62
959.10	211.70
959.40	211.82
959.69	211.85
959.99	211.89
960.29	211.94
960.58	211.99
960.88	212.16
961.17	212.17
961.47	212.25
961.76	212.25
962.06	212.33
962.36	212.30
962.65	212.32
962.95	212.26
963.24	212.14
963.54	212.14
963.83	212.20
964.13	212.20
964.42	212.15
964.72	211.87
965.01	211.85
965.31	211.79
965.60	211.66
965.90	211.86
966.19	211.85
966.49	211.86
966.78	211.89
967.08	211.81
967.37	211.87
967.67	211.80
967.96	211.83
968.26	211.77
968.55	211.81
968.85	211.71
969.14	211.75
969.43	211.81
969.73	211.75
970.02	211.70
970.32	211.59
970.61	211.57
970.91	211.38
971.20	211.31
971.49	211.25
971.79	211.27
972.08	211.02
972.38	210.95
972.67	210.95
972.96	210.93
973.26	210.83
973.55	210.89
973.85	210.84
974.14	210.82
974.43	210.89
974.73	210.84
975.02	210.82
975.31	210.83
975.61	210.85
975.90	210.90
976.19	210.79
976.49	210.89
976.78	210.96
977.07	210.95
977.37	210.99
977.66	210.97
977.95	211.01
978.24	211.05
978.54	211.11
978.83	211.09
979.12	211.01
979.42	211.00
979.71	210.90
980.00	210.88
980.29	210.88
980.59	210.74
980.88	210.81
981.17	210.90
981.46	210.90
981.76	210.84
982.05	210.97
982.34	211.06
982.63	211.01
982.93	210.97
983.22	211.07
983.51	211.07
983.80	211.20
984.09	211.16
984.39	211.16
984.68	211.14
984.97	211.12
985.26	211.17
985.55	211.21
985.85	211.14
986.14	211.14
986.43	211.23
986.72	211.20
987.01	211.12
987.30	211.11
987.59	211.06
987.89	211.04
988.18	210.90
988.47	210.90
988.76	210.92
989.05	210.91
989.34	210.88
989.63	210.93
989.92	210.89
990.22	210.88
990.51	210.80
990.80	210.77
991.09	210.86
991.38	210.92
991.67	210.99
991.96	210.98
992.25	211.07
992.54	210.93
992.83	210.97
993.12	211.00
993.41	211.00
993.70	211.15
993.99	211.28
994.28	211.34
994.58	211.38
994.87	211.30
995.16	211.27
995.45	211.31
995.74	211.33
996.03	211.39
996.32	211.44
996.61	211.52
996.90	211.46
997.19	211.44
997.48	211.39
997.77	211.29
998.06	211.23
998.34	211.21
998.63	211.24
998.92	211.27
999.21	211.21
999.50	211.30
999.79	211.16
1000.08	211.07
1000.37	211.02
1000.66	210.94
1000.95	211.13
1001.24	211.18
1001.53	211.13
1001.82	211.04
1002.11	210.98
1002.40	211.03
1002.68	211.13
1002.97	211.41
1003.26	211.34
1003.55	211.37
1003.84	211.43
1004.13	211.63
1004.42	211.60
1004.71	211.61
1004.99	211.60
1005.28	211.73
1005.57	211.69
1005.86	211.61
1006.15	211.69
1006.44	211.60
1006.72	211.73
1007.01	211.59
1007.30	211.60
1007.59	211.61
1007.88	211.56
1008.17	211.52
1008.45	211.41
1008.74	211.32
1009.03	211.21
1009.32	211.20
1009.60	211.15
1009.89	211.11
1010.18	210.95
1010.47	210.93
1010.76	210.93
1011.04	210.91
1011.33	211.20
1011.62	211.20
1011.91	211.27
1012.19	211.24
1012.48	211.32
1012.77	211.27
1013.05	211.50
1013.34	211.48
1013.63	211.46
1013.92	211.48
1014.20	211.50
1014.49	211.45
1014.78	211.43
1015.06	211.23
1015.35	211.24
1015.64	211.29
1015.92	211.29
1016.21	211.32
1016.50	211.36
1016.78	211.34
1017.07	211.35
1017.36	210.92
1017.64	210.86
1017.93	210.92
1018.22	210.88
1018.50	210.88
1018.79	210.85
1019.08	210.58
1019.36	210.61
1019.65	210.60
1019.93	210.71
1020.22	210.76
1020.51	210.99
1020.79	210.91
1021.08	210.50
1021.36	210.80
1021.65	210.45
1021.94	210.00
1022.22	211.20
1022.51	210.65
1022.79	212.75
1023.08	211.55
1023.36	214.80
1023.65	209.45
>>>>>End Processed Spectral Data<<<<<
