SpectraSuite Data File
++++++++++++++++++++++++++++++++++++
Date: Mon Feb 25 17:20:33 EST 2013
User: group
Dark Spectrum Present: No
Reference Spectrum Present: No
Number of Sampled Component Spectra: 1
Spectrometers: USB2E7196
Integration Time (usec): 104000 (USB2E7196)
Spectra Averaged: 20 (USB2E7196)
Boxcar Smoothing: 10 (USB2E7196)
Correct for Electrical Dark: No (USB2E7196)
Strobe/Lamp Enabled: No (USB2E7196)
Correct for Detector Non-linearity: No (USB2E7196)
Correct for Stray Light: No (USB2E7196)
Number of Pixels in Processed Spectrum: 2048
>>>>>Begin Processed Spectral Data<<<<<
339.09	0.00
339.48	198.45
339.86	199.90
340.24	200.85
340.63	203.05
341.01	210.00
341.39	205.65
341.78	206.95
342.16	209.05
342.54	208.95
342.93	198.37
343.31	208.42
343.69	209.05
344.07	209.54
344.46	210.03
344.84	210.43
345.22	210.51
345.60	210.84
345.99	211.09
346.37	211.24
346.75	211.40
347.13	211.52
347.52	211.62
347.90	211.82
348.28	211.80
348.66	212.01
349.05	212.02
349.43	212.18
349.81	212.43
350.19	212.51
350.57	212.61
350.96	212.80
351.34	212.87
351.72	212.96
352.10	213.17
352.48	213.26
352.87	213.37
353.25	213.52
353.63	213.60
354.01	213.68
354.39	213.84
354.77	213.97
355.15	214.23
355.54	214.20
355.92	214.18
356.30	214.33
356.68	214.62
357.06	214.76
357.44	214.75
357.82	214.73
358.20	214.93
358.58	214.98
358.97	215.02
359.35	215.21
359.73	215.35
360.11	215.33
360.49	215.44
360.87	215.46
361.25	215.51
361.63	215.68
362.01	215.77
362.39	215.70
362.77	215.70
363.15	215.70
363.53	215.86
363.91	215.91
364.29	215.98
364.67	215.67
365.05	215.67
365.43	215.69
365.81	215.76
366.19	215.88
366.57	216.01
366.95	215.97
367.33	215.87
367.71	215.79
368.09	215.91
368.47	215.87
368.85	215.88
369.23	215.98
369.61	215.75
369.99	215.80
370.37	215.87
370.75	215.98
371.13	215.84
371.51	215.74
371.89	215.71
372.27	215.60
372.65	215.56
373.03	215.52
373.41	215.46
373.78	215.38
374.16	215.13
374.54	214.97
374.92	214.92
375.30	214.87
375.68	214.76
376.06	214.71
376.44	214.65
376.82	214.68
377.19	214.57
377.57	214.64
377.95	214.56
378.33	214.55
378.71	214.29
379.09	214.28
379.47	214.18
379.84	214.09
380.22	214.10
380.60	214.06
380.98	214.00
381.36	213.94
381.73	213.93
382.11	213.90
382.49	213.91
382.87	213.80
383.25	213.77
383.62	214.22
384.00	214.08
384.38	214.10
384.76	214.08
385.13	214.10
385.51	213.96
385.89	213.80
386.27	213.66
386.64	213.72
387.02	213.73
387.40	213.72
387.78	213.69
388.15	213.65
388.53	213.61
388.91	213.61
389.29	213.56
389.66	213.53
390.04	213.50
390.42	213.54
390.79	213.57
391.17	213.60
391.55	213.22
391.92	213.26
392.30	213.29
392.68	213.25
393.05	213.26
393.43	213.29
393.81	213.32
394.18	213.37
394.56	213.35
394.94	213.37
395.31	213.32
395.69	213.50
396.06	213.57
396.44	213.57
396.82	213.53
397.19	213.73
397.57	213.69
397.95	213.75
398.32	213.68
398.70	213.75
399.07	213.88
399.45	213.86
399.82	213.95
400.20	213.96
400.58	213.97
400.95	213.94
401.33	214.12
401.70	214.50
402.08	214.59
402.45	214.72
402.83	214.90
403.20	215.09
403.58	215.08
403.95	215.21
404.33	215.37
404.71	215.53
405.08	215.91
405.46	216.11
405.83	216.37
406.21	216.49
406.58	216.69
406.96	216.84
407.33	217.11
407.70	217.38
408.08	217.85
408.45	218.20
408.83	218.60
409.20	218.86
409.58	218.97
409.95	219.37
410.33	219.82
410.70	220.21
411.08	220.82
411.45	221.39
411.82	221.96
412.20	222.68
412.57	223.53
412.95	223.85
413.32	224.67
413.69	225.40
414.07	226.31
414.44	227.29
414.82	228.28
415.19	229.49
415.56	230.59
415.94	231.64
416.31	233.02
416.68	234.35
417.06	236.00
417.43	237.53
417.81	239.28
418.18	241.03
418.55	242.87
418.93	244.74
419.30	246.78
419.67	248.95
420.04	251.12
420.42	253.35
420.79	256.33
421.16	259.04
421.54	261.98
421.91	264.85
422.28	267.78
422.66	270.86
423.03	274.01
423.40	277.22
423.77	280.55
424.15	283.90
424.52	287.47
424.89	291.20
425.26	295.01
425.64	298.62
426.01	302.54
426.38	306.64
426.75	311.00
427.13	315.36
427.50	319.95
427.87	324.72
428.24	329.50
428.61	333.81
428.99	338.86
429.36	344.06
429.73	349.40
430.10	354.72
430.47	360.23
430.85	365.68
431.22	371.62
431.59	378.15
431.96	384.18
432.33	390.89
432.70	397.43
433.08	404.85
433.45	411.79
433.82	418.89
434.19	426.78
434.56	434.41
434.93	441.72
435.30	449.00
435.68	457.26
436.05	465.17
436.42	473.16
436.79	480.38
437.16	488.34
437.53	496.59
437.90	504.79
438.27	512.85
438.64	521.17
439.01	528.95
439.38	535.77
439.75	542.52
440.13	550.10
440.50	557.27
440.87	563.18
441.24	569.45
441.61	576.09
441.98	580.95
442.35	586.61
442.72	592.40
443.09	598.09
443.46	601.17
443.83	603.60
444.20	605.42
444.57	608.19
444.94	609.46
445.31	610.93
445.68	612.37
446.05	612.71
446.42	611.95
446.79	610.84
447.16	609.54
447.53	608.61
447.90	605.31
448.27	602.08
448.64	597.73
449.01	594.41
449.37	588.83
449.74	583.43
450.11	577.20
450.48	570.18
450.85	562.88
451.22	556.79
451.59	550.85
451.96	545.36
452.33	537.96
452.70	531.20
453.07	523.10
453.43	514.80
453.80	507.20
454.17	499.75
454.54	492.84
454.91	485.38
455.28	478.04
455.65	471.34
456.02	464.91
456.38	459.14
456.75	452.01
457.12	446.06
457.49	440.25
457.86	434.33
458.23	429.48
458.59	424.19
458.96	418.85
459.33	414.10
459.70	409.34
460.07	405.54
460.43	401.24
460.80	397.23
461.17	393.75
461.54	389.94
461.91	386.41
462.27	382.82
462.64	379.83
463.01	376.50
463.38	373.36
463.74	369.77
464.11	366.88
464.48	364.45
464.85	361.76
465.21	359.87
465.58	357.85
465.95	355.20
466.32	353.20
466.68	351.10
467.05	348.97
467.42	346.96
467.78	344.87
468.15	342.82
468.52	341.40
468.88	339.48
469.25	337.84
469.62	336.45
469.98	334.91
470.35	333.56
470.72	332.32
471.08	330.89
471.45	329.81
471.82	328.70
472.18	327.42
472.55	326.69
472.92	325.50
473.28	324.62
473.65	323.91
474.02	323.09
474.38	322.54
474.75	322.15
475.11	321.57
475.48	321.31
475.85	321.22
476.21	320.90
476.58	320.77
476.94	320.85
477.31	320.79
477.67	320.84
478.04	321.02
478.41	321.36
478.77	321.97
479.14	322.26
479.50	322.85
479.87	323.52
480.23	324.14
480.60	324.73
480.96	325.35
481.33	326.42
481.69	327.40
482.06	328.43
482.42	329.40
482.79	330.61
483.15	331.91
483.52	333.40
483.88	334.94
484.25	336.50
484.61	338.18
484.98	340.00
485.34	342.22
485.71	344.36
486.07	346.72
486.44	348.79
486.80	351.43
487.17	354.12
487.53	357.18
487.90	360.37
488.26	363.82
488.62	367.47
488.99	370.98
489.35	374.77
489.72	378.81
490.08	383.00
490.44	387.36
490.81	392.08
491.17	396.80
491.54	402.06
491.90	407.49
492.26	413.28
492.63	419.35
492.99	425.56
493.36	432.32
493.72	439.24
494.08	446.59
494.45	454.20
494.81	462.32
495.17	470.40
495.54	479.18
495.90	488.23
496.26	497.60
496.63	507.26
496.99	517.50
497.35	528.18
497.72	539.27
498.08	550.81
498.44	562.57
498.80	575.31
499.17	588.28
499.53	601.73
499.89	615.67
500.26	629.80
500.62	644.36
500.98	659.72
501.34	675.58
501.71	692.17
502.07	708.85
502.43	726.01
502.79	743.81
503.16	762.26
503.52	781.29
503.88	800.99
504.24	821.20
504.60	841.73
504.97	862.88
505.33	884.71
505.69	907.94
506.05	931.38
506.41	954.68
506.78	978.43
507.14	1002.92
507.50	1027.91
507.86	1053.73
508.22	1080.18
508.59	1106.70
508.95	1134.14
509.31	1161.59
509.67	1190.31
510.03	1219.56
510.39	1249.59
510.75	1279.59
511.12	1310.14
511.48	1340.95
511.84	1372.05
512.20	1403.54
512.56	1435.98
512.92	1468.39
513.28	1500.75
513.64	1533.48
514.00	1566.82
514.37	1600.12
514.73	1634.45
515.09	1668.85
515.45	1702.85
515.81	1737.17
516.17	1771.91
516.53	1806.43
516.89	1841.28
517.25	1875.93
517.61	1910.60
517.97	1945.30
518.33	1979.92
518.69	2014.57
519.05	2049.64
519.41	2085.39
519.77	2121.13
520.13	2155.89
520.49	2190.92
520.85	2226.12
521.21	2261.85
521.57	2297.39
521.93	2332.20
522.29	2367.93
522.65	2403.38
523.01	2438.65
523.37	2472.65
523.73	2506.95
524.09	2541.42
524.45	2576.13
524.81	2610.67
525.17	2645.45
525.53	2679.66
525.89	2714.35
526.25	2748.24
526.61	2780.65
526.97	2813.16
527.33	2845.74
527.68	2878.75
528.04	2910.28
528.40	2940.76
528.76	2971.23
529.12	3002.61
529.48	3035.18
529.84	3065.30
530.20	3095.29
530.56	3125.76
530.91	3157.40
531.27	3187.80
531.63	3217.37
531.99	3246.28
532.35	3274.43
532.71	3301.70
533.07	3329.79
533.42	3355.84
533.78	3383.20
534.14	3410.21
534.50	3434.88
534.86	3460.48
535.21	3484.34
535.57	3510.22
535.93	3534.27
536.29	3557.69
536.65	3580.55
537.00	3601.90
537.36	3622.72
537.72	3643.39
538.08	3663.84
538.44	3683.90
538.79	3704.07
539.15	3723.90
539.51	3743.49
539.87	3763.40
540.22	3782.39
540.58	3801.50
540.94	3820.17
541.29	3836.34
541.65	3851.75
542.01	3868.34
542.37	3883.34
542.72	3898.94
543.08	3912.59
543.44	3928.18
543.79	3941.57
544.15	3954.27
544.51	3967.75
544.87	3981.19
545.22	3993.10
545.58	4003.65
545.94	4012.89
546.29	4021.45
546.65	4029.15
547.01	4036.58
547.36	4043.03
547.72	4049.33
548.07	4053.42
548.43	4057.97
548.79	4062.80
549.14	4068.20
549.50	4072.83
549.86	4076.45
550.21	4079.45
550.57	4082.49
550.92	4084.04
551.28	4086.35
551.64	4087.89
551.99	4088.55
552.35	4088.75
552.70	4089.44
553.06	4090.38
553.41	4091.10
553.77	4091.54
554.13	4092.01
554.48	4092.10
554.84	4092.13
555.19	4091.83
555.55	4091.49
555.90	4090.20
556.26	4088.74
556.61	4086.34
556.97	4083.87
557.32	4082.04
557.68	4078.76
558.03	4075.76
558.39	4072.63
558.74	4070.54
559.10	4068.12
559.45	4065.40
559.81	4062.77
560.16	4058.51
560.52	4055.07
560.87	4050.58
561.23	4045.15
561.58	4040.81
561.94	4034.91
562.29	4028.65
562.64	4023.25
563.00	4017.94
563.35	4013.59
563.71	4009.19
564.06	4004.66
564.42	3999.67
564.77	3994.63
565.12	3990.14
565.48	3984.55
565.83	3979.16
566.19	3973.60
566.54	3966.09
566.89	3958.60
567.25	3951.52
567.60	3945.19
567.96	3937.06
568.31	3930.45
568.66	3922.48
569.02	3913.68
569.37	3905.22
569.72	3897.66
570.08	3888.56
570.43	3879.09
570.78	3869.28
571.14	3858.57
571.49	3848.30
571.84	3838.93
572.20	3827.46
572.55	3817.00
572.90	3805.90
573.26	3793.78
573.61	3781.59
573.96	3770.09
574.31	3757.52
574.67	3744.42
575.02	3730.81
575.37	3718.01
575.72	3703.47
576.08	3691.90
576.43	3678.84
576.78	3666.43
577.13	3654.40
577.49	3642.03
577.84	3628.90
578.19	3616.79
578.54	3605.76
578.90	3594.32
579.25	3581.09
579.60	3567.30
579.95	3553.08
580.30	3540.83
580.66	3529.03
581.01	3515.21
581.36	3501.75
581.71	3489.32
582.06	3476.53
582.42	3463.71
582.77	3450.18
583.12	3437.17
583.47	3424.13
583.82	3411.81
584.17	3398.64
584.53	3385.22
584.88	3371.94
585.23	3359.11
585.58	3345.30
585.93	3330.97
586.28	3317.22
586.63	3303.75
586.98	3291.84
587.34	3279.87
587.69	3266.21
588.04	3253.02
588.39	3240.69
588.74	3227.54
589.09	3215.05
589.44	3201.80
589.79	3189.89
590.14	3178.20
590.49	3165.95
590.84	3152.81
591.19	3141.29
591.54	3128.95
591.89	3114.36
592.25	3101.14
592.60	3087.34
592.95	3073.38
593.30	3058.64
593.65	3044.46
594.00	3031.37
594.35	3019.28
594.70	3006.15
595.05	2993.76
595.40	2980.62
595.75	2966.77
596.10	2954.59
596.45	2941.95
596.80	2930.51
597.15	2918.36
597.50	2905.06
597.85	2893.04
598.19	2880.48
598.54	2867.52
598.89	2855.63
599.24	2845.81
599.59	2834.30
599.94	2824.52
600.29	2813.90
600.64	2803.39
600.99	2791.34
601.34	2779.99
601.69	2767.31
602.04	2755.05
602.39	2743.11
602.74	2731.69
603.08	2721.69
603.43	2711.34
603.78	2699.97
604.13	2688.33
604.48	2676.96
604.83	2667.51
605.18	2657.61
605.53	2646.74
605.87	2635.21
606.22	2624.62
606.57	2612.61
606.92	2601.34
607.27	2589.14
607.62	2577.55
607.96	2566.86
608.31	2557.18
608.66	2545.35
609.01	2533.57
609.36	2522.13
609.70	2509.55
610.05	2497.12
610.40	2484.79
610.75	2472.18
611.10	2460.52
611.44	2446.55
611.79	2433.04
612.14	2418.99
612.49	2404.73
612.83	2391.95
613.18	2378.33
613.53	2364.40
613.88	2350.21
614.22	2337.31
614.57	2323.70
614.92	2310.26
615.27	2296.45
615.61	2282.60
615.96	2269.96
616.31	2257.99
616.65	2246.15
617.00	2234.83
617.35	2222.83
617.70	2209.79
618.04	2196.06
618.39	2182.15
618.74	2170.40
619.08	2157.99
619.43	2145.85
619.78	2134.01
620.12	2121.63
620.47	2110.13
620.82	2097.50
621.16	2085.00
621.51	2072.15
621.85	2060.21
622.20	2047.69
622.55	2035.31
622.89	2022.62
623.24	2010.04
623.59	1996.81
623.93	1984.01
624.28	1971.26
624.62	1958.80
624.97	1946.67
625.32	1935.50
625.66	1924.34
626.01	1912.93
626.35	1901.73
626.70	1889.80
627.04	1878.45
627.39	1867.13
627.73	1855.44
628.08	1845.07
628.43	1833.86
628.77	1822.42
629.12	1810.84
629.46	1800.60
629.81	1789.70
630.15	1779.21
630.50	1768.00
630.84	1756.79
631.19	1745.77
631.53	1735.10
631.88	1723.82
632.22	1712.61
632.57	1701.79
632.91	1690.74
633.26	1679.67
633.60	1668.93
633.95	1658.85
634.29	1648.01
634.64	1637.95
634.98	1627.00
635.32	1616.17
635.67	1606.76
636.01	1597.08
636.36	1586.61
636.70	1576.32
637.05	1566.35
637.39	1556.40
637.73	1547.07
638.08	1538.37
638.42	1528.94
638.77	1519.45
639.11	1510.13
639.45	1500.57
639.80	1490.12
640.14	1480.05
640.49	1470.41
640.83	1460.32
641.17	1450.34
641.52	1440.16
641.86	1429.69
642.20	1420.00
642.55	1409.29
642.89	1398.75
643.23	1388.31
643.58	1378.99
643.92	1368.58
644.26	1358.52
644.61	1348.55
644.95	1338.46
645.29	1328.25
645.64	1318.34
645.98	1308.28
646.32	1298.64
646.66	1288.75
647.01	1279.61
647.35	1270.42
647.69	1260.48
648.04	1251.22
648.38	1241.45
648.72	1231.87
649.06	1222.37
649.41	1213.03
649.75	1203.98
650.09	1195.06
650.43	1185.88
650.78	1176.11
651.12	1166.85
651.46	1157.63
651.80	1148.68
652.14	1139.73
652.49	1130.74
652.83	1121.43
653.17	1111.67
653.51	1102.42
653.85	1093.64
654.20	1084.47
654.54	1075.01
654.88	1066.02
655.22	1056.64
655.56	1047.85
655.90	1039.29
656.25	1030.28
656.59	1021.42
656.93	1013.06
657.27	1004.50
657.61	995.81
657.95	987.82
658.29	979.60
658.64	971.84
658.98	963.41
659.32	954.93
659.66	946.77
660.00	938.74
660.34	930.84
660.68	922.60
661.02	914.48
661.36	906.92
661.70	899.67
662.05	892.61
662.39	885.70
662.73	878.73
663.07	871.83
663.41	865.00
663.75	858.05
664.09	850.83
664.43	843.57
664.77	836.82
665.11	829.76
665.45	822.96
665.79	815.95
666.13	809.32
666.47	802.70
666.81	795.98
667.15	789.48
667.49	783.57
667.83	777.79
668.17	771.87
668.51	765.99
668.85	760.01
669.19	754.10
669.53	747.95
669.87	741.67
670.21	735.62
670.55	729.75
670.89	724.65
671.23	719.33
671.57	714.00
671.91	708.43
672.25	703.04
672.58	697.66
672.92	692.52
673.26	687.45
673.60	682.51
673.94	677.57
674.28	672.67
674.62	667.68
674.96	662.80
675.30	657.93
675.64	652.87
675.97	647.95
676.31	643.25
676.65	638.72
676.99	634.56
677.33	629.99
677.67	625.50
678.01	620.50
678.34	616.04
678.68	611.57
679.02	607.22
679.36	603.01
679.70	598.72
680.04	594.31
680.37	589.88
680.71	585.49
681.05	581.34
681.39	577.10
681.73	573.08
682.06	569.17
682.40	565.27
682.74	561.39
683.08	557.60
683.42	553.46
683.75	549.63
684.09	545.57
684.43	541.81
684.77	537.84
685.10	534.04
685.44	530.16
685.78	526.45
686.12	522.94
686.45	519.28
686.79	515.78
687.13	512.34
687.46	509.02
687.80	505.71
688.14	502.11
688.48	498.78
688.81	495.23
689.15	491.70
689.49	488.19
689.82	484.79
690.16	481.18
690.50	477.88
690.83	474.46
691.17	470.99
691.51	467.61
691.84	464.64
692.18	461.68
692.52	458.67
692.85	455.85
693.19	452.93
693.52	449.97
693.86	446.97
694.20	444.09
694.53	441.19
694.87	438.20
695.21	435.44
695.54	432.54
695.88	429.63
696.21	426.82
696.55	424.29
696.88	421.59
697.22	419.15
697.56	416.70
697.89	414.21
698.23	411.76
698.56	409.37
698.90	407.07
699.23	404.39
699.57	402.01
699.90	399.49
700.24	397.06
700.58	394.58
700.91	392.23
701.25	390.05
701.58	387.77
701.92	385.63
702.25	383.41
702.59	381.15
702.92	379.16
703.26	377.07
703.59	374.95
703.93	373.27
704.26	371.24
704.60	369.23
704.93	367.25
705.26	365.30
705.60	363.40
705.93	361.40
706.27	359.73
706.60	358.00
706.94	356.30
707.27	354.41
707.61	352.69
707.94	350.90
708.27	348.94
708.61	347.20
708.94	345.46
709.28	343.79
709.61	342.30
709.94	340.65
710.28	339.12
710.61	337.53
710.95	335.56
711.28	334.18
711.61	332.63
711.95	331.18
712.28	329.74
712.61	328.22
712.95	326.87
713.28	325.56
713.61	324.14
713.95	322.72
714.28	321.53
714.61	320.17
714.95	318.88
715.28	317.54
715.61	316.17
715.95	314.85
716.28	313.48
716.61	312.17
716.95	310.88
717.28	309.60
717.61	308.40
717.94	307.25
718.28	305.91
718.61	304.74
718.94	303.52
719.27	302.43
719.61	301.37
719.94	300.31
720.27	298.97
720.60	297.82
720.94	296.73
721.27	295.64
721.60	294.69
721.93	293.68
722.27	292.84
722.60	291.92
722.93	291.02
723.26	290.24
723.59	289.31
723.93	288.40
724.26	287.53
724.59	286.64
724.92	285.87
725.25	285.13
725.59	284.30
725.92	283.52
726.25	282.67
726.58	281.98
726.91	281.15
727.24	280.49
727.57	279.69
727.91	278.82
728.24	278.05
728.57	277.30
728.90	276.71
729.23	275.90
729.56	275.37
729.89	274.61
730.22	273.89
730.55	273.15
730.89	272.59
731.22	271.93
731.55	271.28
731.88	270.64
732.21	269.91
732.54	269.24
732.87	268.62
733.20	267.99
733.53	267.25
733.86	266.65
734.19	266.09
734.52	265.64
734.85	265.44
735.18	264.87
735.51	264.41
735.84	263.75
736.17	263.31
736.50	262.55
736.83	262.40
737.16	261.84
737.49	261.38
737.82	260.74
738.15	260.23
738.48	259.73
738.81	259.20
739.14	258.66
739.47	258.17
739.80	257.57
740.13	257.13
740.46	256.57
740.79	255.87
741.12	255.34
741.45	254.70
741.78	253.95
742.11	253.57
742.44	252.95
742.77	252.54
743.10	252.01
743.43	251.58
743.75	250.81
744.08	250.77
744.41	250.24
744.74	249.85
745.07	249.33
745.40	248.97
745.73	248.60
746.06	248.20
746.39	247.78
746.71	247.33
747.04	246.90
747.37	246.52
747.70	246.37
748.03	245.93
748.36	245.60
748.68	245.18
749.01	244.70
749.34	244.35
749.67	243.98
750.00	243.73
750.33	243.59
750.65	243.14
750.98	242.42
751.31	242.09
751.64	241.73
751.97	241.56
752.29	241.16
752.62	240.68
752.95	240.23
753.28	239.77
753.60	239.46
753.93	239.22
754.26	238.88
754.59	238.33
754.91	237.97
755.24	237.66
755.57	237.35
755.90	236.98
756.22	236.65
756.55	236.30
756.88	235.87
757.20	235.32
757.53	234.99
757.86	234.58
758.19	234.31
758.51	234.06
758.84	233.62
759.17	233.27
759.49	233.09
759.82	233.03
760.15	232.86
760.47	232.54
760.80	232.09
761.13	231.85
761.45	231.59
761.78	231.30
762.11	231.01
762.43	230.75
762.76	230.55
763.08	230.33
763.41	230.18
763.74	229.97
764.06	229.72
764.39	229.54
764.71	229.34
765.04	229.04
765.37	228.77
765.69	228.62
766.02	228.38
766.34	228.14
766.67	227.80
767.00	227.69
767.32	227.77
767.65	227.84
767.97	227.65
768.30	227.49
768.62	227.35
768.95	227.14
769.27	226.97
769.60	226.84
769.92	226.63
770.25	226.39
770.57	226.18
770.90	225.99
771.22	225.72
771.55	225.54
771.87	225.49
772.20	225.28
772.52	225.31
772.85	225.62
773.17	225.51
773.50	225.35
773.82	225.13
774.15	224.70
774.47	224.32
774.80	224.11
775.12	223.97
775.45	223.81
775.77	223.68
776.09	223.62
776.42	223.43
776.74	223.40
777.07	223.17
777.39	222.99
777.72	222.87
778.04	222.78
778.36	222.70
778.69	222.55
779.01	222.56
779.33	222.16
779.66	221.64
779.98	221.45
780.31	221.35
780.63	221.44
780.95	221.41
781.28	221.33
781.60	221.20
781.92	221.11
782.25	221.09
782.57	221.09
782.89	220.90
783.22	220.79
783.54	220.57
783.86	220.55
784.19	220.42
784.51	220.44
784.83	220.33
785.16	220.19
785.48	220.12
785.80	219.94
786.12	219.93
786.45	219.83
786.77	219.78
787.09	219.66
787.42	219.44
787.74	219.39
788.06	219.31
788.38	219.22
788.71	219.15
789.03	219.05
789.35	218.94
789.67	218.92
789.99	218.88
790.32	218.85
790.64	218.80
790.96	219.06
791.28	218.90
791.61	218.81
791.93	218.78
792.25	218.69
792.57	218.92
792.89	218.76
793.21	218.76
793.54	218.63
793.86	218.54
794.18	218.41
794.50	218.23
794.82	218.16
795.14	218.11
795.47	218.04
795.79	218.02
796.11	217.87
796.43	217.76
796.75	217.75
797.07	217.70
797.39	217.56
797.71	217.31
798.04	217.29
798.36	217.35
798.68	217.30
799.00	217.26
799.32	216.97
799.64	216.97
799.96	216.91
800.28	216.90
800.60	216.86
800.92	216.84
801.24	216.79
801.56	216.74
801.89	216.70
802.21	216.68
802.53	216.53
802.85	216.56
803.17	216.73
803.49	216.62
803.81	216.65
804.13	216.74
804.45	216.66
804.77	216.67
805.09	216.64
805.41	216.59
805.73	216.57
806.05	216.49
806.37	216.44
806.69	216.35
807.01	216.36
807.33	216.33
807.65	216.26
807.97	216.43
808.28	216.37
808.60	216.35
808.92	216.32
809.24	216.56
809.56	216.49
809.88	216.21
810.20	216.13
810.52	216.12
810.84	215.96
811.16	215.83
811.48	215.73
811.80	215.71
812.12	215.69
812.43	215.68
812.75	215.70
813.07	215.68
813.39	215.65
813.71	215.59
814.03	215.54
814.35	215.46
814.67	215.26
814.98	215.23
815.30	215.27
815.62	215.15
815.94	214.79
816.26	214.76
816.58	214.66
816.89	214.70
817.21	214.55
817.53	214.50
817.85	214.55
818.17	214.49
818.48	214.38
818.80	214.41
819.12	214.30
819.44	214.14
819.76	214.11
820.07	214.06
820.39	213.99
820.71	213.97
821.03	213.99
821.34	213.96
821.66	213.95
821.98	213.86
822.30	213.80
822.61	214.05
822.93	214.01
823.25	214.03
823.57	214.04
823.88	214.11
824.20	214.13
824.52	214.13
824.83	214.06
825.15	213.98
825.47	213.91
825.79	213.90
826.10	213.93
826.42	213.84
826.74	213.89
827.05	213.79
827.37	213.85
827.69	213.83
828.00	213.81
828.32	213.83
828.64	213.77
828.95	214.03
829.27	213.89
829.58	213.86
829.90	213.95
830.22	213.83
830.53	213.71
830.85	213.62
831.17	213.52
831.48	213.54
831.80	213.53
832.11	213.55
832.43	213.47
832.75	213.40
833.06	213.63
833.38	213.51
833.69	213.57
834.01	213.49
834.32	213.45
834.64	213.40
834.96	213.41
835.27	213.37
835.59	213.23
835.90	213.11
836.22	213.02
836.53	212.87
836.85	212.84
837.16	213.15
837.48	213.19
837.79	213.25
838.11	213.29
838.42	213.29
838.74	213.21
839.05	213.13
839.37	213.19
839.68	212.96
840.00	212.99
840.31	212.95
840.63	212.98
840.94	212.92
841.26	212.82
841.57	212.76
841.88	212.83
842.20	212.72
842.51	212.71
842.83	212.80
843.14	213.16
843.46	213.20
843.77	213.02
844.08	212.96
844.40	212.91
844.71	212.82
845.03	212.84
845.34	212.86
845.65	212.88
845.97	212.85
846.28	212.84
846.60	212.84
846.91	212.80
847.22	212.76
847.54	212.84
847.85	212.93
848.16	212.95
848.48	212.89
848.79	213.02
849.10	213.10
849.42	213.09
849.73	212.74
850.04	212.70
850.36	212.53
850.67	212.59
850.98	212.59
851.30	212.66
851.61	212.60
851.92	212.60
852.23	212.73
852.55	212.77
852.86	212.85
853.17	212.88
853.49	213.00
853.80	213.03
854.11	213.00
854.42	213.04
854.74	212.91
855.05	212.91
855.36	212.82
855.67	212.79
855.99	212.79
856.30	213.30
856.61	213.28
856.92	213.32
857.23	213.30
857.55	213.20
857.86	213.07
858.17	213.14
858.48	213.10
858.79	212.98
859.11	212.94
859.42	212.82
859.73	212.76
860.04	212.75
860.35	212.65
860.66	212.55
860.98	212.51
861.29	212.62
861.60	212.58
861.91	212.56
862.22	212.48
862.53	212.47
862.84	211.99
863.16	212.01
863.47	211.99
863.78	211.98
864.09	212.05
864.40	212.14
864.71	212.10
865.02	212.10
865.33	212.10
865.64	212.01
865.95	212.05
866.27	212.25
866.58	212.18
866.89	212.21
867.20	212.21
867.51	212.15
867.82	212.11
868.13	212.27
868.44	212.21
868.75	212.35
869.06	212.38
869.37	212.40
869.68	212.34
869.99	212.38
870.30	212.44
870.61	212.50
870.92	212.50
871.23	212.52
871.54	212.58
871.85	212.65
872.16	212.76
872.47	212.71
872.78	212.52
873.09	212.56
873.40	212.56
873.71	212.58
874.02	212.60
874.33	212.49
874.64	212.41
874.95	212.45
875.26	212.31
875.56	212.25
875.87	212.21
876.18	212.23
876.49	212.55
876.80	212.51
877.11	212.43
877.42	212.34
877.73	212.33
878.04	212.24
878.35	212.26
878.66	212.22
878.96	212.24
879.27	212.24
879.58	212.23
879.89	212.19
880.20	212.33
880.51	212.37
880.82	212.44
881.12	212.46
881.43	212.36
881.74	212.34
882.05	212.30
882.36	212.36
882.67	212.33
882.97	211.98
883.28	211.85
883.59	211.83
883.90	211.93
884.21	212.02
884.51	211.99
884.82	211.92
885.13	211.90
885.44	211.92
885.74	211.90
886.05	211.87
886.36	211.94
886.67	211.84
886.98	212.01
887.28	212.11
887.59	212.07
887.90	212.10
888.20	212.06
888.51	212.16
888.82	212.02
889.13	212.09
889.43	212.36
889.74	212.49
890.05	212.56
890.35	212.53
890.66	212.41
890.97	212.45
891.28	212.42
891.58	212.41
891.89	212.40
892.20	212.35
892.50	212.34
892.81	212.27
893.12	212.22
893.42	212.04
893.73	212.02
894.04	212.02
894.34	212.09
894.65	212.12
894.95	212.13
895.26	212.17
895.57	212.32
895.87	212.00
896.18	212.01
896.48	211.96
896.79	211.91
897.10	212.00
897.40	211.97
897.71	212.09
898.01	212.13
898.32	212.22
898.63	212.23
898.93	212.27
899.24	212.26
899.54	212.25
899.85	212.22
900.15	212.22
900.46	212.19
900.76	212.27
901.07	212.30
901.38	212.30
901.68	212.40
901.99	212.24
902.29	212.23
902.60	212.24
902.90	212.20
903.21	212.23
903.51	212.23
903.82	212.35
904.12	212.30
904.43	212.25
904.73	212.12
905.03	212.14
905.34	212.43
905.64	212.47
905.95	212.45
906.25	212.48
906.56	212.37
906.86	212.45
907.17	212.34
907.47	212.34
907.77	212.23
908.08	212.15
908.38	212.15
908.69	212.25
908.99	212.24
909.30	212.29
909.60	212.24
909.90	212.22
910.21	212.05
910.51	212.07
910.81	212.07
911.12	212.09
911.42	212.17
911.73	211.81
912.03	211.85
912.33	211.96
912.64	211.91
912.94	211.95
913.24	211.84
913.55	211.79
913.85	211.73
914.15	211.79
914.46	211.75
914.76	211.67
915.06	211.57
915.37	211.50
915.67	211.40
915.97	211.55
916.27	211.44
916.58	211.47
916.88	211.43
917.18	211.43
917.49	211.75
917.79	211.68
918.09	211.75
918.39	211.85
918.70	211.78
919.00	211.81
919.30	211.95
919.60	211.96
919.91	211.99
920.21	211.98
920.51	211.88
920.81	211.93
921.12	212.00
921.42	212.01
921.72	212.00
922.02	212.10
922.32	212.10
922.63	212.13
922.93	212.35
923.23	212.31
923.53	212.28
923.83	211.99
924.13	211.96
924.44	211.92
924.74	211.88
925.04	212.01
925.34	212.03
925.64	211.87
925.94	211.85
926.24	212.04
926.55	212.12
926.85	212.27
927.15	212.24
927.45	212.26
927.75	212.25
928.05	212.28
928.35	212.20
928.65	212.20
928.95	212.17
929.26	212.02
929.56	212.03
929.86	212.12
930.16	212.12
930.46	212.15
930.76	212.11
931.06	212.00
931.36	211.89
931.66	211.86
931.96	211.89
932.26	211.92
932.56	211.80
932.86	211.76
933.16	211.71
933.46	211.72
933.76	211.70
934.06	211.88
934.36	212.06
934.66	212.14
934.96	212.02
935.26	212.09
935.56	212.09
935.86	212.06
936.16	211.97
936.46	211.95
936.76	211.89
937.06	211.92
937.36	211.92
937.66	211.93
937.96	211.92
938.26	211.89
938.56	211.78
938.86	211.71
939.16	211.76
939.46	211.72
939.76	211.67
940.06	211.68
940.35	211.47
940.65	211.28
940.95	211.25
941.25	211.23
941.55	211.18
941.85	211.24
942.15	211.33
942.45	211.40
942.75	211.41
943.04	211.35
943.34	211.42
943.64	211.38
943.94	211.29
944.24	211.31
944.54	211.29
944.84	211.34
945.13	211.30
945.43	211.26
945.73	211.29
946.03	211.28
946.33	211.12
946.62	211.13
946.92	211.08
947.22	211.10
947.52	211.13
947.82	211.15
948.11	211.03
948.41	210.96
948.71	210.94
949.01	210.94
949.31	211.01
949.60	210.87
949.90	210.92
950.20	210.96
950.50	210.97
950.79	210.97
951.09	211.10
951.39	211.14
951.69	211.11
951.98	211.16
952.28	211.21
952.58	211.34
952.87	211.36
953.17	211.37
953.47	211.33
953.76	211.28
954.06	211.25
954.36	211.26
954.66	211.20
954.95	211.26
955.25	211.30
955.55	211.34
955.84	211.27
956.14	211.32
956.44	211.29
956.73	211.26
957.03	211.30
957.32	211.24
957.62	211.19
957.92	211.25
958.21	211.22
958.51	211.66
958.81	211.71
959.10	211.78
959.40	211.87
959.69	211.89
959.99	211.92
960.29	211.90
960.58	211.85
960.88	212.06
961.17	211.95
961.47	211.94
961.76	211.82
962.06	211.98
962.36	211.93
962.65	211.99
962.95	212.00
963.24	211.94
963.54	211.94
963.83	212.03
964.13	212.05
964.42	211.97
964.72	211.65
965.01	211.61
965.31	211.53
965.60	211.44
965.90	211.64
966.19	211.61
966.49	211.65
966.78	211.70
967.08	211.65
967.37	211.70
967.67	211.65
967.96	211.76
968.26	211.72
968.55	211.73
968.85	211.70
969.14	211.68
969.43	211.66
969.73	211.63
970.02	211.63
970.32	211.57
970.61	211.59
970.91	211.49
971.20	211.45
971.49	211.44
971.79	211.54
972.08	211.37
972.38	211.47
972.67	211.42
972.96	211.42
973.26	211.30
973.55	211.45
973.85	211.44
974.14	211.40
974.43	211.43
974.73	211.39
975.02	211.29
975.31	211.31
975.61	211.35
975.90	211.25
976.19	211.15
976.49	211.24
976.78	211.22
977.07	211.13
977.37	211.11
977.66	211.10
977.95	211.00
978.24	211.00
978.54	211.02
978.83	211.03
979.12	211.00
979.42	211.04
979.71	210.94
980.00	210.98
980.29	211.05
980.59	211.00
980.88	211.14
981.17	211.19
981.46	211.15
981.76	211.11
982.05	211.25
982.34	211.30
982.63	211.20
982.93	211.31
983.22	211.46
983.51	211.57
983.80	211.65
984.09	211.72
984.39	211.70
984.68	211.63
984.97	211.70
985.26	211.65
985.55	211.71
985.85	211.61
986.14	211.64
986.43	211.67
986.72	211.65
987.01	211.52
987.30	211.61
987.59	211.66
987.89	211.71
988.18	211.61
988.47	211.52
988.76	211.54
989.05	211.38
989.34	211.32
989.63	211.31
989.92	211.22
990.22	211.20
990.51	211.21
990.80	211.14
991.09	211.14
991.38	211.22
991.67	211.19
991.96	211.25
992.25	211.26
992.54	211.08
992.83	211.15
993.12	211.15
993.41	211.11
993.70	211.18
993.99	211.26
994.28	211.37
994.58	211.46
994.87	211.42
995.16	211.52
995.45	211.48
995.74	211.43
996.03	211.55
996.32	211.62
996.61	211.66
996.90	211.72
997.19	211.62
997.48	211.55
997.77	211.43
998.06	211.35
998.34	211.31
998.63	211.38
998.92	211.35
999.21	211.39
999.50	211.38
999.79	211.29
1000.08	211.29
1000.37	211.24
1000.66	211.20
1000.95	211.35
1001.24	211.28
1001.53	211.30
1001.82	211.30
1002.11	211.21
1002.40	211.25
1002.68	211.34
1002.97	211.48
1003.26	211.48
1003.55	211.46
1003.84	211.50
1004.13	211.62
1004.42	211.58
1004.71	211.52
1004.99	211.43
1005.28	211.55
1005.57	211.52
1005.86	211.45
1006.15	211.38
1006.44	211.37
1006.72	211.43
1007.01	211.39
1007.30	211.43
1007.59	211.42
1007.88	211.40
1008.17	211.38
1008.45	211.27
1008.74	211.09
1009.03	211.05
1009.32	211.08
1009.60	211.08
1009.89	211.10
1010.18	211.00
1010.47	211.00
1010.76	211.04
1011.04	211.07
1011.33	211.40
1011.62	211.43
1011.91	211.47
1012.19	211.50
1012.48	211.40
1012.77	211.40
1013.05	211.46
1013.34	211.35
1013.63	211.38
1013.92	211.33
1014.20	211.29
1014.49	211.30
1014.78	211.39
1015.06	211.23
1015.35	211.24
1015.64	211.31
1015.92	211.40
1016.21	211.43
1016.50	211.41
1016.78	211.47
1017.07	211.56
1017.36	211.09
1017.64	211.03
1017.93	211.16
1018.22	211.11
1018.50	211.17
1018.79	211.19
1019.08	211.02
1019.36	211.12
1019.65	211.01
1019.93	211.09
1020.22	211.18
1020.51	211.39
1020.79	211.33
1021.08	210.75
1021.36	210.55
1021.65	211.95
1021.94	209.90
1022.22	211.20
1022.51	209.40
1022.79	211.45
1023.08	211.75
1023.36	215.75
1023.65	210.70
>>>>>End Processed Spectral Data<<<<<
