SpectraSuite Data File
++++++++++++++++++++++++++++++++++++
Date: Mon Feb 25 17:05:33 EST 2013
User: group
Dark Spectrum Present: No
Reference Spectrum Present: No
Number of Sampled Component Spectra: 1
Spectrometers: USB2E7196
Integration Time (usec): 104000 (USB2E7196)
Spectra Averaged: 20 (USB2E7196)
Boxcar Smoothing: 10 (USB2E7196)
Correct for Electrical Dark: No (USB2E7196)
Strobe/Lamp Enabled: No (USB2E7196)
Correct for Detector Non-linearity: No (USB2E7196)
Correct for Stray Light: No (USB2E7196)
Number of Pixels in Processed Spectrum: 2048
>>>>>Begin Processed Spectral Data<<<<<
339.09	0.00
339.48	198.00
339.86	199.80
340.24	202.05
340.63	203.95
341.01	208.15
341.39	206.10
341.78	206.75
342.16	207.90
342.54	209.60
342.93	198.61
343.31	208.60
343.69	209.16
344.07	209.61
344.46	210.05
344.84	210.35
345.22	210.47
345.60	210.66
345.99	210.90
346.37	211.02
346.75	211.02
347.13	211.03
347.52	211.02
347.90	211.16
348.28	211.18
348.66	211.19
349.05	210.88
349.43	210.87
349.81	210.88
350.19	210.84
350.57	210.85
350.96	210.91
351.34	210.95
351.72	211.05
352.10	211.20
352.48	211.17
352.87	211.19
353.25	211.24
353.63	211.28
354.01	211.28
354.39	211.41
354.77	211.57
355.15	211.80
355.54	211.76
355.92	211.71
356.30	211.77
356.68	212.06
357.06	212.20
357.44	212.26
357.82	212.25
358.20	212.32
358.58	212.33
358.97	212.36
359.35	212.54
359.73	212.67
360.11	212.70
360.49	212.81
360.87	212.89
361.25	212.94
361.63	213.09
362.01	213.14
362.39	213.10
362.77	213.09
363.15	213.04
363.53	213.13
363.91	213.14
364.29	213.17
364.67	212.86
365.05	212.85
365.43	212.84
365.81	212.88
366.19	213.04
366.57	213.17
366.95	213.23
367.33	213.09
367.71	213.05
368.09	213.01
368.47	213.05
368.85	212.99
369.23	213.06
369.61	212.91
369.99	213.00
370.37	212.98
370.75	213.15
371.13	213.08
371.51	213.00
371.89	212.95
372.27	212.91
372.65	212.96
373.03	212.93
373.41	212.85
373.78	212.80
374.16	212.57
374.54	212.56
374.92	212.37
375.30	212.35
375.68	212.24
376.06	212.25
376.44	212.08
376.82	212.13
377.19	212.03
377.57	212.02
377.95	211.82
378.33	211.84
378.71	211.54
379.09	211.55
379.47	211.51
379.84	211.48
380.22	211.39
380.60	211.25
380.98	211.17
381.36	211.16
381.73	211.08
382.11	211.13
382.49	211.01
382.87	211.07
383.25	210.99
383.62	211.32
384.00	211.21
384.38	211.20
384.76	211.16
385.13	211.23
385.51	211.18
385.89	211.15
386.27	211.06
386.64	211.11
387.02	211.00
387.40	211.00
387.78	210.97
388.15	211.01
388.53	210.97
388.91	211.00
389.29	210.96
389.66	210.99
390.04	210.90
390.42	210.89
390.79	210.83
391.17	210.83
391.55	210.45
391.92	210.48
392.30	210.56
392.68	210.43
393.05	210.45
393.43	210.45
393.81	210.43
394.18	210.41
394.56	210.40
394.94	210.47
395.31	210.41
395.69	210.49
396.06	210.47
396.44	210.54
396.82	210.54
397.19	210.70
397.57	210.73
397.95	210.81
398.32	210.76
398.70	210.78
399.07	210.85
399.45	210.81
399.82	210.78
400.20	210.74
400.58	210.87
400.95	210.66
401.33	210.81
401.70	211.10
402.08	211.11
402.45	211.15
402.83	211.26
403.20	211.35
403.58	211.35
403.95	211.51
404.33	211.56
404.71	211.64
405.08	211.81
405.46	211.91
405.83	212.02
406.21	212.10
406.58	212.28
406.96	212.40
407.33	212.63
407.70	212.75
408.08	213.14
408.45	213.32
408.83	213.62
409.20	213.78
409.58	213.81
409.95	214.09
410.33	214.38
410.70	214.59
411.08	214.83
411.45	215.16
411.82	215.38
412.20	215.85
412.57	216.36
412.95	216.51
413.32	216.91
413.69	217.37
414.07	217.93
414.44	218.43
414.82	219.00
415.19	219.63
415.56	220.34
415.94	220.90
416.31	221.74
416.68	222.53
417.06	223.42
417.43	224.39
417.81	225.39
418.18	226.34
418.55	227.40
418.93	228.56
419.30	229.78
419.67	231.12
420.04	232.36
420.42	233.68
420.79	235.60
421.16	237.22
421.54	238.98
421.91	240.72
422.28	242.52
422.66	244.39
423.03	246.35
423.40	248.27
423.77	250.30
424.15	252.27
424.52	254.45
424.89	256.85
425.26	259.04
425.64	261.30
426.01	263.80
426.38	266.30
426.75	268.96
427.13	271.63
427.50	274.32
427.87	277.29
428.24	280.12
428.61	282.65
428.99	285.80
429.36	289.12
429.73	292.45
430.10	295.82
430.47	299.26
430.85	302.73
431.22	306.52
431.59	310.61
431.96	314.45
432.33	318.72
432.70	322.72
433.08	327.56
433.45	331.99
433.82	336.43
434.19	341.55
434.56	346.51
434.93	351.24
435.30	356.10
435.68	361.35
436.05	366.77
436.42	371.98
436.79	376.73
437.16	381.87
437.53	387.18
437.90	392.55
438.27	397.88
438.64	403.33
439.01	408.53
439.38	412.99
439.75	417.41
440.13	422.53
440.50	427.34
440.87	431.27
441.24	435.42
441.61	439.93
441.98	443.40
442.35	447.25
442.72	451.26
443.09	455.20
443.46	457.63
443.83	459.21
444.20	460.89
444.57	463.04
444.94	464.22
445.31	465.61
445.68	466.94
446.05	467.60
446.42	467.43
446.79	467.14
447.16	466.78
447.53	466.70
447.90	464.91
448.27	463.21
448.64	460.77
449.01	458.98
449.37	455.81
449.74	452.60
450.11	449.07
450.48	444.83
450.85	440.36
451.22	436.70
451.59	433.34
451.96	429.83
452.33	425.18
452.70	420.95
453.07	415.87
453.43	410.56
453.80	405.59
454.17	400.86
454.54	396.26
454.91	391.44
455.28	386.61
455.65	382.21
456.02	378.23
456.38	374.55
456.75	370.09
457.12	366.16
457.49	362.25
457.86	358.20
458.23	355.14
458.59	351.64
458.96	348.02
459.33	344.60
459.70	341.47
460.07	339.07
460.43	336.20
460.80	333.44
461.17	331.06
461.54	328.63
461.91	326.32
462.27	323.95
462.64	321.81
463.01	319.60
463.38	317.61
463.74	315.01
464.11	313.00
464.48	311.23
464.85	309.35
465.21	308.02
465.58	306.60
465.95	304.54
466.32	303.09
466.68	301.55
467.05	300.15
467.42	298.51
467.78	296.77
468.15	295.32
468.52	294.19
468.88	292.70
469.25	291.41
469.62	290.35
469.98	289.19
470.35	288.14
470.72	287.15
471.08	285.80
471.45	284.99
471.82	284.03
472.18	283.01
472.55	282.25
472.92	281.32
473.28	280.45
473.65	279.79
474.02	279.00
474.38	278.47
474.75	277.86
475.11	277.30
475.48	276.99
475.85	276.44
476.21	276.00
476.58	275.59
476.94	275.20
477.31	274.80
477.67	274.46
478.04	274.20
478.41	273.97
478.77	274.21
479.14	273.83
479.50	273.70
479.87	273.57
480.23	273.50
480.60	273.36
480.96	273.31
481.33	273.44
481.69	273.39
482.06	273.33
482.42	273.40
482.79	273.51
483.15	273.51
483.52	273.75
483.88	273.89
484.25	274.08
484.61	274.29
484.98	274.35
485.34	274.75
485.71	275.07
486.07	275.36
486.44	275.34
486.80	275.75
487.17	276.11
487.53	276.65
487.90	277.22
488.26	277.83
488.62	278.49
488.99	279.02
489.35	279.74
489.72	280.38
490.08	281.05
490.44	281.67
490.81	282.39
491.17	283.05
491.54	283.80
491.90	284.71
492.26	285.61
492.63	286.58
492.99	287.38
493.36	288.37
493.72	289.43
494.08	290.46
494.45	291.51
494.81	292.72
495.17	293.75
495.54	294.83
495.90	295.89
496.26	297.02
496.63	298.23
496.99	299.38
497.35	300.63
497.72	301.93
498.08	303.25
498.44	304.54
498.80	306.00
499.17	307.39
499.53	308.58
499.89	310.00
500.26	311.41
500.62	312.73
500.98	314.13
501.34	315.44
501.71	316.98
502.07	318.38
502.43	319.67
502.79	321.04
503.16	322.31
503.52	323.65
503.88	324.77
504.24	325.99
504.60	327.27
504.97	328.75
505.33	329.95
505.69	331.40
506.05	332.72
506.41	333.95
506.78	335.10
507.14	336.27
507.50	337.44
507.86	338.70
508.22	339.95
508.59	340.99
508.95	342.22
509.31	343.39
509.67	344.55
510.03	345.74
510.39	346.86
510.75	348.04
511.12	349.21
511.48	350.38
511.84	351.44
512.20	352.52
512.56	353.41
512.92	354.52
513.28	355.44
513.64	356.43
514.00	357.47
514.37	358.49
514.73	359.66
515.09	360.64
515.45	361.47
515.81	362.49
516.17	363.50
516.53	364.42
516.89	365.11
517.25	365.91
517.61	366.90
517.97	367.69
518.33	368.68
518.69	369.58
519.05	370.76
519.41	371.83
519.77	373.07
520.13	374.14
520.49	375.15
520.85	376.24
521.21	377.36
521.57	378.49
521.93	379.59
522.29	380.74
522.65	381.82
523.01	383.11
523.37	384.21
523.73	385.53
524.09	386.76
524.45	388.17
524.81	389.70
525.17	391.24
525.53	392.89
525.89	394.39
526.25	396.02
526.61	397.39
526.97	398.89
527.33	400.37
527.68	402.45
528.04	404.13
528.40	405.80
528.76	407.51
529.12	409.35
529.48	411.37
529.84	413.20
530.20	415.25
530.56	417.30
530.91	419.54
531.27	421.64
531.63	423.84
531.99	426.02
532.35	428.19
532.71	430.21
533.07	432.53
533.42	435.28
533.78	437.69
534.14	440.20
534.50	442.62
534.86	445.19
535.21	447.07
535.57	449.70
535.93	452.21
536.29	454.93
536.65	457.49
537.00	459.93
537.36	462.65
537.72	465.25
538.08	467.95
538.44	470.53
538.79	473.17
539.15	475.90
539.51	478.70
539.87	481.46
540.22	484.28
540.58	487.20
540.94	489.61
541.29	492.19
541.65	494.92
542.01	497.82
542.37	500.58
542.72	503.60
543.08	506.30
543.44	509.31
543.79	512.01
544.15	514.75
544.51	517.84
544.87	520.69
545.22	523.50
545.58	526.36
545.94	529.15
546.29	531.91
546.65	534.68
547.01	537.22
547.36	540.01
547.72	542.79
548.07	545.50
548.43	548.03
548.79	550.62
549.14	553.26
549.50	555.89
549.86	558.27
550.21	560.81
550.57	563.48
550.92	565.86
551.28	568.25
551.64	570.82
551.99	573.28
552.35	575.47
552.70	577.81
553.06	580.03
553.41	582.40
553.77	584.85
554.13	587.11
554.48	589.78
554.84	592.12
555.19	594.38
555.55	596.79
555.90	599.10
556.26	601.31
556.61	603.42
556.97	605.34
557.32	607.42
557.68	609.44
558.03	611.43
558.39	613.30
558.74	615.45
559.10	617.30
559.45	619.28
559.81	621.47
560.16	623.37
560.52	625.25
560.87	627.20
561.23	628.74
561.58	630.74
561.94	632.24
562.29	633.83
562.64	635.39
563.00	636.65
563.35	638.33
563.71	640.11
564.06	641.67
564.42	643.30
564.77	644.95
565.12	646.52
565.48	648.23
565.83	649.97
566.19	651.47
566.54	652.95
566.89	654.06
567.25	655.55
567.60	657.02
567.96	658.64
568.31	659.95
568.66	661.49
569.02	662.40
569.37	663.31
569.72	664.30
570.08	665.24
570.43	666.13
570.78	666.77
571.14	667.26
571.49	667.85
571.84	668.64
572.20	669.13
572.55	669.72
572.90	669.79
573.26	669.97
573.61	670.08
573.96	670.34
574.31	670.44
574.67	670.32
575.02	670.11
575.37	669.77
575.72	669.45
576.08	669.30
576.43	669.11
576.78	669.16
577.13	669.15
577.49	669.11
577.84	669.04
578.19	668.99
578.54	669.16
578.90	669.20
579.25	668.98
579.60	668.71
579.95	668.39
580.30	668.36
580.66	668.33
581.01	668.04
581.36	667.63
581.71	667.58
582.06	667.34
582.42	667.13
582.77	666.72
583.12	666.41
583.47	666.07
583.82	665.80
584.17	665.43
584.53	665.28
584.88	664.84
585.23	664.55
585.58	664.11
585.93	663.55
586.28	663.02
586.63	662.60
586.98	662.27
587.34	661.88
587.69	661.32
588.04	660.72
588.39	660.39
588.74	659.79
589.09	659.12
589.44	658.42
589.79	657.74
590.14	657.30
590.49	656.57
590.84	655.78
591.19	655.34
591.54	654.53
591.89	653.28
592.25	652.80
592.60	651.65
592.95	650.74
593.30	649.87
593.65	649.00
594.00	647.90
594.35	647.68
594.70	646.54
595.05	645.50
595.40	644.53
595.75	643.39
596.10	642.42
596.45	641.48
596.80	640.64
597.15	639.95
597.50	638.85
597.85	638.18
598.19	637.20
598.54	636.15
598.89	635.28
599.24	634.66
599.59	633.48
599.94	632.79
600.29	631.91
600.64	630.94
600.99	629.99
601.34	629.00
601.69	627.42
602.04	626.52
602.39	625.57
602.74	624.73
603.08	623.98
603.43	623.42
603.78	622.52
604.13	621.48
604.48	620.40
604.83	619.72
605.18	618.85
605.53	617.95
605.87	616.89
606.22	616.09
606.57	614.97
606.92	613.87
607.27	612.64
607.62	611.59
607.96	610.67
608.31	609.91
608.66	608.92
609.01	607.67
609.36	606.53
609.70	605.48
610.05	604.04
610.40	602.67
610.75	601.16
611.10	599.98
611.44	598.50
611.79	597.03
612.14	595.41
612.49	593.64
612.83	592.33
613.18	590.84
613.53	589.07
613.88	587.36
614.22	585.80
614.57	584.27
614.92	582.63
615.27	580.85
615.61	578.89
615.96	577.38
616.31	575.82
616.65	574.42
617.00	572.66
617.35	571.21
617.70	569.48
618.04	567.71
618.39	565.61
618.74	564.09
619.08	562.35
619.43	560.59
619.78	558.92
620.12	557.17
620.47	555.48
620.82	553.71
621.16	551.94
621.51	550.31
621.85	548.58
622.20	546.82
622.55	545.10
622.89	543.39
623.24	541.59
623.59	539.74
623.93	537.92
624.28	536.35
624.62	534.98
624.97	533.49
625.32	531.81
625.66	530.29
626.01	528.61
626.35	527.01
626.70	525.33
627.04	523.84
627.39	521.96
627.73	520.40
628.08	518.86
628.43	517.22
628.77	515.40
629.12	513.68
629.46	512.13
629.81	510.40
630.15	508.73
630.50	506.91
630.84	505.19
631.19	503.31
631.53	501.62
631.88	499.33
632.22	497.44
632.57	495.90
632.91	494.21
633.26	492.57
633.60	490.90
633.95	489.41
634.29	487.65
634.64	486.22
634.98	484.31
635.32	482.81
635.67	481.39
636.01	479.90
636.36	478.36
636.70	476.81
637.05	475.25
637.39	473.66
637.73	472.20
638.08	470.96
638.42	469.56
638.77	468.06
639.11	466.63
639.45	465.01
639.80	463.29
640.14	461.67
640.49	459.97
640.83	458.32
641.17	456.63
641.52	454.85
641.86	453.15
642.20	451.66
642.55	449.78
642.89	448.00
643.23	446.24
643.58	444.77
643.92	442.96
644.26	441.34
644.61	439.70
644.95	438.17
645.29	436.39
645.64	434.84
645.98	433.14
646.32	431.60
646.66	429.95
647.01	428.30
647.35	426.76
647.69	425.21
648.04	423.64
648.38	422.09
648.72	420.56
649.06	418.93
649.41	417.33
649.75	415.87
650.09	414.40
650.43	412.84
650.78	411.09
651.12	409.58
651.46	408.10
651.80	406.53
652.14	404.93
652.49	403.49
652.83	401.76
653.17	400.17
653.51	398.51
653.85	396.97
654.20	395.61
654.54	394.09
654.88	392.44
655.22	391.06
655.56	389.45
655.90	388.03
656.25	386.53
656.59	385.02
656.93	383.51
657.27	382.14
657.61	380.66
657.95	379.34
658.29	377.90
658.64	376.49
658.98	375.16
659.32	373.48
659.66	371.96
660.00	370.50
660.34	368.98
660.68	367.55
661.02	366.16
661.36	364.57
661.70	363.01
662.05	361.72
662.39	360.36
662.73	359.18
663.07	357.87
663.41	356.57
663.75	355.27
664.09	353.98
664.43	352.54
664.77	351.29
665.11	349.85
665.45	348.48
665.79	347.13
666.13	345.74
666.47	344.70
666.81	343.47
667.15	342.29
667.49	341.28
667.83	340.24
668.17	339.09
668.51	338.12
668.85	337.24
669.19	336.32
669.53	335.08
669.87	333.84
670.21	332.74
670.55	331.60
670.89	330.67
671.23	329.59
671.57	328.58
671.91	327.55
672.25	326.48
672.58	325.64
672.92	324.63
673.26	323.77
673.60	322.73
673.94	321.70
674.28	320.77
674.62	319.70
674.96	318.66
675.30	317.70
675.64	316.65
675.97	315.59
676.31	314.52
676.65	313.56
676.99	312.92
677.33	311.89
677.67	311.04
678.01	309.99
678.34	309.17
678.68	308.29
679.02	307.27
679.36	306.42
679.70	305.34
680.04	304.54
680.37	303.48
680.71	302.65
681.05	301.85
681.39	301.00
681.73	300.22
682.06	299.30
682.40	298.58
682.74	297.77
683.08	297.08
683.42	296.24
683.75	295.59
684.09	294.60
684.43	293.87
684.77	293.02
685.10	292.23
685.44	291.35
685.78	290.54
686.12	289.85
686.45	289.12
686.79	288.49
687.13	287.69
687.46	287.08
687.80	286.43
688.14	285.66
688.48	285.00
688.81	284.23
689.15	283.72
689.49	282.88
689.82	282.28
690.16	281.38
690.50	280.61
690.83	279.77
691.17	278.94
691.51	278.11
691.84	277.45
692.18	276.82
692.52	276.21
692.85	275.56
693.19	275.00
693.52	274.36
693.86	273.55
694.20	272.91
694.53	272.24
694.87	271.52
695.21	270.87
695.54	270.19
695.88	269.51
696.21	268.75
696.55	268.25
696.88	267.56
697.22	267.00
697.56	266.54
697.89	265.97
698.23	265.47
698.56	264.93
698.90	264.46
699.23	263.83
699.57	263.25
699.90	262.63
700.24	261.99
700.58	261.47
700.91	261.04
701.25	260.69
701.58	260.28
701.92	259.77
702.25	259.25
702.59	258.71
702.92	258.22
703.26	257.72
703.59	257.19
703.93	257.02
704.26	256.61
704.60	256.13
704.93	255.66
705.26	255.16
705.60	254.87
705.93	254.30
706.27	254.00
706.60	253.66
706.94	253.42
707.27	252.92
707.61	252.47
707.94	252.08
708.27	251.46
708.61	250.91
708.94	250.50
709.28	250.12
709.61	249.64
709.94	249.27
710.28	248.85
710.61	248.49
710.95	247.69
711.28	247.51
711.61	247.07
711.95	246.74
712.28	246.30
712.61	245.82
712.95	245.67
713.28	245.39
713.61	245.01
713.95	244.44
714.28	244.16
714.61	243.73
714.95	243.31
715.28	242.91
715.61	242.58
715.95	242.24
716.28	241.84
716.61	241.63
716.95	241.30
717.28	241.03
717.61	240.70
717.94	240.50
718.28	239.97
718.61	239.66
718.94	239.31
719.27	239.06
719.61	238.83
719.94	238.38
720.27	237.95
720.60	237.59
720.94	237.42
721.27	237.15
721.60	236.98
721.93	236.65
722.27	236.55
722.60	236.31
722.93	236.07
723.26	235.92
723.59	235.53
723.93	235.27
724.26	235.00
724.59	234.71
724.92	234.46
725.25	234.25
725.59	234.02
725.92	233.91
726.25	233.67
726.58	233.43
726.91	233.38
727.24	233.19
727.57	233.06
727.91	232.70
728.24	232.52
728.57	232.25
728.90	232.21
729.23	231.95
729.56	231.91
729.89	231.65
730.22	231.44
730.55	231.30
730.89	231.11
731.22	230.97
731.55	230.82
731.88	230.71
732.21	230.51
732.54	230.24
732.87	229.98
733.20	229.82
733.53	229.70
733.86	229.36
734.19	229.13
734.52	229.00
734.85	229.15
735.18	228.93
735.51	228.90
735.84	228.70
736.17	228.59
736.50	228.17
736.83	228.44
737.16	228.25
737.49	228.13
737.82	227.90
738.15	227.75
738.48	227.61
738.81	227.38
739.14	227.14
739.47	227.05
739.80	226.90
740.13	226.81
740.46	226.60
740.79	226.43
741.12	226.26
741.45	226.00
741.78	225.61
742.11	225.52
742.44	225.32
742.77	225.20
743.10	224.95
743.43	224.87
743.75	224.38
744.08	224.69
744.41	224.49
744.74	224.37
745.07	224.15
745.40	224.06
745.73	224.10
746.06	224.05
746.39	223.95
746.71	223.81
747.04	223.65
747.37	223.49
747.70	223.43
748.03	223.30
748.36	223.26
748.68	223.09
749.01	222.89
749.34	222.73
749.67	222.65
750.00	222.69
750.33	222.89
750.65	222.80
750.98	222.26
751.31	222.09
751.64	221.98
751.97	222.09
752.29	221.93
752.62	221.66
752.95	221.48
753.28	221.40
753.60	221.33
753.93	221.27
754.26	221.19
754.59	221.00
754.91	220.89
755.24	220.72
755.57	220.72
755.90	220.62
756.22	220.51
756.55	220.32
756.88	220.12
757.20	219.78
757.53	219.54
757.86	219.47
758.19	219.46
758.51	219.36
758.84	219.10
759.17	218.96
759.49	218.86
759.82	218.96
760.15	218.90
760.47	218.80
760.80	218.67
761.13	218.65
761.45	218.62
761.78	218.53
762.11	218.46
762.43	218.40
762.76	218.36
763.08	218.36
763.41	218.23
763.74	218.13
764.06	217.99
764.39	217.97
764.71	217.81
765.04	217.72
765.37	217.71
765.69	217.64
766.02	217.63
766.34	217.54
766.67	217.34
767.00	217.35
767.32	217.42
767.65	217.52
767.97	217.40
768.30	217.27
768.62	217.25
768.95	217.11
769.27	217.00
769.60	216.99
769.92	216.89
770.25	216.84
770.57	216.70
770.90	216.60
771.22	216.45
771.55	216.45
771.87	216.48
772.20	216.38
772.52	216.64
772.85	217.01
773.17	216.95
773.50	216.91
773.82	216.73
774.15	216.52
774.47	216.29
774.80	216.22
775.12	216.19
775.45	216.09
775.77	216.08
776.09	215.99
776.42	215.94
776.74	215.97
777.07	215.93
777.39	215.99
777.72	215.99
778.04	216.04
778.36	215.92
778.69	215.88
779.01	215.81
779.33	215.43
779.66	214.92
779.98	214.83
780.31	214.76
780.63	214.79
780.95	214.80
781.28	214.75
781.60	214.65
781.92	214.61
782.25	214.61
782.57	214.53
782.89	214.46
783.22	214.32
783.54	214.19
783.86	214.18
784.19	214.08
784.51	214.16
784.83	214.06
785.16	214.06
785.48	213.99
785.80	214.00
786.12	214.05
786.45	214.05
786.77	214.06
787.09	214.07
787.42	214.02
787.74	213.97
788.06	213.96
788.38	213.93
788.71	213.91
789.03	213.86
789.35	213.91
789.67	213.94
789.99	213.94
790.32	213.87
790.64	213.92
790.96	214.22
791.28	214.02
791.61	214.05
791.93	214.09
792.25	214.07
792.57	214.34
792.89	214.23
793.21	214.20
793.54	214.15
793.86	214.09
794.18	214.04
794.50	213.98
794.82	213.99
795.14	214.01
795.47	214.10
795.79	214.11
796.11	214.03
796.43	213.93
796.75	213.95
797.07	214.00
797.39	213.95
797.71	213.65
798.04	213.67
798.36	213.69
798.68	213.67
799.00	213.67
799.32	213.41
799.64	213.53
799.96	213.52
800.28	213.63
800.60	213.59
800.92	213.59
801.24	213.53
801.56	213.48
801.89	213.41
802.21	213.45
802.53	213.36
802.85	213.49
803.17	213.68
803.49	213.64
803.81	213.65
804.13	213.62
804.45	213.53
804.77	213.62
805.09	213.60
805.41	213.57
805.73	213.50
806.05	213.41
806.37	213.34
806.69	213.32
807.01	213.31
807.33	213.36
807.65	213.29
807.97	213.48
808.28	213.50
808.60	213.56
808.92	213.40
809.24	213.63
809.56	213.48
809.88	213.40
810.20	213.36
810.52	213.35
810.84	213.35
811.16	213.36
811.48	213.30
811.80	213.44
812.12	213.42
812.43	213.43
812.75	213.49
813.07	213.41
813.39	213.40
813.71	213.32
814.03	213.32
814.35	213.31
814.67	213.25
814.98	213.21
815.30	213.17
815.62	213.12
815.94	212.84
816.26	212.94
816.58	212.89
816.89	212.90
817.21	212.84
817.53	212.82
817.85	212.77
818.17	212.75
818.48	212.58
818.80	212.59
819.12	212.56
819.44	212.47
819.76	212.45
820.07	212.37
820.39	212.36
820.71	212.33
821.03	212.35
821.34	212.19
821.66	212.29
821.98	212.29
822.30	212.35
822.61	212.52
822.93	212.40
823.25	212.36
823.57	212.34
823.88	212.41
824.20	212.38
824.52	212.49
824.83	212.46
825.15	212.39
825.47	212.30
825.79	212.33
826.10	212.28
826.42	212.28
826.74	212.33
827.05	212.30
827.37	212.32
827.69	212.26
828.00	212.28
828.32	212.20
828.64	212.18
828.95	212.27
829.27	212.23
829.58	212.24
829.90	212.26
830.22	212.32
830.53	212.15
830.85	212.10
831.17	211.95
831.48	211.96
831.80	211.99
832.11	211.99
832.43	211.94
832.75	211.98
833.06	212.18
833.38	212.14
833.69	212.05
834.01	211.99
834.32	211.92
834.64	211.89
834.96	211.84
835.27	211.79
835.59	211.75
835.90	211.69
836.22	211.65
836.53	211.60
836.85	211.53
837.16	211.96
837.48	211.96
837.79	212.13
838.11	212.16
838.42	212.15
838.74	212.25
839.05	212.19
839.37	212.10
839.68	211.90
840.00	211.87
840.31	211.99
840.63	212.00
840.94	212.04
841.26	211.97
841.57	211.94
841.88	212.03
842.20	211.91
842.51	211.85
842.83	211.87
843.14	212.12
843.46	212.11
843.77	211.80
844.08	211.82
844.40	211.69
844.71	211.63
845.03	211.61
845.34	211.49
845.65	211.54
845.97	211.56
846.28	211.58
846.60	211.57
846.91	211.50
847.22	211.45
847.54	211.46
847.85	211.50
848.16	211.58
848.48	211.44
848.79	211.58
849.10	211.57
849.42	211.60
849.73	211.25
850.04	211.20
850.36	211.08
850.67	211.11
850.98	211.08
851.30	211.13
851.61	211.12
851.92	211.14
852.23	211.17
852.55	211.22
852.86	211.24
853.17	211.30
853.49	211.40
853.80	211.47
854.11	211.54
854.42	211.59
854.74	211.49
855.05	211.46
855.36	211.19
855.67	211.24
855.99	211.28
856.30	211.78
856.61	211.79
856.92	211.83
857.23	211.80
857.55	211.77
857.86	211.70
858.17	211.77
858.48	211.70
858.79	211.66
859.11	211.65
859.42	211.55
859.73	211.50
860.04	211.45
860.35	211.41
860.66	211.30
860.98	211.28
861.29	211.35
861.60	211.38
861.91	211.56
862.22	211.50
862.53	211.41
862.84	210.90
863.16	210.99
863.47	210.99
863.78	210.97
864.09	211.00
864.40	210.99
864.71	210.98
865.02	211.02
865.33	211.03
865.64	210.96
865.95	210.97
866.27	211.18
866.58	211.16
866.89	211.22
867.20	211.20
867.51	211.11
867.82	211.05
868.13	211.19
868.44	211.07
868.75	211.16
869.06	211.18
869.37	211.28
869.68	211.26
869.99	211.27
870.30	211.31
870.61	211.39
870.92	211.41
871.23	211.41
871.54	211.45
871.85	211.54
872.16	211.58
872.47	211.60
872.78	211.44
873.09	211.50
873.40	211.33
873.71	211.36
874.02	211.41
874.33	211.37
874.64	211.33
874.95	211.42
875.26	211.28
875.56	211.29
875.87	211.26
876.18	211.20
876.49	211.51
876.80	211.50
877.11	211.44
877.42	211.48
877.73	211.44
878.04	211.43
878.35	211.40
878.66	211.40
878.96	211.41
879.27	211.39
879.58	211.36
879.89	211.40
880.20	211.44
880.51	211.42
880.82	211.47
881.12	211.39
881.43	211.37
881.74	211.31
882.05	211.24
882.36	211.28
882.67	211.31
882.97	210.99
883.28	210.96
883.59	210.92
883.90	210.96
884.21	211.05
884.51	211.05
884.82	211.05
885.13	211.07
885.44	211.05
885.74	211.02
886.05	210.98
886.36	211.00
886.67	210.98
886.98	211.18
887.28	211.20
887.59	211.20
887.90	211.15
888.20	211.19
888.51	211.38
888.82	211.33
889.13	211.28
889.43	211.60
889.74	211.57
890.05	211.57
890.35	211.44
890.66	211.41
890.97	211.33
891.28	211.20
891.58	211.25
891.89	211.21
892.20	211.15
892.50	211.14
892.81	211.14
893.12	211.11
893.42	210.91
893.73	210.91
894.04	210.90
894.34	210.92
894.65	210.95
894.95	210.82
895.26	210.79
895.57	210.98
895.87	210.63
896.18	210.65
896.48	210.67
896.79	210.66
897.10	210.69
897.40	210.75
897.71	210.89
898.01	210.78
898.32	210.87
898.63	210.84
898.93	210.84
899.24	210.83
899.54	210.79
899.85	210.76
900.15	210.71
900.46	210.75
900.76	210.80
901.07	210.71
901.38	210.67
901.68	210.69
901.99	210.57
902.29	210.52
902.60	210.51
902.90	210.45
903.21	210.47
903.51	210.36
903.82	210.42
904.12	210.38
904.43	210.41
904.73	210.43
905.03	210.50
905.34	210.79
905.64	210.76
905.95	210.75
906.25	210.83
906.56	210.83
906.86	210.86
907.17	210.82
907.47	210.94
907.77	210.95
908.08	210.92
908.38	210.96
908.69	211.00
908.99	211.05
909.30	211.10
909.60	211.09
909.90	211.15
910.21	211.07
910.51	210.99
910.81	211.01
911.12	210.96
911.42	210.99
911.73	210.66
912.03	210.74
912.33	210.78
912.64	210.72
912.94	210.75
913.24	210.59
913.55	210.59
913.85	210.53
914.15	210.54
914.46	210.53
914.76	210.38
915.06	210.38
915.37	210.34
915.67	210.26
915.97	210.25
916.27	210.07
916.58	210.03
916.88	210.03
917.18	209.96
917.49	210.15
917.79	210.13
918.09	210.21
918.39	210.27
918.70	210.28
919.00	210.34
919.30	210.55
919.60	210.63
919.91	210.59
920.21	210.60
920.51	210.62
920.81	210.64
921.12	210.79
921.42	210.72
921.72	210.74
922.02	210.79
922.32	210.88
922.63	211.02
922.93	211.16
923.23	211.20
923.53	211.20
923.83	211.02
924.13	211.05
924.44	210.98
924.74	211.03
925.04	211.21
925.34	211.17
925.64	210.91
925.94	210.87
926.24	211.08
926.55	211.09
926.85	211.15
927.15	211.18
927.45	211.17
927.75	211.31
928.05	211.31
928.35	211.26
928.65	211.32
928.95	211.35
929.26	211.30
929.56	211.33
929.86	211.40
930.16	211.41
930.46	211.38
930.76	211.40
931.06	211.26
931.36	211.12
931.66	211.19
931.96	211.22
932.26	211.28
932.56	211.10
932.86	211.09
933.16	211.02
933.46	211.00
933.76	210.90
934.06	210.96
934.36	211.17
934.66	211.20
934.96	211.10
935.26	211.11
935.56	211.19
935.86	211.12
936.16	211.10
936.46	210.99
936.76	210.95
937.06	210.90
937.36	210.93
937.66	210.85
937.96	210.82
938.26	210.80
938.56	210.80
938.86	210.79
939.16	210.96
939.46	210.97
939.76	210.94
940.06	210.94
940.35	210.82
940.65	210.55
940.95	210.58
941.25	210.57
941.55	210.54
941.85	210.47
942.15	210.50
942.45	210.59
942.75	210.69
943.04	210.75
943.34	210.81
943.64	210.78
943.94	210.74
944.24	210.73
944.54	210.70
944.84	210.64
945.13	210.61
945.43	210.49
945.73	210.50
946.03	210.51
946.33	210.50
946.62	210.43
946.92	210.46
947.22	210.55
947.52	210.53
947.82	210.55
948.11	210.50
948.41	210.50
948.71	210.35
949.01	210.32
949.31	210.32
949.60	210.34
949.90	210.37
950.20	210.42
950.50	210.42
950.79	210.46
951.09	210.54
951.39	210.52
951.69	210.54
951.98	210.61
952.28	210.63
952.58	210.55
952.87	210.56
953.17	210.65
953.47	210.45
953.76	210.46
954.06	210.44
954.36	210.42
954.66	210.36
954.95	210.50
955.25	210.50
955.55	210.45
955.84	210.40
956.14	210.50
956.44	210.55
956.73	210.48
957.03	210.50
957.32	210.57
957.62	210.58
957.92	210.64
958.21	210.64
958.51	211.07
958.81	211.18
959.10	211.27
959.40	211.32
959.69	211.36
959.99	211.36
960.29	211.31
960.58	211.30
960.88	211.44
961.17	211.39
961.47	211.43
961.76	211.49
962.06	211.54
962.36	211.44
962.65	211.43
962.95	211.46
963.24	211.44
963.54	211.44
963.83	211.45
964.13	211.44
964.42	211.32
964.72	210.98
965.01	211.01
965.31	211.00
965.60	210.92
965.90	211.18
966.19	211.18
966.49	211.25
966.78	211.24
967.08	211.19
967.37	211.15
967.67	211.06
967.96	211.08
968.26	211.01
968.55	211.05
968.85	211.03
969.14	211.09
969.43	211.10
969.73	211.06
970.02	211.10
970.32	211.05
970.61	211.01
970.91	210.98
971.20	210.89
971.49	210.85
971.79	210.86
972.08	210.74
972.38	210.78
972.67	210.81
972.96	210.84
973.26	210.78
973.55	210.93
973.85	210.90
974.14	210.90
974.43	210.98
974.73	210.89
975.02	210.86
975.31	210.89
975.61	210.85
975.90	210.72
976.19	210.68
976.49	210.70
976.78	210.78
977.07	210.69
977.37	210.74
977.66	210.74
977.95	210.70
978.24	210.63
978.54	210.74
978.83	210.70
979.12	210.68
979.42	210.71
979.71	210.61
980.00	210.64
980.29	210.67
980.59	210.63
980.88	210.73
981.17	210.73
981.46	210.68
981.76	210.69
982.05	210.88
982.34	210.90
982.63	210.92
982.93	210.90
983.22	211.03
983.51	211.04
983.80	211.14
984.09	211.22
984.39	211.24
984.68	211.14
984.97	211.13
985.26	211.11
985.55	211.10
985.85	211.00
986.14	211.02
986.43	211.05
986.72	211.01
987.01	210.99
987.30	210.98
987.59	210.96
987.89	211.02
988.18	210.91
988.47	210.88
988.76	210.84
989.05	210.88
989.34	210.83
989.63	210.98
989.92	210.86
990.22	210.82
990.51	210.79
990.80	210.86
991.09	210.87
991.38	210.91
991.67	210.94
991.96	210.97
992.25	211.04
992.54	210.97
992.83	210.97
993.12	210.95
993.41	211.01
993.70	211.23
993.99	211.21
994.28	211.28
994.58	211.34
994.87	211.38
995.16	211.34
995.45	211.30
995.74	211.22
996.03	211.35
996.32	211.40
996.61	211.42
996.90	211.33
997.19	211.29
997.48	211.41
997.77	211.35
998.06	211.38
998.34	211.37
998.63	211.35
998.92	211.43
999.21	211.46
999.50	211.44
999.79	211.26
1000.08	211.30
1000.37	211.28
1000.66	211.24
1000.95	211.25
1001.24	211.32
1001.53	211.33
1001.82	211.26
1002.11	211.17
1002.40	211.19
1002.68	211.32
1002.97	211.52
1003.26	211.49
1003.55	211.42
1003.84	211.50
1004.13	211.59
1004.42	211.50
1004.71	211.47
1004.99	211.44
1005.28	211.54
1005.57	211.54
1005.86	211.48
1006.15	211.42
1006.44	211.39
1006.72	211.46
1007.01	211.41
1007.30	211.39
1007.59	211.43
1007.88	211.35
1008.17	211.32
1008.45	211.20
1008.74	211.15
1009.03	211.03
1009.32	211.09
1009.60	211.01
1009.89	210.97
1010.18	210.86
1010.47	210.93
1010.76	210.96
1011.04	210.89
1011.33	210.86
1011.62	210.90
1011.91	210.88
1012.19	210.92
1012.48	210.89
1012.77	210.86
1013.05	211.05
1013.34	211.02
1013.63	210.94
1013.92	211.01
1014.20	210.98
1014.49	211.00
1014.78	210.97
1015.06	210.85
1015.35	210.77
1015.64	210.86
1015.92	210.92
1016.21	210.93
1016.50	210.96
1016.78	210.95
1017.07	211.02
1017.36	211.01
1017.64	210.91
1017.93	210.97
1018.22	210.90
1018.50	210.90
1018.79	210.81
1019.08	210.61
1019.36	210.61
1019.65	210.63
1019.93	210.67
1020.22	210.68
1020.51	210.86
1020.79	210.80
1021.08	209.85
1021.36	210.20
1021.65	209.20
1021.94	210.80
1022.22	210.85
1022.51	210.15
1022.79	211.25
1023.08	209.95
1023.36	214.40
1023.65	210.60
>>>>>End Processed Spectral Data<<<<<
