SpectraSuite Data File
++++++++++++++++++++++++++++++++++++
Date: Mon Feb 25 16:57:59 EST 2013
User: group
Dark Spectrum Present: No
Reference Spectrum Present: No
Number of Sampled Component Spectra: 1
Spectrometers: USB2E7196
Integration Time (usec): 104000 (USB2E7196)
Spectra Averaged: 20 (USB2E7196)
Boxcar Smoothing: 10 (USB2E7196)
Correct for Electrical Dark: No (USB2E7196)
Strobe/Lamp Enabled: No (USB2E7196)
Correct for Detector Non-linearity: No (USB2E7196)
Correct for Stray Light: No (USB2E7196)
Number of Pixels in Processed Spectrum: 2048
>>>>>Begin Processed Spectral Data<<<<<
339.09	0.00
339.48	197.55
339.86	199.75
340.24	200.95
340.63	203.45
341.01	210.25
341.39	205.15
341.78	207.00
342.16	208.60
342.54	209.10
342.93	198.22
343.31	208.22
343.69	208.74
344.07	209.19
344.46	209.73
344.84	210.09
345.22	210.10
345.60	210.39
345.99	210.61
346.37	210.72
346.75	210.77
347.13	210.93
347.52	211.03
347.90	211.20
348.28	211.24
348.66	211.37
349.05	211.31
349.43	211.43
349.81	211.50
350.19	211.49
350.57	211.53
350.96	211.60
351.34	211.70
351.72	211.85
352.10	211.99
352.48	211.98
352.87	212.02
353.25	212.12
353.63	212.12
354.01	212.19
354.39	212.34
354.77	212.48
355.15	212.58
355.54	212.63
355.92	212.60
356.30	212.72
356.68	212.93
357.06	213.00
357.44	212.95
357.82	212.94
358.20	213.06
358.58	213.19
358.97	213.26
359.35	213.32
359.73	213.47
360.11	213.47
360.49	213.52
360.87	213.62
361.25	213.70
361.63	213.92
362.01	213.94
362.39	213.94
362.77	213.92
363.15	213.99
363.53	213.96
363.91	214.02
364.29	213.98
364.67	213.73
365.05	213.70
365.43	213.78
365.81	213.83
366.19	213.99
366.57	214.10
366.95	214.09
367.33	214.10
367.71	214.08
368.09	214.19
368.47	214.18
368.85	214.11
369.23	214.23
369.61	214.05
369.99	214.15
370.37	214.15
370.75	214.37
371.13	214.18
371.51	214.09
371.89	214.04
372.27	214.03
372.65	214.05
373.03	214.07
373.41	214.01
373.78	213.97
374.16	213.77
374.54	213.63
374.92	213.57
375.30	213.51
375.68	213.43
376.06	213.40
376.44	213.28
376.82	213.31
377.19	213.16
377.57	213.14
377.95	212.95
378.33	212.92
378.71	212.63
379.09	212.70
379.47	212.75
379.84	212.70
380.22	212.59
380.60	212.48
380.98	212.46
381.36	212.46
381.73	212.37
382.11	212.37
382.49	212.30
382.87	212.21
383.25	212.19
383.62	212.55
384.00	212.44
384.38	212.46
384.76	212.42
385.13	212.51
385.51	212.43
385.89	212.37
386.27	212.25
386.64	212.30
387.02	212.22
387.40	212.17
387.78	212.16
388.15	212.22
388.53	212.20
388.91	212.09
389.29	211.95
389.66	211.97
390.04	211.91
390.42	211.91
390.79	211.90
391.17	211.86
391.55	211.43
391.92	211.45
392.30	211.46
392.68	211.39
393.05	211.38
393.43	211.44
393.81	211.45
394.18	211.45
394.56	211.40
394.94	211.44
395.31	211.37
395.69	211.45
396.06	211.46
396.44	211.45
396.82	211.50
397.19	211.68
397.57	211.68
397.95	211.77
398.32	211.67
398.70	211.79
399.07	211.90
399.45	211.95
399.82	211.96
400.20	212.08
400.58	212.15
400.95	212.00
401.33	212.19
401.70	212.54
402.08	212.71
402.45	212.84
402.83	213.06
403.20	213.22
403.58	213.22
403.95	213.40
404.33	213.65
404.71	213.76
405.08	214.20
405.46	214.42
405.83	214.62
406.21	214.92
406.58	215.24
406.96	215.54
407.33	215.89
407.70	216.35
408.08	216.95
408.45	217.45
408.83	218.02
409.20	218.38
409.58	218.67
409.95	219.23
410.33	219.87
410.70	220.42
411.08	221.20
411.45	222.10
411.82	222.82
412.20	223.78
412.57	225.03
412.95	225.68
413.32	226.90
413.69	228.08
414.07	229.36
414.44	230.70
414.82	232.05
415.19	233.61
415.56	235.15
415.94	236.70
416.31	238.79
416.68	240.76
417.06	243.05
417.43	245.24
417.81	247.72
418.18	250.22
418.55	252.88
418.93	255.69
419.30	258.60
419.67	261.73
420.04	264.85
420.42	268.22
420.79	272.27
421.16	276.19
421.54	280.31
421.91	284.53
422.28	288.97
422.66	293.75
423.03	298.43
423.40	303.32
423.77	308.52
424.15	313.61
424.52	319.02
424.89	325.01
425.26	330.83
425.64	336.35
426.01	342.56
426.38	349.00
426.75	355.50
427.13	362.20
427.50	369.40
427.87	376.82
428.24	384.23
428.61	391.24
428.99	398.94
429.36	407.38
429.73	415.81
430.10	424.31
430.47	432.86
430.85	441.86
431.22	451.45
431.59	461.46
431.96	471.15
432.33	481.98
432.70	492.26
433.08	504.41
433.45	515.86
433.82	527.32
434.19	539.99
434.56	552.66
434.93	564.96
435.30	577.19
435.68	590.83
436.05	604.36
436.42	617.95
436.79	630.51
437.16	644.05
437.53	658.10
437.90	671.98
438.27	685.91
438.64	700.34
439.01	713.80
439.38	726.02
439.75	737.82
440.13	751.35
440.50	764.31
440.87	774.98
441.24	786.09
441.61	798.23
441.98	807.67
442.35	818.36
442.72	829.10
443.09	839.31
443.46	846.02
443.83	850.66
444.20	855.07
444.57	860.89
444.94	864.14
445.31	867.50
445.68	870.71
446.05	872.65
446.42	872.35
446.79	871.70
447.16	870.81
447.53	870.48
447.90	866.16
448.27	861.96
448.64	855.81
449.01	851.56
449.37	843.26
449.74	835.32
450.11	825.50
450.48	814.84
450.85	803.93
451.22	794.59
451.59	785.86
451.96	777.24
452.33	765.45
452.70	754.86
453.07	742.22
453.43	729.36
453.80	716.97
454.17	705.04
454.54	693.70
454.91	681.55
455.28	669.71
455.65	658.63
456.02	647.30
456.38	637.72
456.75	625.84
457.12	616.05
457.49	606.08
457.86	596.62
458.23	588.32
458.59	579.33
458.96	570.23
459.33	562.09
459.70	553.97
460.07	547.58
460.43	540.18
460.80	533.18
461.17	526.97
461.54	520.44
461.91	514.34
462.27	508.13
462.64	502.86
463.01	496.88
463.38	491.28
463.74	485.64
464.11	480.72
464.48	476.40
464.85	471.54
465.21	467.98
465.58	464.01
465.95	459.33
466.32	455.45
466.68	451.55
467.05	447.59
467.42	443.79
467.78	439.76
468.15	435.93
468.52	433.10
468.88	429.47
469.25	426.28
469.62	423.51
469.98	420.51
470.35	417.72
470.72	415.20
471.08	412.29
471.45	409.89
471.82	407.41
472.18	404.63
472.55	402.71
472.92	400.35
473.28	398.36
473.65	396.31
474.02	394.44
474.38	392.93
474.75	391.72
475.11	390.15
475.48	388.92
475.85	387.91
476.21	386.93
476.58	386.07
476.94	385.48
477.31	384.67
477.67	384.06
478.04	383.43
478.41	383.11
478.77	383.23
479.14	382.88
479.50	382.72
479.87	382.78
480.23	382.76
480.60	382.80
480.96	382.80
481.33	383.36
481.69	383.65
482.06	383.75
482.42	383.84
482.79	384.21
483.15	384.90
483.52	385.76
483.88	386.35
484.25	387.01
484.61	387.74
484.98	388.71
485.34	389.96
485.71	391.30
486.07	392.65
486.44	393.61
486.80	395.11
487.17	396.68
487.53	398.52
487.90	400.43
488.26	402.51
488.62	404.67
488.99	406.60
489.35	408.78
489.72	411.23
490.08	413.82
490.44	416.29
490.81	418.89
491.17	421.49
491.54	424.46
491.90	427.45
492.26	430.57
492.63	433.74
492.99	436.87
493.36	440.28
493.72	443.70
494.08	447.32
494.45	451.14
494.81	455.21
495.17	459.11
495.54	463.35
495.90	467.52
496.26	471.81
496.63	476.28
496.99	480.88
497.35	485.58
497.72	490.39
498.08	495.24
498.44	500.25
498.80	505.61
499.17	510.95
499.53	516.17
499.89	521.50
500.26	526.90
500.62	532.31
500.98	537.86
501.34	543.35
501.71	549.05
502.07	554.77
502.43	560.33
502.79	566.04
503.16	571.60
503.52	577.31
503.88	582.87
504.24	588.61
504.60	594.29
504.97	599.95
505.33	605.44
505.69	611.52
506.05	617.36
506.41	622.95
506.78	628.11
507.14	633.60
507.50	639.09
507.86	644.58
508.22	650.15
508.59	655.45
508.95	660.82
509.31	666.26
509.67	671.35
510.03	676.51
510.39	681.76
510.75	686.95
511.12	691.95
511.48	696.89
511.84	701.88
512.20	706.65
512.56	711.59
512.92	716.56
513.28	721.14
513.64	725.59
514.00	729.90
514.37	734.61
514.73	739.05
515.09	743.58
515.45	747.80
515.81	751.77
516.17	755.68
516.53	759.58
516.89	763.04
517.25	766.66
517.61	770.42
517.97	773.83
518.33	777.21
518.69	780.29
519.05	783.71
519.41	786.89
519.77	790.37
520.13	793.27
520.49	796.12
520.85	799.01
521.21	801.96
521.57	804.93
521.93	807.39
522.29	810.27
522.65	812.65
523.01	815.09
523.37	817.51
523.73	820.24
524.09	822.62
524.45	825.23
524.81	827.92
525.17	830.30
525.53	832.70
525.89	835.01
526.25	837.40
526.61	839.33
526.97	841.47
527.33	843.30
527.68	845.75
528.04	847.77
528.40	849.54
528.76	851.46
529.12	853.53
529.48	855.88
529.84	857.92
530.20	860.06
530.56	862.15
530.91	864.50
531.27	866.55
531.63	868.72
531.99	870.89
532.35	872.64
532.71	874.57
533.07	876.73
533.42	878.95
533.78	881.01
534.14	883.49
534.50	885.30
534.86	887.77
535.21	889.53
535.57	891.99
535.93	894.43
536.29	896.68
536.65	898.77
537.00	900.82
537.36	902.58
537.72	904.49
538.08	906.55
538.44	908.47
538.79	910.63
539.15	912.65
539.51	914.50
539.87	916.94
540.22	919.39
540.58	921.72
540.94	923.85
541.29	926.03
541.65	927.80
542.01	930.09
542.37	931.81
542.72	933.79
543.08	935.51
543.44	937.60
543.79	938.99
544.15	940.75
544.51	942.93
544.87	945.06
545.22	947.23
545.58	949.13
545.94	950.83
546.29	952.39
546.65	954.22
547.01	956.05
547.36	957.60
547.72	959.13
548.07	960.54
548.43	961.90
548.79	963.35
549.14	964.90
549.50	966.44
549.86	967.99
550.21	969.73
550.57	971.40
550.92	972.74
551.28	974.81
551.64	976.40
551.99	977.97
552.35	979.67
552.70	980.85
553.06	982.52
553.41	984.10
553.77	985.85
554.13	987.41
554.48	989.24
554.84	990.99
555.19	992.59
555.55	994.21
555.90	995.62
556.26	997.03
556.61	998.62
556.97	999.75
557.32	1001.14
557.68	1002.13
558.03	1003.28
558.39	1004.24
558.74	1005.28
559.10	1006.44
559.45	1007.48
559.81	1008.71
560.16	1009.62
560.52	1010.55
560.87	1011.60
561.23	1012.27
561.58	1013.40
561.94	1013.95
562.29	1014.50
562.64	1015.30
563.00	1016.20
563.35	1017.34
563.71	1018.64
564.06	1019.69
564.42	1021.18
564.77	1022.49
565.12	1024.01
565.48	1025.52
565.83	1026.82
566.19	1028.00
566.54	1028.82
566.89	1029.58
567.25	1030.40
567.60	1031.67
567.96	1032.92
568.31	1033.94
568.66	1034.94
569.02	1035.35
569.37	1035.74
569.72	1036.31
570.08	1036.73
570.43	1036.90
570.78	1036.96
571.14	1036.88
571.49	1036.66
571.84	1036.45
572.20	1035.90
572.55	1035.52
572.90	1034.41
573.26	1033.71
573.61	1033.11
573.96	1032.60
574.31	1031.64
574.67	1030.63
575.02	1029.36
575.37	1027.80
575.72	1026.10
576.08	1024.84
576.43	1023.25
576.78	1022.09
577.13	1020.91
577.49	1019.55
577.84	1018.16
578.19	1016.98
578.54	1015.98
578.90	1015.08
579.25	1013.50
579.60	1011.85
579.95	1009.94
580.30	1008.71
580.66	1007.47
581.01	1005.66
581.36	1003.87
581.71	1002.15
582.06	1000.50
582.42	998.77
582.77	997.03
583.12	995.50
583.47	993.72
583.82	992.26
584.17	990.33
584.53	988.50
584.88	986.49
585.23	984.27
585.58	982.09
585.93	979.70
586.28	977.47
586.63	975.51
586.98	973.66
587.34	971.78
587.69	969.33
588.04	967.02
588.39	965.02
588.74	962.65
589.09	960.65
589.44	957.77
589.79	955.80
590.14	953.71
590.49	951.51
590.84	948.97
591.19	946.97
591.54	944.81
591.89	942.03
592.25	939.51
592.60	937.06
592.95	934.33
593.30	931.40
593.65	928.27
594.00	925.37
594.35	923.72
594.70	920.90
595.05	918.41
595.40	915.63
595.75	912.47
596.10	909.96
596.45	907.32
596.80	905.24
597.15	902.55
597.50	899.33
597.85	896.48
598.19	893.86
598.54	890.74
598.89	888.00
599.24	885.76
599.59	883.11
599.94	880.46
600.29	877.75
600.64	875.08
600.99	872.38
601.34	869.90
601.69	865.95
602.04	862.92
602.39	860.09
602.74	857.28
603.08	854.93
603.43	852.49
603.78	849.49
604.13	846.43
604.48	843.59
604.83	841.51
605.18	838.99
605.53	836.00
605.87	833.24
606.22	830.61
606.57	827.47
606.92	824.59
607.27	821.69
607.62	819.01
607.96	816.43
608.31	813.98
608.66	810.91
609.01	808.02
609.36	805.34
609.70	802.29
610.05	799.15
610.40	795.98
610.75	792.53
611.10	789.70
611.44	786.33
611.79	782.91
612.14	779.37
612.49	776.04
612.83	773.04
613.18	769.60
613.53	766.05
613.88	762.51
614.22	759.00
614.57	755.63
614.92	752.22
615.27	748.65
615.61	745.19
615.96	741.89
616.31	738.80
616.65	735.65
617.00	732.36
617.35	729.03
617.70	725.63
618.04	722.18
618.39	718.50
618.74	715.39
619.08	712.15
619.43	708.90
619.78	705.63
620.12	702.41
620.47	699.28
620.82	695.84
621.16	692.54
621.51	689.59
621.85	686.48
622.20	683.31
622.55	679.94
622.89	676.59
623.24	673.35
623.59	669.97
623.93	666.74
624.28	663.85
624.62	661.13
624.97	658.15
625.32	655.14
625.66	652.32
626.01	649.30
626.35	646.43
626.70	643.43
627.04	640.51
627.39	637.41
627.73	634.69
628.08	632.08
628.43	629.19
628.77	626.02
629.12	622.91
629.46	620.09
629.81	617.48
630.15	614.62
630.50	611.69
630.84	608.76
631.19	605.88
631.53	602.99
631.88	599.92
632.22	597.08
632.57	594.51
632.91	591.78
633.26	589.01
633.60	586.06
633.95	583.31
634.29	580.44
634.64	577.82
634.98	574.77
635.32	572.18
635.67	569.81
636.01	567.38
636.36	564.89
636.70	562.44
637.05	559.92
637.39	557.65
637.73	555.51
638.08	553.45
638.42	551.15
638.77	548.76
639.11	546.44
639.45	544.07
639.80	541.54
640.14	539.02
640.49	536.68
640.83	534.33
641.17	532.05
641.52	529.54
641.86	527.08
642.20	524.96
642.55	522.30
642.89	519.88
643.23	517.55
643.58	515.58
643.92	512.93
644.26	510.74
644.61	508.27
644.95	505.63
645.29	503.11
645.64	500.72
645.98	498.35
646.32	496.15
646.66	493.64
647.01	491.35
647.35	489.11
647.69	486.70
648.04	484.49
648.38	482.03
648.72	479.90
649.06	477.62
649.41	475.34
649.75	473.17
650.09	471.03
650.43	468.76
650.78	466.28
651.12	464.08
651.46	461.78
651.80	459.62
652.14	457.51
652.49	455.34
652.83	453.15
653.17	450.88
653.51	448.46
653.85	446.49
654.20	444.35
654.54	442.22
654.88	440.10
655.22	438.25
655.56	436.22
655.90	434.10
656.25	432.00
656.59	429.84
656.93	427.95
657.27	425.95
657.61	423.73
657.95	421.77
658.29	419.96
658.64	418.07
658.98	416.11
659.32	414.07
659.66	412.18
660.00	410.21
660.34	408.42
660.68	406.60
661.02	404.59
661.36	402.80
661.70	401.05
662.05	399.44
662.39	397.58
662.73	395.99
663.07	394.62
663.41	393.03
663.75	391.36
664.09	389.62
664.43	387.77
664.77	386.17
665.11	384.41
665.45	382.79
665.79	381.15
666.13	379.52
666.47	377.97
666.81	376.32
667.15	374.71
667.49	373.23
667.83	371.80
668.17	370.31
668.51	368.87
668.85	367.38
669.19	366.02
669.53	364.42
669.87	362.81
670.21	361.14
670.55	359.69
670.89	358.66
671.23	357.40
671.57	356.11
671.91	354.82
672.25	353.57
672.58	352.27
672.92	350.98
673.26	349.78
673.60	348.60
673.94	347.29
674.28	346.15
674.62	344.91
674.96	343.61
675.30	342.41
675.64	341.13
675.97	339.87
676.31	338.64
676.65	337.55
676.99	336.60
677.33	335.45
677.67	334.34
678.01	332.82
678.34	331.59
678.68	330.50
679.02	329.33
679.36	328.18
679.70	326.99
680.04	325.83
680.37	324.71
680.71	323.58
681.05	322.63
681.39	321.55
681.73	320.44
682.06	319.47
682.40	318.48
682.74	317.50
683.08	316.50
683.42	315.36
683.75	314.31
684.09	313.11
684.43	312.11
684.77	310.96
685.10	310.07
685.44	309.02
685.78	308.08
686.12	307.23
686.45	306.29
686.79	305.35
687.13	304.58
687.46	303.57
687.80	302.79
688.14	301.82
688.48	300.96
688.81	300.07
689.15	299.12
689.49	298.26
689.82	297.40
690.16	296.41
690.50	295.57
690.83	294.67
691.17	293.70
691.51	292.81
691.84	292.07
692.18	291.21
692.52	290.40
692.85	289.52
693.19	288.78
693.52	287.94
693.86	287.05
694.20	286.12
694.53	285.31
694.87	284.44
695.21	283.62
695.54	282.80
695.88	281.99
696.21	281.20
696.55	280.41
696.88	279.60
697.22	278.89
697.56	278.22
697.89	277.46
698.23	276.83
698.56	276.10
698.90	275.44
699.23	274.71
699.57	274.07
699.90	273.39
700.24	272.57
700.58	271.88
700.91	271.31
701.25	270.91
701.58	270.38
701.92	269.83
702.25	269.22
702.59	268.56
702.92	267.98
703.26	267.34
703.59	266.76
703.93	266.44
704.26	266.02
704.60	265.44
704.93	264.94
705.26	264.32
705.60	263.80
705.93	263.11
706.27	262.70
706.60	262.26
706.94	261.92
707.27	261.30
707.61	260.82
707.94	260.33
708.27	259.63
708.61	258.96
708.94	258.42
709.28	257.92
709.61	257.42
709.94	256.93
710.28	256.51
710.61	256.09
710.95	255.29
711.28	254.99
711.61	254.48
711.95	254.06
712.28	253.61
712.61	253.24
712.95	253.07
713.28	252.78
713.61	252.22
713.95	251.66
714.28	251.38
714.61	250.93
714.95	250.44
715.28	249.95
715.61	249.62
715.95	249.19
716.28	248.68
716.61	248.30
716.95	247.90
717.28	247.56
717.61	247.11
717.94	246.74
718.28	246.05
718.61	245.75
718.94	245.20
719.27	244.86
719.61	244.44
719.94	243.97
720.27	243.35
720.60	243.11
720.94	242.77
721.27	242.46
721.60	242.22
721.93	241.92
722.27	241.76
722.60	241.55
722.93	241.19
723.26	240.98
723.59	240.57
723.93	240.20
724.26	239.95
724.59	239.65
724.92	239.42
725.25	239.26
725.59	238.89
725.92	238.80
726.25	238.61
726.58	238.39
726.91	238.08
727.24	237.94
727.57	237.50
727.91	237.14
728.24	236.83
728.57	236.53
728.90	236.25
729.23	235.84
729.56	235.67
729.89	235.47
730.22	235.17
730.55	234.99
730.89	234.85
731.22	234.46
731.55	234.23
731.88	233.96
732.21	233.73
732.54	233.49
732.87	233.16
733.20	232.90
733.53	232.67
733.86	232.47
734.19	232.13
734.52	232.04
734.85	232.11
735.18	231.84
735.51	231.73
735.84	231.55
736.17	231.46
736.50	231.05
736.83	231.27
737.16	231.10
737.49	230.89
737.82	230.66
738.15	230.60
738.48	230.37
738.81	230.14
739.14	229.88
739.47	229.67
739.80	229.51
740.13	229.40
740.46	229.20
740.79	228.98
741.12	228.81
741.45	228.54
741.78	228.20
742.11	228.16
742.44	228.03
742.77	227.93
743.10	227.77
743.43	227.57
743.75	227.02
744.08	227.34
744.41	227.25
744.74	226.97
745.07	226.74
745.40	226.66
745.73	226.71
746.06	226.58
746.39	226.50
746.71	226.34
747.04	226.10
747.37	225.92
747.70	225.81
748.03	225.78
748.36	225.80
748.68	225.57
749.01	225.37
749.34	225.12
749.67	224.99
750.00	224.83
750.33	225.00
750.65	224.90
750.98	224.32
751.31	224.18
751.64	224.18
751.97	224.26
752.29	224.16
752.62	223.86
752.95	223.64
753.28	223.45
753.60	223.35
753.93	223.34
754.26	223.31
754.59	223.11
754.91	222.94
755.24	222.78
755.57	222.64
755.90	222.43
756.22	222.35
756.55	222.18
756.88	222.04
757.20	221.67
757.53	221.38
757.86	221.25
758.19	221.12
758.51	220.98
758.84	220.67
759.17	220.50
759.49	220.42
759.82	220.55
760.15	220.53
760.47	220.40
760.80	220.15
761.13	220.07
761.45	219.93
761.78	219.81
762.11	219.70
762.43	219.58
762.76	219.52
763.08	219.42
763.41	219.38
763.74	219.24
764.06	219.27
764.39	219.22
764.71	219.18
765.04	219.06
765.37	219.00
765.69	218.85
766.02	218.74
766.34	218.61
766.67	218.35
767.00	218.25
767.32	218.36
767.65	218.53
767.97	218.30
768.30	218.26
768.62	218.18
768.95	218.08
769.27	218.02
769.60	218.01
769.92	217.82
770.25	217.69
770.57	217.59
770.90	217.48
771.22	217.47
771.55	217.36
771.87	217.34
772.20	217.23
772.52	217.49
772.85	217.85
773.17	217.82
773.50	217.85
773.82	217.77
774.15	217.49
774.47	217.15
774.80	217.15
775.12	217.12
775.45	217.04
775.77	216.99
776.09	217.01
776.42	216.85
776.74	217.00
777.07	216.91
777.39	216.98
777.72	216.83
778.04	216.79
778.36	216.69
778.69	216.69
779.01	216.65
779.33	216.35
779.66	215.97
779.98	215.90
780.31	215.79
780.63	215.86
780.95	215.92
781.28	215.97
781.60	215.90
781.92	215.83
782.25	215.77
782.57	215.78
782.89	215.71
783.22	215.75
783.54	215.65
783.86	215.72
784.19	215.60
784.51	215.71
784.83	215.72
785.16	215.75
785.48	215.68
785.80	215.68
786.12	215.62
786.45	215.55
786.77	215.52
787.09	215.54
787.42	215.38
787.74	215.39
788.06	215.31
788.38	215.30
788.71	215.21
789.03	215.23
789.35	215.17
789.67	215.12
789.99	215.09
790.32	215.02
790.64	214.95
790.96	215.14
791.28	214.96
791.61	214.89
791.93	214.82
792.25	214.81
792.57	214.97
792.89	214.96
793.21	215.03
793.54	215.04
793.86	214.90
794.18	214.94
794.50	214.90
794.82	214.89
795.14	214.87
795.47	214.96
795.79	214.94
796.11	214.88
796.43	214.82
796.75	214.81
797.07	214.79
797.39	214.75
797.71	214.54
798.04	214.52
798.36	214.48
798.68	214.52
799.00	214.51
799.32	214.35
799.64	214.36
799.96	214.21
800.28	214.20
800.60	214.20
800.92	214.24
801.24	214.09
801.56	214.10
801.89	214.00
802.21	214.02
802.53	213.81
802.85	213.80
803.17	213.94
803.49	213.79
803.81	213.68
804.13	213.61
804.45	213.48
804.77	213.50
805.09	213.43
805.41	213.29
805.73	213.15
806.05	213.01
806.37	212.92
806.69	212.93
807.01	212.88
807.33	212.83
807.65	212.65
807.97	212.86
808.28	212.84
808.60	212.88
808.92	212.74
809.24	213.02
809.56	212.95
809.88	212.74
810.20	212.74
810.52	212.81
810.84	212.76
811.16	212.73
811.48	212.76
811.80	212.89
812.12	212.97
812.43	213.07
812.75	213.14
813.07	213.11
813.39	213.18
813.71	213.13
814.03	213.15
814.35	213.16
814.67	212.95
814.98	212.88
815.30	212.85
815.62	212.84
815.94	212.63
816.26	212.67
816.58	212.68
816.89	212.78
817.21	212.67
817.53	212.74
817.85	212.75
818.17	212.63
818.48	212.53
818.80	212.49
819.12	212.36
819.44	212.26
819.76	212.22
820.07	212.15
820.39	212.11
820.71	212.12
821.03	212.11
821.34	212.09
821.66	212.14
821.98	212.15
822.30	212.14
822.61	212.36
822.93	212.29
823.25	212.27
823.57	212.23
823.88	212.37
824.20	212.35
824.52	212.45
824.83	212.47
825.15	212.46
825.47	212.42
825.79	212.49
826.10	212.45
826.42	212.44
826.74	212.48
827.05	212.50
827.37	212.49
827.69	212.49
828.00	212.45
828.32	212.47
828.64	212.40
828.95	212.60
829.27	212.45
829.58	212.45
829.90	212.45
830.22	212.40
830.53	212.24
830.85	212.15
831.17	212.00
831.48	211.97
831.80	211.90
832.11	211.91
832.43	211.85
832.75	211.86
833.06	212.07
833.38	211.96
833.69	211.90
834.01	211.91
834.32	211.85
834.64	211.88
834.96	211.80
835.27	211.83
835.59	211.73
835.90	211.72
836.22	211.70
836.53	211.70
836.85	211.72
837.16	212.16
837.48	212.18
837.79	212.30
838.11	212.34
838.42	212.43
838.74	212.46
839.05	212.43
839.37	212.43
839.68	212.17
840.00	212.14
840.31	212.24
840.63	212.25
840.94	212.24
841.26	212.17
841.57	212.22
841.88	212.25
842.20	212.17
842.51	212.08
842.83	212.12
843.14	212.42
843.46	212.41
843.77	212.17
844.08	212.12
844.40	212.05
844.71	212.03
845.03	211.98
845.34	211.97
845.65	211.99
845.97	211.98
846.28	212.02
846.60	212.10
846.91	212.04
847.22	212.00
847.54	212.12
847.85	212.15
848.16	212.13
848.48	212.08
848.79	212.21
849.10	212.30
849.42	212.34
849.73	212.01
850.04	211.97
850.36	211.80
850.67	211.95
850.98	212.01
851.30	211.99
851.61	211.99
851.92	211.96
852.23	212.05
852.55	212.05
852.86	212.06
853.17	212.09
853.49	212.13
853.80	212.15
854.11	212.12
854.42	212.18
854.74	212.10
855.05	212.08
855.36	211.88
855.67	211.84
855.99	211.82
856.30	212.19
856.61	212.15
856.92	212.18
857.23	212.10
857.55	212.02
857.86	212.02
858.17	212.05
858.48	211.94
858.79	211.87
859.11	211.95
859.42	211.97
859.73	211.90
860.04	211.86
860.35	211.73
860.66	211.60
860.98	211.60
861.29	211.67
861.60	211.64
861.91	211.75
862.22	211.70
862.53	211.64
862.84	211.29
863.16	211.43
863.47	211.40
863.78	211.42
864.09	211.38
864.40	211.37
864.71	211.40
865.02	211.42
865.33	211.31
865.64	211.25
865.95	211.17
866.27	211.35
866.58	211.34
866.89	211.45
867.20	211.48
867.51	211.37
867.82	211.29
868.13	211.46
868.44	211.34
868.75	211.40
869.06	211.42
869.37	211.47
869.68	211.25
869.99	211.27
870.30	211.25
870.61	211.34
870.92	211.32
871.23	211.18
871.54	211.29
871.85	211.45
872.16	211.48
872.47	211.39
872.78	211.21
873.09	211.28
873.40	211.22
873.71	211.26
874.02	211.29
874.33	211.30
874.64	211.16
874.95	211.20
875.26	211.15
875.56	211.14
875.87	211.07
876.18	211.17
876.49	211.54
876.80	211.50
877.11	211.42
877.42	211.44
877.73	211.55
878.04	211.48
878.35	211.51
878.66	211.52
878.96	211.63
879.27	211.69
879.58	211.61
879.89	211.61
880.20	211.67
880.51	211.69
880.82	211.68
881.12	211.75
881.43	211.67
881.74	211.56
882.05	211.54
882.36	211.57
882.67	211.60
882.97	211.25
883.28	211.25
883.59	211.30
883.90	211.38
884.21	211.43
884.51	211.43
884.82	211.32
885.13	211.28
885.44	211.28
885.74	211.20
886.05	211.20
886.36	211.17
886.67	211.07
886.98	211.23
887.28	211.32
887.59	211.31
887.90	211.45
888.20	211.53
888.51	211.65
888.82	211.62
889.13	211.57
889.43	211.81
889.74	211.80
890.05	211.79
890.35	211.69
890.66	211.58
890.97	211.52
891.28	211.54
891.58	211.55
891.89	211.55
892.20	211.54
892.50	211.51
892.81	211.52
893.12	211.54
893.42	211.39
893.73	211.35
894.04	211.31
894.34	211.27
894.65	211.20
894.95	211.07
895.26	211.12
895.57	211.35
895.87	211.07
896.18	211.15
896.48	211.13
896.79	211.10
897.10	211.20
897.40	211.22
897.71	211.26
898.01	211.19
898.32	211.19
898.63	211.25
898.93	211.30
899.24	211.30
899.54	211.27
899.85	211.24
900.15	211.24
900.46	211.22
900.76	211.31
901.07	211.30
901.38	211.38
901.68	211.32
901.99	211.10
902.29	211.15
902.60	211.09
902.90	211.06
903.21	211.13
903.51	210.97
903.82	211.11
904.12	211.04
904.43	211.18
904.73	211.21
905.03	211.20
905.34	211.55
905.64	211.58
905.95	211.58
906.25	211.58
906.56	211.55
906.86	211.62
907.17	211.55
907.47	211.61
907.77	211.59
908.08	211.58
908.38	211.64
908.69	211.61
908.99	211.68
909.30	211.72
909.60	211.81
909.90	211.86
910.21	211.75
910.51	211.79
910.81	211.73
911.12	211.72
911.42	211.74
911.73	211.35
912.03	211.33
912.33	211.35
912.64	211.38
912.94	211.34
913.24	211.20
913.55	211.21
913.85	211.18
914.15	211.16
914.46	211.17
914.76	211.06
915.06	211.00
915.37	210.93
915.67	210.91
915.97	210.84
916.27	210.86
916.58	210.95
916.88	210.90
917.18	210.86
917.49	211.08
917.79	211.07
918.09	211.09
918.39	211.20
918.70	211.24
919.00	211.22
919.30	211.43
919.60	211.46
919.91	211.44
920.21	211.42
920.51	211.38
920.81	211.36
921.12	211.48
921.42	211.50
921.72	211.54
922.02	211.54
922.32	211.56
922.63	211.51
922.93	211.61
923.23	211.64
923.53	211.63
923.83	211.40
924.13	211.40
924.44	211.46
924.74	211.50
925.04	211.56
925.34	211.58
925.64	211.41
925.94	211.42
926.24	211.60
926.55	211.59
926.85	211.66
927.15	211.67
927.45	211.60
927.75	211.59
928.05	211.58
928.35	211.64
928.65	211.66
928.95	211.68
929.26	211.54
929.56	211.57
929.86	211.63
930.16	211.62
930.46	211.65
930.76	211.65
931.06	211.52
931.36	211.46
931.66	211.50
931.96	211.51
932.26	211.61
932.56	211.47
932.86	211.50
933.16	211.48
933.46	211.51
933.76	211.55
934.06	211.62
934.36	211.75
934.66	211.68
934.96	211.62
935.26	211.68
935.56	211.71
935.86	211.64
936.16	211.54
936.46	211.53
936.76	211.50
937.06	211.42
937.36	211.38
937.66	211.33
937.96	211.27
938.26	211.22
938.56	211.17
938.86	211.14
939.16	211.20
939.46	211.27
939.76	211.28
940.06	211.21
940.35	211.13
940.65	210.95
940.95	211.01
941.25	210.98
941.55	210.92
941.85	210.98
942.15	211.10
942.45	211.25
942.75	211.17
943.04	211.13
943.34	211.15
943.64	211.13
943.94	211.08
944.24	211.05
944.54	211.11
944.84	211.03
945.13	211.01
945.43	211.00
945.73	210.97
946.03	210.93
946.33	210.92
946.62	210.92
946.92	210.93
947.22	210.97
947.52	211.00
947.82	211.05
948.11	211.00
948.41	210.90
948.71	210.75
949.01	210.80
949.31	210.76
949.60	210.79
949.90	210.87
950.20	210.96
950.50	211.03
950.79	211.01
951.09	211.08
951.39	211.11
951.69	211.06
951.98	211.08
952.28	211.10
952.58	211.12
952.87	211.15
953.17	211.14
953.47	211.10
953.76	211.08
954.06	211.01
954.36	210.86
954.66	210.85
954.95	210.97
955.25	211.10
955.55	211.11
955.84	211.10
956.14	211.07
956.44	210.99
956.73	210.86
957.03	210.95
957.32	210.95
957.62	210.86
957.92	210.90
958.21	210.90
958.51	211.33
958.81	211.35
959.10	211.33
959.40	211.43
959.69	211.43
959.99	211.46
960.29	211.44
960.58	211.48
960.88	211.61
961.17	211.57
961.47	211.53
961.76	211.55
962.06	211.57
962.36	211.53
962.65	211.64
962.95	211.71
963.24	211.57
963.54	211.59
963.83	211.70
964.13	211.67
964.42	211.55
964.72	211.20
965.01	211.20
965.31	211.21
965.60	211.10
965.90	211.34
966.19	211.26
966.49	211.21
966.78	211.18
967.08	211.14
967.37	211.18
967.67	211.09
967.96	211.11
968.26	211.10
968.55	211.17
968.85	211.11
969.14	211.05
969.43	210.99
969.73	210.93
970.02	210.90
970.32	210.90
970.61	210.98
970.91	210.90
971.20	210.86
971.49	210.89
971.79	211.00
972.08	210.77
972.38	210.78
972.67	210.92
972.96	211.02
973.26	210.91
973.55	210.93
973.85	210.90
974.14	210.87
974.43	210.84
974.73	210.79
975.02	210.74
975.31	210.77
975.61	210.87
975.90	210.84
976.19	210.81
976.49	210.77
976.78	210.78
977.07	210.80
977.37	210.87
977.66	210.85
977.95	210.78
978.24	210.81
978.54	210.91
978.83	210.80
979.12	210.75
979.42	210.74
979.71	210.70
980.00	210.74
980.29	210.75
980.59	210.74
980.88	210.82
981.17	210.84
981.46	210.80
981.76	210.75
982.05	210.83
982.34	210.86
982.63	210.92
982.93	210.88
983.22	210.90
983.51	210.87
983.80	210.90
984.09	210.93
984.39	210.85
984.68	210.70
984.97	210.71
985.26	210.72
985.55	210.76
985.85	210.70
986.14	210.81
986.43	210.83
986.72	210.84
987.01	210.74
987.30	210.76
987.59	210.78
987.89	210.88
988.18	210.82
988.47	210.74
988.76	210.73
989.05	210.77
989.34	210.76
989.63	210.78
989.92	210.68
990.22	210.65
990.51	210.67
990.80	210.76
991.09	210.84
991.38	210.86
991.67	210.87
991.96	210.84
992.25	210.83
992.54	210.75
992.83	210.82
993.12	210.79
993.41	210.80
993.70	210.95
993.99	210.94
994.28	211.00
994.58	211.09
994.87	211.05
995.16	210.97
995.45	210.89
995.74	210.84
996.03	210.93
996.32	210.95
996.61	211.04
996.90	211.05
997.19	211.00
997.48	210.98
997.77	210.99
998.06	211.03
998.34	210.95
998.63	210.97
998.92	210.99
999.21	211.08
999.50	211.09
999.79	210.99
1000.08	211.00
1000.37	211.01
1000.66	210.97
1000.95	211.05
1001.24	211.14
1001.53	211.23
1001.82	211.22
1002.11	211.18
1002.40	211.24
1002.68	211.25
1002.97	211.50
1003.26	211.50
1003.55	211.50
1003.84	211.50
1004.13	211.60
1004.42	211.57
1004.71	211.63
1004.99	211.51
1005.28	211.57
1005.57	211.58
1005.86	211.56
1006.15	211.51
1006.44	211.46
1006.72	211.48
1007.01	211.45
1007.30	211.40
1007.59	211.41
1007.88	211.40
1008.17	211.46
1008.45	211.30
1008.74	211.18
1009.03	210.97
1009.32	210.90
1009.60	210.87
1009.89	210.86
1010.18	210.73
1010.47	210.76
1010.76	210.71
1011.04	210.73
1011.33	210.67
1011.62	210.67
1011.91	210.66
1012.19	210.72
1012.48	210.71
1012.77	210.67
1013.05	210.75
1013.34	210.76
1013.63	210.67
1013.92	210.80
1014.20	210.72
1014.49	210.79
1014.78	210.86
1015.06	210.81
1015.35	210.87
1015.64	210.95
1015.92	211.02
1016.21	211.03
1016.50	211.05
1016.78	211.10
1017.07	211.11
1017.36	211.11
1017.64	211.14
1017.93	211.18
1018.22	211.11
1018.50	211.12
1018.79	211.12
1019.08	211.01
1019.36	211.10
1019.65	211.08
1019.93	211.12
1020.22	211.18
1020.51	211.39
1020.79	211.38
1021.08	210.30
1021.36	210.25
1021.65	210.10
1021.94	210.90
1022.22	212.60
1022.51	210.35
1022.79	213.20
1023.08	211.55
1023.36	215.25
1023.65	211.05
>>>>>End Processed Spectral Data<<<<<
