SpectraSuite Data File
++++++++++++++++++++++++++++++++++++
Date: Mon Feb 25 17:09:48 EST 2013
User: group
Dark Spectrum Present: No
Reference Spectrum Present: No
Number of Sampled Component Spectra: 1
Spectrometers: USB2E7196
Integration Time (usec): 104000 (USB2E7196)
Spectra Averaged: 20 (USB2E7196)
Boxcar Smoothing: 10 (USB2E7196)
Correct for Electrical Dark: No (USB2E7196)
Strobe/Lamp Enabled: No (USB2E7196)
Correct for Detector Non-linearity: No (USB2E7196)
Correct for Stray Light: No (USB2E7196)
Number of Pixels in Processed Spectrum: 2048
>>>>>Begin Processed Spectral Data<<<<<
339.09	0.00
339.48	198.35
339.86	200.00
340.24	200.55
340.63	203.10
341.01	209.20
341.39	205.80
341.78	207.35
342.16	208.80
342.54	209.15
342.93	198.23
343.31	208.23
343.69	208.80
344.07	209.28
344.46	209.72
344.84	210.07
345.22	210.20
345.60	210.46
345.99	210.65
346.37	210.74
346.75	210.84
347.13	210.88
347.52	210.86
347.90	210.94
348.28	210.99
348.66	211.09
349.05	210.99
349.43	211.04
349.81	211.18
350.19	211.18
350.57	211.25
350.96	211.37
351.34	211.41
351.72	211.44
352.10	211.51
352.48	211.58
352.87	211.60
353.25	211.57
353.63	211.59
354.01	211.65
354.39	211.65
354.77	211.67
355.15	211.84
355.54	211.91
355.92	211.87
356.30	211.90
356.68	212.14
357.06	212.25
357.44	212.28
357.82	212.34
358.20	212.46
358.58	212.47
358.97	212.53
359.35	212.70
359.73	212.85
360.11	212.93
360.49	212.96
360.87	213.04
361.25	213.17
361.63	213.30
362.01	213.31
362.39	213.38
362.77	213.46
363.15	213.45
363.53	213.45
363.91	213.53
364.29	213.54
364.67	213.21
365.05	213.18
365.43	213.21
365.81	213.18
366.19	213.27
366.57	213.40
366.95	213.32
367.33	213.26
367.71	213.19
368.09	213.30
368.47	213.31
368.85	213.31
369.23	213.33
369.61	213.26
369.99	213.37
370.37	213.46
370.75	213.59
371.13	213.55
371.51	213.50
371.89	213.51
372.27	213.53
372.65	213.57
373.03	213.60
373.41	213.53
373.78	213.56
374.16	213.44
374.54	213.30
374.92	213.25
375.30	213.17
375.68	213.08
376.06	213.00
376.44	212.90
376.82	212.84
377.19	212.82
377.57	212.71
377.95	212.56
378.33	212.45
378.71	212.21
379.09	212.22
379.47	212.21
379.84	212.09
380.22	212.08
380.60	211.94
380.98	211.86
381.36	211.81
381.73	211.66
382.11	211.55
382.49	211.50
382.87	211.47
383.25	211.44
383.62	211.81
384.00	211.64
384.38	211.67
384.76	211.74
385.13	211.69
385.51	211.68
385.89	211.58
386.27	211.60
386.64	211.62
387.02	211.50
387.40	211.40
387.78	211.44
388.15	211.35
388.53	211.33
388.91	211.29
389.29	211.27
389.66	211.27
390.04	211.29
390.42	211.27
390.79	211.25
391.17	211.24
391.55	210.82
391.92	210.85
392.30	210.92
392.68	210.78
393.05	210.76
393.43	210.75
393.81	210.77
394.18	210.63
394.56	210.60
394.94	210.68
395.31	210.65
395.69	210.73
396.06	210.76
396.44	210.76
396.82	210.81
397.19	210.95
397.57	210.93
397.95	210.90
398.32	210.85
398.70	210.87
399.07	210.84
399.45	210.85
399.82	210.81
400.20	210.72
400.58	210.71
400.95	210.60
401.33	210.67
401.70	210.96
402.08	210.97
402.45	210.98
402.83	210.98
403.20	210.99
403.58	210.93
403.95	210.98
404.33	211.10
404.71	211.13
405.08	211.31
405.46	211.40
405.83	211.55
406.21	211.63
406.58	211.75
406.96	211.87
407.33	212.04
407.70	212.17
408.08	212.56
408.45	212.75
408.83	212.98
409.20	213.10
409.58	213.07
409.95	213.31
410.33	213.57
410.70	213.71
411.08	213.95
411.45	214.23
411.82	214.42
412.20	214.67
412.57	215.13
412.95	215.17
413.32	215.52
413.69	215.83
414.07	216.21
414.44	216.57
414.82	217.02
415.19	217.54
415.56	218.08
415.94	218.45
416.31	219.11
416.68	219.73
417.06	220.44
417.43	221.15
417.81	221.95
418.18	222.72
418.55	223.62
418.93	224.58
419.30	225.47
419.67	226.51
420.04	227.56
420.42	228.47
420.79	229.98
421.16	231.25
421.54	232.72
421.91	234.09
422.28	235.47
422.66	236.96
423.03	238.56
423.40	240.01
423.77	241.56
424.15	243.16
424.52	244.82
424.89	246.72
425.26	248.44
425.64	250.07
426.01	251.89
426.38	253.85
426.75	255.87
427.13	257.94
427.50	260.06
427.87	262.31
428.24	264.57
428.61	266.37
428.99	268.80
429.36	271.11
429.73	273.47
430.10	276.03
430.47	278.60
430.85	281.05
431.22	283.90
431.59	287.07
431.96	289.93
432.33	293.02
432.70	295.95
433.08	299.54
433.45	302.95
433.82	306.38
434.19	310.06
434.56	313.73
434.93	317.06
435.30	320.61
435.68	324.49
436.05	328.27
436.42	332.11
436.79	335.60
437.16	339.38
437.53	343.41
437.90	347.24
438.27	351.21
438.64	355.20
439.01	358.98
439.38	362.23
439.75	365.33
440.13	369.05
440.50	372.63
440.87	375.39
441.24	378.47
441.61	381.59
441.98	383.96
442.35	386.65
442.72	389.65
443.09	392.37
443.46	393.92
443.83	395.10
444.20	396.17
444.57	397.54
444.94	398.21
445.31	399.04
445.68	400.25
446.05	400.55
446.42	400.39
446.79	399.97
447.16	399.35
447.53	399.21
447.90	397.87
448.27	396.39
448.64	394.55
449.01	392.92
449.37	390.55
449.74	388.15
450.11	385.56
450.48	382.26
450.85	378.86
451.22	376.10
451.59	373.45
451.96	370.83
452.33	367.35
452.70	364.28
453.07	360.52
453.43	356.29
453.80	352.65
454.17	349.06
454.54	345.69
454.91	342.28
455.28	338.76
455.65	335.47
456.02	332.73
456.38	329.88
456.75	326.59
457.12	323.71
457.49	320.86
457.86	317.85
458.23	315.67
458.59	313.18
458.96	310.61
459.33	308.31
459.70	306.09
460.07	304.25
460.43	302.15
460.80	300.15
461.17	298.53
461.54	296.59
461.91	294.76
462.27	293.10
462.64	291.51
463.01	289.89
463.38	288.37
463.74	286.27
464.11	284.80
464.48	283.52
464.85	282.08
465.21	281.14
465.58	280.03
465.95	278.54
466.32	277.38
466.68	276.22
467.05	275.08
467.42	273.93
467.78	272.83
468.15	271.77
468.52	271.06
468.88	269.87
469.25	268.97
469.62	268.35
469.98	267.51
470.35	266.77
470.72	266.03
471.08	265.15
471.45	264.52
471.82	263.97
472.18	263.27
472.55	262.82
472.92	262.17
473.28	261.65
473.65	261.19
474.02	260.74
474.38	260.50
474.75	260.14
475.11	259.76
475.48	259.49
475.85	259.23
476.21	258.86
476.58	258.75
476.94	258.53
477.31	258.25
477.67	258.05
478.04	257.92
478.41	257.73
478.77	257.95
479.14	257.77
479.50	257.66
479.87	257.70
480.23	257.59
480.60	257.53
480.96	257.48
481.33	257.69
481.69	257.76
482.06	257.71
482.42	257.97
482.79	258.06
483.15	258.25
483.52	258.51
483.88	258.66
484.25	258.78
484.61	259.13
484.98	259.42
485.34	259.88
485.71	260.28
486.07	260.73
486.44	260.91
486.80	261.48
487.17	262.06
487.53	262.70
487.90	263.48
488.26	264.31
488.62	265.10
488.99	265.73
489.35	266.51
489.72	267.31
490.08	268.07
490.44	268.97
490.81	269.83
491.17	270.81
491.54	271.94
491.90	273.14
492.26	274.35
492.63	275.55
492.99	276.73
493.36	277.96
493.72	279.48
494.08	280.97
494.45	282.49
494.81	284.06
495.17	285.56
495.54	287.13
495.90	288.69
496.26	290.40
496.63	292.19
496.99	294.10
497.35	296.12
497.72	298.21
498.08	300.28
498.44	302.49
498.80	304.77
499.17	307.14
499.53	309.43
499.89	311.91
500.26	314.42
500.62	316.90
500.98	319.78
501.34	322.33
501.71	325.26
502.07	328.13
502.43	330.99
502.79	334.01
503.16	337.17
503.52	340.41
503.88	343.66
504.24	347.11
504.60	350.66
504.97	354.18
505.33	357.71
505.69	361.51
506.05	365.39
506.41	369.25
506.78	372.96
507.14	376.85
507.50	380.76
507.86	384.89
508.22	389.14
508.59	393.13
508.95	397.46
509.31	401.83
509.67	406.30
510.03	410.86
510.39	415.49
510.75	420.14
511.12	424.89
511.48	429.75
511.84	434.54
512.20	439.35
512.56	444.35
512.92	449.46
513.28	454.52
513.64	459.60
514.00	464.64
514.37	469.97
514.73	475.32
515.09	480.81
515.45	486.19
515.81	491.60
516.17	497.05
516.53	502.57
516.89	507.88
517.25	513.54
517.61	519.20
517.97	524.81
518.33	530.55
518.69	536.25
519.05	542.11
519.41	548.09
519.77	554.22
520.13	560.01
520.49	565.85
520.85	571.96
521.21	578.28
521.57	584.38
521.93	590.30
522.29	596.55
522.65	602.63
523.01	608.77
523.37	614.73
523.73	620.96
524.09	627.26
524.45	633.64
524.81	639.82
525.17	646.26
525.53	652.61
525.89	658.79
526.25	665.26
526.61	671.33
526.97	677.50
527.33	683.49
527.68	690.27
528.04	696.50
528.40	702.49
528.76	708.45
529.12	714.69
529.48	721.27
529.84	727.42
530.20	733.66
530.56	740.10
530.91	746.72
531.27	753.27
531.63	759.53
531.99	765.80
532.35	771.90
532.71	777.92
533.07	784.23
533.42	790.61
533.78	796.61
534.14	802.71
534.50	808.38
534.86	814.48
535.21	819.74
535.57	825.81
535.93	831.55
536.29	837.27
536.65	843.24
537.00	848.55
537.36	854.00
537.72	859.38
538.08	864.61
538.44	869.84
538.79	874.96
539.15	880.06
539.51	885.09
539.87	890.32
540.22	895.30
540.58	900.50
540.94	905.19
541.29	909.89
541.65	914.53
542.01	919.32
542.37	923.91
542.72	928.46
543.08	932.64
543.44	937.32
543.79	941.33
544.15	945.35
544.51	949.75
544.87	953.91
545.22	957.93
545.58	961.63
545.94	965.15
546.29	968.57
546.65	971.88
547.01	975.31
547.36	978.65
547.72	982.05
548.07	984.68
548.43	987.44
548.79	990.10
549.14	992.68
549.50	995.47
549.86	997.73
550.21	1000.08
550.57	1002.60
550.92	1004.42
551.28	1006.72
551.64	1008.64
551.99	1010.51
552.35	1012.39
552.70	1014.20
553.06	1015.98
553.41	1017.90
553.77	1019.80
554.13	1021.67
554.48	1023.46
554.84	1024.93
555.19	1025.99
555.55	1027.36
555.90	1028.54
556.26	1029.70
556.61	1030.82
556.97	1031.34
557.32	1032.37
557.68	1033.28
558.03	1033.95
558.39	1034.97
558.74	1035.86
559.10	1036.62
559.45	1037.55
559.81	1038.35
560.16	1038.66
560.52	1039.39
560.87	1039.76
561.23	1039.99
561.58	1040.50
561.94	1040.50
562.29	1040.49
562.64	1040.85
563.00	1040.88
563.35	1041.44
563.71	1041.97
564.06	1042.17
564.42	1042.76
564.77	1043.22
565.12	1043.65
565.48	1043.93
565.83	1044.04
566.19	1044.15
566.54	1043.82
566.89	1043.27
567.25	1043.12
567.60	1043.24
567.96	1043.13
568.31	1043.02
568.66	1042.56
569.02	1041.68
569.37	1040.67
569.72	1040.11
570.08	1039.40
570.43	1038.54
570.78	1037.21
571.14	1035.72
571.49	1034.62
571.84	1033.70
572.20	1031.84
572.55	1030.57
572.90	1028.90
573.26	1027.22
573.61	1025.51
573.96	1023.94
574.31	1022.26
574.67	1020.22
575.02	1017.86
575.37	1015.68
575.72	1013.11
576.08	1011.27
576.43	1009.08
576.78	1007.50
577.13	1005.63
577.49	1003.54
577.84	1001.79
578.19	1000.14
578.54	998.69
578.90	997.05
579.25	994.73
579.60	992.88
579.95	990.31
580.30	988.34
580.66	986.71
581.01	984.58
581.36	982.69
581.71	980.47
582.06	978.50
582.42	976.82
582.77	974.43
583.12	972.79
583.47	970.67
583.82	968.96
584.17	966.73
584.53	964.82
584.88	962.78
585.23	960.55
585.58	958.42
585.93	956.04
586.28	953.91
586.63	951.89
586.98	949.86
587.34	948.25
587.69	946.01
588.04	943.64
588.39	941.63
588.74	939.12
589.09	937.32
589.44	935.00
589.79	932.70
590.14	930.93
590.49	928.57
590.84	926.53
591.19	924.64
591.54	922.30
591.89	919.55
592.25	917.48
592.60	915.09
592.95	912.58
593.30	909.89
593.65	907.30
594.00	904.73
594.35	903.27
594.70	900.56
595.05	898.30
595.40	895.89
595.75	893.09
596.10	891.10
596.45	888.73
596.80	886.74
597.15	884.53
597.50	882.03
597.85	880.06
598.19	877.45
598.54	874.92
598.89	872.93
599.24	871.22
599.59	868.99
599.94	866.97
600.29	864.85
600.64	862.99
600.99	860.71
601.34	858.65
601.69	855.51
602.04	853.23
602.39	850.94
602.74	848.80
603.08	847.14
603.43	845.19
603.78	843.05
604.13	840.54
604.48	838.38
604.83	836.56
605.18	834.56
605.53	832.39
605.87	830.28
606.22	828.09
606.57	825.82
606.92	823.27
607.27	820.88
607.62	818.52
607.96	816.40
608.31	814.22
608.66	811.88
609.01	809.56
609.36	807.30
609.70	804.94
610.05	802.32
610.40	799.74
610.75	796.98
611.10	794.40
611.44	791.74
611.79	788.79
612.14	785.70
612.49	782.53
612.83	779.84
613.18	776.74
613.53	773.79
613.88	770.57
614.22	767.91
614.57	764.91
614.92	762.07
615.27	758.96
615.61	756.07
615.96	753.29
616.31	750.45
616.65	747.87
617.00	745.05
617.35	742.29
617.70	739.20
618.04	735.98
618.39	732.83
618.74	730.03
619.08	727.16
619.43	724.28
619.78	721.38
620.12	718.44
620.47	715.70
620.82	712.65
621.16	709.49
621.51	706.47
621.85	703.51
622.20	700.59
622.55	697.49
622.89	694.47
623.24	691.44
623.59	688.28
623.93	685.19
624.28	682.30
624.62	679.62
624.97	676.88
625.32	674.20
625.66	671.47
626.01	668.56
626.35	665.77
626.70	663.05
627.04	660.65
627.39	657.85
627.73	655.11
628.08	652.47
628.43	649.84
628.77	647.06
629.12	644.41
629.46	641.78
629.81	639.28
630.15	636.70
630.50	633.91
630.84	631.32
631.19	628.71
631.53	626.05
631.88	622.95
632.22	620.01
632.57	617.52
632.91	614.80
633.26	612.32
633.60	609.69
633.95	607.29
634.29	604.26
634.64	601.82
634.98	599.05
635.32	596.52
635.67	594.15
636.01	591.57
636.36	588.98
636.70	586.46
637.05	584.00
637.39	581.43
637.73	579.15
638.08	576.97
638.42	574.61
638.77	572.25
639.11	569.85
639.45	567.38
639.80	564.78
640.14	562.25
640.49	559.65
640.83	557.17
641.17	554.54
641.52	552.13
641.86	549.50
642.20	547.13
642.55	544.61
642.89	542.09
643.23	539.53
643.58	537.34
643.92	534.63
644.26	532.01
644.61	529.57
644.95	527.00
645.29	524.25
645.64	521.67
645.98	519.10
646.32	516.86
646.66	514.39
647.01	512.02
647.35	509.78
647.69	507.29
648.04	505.02
648.38	502.69
648.72	500.32
649.06	498.01
649.41	495.57
649.75	493.16
650.09	490.84
650.43	488.54
650.78	485.93
651.12	483.70
651.46	481.50
651.80	479.18
652.14	477.00
652.49	474.87
652.83	472.57
653.17	470.05
653.51	467.56
653.85	465.41
654.20	463.12
654.54	460.66
654.88	458.29
655.22	456.09
655.56	453.65
655.90	451.29
656.25	448.93
656.59	446.70
656.93	444.59
657.27	442.43
657.61	440.17
657.95	437.97
658.29	435.88
658.64	433.70
658.98	431.47
659.32	429.05
659.66	426.88
660.00	424.66
660.34	422.66
660.68	420.53
661.02	418.40
661.36	416.46
661.70	414.49
662.05	412.64
662.39	410.71
662.73	408.88
663.07	407.20
663.41	405.53
663.75	403.64
664.09	401.75
664.43	399.72
664.77	397.94
665.11	396.21
665.45	394.28
665.79	392.51
666.13	390.88
666.47	389.14
666.81	387.37
667.15	385.64
667.49	384.10
667.83	382.55
668.17	380.89
668.51	379.18
668.85	377.66
669.19	376.31
669.53	374.59
669.87	372.95
670.21	371.32
670.55	369.61
670.89	368.36
671.23	366.88
671.57	365.57
671.91	364.07
672.25	362.63
672.58	361.38
672.92	359.91
673.26	358.50
673.60	357.32
673.94	355.92
674.28	354.68
674.62	353.37
674.96	352.09
675.30	350.90
675.64	349.57
675.97	348.14
676.31	346.75
676.65	345.59
676.99	344.46
677.33	343.08
677.67	341.89
678.01	340.36
678.34	339.10
678.68	337.87
679.02	336.63
679.36	335.46
679.70	334.14
680.04	333.00
680.37	331.85
680.71	330.68
681.05	329.56
681.39	328.36
681.73	327.15
682.06	325.94
682.40	324.86
682.74	323.80
683.08	322.84
683.42	321.58
683.75	320.50
684.09	319.36
684.43	318.35
684.77	317.18
685.10	316.17
685.44	315.05
685.78	313.87
686.12	312.96
686.45	311.86
686.79	310.80
687.13	309.80
687.46	308.70
687.80	307.77
688.14	306.71
688.48	305.77
688.81	304.65
689.15	303.71
689.49	302.59
689.82	301.60
690.16	300.50
690.50	299.58
690.83	298.53
691.17	297.43
691.51	296.50
691.84	295.62
692.18	294.74
692.52	293.95
692.85	293.21
693.19	292.39
693.52	291.51
693.86	290.66
694.20	289.80
694.53	288.97
694.87	288.06
695.21	287.16
695.54	286.22
695.88	285.33
696.21	284.43
696.55	283.68
696.88	282.78
697.22	282.00
697.56	281.29
697.89	280.45
698.23	279.77
698.56	278.92
698.90	278.24
699.23	277.42
699.57	276.58
699.90	275.82
700.24	275.05
700.58	274.34
700.91	273.68
701.25	273.14
701.58	272.44
701.92	271.79
702.25	271.25
702.59	270.60
702.92	270.08
703.26	269.46
703.59	268.87
703.93	268.58
704.26	267.99
704.60	267.34
704.93	266.71
705.26	266.08
705.60	265.51
705.93	264.94
706.27	264.52
706.60	264.03
706.94	263.54
707.27	262.86
707.61	262.34
707.94	261.79
708.27	261.10
708.61	260.56
708.94	259.94
709.28	259.32
709.61	258.82
709.94	258.33
710.28	257.89
710.61	257.44
710.95	256.57
711.28	256.34
711.61	255.83
711.95	255.45
712.28	254.85
712.61	254.44
712.95	254.08
713.28	253.73
713.61	253.19
713.95	252.66
714.28	252.23
714.61	251.71
714.95	251.27
715.28	250.73
715.61	250.25
715.95	249.87
716.28	249.45
716.61	248.97
716.95	248.50
717.28	248.05
717.61	247.62
717.94	247.26
718.28	246.57
718.61	246.19
718.94	245.75
719.27	245.45
719.61	245.11
719.94	244.60
720.27	243.96
720.60	243.63
720.94	243.29
721.27	242.90
721.60	242.60
721.93	242.22
722.27	242.05
722.60	241.80
722.93	241.35
723.26	241.08
723.59	240.78
723.93	240.46
724.26	240.16
724.59	239.76
724.92	239.52
725.25	239.36
725.59	239.01
725.92	238.82
726.25	238.54
726.58	238.22
726.91	237.98
727.24	237.82
727.57	237.54
727.91	237.17
728.24	237.01
728.57	236.70
728.90	236.49
729.23	236.14
729.56	236.04
729.89	235.81
730.22	235.45
730.55	235.19
730.89	234.95
731.22	234.70
731.55	234.48
731.88	234.20
732.21	233.94
732.54	233.75
732.87	233.50
733.20	233.29
733.53	233.12
733.86	232.85
734.19	232.57
734.52	232.36
734.85	232.38
735.18	232.17
735.51	232.10
735.84	231.91
736.17	231.74
736.50	231.30
736.83	231.51
737.16	231.37
737.49	231.24
737.82	230.98
738.15	230.76
738.48	230.58
738.81	230.35
739.14	230.09
739.47	229.82
739.80	229.63
740.13	229.45
740.46	229.16
740.79	229.00
741.12	228.79
741.45	228.61
741.78	228.29
742.11	228.13
742.44	227.79
742.77	227.68
743.10	227.48
743.43	227.29
743.75	226.72
744.08	227.00
744.41	226.76
744.74	226.64
745.07	226.48
745.40	226.42
745.73	226.46
746.06	226.22
746.39	226.17
746.71	225.90
747.04	225.71
747.37	225.59
747.70	225.48
748.03	225.38
748.36	225.27
748.68	225.09
749.01	224.89
749.34	224.84
749.67	224.66
750.00	224.56
750.33	224.70
750.65	224.67
750.98	224.12
751.31	224.00
751.64	223.89
751.97	223.95
752.29	223.71
752.62	223.41
752.95	223.29
753.28	223.09
753.60	222.98
753.93	222.97
754.26	222.80
754.59	222.57
754.91	222.38
755.24	222.22
755.57	222.08
755.90	221.91
756.22	221.72
756.55	221.53
756.88	221.30
757.20	221.00
757.53	220.75
757.86	220.61
758.19	220.54
758.51	220.36
758.84	220.08
759.17	219.96
759.49	219.90
759.82	220.12
760.15	220.07
760.47	220.01
760.80	219.82
761.13	219.80
761.45	219.70
761.78	219.68
762.11	219.61
762.43	219.51
762.76	219.46
763.08	219.43
763.41	219.41
763.74	219.36
764.06	219.21
764.39	219.18
764.71	219.10
765.04	218.95
765.37	218.92
765.69	218.82
766.02	218.71
766.34	218.59
766.67	218.27
767.00	218.22
767.32	218.36
767.65	218.45
767.97	218.41
768.30	218.42
768.62	218.35
768.95	218.26
769.27	218.20
769.60	218.25
769.92	218.09
770.25	217.94
770.57	217.87
770.90	217.84
771.22	217.71
771.55	217.65
771.87	217.62
772.20	217.52
772.52	217.78
772.85	218.13
773.17	218.07
773.50	217.95
773.82	217.82
774.15	217.58
774.47	217.36
774.80	217.31
775.12	217.15
775.45	217.01
775.77	216.96
776.09	216.90
776.42	216.71
776.74	216.79
777.07	216.73
777.39	216.75
777.72	216.74
778.04	216.78
778.36	216.76
778.69	216.74
779.01	216.75
779.33	216.38
779.66	215.97
779.98	215.88
780.31	215.87
780.63	216.05
780.95	216.06
781.28	215.99
781.60	215.86
781.92	215.84
782.25	215.92
782.57	215.89
782.89	215.88
783.22	215.85
783.54	215.83
783.86	215.82
784.19	215.67
784.51	215.65
784.83	215.52
785.16	215.49
785.48	215.51
785.80	215.43
786.12	215.46
786.45	215.46
786.77	215.48
787.09	215.46
787.42	215.24
787.74	215.23
788.06	215.23
788.38	215.15
788.71	215.14
789.03	215.06
789.35	215.11
789.67	214.95
789.99	214.96
790.32	214.80
790.64	214.76
790.96	215.06
791.28	214.86
791.61	214.84
791.93	214.84
792.25	214.67
792.57	214.98
792.89	214.83
793.21	214.80
793.54	214.70
793.86	214.63
794.18	214.57
794.50	214.49
794.82	214.42
795.14	214.48
795.47	214.48
795.79	214.45
796.11	214.25
796.43	214.31
796.75	214.25
797.07	214.30
797.39	214.32
797.71	214.04
798.04	214.09
798.36	214.11
798.68	214.07
799.00	214.16
799.32	213.88
799.64	213.93
799.96	213.92
800.28	214.02
800.60	214.01
800.92	214.04
801.24	213.98
801.56	213.99
801.89	213.92
802.21	213.83
802.53	213.75
802.85	213.85
803.17	213.91
803.49	213.84
803.81	213.77
804.13	213.68
804.45	213.53
804.77	213.50
805.09	213.47
805.41	213.25
805.73	213.15
806.05	213.05
806.37	213.04
806.69	212.93
807.01	212.86
807.33	212.91
807.65	212.74
807.97	212.82
808.28	212.82
808.60	212.77
808.92	212.85
809.24	213.04
809.56	212.99
809.88	212.89
810.20	212.94
810.52	212.97
810.84	212.94
811.16	212.96
811.48	212.96
811.80	213.06
812.12	213.19
812.43	213.29
812.75	213.28
813.07	213.23
813.39	213.24
813.71	213.20
814.03	213.09
814.35	213.13
814.67	212.95
814.98	212.90
815.30	212.93
815.62	212.82
815.94	212.60
816.26	212.59
816.58	212.57
816.89	212.52
817.21	212.42
817.53	212.40
817.85	212.43
818.17	212.43
818.48	212.29
818.80	212.35
819.12	212.15
819.44	212.14
819.76	212.07
820.07	212.10
820.39	212.03
820.71	212.08
821.03	212.09
821.34	212.12
821.66	212.11
821.98	212.10
822.30	212.14
822.61	212.28
822.93	212.27
823.25	212.20
823.57	212.28
823.88	212.42
824.20	212.43
824.52	212.48
824.83	212.45
825.15	212.46
825.47	212.44
825.79	212.54
826.10	212.54
826.42	212.60
826.74	212.63
827.05	212.67
827.37	212.59
827.69	212.59
828.00	212.61
828.32	212.63
828.64	212.60
828.95	212.73
829.27	212.53
829.58	212.48
829.90	212.58
830.22	212.53
830.53	212.39
830.85	212.27
831.17	212.15
831.48	212.14
831.80	212.08
832.11	212.01
832.43	211.93
832.75	211.87
833.06	211.99
833.38	211.90
833.69	211.84
834.01	211.88
834.32	211.86
834.64	211.79
834.96	211.86
835.27	211.86
835.59	211.68
835.90	211.69
836.22	211.69
836.53	211.59
836.85	211.55
837.16	211.86
837.48	211.97
837.79	212.10
838.11	212.11
838.42	212.08
838.74	212.10
839.05	212.13
839.37	212.09
839.68	211.90
840.00	211.90
840.31	211.95
840.63	211.99
840.94	211.94
841.26	211.86
841.57	211.77
841.88	211.79
842.20	211.80
842.51	211.78
842.83	211.76
843.14	212.09
843.46	212.10
843.77	211.86
844.08	211.85
844.40	211.67
844.71	211.65
845.03	211.58
845.34	211.53
845.65	211.47
845.97	211.51
846.28	211.57
846.60	211.53
846.91	211.42
847.22	211.39
847.54	211.46
847.85	211.56
848.16	211.50
848.48	211.42
848.79	211.53
849.10	211.63
849.42	211.62
849.73	211.24
850.04	211.15
850.36	211.07
850.67	211.11
850.98	211.19
851.30	211.22
851.61	211.29
851.92	211.30
852.23	211.40
852.55	211.45
852.86	211.44
853.17	211.52
853.49	211.64
853.80	211.67
854.11	211.69
854.42	211.75
854.74	211.74
855.05	211.78
855.36	211.61
855.67	211.57
855.99	211.60
856.30	212.12
856.61	212.17
856.92	212.25
857.23	212.17
857.55	212.09
857.86	212.07
858.17	212.12
858.48	212.08
858.79	212.04
859.11	212.03
859.42	212.00
859.73	211.97
860.04	211.95
860.35	211.84
860.66	211.75
860.98	211.66
861.29	211.66
861.60	211.63
861.91	211.75
862.22	211.67
862.53	211.59
862.84	211.08
863.16	211.13
863.47	210.97
863.78	210.95
864.09	211.00
864.40	211.03
864.71	211.00
865.02	211.04
865.33	211.04
865.64	210.96
865.95	210.94
866.27	211.10
866.58	211.13
866.89	211.20
867.20	211.14
867.51	211.10
867.82	211.12
868.13	211.25
868.44	211.08
868.75	211.20
869.06	211.23
869.37	211.25
869.68	211.12
869.99	211.21
870.30	211.30
870.61	211.36
870.92	211.23
871.23	211.21
871.54	211.30
871.85	211.32
872.16	211.34
872.47	211.33
872.78	211.12
873.09	211.05
873.40	211.04
873.71	211.13
874.02	211.19
874.33	211.20
874.64	211.15
874.95	211.22
875.26	211.17
875.56	211.10
875.87	211.15
876.18	211.14
876.49	211.49
876.80	211.42
877.11	211.30
877.42	211.30
877.73	211.26
878.04	211.22
878.35	211.28
878.66	211.25
878.96	211.21
879.27	211.25
879.58	211.22
879.89	211.20
880.20	211.30
880.51	211.28
880.82	211.28
881.12	211.30
881.43	211.30
881.74	211.23
882.05	211.25
882.36	211.27
882.67	211.34
882.97	210.95
883.28	210.93
883.59	210.91
883.90	211.09
884.21	211.22
884.51	211.13
884.82	211.13
885.13	211.14
885.44	211.20
885.74	211.22
886.05	211.25
886.36	211.23
886.67	211.09
886.98	211.27
887.28	211.33
887.59	211.27
887.90	211.30
888.20	211.31
888.51	211.40
888.82	211.27
889.13	211.29
889.43	211.61
889.74	211.62
890.05	211.61
890.35	211.57
890.66	211.50
890.97	211.50
891.28	211.40
891.58	211.41
891.89	211.39
892.20	211.30
892.50	211.29
892.81	211.26
893.12	211.27
893.42	211.07
893.73	211.11
894.04	211.13
894.34	211.10
894.65	211.13
894.95	211.06
895.26	211.17
895.57	211.35
895.87	210.98
896.18	211.07
896.48	211.16
896.79	211.14
897.10	211.12
897.40	211.19
897.71	211.28
898.01	211.33
898.32	211.43
898.63	211.45
898.93	211.50
899.24	211.55
899.54	211.52
899.85	211.50
900.15	211.40
900.46	211.42
900.76	211.50
901.07	211.42
901.38	211.41
901.68	211.40
901.99	211.23
902.29	211.31
902.60	211.25
902.90	211.19
903.21	211.11
903.51	211.10
903.82	211.14
904.12	211.05
904.43	210.99
904.73	210.95
905.03	210.99
905.34	211.32
905.64	211.28
905.95	211.28
906.25	211.35
906.56	211.37
906.86	211.35
907.17	211.24
907.47	211.32
907.77	211.32
908.08	211.21
908.38	211.18
908.69	211.18
908.99	211.17
909.30	211.23
909.60	211.30
909.90	211.32
910.21	211.20
910.51	211.24
910.81	211.26
911.12	211.24
911.42	211.22
911.73	210.82
912.03	210.83
912.33	210.81
912.64	210.77
912.94	210.79
913.24	210.71
913.55	210.68
913.85	210.69
914.15	210.74
914.46	210.87
914.76	210.94
915.06	210.94
915.37	210.91
915.67	210.91
915.97	210.84
916.27	210.78
916.58	210.85
916.88	210.83
917.18	210.76
917.49	211.05
917.79	211.00
918.09	211.07
918.39	211.17
918.70	211.20
919.00	211.20
919.30	211.34
919.60	211.39
919.91	211.39
920.21	211.39
920.51	211.35
920.81	211.34
921.12	211.33
921.42	211.35
921.72	211.44
922.02	211.43
922.32	211.52
922.63	211.56
922.93	211.69
923.23	211.65
923.53	211.61
923.83	211.35
924.13	211.39
924.44	211.37
924.74	211.49
925.04	211.53
925.34	211.57
925.64	211.42
925.94	211.33
926.24	211.49
926.55	211.40
926.85	211.44
927.15	211.39
927.45	211.38
927.75	211.37
928.05	211.35
928.35	211.36
928.65	211.39
928.95	211.46
929.26	211.36
929.56	211.49
929.86	211.63
930.16	211.68
930.46	211.68
930.76	211.69
931.06	211.48
931.36	211.45
931.66	211.47
931.96	211.47
932.26	211.54
932.56	211.49
932.86	211.52
933.16	211.52
933.46	211.47
933.76	211.41
934.06	211.45
934.36	211.56
934.66	211.51
934.96	211.50
935.26	211.46
935.56	211.50
935.86	211.37
936.16	211.29
936.46	211.13
936.76	211.10
937.06	211.07
937.36	211.18
937.66	211.26
937.96	211.27
938.26	211.17
938.56	211.28
938.86	211.25
939.16	211.37
939.46	211.41
939.76	211.43
940.06	211.44
940.35	211.38
940.65	211.20
940.95	211.24
941.25	211.18
941.55	211.08
941.85	211.02
942.15	211.09
942.45	211.20
942.75	211.20
943.04	211.24
943.34	211.35
943.64	211.30
943.94	211.16
944.24	211.12
944.54	211.11
944.84	211.00
945.13	210.95
945.43	210.87
945.73	210.84
946.03	210.87
946.33	210.84
946.62	210.83
946.92	210.83
947.22	210.78
947.52	210.75
947.82	210.86
948.11	210.84
948.41	210.76
948.71	210.65
949.01	210.74
949.31	210.69
949.60	210.64
949.90	210.63
950.20	210.66
950.50	210.69
950.79	210.76
951.09	210.86
951.39	210.80
951.69	210.78
951.98	210.84
952.28	210.87
952.58	210.86
952.87	210.82
953.17	210.90
953.47	210.89
953.76	210.95
954.06	210.87
954.36	210.81
954.66	210.90
954.95	211.03
955.25	211.03
955.55	211.11
955.84	211.02
956.14	211.05
956.44	211.03
956.73	210.95
957.03	210.92
957.32	210.87
957.62	210.94
957.92	211.01
958.21	210.96
958.51	211.31
958.81	211.44
959.10	211.54
959.40	211.52
959.69	211.63
959.99	211.61
960.29	211.63
960.58	211.64
960.88	211.74
961.17	211.70
961.47	211.71
961.76	211.66
962.06	211.75
962.36	211.72
962.65	211.68
962.95	211.65
963.24	211.63
963.54	211.66
963.83	211.63
964.13	211.56
964.42	211.54
964.72	211.30
965.01	211.27
965.31	211.25
965.60	211.19
965.90	211.33
966.19	211.26
966.49	211.34
966.78	211.32
967.08	211.25
967.37	211.20
967.67	211.22
967.96	211.21
968.26	211.19
968.55	211.25
968.85	211.39
969.14	211.43
969.43	211.46
969.73	211.41
970.02	211.40
970.32	211.39
970.61	211.35
970.91	211.26
971.20	211.17
971.49	211.14
971.79	211.19
972.08	211.00
972.38	211.07
972.67	210.92
972.96	211.02
973.26	210.89
973.55	210.99
973.85	210.97
974.14	210.97
974.43	211.02
974.73	210.95
975.02	210.87
975.31	210.92
975.61	210.91
975.90	210.92
976.19	210.93
976.49	210.96
976.78	210.95
977.07	210.91
977.37	210.93
977.66	210.98
977.95	210.92
978.24	210.90
978.54	210.86
978.83	210.94
979.12	210.87
979.42	210.95
979.71	210.93
980.00	210.85
980.29	210.85
980.59	210.69
980.88	210.76
981.17	210.72
981.46	210.68
981.76	210.65
982.05	210.77
982.34	210.77
982.63	210.83
982.93	210.85
983.22	210.94
983.51	210.97
983.80	210.96
984.09	211.05
984.39	211.07
984.68	211.05
984.97	211.06
985.26	211.11
985.55	211.14
985.85	211.03
986.14	211.12
986.43	211.17
986.72	211.16
987.01	211.06
987.30	211.13
987.59	211.13
987.89	211.14
988.18	210.96
988.47	210.90
988.76	210.76
989.05	210.69
989.34	210.64
989.63	210.71
989.92	210.69
990.22	210.63
990.51	210.58
990.80	210.64
991.09	210.64
991.38	210.61
991.67	210.50
991.96	210.42
992.25	210.45
992.54	210.37
992.83	210.44
993.12	210.40
993.41	210.38
993.70	210.49
993.99	210.53
994.28	210.61
994.58	210.70
994.87	210.75
995.16	210.75
995.45	210.68
995.74	210.56
996.03	210.58
996.32	210.62
996.61	210.76
996.90	210.73
997.19	210.64
997.48	210.58
997.77	210.62
998.06	210.74
998.34	210.70
998.63	210.67
998.92	210.68
999.21	210.76
999.50	210.77
999.79	210.68
1000.08	210.75
1000.37	210.77
1000.66	210.71
1000.95	210.79
1001.24	210.87
1001.53	210.91
1001.82	210.89
1002.11	210.77
1002.40	210.77
1002.68	210.76
1002.97	211.04
1003.26	211.08
1003.55	211.07
1003.84	211.15
1004.13	211.26
1004.42	211.20
1004.71	211.30
1004.99	211.16
1005.28	211.32
1005.57	211.34
1005.86	211.26
1006.15	211.22
1006.44	211.12
1006.72	211.16
1007.01	211.09
1007.30	211.02
1007.59	211.01
1007.88	211.01
1008.17	211.09
1008.45	211.04
1008.74	210.90
1009.03	210.67
1009.32	210.66
1009.60	210.71
1009.89	210.68
1010.18	210.57
1010.47	210.54
1010.76	210.46
1011.04	210.58
1011.33	210.52
1011.62	210.44
1011.91	210.53
1012.19	210.46
1012.48	210.47
1012.77	210.43
1013.05	210.57
1013.34	210.55
1013.63	210.57
1013.92	210.62
1014.20	210.58
1014.49	210.57
1014.78	210.62
1015.06	210.55
1015.35	210.57
1015.64	210.58
1015.92	210.56
1016.21	210.50
1016.50	210.50
1016.78	210.53
1017.07	210.52
1017.36	210.47
1017.64	210.48
1017.93	210.45
1018.22	210.50
1018.50	210.53
1018.79	210.55
1019.08	210.40
1019.36	210.46
1019.65	210.43
1019.93	210.54
1020.22	210.58
1020.51	210.71
1020.79	210.71
1021.08	210.80
1021.36	210.40
1021.65	210.75
1021.94	210.00
1022.22	210.55
1022.51	210.55
1022.79	212.90
1023.08	210.70
1023.36	213.10
1023.65	210.70
>>>>>End Processed Spectral Data<<<<<
