SpectraSuite Data File
++++++++++++++++++++++++++++++++++++
Date: Mon Feb 25 17:02:13 EST 2013
User: group
Dark Spectrum Present: No
Reference Spectrum Present: No
Number of Sampled Component Spectra: 1
Spectrometers: USB2E7196
Integration Time (usec): 104000 (USB2E7196)
Spectra Averaged: 20 (USB2E7196)
Boxcar Smoothing: 10 (USB2E7196)
Correct for Electrical Dark: No (USB2E7196)
Strobe/Lamp Enabled: No (USB2E7196)
Correct for Detector Non-linearity: No (USB2E7196)
Correct for Stray Light: No (USB2E7196)
Number of Pixels in Processed Spectrum: 2048
>>>>>Begin Processed Spectral Data<<<<<
339.09	0.00
339.48	198.85
339.86	200.55
340.24	200.90
340.63	202.90
341.01	208.90
341.39	205.70
341.78	207.00
342.16	209.35
342.54	208.60
342.93	198.18
343.31	208.23
343.69	208.77
344.07	209.23
344.46	209.68
344.84	210.03
345.22	210.15
345.60	210.44
345.99	210.55
346.37	210.62
346.75	210.71
347.13	210.75
347.52	210.81
347.90	210.94
348.28	210.91
348.66	210.97
349.05	210.90
349.43	210.91
349.81	210.99
350.19	211.00
350.57	211.02
350.96	211.16
351.34	211.16
351.72	211.25
352.10	211.29
352.48	211.24
352.87	211.35
353.25	211.32
353.63	211.31
354.01	211.44
354.39	211.54
354.77	211.59
355.15	211.75
355.54	211.82
355.92	211.81
356.30	211.94
356.68	212.21
357.06	212.34
357.44	212.34
357.82	212.37
358.20	212.48
358.58	212.55
358.97	212.56
359.35	212.72
359.73	212.90
360.11	213.02
360.49	213.21
360.87	213.26
361.25	213.37
361.63	213.52
362.01	213.55
362.39	213.50
362.77	213.57
363.15	213.62
363.53	213.65
363.91	213.75
364.29	213.79
364.67	213.55
365.05	213.54
365.43	213.63
365.81	213.69
366.19	213.86
366.57	213.94
366.95	213.98
367.33	213.89
367.71	213.76
368.09	213.81
368.47	213.80
368.85	213.67
369.23	213.76
369.61	213.68
369.99	213.84
370.37	213.96
370.75	214.15
371.13	214.02
371.51	213.92
371.89	213.90
372.27	213.88
372.65	213.84
373.03	213.81
373.41	213.71
373.78	213.67
374.16	213.44
374.54	213.37
374.92	213.24
375.30	213.18
375.68	213.10
376.06	213.02
376.44	212.92
376.82	212.97
377.19	212.86
377.57	212.76
377.95	212.54
378.33	212.42
378.71	212.10
379.09	212.07
379.47	212.10
379.84	211.97
380.22	211.87
380.60	211.73
380.98	211.55
381.36	211.51
381.73	211.45
382.11	211.46
382.49	211.38
382.87	211.26
383.25	211.15
383.62	211.53
384.00	211.40
384.38	211.41
384.76	211.38
385.13	211.44
385.51	211.38
385.89	211.30
386.27	211.22
386.64	211.26
387.02	211.11
387.40	210.99
387.78	210.97
388.15	210.96
388.53	210.93
388.91	211.03
389.29	210.99
389.66	210.94
390.04	210.88
390.42	210.90
390.79	210.96
391.17	211.02
391.55	210.61
391.92	210.64
392.30	210.62
392.68	210.56
393.05	210.55
393.43	210.58
393.81	210.62
394.18	210.52
394.56	210.50
394.94	210.70
395.31	210.70
395.69	210.80
396.06	210.80
396.44	210.90
396.82	210.88
397.19	211.07
397.57	211.10
397.95	211.13
398.32	211.04
398.70	211.10
399.07	211.20
399.45	211.23
399.82	211.15
400.20	211.15
400.58	211.18
400.95	211.04
401.33	211.14
401.70	211.42
402.08	211.51
402.45	211.57
402.83	211.61
403.20	211.69
403.58	211.71
403.95	211.88
404.33	211.95
404.71	212.02
405.08	212.28
405.46	212.39
405.83	212.57
406.21	212.73
406.58	212.88
406.96	213.06
407.33	213.27
407.70	213.58
408.08	214.06
408.45	214.35
408.83	214.75
409.20	214.99
409.58	215.10
409.95	215.54
410.33	215.87
410.70	216.24
411.08	216.65
411.45	217.13
411.82	217.56
412.20	218.14
412.57	218.86
412.95	219.09
413.32	219.79
413.69	220.47
414.07	221.25
414.44	222.13
414.82	222.93
415.19	223.85
415.56	224.77
415.94	225.64
416.31	226.80
416.68	227.89
417.06	229.20
417.43	230.55
417.81	231.98
418.18	233.45
418.55	234.97
418.93	236.77
419.30	238.52
419.67	240.45
420.04	242.38
420.42	244.31
420.79	246.85
421.16	249.23
421.54	251.77
421.91	254.27
422.28	256.82
422.66	259.59
423.03	262.45
423.40	265.38
423.77	268.52
424.15	271.57
424.52	274.86
424.89	278.45
425.26	281.83
425.64	285.15
426.01	288.73
426.38	292.62
426.75	296.45
427.13	300.40
427.50	304.44
427.87	308.76
428.24	313.09
428.61	317.15
428.99	321.73
429.36	326.62
429.73	331.66
430.10	336.63
430.47	341.75
430.85	346.84
431.22	352.38
431.59	358.37
431.96	363.93
432.33	370.35
432.70	376.47
433.08	383.60
433.45	390.31
433.82	397.23
434.19	404.72
434.56	412.07
434.93	419.26
435.30	426.48
435.68	434.35
436.05	442.22
436.42	450.10
436.79	457.30
437.16	465.01
437.53	473.07
437.90	481.10
438.27	489.05
438.64	497.48
439.01	505.27
439.38	511.97
439.75	518.90
440.13	526.53
440.50	533.75
440.87	539.86
441.24	546.24
441.61	553.09
441.98	558.39
442.35	564.61
442.72	570.66
443.09	576.51
443.46	580.34
443.83	583.06
444.20	585.48
444.57	588.87
444.94	590.87
445.31	592.83
445.68	595.07
446.05	596.13
446.42	595.87
446.79	595.53
447.16	595.22
447.53	595.15
447.90	592.67
448.27	590.27
448.64	586.57
449.01	583.96
449.37	579.13
449.74	574.45
450.11	568.76
450.48	562.48
450.85	555.99
451.22	550.49
451.59	545.20
451.96	540.18
452.33	533.30
452.70	527.08
453.07	519.57
453.43	511.65
453.80	504.46
454.17	497.45
454.54	490.89
454.91	483.71
455.28	476.51
455.65	470.06
456.02	463.80
456.38	458.22
456.75	451.36
457.12	445.48
457.49	439.75
457.86	434.02
458.23	429.37
458.59	424.30
458.96	419.01
459.33	414.37
459.70	409.75
460.07	405.92
460.43	401.48
460.80	397.48
461.17	393.92
461.54	390.16
461.91	386.69
462.27	382.96
462.64	379.85
463.01	376.54
463.38	373.21
463.74	369.53
464.11	366.63
464.48	364.11
464.85	361.47
465.21	359.33
465.58	357.03
465.95	354.20
466.32	351.83
466.68	349.60
467.05	347.31
467.42	344.93
467.78	342.59
468.15	340.40
468.52	338.69
468.88	336.60
469.25	334.70
469.62	333.08
469.98	331.40
470.35	329.72
470.72	328.22
471.08	326.54
471.45	325.16
471.82	323.75
472.18	322.10
472.55	320.86
472.92	319.43
473.28	318.19
473.65	316.88
474.02	315.67
474.38	314.63
474.75	313.78
475.11	312.91
475.48	312.17
475.85	311.47
476.21	310.76
476.58	310.09
476.94	309.46
477.31	308.87
477.67	308.32
478.04	307.85
478.41	307.40
478.77	307.41
479.14	307.02
479.50	306.83
479.87	306.76
480.23	306.73
480.60	306.57
480.96	306.39
481.33	306.53
481.69	306.70
482.06	306.73
482.42	306.75
482.79	306.78
483.15	307.05
483.52	307.40
483.88	307.61
484.25	307.76
484.61	308.10
484.98	308.45
485.34	308.92
485.71	309.59
486.07	310.13
486.44	310.32
486.80	310.97
487.17	311.61
487.53	312.37
487.90	313.15
488.26	314.11
488.62	315.15
488.99	316.04
489.35	316.92
489.72	317.92
490.08	318.96
490.44	320.08
490.81	321.19
491.17	322.27
491.54	323.52
491.90	324.89
492.26	326.25
492.63	327.57
492.99	328.98
493.36	330.32
493.72	331.90
494.08	333.42
494.45	335.10
494.81	336.79
495.17	338.46
495.54	340.07
495.90	341.70
496.26	343.38
496.63	345.28
496.99	347.04
497.35	348.84
497.72	350.68
498.08	352.47
498.44	354.33
498.80	356.34
499.17	358.34
499.53	360.19
499.89	362.15
500.26	364.06
500.62	365.85
500.98	367.85
501.34	369.63
501.71	371.71
502.07	373.52
502.43	375.19
502.79	376.90
503.16	378.66
503.52	380.41
503.88	382.07
504.24	383.60
504.60	385.31
504.97	387.00
505.33	388.54
505.69	390.33
506.05	391.85
506.41	393.25
506.78	394.44
507.14	395.72
507.50	396.94
507.86	398.14
508.22	399.33
508.59	400.30
508.95	401.46
509.31	402.42
509.67	403.35
510.03	404.34
510.39	405.19
510.75	406.02
511.12	406.77
511.48	407.57
511.84	408.24
512.20	408.81
512.56	409.23
512.92	409.85
513.28	410.12
513.64	410.34
514.00	410.64
514.37	410.99
514.73	411.39
515.09	411.59
515.45	411.78
515.81	411.78
516.17	411.86
516.53	411.79
516.89	411.75
517.25	411.63
517.61	411.59
517.97	411.42
518.33	411.25
518.69	411.07
519.05	410.90
519.41	410.73
519.77	410.79
520.13	410.74
520.49	410.36
520.85	410.06
521.21	410.10
521.57	409.93
521.93	409.64
522.29	409.38
522.65	409.21
523.01	409.05
523.37	409.03
523.73	409.00
524.09	408.94
524.45	408.81
524.81	408.85
525.17	408.86
525.53	409.04
525.89	409.13
526.25	409.27
526.61	409.26
526.97	409.40
527.33	409.50
527.68	410.06
528.04	410.50
528.40	410.98
528.76	411.29
529.12	411.72
529.48	412.46
529.84	413.08
530.20	413.74
530.56	414.51
530.91	415.41
531.27	416.26
531.63	417.20
531.99	418.11
532.35	419.11
532.71	420.10
533.07	421.22
533.42	422.72
533.78	423.88
534.14	425.23
534.50	426.48
534.86	427.89
535.21	428.95
535.57	430.60
535.93	431.96
536.29	433.70
536.65	435.37
537.00	436.78
537.36	438.40
537.72	440.08
538.08	441.87
538.44	443.45
538.79	445.33
539.15	447.14
539.51	449.16
539.87	451.14
540.22	453.17
540.58	455.29
540.94	457.09
541.29	459.26
541.65	461.35
542.01	463.79
542.37	466.04
542.72	468.35
543.08	470.53
543.44	473.10
543.79	475.22
544.15	477.79
544.51	480.63
544.87	483.38
545.22	486.06
545.58	488.57
545.94	491.38
546.29	493.97
546.65	496.57
547.01	499.25
547.36	502.02
547.72	504.66
548.07	507.33
548.43	509.92
548.79	512.59
549.14	515.36
549.50	518.01
549.86	520.67
550.21	523.40
550.57	526.13
550.92	528.75
551.28	531.66
551.64	534.20
551.99	536.78
552.35	539.31
552.70	541.84
553.06	544.54
553.41	547.15
553.77	550.02
554.13	552.62
554.48	555.31
554.84	558.00
555.19	560.74
555.55	563.62
555.90	566.36
556.26	568.97
556.61	571.48
556.97	573.86
557.32	576.45
557.68	578.83
558.03	581.19
558.39	583.49
558.74	585.78
559.10	588.26
559.45	590.75
559.81	593.32
560.16	595.56
560.52	598.01
560.87	600.37
561.23	602.36
561.58	604.99
561.94	607.06
562.29	609.18
562.64	611.49
563.00	613.48
563.35	615.58
563.71	617.87
564.06	620.05
564.42	622.26
564.77	624.49
565.12	626.85
565.48	629.27
565.83	631.54
566.19	633.91
566.54	635.88
566.89	637.76
567.25	639.89
567.60	642.17
567.96	644.28
568.31	646.33
568.66	648.18
569.02	649.53
569.37	651.17
569.72	652.72
570.08	654.28
570.43	655.74
570.78	657.07
571.14	658.29
571.49	659.36
571.84	660.49
572.20	661.29
572.55	662.30
572.90	662.96
573.26	663.59
573.61	664.09
573.96	664.73
574.31	665.14
574.67	665.28
575.02	665.46
575.37	665.37
575.72	665.33
576.08	665.70
576.43	666.02
576.78	666.33
577.13	666.51
577.49	666.54
577.84	666.66
578.19	667.05
578.54	667.38
578.90	667.99
579.25	668.22
579.60	668.26
579.95	668.05
580.30	668.24
580.66	668.53
581.01	668.43
581.36	668.52
581.71	668.78
582.06	668.93
582.42	668.90
582.77	668.90
583.12	668.91
583.47	668.90
583.82	668.82
584.17	668.66
584.53	668.54
584.88	668.33
585.23	668.17
585.58	667.68
585.93	667.19
586.28	666.77
586.63	666.44
586.98	666.30
587.34	666.16
587.69	665.63
588.04	665.19
588.39	665.06
588.74	664.42
589.09	663.93
589.44	663.12
589.79	662.85
590.14	662.45
590.49	661.85
590.84	661.20
591.19	660.89
591.54	660.39
591.89	659.61
592.25	659.18
592.60	658.10
592.95	657.34
593.30	656.50
593.65	655.43
594.00	654.34
594.35	654.32
594.70	653.26
595.05	652.48
595.40	651.59
595.75	650.40
596.10	649.52
596.45	648.63
596.80	647.85
597.15	646.85
597.50	645.75
597.85	644.83
598.19	643.75
598.54	642.55
598.89	641.43
599.24	640.79
599.59	639.56
599.94	638.77
600.29	637.86
600.64	636.88
600.99	635.87
601.34	635.09
601.69	633.11
602.04	632.06
602.39	630.91
602.74	629.96
603.08	629.04
603.43	628.27
603.78	627.07
604.13	626.06
604.48	624.97
604.83	624.21
605.18	623.37
605.53	622.33
605.87	621.25
606.22	620.31
606.57	619.05
606.92	617.87
607.27	616.77
607.62	615.62
607.96	614.61
608.31	613.75
608.66	612.48
609.01	611.25
609.36	609.99
609.70	608.58
610.05	606.99
610.40	605.59
610.75	604.02
611.10	602.86
611.44	601.17
611.79	599.56
612.14	597.86
612.49	595.93
612.83	594.34
613.18	592.70
613.53	591.04
613.88	589.25
614.22	587.74
614.57	586.04
614.92	584.34
615.27	582.46
615.61	580.51
615.96	578.84
616.31	577.22
616.65	575.80
617.00	574.27
617.35	572.73
617.70	570.92
618.04	569.09
618.39	567.02
618.74	565.39
619.08	563.61
619.43	561.80
619.78	560.28
620.12	558.75
620.47	557.08
620.82	555.13
621.16	553.43
621.51	551.58
621.85	549.84
622.20	548.00
622.55	546.28
622.89	544.34
623.24	542.55
623.59	540.60
623.93	538.75
624.28	536.99
624.62	535.49
624.97	533.91
625.32	532.15
625.66	530.47
626.01	528.66
626.35	527.08
626.70	525.42
627.04	523.89
627.39	522.12
627.73	520.50
628.08	519.00
628.43	517.18
628.77	515.48
629.12	513.62
629.46	512.04
629.81	510.33
630.15	508.70
630.50	506.91
630.84	505.27
631.19	503.45
631.53	501.87
631.88	499.72
632.22	497.82
632.57	496.39
632.91	494.75
633.26	493.27
633.60	491.53
633.95	489.75
634.29	487.79
634.64	486.06
634.98	484.27
635.32	482.65
635.67	481.22
636.01	479.52
636.36	477.95
636.70	476.46
637.05	474.83
637.39	473.29
637.73	471.94
638.08	470.60
638.42	469.19
638.77	467.53
639.11	466.06
639.45	464.47
639.80	462.71
640.14	460.91
640.49	459.12
640.83	457.45
641.17	455.90
641.52	454.30
641.86	452.60
642.20	450.94
642.55	449.05
642.89	447.27
643.23	445.70
643.58	444.31
643.92	442.44
644.26	440.86
644.61	439.36
644.95	437.65
645.29	435.76
645.64	434.23
645.98	432.54
646.32	430.90
646.66	429.31
647.01	427.60
647.35	426.20
647.69	424.67
648.04	423.15
648.38	421.58
648.72	419.99
649.06	418.37
649.41	416.72
649.75	415.21
650.09	413.80
650.43	412.21
650.78	410.45
651.12	408.93
651.46	407.37
651.80	405.72
652.14	404.23
652.49	402.87
652.83	401.20
653.17	399.65
653.51	398.14
653.85	396.71
654.20	395.22
654.54	393.55
654.88	391.99
655.22	390.45
655.56	388.84
655.90	387.28
656.25	385.67
656.59	384.29
656.93	382.82
657.27	381.42
657.61	379.89
657.95	378.48
658.29	377.06
658.64	375.80
658.98	374.25
659.32	372.65
659.66	371.11
660.00	369.57
660.34	368.09
660.68	366.52
661.02	365.08
661.36	363.77
661.70	362.48
662.05	361.18
662.39	359.99
662.73	358.83
663.07	357.73
663.41	356.60
663.75	355.16
664.09	353.78
664.43	352.31
664.77	351.16
665.11	349.85
665.45	348.60
665.79	347.24
666.13	346.15
666.47	344.97
666.81	343.80
667.15	342.61
667.49	341.61
667.83	340.69
668.17	339.49
668.51	338.32
668.85	337.27
669.19	336.38
669.53	335.15
669.87	333.96
670.21	332.72
670.55	331.59
670.89	330.79
671.23	329.92
671.57	328.86
671.91	327.75
672.25	326.74
672.58	325.81
672.92	324.65
673.26	323.65
673.60	322.69
673.94	321.65
674.28	320.59
674.62	319.64
674.96	318.63
675.30	317.79
675.64	316.84
675.97	315.86
676.31	314.79
676.65	313.82
676.99	313.08
677.33	312.19
677.67	311.30
678.01	310.22
678.34	309.29
678.68	308.50
679.02	307.57
679.36	306.73
679.70	305.70
680.04	304.91
680.37	303.98
680.71	303.12
681.05	302.37
681.39	301.65
681.73	300.80
682.06	300.01
682.40	299.19
682.74	298.36
683.08	297.66
683.42	296.73
683.75	295.98
684.09	295.06
684.43	294.25
684.77	293.37
685.10	292.64
685.44	291.78
685.78	290.90
686.12	290.10
686.45	289.21
686.79	288.43
687.13	287.77
687.46	287.08
687.80	286.42
688.14	285.54
688.48	284.85
688.81	284.08
689.15	283.41
689.49	282.60
689.82	281.97
690.16	281.04
690.50	280.29
690.83	279.59
691.17	278.77
691.51	278.07
691.84	277.42
692.18	276.73
692.52	275.99
692.85	275.50
693.19	275.05
693.52	274.48
693.86	273.93
694.20	273.14
694.53	272.47
694.87	271.80
695.21	271.24
695.54	270.57
695.88	269.86
696.21	269.08
696.55	268.49
696.88	267.75
697.22	267.22
697.56	266.76
697.89	266.07
698.23	265.62
698.56	264.94
698.90	264.47
699.23	263.86
699.57	263.43
699.90	262.78
700.24	262.06
700.58	261.52
700.91	260.97
701.25	260.81
701.58	260.41
701.92	259.90
702.25	259.37
702.59	258.82
702.92	258.36
703.26	257.86
703.59	257.43
703.93	257.35
704.26	256.94
704.60	256.47
704.93	256.07
705.26	255.51
705.60	255.24
705.93	254.75
706.27	254.49
706.60	254.07
706.94	253.78
707.27	253.44
707.61	252.98
707.94	252.53
708.27	251.79
708.61	251.27
708.94	250.80
709.28	250.42
709.61	250.09
709.94	249.69
710.28	249.32
710.61	248.91
710.95	248.18
711.28	248.01
711.61	247.67
711.95	247.38
712.28	246.97
712.61	246.56
712.95	246.34
713.28	246.05
713.61	245.67
713.95	245.18
714.28	244.77
714.61	244.38
714.95	244.05
715.28	243.70
715.61	243.32
715.95	243.00
716.28	242.63
716.61	242.26
716.95	241.94
717.28	241.62
717.61	241.28
717.94	240.95
718.28	240.37
718.61	239.97
718.94	239.62
719.27	239.36
719.61	239.08
719.94	238.68
720.27	238.15
720.60	237.88
720.94	237.60
721.27	237.40
721.60	237.28
721.93	237.02
722.27	236.87
722.60	236.71
722.93	236.49
723.26	236.24
723.59	235.98
723.93	235.72
724.26	235.52
724.59	235.29
724.92	235.09
725.25	234.99
725.59	234.85
725.92	234.67
726.25	234.48
726.58	234.29
726.91	234.03
727.24	233.92
727.57	233.72
727.91	233.45
728.24	233.20
728.57	232.90
728.90	232.76
729.23	232.47
729.56	232.42
729.89	232.19
730.22	232.03
730.55	231.87
730.89	231.70
731.22	231.46
731.55	231.23
731.88	231.15
732.21	230.90
732.54	230.62
732.87	230.36
733.20	230.11
733.53	229.91
733.86	229.81
734.19	229.57
734.52	229.44
734.85	229.48
735.18	229.27
735.51	229.18
735.84	228.92
736.17	228.90
736.50	228.49
736.83	228.77
737.16	228.58
737.49	228.37
737.82	228.17
738.15	228.03
738.48	227.88
738.81	227.60
739.14	227.38
739.47	227.23
739.80	227.15
740.13	226.99
740.46	226.79
740.79	226.59
741.12	226.38
741.45	226.18
741.78	225.92
742.11	225.74
742.44	225.61
742.77	225.53
743.10	225.28
743.43	225.17
743.75	224.65
744.08	224.95
744.41	224.74
744.74	224.59
745.07	224.42
745.40	224.36
745.73	224.37
746.06	224.28
746.39	224.16
746.71	223.90
747.04	223.83
747.37	223.71
747.70	223.61
748.03	223.56
748.36	223.43
748.68	223.27
749.01	223.17
749.34	223.00
749.67	222.92
750.00	222.84
750.33	222.98
750.65	222.83
750.98	222.26
751.31	222.09
751.64	221.96
751.97	222.09
752.29	221.97
752.62	221.68
752.95	221.62
753.28	221.47
753.60	221.45
753.93	221.41
754.26	221.26
754.59	221.09
754.91	220.91
755.24	220.87
755.57	220.81
755.90	220.72
756.22	220.64
756.55	220.48
756.88	220.30
757.20	219.95
757.53	219.81
757.86	219.73
758.19	219.80
758.51	219.71
758.84	219.46
759.17	219.34
759.49	219.36
759.82	219.37
760.15	219.31
760.47	219.17
760.80	218.99
761.13	219.02
761.45	218.95
761.78	218.89
762.11	218.76
762.43	218.67
762.76	218.65
763.08	218.58
763.41	218.59
763.74	218.55
764.06	218.55
764.39	218.46
764.71	218.42
765.04	218.30
765.37	218.25
765.69	218.17
766.02	218.09
766.34	217.92
766.67	217.76
767.00	217.78
767.32	217.95
767.65	218.13
767.97	217.93
768.30	217.90
768.62	217.88
768.95	217.70
769.27	217.62
769.60	217.49
769.92	217.39
770.25	217.16
770.57	217.07
770.90	216.92
771.22	216.89
771.55	216.83
771.87	216.80
772.20	216.79
772.52	217.02
772.85	217.39
773.17	217.45
773.50	217.33
773.82	217.22
774.15	216.91
774.47	216.61
774.80	216.65
775.12	216.57
775.45	216.50
775.77	216.61
776.09	216.57
776.42	216.60
776.74	216.69
777.07	216.67
777.39	216.64
777.72	216.64
778.04	216.60
778.36	216.49
778.69	216.49
779.01	216.48
779.33	216.12
779.66	215.68
779.98	215.56
780.31	215.58
780.63	215.67
780.95	215.80
781.28	215.76
781.60	215.70
781.92	215.65
782.25	215.60
782.57	215.52
782.89	215.50
783.22	215.45
783.54	215.27
783.86	215.31
784.19	215.23
784.51	215.30
784.83	215.28
785.16	215.24
785.48	215.20
785.80	215.08
786.12	215.05
786.45	215.00
786.77	214.97
787.09	214.95
787.42	214.82
787.74	214.76
788.06	214.81
788.38	214.70
788.71	214.65
789.03	214.62
789.35	214.63
789.67	214.53
789.99	214.53
790.32	214.44
790.64	214.38
790.96	214.65
791.28	214.49
791.61	214.44
791.93	214.48
792.25	214.44
792.57	214.69
792.89	214.72
793.21	214.71
793.54	214.71
793.86	214.57
794.18	214.47
794.50	214.41
794.82	214.33
795.14	214.39
795.47	214.44
795.79	214.47
796.11	214.36
796.43	214.30
796.75	214.23
797.07	214.31
797.39	214.30
797.71	214.06
798.04	214.09
798.36	214.07
798.68	214.05
799.00	214.05
799.32	213.86
799.64	213.80
799.96	213.84
800.28	213.88
800.60	213.88
800.92	213.96
801.24	213.88
801.56	213.95
801.89	213.88
802.21	213.87
802.53	213.79
802.85	213.80
803.17	213.96
803.49	213.94
803.81	213.89
804.13	213.86
804.45	213.79
804.77	213.76
805.09	213.75
805.41	213.72
805.73	213.63
806.05	213.51
806.37	213.50
806.69	213.39
807.01	213.34
807.33	213.38
807.65	213.20
807.97	213.37
808.28	213.24
808.60	213.20
808.92	213.07
809.24	213.25
809.56	213.23
809.88	213.25
810.20	213.20
810.52	213.22
810.84	213.19
811.16	213.11
811.48	213.05
811.80	213.12
812.12	213.03
812.43	213.05
812.75	213.10
813.07	213.05
813.39	213.01
813.71	212.90
814.03	212.83
814.35	212.87
814.67	212.74
814.98	212.70
815.30	212.75
815.62	212.79
815.94	212.55
816.26	212.59
816.58	212.41
816.89	212.48
817.21	212.40
817.53	212.36
817.85	212.40
818.17	212.43
818.48	212.28
818.80	212.35
819.12	212.33
819.44	212.20
819.76	212.10
820.07	212.16
820.39	212.15
820.71	212.16
821.03	212.15
821.34	212.08
821.66	212.11
821.98	212.18
822.30	212.08
822.61	212.34
822.93	212.25
823.25	212.23
823.57	212.17
823.88	212.28
824.20	212.32
824.52	212.35
824.83	212.25
825.15	212.23
825.47	212.23
825.79	212.21
826.10	212.21
826.42	212.22
826.74	212.26
827.05	212.25
827.37	212.30
827.69	212.26
828.00	212.30
828.32	212.30
828.64	212.13
828.95	212.35
829.27	212.23
829.58	212.21
829.90	212.30
830.22	212.32
830.53	212.19
830.85	212.11
831.17	212.09
831.48	212.14
831.80	212.18
832.11	212.12
832.43	212.08
832.75	212.06
833.06	212.31
833.38	212.20
833.69	212.18
834.01	212.12
834.32	212.03
834.64	211.95
834.96	212.02
835.27	212.05
835.59	211.94
835.90	211.81
836.22	211.85
836.53	211.76
836.85	211.73
837.16	212.06
837.48	212.05
837.79	212.10
838.11	212.10
838.42	212.08
838.74	212.13
839.05	212.12
839.37	212.15
839.68	211.86
840.00	211.82
840.31	211.91
840.63	211.96
840.94	211.95
841.26	211.88
841.57	211.76
841.88	211.77
842.20	211.63
842.51	211.61
842.83	211.56
843.14	211.86
843.46	211.80
843.77	211.58
844.08	211.51
844.40	211.44
844.71	211.43
845.03	211.43
845.34	211.37
845.65	211.35
845.97	211.28
846.28	211.31
846.60	211.27
846.91	211.27
847.22	211.16
847.54	211.32
847.85	211.42
848.16	211.41
848.48	211.37
848.79	211.53
849.10	211.55
849.42	211.53
849.73	211.27
850.04	211.29
850.36	211.16
850.67	211.26
850.98	211.23
851.30	211.23
851.61	211.20
851.92	211.23
852.23	211.43
852.55	211.54
852.86	211.57
853.17	211.61
853.49	211.59
853.80	211.69
854.11	211.64
854.42	211.67
854.74	211.68
855.05	211.74
855.36	211.56
855.67	211.60
855.99	211.67
856.30	211.94
856.61	211.91
856.92	211.94
857.23	211.96
857.55	211.88
857.86	211.81
858.17	211.82
858.48	211.72
858.79	211.57
859.11	211.58
859.42	211.52
859.73	211.51
860.04	211.47
860.35	211.39
860.66	211.31
860.98	211.26
861.29	211.25
861.60	211.18
861.91	211.31
862.22	211.24
862.53	211.15
862.84	210.80
863.16	210.89
863.47	210.85
863.78	210.81
864.09	210.93
864.40	211.00
864.71	211.03
865.02	211.12
865.33	211.04
865.64	210.97
865.95	210.99
866.27	211.24
866.58	211.26
866.89	211.35
867.20	211.32
867.51	211.27
867.82	211.25
868.13	211.38
868.44	211.25
868.75	211.33
869.06	211.28
869.37	211.27
869.68	211.16
869.99	211.19
870.30	211.20
870.61	211.19
870.92	211.09
871.23	211.04
871.54	211.03
871.85	211.12
872.16	211.17
872.47	211.08
872.78	210.83
873.09	210.78
873.40	210.70
873.71	210.73
874.02	210.76
874.33	210.76
874.64	210.68
874.95	210.72
875.26	210.68
875.56	210.72
875.87	210.75
876.18	210.71
876.49	211.07
876.80	211.12
877.11	211.03
877.42	211.12
877.73	211.19
878.04	211.17
878.35	211.18
878.66	211.19
878.96	211.26
879.27	211.27
879.58	211.35
879.89	211.30
880.20	211.39
880.51	211.43
880.82	211.41
881.12	211.40
881.43	211.38
881.74	211.37
882.05	211.40
882.36	211.41
882.67	211.45
882.97	211.08
883.28	210.95
883.59	211.00
883.90	210.93
884.21	211.01
884.51	211.00
884.82	210.92
885.13	210.91
885.44	210.92
885.74	210.90
886.05	210.83
886.36	210.83
886.67	210.75
886.98	210.85
887.28	210.94
887.59	210.91
887.90	210.98
888.20	210.92
888.51	210.97
888.82	210.98
889.13	211.00
889.43	211.33
889.74	211.39
890.05	211.40
890.35	211.46
890.66	211.34
890.97	211.35
891.28	211.35
891.58	211.28
891.89	211.36
892.20	211.36
892.50	211.37
892.81	211.43
893.12	211.39
893.42	211.24
893.73	211.25
894.04	211.32
894.34	211.31
894.65	211.34
894.95	211.27
895.26	211.21
895.57	211.40
895.87	211.05
896.18	211.05
896.48	211.00
896.79	210.98
897.10	211.05
897.40	211.05
897.71	211.13
898.01	211.17
898.32	211.16
898.63	211.18
898.93	211.23
899.24	211.17
899.54	211.17
899.85	211.12
900.15	211.11
900.46	211.07
900.76	211.08
901.07	211.01
901.38	210.98
901.68	211.02
901.99	210.88
902.29	210.88
902.60	210.95
902.90	210.98
903.21	210.94
903.51	210.95
903.82	210.97
904.12	210.98
904.43	210.98
904.73	210.91
905.03	210.94
905.34	211.22
905.64	211.27
905.95	211.33
906.25	211.37
906.56	211.35
906.86	211.28
907.17	211.25
907.47	211.29
907.77	211.34
908.08	211.29
908.38	211.28
908.69	211.30
908.99	211.24
909.30	211.26
909.60	211.32
909.90	211.31
910.21	211.24
910.51	211.17
910.81	211.16
911.12	211.20
911.42	211.15
911.73	210.84
912.03	210.81
912.33	210.83
912.64	210.88
912.94	210.86
913.24	210.85
913.55	210.83
913.85	210.80
914.15	210.84
914.46	210.85
914.76	210.80
915.06	210.80
915.37	210.81
915.67	210.73
915.97	210.67
916.27	210.65
916.58	210.71
916.88	210.64
917.18	210.60
917.49	210.78
917.79	210.73
918.09	210.78
918.39	210.87
918.70	210.85
919.00	210.75
919.30	210.91
919.60	210.93
919.91	210.89
920.21	210.92
920.51	210.87
920.81	210.91
921.12	210.94
921.42	210.93
921.72	210.85
922.02	210.89
922.32	210.95
922.63	210.94
922.93	211.10
923.23	211.19
923.53	211.15
923.83	210.96
924.13	210.99
924.44	210.92
924.74	211.02
925.04	211.12
925.34	211.15
925.64	211.06
925.94	211.07
926.24	211.33
926.55	211.26
926.85	211.32
927.15	211.34
927.45	211.37
927.75	211.37
928.05	211.42
928.35	211.45
928.65	211.53
928.95	211.47
929.26	211.33
929.56	211.41
929.86	211.50
930.16	211.43
930.46	211.45
930.76	211.52
931.06	211.38
931.36	211.30
931.66	211.40
931.96	211.39
932.26	211.41
932.56	211.30
932.86	211.35
933.16	211.33
933.46	211.26
933.76	211.29
934.06	211.39
934.36	211.54
934.66	211.47
934.96	211.39
935.26	211.50
935.56	211.54
935.86	211.37
936.16	211.33
936.46	211.35
936.76	211.38
937.06	211.32
937.36	211.27
937.66	211.28
937.96	211.23
938.26	211.25
938.56	211.16
938.86	211.18
939.16	211.29
939.46	211.31
939.76	211.35
940.06	211.25
940.35	211.13
940.65	210.96
940.95	211.03
941.25	210.94
941.55	210.85
941.85	210.85
942.15	210.99
942.45	211.14
942.75	211.16
943.04	211.20
943.34	211.25
943.64	211.28
943.94	211.20
944.24	211.27
944.54	211.17
944.84	211.21
945.13	211.12
945.43	211.05
945.73	211.06
946.03	210.98
946.33	211.01
946.62	210.98
946.92	210.99
947.22	211.04
947.52	211.14
947.82	211.19
948.11	211.15
948.41	211.04
948.71	210.88
949.01	210.88
949.31	210.75
949.60	210.77
949.90	210.80
950.20	210.77
950.50	210.62
950.79	210.65
951.09	210.70
951.39	210.68
951.69	210.69
951.98	210.73
952.28	210.82
952.58	210.76
952.87	210.75
953.17	210.81
953.47	210.67
953.76	210.58
954.06	210.52
954.36	210.45
954.66	210.42
954.95	210.46
955.25	210.52
955.55	210.61
955.84	210.49
956.14	210.45
956.44	210.45
956.73	210.48
957.03	210.53
957.32	210.55
957.62	210.55
957.92	210.60
958.21	210.51
958.51	210.82
958.81	210.94
959.10	211.00
959.40	211.05
959.69	211.11
959.99	211.27
960.29	211.24
960.58	211.28
960.88	211.45
961.17	211.44
961.47	211.48
961.76	211.45
962.06	211.56
962.36	211.48
962.65	211.55
962.95	211.55
963.24	211.54
963.54	211.49
963.83	211.57
964.13	211.50
964.42	211.43
964.72	211.17
965.01	211.15
965.31	211.12
965.60	211.03
965.90	211.26
966.19	211.16
966.49	211.25
966.78	211.24
967.08	211.18
967.37	211.17
967.67	211.08
967.96	211.15
968.26	211.14
968.55	211.33
968.85	211.30
969.14	211.30
969.43	211.27
969.73	211.25
970.02	211.14
970.32	211.16
970.61	211.22
970.91	211.21
971.20	211.12
971.49	211.14
971.79	211.15
972.08	210.92
972.38	210.92
972.67	210.82
972.96	210.84
973.26	210.81
973.55	211.00
973.85	211.01
974.14	210.93
974.43	211.01
974.73	210.93
975.02	210.92
975.31	210.92
975.61	210.91
975.90	210.92
976.19	210.96
976.49	210.99
976.78	211.00
977.07	210.99
977.37	211.02
977.66	211.11
977.95	211.08
978.24	211.08
978.54	211.18
978.83	211.18
979.12	211.20
979.42	211.21
979.71	211.13
980.00	211.14
980.29	211.17
980.59	211.06
980.88	211.12
981.17	211.18
981.46	211.24
981.76	211.25
982.05	211.37
982.34	211.42
982.63	211.43
982.93	211.44
983.22	211.47
983.51	211.52
983.80	211.53
984.09	211.60
984.39	211.56
984.68	211.53
984.97	211.59
985.26	211.54
985.55	211.55
985.85	211.45
986.14	211.47
986.43	211.57
986.72	211.44
987.01	211.36
987.30	211.37
987.59	211.31
987.89	211.30
988.18	211.17
988.47	211.14
988.76	211.09
989.05	211.07
989.34	210.98
989.63	211.07
989.92	210.96
990.22	210.88
990.51	210.85
990.80	210.82
991.09	210.80
991.38	210.79
991.67	210.77
991.96	210.73
992.25	210.78
992.54	210.67
992.83	210.69
993.12	210.63
993.41	210.65
993.70	210.79
993.99	210.91
994.28	210.97
994.58	210.95
994.87	210.91
995.16	210.86
995.45	210.86
995.74	210.70
996.03	210.75
996.32	210.80
996.61	210.88
996.90	210.87
997.19	210.90
997.48	210.93
997.77	210.87
998.06	210.87
998.34	210.76
998.63	210.77
998.92	210.90
999.21	210.98
999.50	210.90
999.79	210.80
1000.08	210.72
1000.37	210.72
1000.66	210.70
1000.95	210.80
1001.24	210.84
1001.53	210.86
1001.82	210.90
1002.11	210.90
1002.40	210.86
1002.68	210.95
1002.97	211.14
1003.26	211.10
1003.55	211.06
1003.84	211.14
1004.13	211.30
1004.42	211.40
1004.71	211.37
1004.99	211.28
1005.28	211.37
1005.57	211.45
1005.86	211.39
1006.15	211.37
1006.44	211.28
1006.72	211.34
1007.01	211.31
1007.30	211.28
1007.59	211.32
1007.88	211.28
1008.17	211.29
1008.45	211.32
1008.74	211.14
1009.03	211.02
1009.32	210.98
1009.60	210.97
1009.89	210.96
1010.18	210.83
1010.47	210.77
1010.76	210.77
1011.04	210.79
1011.33	210.77
1011.62	210.82
1011.91	210.81
1012.19	210.82
1012.48	210.87
1012.77	210.85
1013.05	210.98
1013.34	211.02
1013.63	210.98
1013.92	211.08
1014.20	210.99
1014.49	210.96
1014.78	211.00
1015.06	210.91
1015.35	210.93
1015.64	211.03
1015.92	211.05
1016.21	211.10
1016.50	211.09
1016.78	211.13
1017.07	211.19
1017.36	211.13
1017.64	211.01
1017.93	211.09
1018.22	211.05
1018.50	211.05
1018.79	210.99
1019.08	210.84
1019.36	210.85
1019.65	210.84
1019.93	210.83
1020.22	210.94
1020.51	211.15
1020.79	211.18
1021.08	210.05
1021.36	210.40
1021.65	210.15
1021.94	210.85
1022.22	211.40
1022.51	210.65
1022.79	211.55
1023.08	211.70
1023.36	215.40
1023.65	210.60
>>>>>End Processed Spectral Data<<<<<
