SpectraSuite Data File
++++++++++++++++++++++++++++++++++++
Date: Mon Feb 25 16:57:51 EST 2013
User: group
Dark Spectrum Present: No
Reference Spectrum Present: No
Number of Sampled Component Spectra: 1
Spectrometers: USB2E7196
Integration Time (usec): 104000 (USB2E7196)
Spectra Averaged: 20 (USB2E7196)
Boxcar Smoothing: 10 (USB2E7196)
Correct for Electrical Dark: No (USB2E7196)
Strobe/Lamp Enabled: No (USB2E7196)
Correct for Detector Non-linearity: No (USB2E7196)
Correct for Stray Light: No (USB2E7196)
Number of Pixels in Processed Spectrum: 2048
>>>>>Begin Processed Spectral Data<<<<<
339.09	0.00
339.48	198.45
339.86	199.90
340.24	201.30
340.63	203.45
341.01	207.85
341.39	206.40
341.78	208.40
342.16	208.90
342.54	208.10
342.93	198.27
343.31	208.32
343.69	208.87
344.07	209.31
344.46	209.83
344.84	210.21
345.22	210.39
345.60	210.67
345.99	210.84
346.37	210.98
346.75	211.17
347.13	211.32
347.52	211.44
347.90	211.62
348.28	211.66
348.66	211.74
349.05	211.67
349.43	211.75
349.81	211.80
350.19	211.85
350.57	211.99
350.96	212.07
351.34	212.11
351.72	212.26
352.10	212.43
352.48	212.45
352.87	212.50
353.25	212.55
353.63	212.57
354.01	212.61
354.39	212.69
354.77	212.71
355.15	212.84
355.54	212.80
355.92	212.78
356.30	212.88
356.68	213.17
357.06	213.32
357.44	213.32
357.82	213.45
358.20	213.54
358.58	213.60
358.97	213.64
359.35	213.79
359.73	213.85
360.11	213.87
360.49	213.94
360.87	214.02
361.25	214.06
361.63	214.20
362.01	214.28
362.39	214.29
362.77	214.41
363.15	214.48
363.53	214.55
363.91	214.53
364.29	214.55
364.67	214.21
365.05	214.25
365.43	214.35
365.81	214.35
366.19	214.51
366.57	214.60
366.95	214.57
367.33	214.49
367.71	214.46
368.09	214.51
368.47	214.45
368.85	214.38
369.23	214.45
369.61	214.35
369.99	214.38
370.37	214.41
370.75	214.46
371.13	214.34
371.51	214.21
371.89	214.18
372.27	214.21
372.65	214.21
373.03	214.10
373.41	214.00
373.78	213.95
374.16	213.73
374.54	213.55
374.92	213.48
375.30	213.43
375.68	213.39
376.06	213.35
376.44	213.29
376.82	213.29
377.19	213.19
377.57	213.11
377.95	212.98
378.33	212.88
378.71	212.64
379.09	212.61
379.47	212.63
379.84	212.65
380.22	212.52
380.60	212.44
380.98	212.35
381.36	212.25
381.73	212.14
382.11	212.19
382.49	212.17
382.87	212.09
383.25	212.07
383.62	212.50
384.00	212.43
384.38	212.44
384.76	212.51
385.13	212.64
385.51	212.62
385.89	212.56
386.27	212.52
386.64	212.52
387.02	212.42
387.40	212.40
387.78	212.31
388.15	212.31
388.53	212.29
388.91	212.31
389.29	212.29
389.66	212.42
390.04	212.27
390.42	212.30
390.79	212.40
391.17	212.35
391.55	211.93
391.92	211.92
392.30	211.94
392.68	211.81
393.05	211.71
393.43	211.72
393.81	211.71
394.18	211.67
394.56	211.71
394.94	211.87
395.31	211.79
395.69	211.88
396.06	211.91
396.44	211.95
396.82	211.93
397.19	212.10
397.57	211.99
397.95	212.16
398.32	212.06
398.70	212.07
399.07	212.15
399.45	212.05
399.82	212.03
400.20	212.03
400.58	212.15
400.95	212.09
401.33	212.23
401.70	212.61
402.08	212.70
402.45	212.83
402.83	213.01
403.20	213.22
403.58	213.34
403.95	213.55
404.33	213.78
404.71	213.96
405.08	214.38
405.46	214.63
405.83	214.87
406.21	215.22
406.58	215.47
406.96	215.83
407.33	216.22
407.70	216.73
408.08	217.40
408.45	217.84
408.83	218.47
409.20	218.90
409.58	219.26
409.95	220.02
410.33	220.71
410.70	221.24
411.08	221.97
411.45	222.79
411.82	223.60
412.20	224.54
412.57	225.74
412.95	226.47
413.32	227.52
413.69	228.68
414.07	229.91
414.44	231.33
414.82	232.75
415.19	234.42
415.56	235.97
415.94	237.53
416.31	239.52
416.68	241.41
417.06	243.65
417.43	245.81
417.81	248.15
418.18	250.61
418.55	253.37
418.93	256.24
419.30	259.26
419.67	262.39
420.04	265.70
420.42	269.16
420.79	273.30
421.16	277.43
421.54	281.70
421.91	286.03
422.28	290.46
422.66	295.26
423.03	300.10
423.40	305.02
423.77	310.40
424.15	315.67
424.52	321.38
424.89	327.64
425.26	333.51
425.64	339.23
426.01	345.57
426.38	352.13
426.75	358.75
427.13	365.51
427.50	372.79
427.87	380.40
428.24	387.98
428.61	395.10
428.99	403.12
429.36	411.75
429.73	420.35
430.10	429.01
430.47	437.74
430.85	446.81
431.22	456.47
431.59	466.73
431.96	476.55
432.33	487.42
432.70	498.00
433.08	510.55
433.45	522.17
433.82	533.94
434.19	546.92
434.56	559.92
434.93	572.46
435.30	584.92
435.68	598.77
436.05	612.52
436.42	626.23
436.79	638.85
437.16	652.36
437.53	666.70
437.90	681.08
438.27	695.26
438.64	709.99
439.01	723.98
439.38	736.33
439.75	748.45
440.13	762.00
440.50	774.88
440.87	785.77
441.24	797.34
441.61	809.54
441.98	819.18
442.35	830.07
442.72	841.03
443.09	851.57
443.46	858.54
443.83	863.33
444.20	867.70
444.57	873.67
444.94	877.01
445.31	880.63
445.68	883.99
446.05	886.08
446.42	885.89
446.79	885.01
447.16	884.34
447.53	884.07
447.90	879.99
448.27	875.88
448.64	869.39
449.01	865.07
449.37	856.74
449.74	848.50
450.11	838.45
450.48	827.45
450.85	816.35
451.22	806.67
451.59	797.74
451.96	789.13
452.33	777.19
452.70	766.60
453.07	753.61
453.43	740.22
453.80	727.52
454.17	715.18
454.54	703.78
454.91	691.18
455.28	679.00
455.65	667.69
456.02	656.30
456.38	646.75
456.75	634.34
457.12	624.38
457.49	614.36
457.86	604.68
458.23	596.45
458.59	587.14
458.96	577.78
459.33	569.52
459.70	561.29
460.07	554.81
460.43	547.27
460.80	540.13
461.17	534.00
461.54	527.43
461.91	521.16
462.27	514.92
462.64	509.64
463.01	503.76
463.38	497.97
463.74	492.05
464.11	486.86
464.48	482.62
464.85	477.69
465.21	474.10
465.58	470.07
465.95	465.11
466.32	461.27
466.68	457.23
467.05	453.18
467.42	449.25
467.78	445.06
468.15	441.10
468.52	438.17
468.88	434.43
469.25	430.94
469.62	428.28
469.98	425.23
470.35	422.45
470.72	419.82
471.08	417.04
471.45	414.60
471.82	412.16
472.18	409.40
472.55	407.37
472.92	404.87
473.28	402.79
473.65	401.02
474.02	399.00
474.38	397.51
474.75	396.22
475.11	394.65
475.48	393.48
475.85	392.49
476.21	391.34
476.58	390.42
476.94	389.85
477.31	388.98
477.67	388.25
478.04	387.60
478.41	387.23
478.77	387.09
479.14	386.67
479.50	386.55
479.87	386.59
480.23	386.61
480.60	386.60
480.96	386.71
481.33	387.08
481.69	387.42
482.06	387.72
482.42	387.95
482.79	388.35
483.15	389.00
483.52	389.90
483.88	390.62
484.25	391.36
484.61	392.15
484.98	392.97
485.34	394.19
485.71	395.55
486.07	396.79
486.44	397.98
486.80	399.53
487.17	401.07
487.53	402.87
487.90	404.77
488.26	406.88
488.62	409.07
488.99	411.11
489.35	413.39
489.72	415.80
490.08	418.43
490.44	421.02
490.81	423.75
491.17	426.25
491.54	429.39
491.90	432.43
492.26	435.65
492.63	439.10
492.99	442.43
493.36	446.02
493.72	449.81
494.08	453.53
494.45	457.64
494.81	461.91
495.17	466.04
495.54	470.39
495.90	474.68
496.26	479.14
496.63	483.60
496.99	488.41
497.35	493.28
497.72	498.27
498.08	503.33
498.44	508.56
498.80	514.08
499.17	519.52
499.53	525.02
499.89	530.83
500.26	536.46
500.62	541.97
500.98	547.72
501.34	553.32
501.71	559.30
502.07	565.16
502.43	570.94
502.79	576.72
503.16	582.55
503.52	588.60
503.88	594.37
504.24	600.50
504.60	606.30
504.97	612.29
505.33	617.99
505.69	624.38
506.05	630.36
506.41	636.30
506.78	641.90
507.14	647.72
507.50	653.30
507.86	658.92
508.22	664.78
508.59	670.22
508.95	676.04
509.31	681.51
509.67	687.07
510.03	692.60
510.39	698.34
510.75	703.93
511.12	709.40
511.48	714.80
511.84	720.05
512.20	725.20
512.56	730.37
512.92	735.65
513.28	740.45
513.64	745.21
514.00	750.09
514.37	754.91
514.73	759.75
515.09	764.49
515.45	769.08
515.81	773.42
516.17	777.78
516.53	781.97
516.89	786.22
517.25	790.17
517.61	794.11
517.97	797.61
518.33	801.12
518.69	804.59
519.05	808.06
519.41	811.55
519.77	815.39
520.13	818.63
520.49	821.72
520.85	824.68
521.21	827.87
521.57	830.85
521.93	833.46
522.29	836.27
522.65	838.99
523.01	841.72
523.37	844.43
523.73	847.01
524.09	849.33
524.45	851.74
524.81	854.23
525.17	856.74
525.53	859.45
525.89	862.06
526.25	864.47
526.61	866.73
526.97	868.84
527.33	870.94
527.68	873.58
528.04	876.05
528.40	878.21
528.76	880.34
529.12	882.58
529.48	885.30
529.84	887.31
530.20	889.46
530.56	891.80
530.91	894.09
531.27	896.50
531.63	898.88
531.99	901.14
532.35	903.25
532.71	905.42
533.07	907.86
533.42	910.11
533.78	912.51
534.14	914.85
534.50	916.84
534.86	919.25
535.21	920.98
535.57	923.10
535.93	925.21
536.29	927.40
536.65	929.60
537.00	931.43
537.36	933.37
537.72	935.34
538.08	937.27
538.44	939.29
538.79	941.34
539.15	943.43
539.51	945.56
539.87	947.93
540.22	950.06
540.58	952.37
540.94	954.61
541.29	956.43
541.65	958.25
542.01	960.68
542.37	962.71
542.72	964.72
543.08	966.54
543.44	968.81
543.79	970.54
544.15	972.26
544.51	974.57
544.87	977.12
545.22	979.19
545.58	981.21
545.94	982.84
546.29	984.45
546.65	986.16
547.01	987.54
547.36	988.96
547.72	990.54
548.07	991.69
548.43	992.94
548.79	994.00
549.14	995.65
549.50	997.19
549.86	998.25
550.21	999.81
550.57	1001.64
550.92	1002.80
551.28	1004.28
551.64	1005.63
551.99	1007.10
552.35	1008.04
552.70	1009.33
553.06	1010.75
553.41	1012.27
553.77	1013.96
554.13	1015.39
554.48	1017.15
554.84	1019.07
555.19	1020.55
555.55	1021.95
555.90	1023.24
556.26	1024.91
556.61	1026.16
556.97	1027.02
557.32	1028.36
557.68	1029.15
558.03	1029.89
558.39	1030.91
558.74	1032.20
559.10	1033.44
559.45	1034.32
559.81	1035.61
560.16	1036.50
560.52	1037.52
560.87	1038.56
561.23	1038.95
561.58	1039.99
561.94	1040.67
562.29	1040.96
562.64	1041.63
563.00	1042.37
563.35	1043.04
563.71	1044.11
564.06	1044.87
564.42	1046.13
564.77	1047.30
565.12	1048.61
565.48	1049.73
565.83	1050.83
566.19	1052.09
566.54	1052.64
566.89	1053.33
567.25	1054.30
567.60	1055.32
567.96	1056.15
568.31	1056.99
568.66	1057.89
569.02	1058.01
569.37	1058.04
569.72	1058.45
570.08	1058.66
570.43	1058.68
570.78	1059.07
571.14	1058.79
571.49	1058.64
571.84	1058.50
572.20	1057.67
572.55	1057.47
572.90	1056.82
573.26	1056.11
573.61	1054.80
573.96	1054.22
574.31	1053.13
574.67	1051.73
575.02	1050.24
575.37	1048.76
575.72	1047.06
576.08	1045.71
576.43	1044.24
576.78	1043.04
577.13	1041.67
577.49	1040.42
577.84	1038.96
578.19	1037.43
578.54	1036.33
578.90	1035.35
579.25	1033.63
579.60	1031.94
579.95	1029.79
580.30	1028.18
580.66	1026.67
581.01	1024.72
581.36	1022.53
581.71	1020.39
582.06	1018.68
582.42	1016.89
582.77	1014.67
583.12	1012.61
583.47	1010.67
583.82	1008.87
584.17	1006.83
584.53	1004.89
584.88	1002.56
585.23	1000.49
585.58	998.17
585.93	995.81
586.28	993.41
586.63	991.24
586.98	989.17
587.34	987.25
587.69	984.71
588.04	982.29
588.39	980.26
588.74	978.02
589.09	976.15
589.44	973.27
589.79	971.14
590.14	969.03
590.49	966.89
590.84	964.37
591.19	962.28
591.54	960.04
591.89	956.93
592.25	954.67
592.60	951.92
592.95	949.11
593.30	945.97
593.65	942.88
594.00	939.75
594.35	937.90
594.70	935.01
595.05	932.46
595.40	929.55
595.75	926.51
596.10	923.83
596.45	921.06
596.80	918.86
597.15	916.17
597.50	913.22
597.85	910.40
598.19	907.43
598.54	904.38
598.89	901.50
599.24	899.54
599.59	896.44
599.94	893.92
600.29	891.32
600.64	888.72
600.99	885.80
601.34	883.40
601.69	879.47
602.04	876.20
602.39	872.97
602.74	870.32
603.08	867.67
603.43	865.14
603.78	862.12
604.13	858.94
604.48	855.87
604.83	853.31
605.18	850.66
605.53	847.98
605.87	844.92
606.22	841.99
606.57	838.46
606.92	835.51
607.27	832.36
607.62	829.18
607.96	826.40
608.31	823.90
608.66	820.57
609.01	817.56
609.36	814.65
609.70	811.55
610.05	808.13
610.40	805.03
610.75	801.39
611.10	798.57
611.44	795.17
611.79	791.72
612.14	788.20
612.49	784.39
612.83	780.92
613.18	777.42
613.53	774.08
613.88	770.63
614.22	767.05
614.57	763.52
614.92	760.32
615.27	756.71
615.61	752.97
615.96	749.86
616.31	746.67
616.65	743.64
617.00	740.55
617.35	737.35
617.70	733.89
618.04	730.47
618.39	726.56
618.74	723.33
619.08	719.87
619.43	716.49
619.78	713.41
620.12	710.31
620.47	707.20
620.82	703.64
621.16	700.21
621.51	697.29
621.85	694.17
622.20	690.80
622.55	687.51
622.89	684.24
623.24	680.81
623.59	677.51
623.93	673.98
624.28	670.78
624.62	667.86
624.97	664.87
625.32	661.83
625.66	658.89
626.01	655.77
626.35	652.96
626.70	649.83
627.04	646.87
627.39	643.73
627.73	640.74
628.08	638.16
628.43	635.31
628.77	632.16
629.12	629.00
629.46	626.21
629.81	623.31
630.15	620.29
630.50	617.30
630.84	614.33
631.19	611.51
631.53	608.68
631.88	605.25
632.22	602.15
632.57	599.63
632.91	596.76
633.26	593.94
633.60	590.98
633.95	588.22
634.29	585.39
634.64	582.85
634.98	580.15
635.32	577.49
635.67	575.17
636.01	572.61
636.36	570.05
636.70	567.56
637.05	565.06
637.39	562.65
637.73	560.42
638.08	558.22
638.42	555.96
638.77	553.70
639.11	551.53
639.45	549.00
639.80	546.25
640.14	543.77
640.49	541.35
640.83	538.93
641.17	536.61
641.52	534.15
641.86	531.53
642.20	529.10
642.55	526.18
642.89	523.46
643.23	520.94
643.58	518.70
643.92	516.16
644.26	513.80
644.61	511.51
644.95	508.89
645.29	506.36
645.64	503.83
645.98	501.25
646.32	498.95
646.66	496.58
647.01	494.30
647.35	491.98
647.69	489.72
648.04	487.43
648.38	485.16
648.72	482.84
649.06	480.47
649.41	478.09
649.75	476.14
650.09	473.85
650.43	471.61
650.78	469.31
651.12	466.85
651.46	464.53
651.80	462.43
652.14	460.39
652.49	458.16
652.83	455.92
653.17	453.62
653.51	451.35
653.85	449.43
654.20	447.36
654.54	445.21
654.88	442.87
655.22	440.84
655.56	438.48
655.90	436.34
656.25	434.27
656.59	432.12
656.93	430.06
657.27	428.19
657.61	425.99
657.95	423.92
658.29	422.11
658.64	420.29
658.98	418.00
659.32	415.72
659.66	413.79
660.00	411.90
660.34	409.98
660.68	407.96
661.02	405.85
661.36	403.82
661.70	402.04
662.05	400.28
662.39	398.58
662.73	397.07
663.07	395.54
663.41	393.82
663.75	392.15
664.09	390.33
664.43	388.46
664.77	386.90
665.11	385.18
665.45	383.53
665.79	381.77
666.13	380.26
666.47	378.81
666.81	377.22
667.15	375.61
667.49	374.06
667.83	372.72
668.17	371.19
668.51	369.77
668.85	368.33
669.19	367.06
669.53	365.35
669.87	363.74
670.21	362.12
670.55	360.74
670.89	359.65
671.23	358.32
671.57	357.03
671.91	355.66
672.25	354.35
672.58	353.07
672.92	351.80
673.26	350.50
673.60	349.15
673.94	347.76
674.28	346.55
674.62	345.39
674.96	344.09
675.30	343.03
675.64	341.69
675.97	340.35
676.31	339.09
676.65	337.99
676.99	337.03
677.33	335.87
677.67	334.72
678.01	333.25
678.34	332.06
678.68	330.92
679.02	329.69
679.36	328.53
679.70	327.35
680.04	326.28
680.37	325.14
680.71	324.08
681.05	323.08
681.39	321.99
681.73	320.87
682.06	319.83
682.40	318.80
682.74	317.90
683.08	317.10
683.42	315.90
683.75	314.92
684.09	313.71
684.43	312.71
684.77	311.65
685.10	310.73
685.44	309.77
685.78	308.74
686.12	307.91
686.45	307.04
686.79	306.07
687.13	305.10
687.46	304.25
687.80	303.41
688.14	302.55
688.48	301.78
688.81	300.82
689.15	299.99
689.49	299.06
689.82	298.22
690.16	297.06
690.50	296.23
690.83	295.31
691.17	294.38
691.51	293.48
691.84	292.65
692.18	291.73
692.52	290.87
692.85	290.13
693.19	289.41
693.52	288.51
693.86	287.59
694.20	286.77
694.53	285.91
694.87	285.09
695.21	284.29
695.54	283.40
695.88	282.57
696.21	281.69
696.55	280.83
696.88	279.92
697.22	279.28
697.56	278.63
697.89	277.91
698.23	277.29
698.56	276.58
698.90	275.97
699.23	275.25
699.57	274.60
699.90	273.88
700.24	273.01
700.58	272.43
700.91	271.80
701.25	271.36
701.58	270.79
701.92	270.18
702.25	269.56
702.59	268.85
702.92	268.30
703.26	267.73
703.59	267.24
703.93	267.03
704.26	266.43
704.60	265.84
704.93	265.22
705.26	264.64
705.60	264.04
705.93	263.36
706.27	262.87
706.60	262.48
706.94	262.06
707.27	261.54
707.61	260.94
707.94	260.40
708.27	259.69
708.61	259.09
708.94	258.54
709.28	257.97
709.61	257.55
709.94	257.04
710.28	256.49
710.61	255.95
710.95	255.12
711.28	254.84
711.61	254.28
711.95	253.90
712.28	253.40
712.61	253.04
712.95	252.75
713.28	252.53
713.61	251.90
713.95	251.47
714.28	251.11
714.61	250.72
714.95	250.37
715.28	249.88
715.61	249.53
715.95	249.19
716.28	248.77
716.61	248.33
716.95	247.91
717.28	247.55
717.61	247.16
717.94	246.82
718.28	246.27
718.61	245.98
718.94	245.47
719.27	245.07
719.61	244.74
719.94	244.25
720.27	243.74
720.60	243.33
720.94	242.90
721.27	242.59
721.60	242.32
721.93	241.95
722.27	241.78
722.60	241.51
722.93	241.13
723.26	240.83
723.59	240.52
723.93	240.30
724.26	240.01
724.59	239.76
724.92	239.51
725.25	239.29
725.59	239.00
725.92	238.85
726.25	238.65
726.58	238.42
726.91	238.21
727.24	237.95
727.57	237.71
727.91	237.39
728.24	237.09
728.57	236.75
728.90	236.57
729.23	236.21
729.56	236.09
729.89	235.89
730.22	235.62
730.55	235.38
730.89	235.15
731.22	234.89
731.55	234.64
731.88	234.37
732.21	234.04
732.54	233.83
732.87	233.61
733.20	233.44
733.53	233.10
733.86	232.84
734.19	232.52
734.52	232.44
734.85	232.49
735.18	232.27
735.51	232.19
735.84	231.99
736.17	231.91
736.50	231.49
736.83	231.66
737.16	231.49
737.49	231.30
737.82	231.02
738.15	230.95
738.48	230.81
738.81	230.64
739.14	230.44
739.47	230.23
739.80	230.01
740.13	229.85
740.46	229.59
740.79	229.41
741.12	229.31
741.45	229.10
741.78	228.75
742.11	228.68
742.44	228.48
742.77	228.35
743.10	228.14
743.43	228.04
743.75	227.49
744.08	227.82
744.41	227.68
744.74	227.49
745.07	227.24
745.40	227.10
745.73	227.09
746.06	226.95
746.39	226.80
746.71	226.63
747.04	226.37
747.37	226.28
747.70	226.25
748.03	226.11
748.36	226.01
748.68	225.90
749.01	225.63
749.34	225.43
749.67	225.26
750.00	225.17
750.33	225.15
750.65	225.03
750.98	224.40
751.31	224.27
751.64	224.18
751.97	224.28
752.29	224.08
752.62	223.75
752.95	223.55
753.28	223.42
753.60	223.23
753.93	223.21
754.26	223.13
754.59	222.85
754.91	222.68
755.24	222.51
755.57	222.32
755.90	222.21
756.22	222.10
756.55	221.93
756.88	221.74
757.20	221.47
757.53	221.30
757.86	221.19
758.19	221.09
758.51	221.03
758.84	220.69
759.17	220.59
759.49	220.50
759.82	220.65
760.15	220.59
760.47	220.58
760.80	220.36
761.13	220.30
761.45	220.24
761.78	220.17
762.11	220.10
762.43	220.04
762.76	219.91
763.08	219.83
763.41	219.84
763.74	219.75
764.06	219.68
764.39	219.63
764.71	219.56
765.04	219.48
765.37	219.32
765.69	219.19
766.02	219.14
766.34	219.06
766.67	218.87
767.00	218.85
767.32	218.94
767.65	219.07
767.97	218.94
768.30	218.95
768.62	218.88
768.95	218.66
769.27	218.48
769.60	218.49
769.92	218.36
770.25	218.15
770.57	217.98
770.90	217.86
771.22	217.76
771.55	217.74
771.87	217.65
772.20	217.61
772.52	217.85
772.85	218.14
773.17	218.14
773.50	218.03
773.82	217.94
774.15	217.70
774.47	217.44
774.80	217.37
775.12	217.29
775.45	217.16
775.77	217.23
776.09	217.28
776.42	217.30
776.74	217.37
777.07	217.32
777.39	217.35
777.72	217.29
778.04	217.22
778.36	217.12
778.69	217.11
779.01	217.07
779.33	216.73
779.66	216.27
779.98	216.21
780.31	216.18
780.63	216.22
780.95	216.25
781.28	216.25
781.60	216.19
781.92	216.06
782.25	216.05
782.57	216.00
782.89	215.94
783.22	215.79
783.54	215.71
783.86	215.71
784.19	215.63
784.51	215.68
784.83	215.67
785.16	215.55
785.48	215.52
785.80	215.47
786.12	215.47
786.45	215.42
786.77	215.34
787.09	215.25
787.42	215.05
787.74	214.97
788.06	214.89
788.38	214.81
788.71	214.82
789.03	214.79
789.35	214.75
789.67	214.62
789.99	214.71
790.32	214.58
790.64	214.55
790.96	214.78
791.28	214.64
791.61	214.52
791.93	214.63
792.25	214.49
792.57	214.73
792.89	214.63
793.21	214.63
793.54	214.63
793.86	214.60
794.18	214.63
794.50	214.54
794.82	214.55
795.14	214.57
795.47	214.53
795.79	214.50
796.11	214.30
796.43	214.34
796.75	214.23
797.07	214.23
797.39	214.23
797.71	214.04
798.04	214.03
798.36	214.05
798.68	213.94
799.00	214.04
799.32	213.81
799.64	213.91
799.96	213.95
800.28	213.95
800.60	213.90
800.92	213.89
801.24	213.86
801.56	213.86
801.89	213.86
802.21	213.91
802.53	213.84
802.85	214.08
803.17	214.18
803.49	214.04
803.81	213.96
804.13	213.93
804.45	213.81
804.77	213.91
805.09	213.87
805.41	213.80
805.73	213.62
806.05	213.53
806.37	213.52
806.69	213.47
807.01	213.41
807.33	213.46
807.65	213.35
807.97	213.55
808.28	213.50
808.60	213.45
808.92	213.45
809.24	213.66
809.56	213.46
809.88	213.35
810.20	213.44
810.52	213.49
810.84	213.41
811.16	213.35
811.48	213.26
811.80	213.38
812.12	213.39
812.43	213.52
812.75	213.57
813.07	213.46
813.39	213.43
813.71	213.38
814.03	213.33
814.35	213.38
814.67	213.20
814.98	213.16
815.30	213.18
815.62	213.01
815.94	212.78
816.26	212.83
816.58	212.77
816.89	212.74
817.21	212.72
817.53	212.76
817.85	212.73
818.17	212.68
818.48	212.54
818.80	212.56
819.12	212.52
819.44	212.42
819.76	212.36
820.07	212.31
820.39	212.25
820.71	212.27
821.03	212.16
821.34	212.04
821.66	212.06
821.98	212.08
822.30	212.04
822.61	212.25
822.93	212.19
823.25	212.19
823.57	212.10
823.88	212.17
824.20	212.19
824.52	212.26
824.83	212.26
825.15	212.25
825.47	212.24
825.79	212.28
826.10	212.28
826.42	212.28
826.74	212.35
827.05	212.36
827.37	212.35
827.69	212.35
828.00	212.44
828.32	212.43
828.64	212.33
828.95	212.58
829.27	212.43
829.58	212.40
829.90	212.39
830.22	212.45
830.53	212.34
830.85	212.24
831.17	212.18
831.48	212.15
831.80	212.12
832.11	212.08
832.43	212.04
832.75	212.00
833.06	212.20
833.38	212.16
833.69	212.14
834.01	212.12
834.32	212.10
834.64	212.07
834.96	212.00
835.27	212.01
835.59	211.84
835.90	211.76
836.22	211.76
836.53	211.66
836.85	211.58
837.16	211.92
837.48	212.01
837.79	212.09
838.11	212.08
838.42	212.07
838.74	212.07
839.05	212.00
839.37	211.98
839.68	211.82
840.00	211.73
840.31	211.80
840.63	211.79
840.94	211.76
841.26	211.69
841.57	211.79
841.88	211.80
842.20	211.74
842.51	211.70
842.83	211.76
843.14	212.09
843.46	212.08
843.77	211.87
844.08	211.78
844.40	211.59
844.71	211.55
845.03	211.56
845.34	211.56
845.65	211.57
845.97	211.55
846.28	211.53
846.60	211.61
846.91	211.50
847.22	211.55
847.54	211.63
847.85	211.70
848.16	211.65
848.48	211.58
848.79	211.73
849.10	211.80
849.42	211.79
849.73	211.48
850.04	211.56
850.36	211.48
850.67	211.54
850.98	211.65
851.30	211.72
851.61	211.73
851.92	211.80
852.23	211.93
852.55	211.96
852.86	211.96
853.17	212.00
853.49	212.14
853.80	212.15
854.11	212.15
854.42	212.16
854.74	212.11
855.05	212.18
855.36	212.02
855.67	212.05
855.99	212.09
856.30	212.51
856.61	212.52
856.92	212.55
857.23	212.53
857.55	212.45
857.86	212.47
858.17	212.52
858.48	212.44
858.79	212.34
859.11	212.32
859.42	212.32
859.73	212.26
860.04	212.23
860.35	212.16
860.66	212.08
860.98	212.02
861.29	211.99
861.60	211.91
861.91	212.01
862.22	211.94
862.53	211.85
862.84	211.44
863.16	211.53
863.47	211.44
863.78	211.47
864.09	211.54
864.40	211.55
864.71	211.54
865.02	211.55
865.33	211.55
865.64	211.54
865.95	211.51
866.27	211.75
866.58	211.66
866.89	211.66
867.20	211.73
867.51	211.71
867.82	211.80
868.13	211.90
868.44	211.77
868.75	211.78
869.06	211.81
869.37	211.85
869.68	211.64
869.99	211.71
870.30	211.70
870.61	211.69
870.92	211.64
871.23	211.56
871.54	211.57
871.85	211.58
872.16	211.58
872.47	211.59
872.78	211.32
873.09	211.42
873.40	211.38
873.71	211.37
874.02	211.49
874.33	211.41
874.64	211.38
874.95	211.55
875.26	211.51
875.56	211.51
875.87	211.49
876.18	211.56
876.49	211.83
876.80	211.79
877.11	211.73
877.42	211.72
877.73	211.77
878.04	211.74
878.35	211.76
878.66	211.78
878.96	211.71
879.27	211.72
879.58	211.68
879.89	211.68
880.20	211.69
880.51	211.65
880.82	211.68
881.12	211.72
881.43	211.58
881.74	211.62
882.05	211.64
882.36	211.68
882.67	211.72
882.97	211.35
883.28	211.29
883.59	211.38
883.90	211.36
884.21	211.38
884.51	211.40
884.82	211.23
885.13	211.26
885.44	211.35
885.74	211.27
886.05	211.25
886.36	211.22
886.67	211.18
886.98	211.36
887.28	211.31
887.59	211.27
887.90	211.27
888.20	211.22
888.51	211.23
888.82	211.14
889.13	211.20
889.43	211.52
889.74	211.53
890.05	211.41
890.35	211.45
890.66	211.38
890.97	211.29
891.28	211.35
891.58	211.34
891.89	211.23
892.20	211.21
892.50	211.22
892.81	211.18
893.12	211.22
893.42	210.99
893.73	211.00
894.04	210.97
894.34	211.02
894.65	211.01
894.95	210.98
895.26	210.96
895.57	211.04
895.87	210.74
896.18	210.84
896.48	210.85
896.79	210.76
897.10	210.88
897.40	210.95
897.71	211.02
898.01	210.99
898.32	211.12
898.63	211.19
898.93	211.19
899.24	211.26
899.54	211.19
899.85	211.29
900.15	211.36
900.46	211.35
900.76	211.42
901.07	211.34
901.38	211.34
901.68	211.44
901.99	211.28
902.29	211.23
902.60	211.20
902.90	211.18
903.21	211.24
903.51	211.15
903.82	211.20
904.12	211.21
904.43	211.25
904.73	211.22
905.03	211.23
905.34	211.55
905.64	211.60
905.95	211.59
906.25	211.50
906.56	211.43
906.86	211.48
907.17	211.42
907.47	211.47
907.77	211.52
908.08	211.46
908.38	211.46
908.69	211.55
908.99	211.59
909.30	211.67
909.60	211.66
909.90	211.75
910.21	211.66
910.51	211.56
910.81	211.56
911.12	211.58
911.42	211.59
911.73	211.32
912.03	211.28
912.33	211.37
912.64	211.36
912.94	211.35
913.24	211.29
913.55	211.24
913.85	211.26
914.15	211.29
914.46	211.30
914.76	211.25
915.06	211.24
915.37	211.11
915.67	211.02
915.97	211.02
916.27	210.91
916.58	210.93
916.88	210.97
917.18	210.93
917.49	211.15
917.79	211.12
918.09	211.10
918.39	211.22
918.70	211.17
919.00	211.15
919.30	211.37
919.60	211.39
919.91	211.44
920.21	211.49
920.51	211.40
920.81	211.42
921.12	211.54
921.42	211.48
921.72	211.60
922.02	211.69
922.32	211.75
922.63	211.79
922.93	211.98
923.23	211.95
923.53	211.95
923.83	211.70
924.13	211.80
924.44	211.81
924.74	211.78
925.04	211.89
925.34	211.97
925.64	211.77
925.94	211.77
926.24	211.84
926.55	211.77
926.85	211.80
927.15	211.78
927.45	211.74
927.75	211.79
928.05	211.77
928.35	211.81
928.65	211.80
928.95	211.79
929.26	211.66
929.56	211.70
929.86	211.77
930.16	211.74
930.46	211.60
930.76	211.65
931.06	211.51
931.36	211.39
931.66	211.36
931.96	211.38
932.26	211.41
932.56	211.31
932.86	211.30
933.16	211.35
933.46	211.33
933.76	211.31
934.06	211.39
934.36	211.51
934.66	211.45
934.96	211.53
935.26	211.55
935.56	211.59
935.86	211.52
936.16	211.43
936.46	211.44
936.76	211.48
937.06	211.35
937.36	211.40
937.66	211.42
937.96	211.42
938.26	211.32
938.56	211.31
938.86	211.34
939.16	211.46
939.46	211.44
939.76	211.38
940.06	211.40
940.35	211.30
940.65	211.05
940.95	211.07
941.25	210.89
941.55	210.83
941.85	210.81
942.15	210.94
942.45	211.03
942.75	211.07
943.04	211.16
943.34	211.22
943.64	211.22
943.94	211.19
944.24	211.15
944.54	211.25
944.84	211.11
945.13	211.08
945.43	211.07
945.73	211.05
946.03	211.06
946.33	210.95
946.62	210.94
946.92	210.99
947.22	210.92
947.52	210.91
947.82	210.95
948.11	210.91
948.41	210.79
948.71	210.72
949.01	210.67
949.31	210.55
949.60	210.51
949.90	210.52
950.20	210.48
950.50	210.48
950.79	210.46
951.09	210.57
951.39	210.52
951.69	210.37
951.98	210.49
952.28	210.53
952.58	210.56
952.87	210.55
953.17	210.62
953.47	210.68
953.76	210.74
954.06	210.67
954.36	210.59
954.66	210.54
954.95	210.68
955.25	210.76
955.55	210.79
955.84	210.76
956.14	210.85
956.44	210.93
956.73	210.95
957.03	210.92
957.32	210.97
957.62	211.01
957.92	211.14
958.21	211.05
958.51	211.41
958.81	211.45
959.10	211.57
959.40	211.60
959.69	211.59
959.99	211.66
960.29	211.73
960.58	211.79
960.88	211.98
961.17	211.87
961.47	211.85
961.76	211.82
962.06	211.85
962.36	211.76
962.65	211.71
962.95	211.77
963.24	211.73
963.54	211.69
963.83	211.74
964.13	211.80
964.42	211.72
964.72	211.48
965.01	211.42
965.31	211.34
965.60	211.31
965.90	211.58
966.19	211.50
966.49	211.50
966.78	211.55
967.08	211.51
967.37	211.56
967.67	211.54
967.96	211.66
968.26	211.71
968.55	211.71
968.85	211.68
969.14	211.55
969.43	211.57
969.73	211.59
970.02	211.53
970.32	211.46
970.61	211.55
970.91	211.43
971.20	211.47
971.49	211.44
971.79	211.47
972.08	211.16
972.38	211.23
972.67	211.28
972.96	211.28
973.26	211.22
973.55	211.31
973.85	211.27
974.14	211.23
974.43	211.28
974.73	211.31
975.02	211.35
975.31	211.46
975.61	211.48
975.90	211.45
976.19	211.43
976.49	211.39
976.78	211.33
977.07	211.35
977.37	211.37
977.66	211.38
977.95	211.32
978.24	211.31
978.54	211.38
978.83	211.23
979.12	211.14
979.42	211.13
979.71	211.05
980.00	211.06
980.29	211.07
980.59	211.00
980.88	211.05
981.17	211.09
981.46	211.01
981.76	210.98
982.05	211.12
982.34	211.23
982.63	211.27
982.93	211.35
983.22	211.39
983.51	211.39
983.80	211.47
984.09	211.52
984.39	211.52
984.68	211.37
984.97	211.39
985.26	211.39
985.55	211.33
985.85	211.24
986.14	211.26
986.43	211.31
986.72	211.25
987.01	211.11
987.30	211.06
987.59	211.06
987.89	211.13
988.18	210.90
988.47	210.81
988.76	210.74
989.05	210.64
989.34	210.59
989.63	210.65
989.92	210.53
990.22	210.51
990.51	210.55
990.80	210.58
991.09	210.64
991.38	210.70
991.67	210.77
991.96	210.79
992.25	210.85
992.54	210.76
992.83	210.78
993.12	210.80
993.41	210.92
993.70	211.02
993.99	211.02
994.28	211.11
994.58	211.15
994.87	211.12
995.16	211.13
995.45	211.14
995.74	211.09
996.03	211.25
996.32	211.30
996.61	211.41
996.90	211.49
997.19	211.52
997.48	211.59
997.77	211.56
998.06	211.61
998.34	211.47
998.63	211.51
998.92	211.56
999.21	211.60
999.50	211.54
999.79	211.46
1000.08	211.52
1000.37	211.54
1000.66	211.51
1000.95	211.70
1001.24	211.75
1001.53	211.78
1001.82	211.80
1002.11	211.70
1002.40	211.65
1002.68	211.64
1002.97	211.85
1003.26	211.77
1003.55	211.61
1003.84	211.59
1004.13	211.68
1004.42	211.79
1004.71	211.75
1004.99	211.75
1005.28	211.82
1005.57	211.89
1005.86	211.88
1006.15	211.79
1006.44	211.77
1006.72	211.78
1007.01	211.69
1007.30	211.68
1007.59	211.69
1007.88	211.62
1008.17	211.64
1008.45	211.64
1008.74	211.52
1009.03	211.34
1009.32	211.35
1009.60	211.36
1009.89	211.36
1010.18	211.21
1010.47	211.15
1010.76	211.17
1011.04	211.18
1011.33	211.58
1011.62	211.48
1011.91	211.49
1012.19	211.61
1012.48	211.60
1012.77	211.59
1013.05	211.72
1013.34	211.71
1013.63	211.69
1013.92	211.74
1014.20	211.71
1014.49	211.65
1014.78	211.67
1015.06	211.58
1015.35	211.58
1015.64	211.64
1015.92	211.72
1016.21	211.76
1016.50	211.75
1016.78	211.76
1017.07	211.71
1017.36	211.28
1017.64	211.26
1017.93	211.28
1018.22	211.20
1018.50	211.19
1018.79	211.24
1019.08	211.14
1019.36	211.18
1019.65	211.15
1019.93	211.23
1020.22	211.32
1020.51	211.50
1020.79	211.43
1021.08	211.15
1021.36	210.65
1021.65	211.90
1021.94	212.00
1022.22	212.10
1022.51	211.10
1022.79	212.90
1023.08	212.90
1023.36	214.10
1023.65	209.45
>>>>>End Processed Spectral Data<<<<<
