SpectraSuite Data File
++++++++++++++++++++++++++++++++++++
Date: Mon Feb 25 17:05:12 EST 2013
User: group
Dark Spectrum Present: No
Reference Spectrum Present: No
Number of Sampled Component Spectra: 1
Spectrometers: USB2E7196
Integration Time (usec): 104000 (USB2E7196)
Spectra Averaged: 20 (USB2E7196)
Boxcar Smoothing: 10 (USB2E7196)
Correct for Electrical Dark: No (USB2E7196)
Strobe/Lamp Enabled: No (USB2E7196)
Correct for Detector Non-linearity: No (USB2E7196)
Correct for Stray Light: No (USB2E7196)
Number of Pixels in Processed Spectrum: 2048
>>>>>Begin Processed Spectral Data<<<<<
339.09	0.00
339.48	198.80
339.86	200.20
340.24	201.40
340.63	204.65
341.01	209.20
341.39	204.85
341.78	207.15
342.16	209.60
342.54	208.70
342.93	198.57
343.31	208.57
343.69	209.10
344.07	209.53
344.46	209.98
344.84	210.32
345.22	210.39
345.60	210.66
345.99	210.81
346.37	210.83
346.75	210.94
347.13	210.90
347.52	210.93
347.90	211.12
348.28	211.13
348.66	211.23
349.05	211.16
349.43	211.20
349.81	211.27
350.19	211.27
350.57	211.30
350.96	211.36
351.34	211.47
351.72	211.54
352.10	211.68
352.48	211.70
352.87	211.65
353.25	211.65
353.63	211.70
354.01	211.71
354.39	211.80
354.77	211.79
355.15	211.97
355.54	211.89
355.92	211.80
356.30	211.81
356.68	212.04
357.06	212.09
357.44	212.06
357.82	212.05
358.20	212.06
358.58	212.10
358.97	212.10
359.35	212.19
359.73	212.27
360.11	212.29
360.49	212.32
360.87	212.37
361.25	212.45
361.63	212.56
362.01	212.67
362.39	212.69
362.77	212.79
363.15	212.69
363.53	212.80
363.91	212.76
364.29	212.83
364.67	212.37
365.05	212.27
365.43	212.28
365.81	212.35
366.19	212.53
366.57	212.65
366.95	212.62
367.33	212.43
367.71	212.42
368.09	212.34
368.47	212.36
368.85	212.32
369.23	212.33
369.61	212.19
369.99	212.19
370.37	212.21
370.75	212.33
371.13	212.35
371.51	212.23
371.89	212.25
372.27	212.26
372.65	212.31
373.03	212.41
373.41	212.32
373.78	212.18
374.16	211.94
374.54	211.78
374.92	211.68
375.30	211.77
375.68	211.65
376.06	211.72
376.44	211.64
376.82	211.62
377.19	211.58
377.57	211.59
377.95	211.45
378.33	211.35
378.71	211.09
379.09	211.12
379.47	211.13
379.84	211.04
380.22	210.92
380.60	210.90
380.98	210.85
381.36	210.83
381.73	210.84
382.11	210.88
382.49	210.84
382.87	210.77
383.25	210.77
383.62	211.16
384.00	211.08
384.38	211.08
384.76	211.17
385.13	211.30
385.51	211.23
385.89	211.20
386.27	211.15
386.64	211.14
387.02	211.08
387.40	211.01
387.78	211.07
388.15	210.98
388.53	210.92
388.91	210.89
389.29	210.85
389.66	210.86
390.04	210.77
390.42	210.80
390.79	210.75
391.17	210.66
391.55	210.24
391.92	210.22
392.30	210.23
392.68	210.11
393.05	210.04
393.43	210.08
393.81	210.07
394.18	210.02
394.56	210.06
394.94	210.07
395.31	210.10
395.69	210.14
396.06	210.23
396.44	210.25
396.82	210.22
397.19	210.43
397.57	210.38
397.95	210.42
398.32	210.37
398.70	210.41
399.07	210.52
399.45	210.51
399.82	210.48
400.20	210.39
400.58	210.39
400.95	210.27
401.33	210.30
401.70	210.60
402.08	210.67
402.45	210.75
402.83	210.84
403.20	210.87
403.58	210.89
403.95	211.02
404.33	211.10
404.71	211.17
405.08	211.41
405.46	211.55
405.83	211.68
406.21	211.77
406.58	211.94
406.96	211.99
407.33	212.18
407.70	212.35
408.08	212.87
408.45	213.14
408.83	213.36
409.20	213.57
409.58	213.55
409.95	213.88
410.33	214.13
410.70	214.36
411.08	214.70
411.45	214.98
411.82	215.23
412.20	215.64
412.57	216.28
412.95	216.39
413.32	216.83
413.69	217.20
414.07	217.71
414.44	218.34
414.82	218.94
415.19	219.60
415.56	220.34
415.94	220.89
416.31	221.68
416.68	222.51
417.06	223.47
417.43	224.55
417.81	225.55
418.18	226.61
418.55	227.61
418.93	228.77
419.30	230.10
419.67	231.48
420.04	232.87
420.42	234.15
420.79	236.01
421.16	237.62
421.54	239.54
421.91	241.35
422.28	243.15
422.66	245.05
423.03	247.17
423.40	249.16
423.77	251.26
424.15	253.38
424.52	255.65
424.89	258.08
425.26	260.41
425.64	262.59
426.01	265.04
426.38	267.76
426.75	270.49
427.13	273.20
427.50	276.04
427.87	278.98
428.24	282.07
428.61	284.84
428.99	288.19
429.36	291.61
429.73	295.03
430.10	298.52
430.47	302.05
430.85	305.59
431.22	309.49
431.59	313.78
431.96	317.75
432.33	322.16
432.70	326.50
433.08	331.39
433.45	336.30
433.82	341.12
434.19	346.42
434.56	351.55
434.93	356.43
435.30	361.44
435.68	366.90
436.05	372.43
436.42	377.81
436.79	382.70
437.16	388.12
437.53	393.72
437.90	399.33
438.27	405.08
438.64	410.76
439.01	415.96
439.38	420.58
439.75	425.30
440.13	430.63
440.50	435.55
440.87	439.57
441.24	443.80
441.61	448.52
441.98	452.04
442.35	456.28
442.72	460.53
443.09	464.60
443.46	467.20
443.83	468.86
444.20	470.56
444.57	472.81
444.94	473.87
445.31	475.24
445.68	476.72
446.05	477.33
446.42	477.29
446.79	477.06
447.16	476.65
447.53	476.46
447.90	474.66
448.27	472.82
448.64	470.43
449.01	468.59
449.37	465.28
449.74	461.95
450.11	458.11
450.48	453.64
450.85	449.01
451.22	445.17
451.59	441.56
451.96	437.99
452.33	433.22
452.70	428.97
453.07	423.70
453.43	418.19
453.80	413.07
454.17	408.02
454.54	403.44
454.91	398.38
455.28	393.46
455.65	388.87
456.02	384.84
456.38	380.89
456.75	376.09
457.12	371.98
457.49	367.98
457.86	363.71
458.23	360.55
458.59	357.00
458.96	353.30
459.33	349.92
459.70	346.70
460.07	344.14
460.43	341.14
460.80	338.32
461.17	335.78
461.54	333.20
461.91	330.83
462.27	328.36
462.64	326.28
463.01	323.87
463.38	321.73
463.74	319.00
464.11	316.99
464.48	315.26
464.85	313.38
465.21	311.99
465.58	310.60
465.95	308.60
466.32	306.99
466.68	305.39
467.05	303.88
467.42	302.24
467.78	300.52
468.15	299.02
468.52	297.87
468.88	296.36
469.25	294.92
469.62	293.67
469.98	292.35
470.35	291.24
470.72	290.15
471.08	288.88
471.45	287.96
471.82	287.09
472.18	285.97
472.55	285.15
472.92	284.16
473.28	283.29
473.65	282.52
474.02	281.80
474.38	281.19
474.75	280.64
475.11	279.94
475.48	279.46
475.85	278.93
476.21	278.48
476.58	278.12
476.94	277.78
477.31	277.46
477.67	277.15
478.04	276.81
478.41	276.64
478.77	276.73
479.14	276.42
479.50	276.15
479.87	276.01
480.23	275.84
480.60	275.63
480.96	275.50
481.33	275.53
481.69	275.55
482.06	275.54
482.42	275.47
482.79	275.58
483.15	275.59
483.52	275.88
483.88	275.99
484.25	276.05
484.61	276.22
484.98	276.44
485.34	276.83
485.71	277.14
486.07	277.46
486.44	277.50
486.80	277.95
487.17	278.36
487.53	278.96
487.90	279.53
488.26	280.33
488.62	280.96
488.99	281.44
489.35	281.99
489.72	282.65
490.08	283.38
490.44	284.09
490.81	284.93
491.17	285.56
491.54	286.40
491.90	287.32
492.26	288.14
492.63	288.96
492.99	289.76
493.36	290.82
493.72	291.90
494.08	292.89
494.45	293.96
494.81	295.11
495.17	296.09
495.54	297.20
495.90	298.16
496.26	299.31
496.63	300.62
496.99	301.82
497.35	303.08
497.72	304.35
498.08	305.70
498.44	307.01
498.80	308.45
499.17	309.82
499.53	310.98
499.89	312.54
500.26	313.87
500.62	315.22
500.98	316.60
501.34	317.88
501.71	319.33
502.07	320.57
502.43	321.75
502.79	323.10
503.16	324.39
503.52	325.70
503.88	326.87
504.24	328.14
504.60	329.41
504.97	330.62
505.33	331.80
505.69	333.06
506.05	334.25
506.41	335.25
506.78	336.19
507.14	337.37
507.50	338.40
507.86	339.63
508.22	340.76
508.59	341.79
508.95	342.79
509.31	343.94
509.67	345.19
510.03	346.34
510.39	347.26
510.75	348.24
511.12	349.25
511.48	350.23
511.84	351.10
512.20	352.00
512.56	352.86
512.92	353.80
513.28	354.60
513.64	355.44
514.00	356.34
514.37	357.24
514.73	358.14
515.09	358.94
515.45	359.67
515.81	360.37
516.17	360.98
516.53	361.69
516.89	362.25
517.25	362.81
517.61	363.57
517.97	364.32
518.33	365.03
518.69	365.78
519.05	366.57
519.41	367.34
519.77	368.32
520.13	369.18
520.49	369.86
520.85	370.71
521.21	371.68
521.57	372.59
521.93	373.37
522.29	374.36
522.65	375.12
523.01	376.09
523.37	377.06
523.73	378.28
524.09	379.44
524.45	380.54
524.81	381.74
525.17	382.95
525.53	384.23
525.89	385.44
526.25	386.77
526.61	388.00
526.97	389.36
527.33	390.72
527.68	392.48
528.04	394.05
528.40	395.50
528.76	396.89
529.12	398.59
529.48	400.47
529.84	402.09
530.20	404.10
530.56	405.96
530.91	407.93
531.27	409.78
531.63	411.76
531.99	413.66
532.35	415.55
532.71	417.50
533.07	419.59
533.42	422.12
533.78	424.24
534.14	426.52
534.50	428.59
534.86	430.85
535.21	432.77
535.57	435.13
535.93	437.48
536.29	440.12
536.65	442.41
537.00	444.74
537.36	447.14
537.72	449.51
538.08	451.87
538.44	454.41
538.79	456.94
539.15	459.32
539.51	461.96
539.87	464.71
540.22	467.34
540.58	470.11
540.94	472.52
541.29	475.19
541.65	477.83
542.01	480.72
542.37	483.36
542.72	486.14
543.08	488.78
543.44	491.58
543.79	494.00
544.15	496.81
544.51	499.74
544.87	502.79
545.22	505.56
545.58	508.50
545.94	511.22
546.29	513.93
546.65	516.77
547.01	519.55
547.36	522.23
547.72	525.03
548.07	527.62
548.43	530.28
548.79	532.83
549.14	535.34
549.50	538.11
549.86	540.75
550.21	543.41
550.57	546.22
550.92	548.66
551.28	551.28
551.64	553.87
551.99	556.41
552.35	558.74
552.70	561.17
553.06	563.50
553.41	565.75
553.77	568.36
554.13	570.84
554.48	573.27
554.84	575.70
555.19	578.00
555.55	580.57
555.90	582.63
556.26	584.81
556.61	587.04
556.97	588.98
557.32	591.04
557.68	593.11
558.03	594.94
558.39	597.00
558.74	599.06
559.10	600.97
559.45	602.92
559.81	604.99
560.16	606.87
560.52	608.80
560.87	610.96
561.23	612.67
561.58	614.71
561.94	616.44
562.29	618.12
562.64	619.86
563.00	621.19
563.35	623.02
563.71	624.84
564.06	626.71
564.42	628.50
564.77	630.29
565.12	632.07
565.48	634.09
565.83	635.90
566.19	637.59
566.54	639.04
566.89	640.53
567.25	642.16
567.60	643.82
567.96	645.48
568.31	646.90
568.66	648.23
569.02	649.14
569.37	650.18
569.72	651.31
570.08	652.52
570.43	653.59
570.78	654.50
571.14	655.34
571.49	655.98
571.84	656.65
572.20	657.18
572.55	657.73
572.90	657.94
573.26	658.05
573.61	658.34
573.96	658.78
574.31	658.92
574.67	658.71
575.02	658.57
575.37	658.32
575.72	658.15
576.08	658.25
576.43	658.11
576.78	658.19
577.13	658.18
577.49	658.01
577.84	657.91
578.19	657.99
578.54	658.09
578.90	658.20
579.25	658.23
579.60	658.13
579.95	657.66
580.30	657.68
580.66	657.76
581.01	657.38
581.36	657.05
581.71	656.73
582.06	656.84
582.42	656.58
582.77	656.27
583.12	656.01
583.47	655.71
583.82	655.57
584.17	655.34
584.53	655.24
584.88	654.89
585.23	654.79
585.58	654.33
585.93	653.71
586.28	653.35
586.63	653.08
586.98	652.64
587.34	652.49
587.69	652.02
588.04	651.41
588.39	651.20
588.74	650.64
589.09	650.36
589.44	649.49
589.79	649.16
590.14	648.86
590.49	648.28
590.84	647.64
591.19	647.19
591.54	646.50
591.89	645.49
592.25	645.00
592.60	644.08
592.95	643.18
593.30	642.40
593.65	641.29
594.00	639.97
594.35	640.12
594.70	639.13
595.05	638.15
595.40	637.31
595.75	636.09
596.10	635.24
596.45	634.20
596.80	633.45
597.15	632.55
597.50	631.49
597.85	630.44
598.19	629.26
598.54	628.24
598.89	627.28
599.24	626.59
599.59	625.42
599.94	624.72
600.29	623.89
600.64	623.07
600.99	622.28
601.34	621.58
601.69	619.57
602.04	618.68
602.39	617.87
602.74	617.09
603.08	616.51
603.43	615.96
603.78	615.03
604.13	614.16
604.48	613.25
604.83	612.62
605.18	612.08
605.53	611.35
605.87	610.34
606.22	609.52
606.57	608.42
606.92	607.46
607.27	606.26
607.62	605.26
607.96	604.31
608.31	603.58
608.66	602.61
609.01	601.53
609.36	600.24
609.70	598.95
610.05	597.58
610.40	596.34
610.75	594.82
611.10	593.85
611.44	592.33
611.79	590.81
612.14	589.15
612.49	587.32
612.83	585.87
613.18	584.43
613.53	582.91
613.88	581.32
614.22	579.95
614.57	578.39
614.92	576.76
615.27	575.11
615.61	573.34
615.96	571.68
616.31	570.34
616.65	569.13
617.00	567.50
617.35	566.01
617.70	564.32
618.04	562.70
618.39	560.63
618.74	559.10
619.08	557.38
619.43	555.76
619.78	554.40
620.12	552.77
620.47	551.22
620.82	549.43
621.16	547.60
621.51	545.82
621.85	544.11
622.20	542.42
622.55	540.68
622.89	538.83
623.24	537.16
623.59	535.19
623.93	533.38
624.28	531.86
624.62	530.52
624.97	528.98
625.32	527.20
625.66	525.78
626.01	524.05
626.35	522.53
626.70	520.93
627.04	519.39
627.39	517.68
627.73	516.12
628.08	514.60
628.43	513.02
628.77	511.38
629.12	509.73
629.46	508.30
629.81	506.69
630.15	504.93
630.50	503.21
630.84	501.60
631.19	499.93
631.53	498.27
631.88	496.15
632.22	494.29
632.57	492.87
632.91	491.21
633.26	489.65
633.60	487.97
633.95	486.27
634.29	484.49
634.64	483.07
634.98	481.15
635.32	479.59
635.67	478.20
636.01	476.59
636.36	475.07
636.70	473.57
637.05	472.03
637.39	470.75
637.73	469.27
638.08	467.92
638.42	466.46
638.77	464.95
639.11	463.61
639.45	462.10
639.80	460.28
640.14	458.61
640.49	457.09
640.83	455.60
641.17	454.12
641.52	452.47
641.86	450.76
642.20	449.51
642.55	447.74
642.89	446.05
643.23	444.49
643.58	443.04
643.92	441.17
644.26	439.52
644.61	437.88
644.95	436.28
645.29	434.56
645.64	432.94
645.98	431.22
646.32	429.66
646.66	427.94
647.01	426.48
647.35	425.03
647.69	423.33
648.04	421.78
648.38	420.12
648.72	418.57
649.06	416.93
649.41	415.16
649.75	413.61
650.09	412.07
650.43	410.51
650.78	408.70
651.12	407.17
651.46	405.61
651.80	404.01
652.14	402.40
652.49	400.95
652.83	399.37
653.17	397.85
653.51	396.16
653.85	394.87
654.20	393.47
654.54	391.86
654.88	390.42
655.22	388.92
655.56	387.39
655.90	385.84
656.25	384.36
656.59	382.85
656.93	381.40
657.27	380.02
657.61	378.40
657.95	377.01
658.29	375.71
658.64	374.51
658.98	373.06
659.32	371.45
659.66	369.95
660.00	368.41
660.34	366.90
660.68	365.45
661.02	363.86
661.36	362.43
661.70	361.04
662.05	359.78
662.39	358.53
662.73	357.37
663.07	356.33
663.41	355.05
663.75	353.72
664.09	352.52
664.43	351.08
664.77	349.86
665.11	348.60
665.45	347.28
665.79	345.89
666.13	344.71
666.47	343.71
666.81	342.46
667.15	341.31
667.49	340.30
667.83	339.25
668.17	338.20
668.51	336.91
668.85	335.84
669.19	334.81
669.53	333.50
669.87	332.22
670.21	330.91
670.55	329.78
670.89	329.09
671.23	328.01
671.57	327.05
671.91	326.00
672.25	324.97
672.58	324.08
672.92	323.06
673.26	322.00
673.60	321.02
673.94	320.07
674.28	319.14
674.62	318.20
674.96	317.30
675.30	316.41
675.64	315.61
675.97	314.63
676.31	313.51
676.65	312.69
676.99	311.97
677.33	311.10
677.67	310.23
678.01	309.12
678.34	308.15
678.68	307.30
679.02	306.45
679.36	305.58
679.70	304.61
680.04	303.70
680.37	302.89
680.71	301.99
681.05	301.33
681.39	300.53
681.73	299.69
682.06	298.83
682.40	298.01
682.74	297.15
683.08	296.50
683.42	295.69
683.75	294.99
684.09	294.10
684.43	293.25
684.77	292.43
685.10	291.54
685.44	290.72
685.78	289.93
686.12	289.24
686.45	288.44
686.79	287.66
687.13	286.94
687.46	286.21
687.80	285.63
688.14	284.80
688.48	284.07
688.81	283.34
689.15	282.71
689.49	281.91
689.82	281.26
690.16	280.40
690.50	279.68
690.83	278.84
691.17	278.07
691.51	277.44
691.84	276.93
692.18	276.22
692.52	275.68
692.85	275.06
693.19	274.43
693.52	273.87
693.86	273.22
694.20	272.65
694.53	271.97
694.87	271.19
695.21	270.50
695.54	269.83
695.88	269.09
696.21	268.35
696.55	267.88
696.88	267.28
697.22	266.69
697.56	266.20
697.89	265.64
698.23	265.15
698.56	264.58
698.90	263.96
699.23	263.42
699.57	262.94
699.90	262.33
700.24	261.75
700.58	261.24
700.91	260.72
701.25	260.47
701.58	260.05
701.92	259.62
702.25	259.11
702.59	258.64
702.92	258.22
703.26	257.64
703.59	257.11
703.93	256.85
704.26	256.43
704.60	255.98
704.93	255.49
705.26	254.96
705.60	254.52
705.93	253.99
706.27	253.70
706.60	253.27
706.94	253.10
707.27	252.65
707.61	252.17
707.94	251.65
708.27	250.94
708.61	250.43
708.94	250.04
709.28	249.71
709.61	249.28
709.94	248.90
710.28	248.65
710.61	248.27
710.95	247.55
711.28	247.33
711.61	246.93
711.95	246.59
712.28	246.23
712.61	245.89
712.95	245.72
713.28	245.42
713.61	245.01
713.95	244.41
714.28	244.10
714.61	243.70
714.95	243.40
715.28	243.02
715.61	242.71
715.95	242.36
716.28	241.91
716.61	241.63
716.95	241.19
717.28	240.79
717.61	240.48
717.94	240.24
718.28	239.73
718.61	239.40
718.94	239.09
719.27	238.80
719.61	238.47
719.94	238.07
720.27	237.61
720.60	237.30
720.94	237.00
721.27	236.71
721.60	236.51
721.93	236.27
722.27	236.17
722.60	235.94
722.93	235.62
723.26	235.42
723.59	235.10
723.93	235.00
724.26	234.81
724.59	234.47
724.92	234.28
725.25	234.14
725.59	233.96
725.92	233.79
726.25	233.52
726.58	233.35
726.91	233.06
727.24	232.89
727.57	232.62
727.91	232.39
728.24	232.18
728.57	231.88
728.90	231.76
729.23	231.40
729.56	231.31
729.89	231.12
730.22	230.90
730.55	230.69
730.89	230.46
731.22	230.28
731.55	230.14
731.88	229.91
732.21	229.65
732.54	229.37
732.87	229.20
733.20	229.03
733.53	228.85
733.86	228.69
734.19	228.47
734.52	228.36
734.85	228.45
735.18	228.24
735.51	228.21
735.84	228.08
736.17	228.00
736.50	227.66
736.83	227.88
737.16	227.76
737.49	227.66
737.82	227.45
738.15	227.33
738.48	227.09
738.81	226.99
739.14	226.77
739.47	226.64
739.80	226.49
740.13	226.41
740.46	226.13
740.79	225.92
741.12	225.77
741.45	225.56
741.78	225.24
742.11	225.20
742.44	225.01
742.77	224.83
743.10	224.70
743.43	224.61
743.75	224.15
744.08	224.41
744.41	224.20
744.74	224.06
745.07	223.85
745.40	223.81
745.73	223.79
746.06	223.70
746.39	223.64
746.71	223.45
747.04	223.25
747.37	223.23
747.70	223.17
748.03	223.06
748.36	223.08
748.68	222.91
749.01	222.69
749.34	222.55
749.67	222.46
750.00	222.36
750.33	222.51
750.65	222.45
750.98	221.87
751.31	221.78
751.64	221.75
751.97	221.87
752.29	221.72
752.62	221.47
752.95	221.27
753.28	221.13
753.60	221.05
753.93	221.01
754.26	220.86
754.59	220.72
754.91	220.64
755.24	220.43
755.57	220.36
755.90	220.32
756.22	220.17
756.55	220.07
756.88	219.88
757.20	219.51
757.53	219.25
757.86	219.23
758.19	219.26
758.51	219.12
758.84	218.89
759.17	218.82
759.49	218.78
759.82	218.98
760.15	218.89
760.47	218.82
760.80	218.62
761.13	218.61
761.45	218.51
761.78	218.44
762.11	218.44
762.43	218.35
762.76	218.19
763.08	218.20
763.41	218.11
763.74	218.11
764.06	218.09
764.39	218.11
764.71	218.01
765.04	217.83
765.37	217.68
765.69	217.54
766.02	217.47
766.34	217.30
766.67	217.06
767.00	217.12
767.32	217.22
767.65	217.43
767.97	217.36
768.30	217.32
768.62	217.25
768.95	217.11
769.27	217.02
769.60	217.04
769.92	216.92
770.25	216.79
770.57	216.67
770.90	216.55
771.22	216.37
771.55	216.36
771.87	216.39
772.20	216.41
772.52	216.62
772.85	216.96
773.17	216.87
773.50	216.76
773.82	216.59
774.15	216.33
774.47	216.08
774.80	215.93
775.12	215.93
775.45	215.82
775.77	215.88
776.09	215.91
776.42	215.85
776.74	215.90
777.07	215.83
777.39	215.75
777.72	215.72
778.04	215.76
778.36	215.65
778.69	215.60
779.01	215.59
779.33	215.22
779.66	214.90
779.98	214.87
780.31	214.90
780.63	215.00
780.95	215.06
781.28	215.00
781.60	215.02
781.92	214.97
782.25	214.99
782.57	214.89
782.89	214.81
783.22	214.80
783.54	214.67
783.86	214.71
784.19	214.73
784.51	214.79
784.83	214.70
785.16	214.68
785.48	214.56
785.80	214.49
786.12	214.54
786.45	214.38
786.77	214.37
787.09	214.31
787.42	214.16
787.74	214.09
788.06	214.02
788.38	213.97
788.71	213.88
789.03	213.89
789.35	213.85
789.67	213.75
789.99	213.75
790.32	213.73
790.64	213.78
790.96	214.01
791.28	213.86
791.61	213.89
791.93	213.87
792.25	213.88
792.57	214.10
792.89	213.99
793.21	214.06
793.54	214.06
793.86	213.98
794.18	213.96
794.50	213.98
794.82	214.01
795.14	214.01
795.47	214.05
795.79	214.01
796.11	213.90
796.43	213.90
796.75	213.83
797.07	213.77
797.39	213.62
797.71	213.34
798.04	213.36
798.36	213.30
798.68	213.25
799.00	213.31
799.32	213.11
799.64	213.18
799.96	213.16
800.28	213.14
800.60	213.12
800.92	213.16
801.24	213.07
801.56	213.06
801.89	212.99
802.21	212.96
802.53	212.86
802.85	212.93
803.17	213.02
803.49	212.94
803.81	212.91
804.13	212.85
804.45	212.80
804.77	212.81
805.09	212.81
805.41	212.81
805.73	212.64
806.05	212.49
806.37	212.44
806.69	212.36
807.01	212.39
807.33	212.42
807.65	212.26
807.97	212.42
808.28	212.37
808.60	212.41
808.92	212.39
809.24	212.59
809.56	212.54
809.88	212.48
810.20	212.51
810.52	212.65
810.84	212.65
811.16	212.62
811.48	212.56
811.80	212.68
812.12	212.58
812.43	212.70
812.75	212.79
813.07	212.80
813.39	212.80
813.71	212.69
814.03	212.67
814.35	212.69
814.67	212.52
814.98	212.53
815.30	212.51
815.62	212.48
815.94	212.29
816.26	212.30
816.58	212.20
816.89	212.23
817.21	212.08
817.53	212.13
817.85	212.19
818.17	212.18
818.48	212.11
818.80	212.24
819.12	212.22
819.44	212.10
819.76	212.01
820.07	211.98
820.39	211.96
820.71	211.92
821.03	211.93
821.34	211.90
821.66	211.88
821.98	211.87
822.30	211.77
822.61	211.93
822.93	211.89
823.25	211.90
823.57	211.81
823.88	211.94
824.20	211.90
824.52	211.96
824.83	211.97
825.15	211.89
825.47	211.90
825.79	211.85
826.10	211.93
826.42	211.95
826.74	212.06
827.05	212.14
827.37	212.20
827.69	212.17
828.00	212.17
828.32	212.21
828.64	212.12
828.95	212.32
829.27	212.22
829.58	212.24
829.90	212.27
830.22	212.32
830.53	212.17
830.85	212.15
831.17	211.99
831.48	212.01
831.80	212.02
832.11	211.93
832.43	211.90
832.75	211.84
833.06	212.00
833.38	211.84
833.69	211.77
834.01	211.76
834.32	211.78
834.64	211.73
834.96	211.68
835.27	211.72
835.59	211.58
835.90	211.48
836.22	211.48
836.53	211.40
836.85	211.30
837.16	211.64
837.48	211.63
837.79	211.72
838.11	211.75
838.42	211.72
838.74	211.74
839.05	211.70
839.37	211.62
839.68	211.51
840.00	211.49
840.31	211.59
840.63	211.54
840.94	211.53
841.26	211.53
841.57	211.55
841.88	211.68
842.20	211.72
842.51	211.71
842.83	211.72
843.14	212.11
843.46	212.16
843.77	211.96
844.08	211.94
844.40	211.90
844.71	211.80
845.03	211.84
845.34	211.83
845.65	211.85
845.97	211.93
846.28	211.92
846.60	211.97
846.91	211.92
847.22	211.87
847.54	211.88
847.85	211.86
848.16	211.78
848.48	211.63
848.79	211.76
849.10	211.88
849.42	211.84
849.73	211.45
850.04	211.47
850.36	211.38
850.67	211.46
850.98	211.40
851.30	211.42
851.61	211.40
851.92	211.42
852.23	211.51
852.55	211.53
852.86	211.56
853.17	211.55
853.49	211.58
853.80	211.73
854.11	211.82
854.42	211.86
854.74	211.88
855.05	211.89
855.36	211.71
855.67	211.69
855.99	211.68
856.30	212.10
856.61	212.08
856.92	212.08
857.23	212.09
857.55	212.15
857.86	212.17
858.17	212.19
858.48	212.13
858.79	212.07
859.11	212.14
859.42	212.10
859.73	212.08
860.04	212.09
860.35	211.95
860.66	211.84
860.98	211.82
861.29	211.91
861.60	211.91
861.91	211.98
862.22	211.88
862.53	211.90
862.84	211.57
863.16	211.66
863.47	211.63
863.78	211.61
864.09	211.64
864.40	211.64
864.71	211.68
865.02	211.76
865.33	211.73
865.64	211.67
865.95	211.73
866.27	211.98
866.58	211.95
866.89	211.97
867.20	211.97
867.51	211.91
867.82	211.88
868.13	211.90
868.44	211.88
868.75	211.99
869.06	211.95
869.37	211.89
869.68	211.76
869.99	211.81
870.30	211.80
870.61	211.72
870.92	211.62
871.23	211.63
871.54	211.63
871.85	211.73
872.16	211.68
872.47	211.55
872.78	211.39
873.09	211.42
873.40	211.37
873.71	211.42
874.02	211.43
874.33	211.37
874.64	211.35
874.95	211.35
875.26	211.24
875.56	211.20
875.87	211.23
876.18	211.24
876.49	211.55
876.80	211.53
877.11	211.45
877.42	211.50
877.73	211.45
878.04	211.44
878.35	211.42
878.66	211.49
878.96	211.45
879.27	211.36
879.58	211.28
879.89	211.32
880.20	211.40
880.51	211.39
880.82	211.41
881.12	211.44
881.43	211.37
881.74	211.33
882.05	211.38
882.36	211.33
882.67	211.38
882.97	210.98
883.28	210.89
883.59	210.97
883.90	210.98
884.21	210.97
884.51	210.87
884.82	210.80
885.13	210.73
885.44	210.80
885.74	210.80
886.05	210.77
886.36	210.72
886.67	210.58
886.98	210.82
887.28	210.86
887.59	210.85
887.90	210.85
888.20	210.85
888.51	210.92
888.82	210.91
889.13	210.89
889.43	211.18
889.74	211.23
890.05	211.13
890.35	211.13
890.66	211.04
890.97	211.08
891.28	211.12
891.58	211.14
891.89	211.13
892.20	211.17
892.50	211.19
892.81	211.12
893.12	211.07
893.42	210.82
893.73	210.85
894.04	210.85
894.34	210.88
894.65	210.90
894.95	210.78
895.26	210.81
895.57	211.05
895.87	210.74
896.18	210.80
896.48	210.97
896.79	210.95
897.10	211.01
897.40	210.99
897.71	210.96
898.01	210.93
898.32	210.96
898.63	210.96
898.93	210.97
899.24	211.05
899.54	211.06
899.85	211.10
900.15	211.02
900.46	211.03
900.76	211.04
901.07	211.08
901.38	211.09
901.68	211.10
901.99	210.83
902.29	210.87
902.60	210.82
902.90	210.70
903.21	210.74
903.51	210.77
903.82	210.85
904.12	210.84
904.43	210.95
904.73	210.93
905.03	210.92
905.34	211.22
905.64	211.24
905.95	211.24
906.25	211.20
906.56	211.27
906.86	211.27
907.17	211.27
907.47	211.28
907.77	211.25
908.08	211.24
908.38	211.31
908.69	211.39
908.99	211.43
909.30	211.47
909.60	211.43
909.90	211.45
910.21	211.37
910.51	211.32
910.81	211.34
911.12	211.38
911.42	211.35
911.73	211.05
912.03	211.10
912.33	211.20
912.64	211.25
912.94	211.16
913.24	211.10
913.55	211.10
913.85	211.08
914.15	211.20
914.46	211.21
914.76	211.12
915.06	211.04
915.37	211.00
915.67	211.00
915.97	211.04
916.27	210.98
916.58	210.99
916.88	211.00
917.18	210.91
917.49	211.07
917.79	211.10
918.09	211.13
918.39	211.15
918.70	211.15
919.00	211.15
919.30	211.32
919.60	211.35
919.91	211.33
920.21	211.36
920.51	211.28
920.81	211.27
921.12	211.38
921.42	211.40
921.72	211.43
922.02	211.42
922.32	211.45
922.63	211.40
922.93	211.56
923.23	211.62
923.53	211.60
923.83	211.41
924.13	211.35
924.44	211.35
924.74	211.44
925.04	211.48
925.34	211.47
925.64	211.33
925.94	211.33
926.24	211.50
926.55	211.38
926.85	211.42
927.15	211.44
927.45	211.42
927.75	211.38
928.05	211.39
928.35	211.36
928.65	211.43
928.95	211.49
929.26	211.36
929.56	211.31
929.86	211.36
930.16	211.31
930.46	211.33
930.76	211.36
931.06	211.15
931.36	211.08
931.66	211.07
931.96	211.09
932.26	211.09
932.56	210.95
932.86	211.05
933.16	210.97
933.46	210.91
933.76	210.88
934.06	210.96
934.36	211.11
934.66	211.09
934.96	211.06
935.26	211.09
935.56	211.16
935.86	211.10
936.16	211.06
936.46	211.07
936.76	211.02
937.06	210.94
937.36	211.00
937.66	210.95
937.96	210.98
938.26	210.93
938.56	210.96
938.86	210.95
939.16	211.00
939.46	211.10
939.76	211.14
940.06	211.11
940.35	211.04
940.65	210.86
940.95	210.87
941.25	210.78
941.55	210.67
941.85	210.61
942.15	210.71
942.45	210.81
942.75	210.78
943.04	210.79
943.34	210.87
943.64	210.88
943.94	210.83
944.24	210.81
944.54	210.81
944.84	210.70
945.13	210.69
945.43	210.60
945.73	210.60
946.03	210.50
946.33	210.54
946.62	210.50
946.92	210.43
947.22	210.50
947.52	210.49
947.82	210.58
948.11	210.59
948.41	210.56
948.71	210.45
949.01	210.48
949.31	210.50
949.60	210.47
949.90	210.49
950.20	210.51
950.50	210.55
950.79	210.52
951.09	210.68
951.39	210.63
951.69	210.61
951.98	210.67
952.28	210.82
952.58	210.79
952.87	210.81
953.17	210.91
953.47	210.84
953.76	210.94
954.06	210.87
954.36	210.76
954.66	210.70
954.95	210.86
955.25	210.85
955.55	210.86
955.84	210.83
956.14	210.88
956.44	210.86
956.73	210.83
957.03	210.82
957.32	210.79
957.62	210.81
957.92	210.90
958.21	210.82
958.51	211.15
958.81	211.21
959.10	211.26
959.40	211.29
959.69	211.33
959.99	211.34
960.29	211.37
960.58	211.38
960.88	211.48
961.17	211.43
961.47	211.47
961.76	211.44
962.06	211.48
962.36	211.37
962.65	211.34
962.95	211.31
963.24	211.34
963.54	211.31
963.83	211.30
964.13	211.21
964.42	211.13
964.72	210.79
965.01	210.73
965.31	210.66
965.60	210.57
965.90	210.78
966.19	210.65
966.49	210.66
966.78	210.67
967.08	210.65
967.37	210.57
967.67	210.47
967.96	210.49
968.26	210.43
968.55	210.45
968.85	210.51
969.14	210.51
969.43	210.49
969.73	210.46
970.02	210.44
970.32	210.44
970.61	210.43
970.91	210.36
971.20	210.32
971.49	210.28
971.79	210.37
972.08	210.10
972.38	210.09
972.67	210.08
972.96	210.12
973.26	210.07
973.55	210.20
973.85	210.27
974.14	210.37
974.43	210.46
974.73	210.45
975.02	210.44
975.31	210.44
975.61	210.43
975.90	210.36
976.19	210.31
976.49	210.38
976.78	210.41
977.07	210.40
977.37	210.44
977.66	210.40
977.95	210.32
978.24	210.35
978.54	210.47
978.83	210.41
979.12	210.38
979.42	210.36
979.71	210.28
980.00	210.27
980.29	210.23
980.59	210.06
980.88	210.16
981.17	210.16
981.46	210.18
981.76	210.17
982.05	210.35
982.34	210.45
982.63	210.43
982.93	210.45
983.22	210.59
983.51	210.60
983.80	210.81
984.09	210.80
984.39	210.80
984.68	210.69
984.97	210.76
985.26	210.73
985.55	210.79
985.85	210.76
986.14	210.83
986.43	210.88
986.72	210.91
987.01	210.82
987.30	210.82
987.59	210.73
987.89	210.79
988.18	210.75
988.47	210.63
988.76	210.64
989.05	210.60
989.34	210.55
989.63	210.64
989.92	210.51
990.22	210.50
990.51	210.54
990.80	210.63
991.09	210.60
991.38	210.67
991.67	210.60
991.96	210.61
992.25	210.61
992.54	210.53
992.83	210.60
993.12	210.59
993.41	210.61
993.70	210.85
993.99	210.93
994.28	210.90
994.58	211.03
994.87	211.02
995.16	211.00
995.45	210.95
995.74	210.88
996.03	211.00
996.32	211.08
996.61	211.16
996.90	211.05
997.19	211.02
997.48	211.08
997.77	211.07
998.06	211.04
998.34	211.07
998.63	211.04
998.92	210.95
999.21	211.04
999.50	211.01
999.79	210.91
1000.08	210.87
1000.37	210.89
1000.66	210.81
1000.95	210.83
1001.24	210.85
1001.53	210.90
1001.82	210.84
1002.11	210.72
1002.40	210.75
1002.68	210.77
1002.97	211.12
1003.26	211.09
1003.55	210.95
1003.84	211.02
1004.13	211.16
1004.42	211.05
1004.71	211.04
1004.99	211.11
1005.28	211.10
1005.57	211.10
1005.86	211.03
1006.15	210.94
1006.44	210.82
1006.72	210.85
1007.01	210.82
1007.30	210.81
1007.59	210.74
1007.88	210.74
1008.17	210.73
1008.45	210.59
1008.74	210.44
1009.03	210.15
1009.32	210.16
1009.60	210.19
1009.89	210.12
1010.18	209.95
1010.47	210.01
1010.76	209.98
1011.04	209.96
1011.33	210.42
1011.62	210.48
1011.91	210.45
1012.19	210.51
1012.48	210.58
1012.77	210.55
1013.05	210.65
1013.34	210.67
1013.63	210.64
1013.92	210.72
1014.20	210.65
1014.49	210.73
1014.78	210.75
1015.06	210.65
1015.35	210.67
1015.64	210.67
1015.92	210.69
1016.21	210.76
1016.50	210.70
1016.78	210.81
1017.07	210.87
1017.36	210.38
1017.64	210.35
1017.93	210.46
1018.22	210.43
1018.50	210.40
1018.79	210.41
1019.08	210.30
1019.36	210.30
1019.65	210.31
1019.93	210.33
1020.22	210.42
1020.51	210.63
1020.79	210.64
1021.08	210.15
1021.36	209.70
1021.65	210.30
1021.94	210.60
1022.22	209.85
1022.51	209.80
1022.79	211.65
1023.08	210.55
1023.36	215.00
1023.65	210.40
>>>>>End Processed Spectral Data<<<<<
