SpectraSuite Data File
++++++++++++++++++++++++++++++++++++
Date: Mon Feb 25 16:59:40 EST 2013
User: group
Dark Spectrum Present: No
Reference Spectrum Present: No
Number of Sampled Component Spectra: 1
Spectrometers: USB2E7196
Integration Time (usec): 104000 (USB2E7196)
Spectra Averaged: 20 (USB2E7196)
Boxcar Smoothing: 10 (USB2E7196)
Correct for Electrical Dark: No (USB2E7196)
Strobe/Lamp Enabled: No (USB2E7196)
Correct for Detector Non-linearity: No (USB2E7196)
Correct for Stray Light: No (USB2E7196)
Number of Pixels in Processed Spectrum: 2048
>>>>>Begin Processed Spectral Data<<<<<
339.09	0.00
339.48	198.75
339.86	199.80
340.24	201.10
340.63	201.10
341.01	209.45
341.39	205.80
341.78	207.35
342.16	209.20
342.54	208.70
342.93	197.98
343.31	208.01
343.69	208.46
344.07	208.92
344.46	209.40
344.84	209.90
345.22	209.94
345.60	210.15
345.99	210.30
346.37	210.31
346.75	210.43
347.13	210.50
347.52	210.57
347.90	210.71
348.28	210.72
348.66	210.82
349.05	210.76
349.43	210.83
349.81	210.91
350.19	210.94
350.57	211.06
350.96	211.20
351.34	211.30
351.72	211.38
352.10	211.49
352.48	211.56
352.87	211.61
353.25	211.67
353.63	211.77
354.01	211.86
354.39	212.01
354.77	212.04
355.15	212.13
355.54	212.17
355.92	212.15
356.30	212.27
356.68	212.52
357.06	212.56
357.44	212.57
357.82	212.64
358.20	212.73
358.58	212.77
358.97	212.85
359.35	212.94
359.73	213.19
360.11	213.25
360.49	213.30
360.87	213.34
361.25	213.51
361.63	213.71
362.01	213.82
362.39	213.84
362.77	213.94
363.15	214.09
363.53	214.14
363.91	214.19
364.29	214.23
364.67	213.98
365.05	214.01
365.43	214.12
365.81	214.16
366.19	214.27
366.57	214.43
366.95	214.42
367.33	214.32
367.71	214.28
368.09	214.30
368.47	214.28
368.85	214.26
369.23	214.29
369.61	214.08
369.99	214.08
370.37	214.15
370.75	214.33
371.13	214.20
371.51	214.13
371.89	214.14
372.27	214.07
372.65	214.06
373.03	214.07
373.41	214.00
373.78	213.94
374.16	213.79
374.54	213.60
374.92	213.49
375.30	213.43
375.68	213.32
376.06	213.29
376.44	213.20
376.82	213.13
377.19	213.11
377.57	213.07
377.95	212.95
378.33	212.78
378.71	212.48
379.09	212.50
379.47	212.48
379.84	212.40
380.22	212.34
380.60	212.27
380.98	212.16
381.36	212.09
381.73	212.03
382.11	211.99
382.49	211.98
382.87	211.96
383.25	211.98
383.62	212.34
384.00	212.23
384.38	212.27
384.76	212.33
385.13	212.28
385.51	212.18
385.89	212.14
386.27	212.17
386.64	212.15
387.02	212.02
387.40	212.00
387.78	211.96
388.15	212.00
388.53	211.86
388.91	211.94
389.29	211.85
389.66	211.84
390.04	211.82
390.42	211.77
390.79	211.67
391.17	211.59
391.55	211.19
391.92	211.15
392.30	211.17
392.68	211.09
393.05	211.04
393.43	211.13
393.81	211.07
394.18	210.96
394.56	210.95
394.94	211.03
395.31	210.99
395.69	211.06
396.06	211.05
396.44	211.16
396.82	211.06
397.19	211.27
397.57	211.28
397.95	211.31
398.32	211.30
398.70	211.43
399.07	211.52
399.45	211.53
399.82	211.61
400.20	211.61
400.58	211.64
400.95	211.60
401.33	211.69
401.70	212.00
402.08	212.20
402.45	212.25
402.83	212.44
403.20	212.49
403.58	212.60
403.95	212.76
404.33	212.90
404.71	213.06
405.08	213.43
405.46	213.60
405.83	213.82
406.21	214.10
406.58	214.39
406.96	214.63
407.33	215.00
407.70	215.30
408.08	215.85
408.45	216.27
408.83	216.73
409.20	217.11
409.58	217.32
409.95	217.77
410.33	218.47
410.70	218.90
411.08	219.53
411.45	220.15
411.82	220.79
412.20	221.58
412.57	222.55
412.95	223.00
413.32	223.96
413.69	224.90
414.07	225.89
414.44	226.91
414.82	228.04
415.19	229.24
415.56	230.54
415.94	231.78
416.31	233.30
416.68	234.77
417.06	236.53
417.43	238.36
417.81	240.31
418.18	242.28
418.55	244.34
418.93	246.62
419.30	248.98
419.67	251.44
420.04	253.98
420.42	256.69
420.79	259.98
421.16	263.19
421.54	266.49
421.91	269.89
422.28	273.41
422.66	277.25
423.03	281.13
423.40	285.11
423.77	289.30
424.15	293.45
424.52	298.00
424.89	302.83
425.26	307.47
425.64	311.90
426.01	316.76
426.38	321.94
426.75	327.16
427.13	332.61
427.50	338.20
427.87	344.06
428.24	350.01
428.61	355.59
428.99	361.89
429.36	368.62
429.73	375.36
430.10	382.03
430.47	388.77
430.85	395.77
431.22	403.23
431.59	411.40
431.96	419.22
432.33	427.70
432.70	436.21
433.08	445.94
433.45	455.20
433.82	464.39
434.19	474.63
434.56	484.81
434.93	494.66
435.30	504.71
435.68	515.65
436.05	526.37
436.42	537.15
436.79	546.95
437.16	557.70
437.53	568.80
437.90	580.02
438.27	591.22
438.64	602.78
439.01	613.65
439.38	623.08
439.75	632.46
440.13	643.13
440.50	653.03
440.87	661.35
441.24	670.09
441.61	679.79
441.98	687.14
442.35	695.45
442.72	703.78
443.09	711.93
443.46	717.10
443.83	720.85
444.20	724.27
444.57	728.77
444.94	731.32
445.31	734.15
445.68	736.90
446.05	738.49
446.42	738.13
446.79	737.64
447.16	737.05
447.53	736.82
447.90	733.52
448.27	730.21
448.64	725.35
449.01	721.90
449.37	715.13
449.74	708.90
450.11	701.27
450.48	692.88
450.85	684.18
451.22	676.75
451.59	669.77
451.96	663.09
452.33	653.85
452.70	645.54
453.07	635.36
453.43	624.84
453.80	614.84
454.17	605.31
454.54	596.28
454.91	586.41
455.28	576.89
455.65	568.09
456.02	559.39
456.38	551.84
456.75	542.37
457.12	534.50
457.49	526.53
457.86	518.78
458.23	512.21
458.59	504.87
458.96	497.61
459.33	491.07
459.70	484.41
460.07	479.22
460.43	473.19
460.80	467.55
461.17	462.59
461.54	457.41
461.91	452.61
462.27	447.51
462.64	443.32
463.01	438.57
463.38	433.95
463.74	429.13
464.11	425.03
464.48	421.59
464.85	417.83
465.21	414.96
465.58	411.92
465.95	408.00
466.32	405.02
466.68	401.90
467.05	398.76
467.42	395.69
467.78	392.52
468.15	389.55
468.52	387.44
468.88	384.55
469.25	381.86
469.62	379.68
469.98	377.39
470.35	375.30
470.72	373.18
471.08	370.93
471.45	369.05
471.82	367.22
472.18	364.96
472.55	363.31
472.92	361.36
473.28	359.75
473.65	358.10
474.02	356.49
474.38	355.25
474.75	354.19
475.11	352.92
475.48	351.92
475.85	350.94
476.21	349.85
476.58	349.12
476.94	348.55
477.31	347.86
477.67	347.29
478.04	346.75
478.41	346.52
478.77	346.43
479.14	345.97
479.50	345.65
479.87	345.69
480.23	345.80
480.60	345.60
480.96	345.46
481.33	345.85
481.69	346.01
482.06	346.12
482.42	346.10
482.79	346.33
483.15	346.77
483.52	347.35
483.88	347.71
484.25	348.10
484.61	348.70
484.98	349.14
485.34	349.87
485.71	350.70
486.07	351.47
486.44	352.08
486.80	353.14
487.17	354.32
487.53	355.65
487.90	356.87
488.26	358.41
488.62	359.97
488.99	361.25
489.35	362.74
489.72	364.40
490.08	366.23
490.44	368.03
490.81	369.94
491.17	371.80
491.54	373.90
491.90	376.00
492.26	378.02
492.63	380.40
492.99	382.53
493.36	384.83
493.72	387.42
494.08	389.98
494.45	392.66
494.81	395.38
495.17	398.07
495.54	400.99
495.90	403.90
496.26	406.74
496.63	409.90
496.99	412.88
497.35	415.99
497.72	419.22
498.08	422.47
498.44	425.75
498.80	429.16
499.17	432.68
499.53	436.21
499.89	439.84
500.26	443.19
500.62	446.64
500.98	450.18
501.34	453.65
501.71	457.40
502.07	460.76
502.43	464.22
502.79	467.58
503.16	471.05
503.52	474.49
503.88	477.96
504.24	481.31
504.60	484.67
504.97	488.04
505.33	491.39
505.69	494.99
506.05	498.19
506.41	501.38
506.78	504.40
507.14	507.35
507.50	510.55
507.86	513.63
508.22	516.73
508.59	519.57
508.95	522.40
509.31	525.16
509.67	528.05
510.03	530.71
510.39	533.37
510.75	535.81
511.12	538.16
511.48	540.54
511.84	543.04
512.20	545.45
512.56	547.77
512.92	550.05
513.28	552.18
513.64	554.17
514.00	556.18
514.37	558.17
514.73	560.12
515.09	561.71
515.45	563.28
515.81	564.90
516.17	566.49
516.53	567.97
516.89	569.26
517.25	570.54
517.61	571.87
517.97	572.98
518.33	574.07
518.69	575.22
519.05	576.39
519.41	577.29
519.77	578.55
520.13	579.42
520.49	580.18
520.85	580.79
521.21	581.77
521.57	582.60
521.93	583.25
522.29	584.21
522.65	584.97
523.01	585.90
523.37	586.42
523.73	587.11
524.09	587.71
524.45	588.28
524.81	589.00
525.17	589.71
525.53	590.64
525.89	591.34
526.25	592.08
526.61	592.62
526.97	593.40
527.33	593.89
527.68	594.97
528.04	595.80
528.40	596.52
528.76	597.25
529.12	598.20
529.48	599.25
529.84	600.01
530.20	600.95
530.56	601.86
530.91	603.12
531.27	604.31
531.63	605.62
531.99	606.90
532.35	608.12
532.71	609.45
533.07	610.79
533.42	612.55
533.78	613.92
534.14	615.41
534.50	616.78
534.86	618.50
535.21	619.75
535.57	621.46
535.93	623.17
536.29	625.02
536.65	626.83
537.00	628.36
537.36	630.06
537.72	631.77
538.08	633.70
538.44	635.63
538.79	637.61
539.15	639.45
539.51	641.44
539.87	643.57
540.22	645.53
540.58	647.76
540.94	649.78
541.29	652.08
541.65	654.12
542.01	656.26
542.37	658.36
542.72	660.53
543.08	662.41
543.44	664.76
543.79	666.77
544.15	668.89
544.51	671.56
544.87	673.90
545.22	676.34
545.58	678.64
545.94	680.81
546.29	682.95
546.65	685.20
547.01	687.51
547.36	689.78
547.72	692.10
548.07	694.29
548.43	696.39
548.79	698.64
549.14	701.17
549.50	703.72
549.86	705.95
550.21	708.46
550.57	711.12
550.92	713.46
551.28	716.00
551.64	718.37
551.99	720.69
552.35	723.14
552.70	725.63
553.06	728.03
553.41	730.39
553.77	733.10
554.13	735.64
554.48	738.32
554.84	741.01
555.19	743.57
555.55	746.34
555.90	748.67
556.26	750.81
556.61	752.98
556.97	754.94
557.32	757.32
557.68	759.37
558.03	761.49
558.39	763.57
558.74	765.45
559.10	767.41
559.45	769.44
559.81	771.65
560.16	773.43
560.52	775.42
560.87	777.55
561.23	779.17
561.58	781.39
561.94	782.98
562.29	784.52
562.64	786.29
563.00	787.64
563.35	789.51
563.71	791.70
564.06	793.34
564.42	795.42
564.77	797.23
565.12	799.34
565.48	801.58
565.83	803.39
566.19	805.39
566.54	807.08
566.89	808.80
567.25	810.44
567.60	812.24
567.96	814.19
568.31	816.16
568.66	817.87
569.02	818.94
569.37	820.23
569.72	821.75
570.08	823.16
570.43	824.27
570.78	825.30
571.14	826.13
571.49	827.15
571.84	828.08
572.20	828.78
572.55	829.46
572.90	829.55
573.26	829.88
573.61	830.29
573.96	830.67
574.31	830.76
574.67	830.69
575.02	830.67
575.37	830.29
575.72	829.61
576.08	829.38
576.43	829.05
576.78	828.90
577.13	828.50
577.49	828.13
577.84	828.04
578.19	827.83
578.54	827.86
578.90	827.96
579.25	827.50
579.60	826.72
579.95	825.93
580.30	825.49
580.66	825.22
581.01	824.46
581.36	823.62
581.71	822.85
582.06	822.35
582.42	821.63
582.77	820.54
583.12	819.63
583.47	818.87
583.82	818.06
584.17	817.05
584.53	816.26
584.88	815.17
585.23	814.06
585.58	812.76
585.93	811.26
586.28	810.05
586.63	808.97
586.98	808.37
587.34	807.61
587.69	806.31
588.04	805.24
588.39	804.15
588.74	803.06
589.09	802.15
589.44	800.60
589.79	799.39
590.14	798.55
590.49	797.49
590.84	796.07
591.19	795.18
591.54	794.14
591.89	792.37
592.25	791.22
592.60	789.66
592.95	788.18
593.30	786.54
593.65	784.63
594.00	782.73
594.35	781.70
594.70	779.66
595.05	778.28
595.40	776.30
595.75	774.50
596.10	772.99
596.45	771.24
596.80	769.85
597.15	768.18
597.50	766.30
597.85	764.69
598.19	762.99
598.54	760.97
598.89	759.16
599.24	757.84
599.59	755.84
599.94	754.19
600.29	752.65
600.64	750.91
600.99	749.09
601.34	747.47
601.69	744.70
602.04	742.77
602.39	740.80
602.74	739.00
603.08	737.39
603.43	735.75
603.78	733.72
604.13	731.75
604.48	729.93
604.83	728.43
605.18	726.83
605.53	724.90
605.87	722.89
606.22	720.96
606.57	719.04
606.92	716.95
607.27	714.96
607.62	712.91
607.96	711.12
608.31	709.39
608.66	707.33
609.01	705.37
609.36	703.33
609.70	701.10
610.05	698.73
610.40	696.49
610.75	694.02
611.10	691.97
611.44	689.55
611.79	687.05
612.14	684.56
612.49	681.91
612.83	679.56
613.18	677.14
613.53	674.65
613.88	671.89
614.22	669.48
614.57	667.10
614.92	664.60
615.27	662.10
615.61	659.50
615.96	657.27
616.31	655.11
616.65	653.12
617.00	650.88
617.35	648.70
617.70	646.19
618.04	643.58
618.39	640.95
618.74	638.68
619.08	636.37
619.43	633.89
619.78	631.46
620.12	629.20
620.47	627.00
620.82	624.48
621.16	621.87
621.51	619.55
621.85	617.15
622.20	614.80
622.55	612.38
622.89	609.73
623.24	607.11
623.59	604.24
623.93	601.61
624.28	599.15
624.62	597.17
624.97	595.06
625.32	592.85
625.66	590.71
626.01	588.23
626.35	585.93
626.70	583.34
627.04	580.99
627.39	578.85
627.73	576.55
628.08	574.38
628.43	572.23
628.77	569.90
629.12	567.46
629.46	565.30
629.81	562.94
630.15	560.97
630.50	558.62
630.84	556.35
631.19	554.11
631.53	552.00
631.88	549.23
632.22	546.61
632.57	544.46
632.91	542.01
633.26	539.93
633.60	537.64
633.95	535.71
634.29	533.54
634.64	531.12
634.98	528.68
635.32	526.75
635.67	524.96
636.01	522.89
636.36	520.72
636.70	518.61
637.05	516.54
637.39	514.46
637.73	512.70
638.08	511.11
638.42	509.06
638.77	507.05
639.11	505.25
639.45	503.28
639.80	501.14
640.14	499.16
640.49	497.10
640.83	495.15
641.17	493.13
641.52	491.16
641.86	489.16
642.20	487.34
642.55	484.90
642.89	482.66
643.23	480.69
643.58	479.12
643.92	477.06
644.26	475.05
644.61	473.05
644.95	470.96
645.29	468.76
645.64	466.92
645.98	464.87
646.32	462.84
646.66	460.82
647.01	458.86
647.35	456.95
647.69	454.94
648.04	453.07
648.38	451.28
648.72	449.26
649.06	447.35
649.41	445.39
649.75	443.68
650.09	441.88
650.43	440.03
650.78	437.88
651.12	435.93
651.46	434.11
651.80	432.39
652.14	430.57
652.49	428.75
652.83	426.89
653.17	424.95
653.51	423.01
653.85	421.43
654.20	419.66
654.54	417.86
654.88	416.02
655.22	414.18
655.56	412.23
655.90	410.49
656.25	408.70
656.59	406.91
656.93	405.27
657.27	403.63
657.61	401.69
657.95	400.13
658.29	398.43
658.64	396.85
658.98	394.98
659.32	393.15
659.66	391.40
660.00	389.60
660.34	387.88
660.68	386.29
661.02	384.43
661.36	382.82
661.70	381.23
662.05	379.81
662.39	378.45
662.73	377.03
663.07	375.66
663.41	374.18
663.75	372.68
664.09	371.17
664.43	369.51
664.77	368.12
665.11	366.49
665.45	365.13
665.79	363.71
666.13	362.34
666.47	361.04
666.81	359.75
667.15	358.34
667.49	357.20
667.83	356.05
668.17	354.84
668.51	353.61
668.85	352.51
669.19	351.29
669.53	349.83
669.87	348.40
670.21	347.09
670.55	345.77
670.89	344.72
671.23	343.59
671.57	342.45
671.91	341.37
672.25	340.21
672.58	339.18
672.92	338.00
673.26	336.97
673.60	335.81
673.94	334.73
674.28	333.62
674.62	332.49
674.96	331.25
675.30	330.21
675.64	329.11
675.97	327.90
676.31	326.80
676.65	325.77
676.99	324.99
677.33	323.87
677.67	322.85
678.01	321.67
678.34	320.55
678.68	319.58
679.02	318.52
679.36	317.47
679.70	316.23
680.04	315.21
680.37	314.11
680.71	313.06
681.05	312.08
681.39	311.18
681.73	310.22
682.06	309.35
682.40	308.39
682.74	307.55
683.08	306.79
683.42	305.80
683.75	305.03
684.09	304.02
684.43	303.13
684.77	302.22
685.10	301.43
685.44	300.52
685.78	299.53
686.12	298.73
686.45	297.94
686.79	297.19
687.13	296.46
687.46	295.69
687.80	294.95
688.14	294.07
688.48	293.32
688.81	292.45
689.15	291.65
689.49	290.83
689.82	290.03
690.16	288.97
690.50	288.12
690.83	287.27
691.17	286.35
691.51	285.58
691.84	284.88
692.18	284.07
692.52	283.30
692.85	282.63
693.19	281.95
693.52	281.17
693.86	280.47
694.20	279.70
694.53	278.98
694.87	278.24
695.21	277.53
695.54	276.81
695.88	276.08
696.21	275.24
696.55	274.55
696.88	273.80
697.22	273.10
697.56	272.60
697.89	271.86
698.23	271.27
698.56	270.61
698.90	270.06
699.23	269.37
699.57	268.71
699.90	268.11
700.24	267.30
700.58	266.76
700.91	266.12
701.25	265.75
701.58	265.30
701.92	264.87
702.25	264.38
702.59	263.63
702.92	263.16
703.26	262.64
703.59	262.20
703.93	261.93
704.26	261.56
704.60	260.98
704.93	260.43
705.26	259.90
705.60	259.45
705.93	258.84
706.27	258.51
706.60	258.17
706.94	257.86
707.27	257.35
707.61	256.84
707.94	256.44
708.27	255.70
708.61	255.12
708.94	254.64
709.28	254.05
709.61	253.68
709.94	253.25
710.28	252.90
710.61	252.39
710.95	251.73
711.28	251.52
711.61	251.07
711.95	250.79
712.28	250.38
712.61	249.96
712.95	249.73
713.28	249.43
713.61	248.94
713.95	248.46
714.28	248.17
714.61	247.75
714.95	247.34
715.28	246.84
715.61	246.43
715.95	246.06
716.28	245.70
716.61	245.46
716.95	245.10
717.28	244.76
717.61	244.40
717.94	244.02
718.28	243.42
718.61	243.08
718.94	242.64
719.27	242.28
719.61	241.99
719.94	241.57
720.27	241.05
720.60	240.73
720.94	240.35
721.27	240.05
721.60	239.87
721.93	239.54
722.27	239.48
722.60	239.26
722.93	238.95
723.26	238.77
723.59	238.39
723.93	238.13
724.26	237.84
724.59	237.56
724.92	237.35
725.25	237.16
725.59	236.95
725.92	236.81
726.25	236.59
726.58	236.37
726.91	236.18
727.24	235.97
727.57	235.72
727.91	235.47
728.24	235.30
728.57	235.06
728.90	234.90
729.23	234.58
729.56	234.45
729.89	234.21
730.22	233.93
730.55	233.78
730.89	233.45
731.22	233.21
731.55	233.08
731.88	232.84
732.21	232.66
732.54	232.40
732.87	232.13
733.20	231.87
733.53	231.66
733.86	231.45
734.19	231.20
734.52	231.12
734.85	231.13
735.18	230.83
735.51	230.75
735.84	230.58
736.17	230.42
736.50	230.09
736.83	230.35
737.16	230.15
737.49	230.00
737.82	229.82
738.15	229.75
738.48	229.51
738.81	229.30
739.14	229.02
739.47	228.90
739.80	228.70
740.13	228.64
740.46	228.33
740.79	228.08
741.12	227.92
741.45	227.69
741.78	227.36
742.11	227.26
742.44	226.96
742.77	226.82
743.10	226.67
743.43	226.49
743.75	225.93
744.08	226.25
744.41	225.96
744.74	225.77
745.07	225.48
745.40	225.35
745.73	225.41
746.06	225.29
746.39	225.11
746.71	224.93
747.04	224.74
747.37	224.60
747.70	224.54
748.03	224.45
748.36	224.32
748.68	224.22
749.01	224.03
749.34	223.87
749.67	223.71
750.00	223.60
750.33	223.73
750.65	223.65
750.98	223.07
751.31	223.06
751.64	222.99
751.97	223.11
752.29	222.92
752.62	222.63
752.95	222.55
753.28	222.45
753.60	222.39
753.93	222.30
754.26	222.28
754.59	222.04
754.91	221.88
755.24	221.76
755.57	221.54
755.90	221.42
756.22	221.32
756.55	221.11
756.88	220.91
757.20	220.49
757.53	220.25
757.86	220.16
758.19	219.97
758.51	219.91
758.84	219.59
759.17	219.53
759.49	219.38
759.82	219.38
760.15	219.21
760.47	219.08
760.80	218.90
761.13	218.80
761.45	218.71
761.78	218.57
762.11	218.52
762.43	218.46
762.76	218.31
763.08	218.29
763.41	218.28
763.74	218.23
764.06	218.24
764.39	218.15
764.71	218.05
765.04	217.92
765.37	217.80
765.69	217.73
766.02	217.65
766.34	217.61
766.67	217.45
767.00	217.43
767.32	217.57
767.65	217.72
767.97	217.66
768.30	217.67
768.62	217.60
768.95	217.50
769.27	217.49
769.60	217.53
769.92	217.43
770.25	217.32
770.57	217.20
770.90	217.13
771.22	217.09
771.55	217.04
771.87	217.03
772.20	216.99
772.52	217.19
772.85	217.52
773.17	217.42
773.50	217.27
773.82	217.30
774.15	217.09
774.47	216.83
774.80	216.77
775.12	216.65
775.45	216.64
775.77	216.58
776.09	216.56
776.42	216.49
776.74	216.50
777.07	216.40
777.39	216.49
777.72	216.39
778.04	216.41
778.36	216.35
778.69	216.40
779.01	216.34
779.33	216.00
779.66	215.63
779.98	215.59
780.31	215.68
780.63	215.70
780.95	215.68
781.28	215.66
781.60	215.55
781.92	215.58
782.25	215.60
782.57	215.56
782.89	215.40
783.22	215.44
783.54	215.36
783.86	215.43
784.19	215.25
784.51	215.39
784.83	215.25
785.16	215.20
785.48	215.12
785.80	215.13
786.12	215.16
786.45	215.05
786.77	215.03
787.09	214.95
787.42	214.76
787.74	214.75
788.06	214.78
788.38	214.74
788.71	214.65
789.03	214.59
789.35	214.65
789.67	214.62
789.99	214.56
790.32	214.46
790.64	214.46
790.96	214.76
791.28	214.53
791.61	214.56
791.93	214.57
792.25	214.58
792.57	214.75
792.89	214.62
793.21	214.66
793.54	214.61
793.86	214.53
794.18	214.59
794.50	214.50
794.82	214.44
795.14	214.52
795.47	214.58
795.79	214.55
796.11	214.47
796.43	214.38
796.75	214.29
797.07	214.32
797.39	214.26
797.71	213.95
798.04	214.01
798.36	213.96
798.68	213.93
799.00	213.92
799.32	213.74
799.64	213.86
799.96	213.81
800.28	213.81
800.60	213.75
800.92	213.81
801.24	213.76
801.56	213.81
801.89	213.76
802.21	213.72
802.53	213.66
802.85	213.64
803.17	213.91
803.49	213.88
803.81	213.78
804.13	213.78
804.45	213.71
804.77	213.71
805.09	213.67
805.41	213.63
805.73	213.58
806.05	213.41
806.37	213.35
806.69	213.32
807.01	213.38
807.33	213.43
807.65	213.24
807.97	213.41
808.28	213.32
808.60	213.24
808.92	213.16
809.24	213.36
809.56	213.30
809.88	213.10
810.20	213.11
810.52	213.17
810.84	213.06
811.16	213.02
811.48	212.96
811.80	213.05
812.12	213.00
812.43	213.07
812.75	213.15
813.07	213.04
813.39	213.05
813.71	212.90
814.03	212.78
814.35	212.75
814.67	212.57
814.98	212.53
815.30	212.50
815.62	212.43
815.94	212.17
816.26	212.19
816.58	212.10
816.89	212.09
817.21	212.04
817.53	212.12
817.85	212.18
818.17	212.20
818.48	212.06
818.80	212.17
819.12	212.09
819.44	212.01
819.76	211.99
820.07	212.01
820.39	212.08
820.71	212.17
821.03	212.16
821.34	212.10
821.66	212.15
821.98	212.18
822.30	212.19
822.61	212.40
822.93	212.28
823.25	212.38
823.57	212.35
823.88	212.40
824.20	212.35
824.52	212.34
824.83	212.23
825.15	212.23
825.47	212.17
825.79	212.18
826.10	212.19
826.42	212.21
826.74	212.21
827.05	212.16
827.37	212.13
827.69	212.12
828.00	212.16
828.32	212.14
828.64	212.00
828.95	212.24
829.27	212.20
829.58	212.33
829.90	212.32
830.22	212.39
830.53	212.29
830.85	212.25
831.17	212.19
831.48	212.30
831.80	212.25
832.11	212.24
832.43	212.18
832.75	212.18
833.06	212.41
833.38	212.33
833.69	212.33
834.01	212.40
834.32	212.40
834.64	212.36
834.96	212.34
835.27	212.44
835.59	212.30
835.90	212.18
836.22	212.16
836.53	212.04
836.85	211.94
837.16	212.29
837.48	212.33
837.79	212.45
838.11	212.38
838.42	212.45
838.74	212.52
839.05	212.55
839.37	212.56
839.68	212.25
840.00	212.20
840.31	212.21
840.63	212.15
840.94	212.11
841.26	212.13
841.57	212.09
841.88	212.11
842.20	211.99
842.51	211.97
842.83	211.90
843.14	212.20
843.46	212.22
843.77	212.00
844.08	211.94
844.40	211.85
844.71	211.80
845.03	211.78
845.34	211.69
845.65	211.62
845.97	211.65
846.28	211.72
846.60	211.77
846.91	211.73
847.22	211.71
847.54	211.73
847.85	211.69
848.16	211.76
848.48	211.67
848.79	211.87
849.10	211.91
849.42	211.96
849.73	211.68
850.04	211.58
850.36	211.51
850.67	211.59
850.98	211.57
851.30	211.64
851.61	211.61
851.92	211.62
852.23	211.78
852.55	211.80
852.86	211.85
853.17	211.85
853.49	211.92
853.80	212.03
854.11	212.10
854.42	212.15
854.74	212.09
855.05	212.08
855.36	211.85
855.67	211.83
855.99	211.84
856.30	212.22
856.61	212.27
856.92	212.25
857.23	212.21
857.55	212.18
857.86	212.20
858.17	212.28
858.48	212.20
858.79	212.05
859.11	212.05
859.42	211.99
859.73	212.03
860.04	212.01
860.35	211.90
860.66	211.77
860.98	211.75
861.29	211.74
861.60	211.76
861.91	211.89
862.22	211.81
862.53	211.72
862.84	211.30
863.16	211.36
863.47	211.35
863.78	211.33
864.09	211.42
864.40	211.36
864.71	211.33
865.02	211.40
865.33	211.36
865.64	211.26
865.95	211.26
866.27	211.37
866.58	211.35
866.89	211.37
867.20	211.33
867.51	211.32
867.82	211.30
868.13	211.38
868.44	211.25
868.75	211.30
869.06	211.38
869.37	211.48
869.68	211.39
869.99	211.43
870.30	211.43
870.61	211.36
870.92	211.37
871.23	211.33
871.54	211.32
871.85	211.40
872.16	211.47
872.47	211.43
872.78	211.19
873.09	211.24
873.40	211.17
873.71	211.26
874.02	211.25
874.33	211.24
874.64	211.15
874.95	211.22
875.26	211.12
875.56	211.07
875.87	210.96
876.18	210.99
876.49	211.29
876.80	211.27
877.11	211.21
877.42	211.21
877.73	211.21
878.04	211.23
878.35	211.26
878.66	211.30
878.96	211.31
879.27	211.40
879.58	211.33
879.89	211.33
880.20	211.40
880.51	211.30
880.82	211.34
881.12	211.40
881.43	211.36
881.74	211.39
882.05	211.35
882.36	211.46
882.67	211.47
882.97	211.15
883.28	211.18
883.59	211.20
883.90	211.24
884.21	211.34
884.51	211.28
884.82	211.16
885.13	211.13
885.44	211.12
885.74	211.07
886.05	211.04
886.36	211.00
886.67	210.85
886.98	211.11
887.28	211.12
887.59	211.12
887.90	211.07
888.20	211.01
888.51	211.14
888.82	211.07
889.13	211.10
889.43	211.26
889.74	211.25
890.05	211.26
890.35	211.18
890.66	211.09
890.97	211.07
891.28	211.06
891.58	211.03
891.89	211.02
892.20	210.99
892.50	211.02
892.81	211.07
893.12	211.06
893.42	210.90
893.73	210.88
894.04	210.84
894.34	210.88
894.65	210.93
894.95	210.84
895.26	210.83
895.57	211.02
895.87	210.75
896.18	210.68
896.48	210.70
896.79	210.79
897.10	210.77
897.40	210.79
897.71	210.82
898.01	210.84
898.32	210.88
898.63	210.88
898.93	210.81
899.24	210.78
899.54	210.78
899.85	210.77
900.15	210.80
900.46	210.84
900.76	210.93
901.07	210.86
901.38	210.85
901.68	210.90
901.99	210.63
902.29	210.69
902.60	210.74
902.90	210.70
903.21	210.65
903.51	210.65
903.82	210.72
904.12	210.72
904.43	210.70
904.73	210.67
905.03	210.70
905.34	211.14
905.64	211.17
905.95	211.20
906.25	211.19
906.56	211.25
906.86	211.20
907.17	211.16
907.47	211.29
907.77	211.29
908.08	211.25
908.38	211.32
908.69	211.32
908.99	211.35
909.30	211.37
909.60	211.39
909.90	211.44
910.21	211.35
910.51	211.39
910.81	211.48
911.12	211.53
911.42	211.60
911.73	211.18
912.03	211.21
912.33	211.36
912.64	211.37
912.94	211.25
913.24	211.26
913.55	211.25
913.85	211.24
914.15	211.36
914.46	211.33
914.76	211.30
915.06	211.25
915.37	211.24
915.67	211.22
915.97	211.24
916.27	211.20
916.58	211.24
916.88	211.22
917.18	211.16
917.49	211.35
917.79	211.33
918.09	211.45
918.39	211.53
918.70	211.47
919.00	211.46
919.30	211.63
919.60	211.55
919.91	211.51
920.21	211.47
920.51	211.38
920.81	211.38
921.12	211.39
921.42	211.38
921.72	211.45
922.02	211.46
922.32	211.47
922.63	211.52
922.93	211.63
923.23	211.57
923.53	211.53
923.83	211.30
924.13	211.37
924.44	211.30
924.74	211.37
925.04	211.45
925.34	211.42
925.64	211.27
925.94	211.32
926.24	211.47
926.55	211.39
926.85	211.40
927.15	211.40
927.45	211.40
927.75	211.44
928.05	211.38
928.35	211.38
928.65	211.45
928.95	211.40
929.26	211.30
929.56	211.42
929.86	211.42
930.16	211.40
930.46	211.34
930.76	211.39
931.06	211.19
931.36	211.04
931.66	211.17
931.96	211.19
932.26	211.21
932.56	211.10
932.86	211.15
933.16	211.18
933.46	211.14
933.76	211.08
934.06	211.08
934.36	211.16
934.66	211.05
934.96	210.98
935.26	210.98
935.56	210.99
935.86	210.87
936.16	210.82
936.46	210.78
936.76	210.78
937.06	210.71
937.36	210.72
937.66	210.70
937.96	210.60
938.26	210.56
938.56	210.51
938.86	210.55
939.16	210.66
939.46	210.65
939.76	210.72
940.06	210.75
940.35	210.81
940.65	210.65
940.95	210.71
941.25	210.66
941.55	210.61
941.85	210.65
942.15	210.73
942.45	210.84
942.75	210.86
943.04	210.86
943.34	210.95
943.64	210.95
943.94	210.92
944.24	210.91
944.54	210.98
944.84	210.97
945.13	210.91
945.43	210.90
945.73	210.92
946.03	210.95
946.33	210.95
946.62	210.85
946.92	210.91
947.22	211.02
947.52	211.08
947.82	211.17
948.11	211.14
948.41	211.08
948.71	211.05
949.01	211.05
949.31	210.96
949.60	210.90
949.90	210.96
950.20	211.01
950.50	211.08
950.79	211.03
951.09	211.08
951.39	211.06
951.69	210.98
951.98	211.06
952.28	210.99
952.58	211.02
952.87	211.03
953.17	211.02
953.47	211.02
953.76	211.03
954.06	211.01
954.36	210.94
954.66	211.00
954.95	211.05
955.25	211.09
955.55	211.10
955.84	211.04
956.14	211.04
956.44	211.05
956.73	210.95
957.03	211.00
957.32	211.01
957.62	211.00
957.92	211.10
958.21	211.04
958.51	211.50
958.81	211.55
959.10	211.60
959.40	211.74
959.69	211.68
959.99	211.72
960.29	211.66
960.58	211.61
960.88	211.69
961.17	211.71
961.47	211.71
961.76	211.69
962.06	211.78
962.36	211.77
962.65	211.74
962.95	211.75
963.24	211.74
963.54	211.78
963.83	211.87
964.13	211.83
964.42	211.72
964.72	211.39
965.01	211.31
965.31	211.28
965.60	211.20
965.90	211.41
966.19	211.28
966.49	211.32
966.78	211.41
967.08	211.41
967.37	211.36
967.67	211.29
967.96	211.42
968.26	211.46
968.55	211.57
968.85	211.55
969.14	211.57
969.43	211.51
969.73	211.44
970.02	211.37
970.32	211.32
970.61	211.34
970.91	211.24
971.20	211.26
971.49	211.25
971.79	211.30
972.08	211.06
972.38	211.09
972.67	211.09
972.96	211.06
973.26	211.01
973.55	211.17
973.85	211.19
974.14	211.13
974.43	211.09
974.73	210.95
975.02	210.94
975.31	210.95
975.61	210.99
975.90	211.00
976.19	210.92
976.49	210.96
976.78	210.97
977.07	210.92
977.37	210.92
977.66	210.93
977.95	210.83
978.24	210.91
978.54	210.98
978.83	210.96
979.12	210.94
979.42	210.86
979.71	210.75
980.00	210.71
980.29	210.75
980.59	210.67
980.88	210.81
981.17	210.81
981.46	210.81
981.76	210.81
982.05	210.92
982.34	211.04
982.63	211.06
982.93	211.10
983.22	211.23
983.51	211.30
983.80	211.34
984.09	211.33
984.39	211.31
984.68	211.31
984.97	211.32
985.26	211.36
985.55	211.37
985.85	211.31
986.14	211.37
986.43	211.38
986.72	211.45
987.01	211.35
987.30	211.34
987.59	211.31
987.89	211.30
988.18	211.22
988.47	211.19
988.76	211.15
989.05	211.12
989.34	211.13
989.63	211.22
989.92	211.14
990.22	211.06
990.51	211.08
990.80	211.02
991.09	211.03
991.38	211.06
991.67	211.03
991.96	210.92
992.25	210.95
992.54	210.91
992.83	210.82
993.12	210.80
993.41	210.83
993.70	210.96
993.99	211.03
994.28	210.98
994.58	211.03
994.87	210.95
995.16	210.88
995.45	210.78
995.74	210.64
996.03	210.75
996.32	210.88
996.61	210.92
996.90	211.01
997.19	211.04
997.48	211.03
997.77	211.03
998.06	211.08
998.34	211.04
998.63	211.01
998.92	211.07
999.21	211.09
999.50	211.16
999.79	211.05
1000.08	210.99
1000.37	211.02
1000.66	210.94
1000.95	211.05
1001.24	211.10
1001.53	211.18
1001.82	211.14
1002.11	211.05
1002.40	211.06
1002.68	211.10
1002.97	211.22
1003.26	211.18
1003.55	211.10
1003.84	211.15
1004.13	211.34
1004.42	211.31
1004.71	211.33
1004.99	211.25
1005.28	211.34
1005.57	211.32
1005.86	211.25
1006.15	211.27
1006.44	211.23
1006.72	211.30
1007.01	211.28
1007.30	211.23
1007.59	211.16
1007.88	211.16
1008.17	211.15
1008.45	211.05
1008.74	210.88
1009.03	210.69
1009.32	210.67
1009.60	210.64
1009.89	210.59
1010.18	210.35
1010.47	210.31
1010.76	210.29
1011.04	210.32
1011.33	210.30
1011.62	210.26
1011.91	210.30
1012.19	210.31
1012.48	210.30
1012.77	210.26
1013.05	210.36
1013.34	210.41
1013.63	210.40
1013.92	210.36
1014.20	210.35
1014.49	210.44
1014.78	210.51
1015.06	210.44
1015.35	210.40
1015.64	210.48
1015.92	210.55
1016.21	210.70
1016.50	210.69
1016.78	210.82
1017.07	210.82
1017.36	210.77
1017.64	210.78
1017.93	210.83
1018.22	210.77
1018.50	210.77
1018.79	210.75
1019.08	210.60
1019.36	210.56
1019.65	210.53
1019.93	210.67
1020.22	210.80
1020.51	210.95
1020.79	210.89
1021.08	210.05
1021.36	209.65
1021.65	209.85
1021.94	210.50
1022.22	209.90
1022.51	209.80
1022.79	212.35
1023.08	212.65
1023.36	214.90
1023.65	210.15
>>>>>End Processed Spectral Data<<<<<
