SpectraSuite Data File
++++++++++++++++++++++++++++++++++++
Date: Mon Feb 25 17:08:19 EST 2013
User: group
Dark Spectrum Present: No
Reference Spectrum Present: No
Number of Sampled Component Spectra: 1
Spectrometers: USB2E7196
Integration Time (usec): 104000 (USB2E7196)
Spectra Averaged: 20 (USB2E7196)
Boxcar Smoothing: 10 (USB2E7196)
Correct for Electrical Dark: No (USB2E7196)
Strobe/Lamp Enabled: No (USB2E7196)
Correct for Detector Non-linearity: No (USB2E7196)
Correct for Stray Light: No (USB2E7196)
Number of Pixels in Processed Spectrum: 2048
>>>>>Begin Processed Spectral Data<<<<<
339.09	0.00
339.48	198.65
339.86	199.70
340.24	202.00
340.63	202.85
341.01	209.60
341.39	206.25
341.78	206.90
342.16	208.85
342.54	207.75
342.93	198.30
343.31	208.32
343.69	208.80
344.07	209.27
344.46	209.70
344.84	210.07
345.22	210.12
345.60	210.30
345.99	210.45
346.37	210.49
346.75	210.60
347.13	210.65
347.52	210.67
347.90	210.73
348.28	210.73
348.66	210.83
349.05	210.63
349.43	210.69
349.81	210.73
350.19	210.73
350.57	210.72
350.96	210.83
351.34	210.87
351.72	211.00
352.10	211.06
352.48	211.05
352.87	211.01
353.25	211.03
353.63	211.10
354.01	211.22
354.39	211.38
354.77	211.47
355.15	211.52
355.54	211.54
355.92	211.48
356.30	211.56
356.68	211.82
357.06	211.99
357.44	212.05
357.82	212.02
358.20	212.08
358.58	212.15
358.97	212.17
359.35	212.26
359.73	212.40
360.11	212.45
360.49	212.52
360.87	212.70
361.25	212.85
361.63	213.08
362.01	213.06
362.39	213.02
362.77	213.09
363.15	213.22
363.53	213.23
363.91	213.30
364.29	213.34
364.67	213.02
365.05	213.02
365.43	213.05
365.81	213.16
366.19	213.30
366.57	213.42
366.95	213.43
367.33	213.38
367.71	213.39
368.09	213.47
368.47	213.49
368.85	213.45
369.23	213.51
369.61	213.27
369.99	213.44
370.37	213.50
370.75	213.64
371.13	213.47
371.51	213.43
371.89	213.45
372.27	213.45
372.65	213.49
373.03	213.47
373.41	213.41
373.78	213.30
374.16	213.19
374.54	213.08
374.92	213.03
375.30	213.00
375.68	212.83
376.06	212.82
376.44	212.75
376.82	212.71
377.19	212.60
377.57	212.57
377.95	212.40
378.33	212.30
378.71	212.03
379.09	212.07
379.47	212.10
379.84	212.00
380.22	211.96
380.60	211.89
380.98	211.92
381.36	211.88
381.73	211.82
382.11	211.81
382.49	211.71
382.87	211.65
383.25	211.56
383.62	211.97
384.00	211.77
384.38	211.74
384.76	211.79
385.13	211.79
385.51	211.73
385.89	211.57
386.27	211.59
386.64	211.69
387.02	211.63
387.40	211.50
387.78	211.46
388.15	211.35
388.53	211.22
388.91	211.09
389.29	211.07
389.66	211.13
390.04	211.02
390.42	211.07
390.79	211.10
391.17	211.15
391.55	210.75
391.92	210.76
392.30	210.78
392.68	210.59
393.05	210.63
393.43	210.64
393.81	210.69
394.18	210.55
394.56	210.47
394.94	210.49
395.31	210.46
395.69	210.57
396.06	210.61
396.44	210.65
396.82	210.62
397.19	210.70
397.57	210.62
397.95	210.67
398.32	210.56
398.70	210.52
399.07	210.56
399.45	210.51
399.82	210.56
400.20	210.62
400.58	210.69
400.95	210.53
401.33	210.58
401.70	210.92
402.08	211.05
402.45	211.08
402.83	211.19
403.20	211.32
403.58	211.38
403.95	211.52
404.33	211.70
404.71	211.76
405.08	212.01
405.46	212.09
405.83	212.23
406.21	212.35
406.58	212.49
406.96	212.57
407.33	212.67
407.70	212.80
408.08	213.17
408.45	213.36
408.83	213.59
409.20	213.75
409.58	213.70
409.95	213.98
410.33	214.20
410.70	214.29
411.08	214.50
411.45	214.70
411.82	214.94
412.20	215.22
412.57	215.72
412.95	215.75
413.32	216.16
413.69	216.47
414.07	216.85
414.44	217.31
414.82	217.83
415.19	218.40
415.56	218.85
415.94	219.19
416.31	219.89
416.68	220.55
417.06	221.22
417.43	221.96
417.81	222.72
418.18	223.59
418.55	224.53
418.93	225.44
419.30	226.34
419.67	227.29
420.04	228.39
420.42	229.41
420.79	231.06
421.16	232.30
421.54	233.75
421.91	235.14
422.28	236.54
422.66	238.03
423.03	239.76
423.40	241.40
423.77	243.06
424.15	244.66
424.52	246.37
424.89	248.32
425.26	250.08
425.64	251.76
426.01	253.58
426.38	255.58
426.75	257.79
427.13	259.98
427.50	262.24
427.87	264.51
428.24	266.79
428.61	268.75
428.99	271.47
429.36	274.00
429.73	276.73
430.10	279.41
430.47	282.11
430.85	284.75
431.22	287.77
431.59	291.15
431.96	294.15
432.33	297.51
432.70	300.74
433.08	304.52
433.45	308.12
433.82	311.83
434.19	315.92
434.56	319.76
434.93	323.51
435.30	327.34
435.68	331.39
436.05	335.59
436.42	339.69
436.79	343.33
437.16	347.36
437.53	351.53
437.90	355.76
438.27	359.93
438.64	364.13
439.01	368.08
439.38	371.43
439.75	374.92
440.13	378.90
440.50	382.62
440.87	385.77
441.24	388.99
441.61	392.45
441.98	394.90
442.35	397.84
442.72	400.99
443.09	403.91
443.46	405.79
443.83	407.01
444.20	408.06
444.57	409.59
444.94	410.50
445.31	411.30
445.68	412.47
446.05	412.81
446.42	412.59
446.79	412.35
447.16	411.91
447.53	411.74
447.90	410.28
448.27	408.92
448.64	406.76
449.01	405.33
449.37	402.72
449.74	400.23
450.11	397.45
450.48	393.96
450.85	390.46
451.22	387.53
451.59	384.80
451.96	382.11
452.33	378.44
452.70	375.08
453.07	371.09
453.43	366.67
453.80	362.82
454.17	359.03
454.54	355.40
454.91	351.55
455.28	347.83
455.65	344.45
456.02	341.61
456.38	338.71
456.75	335.02
457.12	331.90
457.49	328.84
457.86	325.63
458.23	323.25
458.59	320.55
458.96	317.74
459.33	315.16
459.70	312.70
460.07	310.80
460.43	308.54
460.80	306.52
461.17	304.80
461.54	302.90
461.91	301.09
462.27	299.26
462.64	297.72
463.01	295.91
463.38	294.20
463.74	291.92
464.11	290.39
464.48	289.11
464.85	287.74
465.21	286.69
465.58	285.53
465.95	283.95
466.32	282.71
466.68	281.63
467.05	280.44
467.42	279.27
467.78	278.02
468.15	276.91
468.52	276.05
468.88	274.76
469.25	273.74
469.62	272.99
469.98	272.11
470.35	271.30
470.72	270.51
471.08	269.55
471.45	268.86
471.82	268.26
472.18	267.40
472.55	266.82
472.92	266.04
473.28	265.41
473.65	264.81
474.02	264.21
474.38	263.66
474.75	263.30
475.11	262.83
475.48	262.49
475.85	262.14
476.21	261.77
476.58	261.58
476.94	261.39
477.31	261.05
477.67	260.73
478.04	260.47
478.41	260.30
478.77	260.58
479.14	260.29
479.50	260.17
479.87	260.27
480.23	260.16
480.60	260.17
480.96	260.14
481.33	260.43
481.69	260.56
482.06	260.66
482.42	260.75
482.79	260.91
483.15	261.01
483.52	261.25
483.88	261.39
484.25	261.46
484.61	261.66
484.98	261.89
485.34	262.27
485.71	262.63
486.07	263.04
486.44	263.07
486.80	263.51
487.17	263.97
487.53	264.47
487.90	265.02
488.26	265.69
488.62	266.45
488.99	266.86
489.35	267.49
489.72	268.09
490.08	268.73
490.44	269.36
490.81	270.21
491.17	270.95
491.54	271.92
491.90	272.95
492.26	273.92
492.63	274.94
492.99	275.86
493.36	277.00
493.72	278.12
494.08	279.31
494.45	280.64
494.81	281.91
495.17	283.01
495.54	284.35
495.90	285.60
496.26	286.87
496.63	288.41
496.99	289.96
497.35	291.62
497.72	293.31
498.08	294.96
498.44	296.60
498.80	298.45
499.17	300.19
499.53	301.95
499.89	303.85
500.26	305.80
500.62	307.95
500.98	310.01
501.34	312.15
501.71	314.30
502.07	316.36
502.43	318.50
502.79	320.68
503.16	322.92
503.52	325.29
503.88	327.64
504.24	330.07
504.60	332.38
504.97	334.89
505.33	337.34
505.69	340.16
506.05	342.80
506.41	345.41
506.78	347.99
507.14	350.76
507.50	353.53
507.86	356.28
508.22	358.92
508.59	361.66
508.95	364.52
509.31	367.51
509.67	370.62
510.03	373.65
510.39	376.80
510.75	379.99
511.12	383.09
511.48	386.26
511.84	389.34
512.20	392.62
512.56	395.88
512.92	399.30
513.28	402.55
513.64	405.92
514.00	409.34
514.37	412.93
514.73	416.50
515.09	420.06
515.45	423.66
515.81	427.37
516.17	431.04
516.53	434.60
516.89	438.22
517.25	441.76
517.61	445.57
517.97	449.35
518.33	453.05
518.69	456.77
519.05	460.62
519.41	464.81
519.77	469.09
520.13	473.07
520.49	476.85
520.85	480.93
521.21	485.14
521.57	489.21
521.93	493.01
522.29	497.07
522.65	501.04
523.01	505.07
523.37	509.01
523.73	513.17
524.09	517.29
524.45	521.37
524.81	525.65
525.17	529.88
525.53	534.25
525.89	538.53
526.25	542.84
526.61	546.95
526.97	550.93
527.33	555.00
527.68	559.61
528.04	564.00
528.40	568.05
528.76	572.12
529.12	576.70
529.48	581.55
529.84	585.87
530.20	590.49
530.56	595.03
530.91	599.70
531.27	604.18
531.63	608.90
531.99	613.50
532.35	617.93
532.71	622.39
533.07	627.00
533.42	631.94
533.78	636.67
534.14	641.46
534.50	645.85
534.86	650.40
535.21	654.37
535.57	659.07
535.93	663.61
536.29	668.37
536.65	672.67
537.00	676.53
537.36	680.88
537.72	684.87
538.08	689.25
538.44	693.47
538.79	697.66
539.15	701.68
539.51	705.84
539.87	710.24
540.22	714.36
540.58	718.53
540.94	722.15
541.29	725.95
541.65	729.54
542.01	733.66
542.37	737.44
542.72	741.40
543.08	745.03
543.44	748.81
543.79	752.15
544.15	755.60
544.51	759.43
544.87	763.18
545.22	766.79
545.58	769.86
545.94	773.13
546.29	776.38
546.65	779.49
547.01	782.59
547.36	785.30
547.72	788.33
548.07	791.00
548.43	793.73
548.79	796.51
549.14	799.30
549.50	801.82
549.86	804.08
550.21	806.51
550.57	808.85
550.92	810.94
551.28	813.16
551.64	815.37
551.99	817.68
552.35	819.62
552.70	821.47
553.06	823.67
553.41	825.63
553.77	827.68
554.13	829.72
554.48	831.49
554.84	833.68
555.19	835.35
555.55	837.05
555.90	838.51
556.26	839.92
556.61	841.36
556.97	842.55
557.32	844.01
557.68	845.25
558.03	846.34
558.39	847.59
558.74	848.94
559.10	850.18
559.45	851.39
559.81	852.69
560.16	853.86
560.52	854.89
560.87	855.75
561.23	856.30
561.58	857.27
561.94	858.03
562.29	858.50
562.64	859.17
563.00	859.75
563.35	860.63
563.71	861.60
564.06	862.44
564.42	863.50
564.77	864.34
565.12	865.23
565.48	866.32
565.83	867.22
566.19	867.94
566.54	868.32
566.89	868.41
567.25	868.75
567.60	869.24
567.96	869.73
568.31	870.19
568.66	870.51
569.02	870.22
569.37	869.94
569.72	870.05
570.08	869.93
570.43	869.72
570.78	869.37
571.14	868.72
571.49	868.08
571.84	867.58
572.20	866.83
572.55	866.07
572.90	865.05
573.26	864.20
573.61	863.28
573.96	862.40
574.31	861.54
574.67	860.28
575.02	859.15
575.37	857.80
575.72	856.18
576.08	855.22
576.43	854.03
576.78	853.10
577.13	851.74
577.49	850.55
577.84	849.50
578.19	848.51
578.54	847.79
578.90	846.83
579.25	845.60
579.60	844.32
579.95	843.07
580.30	841.85
580.66	840.68
581.01	839.36
581.36	837.84
581.71	836.55
582.06	835.56
582.42	834.15
582.77	832.77
583.12	831.83
583.47	830.59
583.82	829.58
584.17	828.25
584.53	827.26
584.88	826.08
585.23	824.93
585.58	823.51
585.93	821.90
586.28	820.73
586.63	819.37
586.98	818.41
587.34	817.36
587.69	816.01
588.04	814.40
588.39	813.07
588.74	811.62
589.09	810.28
589.44	808.37
589.79	807.06
590.14	805.67
590.49	804.09
590.84	802.46
591.19	801.27
591.54	799.74
591.89	797.66
592.25	796.14
592.60	794.35
592.95	792.70
593.30	790.78
593.65	788.67
594.00	786.75
594.35	785.53
594.70	783.41
595.05	781.64
595.40	780.05
595.75	777.91
596.10	776.50
596.45	774.79
596.80	773.52
597.15	772.01
597.50	770.39
597.85	768.89
598.19	767.11
598.54	765.20
598.89	763.64
599.24	762.35
599.59	760.62
599.94	758.99
600.29	757.38
600.64	755.83
600.99	754.27
601.34	752.90
601.69	750.70
602.04	748.92
602.39	747.27
602.74	745.82
603.08	744.59
603.43	743.29
603.78	741.69
604.13	739.92
604.48	738.20
604.83	736.85
605.18	735.48
605.53	733.94
605.87	732.04
606.22	730.56
606.57	728.85
606.92	727.17
607.27	725.44
607.62	723.73
607.96	722.18
608.31	720.74
608.66	718.90
609.01	716.89
609.36	715.33
609.70	713.51
610.05	711.39
610.40	709.51
610.75	707.26
611.10	705.49
611.44	703.23
611.79	701.04
612.14	698.53
612.49	695.82
612.83	693.70
613.18	691.44
613.53	689.17
613.88	686.68
614.22	684.39
614.57	682.07
614.92	679.85
615.27	677.69
615.61	675.13
615.96	672.83
616.31	670.70
616.65	668.63
617.00	666.32
617.35	664.29
617.70	661.82
618.04	659.43
618.39	656.81
618.74	654.63
619.08	652.29
619.43	650.08
619.78	647.98
620.12	645.50
620.47	643.38
620.82	640.88
621.16	638.49
621.51	636.20
621.85	633.95
622.20	631.40
622.55	628.67
622.89	626.32
623.24	623.93
623.59	621.27
623.93	618.66
624.28	616.34
624.62	614.03
624.97	611.76
625.32	609.50
625.66	607.20
626.01	604.79
626.35	602.62
626.70	600.34
627.04	598.39
627.39	596.32
627.73	594.15
628.08	591.98
628.43	589.69
628.77	587.41
629.12	585.07
629.46	582.87
629.81	580.83
630.15	578.70
630.50	576.45
630.84	574.32
631.19	572.13
631.53	569.84
631.88	567.24
632.22	564.84
632.57	562.66
632.91	560.38
633.26	558.19
633.60	555.84
633.95	553.65
634.29	551.12
634.64	548.92
634.98	546.66
635.32	544.64
635.67	542.73
636.01	540.65
636.36	538.40
636.70	536.50
637.05	534.40
637.39	532.32
637.73	530.37
638.08	528.58
638.42	526.59
638.77	524.72
639.11	522.84
639.45	520.90
639.80	518.68
640.14	516.61
640.49	514.55
640.83	512.43
641.17	510.43
641.52	508.30
641.86	506.07
642.20	503.98
642.55	501.63
642.89	499.34
643.23	497.02
643.58	495.24
643.92	493.00
644.26	490.93
644.61	488.86
644.95	486.80
645.29	484.55
645.64	482.54
645.98	480.35
646.32	478.23
646.66	475.99
647.01	473.91
647.35	472.05
647.69	469.95
648.04	468.08
648.38	465.86
648.72	463.88
649.06	461.78
649.41	459.71
649.75	457.75
650.09	455.98
650.43	454.16
650.78	451.87
651.12	449.79
651.46	447.87
651.80	445.93
652.14	443.90
652.49	441.96
652.83	439.83
653.17	437.83
653.51	435.82
653.85	434.00
654.20	432.18
654.54	430.07
654.88	428.13
655.22	426.17
655.56	424.36
655.90	422.40
656.25	420.60
656.59	418.65
656.93	416.70
657.27	414.80
657.61	412.75
657.95	411.02
658.29	409.31
658.64	407.45
658.98	405.44
659.32	403.53
659.66	401.71
660.00	399.84
660.34	397.97
660.68	396.15
661.02	394.25
661.36	392.44
661.70	390.83
662.05	389.25
662.39	387.63
662.73	386.03
663.07	384.56
663.41	383.00
663.75	381.38
664.09	379.82
664.43	378.12
664.77	376.55
665.11	374.94
665.45	373.30
665.79	371.77
666.13	370.36
666.47	368.87
666.81	367.38
667.15	365.89
667.49	364.65
667.83	363.29
668.17	362.05
668.51	360.80
668.85	359.43
669.19	358.27
669.53	356.79
669.87	355.35
670.21	353.90
670.55	352.59
670.89	351.53
671.23	350.29
671.57	349.03
671.91	347.83
672.25	346.58
672.58	345.53
672.92	344.15
673.26	342.94
673.60	341.90
673.94	340.69
674.28	339.58
674.62	338.44
674.96	337.22
675.30	336.02
675.64	334.83
675.97	333.59
676.31	332.29
676.65	331.22
676.99	330.34
677.33	329.23
677.67	327.95
678.01	326.73
678.34	325.61
678.68	324.58
679.02	323.58
679.36	322.53
679.70	321.38
680.04	320.41
680.37	319.32
680.71	318.13
681.05	317.15
681.39	316.17
681.73	315.03
682.06	314.20
682.40	313.30
682.74	312.35
683.08	311.47
683.42	310.50
683.75	309.62
684.09	308.51
684.43	307.56
684.77	306.60
685.10	305.62
685.44	304.59
685.78	303.55
686.12	302.64
686.45	301.73
686.79	300.83
687.13	300.02
687.46	299.17
687.80	298.37
688.14	297.37
688.48	296.55
688.81	295.69
689.15	294.75
689.49	293.77
689.82	292.85
690.16	291.87
690.50	290.89
690.83	289.98
691.17	289.04
691.51	288.22
691.84	287.53
692.18	286.72
692.52	286.11
692.85	285.56
693.19	284.82
693.52	284.00
693.86	283.12
694.20	282.34
694.53	281.56
694.87	280.72
695.21	280.01
695.54	279.22
695.88	278.45
696.21	277.63
696.55	276.97
696.88	276.24
697.22	275.54
697.56	275.00
697.89	274.27
698.23	273.60
698.56	272.90
698.90	272.20
699.23	271.53
699.57	270.83
699.90	270.02
700.24	269.27
700.58	268.67
700.91	268.15
701.25	267.72
701.58	267.16
701.92	266.67
702.25	266.05
702.59	265.44
702.92	264.84
703.26	264.31
703.59	263.73
703.93	263.54
704.26	263.04
704.60	262.41
704.93	261.89
705.26	261.33
705.60	260.84
705.93	260.22
706.27	259.76
706.60	259.28
706.94	258.95
707.27	258.40
707.61	257.94
707.94	257.39
708.27	256.60
708.61	256.05
708.94	255.55
709.28	255.07
709.61	254.53
709.94	254.11
710.28	253.60
710.61	253.13
710.95	252.26
711.28	251.98
711.61	251.53
711.95	251.13
712.28	250.70
712.61	250.27
712.95	250.06
713.28	249.80
713.61	249.35
713.95	248.80
714.28	248.41
714.61	247.96
714.95	247.58
715.28	247.12
715.61	246.69
715.95	246.30
716.28	245.88
716.61	245.60
716.95	245.14
717.28	244.79
717.61	244.40
717.94	244.12
718.28	243.55
718.61	243.19
718.94	242.80
719.27	242.37
719.61	242.08
719.94	241.70
720.27	241.23
720.60	240.82
720.94	240.49
721.27	240.21
721.60	239.96
721.93	239.69
722.27	239.57
722.60	239.41
722.93	239.06
723.26	238.80
723.59	238.47
723.93	238.29
724.26	238.09
724.59	237.81
724.92	237.56
725.25	237.37
725.59	237.16
725.92	236.96
726.25	236.75
726.58	236.48
726.91	236.17
727.24	235.90
727.57	235.68
727.91	235.40
728.24	235.18
728.57	234.87
728.90	234.66
729.23	234.37
729.56	234.26
729.89	234.04
730.22	233.85
730.55	233.60
730.89	233.36
731.22	233.14
731.55	232.90
731.88	232.69
732.21	232.46
732.54	232.22
732.87	232.03
733.20	231.87
733.53	231.65
733.86	231.51
734.19	231.27
734.52	231.16
734.85	231.22
735.18	230.97
735.51	230.88
735.84	230.66
736.17	230.50
736.50	230.11
736.83	230.30
737.16	230.08
737.49	229.97
737.82	229.75
738.15	229.57
738.48	229.40
738.81	229.17
739.14	228.93
739.47	228.70
739.80	228.43
740.13	228.33
740.46	228.09
740.79	227.87
741.12	227.64
741.45	227.42
741.78	227.05
742.11	227.05
742.44	226.88
742.77	226.78
743.10	226.64
743.43	226.45
743.75	225.95
744.08	226.24
744.41	226.03
744.74	225.92
745.07	225.69
745.40	225.61
745.73	225.65
746.06	225.51
746.39	225.43
746.71	225.35
747.04	225.17
747.37	225.08
747.70	225.03
748.03	225.01
748.36	224.94
748.68	224.87
749.01	224.55
749.34	224.40
749.67	224.26
750.00	224.18
750.33	224.31
750.65	224.22
750.98	223.69
751.31	223.55
751.64	223.39
751.97	223.58
752.29	223.44
752.62	223.19
752.95	222.99
753.28	222.83
753.60	222.68
753.93	222.55
754.26	222.43
754.59	222.19
754.91	222.01
755.24	221.85
755.57	221.69
755.90	221.60
756.22	221.42
756.55	221.26
756.88	221.09
757.20	220.85
757.53	220.63
757.86	220.56
758.19	220.50
758.51	220.42
758.84	220.05
759.17	219.91
759.49	219.75
759.82	219.90
760.15	219.81
760.47	219.68
760.80	219.51
761.13	219.46
761.45	219.45
761.78	219.33
762.11	219.23
762.43	219.06
762.76	218.97
763.08	218.97
763.41	218.92
763.74	218.82
764.06	218.67
764.39	218.64
764.71	218.54
765.04	218.38
765.37	218.28
765.69	218.23
766.02	218.11
766.34	218.06
766.67	217.95
767.00	217.92
767.32	218.05
767.65	218.17
767.97	218.06
768.30	218.00
768.62	217.97
768.95	217.87
769.27	217.81
769.60	217.78
769.92	217.65
770.25	217.46
770.57	217.37
770.90	217.33
771.22	217.19
771.55	217.10
771.87	217.14
772.20	217.00
772.52	217.21
772.85	217.63
773.17	217.56
773.50	217.41
773.82	217.41
774.15	217.23
774.47	217.01
774.80	217.00
775.12	216.86
775.45	216.79
775.77	216.79
776.09	216.75
776.42	216.71
776.74	216.67
777.07	216.65
777.39	216.58
777.72	216.42
778.04	216.46
778.36	216.43
778.69	216.38
779.01	216.41
779.33	216.04
779.66	215.56
779.98	215.54
780.31	215.45
780.63	215.45
780.95	215.43
781.28	215.39
781.60	215.31
781.92	215.25
782.25	215.25
782.57	215.21
782.89	215.17
783.22	215.10
783.54	215.02
783.86	215.01
784.19	214.95
784.51	215.00
784.83	214.88
785.16	214.78
785.48	214.70
785.80	214.66
786.12	214.69
786.45	214.71
786.77	214.66
787.09	214.54
787.42	214.33
787.74	214.26
788.06	214.24
788.38	214.16
788.71	214.15
789.03	214.15
789.35	214.16
789.67	214.12
789.99	214.08
790.32	214.05
790.64	214.06
790.96	214.36
791.28	214.30
791.61	214.30
791.93	214.29
792.25	214.32
792.57	214.52
792.89	214.42
793.21	214.36
793.54	214.30
793.86	214.36
794.18	214.41
794.50	214.37
794.82	214.38
795.14	214.39
795.47	214.34
795.79	214.21
796.11	214.05
796.43	214.03
796.75	214.04
797.07	214.00
797.39	213.94
797.71	213.62
798.04	213.56
798.36	213.54
798.68	213.53
799.00	213.43
799.32	213.24
799.64	213.36
799.96	213.29
800.28	213.31
800.60	213.20
800.92	213.25
801.24	213.20
801.56	213.09
801.89	213.01
802.21	213.06
802.53	213.03
802.85	213.10
803.17	213.23
803.49	213.18
803.81	213.20
804.13	213.20
804.45	213.19
804.77	213.22
805.09	213.18
805.41	213.16
805.73	213.13
806.05	213.04
806.37	212.89
806.69	212.89
807.01	212.86
807.33	213.00
807.65	212.78
807.97	212.92
808.28	213.00
808.60	212.99
808.92	212.93
809.24	213.10
809.56	213.06
809.88	212.95
810.20	212.91
810.52	212.89
810.84	212.85
811.16	212.85
811.48	212.81
811.80	212.92
812.12	212.81
812.43	212.94
812.75	212.90
813.07	212.94
813.39	212.92
813.71	212.92
814.03	212.86
814.35	212.92
814.67	212.76
814.98	212.72
815.30	212.69
815.62	212.66
815.94	212.41
816.26	212.36
816.58	212.27
816.89	212.32
817.21	212.31
817.53	212.20
817.85	212.18
818.17	212.18
818.48	212.08
818.80	212.20
819.12	212.03
819.44	212.08
819.76	211.96
820.07	211.95
820.39	211.91
820.71	211.87
821.03	211.88
821.34	211.75
821.66	211.75
821.98	211.82
822.30	211.78
822.61	212.06
822.93	212.05
823.25	212.04
823.57	211.95
823.88	211.99
824.20	212.09
824.52	212.18
824.83	212.12
825.15	212.05
825.47	211.97
825.79	212.04
826.10	212.00
826.42	212.01
826.74	212.10
827.05	212.05
827.37	212.08
827.69	212.05
828.00	212.15
828.32	212.08
828.64	211.94
828.95	212.15
829.27	211.98
829.58	211.92
829.90	211.92
830.22	211.93
830.53	211.82
830.85	211.74
831.17	211.64
831.48	211.67
831.80	211.69
832.11	211.76
832.43	211.74
832.75	211.72
833.06	211.95
833.38	211.74
833.69	211.75
834.01	211.75
834.32	211.68
834.64	211.62
834.96	211.71
835.27	211.79
835.59	211.65
835.90	211.62
836.22	211.65
836.53	211.58
836.85	211.60
837.16	211.97
837.48	212.00
837.79	212.04
838.11	211.99
838.42	212.00
838.74	212.02
839.05	211.92
839.37	211.90
839.68	211.64
840.00	211.64
840.31	211.71
840.63	211.68
840.94	211.70
841.26	211.70
841.57	211.59
841.88	211.62
842.20	211.60
842.51	211.49
842.83	211.48
843.14	211.85
843.46	211.82
843.77	211.65
844.08	211.58
844.40	211.51
844.71	211.47
845.03	211.46
845.34	211.39
845.65	211.45
845.97	211.42
846.28	211.46
846.60	211.55
846.91	211.51
847.22	211.47
847.54	211.56
847.85	211.61
848.16	211.66
848.48	211.59
848.79	211.76
849.10	211.88
849.42	211.93
849.73	211.57
850.04	211.56
850.36	211.40
850.67	211.51
850.98	211.57
851.30	211.63
851.61	211.66
851.92	211.66
852.23	211.72
852.55	211.75
852.86	211.76
853.17	211.81
853.49	211.80
853.80	211.89
854.11	211.90
854.42	211.92
854.74	211.83
855.05	211.84
855.36	211.67
855.67	211.64
855.99	211.70
856.30	212.11
856.61	212.16
856.92	212.09
857.23	212.10
857.55	212.04
857.86	211.93
858.17	211.94
858.48	211.96
858.79	211.88
859.11	211.89
859.42	211.88
859.73	211.78
860.04	211.81
860.35	211.73
860.66	211.62
860.98	211.59
861.29	211.67
861.60	211.61
861.91	211.67
862.22	211.69
862.53	211.54
862.84	211.11
863.16	211.16
863.47	211.21
863.78	211.13
864.09	211.11
864.40	211.18
864.71	211.11
865.02	211.12
865.33	211.08
865.64	211.01
865.95	211.02
866.27	211.25
866.58	211.17
866.89	211.16
867.20	211.21
867.51	211.17
867.82	211.11
868.13	211.27
868.44	211.15
868.75	211.17
869.06	211.24
869.37	211.27
869.68	211.16
869.99	211.22
870.30	211.27
870.61	211.39
870.92	211.35
871.23	211.34
871.54	211.36
871.85	211.49
872.16	211.55
872.47	211.53
872.78	211.34
873.09	211.39
873.40	211.37
873.71	211.32
874.02	211.37
874.33	211.34
874.64	211.25
874.95	211.31
875.26	211.21
875.56	211.16
875.87	211.23
876.18	211.22
876.49	211.50
876.80	211.46
877.11	211.30
877.42	211.32
877.73	211.39
878.04	211.39
878.35	211.37
878.66	211.35
878.96	211.28
879.27	211.23
879.58	211.22
879.89	211.20
880.20	211.26
880.51	211.21
880.82	211.22
881.12	211.19
881.43	211.19
881.74	211.17
882.05	211.19
882.36	211.19
882.67	211.20
882.97	210.85
883.28	210.82
883.59	210.85
883.90	210.90
884.21	210.88
884.51	210.82
884.82	210.76
885.13	210.78
885.44	210.82
885.74	210.84
886.05	210.77
886.36	210.88
886.67	210.87
886.98	211.09
887.28	211.17
887.59	211.22
887.90	211.24
888.20	211.27
888.51	211.32
888.82	211.26
889.13	211.32
889.43	211.61
889.74	211.61
890.05	211.64
890.35	211.58
890.66	211.54
890.97	211.45
891.28	211.41
891.58	211.50
891.89	211.46
892.20	211.51
892.50	211.55
892.81	211.52
893.12	211.48
893.42	211.32
893.73	211.28
894.04	211.27
894.34	211.19
894.65	211.18
894.95	211.09
895.26	211.09
895.57	211.22
895.87	210.94
896.18	210.98
896.48	210.97
896.79	210.95
897.10	211.00
897.40	211.07
897.71	211.14
898.01	211.11
898.32	211.19
898.63	211.07
898.93	211.06
899.24	211.01
899.54	211.01
899.85	210.94
900.15	210.97
900.46	210.96
900.76	211.07
901.07	211.04
901.38	211.08
901.68	211.19
901.99	211.01
902.29	210.95
902.60	210.97
902.90	210.89
903.21	210.98
903.51	210.95
903.82	211.04
904.12	211.04
904.43	211.05
904.73	210.99
905.03	211.04
905.34	211.42
905.64	211.39
905.95	211.38
906.25	211.39
906.56	211.34
906.86	211.37
907.17	211.23
907.47	211.28
907.77	211.25
908.08	211.11
908.38	211.15
908.69	211.21
908.99	211.20
909.30	211.30
909.60	211.25
909.90	211.26
910.21	211.14
910.51	211.12
910.81	211.06
911.12	211.15
911.42	211.19
911.73	210.75
912.03	210.74
912.33	210.84
912.64	210.85
912.94	210.81
913.24	210.70
913.55	210.73
913.85	210.72
914.15	210.80
914.46	210.88
914.76	210.75
915.06	210.70
915.37	210.63
915.67	210.60
915.97	210.61
916.27	210.55
916.58	210.51
916.88	210.39
917.18	210.34
917.49	210.48
917.79	210.48
918.09	210.51
918.39	210.62
918.70	210.52
919.00	210.51
919.30	210.70
919.60	210.71
919.91	210.71
920.21	210.69
920.51	210.66
920.81	210.61
921.12	210.77
921.42	210.75
921.72	210.80
922.02	210.75
922.32	210.76
922.63	210.75
922.93	210.95
923.23	211.02
923.53	210.99
923.83	210.81
924.13	210.79
924.44	210.82
924.74	210.93
925.04	210.98
925.34	211.01
925.64	210.85
925.94	210.89
926.24	211.03
926.55	211.04
926.85	211.02
927.15	210.98
927.45	210.94
927.75	211.01
928.05	211.01
928.35	211.06
928.65	211.13
928.95	211.22
929.26	211.14
929.56	211.21
929.86	211.26
930.16	211.25
930.46	211.31
930.76	211.32
931.06	211.11
931.36	211.10
931.66	211.14
931.96	211.15
932.26	211.14
932.56	210.99
932.86	210.99
933.16	211.01
933.46	210.99
933.76	210.94
934.06	211.01
934.36	211.11
934.66	211.06
934.96	211.03
935.26	210.96
935.56	210.97
935.86	210.90
936.16	210.91
936.46	210.83
936.76	210.78
937.06	210.74
937.36	210.79
937.66	210.76
937.96	210.73
938.26	210.72
938.56	210.71
938.86	210.79
939.16	210.86
939.46	210.88
939.76	210.92
940.06	210.90
940.35	210.81
940.65	210.66
940.95	210.70
941.25	210.60
941.55	210.61
941.85	210.65
942.15	210.68
942.45	210.81
942.75	210.88
943.04	210.85
943.34	210.95
943.64	210.83
943.94	210.81
944.24	210.82
944.54	210.85
944.84	210.85
945.13	210.82
945.43	210.78
945.73	210.78
946.03	210.74
946.33	210.74
946.62	210.70
946.92	210.67
947.22	210.71
947.52	210.74
947.82	210.74
948.11	210.63
948.41	210.63
948.71	210.49
949.01	210.48
949.31	210.55
949.60	210.50
949.90	210.62
950.20	210.71
950.50	210.67
950.79	210.63
951.09	210.75
951.39	210.78
951.69	210.72
951.98	210.81
952.28	210.88
952.58	210.86
952.87	210.85
953.17	210.86
953.47	210.84
953.76	210.85
954.06	210.80
954.36	210.83
954.66	210.82
954.95	210.96
955.25	211.01
955.55	211.03
955.84	211.01
956.14	211.09
956.44	210.98
956.73	210.95
957.03	211.02
957.32	210.97
957.62	210.91
957.92	210.96
958.21	210.93
958.51	211.39
958.81	211.47
959.10	211.54
959.40	211.70
959.69	211.70
959.99	211.72
960.29	211.75
960.58	211.71
960.88	211.86
961.17	211.76
961.47	211.75
961.76	211.70
962.06	211.70
962.36	211.66
962.65	211.68
962.95	211.75
963.24	211.69
963.54	211.71
963.83	211.76
964.13	211.84
964.42	211.78
964.72	211.42
965.01	211.45
965.31	211.43
965.60	211.38
965.90	211.64
966.19	211.61
966.49	211.67
966.78	211.66
967.08	211.60
967.37	211.63
967.67	211.57
967.96	211.63
968.26	211.67
968.55	211.69
968.85	211.70
969.14	211.65
969.43	211.62
969.73	211.58
970.02	211.54
970.32	211.48
970.61	211.40
970.91	211.32
971.20	211.21
971.49	211.19
971.79	211.19
972.08	210.95
972.38	211.00
972.67	210.94
972.96	211.05
973.26	210.99
973.55	211.13
973.85	211.15
974.14	211.10
974.43	211.12
974.73	211.08
975.02	211.05
975.31	211.03
975.61	211.03
975.90	211.00
976.19	211.03
976.49	211.06
976.78	211.11
977.07	211.10
977.37	211.11
977.66	211.08
977.95	211.02
978.24	211.08
978.54	211.15
978.83	211.17
979.12	211.07
979.42	211.08
979.71	210.96
980.00	210.97
980.29	211.03
980.59	210.93
980.88	211.02
981.17	211.03
981.46	211.06
981.76	211.15
982.05	211.27
982.34	211.22
982.63	211.22
982.93	211.24
983.22	211.30
983.51	211.38
983.80	211.50
984.09	211.53
984.39	211.43
984.68	211.28
984.97	211.30
985.26	211.30
985.55	211.32
985.85	211.28
986.14	211.27
986.43	211.27
986.72	211.28
987.01	211.15
987.30	211.10
987.59	211.13
987.89	211.10
988.18	210.96
988.47	210.97
988.76	210.86
989.05	210.82
989.34	210.82
989.63	210.84
989.92	210.78
990.22	210.75
990.51	210.77
990.80	210.82
991.09	210.88
991.38	210.94
991.67	210.89
991.96	210.83
992.25	210.80
992.54	210.75
992.83	210.75
993.12	210.75
993.41	210.80
993.70	210.83
993.99	210.88
994.28	210.96
994.58	210.97
994.87	210.90
995.16	210.95
995.45	210.86
995.74	210.75
996.03	210.75
996.32	210.84
996.61	210.92
996.90	210.92
997.19	210.83
997.48	210.81
997.77	210.77
998.06	210.84
998.34	210.84
998.63	210.81
998.92	210.82
999.21	210.85
999.50	210.89
999.79	210.84
1000.08	210.84
1000.37	210.80
1000.66	210.82
1000.95	210.97
1001.24	210.99
1001.53	211.04
1001.82	211.10
1002.11	211.00
1002.40	210.98
1002.68	211.01
1002.97	211.19
1003.26	211.12
1003.55	211.05
1003.84	211.03
1004.13	211.14
1004.42	211.13
1004.71	211.13
1004.99	211.08
1005.28	211.19
1005.57	211.18
1005.86	211.10
1006.15	211.04
1006.44	211.01
1006.72	211.01
1007.01	210.96
1007.30	210.85
1007.59	210.77
1007.88	210.78
1008.17	210.84
1008.45	210.78
1008.74	210.56
1009.03	210.41
1009.32	210.46
1009.60	210.52
1009.89	210.50
1010.18	210.35
1010.47	210.36
1010.76	210.39
1011.04	210.41
1011.33	210.39
1011.62	210.41
1011.91	210.46
1012.19	210.39
1012.48	210.41
1012.77	210.40
1013.05	210.50
1013.34	210.48
1013.63	210.45
1013.92	210.39
1014.20	210.31
1014.49	210.37
1014.78	210.43
1015.06	210.38
1015.35	210.37
1015.64	210.39
1015.92	210.47
1016.21	210.45
1016.50	210.50
1016.78	210.46
1017.07	210.48
1017.36	210.37
1017.64	210.26
1017.93	210.29
1018.22	210.38
1018.50	210.40
1018.79	210.37
1019.08	210.28
1019.36	210.38
1019.65	210.37
1019.93	210.48
1020.22	210.57
1020.51	210.72
1020.79	210.74
1021.08	211.10
1021.36	210.85
1021.65	210.00
1021.94	211.15
1022.22	210.80
1022.51	209.00
1022.79	212.10
1023.08	210.75
1023.36	214.95
1023.65	210.35
>>>>>End Processed Spectral Data<<<<<
