SpectraSuite Data File
++++++++++++++++++++++++++++++++++++
Date: Mon Feb 25 17:00:28 EST 2013
User: group
Dark Spectrum Present: No
Reference Spectrum Present: No
Number of Sampled Component Spectra: 1
Spectrometers: USB2E7196
Integration Time (usec): 104000 (USB2E7196)
Spectra Averaged: 20 (USB2E7196)
Boxcar Smoothing: 10 (USB2E7196)
Correct for Electrical Dark: No (USB2E7196)
Strobe/Lamp Enabled: No (USB2E7196)
Correct for Detector Non-linearity: No (USB2E7196)
Correct for Stray Light: No (USB2E7196)
Number of Pixels in Processed Spectrum: 2048
>>>>>Begin Processed Spectral Data<<<<<
339.09	0.00
339.48	197.10
339.86	199.80
340.24	200.55
340.63	202.10
341.01	209.90
341.39	205.60
341.78	207.15
342.16	208.45
342.54	208.50
342.93	198.13
343.31	208.14
343.69	208.78
344.07	209.22
344.46	209.78
344.84	210.27
345.22	210.25
345.60	210.53
345.99	210.79
346.37	210.91
346.75	211.05
347.13	211.12
347.52	211.22
347.90	211.37
348.28	211.35
348.66	211.31
349.05	211.27
349.43	211.21
349.81	211.36
350.19	211.28
350.57	211.29
350.96	211.35
351.34	211.37
351.72	211.44
352.10	211.56
352.48	211.55
352.87	211.52
353.25	211.68
353.63	211.71
354.01	211.74
354.39	211.89
354.77	211.96
355.15	212.18
355.54	212.23
355.92	212.15
356.30	212.31
356.68	212.54
357.06	212.60
357.44	212.71
357.82	212.69
358.20	212.82
358.58	212.91
358.97	212.92
359.35	213.16
359.73	213.29
360.11	213.28
360.49	213.34
360.87	213.41
361.25	213.52
361.63	213.64
362.01	213.63
362.39	213.59
362.77	213.61
363.15	213.65
363.53	213.69
363.91	213.76
364.29	213.76
364.67	213.56
365.05	213.68
365.43	213.74
365.81	213.83
366.19	213.98
366.57	214.10
366.95	214.11
367.33	213.96
367.71	213.91
368.09	214.03
368.47	213.98
368.85	213.96
369.23	213.92
369.61	213.77
369.99	213.91
370.37	213.95
370.75	214.11
371.13	213.86
371.51	213.75
371.89	213.75
372.27	213.68
372.65	213.71
373.03	213.60
373.41	213.56
373.78	213.54
374.16	213.27
374.54	213.10
374.92	213.05
375.30	213.06
375.68	212.90
376.06	212.84
376.44	212.82
376.82	212.75
377.19	212.67
377.57	212.60
377.95	212.35
378.33	212.26
378.71	211.95
379.09	212.03
379.47	212.07
379.84	211.99
380.22	211.98
380.60	211.88
380.98	211.89
381.36	211.78
381.73	211.60
382.11	211.66
382.49	211.66
382.87	211.59
383.25	211.51
383.62	211.90
384.00	211.81
384.38	211.73
384.76	211.81
385.13	211.90
385.51	211.90
385.89	211.88
386.27	211.82
386.64	211.90
387.02	211.88
387.40	211.77
387.78	211.69
388.15	211.64
388.53	211.61
388.91	211.53
389.29	211.53
389.66	211.59
390.04	211.52
390.42	211.55
390.79	211.54
391.17	211.55
391.55	211.15
391.92	211.14
392.30	211.20
392.68	211.11
393.05	211.10
393.43	211.12
393.81	211.18
394.18	211.17
394.56	211.13
394.94	211.20
395.31	211.17
395.69	211.34
396.06	211.37
396.44	211.32
396.82	211.35
397.19	211.55
397.57	211.55
397.95	211.61
398.32	211.53
398.70	211.66
399.07	211.82
399.45	211.88
399.82	211.94
400.20	211.95
400.58	212.00
400.95	211.90
401.33	212.00
401.70	212.28
402.08	212.32
402.45	212.47
402.83	212.61
403.20	212.82
403.58	212.87
403.95	213.04
404.33	213.18
404.71	213.27
405.08	213.63
405.46	213.86
405.83	214.02
406.21	214.24
406.58	214.32
406.96	214.44
407.33	214.69
407.70	215.01
408.08	215.57
408.45	215.90
408.83	216.36
409.20	216.64
409.58	216.75
409.95	217.34
410.33	217.76
410.70	218.16
411.08	218.66
411.45	219.21
411.82	219.72
412.20	220.52
412.57	221.51
412.95	221.89
413.32	222.60
413.69	223.37
414.07	224.31
414.44	225.34
414.82	226.37
415.19	227.54
415.56	228.69
415.94	229.75
416.31	231.12
416.68	232.52
417.06	234.18
417.43	235.80
417.81	237.40
418.18	239.21
418.55	241.06
418.93	243.13
419.30	245.30
419.67	247.66
420.04	249.95
420.42	252.29
420.79	255.30
421.16	258.28
421.54	261.40
421.91	264.36
422.28	267.53
422.66	270.94
423.03	274.53
423.40	277.98
423.77	281.69
424.15	285.49
424.52	289.43
424.89	293.79
425.26	297.99
425.64	302.03
426.01	306.48
426.38	311.19
426.75	315.85
427.13	320.75
427.50	325.86
427.87	331.37
428.24	336.70
428.61	341.79
428.99	347.48
429.36	353.69
429.73	359.85
430.10	365.99
430.47	372.28
430.85	378.66
431.22	385.64
431.59	393.14
431.96	400.06
432.33	407.78
432.70	415.35
433.08	424.17
433.45	432.60
433.82	440.91
434.19	450.21
434.56	459.52
434.93	468.47
435.30	477.16
435.68	486.89
436.05	496.65
436.42	506.41
436.79	515.31
437.16	524.95
437.53	535.08
437.90	545.24
438.27	555.24
438.64	565.73
439.01	575.41
439.38	583.95
439.75	592.67
440.13	602.29
440.50	611.59
440.87	619.23
441.24	627.20
441.61	636.06
441.98	642.75
442.35	650.34
442.72	658.03
443.09	665.48
443.46	670.22
443.83	673.67
444.20	676.65
444.57	680.93
444.94	683.18
445.31	685.61
445.68	688.15
446.05	689.63
446.42	689.25
446.79	688.75
447.16	688.34
447.53	688.15
447.90	685.20
448.27	682.19
448.64	677.67
449.01	674.67
449.37	668.67
449.74	662.76
450.11	655.80
450.48	647.98
450.85	640.19
451.22	633.41
451.59	626.93
451.96	620.86
452.33	612.36
452.70	604.67
453.07	595.59
453.43	586.06
453.80	577.02
454.17	568.38
454.54	560.25
454.91	551.28
455.28	542.49
455.65	534.50
456.02	526.54
456.38	519.66
456.75	510.93
457.12	503.65
457.49	496.59
457.86	489.56
458.23	483.59
458.59	477.06
458.96	470.49
459.33	464.57
459.70	458.58
460.07	453.88
460.43	448.64
460.80	443.46
461.17	438.93
461.54	434.21
461.91	429.66
462.27	425.06
462.64	421.23
463.01	417.07
463.38	413.03
463.74	408.59
464.11	405.09
464.48	401.94
464.85	398.55
465.21	395.97
465.58	393.09
465.95	389.64
466.32	386.88
466.68	384.04
467.05	381.26
467.42	378.43
467.78	375.51
468.15	372.67
468.52	370.68
468.88	367.92
469.25	365.42
469.62	363.57
469.98	361.50
470.35	359.45
470.72	357.49
471.08	355.33
471.45	353.69
471.82	351.84
472.18	349.83
472.55	348.35
472.92	346.52
473.28	345.03
473.65	343.71
474.02	342.07
474.38	340.95
474.75	339.93
475.11	338.85
475.48	337.87
475.85	337.15
476.21	336.25
476.58	335.74
476.94	335.30
477.31	334.68
477.67	334.05
478.04	333.74
478.41	333.45
478.77	333.46
479.14	333.00
479.50	332.77
479.87	332.69
480.23	332.63
480.60	332.48
480.96	332.27
481.33	332.41
481.69	332.60
482.06	332.60
482.42	332.60
482.79	332.75
483.15	333.15
483.52	333.53
483.88	333.85
484.25	334.10
484.61	334.48
484.98	334.77
485.34	335.55
485.71	336.13
486.07	336.76
486.44	337.24
486.80	338.05
487.17	338.96
487.53	340.05
487.90	341.15
488.26	342.45
488.62	343.86
488.99	345.00
489.35	346.27
489.72	347.70
490.08	349.26
490.44	350.68
490.81	352.15
491.17	353.72
491.54	355.52
491.90	357.31
492.26	359.18
492.63	361.14
492.99	362.98
493.36	364.95
493.72	367.12
494.08	369.23
494.45	371.59
494.81	373.92
495.17	376.28
495.54	378.68
495.90	381.03
496.26	383.53
496.63	386.10
496.99	388.87
497.35	391.53
497.72	394.24
498.08	397.02
498.44	399.83
498.80	402.72
499.17	405.61
499.53	408.43
499.89	411.35
500.26	414.18
500.62	417.04
500.98	420.01
501.34	422.84
501.71	425.87
502.07	428.65
502.43	431.43
502.79	434.02
503.16	436.65
503.52	439.48
503.88	442.17
504.24	444.73
504.60	447.30
504.97	450.05
505.33	452.58
505.69	455.51
506.05	457.99
506.41	460.37
506.78	462.56
507.14	464.75
507.50	466.97
507.86	469.29
508.22	471.54
508.59	473.59
508.95	475.66
509.31	477.73
509.67	479.72
510.03	481.65
510.39	483.67
510.75	485.60
511.12	487.37
511.48	488.96
511.84	490.66
512.20	492.27
512.56	493.78
512.92	495.34
513.28	496.65
513.64	497.96
514.00	499.21
514.37	500.50
514.73	501.74
515.09	502.92
515.45	504.02
515.81	504.94
516.17	505.80
516.53	506.67
516.89	507.28
517.25	507.90
517.61	508.45
517.97	509.05
518.33	509.54
518.69	510.12
519.05	510.72
519.41	511.25
519.77	511.67
520.13	511.85
520.49	511.96
520.85	511.88
521.21	512.18
521.57	512.54
521.93	512.72
522.29	513.17
522.65	513.26
523.01	513.59
523.37	513.70
523.73	514.03
524.09	514.14
524.45	514.30
524.81	514.67
525.17	515.26
525.53	515.59
525.89	515.95
526.25	516.30
526.61	516.47
526.97	516.77
527.33	517.21
527.68	517.95
528.04	518.62
528.40	519.25
528.76	519.85
529.12	520.48
529.48	521.42
529.84	521.99
530.20	522.84
530.56	523.50
530.91	524.62
531.27	525.59
531.63	526.73
531.99	527.94
532.35	528.90
532.71	529.75
533.07	530.92
533.42	532.48
533.78	533.64
534.14	535.15
534.50	536.45
534.86	537.94
535.21	539.23
535.57	540.70
535.93	542.16
536.29	543.90
536.65	545.46
537.00	546.79
537.36	548.40
537.72	550.09
538.08	551.86
538.44	553.38
538.79	555.20
539.15	556.98
539.51	558.86
539.87	560.90
540.22	563.00
540.58	565.33
540.94	567.07
541.29	569.15
541.65	571.00
542.01	573.33
542.37	575.38
542.72	577.54
543.08	579.75
543.44	582.23
543.79	584.22
544.15	586.62
544.51	589.42
544.87	592.07
545.22	594.57
545.58	596.86
545.94	599.39
546.29	601.83
546.65	604.25
547.01	606.63
547.36	609.18
547.72	611.89
548.07	614.20
548.43	616.69
548.79	619.06
549.14	621.68
549.50	624.20
549.86	626.78
550.21	629.40
550.57	632.16
550.92	634.56
551.28	637.37
551.64	639.99
551.99	642.35
552.35	644.62
552.70	646.97
553.06	649.55
553.41	652.03
553.77	654.69
554.13	657.24
554.48	660.17
554.84	662.78
555.19	665.09
555.55	667.80
555.90	670.34
556.26	672.96
556.61	675.22
556.97	677.49
557.32	679.99
557.68	682.25
558.03	684.52
558.39	686.67
558.74	688.91
559.10	691.21
559.45	693.54
559.81	695.99
560.16	698.19
560.52	700.53
560.87	702.97
561.23	704.80
561.58	707.39
561.94	709.05
562.29	711.02
562.64	713.13
563.00	715.06
563.35	717.27
563.71	719.43
564.06	721.74
564.42	723.95
564.77	726.08
565.12	728.32
565.48	730.77
565.83	733.13
566.19	735.21
566.54	737.00
566.89	738.82
567.25	740.92
567.60	743.09
567.96	745.35
568.31	747.28
568.66	749.23
569.02	750.46
569.37	752.06
569.72	753.66
570.08	755.15
570.43	756.56
570.78	757.73
571.14	758.72
571.49	759.85
571.84	760.74
572.20	761.44
572.55	762.16
572.90	762.23
573.26	762.77
573.61	763.15
573.96	763.73
574.31	764.05
574.67	764.23
575.02	764.21
575.37	763.90
575.72	763.58
576.08	763.70
576.43	763.63
576.78	763.61
577.13	763.57
577.49	763.55
577.84	763.27
578.19	763.21
578.54	763.53
578.90	763.52
579.25	763.55
579.60	763.09
579.95	762.60
580.30	762.61
580.66	762.39
581.01	762.13
581.36	761.61
581.71	760.98
582.06	760.50
582.42	760.15
582.77	759.48
583.12	758.94
583.47	758.33
583.82	757.91
584.17	757.37
584.53	757.02
584.88	756.20
585.23	755.70
585.58	754.89
585.93	753.85
586.28	753.09
586.63	752.33
586.98	751.91
587.34	751.59
587.69	750.74
588.04	750.05
588.39	749.36
588.74	748.47
589.09	748.04
589.44	747.00
589.79	746.25
590.14	745.48
590.49	744.72
590.84	743.66
591.19	742.89
591.54	741.83
591.89	740.19
592.25	739.40
592.60	738.00
592.95	736.73
593.30	735.36
593.65	733.92
594.00	732.36
594.35	731.88
594.70	730.26
595.05	729.02
595.40	727.53
595.75	725.81
596.10	724.63
596.45	723.16
596.80	721.99
597.15	720.71
597.50	719.31
597.85	718.00
598.19	716.57
598.54	714.94
598.89	713.59
599.24	712.51
599.59	711.03
599.94	709.75
600.29	708.31
600.64	707.01
600.99	705.64
601.34	704.17
601.69	701.63
602.04	700.03
602.39	698.39
602.74	696.90
603.08	695.64
603.43	694.33
603.78	692.76
604.13	691.14
604.48	689.30
604.83	688.11
605.18	686.78
605.53	685.30
605.87	683.56
606.22	682.06
606.57	680.46
606.92	678.79
607.27	677.18
607.62	675.58
607.96	673.98
608.31	672.41
608.66	670.89
609.01	669.39
609.36	667.53
609.70	665.64
610.05	663.56
610.40	661.66
610.75	659.48
611.10	657.87
611.44	655.74
611.79	653.89
612.14	651.57
612.49	649.08
612.83	647.17
613.18	645.25
613.53	643.14
613.88	640.82
614.22	638.58
614.57	636.33
614.92	634.27
615.27	632.05
615.61	629.88
615.96	627.71
616.31	625.75
616.65	624.04
617.00	622.10
617.35	620.28
617.70	618.09
618.04	615.85
618.39	613.46
618.74	611.43
619.08	609.17
619.43	607.07
619.78	605.02
620.12	602.79
620.47	600.61
620.82	598.17
621.16	595.88
621.51	593.75
621.85	591.71
622.20	589.39
622.55	586.98
622.89	584.58
623.24	582.36
623.59	579.92
623.93	577.67
624.28	575.32
624.62	573.26
624.97	571.28
625.32	569.14
625.66	566.93
626.01	564.74
626.35	562.75
626.70	560.60
627.04	558.65
627.39	556.51
627.73	554.52
628.08	552.79
628.43	550.80
628.77	548.56
629.12	546.38
629.46	544.47
629.81	542.61
630.15	540.61
630.50	538.52
630.84	536.32
631.19	534.11
631.53	532.23
631.88	529.83
632.22	527.48
632.57	525.57
632.91	523.56
633.26	521.56
633.60	519.42
633.95	517.36
634.29	515.26
634.64	513.30
634.98	511.21
635.32	509.26
635.67	507.56
636.01	505.70
636.36	503.91
636.70	502.11
637.05	500.20
637.39	498.39
637.73	496.64
638.08	495.05
638.42	493.36
638.77	491.67
639.11	490.12
639.45	488.56
639.80	486.63
640.14	484.70
640.49	482.94
640.83	481.04
641.17	479.34
641.52	477.52
641.86	475.75
642.20	473.94
642.55	471.79
642.89	469.75
643.23	467.90
643.58	466.05
643.92	464.11
644.26	462.33
644.61	460.42
644.95	458.48
645.29	456.57
645.64	454.65
645.98	452.69
646.32	450.80
646.66	448.76
647.01	446.95
647.35	445.32
647.69	443.42
648.04	441.70
648.38	439.87
648.72	437.93
649.06	435.89
649.41	434.12
649.75	432.43
650.09	430.86
650.43	429.07
650.78	427.25
651.12	425.37
651.46	423.58
651.80	421.96
652.14	420.29
652.49	418.60
652.83	416.93
653.17	415.12
653.51	413.31
653.85	411.83
654.20	410.18
654.54	408.31
654.88	406.62
655.22	405.08
655.56	403.25
655.90	401.66
656.25	400.09
656.59	398.34
656.93	396.71
657.27	395.03
657.61	393.39
657.95	391.63
658.29	390.14
658.64	388.58
658.98	386.93
659.32	385.24
659.66	383.62
660.00	382.02
660.34	380.40
660.68	378.88
661.02	377.09
661.36	375.61
661.70	374.10
662.05	372.66
662.39	371.21
662.73	369.83
663.07	368.58
663.41	367.22
663.75	365.77
664.09	364.49
664.43	363.05
664.77	361.62
665.11	360.25
665.45	358.91
665.79	357.61
666.13	356.26
666.47	354.96
666.81	353.63
667.15	352.30
667.49	351.20
667.83	350.08
668.17	348.84
668.51	347.55
668.85	346.45
669.19	345.35
669.53	344.01
669.87	342.83
670.21	341.52
670.55	340.37
670.89	339.58
671.23	338.35
671.57	337.13
671.91	336.02
672.25	334.99
672.58	333.84
672.92	332.68
673.26	331.59
673.60	330.44
673.94	329.44
674.28	328.42
674.62	327.38
674.96	326.21
675.30	325.20
675.64	324.26
675.97	323.21
676.31	322.18
676.65	321.14
676.99	320.32
677.33	319.32
677.67	318.35
678.01	317.10
678.34	316.14
678.68	315.30
679.02	314.37
679.36	313.37
679.70	312.42
680.04	311.49
680.37	310.56
680.71	309.70
681.05	308.85
681.39	307.85
681.73	306.95
682.06	306.06
682.40	305.27
682.74	304.37
683.08	303.64
683.42	302.67
683.75	301.86
684.09	300.80
684.43	299.98
684.77	299.06
685.10	298.25
685.44	297.39
685.78	296.45
686.12	295.67
686.45	294.90
686.79	294.04
687.13	293.29
687.46	292.61
687.80	291.89
688.14	290.95
688.48	290.28
688.81	289.49
689.15	288.76
689.49	287.90
689.82	287.11
690.16	286.12
690.50	285.31
690.83	284.60
691.17	283.79
691.51	282.92
691.84	282.15
692.18	281.38
692.52	280.66
692.85	280.07
693.19	279.56
693.52	278.88
693.86	278.19
694.20	277.49
694.53	276.73
694.87	275.96
695.21	275.28
695.54	274.55
695.88	273.73
696.21	272.97
696.55	272.36
696.88	271.68
697.22	271.06
697.56	270.52
697.89	269.87
698.23	269.33
698.56	268.77
698.90	268.27
699.23	267.69
699.57	267.10
699.90	266.46
700.24	265.62
700.58	265.09
700.91	264.56
701.25	264.36
701.58	263.85
701.92	263.42
702.25	262.83
702.59	262.30
702.92	261.84
703.26	261.39
703.59	260.87
703.93	260.68
704.26	260.27
704.60	259.77
704.93	259.21
705.26	258.64
705.60	258.18
705.93	257.62
706.27	257.22
706.60	256.85
706.94	256.55
707.27	256.08
707.61	255.49
707.94	254.99
708.27	254.10
708.61	253.56
708.94	253.12
709.28	252.77
709.61	252.30
709.94	251.88
710.28	251.40
710.61	251.05
710.95	250.28
711.28	250.05
711.61	249.66
711.95	249.37
712.28	249.01
712.61	248.63
712.95	248.45
713.28	248.27
713.61	247.80
713.95	247.31
714.28	247.03
714.61	246.70
714.95	246.33
715.28	245.93
715.61	245.52
715.95	245.13
716.28	244.68
716.61	244.34
716.95	243.97
717.28	243.59
717.61	243.27
717.94	243.00
718.28	242.47
718.61	242.06
718.94	241.68
719.27	241.45
719.61	241.16
719.94	240.74
720.27	240.18
720.60	239.85
720.94	239.53
721.27	239.15
721.60	238.93
721.93	238.64
722.27	238.56
722.60	238.39
722.93	238.10
723.26	237.91
723.59	237.65
723.93	237.45
724.26	237.30
724.59	236.99
724.92	236.77
725.25	236.54
725.59	236.36
725.92	236.17
726.25	235.85
726.58	235.70
726.91	235.42
727.24	235.22
727.57	235.02
727.91	234.74
728.24	234.66
728.57	234.42
728.90	234.25
729.23	233.90
729.56	233.82
729.89	233.63
730.22	233.40
730.55	233.19
730.89	232.95
731.22	232.63
731.55	232.38
731.88	232.15
732.21	231.91
732.54	231.59
732.87	231.37
733.20	231.20
733.53	230.90
733.86	230.67
734.19	230.42
734.52	230.27
734.85	230.34
735.18	229.95
735.51	229.78
735.84	229.58
736.17	229.48
736.50	229.12
736.83	229.29
737.16	229.19
737.49	229.04
737.82	228.79
738.15	228.66
738.48	228.60
738.81	228.43
739.14	228.30
739.47	228.18
739.80	228.00
740.13	227.87
740.46	227.65
740.79	227.50
741.12	227.36
741.45	227.12
741.78	226.82
742.11	226.86
742.44	226.69
742.77	226.61
743.10	226.38
743.43	226.29
743.75	225.78
744.08	226.03
744.41	225.81
744.74	225.77
745.07	225.60
745.40	225.47
745.73	225.45
746.06	225.30
746.39	225.25
746.71	225.04
747.04	224.85
747.37	224.78
747.70	224.71
748.03	224.60
748.36	224.53
748.68	224.36
749.01	224.15
749.34	224.03
749.67	223.81
750.00	223.79
750.33	223.88
750.65	223.83
750.98	223.34
751.31	223.26
751.64	223.12
751.97	223.25
752.29	223.03
752.62	222.78
752.95	222.57
753.28	222.41
753.60	222.37
753.93	222.42
754.26	222.26
754.59	222.09
754.91	221.93
755.24	221.83
755.57	221.61
755.90	221.49
756.22	221.33
756.55	221.25
756.88	221.00
757.20	220.66
757.53	220.38
757.86	220.22
758.19	220.14
758.51	219.99
758.84	219.68
759.17	219.64
759.49	219.62
759.82	219.66
760.15	219.56
760.47	219.43
760.80	219.13
761.13	219.08
761.45	218.96
761.78	218.84
762.11	218.71
762.43	218.63
762.76	218.60
763.08	218.55
763.41	218.53
763.74	218.56
764.06	218.55
764.39	218.59
764.71	218.48
765.04	218.42
765.37	218.34
765.69	218.25
766.02	218.12
766.34	217.91
766.67	217.70
767.00	217.65
767.32	217.79
767.65	217.99
767.97	217.85
768.30	217.75
768.62	217.76
768.95	217.70
769.27	217.70
769.60	217.57
769.92	217.50
770.25	217.36
770.57	217.19
770.90	217.07
771.22	216.93
771.55	216.88
771.87	216.81
772.20	216.74
772.52	216.94
772.85	217.27
773.17	217.22
773.50	217.20
773.82	217.10
774.15	216.94
774.47	216.61
774.80	216.63
775.12	216.66
775.45	216.55
775.77	216.52
776.09	216.55
776.42	216.53
776.74	216.51
777.07	216.44
777.39	216.33
777.72	216.27
778.04	216.23
778.36	216.14
778.69	216.06
779.01	216.10
779.33	215.83
779.66	215.41
779.98	215.42
780.31	215.38
780.63	215.50
780.95	215.47
781.28	215.39
781.60	215.28
781.92	215.21
782.25	215.23
782.57	215.13
782.89	215.00
783.22	214.89
783.54	214.83
783.86	214.84
784.19	214.92
784.51	214.92
784.83	214.88
785.16	214.83
785.48	214.82
785.80	214.73
786.12	214.66
786.45	214.64
786.77	214.62
787.09	214.64
787.42	214.50
787.74	214.51
788.06	214.55
788.38	214.56
788.71	214.47
789.03	214.47
789.35	214.56
789.67	214.53
789.99	214.55
790.32	214.41
790.64	214.45
790.96	214.66
791.28	214.53
791.61	214.53
791.93	214.55
792.25	214.45
792.57	214.70
792.89	214.63
793.21	214.61
793.54	214.56
793.86	214.51
794.18	214.48
794.50	214.29
794.82	214.30
795.14	214.28
795.47	214.32
795.79	214.28
796.11	214.20
796.43	214.10
796.75	214.12
797.07	214.18
797.39	214.10
797.71	213.87
798.04	213.90
798.36	213.87
798.68	213.85
799.00	213.94
799.32	213.73
799.64	213.77
799.96	213.75
800.28	213.81
800.60	213.72
800.92	213.72
801.24	213.70
801.56	213.67
801.89	213.64
802.21	213.69
802.53	213.56
802.85	213.58
803.17	213.76
803.49	213.66
803.81	213.68
804.13	213.63
804.45	213.55
804.77	213.51
805.09	213.44
805.41	213.33
805.73	213.27
806.05	213.17
806.37	213.13
806.69	213.05
807.01	212.98
807.33	212.99
807.65	212.87
807.97	213.04
808.28	212.97
808.60	212.90
808.92	212.80
809.24	212.94
809.56	212.85
809.88	212.66
810.20	212.78
810.52	212.78
810.84	212.73
811.16	212.62
811.48	212.69
811.80	212.90
812.12	212.87
812.43	212.87
812.75	212.91
813.07	212.89
813.39	212.97
813.71	212.92
814.03	212.89
814.35	212.91
814.67	212.81
814.98	212.83
815.30	212.85
815.62	212.80
815.94	212.59
816.26	212.57
816.58	212.51
816.89	212.39
817.21	212.30
817.53	212.31
817.85	212.39
818.17	212.30
818.48	212.09
818.80	212.19
819.12	212.09
819.44	211.98
819.76	211.92
820.07	211.89
820.39	211.88
820.71	211.89
821.03	211.87
821.34	211.80
821.66	211.83
821.98	211.90
822.30	211.86
822.61	212.13
822.93	212.17
823.25	212.27
823.57	212.24
823.88	212.29
824.20	212.29
824.52	212.32
824.83	212.33
825.15	212.27
825.47	212.28
825.79	212.39
826.10	212.37
826.42	212.33
826.74	212.40
827.05	212.37
827.37	212.40
827.69	212.38
828.00	212.34
828.32	212.27
828.64	212.15
828.95	212.37
829.27	212.18
829.58	212.14
829.90	212.12
830.22	212.21
830.53	212.06
830.85	212.02
831.17	211.91
831.48	211.88
831.80	211.89
832.11	211.85
832.43	211.74
832.75	211.74
833.06	211.96
833.38	211.85
833.69	211.82
834.01	211.80
834.32	211.80
834.64	211.79
834.96	211.78
835.27	211.81
835.59	211.69
835.90	211.71
836.22	211.71
836.53	211.58
836.85	211.50
837.16	211.86
837.48	211.86
837.79	211.97
838.11	211.92
838.42	211.94
838.74	212.00
839.05	212.05
839.37	211.98
839.68	211.77
840.00	211.73
840.31	211.79
840.63	211.75
840.94	211.75
841.26	211.70
841.57	211.72
841.88	211.76
842.20	211.66
842.51	211.56
842.83	211.51
843.14	211.87
843.46	211.87
843.77	211.73
844.08	211.77
844.40	211.63
844.71	211.66
845.03	211.68
845.34	211.63
845.65	211.56
845.97	211.57
846.28	211.62
846.60	211.65
846.91	211.60
847.22	211.61
847.54	211.64
847.85	211.64
848.16	211.58
848.48	211.47
848.79	211.58
849.10	211.60
849.42	211.64
849.73	211.29
850.04	211.25
850.36	211.14
850.67	211.16
850.98	211.19
851.30	211.20
851.61	211.19
851.92	211.18
852.23	211.35
852.55	211.41
852.86	211.34
853.17	211.35
853.49	211.43
853.80	211.48
854.11	211.49
854.42	211.57
854.74	211.53
855.05	211.55
855.36	211.47
855.67	211.47
855.99	211.49
856.30	211.93
856.61	211.95
856.92	211.92
857.23	211.92
857.55	211.88
857.86	211.84
858.17	211.88
858.48	211.87
858.79	211.74
859.11	211.75
859.42	211.77
859.73	211.71
860.04	211.70
860.35	211.62
860.66	211.60
860.98	211.60
861.29	211.67
861.60	211.72
861.91	211.78
862.22	211.77
862.53	211.72
862.84	211.32
863.16	211.48
863.47	211.42
863.78	211.36
864.09	211.40
864.40	211.43
864.71	211.40
865.02	211.41
865.33	211.34
865.64	211.26
865.95	211.31
866.27	211.50
866.58	211.49
866.89	211.53
867.20	211.49
867.51	211.51
867.82	211.48
868.13	211.57
868.44	211.56
868.75	211.64
869.06	211.66
869.37	211.69
869.68	211.53
869.99	211.66
870.30	211.67
870.61	211.74
870.92	211.68
871.23	211.62
871.54	211.66
871.85	211.90
872.16	211.98
872.47	211.94
872.78	211.73
873.09	211.76
873.40	211.76
873.71	211.75
874.02	211.70
874.33	211.70
874.64	211.61
874.95	211.65
875.26	211.58
875.56	211.55
875.87	211.53
876.18	211.56
876.49	211.82
876.80	211.85
877.11	211.70
877.42	211.70
877.73	211.73
878.04	211.67
878.35	211.47
878.66	211.45
878.96	211.45
879.27	211.49
879.58	211.42
879.89	211.40
880.20	211.46
880.51	211.46
880.82	211.49
881.12	211.54
881.43	211.46
881.74	211.36
882.05	211.35
882.36	211.36
882.67	211.32
882.97	210.93
883.28	210.88
883.59	210.99
883.90	211.03
884.21	211.11
884.51	211.10
884.82	211.14
885.13	211.13
885.44	211.09
885.74	211.10
886.05	211.10
886.36	211.06
886.67	210.94
886.98	211.07
887.28	211.05
887.59	210.95
887.90	210.87
888.20	210.91
888.51	210.97
888.82	210.91
889.13	210.96
889.43	211.24
889.74	211.22
890.05	211.16
890.35	211.19
890.66	211.09
890.97	211.04
891.28	211.00
891.58	211.02
891.89	211.02
892.20	210.93
892.50	210.90
892.81	210.91
893.12	210.97
893.42	210.82
893.73	210.87
894.04	210.97
894.34	211.09
894.65	211.07
894.95	211.01
895.26	211.05
895.57	211.14
895.87	210.87
896.18	210.92
896.48	210.91
896.79	210.88
897.10	210.90
897.40	210.87
897.71	210.93
898.01	210.92
898.32	210.93
898.63	210.96
898.93	211.01
899.24	211.00
899.54	210.97
899.85	210.95
900.15	210.97
900.46	210.94
900.76	210.97
901.07	211.03
901.38	211.11
901.68	211.18
901.99	211.06
902.29	211.08
902.60	211.09
902.90	211.09
903.21	211.10
903.51	211.06
903.82	211.21
904.12	211.20
904.43	211.27
904.73	211.32
905.03	211.34
905.34	211.66
905.64	211.65
905.95	211.63
906.25	211.65
906.56	211.58
906.86	211.56
907.17	211.55
907.47	211.56
907.77	211.47
908.08	211.38
908.38	211.37
908.69	211.42
908.99	211.48
909.30	211.52
909.60	211.58
909.90	211.64
910.21	211.55
910.51	211.50
910.81	211.43
911.12	211.47
911.42	211.54
911.73	211.17
912.03	211.20
912.33	211.25
912.64	211.23
912.94	211.18
913.24	211.15
913.55	211.11
913.85	211.07
914.15	211.20
914.46	211.26
914.76	211.24
915.06	211.25
915.37	211.18
915.67	211.19
915.97	211.09
916.27	211.01
916.58	210.99
916.88	211.02
917.18	211.04
917.49	211.19
917.79	211.17
918.09	211.20
918.39	211.28
918.70	211.31
919.00	211.39
919.30	211.61
919.60	211.55
919.91	211.55
920.21	211.55
920.51	211.44
920.81	211.40
921.12	211.43
921.42	211.35
921.72	211.38
922.02	211.34
922.32	211.41
922.63	211.46
922.93	211.64
923.23	211.66
923.53	211.69
923.83	211.52
924.13	211.53
924.44	211.51
924.74	211.59
925.04	211.66
925.34	211.59
925.64	211.42
925.94	211.42
926.24	211.55
926.55	211.50
926.85	211.50
927.15	211.57
927.45	211.58
927.75	211.61
928.05	211.60
928.35	211.58
928.65	211.65
928.95	211.69
929.26	211.51
929.56	211.51
929.86	211.45
930.16	211.34
930.46	211.27
930.76	211.33
931.06	211.14
931.36	211.05
931.66	211.13
931.96	211.15
932.26	211.22
932.56	211.14
932.86	211.18
933.16	211.22
933.46	211.06
933.76	211.03
934.06	211.10
934.36	211.21
934.66	211.22
934.96	211.17
935.26	211.14
935.56	211.19
935.86	211.13
936.16	211.13
936.46	211.17
936.76	211.15
937.06	211.11
937.36	211.15
937.66	211.12
937.96	211.06
938.26	211.06
938.56	211.08
938.86	211.03
939.16	211.12
939.46	211.21
939.76	211.25
940.06	211.28
940.35	211.20
940.65	211.02
940.95	211.05
941.25	211.01
941.55	211.00
941.85	211.02
942.15	211.11
942.45	211.26
942.75	211.27
943.04	211.31
943.34	211.32
943.64	211.29
943.94	211.28
944.24	211.33
944.54	211.28
944.84	211.26
945.13	211.14
945.43	211.04
945.73	211.02
946.03	211.06
946.33	211.03
946.62	210.99
946.92	210.99
947.22	211.00
947.52	211.06
947.82	211.09
948.11	211.01
948.41	210.96
948.71	210.82
949.01	210.80
949.31	210.81
949.60	210.81
949.90	210.87
950.20	210.87
950.50	210.78
950.79	210.79
951.09	210.84
951.39	210.98
951.69	210.88
951.98	210.88
952.28	210.88
952.58	210.87
952.87	210.93
953.17	211.01
953.47	210.98
953.76	210.93
954.06	210.83
954.36	210.77
954.66	210.76
954.95	210.90
955.25	210.92
955.55	210.99
955.84	210.91
956.14	210.89
956.44	210.98
956.73	210.96
957.03	210.96
957.32	210.97
957.62	210.93
957.92	211.10
958.21	210.99
958.51	211.38
958.81	211.41
959.10	211.50
959.40	211.60
959.69	211.63
959.99	211.65
960.29	211.74
960.58	211.77
960.88	211.98
961.17	211.89
961.47	211.96
961.76	211.90
962.06	212.04
962.36	211.97
962.65	211.95
962.95	212.01
963.24	211.97
963.54	212.00
963.83	212.06
964.13	212.04
964.42	212.03
964.72	211.78
965.01	211.70
965.31	211.62
965.60	211.47
965.90	211.67
966.19	211.60
966.49	211.63
966.78	211.65
967.08	211.53
967.37	211.50
967.67	211.48
967.96	211.52
968.26	211.48
968.55	211.59
968.85	211.59
969.14	211.59
969.43	211.65
969.73	211.64
970.02	211.61
970.32	211.54
970.61	211.54
970.91	211.39
971.20	211.43
971.49	211.33
971.79	211.41
972.08	211.21
972.38	211.30
972.67	211.26
972.96	211.23
973.26	211.16
973.55	211.32
973.85	211.23
974.14	211.16
974.43	211.19
974.73	211.12
975.02	210.99
975.31	210.96
975.61	210.89
975.90	210.76
976.19	210.73
976.49	210.82
976.78	210.82
977.07	210.86
977.37	210.86
977.66	210.95
977.95	210.95
978.24	210.86
978.54	210.87
978.83	210.83
979.12	210.85
979.42	210.85
979.71	210.77
980.00	210.80
980.29	210.85
980.59	210.75
980.88	210.82
981.17	210.90
981.46	210.92
981.76	210.99
982.05	211.15
982.34	211.17
982.63	211.15
982.93	211.17
983.22	211.20
983.51	211.16
983.80	211.17
984.09	211.20
984.39	211.29
984.68	211.19
984.97	211.23
985.26	211.27
985.55	211.25
985.85	211.18
986.14	211.22
986.43	211.23
986.72	211.21
987.01	211.10
987.30	211.04
987.59	211.01
987.89	210.92
988.18	210.76
988.47	210.74
988.76	210.72
989.05	210.68
989.34	210.60
989.63	210.77
989.92	210.74
990.22	210.70
990.51	210.64
990.80	210.61
991.09	210.61
991.38	210.58
991.67	210.59
991.96	210.54
992.25	210.55
992.54	210.46
992.83	210.45
993.12	210.41
993.41	210.45
993.70	210.63
993.99	210.73
994.28	210.89
994.58	210.94
994.87	210.87
995.16	210.85
995.45	210.91
995.74	210.77
996.03	210.81
996.32	210.85
996.61	210.98
996.90	211.00
997.19	210.88
997.48	210.95
997.77	210.93
998.06	210.95
998.34	210.94
998.63	210.93
998.92	210.94
999.21	211.02
999.50	211.08
999.79	210.97
1000.08	210.96
1000.37	210.93
1000.66	210.84
1000.95	210.97
1001.24	210.97
1001.53	210.89
1001.82	210.86
1002.11	210.73
1002.40	210.66
1002.68	210.64
1002.97	210.88
1003.26	210.96
1003.55	210.85
1003.84	210.81
1004.13	210.91
1004.42	210.88
1004.71	210.94
1004.99	210.93
1005.28	211.11
1005.57	211.07
1005.86	210.99
1006.15	210.97
1006.44	210.85
1006.72	210.91
1007.01	210.84
1007.30	210.93
1007.59	211.00
1007.88	211.01
1008.17	211.15
1008.45	211.13
1008.74	211.02
1009.03	210.85
1009.32	210.85
1009.60	210.91
1009.89	210.91
1010.18	210.75
1010.47	210.68
1010.76	210.61
1011.04	210.60
1011.33	210.56
1011.62	210.51
1011.91	210.57
1012.19	210.55
1012.48	210.57
1012.77	210.55
1013.05	210.67
1013.34	210.62
1013.63	210.62
1013.92	210.65
1014.20	210.53
1014.49	210.55
1014.78	210.59
1015.06	210.51
1015.35	210.48
1015.64	210.55
1015.92	210.64
1016.21	210.71
1016.50	210.76
1016.78	210.88
1017.07	210.95
1017.36	210.88
1017.64	210.85
1017.93	210.89
1018.22	210.85
1018.50	210.89
1018.79	210.90
1019.08	210.81
1019.36	210.78
1019.65	210.71
1019.93	210.85
1020.22	211.00
1020.51	211.14
1020.79	211.13
1021.08	209.20
1021.36	211.35
1021.65	211.00
1021.94	211.20
1022.22	210.05
1022.51	210.35
1022.79	213.25
1023.08	212.55
1023.36	213.80
1023.65	210.40
>>>>>End Processed Spectral Data<<<<<
