SpectraSuite Data File
++++++++++++++++++++++++++++++++++++
Date: Mon Feb 25 17:11:06 EST 2013
User: group
Dark Spectrum Present: No
Reference Spectrum Present: No
Number of Sampled Component Spectra: 1
Spectrometers: USB2E7196
Integration Time (usec): 104000 (USB2E7196)
Spectra Averaged: 20 (USB2E7196)
Boxcar Smoothing: 10 (USB2E7196)
Correct for Electrical Dark: No (USB2E7196)
Strobe/Lamp Enabled: No (USB2E7196)
Correct for Detector Non-linearity: No (USB2E7196)
Correct for Stray Light: No (USB2E7196)
Number of Pixels in Processed Spectrum: 2048
>>>>>Begin Processed Spectral Data<<<<<
339.09	0.00
339.48	197.60
339.86	198.70
340.24	200.45
340.63	202.20
341.01	208.05
341.39	205.80
341.78	206.45
342.16	209.15
342.54	207.55
342.93	197.28
343.31	207.28
343.69	207.83
344.07	208.33
344.46	208.73
344.84	209.10
345.22	209.20
345.60	209.39
345.99	209.57
346.37	209.62
346.75	209.73
347.13	209.72
347.52	209.81
347.90	210.01
348.28	210.07
348.66	210.05
349.05	209.93
349.43	210.02
349.81	210.05
350.19	210.05
350.57	210.13
350.96	210.26
351.34	210.33
351.72	210.46
352.10	210.50
352.48	210.66
352.87	210.73
353.25	210.76
353.63	210.85
354.01	210.89
354.39	211.03
354.77	211.16
355.15	211.37
355.54	211.50
355.92	211.39
356.30	211.52
356.68	211.95
357.06	212.11
357.44	212.17
357.82	212.34
358.20	212.44
358.58	212.54
358.97	212.67
359.35	212.85
359.73	212.96
360.11	213.11
360.49	213.20
360.87	213.33
361.25	213.51
361.63	213.68
362.01	213.80
362.39	213.83
362.77	213.95
363.15	214.05
363.53	214.12
363.91	214.29
364.29	214.30
364.67	214.00
365.05	214.10
365.43	214.22
365.81	214.30
366.19	214.53
366.57	214.71
366.95	214.74
367.33	214.65
367.71	214.70
368.09	214.78
368.47	214.77
368.85	214.78
369.23	214.87
369.61	214.82
369.99	214.98
370.37	215.07
370.75	215.22
371.13	215.08
371.51	214.97
371.89	214.89
372.27	214.93
372.65	214.86
373.03	214.84
373.41	214.74
373.78	214.65
374.16	214.47
374.54	214.30
374.92	214.24
375.30	214.22
375.68	214.05
376.06	214.07
376.44	213.97
376.82	213.84
377.19	213.72
377.57	213.62
377.95	213.36
378.33	213.22
378.71	212.89
379.09	212.90
379.47	212.95
379.84	212.89
380.22	212.82
380.60	212.70
380.98	212.56
381.36	212.48
381.73	212.41
382.11	212.39
382.49	212.42
382.87	212.36
383.25	212.24
383.62	212.58
384.00	212.35
384.38	212.32
384.76	212.37
385.13	212.48
385.51	212.40
385.89	212.40
386.27	212.32
386.64	212.30
387.02	212.20
387.40	212.13
387.78	212.05
388.15	211.98
388.53	212.00
388.91	212.00
389.29	211.95
389.66	211.94
390.04	211.84
390.42	211.84
390.79	211.71
391.17	211.71
391.55	211.31
391.92	211.27
392.30	211.28
392.68	211.18
393.05	211.02
393.43	210.96
393.81	210.95
394.18	210.90
394.56	210.87
394.94	210.88
395.31	210.78
395.69	210.95
396.06	210.92
396.44	210.86
396.82	210.85
397.19	211.02
397.57	210.98
397.95	211.03
398.32	210.90
398.70	210.94
399.07	211.08
399.45	211.01
399.82	210.99
400.20	211.00
400.58	211.01
400.95	210.97
401.33	211.08
401.70	211.29
402.08	211.37
402.45	211.42
402.83	211.57
403.20	211.63
403.58	211.60
403.95	211.78
404.33	211.93
404.71	212.01
405.08	212.25
405.46	212.26
405.83	212.35
406.21	212.40
406.58	212.50
406.96	212.50
407.33	212.71
407.70	212.90
408.08	213.32
408.45	213.48
408.83	213.69
409.20	213.85
409.58	213.80
409.95	213.97
410.33	214.23
410.70	214.26
411.08	214.54
411.45	214.80
411.82	215.01
412.20	215.29
412.57	215.67
412.95	215.63
413.32	216.07
413.69	216.43
414.07	216.83
414.44	217.29
414.82	217.78
415.19	218.37
415.56	218.98
415.94	219.25
416.31	219.95
416.68	220.55
417.06	221.25
417.43	222.02
417.81	222.82
418.18	223.57
418.55	224.55
418.93	225.45
419.30	226.37
419.67	227.37
420.04	228.35
420.42	229.37
420.79	230.90
421.16	232.09
421.54	233.46
421.91	234.84
422.28	236.22
422.66	237.64
423.03	239.19
423.40	240.57
423.77	242.13
424.15	243.59
424.52	245.17
424.89	246.94
425.26	248.60
425.64	250.25
426.01	252.02
426.38	253.88
426.75	255.87
427.13	257.88
427.50	259.91
427.87	262.11
428.24	264.24
428.61	266.06
428.99	268.52
429.36	270.85
429.73	273.28
430.10	275.67
430.47	278.08
430.85	280.46
431.22	283.22
431.59	286.21
431.96	288.99
432.33	292.08
432.70	295.06
433.08	298.57
433.45	301.82
433.82	305.12
434.19	308.72
434.56	312.27
434.93	315.57
435.30	318.88
435.68	322.57
436.05	326.41
436.42	330.19
436.79	333.60
437.16	337.36
437.53	341.20
437.90	344.92
438.27	348.65
438.64	352.40
439.01	356.03
439.38	359.11
439.75	362.35
440.13	365.94
440.50	369.23
440.87	371.86
441.24	374.75
441.61	377.82
441.98	380.09
442.35	382.71
442.72	385.47
443.09	388.28
443.46	389.85
443.83	390.82
444.20	391.74
444.57	392.91
444.94	393.47
445.31	394.12
445.68	395.23
446.05	395.53
446.42	395.26
446.79	394.92
447.16	394.49
447.53	394.18
447.90	392.74
448.27	391.31
448.64	389.49
449.01	388.03
449.37	385.64
449.74	383.20
450.11	380.56
450.48	377.33
450.85	373.91
451.22	371.21
451.59	368.59
451.96	366.00
452.33	362.60
452.70	359.57
453.07	355.88
453.43	351.79
453.80	348.25
454.17	344.96
454.54	341.60
454.91	338.16
455.28	334.70
455.65	331.49
456.02	328.88
456.38	326.13
456.75	322.79
457.12	319.97
457.49	317.27
457.86	314.36
458.23	312.21
458.59	309.82
458.96	307.30
459.33	305.01
459.70	302.83
460.07	301.11
460.43	299.10
460.80	297.30
461.17	295.73
461.54	294.04
461.91	292.29
462.27	290.66
462.64	289.14
463.01	287.56
463.38	286.14
463.74	284.09
464.11	282.61
464.48	281.52
464.85	280.10
465.21	279.14
465.58	278.10
465.95	276.76
466.32	275.68
466.68	274.52
467.05	273.47
467.42	272.40
467.78	271.28
468.15	270.21
468.52	269.42
468.88	268.33
469.25	267.42
469.62	266.79
469.98	265.95
470.35	265.26
470.72	264.59
471.08	263.79
471.45	263.32
471.82	262.91
472.18	262.21
472.55	261.85
472.92	261.20
473.28	260.65
473.65	260.22
474.02	259.67
474.38	259.37
474.75	259.14
475.11	258.78
475.48	258.52
475.85	258.22
476.21	257.89
476.58	257.71
476.94	257.61
477.31	257.34
477.67	257.26
478.04	257.10
478.41	257.06
478.77	257.36
479.14	257.16
479.50	257.09
479.87	257.11
480.23	257.13
480.60	257.24
480.96	257.32
481.33	257.54
481.69	257.70
482.06	257.87
482.42	258.00
482.79	258.15
483.15	258.43
483.52	258.80
483.88	259.09
484.25	259.49
484.61	259.75
484.98	260.08
485.34	260.60
485.71	261.10
486.07	261.54
486.44	261.78
486.80	262.42
487.17	263.07
487.53	263.85
487.90	264.72
488.26	265.58
488.62	266.48
488.99	267.36
489.35	268.43
489.72	269.33
490.08	270.32
490.44	271.48
490.81	272.60
491.17	273.75
491.54	275.05
491.90	276.39
492.26	277.79
492.63	279.32
492.99	280.68
493.36	282.31
493.72	284.02
494.08	285.68
494.45	287.55
494.81	289.53
495.17	291.45
495.54	293.43
495.90	295.53
496.26	297.76
496.63	300.11
496.99	302.52
497.35	305.11
497.72	307.83
498.08	310.39
498.44	313.13
498.80	316.09
499.17	319.16
499.53	322.12
499.89	325.40
500.26	328.69
500.62	332.06
500.98	335.52
501.34	339.09
501.71	342.89
502.07	346.66
502.43	350.39
502.79	354.24
503.16	358.31
503.52	362.53
503.88	366.76
504.24	370.99
504.60	375.53
504.97	380.21
505.33	384.74
505.69	389.86
506.05	394.87
506.41	399.95
506.78	404.99
507.14	410.24
507.50	415.58
507.86	421.03
508.22	426.74
508.59	432.56
508.95	438.43
509.31	444.47
509.67	450.45
510.03	456.79
510.39	463.15
510.75	469.62
511.12	476.13
511.48	482.79
511.84	489.65
512.20	496.26
512.56	503.10
512.92	510.21
513.28	517.21
513.64	524.25
514.00	531.44
514.37	538.82
514.73	546.40
515.09	553.96
515.45	561.53
515.81	569.02
516.17	576.48
516.53	584.07
516.89	591.63
517.25	599.40
517.61	607.19
517.97	615.12
518.33	622.91
518.69	630.72
519.05	638.74
519.41	646.83
519.77	655.34
520.13	663.52
520.49	671.42
520.85	679.60
521.21	687.95
521.57	696.29
521.93	704.22
522.29	712.49
522.65	720.79
523.01	729.05
523.37	737.21
523.73	745.67
524.09	754.07
524.45	762.47
524.81	770.91
525.17	779.35
525.53	787.91
525.89	796.48
526.25	804.90
526.61	813.16
526.97	821.49
527.33	829.55
527.68	838.25
528.04	846.75
528.40	854.66
528.76	862.94
529.12	871.27
529.48	880.24
529.84	888.40
530.20	896.59
530.56	905.01
530.91	913.66
531.27	922.00
531.63	930.27
531.99	938.62
532.35	946.50
532.71	954.14
533.07	961.97
533.42	969.86
533.78	977.84
534.14	985.50
534.50	992.46
534.86	1000.12
535.21	1007.10
535.57	1014.72
535.93	1022.03
536.29	1029.48
536.65	1036.59
537.00	1043.20
537.36	1049.99
537.72	1056.60
538.08	1063.28
538.44	1069.62
538.79	1075.93
539.15	1082.26
539.51	1088.24
539.87	1095.00
540.22	1101.34
540.58	1107.61
540.94	1113.47
541.29	1119.01
541.65	1124.37
542.01	1130.21
542.37	1135.63
542.72	1140.75
543.08	1145.62
543.44	1151.15
543.79	1155.42
544.15	1160.21
544.51	1165.25
544.87	1170.33
545.22	1174.76
545.58	1178.90
545.94	1182.73
546.29	1186.36
546.65	1189.91
547.01	1193.82
547.36	1197.19
547.72	1200.73
548.07	1203.70
548.43	1206.67
548.79	1209.41
549.14	1212.46
549.50	1215.53
549.86	1217.73
550.21	1220.23
550.57	1222.77
550.92	1224.55
551.28	1226.73
551.64	1228.49
551.99	1230.21
552.35	1231.54
552.70	1233.32
553.06	1234.90
553.41	1236.65
553.77	1238.49
554.13	1240.11
554.48	1241.51
554.84	1242.85
555.19	1243.85
555.55	1244.88
555.90	1245.55
556.26	1246.29
556.61	1246.81
556.97	1246.81
557.32	1247.34
557.68	1247.61
558.03	1247.87
558.39	1248.23
558.74	1248.89
559.10	1249.37
559.45	1249.57
559.81	1250.01
560.16	1249.60
560.52	1249.60
560.87	1249.50
561.23	1249.06
561.58	1248.88
561.94	1248.12
562.29	1247.32
562.64	1246.85
563.00	1246.41
563.35	1246.50
563.71	1246.81
564.06	1246.44
564.42	1246.54
564.77	1246.45
565.12	1246.26
565.48	1246.07
565.83	1245.62
566.19	1245.15
566.54	1243.99
566.89	1242.68
567.25	1241.61
567.60	1241.20
567.96	1240.34
568.31	1239.70
568.66	1238.54
569.02	1237.01
569.37	1235.31
569.72	1233.95
570.08	1232.27
570.43	1230.45
570.78	1228.34
571.14	1226.09
571.49	1224.17
571.84	1222.25
572.20	1219.95
572.55	1217.99
572.90	1215.14
573.26	1212.55
573.61	1209.87
573.96	1207.46
574.31	1205.04
574.67	1202.04
575.02	1198.97
575.37	1195.93
575.72	1192.40
576.08	1189.78
576.43	1186.87
576.78	1184.41
577.13	1181.84
577.49	1179.31
577.84	1176.59
578.19	1174.09
578.54	1171.31
578.90	1168.92
579.25	1165.91
579.60	1162.71
579.95	1159.52
580.30	1157.05
580.66	1154.70
581.01	1151.56
581.36	1148.55
581.71	1145.65
582.06	1143.02
582.42	1140.35
582.77	1137.19
583.12	1134.25
583.47	1131.92
583.82	1129.32
584.17	1126.56
584.53	1123.91
584.88	1120.94
585.23	1118.08
585.58	1115.00
585.93	1111.96
586.28	1109.02
586.63	1106.15
586.98	1103.65
587.34	1101.13
587.69	1098.06
588.04	1094.88
588.39	1092.37
588.74	1089.32
589.09	1086.63
589.44	1083.49
589.79	1080.72
590.14	1077.95
590.49	1075.11
590.84	1071.78
591.19	1069.13
591.54	1066.01
591.89	1062.06
592.25	1059.13
592.60	1055.99
592.95	1052.48
593.30	1049.12
593.65	1045.58
594.00	1042.19
594.35	1040.09
594.70	1036.73
595.05	1033.89
595.40	1030.74
595.75	1026.88
596.10	1023.99
596.45	1020.82
596.80	1018.05
597.15	1015.14
597.50	1012.17
597.85	1009.50
598.19	1006.18
598.54	1002.92
598.89	1000.12
599.24	997.93
599.59	995.05
599.94	992.51
600.29	990.11
600.64	987.33
600.99	984.41
601.34	981.93
601.69	977.89
602.04	974.85
602.39	971.60
602.74	968.85
603.08	966.88
603.43	964.50
603.78	961.55
604.13	958.71
604.48	955.79
604.83	953.44
605.18	950.98
605.53	948.14
605.87	945.33
606.22	942.61
606.57	939.72
606.92	936.56
607.27	933.34
607.62	930.22
607.96	927.66
608.31	925.40
608.66	922.22
609.01	919.20
609.36	916.14
609.70	913.00
610.05	909.67
610.40	906.38
610.75	902.91
611.10	900.15
611.44	896.37
611.79	892.73
612.14	888.95
612.49	885.04
612.83	881.80
613.18	877.91
613.53	874.25
613.88	870.24
614.22	866.81
614.57	863.14
614.92	859.47
615.27	855.73
615.61	851.67
615.96	848.10
616.31	844.67
616.65	841.48
617.00	838.14
617.35	834.71
617.70	830.94
618.04	827.05
618.39	822.76
618.74	819.50
619.08	815.76
619.43	812.20
619.78	808.53
620.12	804.93
620.47	801.72
620.82	797.73
621.16	794.07
621.51	790.40
621.85	786.86
622.20	783.25
622.55	779.49
622.89	775.88
623.24	772.22
623.59	768.52
623.93	764.78
624.28	761.26
624.62	758.04
624.97	754.56
625.32	751.31
625.66	748.20
626.01	744.75
626.35	741.65
626.70	738.21
627.04	735.00
627.39	731.61
627.73	728.23
628.08	725.20
628.43	721.90
628.77	718.47
629.12	715.12
629.46	712.21
629.81	709.07
630.15	705.84
630.50	702.60
630.84	699.25
631.19	696.08
631.53	692.70
631.88	688.83
632.22	685.37
632.57	682.24
632.91	678.87
633.26	675.85
633.60	672.47
633.95	669.40
634.29	666.22
634.64	663.28
634.98	660.01
635.32	657.05
635.67	654.19
636.01	651.32
636.36	648.27
636.70	645.33
637.05	642.22
637.39	639.22
637.73	636.52
638.08	633.95
638.42	631.13
638.77	628.39
639.11	625.66
639.45	622.84
639.80	619.68
640.14	616.72
640.49	613.65
640.83	610.75
641.17	607.78
641.52	604.82
641.86	601.61
642.20	598.93
642.55	595.73
642.89	592.76
643.23	589.73
643.58	587.06
643.92	583.79
644.26	580.95
644.61	578.09
644.95	574.88
645.29	571.71
645.64	568.67
645.98	565.67
646.32	562.89
646.66	560.02
647.01	557.32
647.35	554.71
647.69	551.72
648.04	549.06
648.38	546.19
648.72	543.35
649.06	540.51
649.41	537.47
649.75	534.79
650.09	532.01
650.43	529.34
650.78	526.31
651.12	523.50
651.46	520.86
651.80	518.26
652.14	515.72
652.49	513.14
652.83	510.35
653.17	507.65
653.51	504.91
653.85	502.33
654.20	499.65
654.54	496.77
654.88	494.19
655.22	491.57
655.56	488.86
655.90	486.17
656.25	483.51
656.59	480.91
656.93	478.32
657.27	475.84
657.61	473.15
657.95	470.74
658.29	468.34
658.64	465.83
658.98	463.15
659.32	460.44
659.66	457.89
660.00	455.40
660.34	452.86
660.68	450.33
661.02	447.72
661.36	445.44
661.70	443.22
662.05	440.95
662.39	438.71
662.73	436.65
663.07	434.72
663.41	432.56
663.75	430.50
664.09	428.28
664.43	425.94
664.77	423.91
665.11	421.74
665.45	419.66
665.79	417.60
666.13	415.57
666.47	413.65
666.81	411.63
667.15	409.58
667.49	407.79
667.83	406.05
668.17	404.27
668.51	402.41
668.85	400.57
669.19	398.87
669.53	396.91
669.87	394.98
670.21	393.05
670.55	391.24
670.89	389.58
671.23	388.02
671.57	386.44
671.91	384.67
672.25	382.88
672.58	381.22
672.92	379.51
673.26	377.97
673.60	376.44
673.94	374.90
674.28	373.44
674.62	371.95
674.96	370.42
675.30	368.93
675.64	367.27
675.97	365.74
676.31	364.13
676.65	362.69
676.99	361.42
677.33	359.91
677.67	358.59
678.01	356.95
678.34	355.36
678.68	353.95
679.02	352.40
679.36	351.01
679.70	349.63
680.04	348.25
680.37	346.75
680.71	345.26
681.05	344.06
681.39	342.75
681.73	341.39
682.06	340.05
682.40	338.79
682.74	337.59
683.08	336.43
683.42	335.03
683.75	333.69
684.09	332.29
684.43	331.03
684.77	329.64
685.10	328.41
685.44	327.17
685.78	325.85
686.12	324.75
686.45	323.54
686.79	322.31
687.13	321.11
687.46	320.10
687.80	319.12
688.14	317.72
688.48	316.61
688.81	315.39
689.15	314.20
689.49	312.90
689.82	311.74
690.16	310.44
690.50	309.35
690.83	308.25
691.17	307.15
691.51	306.03
691.84	305.08
692.18	304.10
692.52	303.19
692.85	302.26
693.19	301.35
693.52	300.43
693.86	299.45
694.20	298.52
694.53	297.49
694.87	296.48
695.21	295.50
695.54	294.45
695.88	293.45
696.21	292.45
696.55	291.66
696.88	290.71
697.22	289.81
697.56	289.03
697.89	288.09
698.23	287.24
698.56	286.38
698.90	285.58
699.23	284.63
699.57	283.74
699.90	282.83
700.24	281.88
700.58	281.05
700.91	280.35
701.25	279.77
701.58	279.10
701.92	278.29
702.25	277.62
702.59	276.85
702.92	276.04
703.26	275.31
703.59	274.57
703.93	274.18
704.26	273.57
704.60	272.89
704.93	272.20
705.26	271.45
705.60	270.87
705.93	270.09
706.27	269.53
706.60	269.02
706.94	268.56
707.27	267.97
707.61	267.37
707.94	266.62
708.27	265.77
708.61	265.07
708.94	264.46
709.28	263.79
709.61	263.26
709.94	262.82
710.28	262.29
710.61	261.74
710.95	260.73
711.28	260.38
711.61	259.83
711.95	259.42
712.28	258.84
712.61	258.32
712.95	258.03
713.28	257.65
713.61	257.02
713.95	256.42
714.28	255.91
714.61	255.36
714.95	254.91
715.28	254.35
715.61	253.77
715.95	253.41
716.28	253.00
716.61	252.59
716.95	252.05
717.28	251.70
717.61	251.23
717.94	250.92
718.28	250.21
718.61	249.74
718.94	249.25
719.27	248.92
719.61	248.43
719.94	247.91
720.27	247.27
720.60	246.95
720.94	246.50
721.27	246.19
721.60	245.84
721.93	245.49
722.27	245.26
722.60	245.00
722.93	244.53
723.26	244.17
723.59	243.76
723.93	243.50
724.26	243.12
724.59	242.75
724.92	242.42
725.25	242.22
725.59	241.93
725.92	241.61
726.25	241.24
726.58	241.00
726.91	240.71
727.24	240.57
727.57	240.20
727.91	239.90
728.24	239.63
728.57	239.38
728.90	239.13
729.23	238.68
729.56	238.62
729.89	238.30
730.22	238.08
730.55	237.86
730.89	237.53
731.22	237.30
731.55	237.06
731.88	236.85
732.21	236.50
732.54	236.17
732.87	235.93
733.20	235.68
733.53	235.43
733.86	235.10
734.19	234.72
734.52	234.58
734.85	234.55
735.18	234.28
735.51	234.10
735.84	233.85
736.17	233.74
736.50	233.27
736.83	233.48
737.16	233.13
737.49	232.83
737.82	232.62
738.15	232.40
738.48	232.17
738.81	231.94
739.14	231.74
739.47	231.57
739.80	231.35
740.13	231.20
740.46	230.91
740.79	230.71
741.12	230.54
741.45	230.23
741.78	229.83
742.11	229.69
742.44	229.41
742.77	229.31
743.10	229.17
743.43	228.95
743.75	228.34
744.08	228.64
744.41	228.51
744.74	228.30
745.07	228.00
745.40	227.87
745.73	227.88
746.06	227.67
746.39	227.56
746.71	227.37
747.04	227.12
747.37	226.97
747.70	226.91
748.03	226.78
748.36	226.64
748.68	226.50
749.01	226.20
749.34	226.01
749.67	225.81
750.00	225.63
750.33	225.71
750.65	225.64
750.98	225.04
751.31	224.84
751.64	224.71
751.97	224.83
752.29	224.64
752.62	224.22
752.95	224.08
753.28	223.82
753.60	223.64
753.93	223.59
754.26	223.46
754.59	223.10
754.91	222.97
755.24	222.86
755.57	222.74
755.90	222.60
756.22	222.54
756.55	222.36
756.88	222.10
757.20	221.80
757.53	221.59
757.86	221.45
758.19	221.44
758.51	221.28
758.84	220.99
759.17	220.79
759.49	220.77
759.82	220.80
760.15	220.72
760.47	220.56
760.80	220.37
761.13	220.40
761.45	220.32
761.78	220.13
762.11	219.99
762.43	219.81
762.76	219.76
763.08	219.62
763.41	219.54
763.74	219.51
764.06	219.38
764.39	219.31
764.71	219.25
765.04	219.05
765.37	218.97
765.69	218.87
766.02	218.81
766.34	218.68
766.67	218.42
767.00	218.50
767.32	218.67
767.65	218.81
767.97	218.61
768.30	218.65
768.62	218.60
768.95	218.52
769.27	218.54
769.60	218.55
769.92	218.48
770.25	218.38
770.57	218.30
770.90	218.23
771.22	218.10
771.55	218.02
771.87	218.00
772.20	217.96
772.52	218.17
772.85	218.52
773.17	218.45
773.50	218.37
773.82	218.20
774.15	217.99
774.47	217.73
774.80	217.65
775.12	217.52
775.45	217.47
775.77	217.46
776.09	217.35
776.42	217.24
776.74	217.25
777.07	217.20
777.39	217.14
777.72	217.05
778.04	217.07
778.36	217.04
778.69	216.94
779.01	216.94
779.33	216.59
779.66	216.17
779.98	216.12
780.31	216.11
780.63	216.19
780.95	216.23
781.28	216.16
781.60	216.12
781.92	216.06
782.25	216.05
782.57	215.97
782.89	215.84
783.22	215.78
783.54	215.66
783.86	215.63
784.19	215.54
784.51	215.58
784.83	215.52
785.16	215.45
785.48	215.48
785.80	215.37
786.12	215.38
786.45	215.33
786.77	215.36
787.09	215.33
787.42	215.17
787.74	215.08
788.06	215.04
788.38	214.96
788.71	214.93
789.03	214.87
789.35	214.91
789.67	214.90
789.99	214.91
790.32	214.81
790.64	214.88
790.96	215.15
791.28	214.98
791.61	214.93
791.93	214.96
792.25	214.85
792.57	215.10
792.89	214.97
793.21	214.99
793.54	214.83
793.86	214.70
794.18	214.72
794.50	214.65
794.82	214.65
795.14	214.64
795.47	214.66
795.79	214.59
796.11	214.49
796.43	214.47
796.75	214.36
797.07	214.38
797.39	214.23
797.71	213.99
798.04	213.99
798.36	213.95
798.68	213.82
799.00	213.80
799.32	213.56
799.64	213.68
799.96	213.66
800.28	213.75
800.60	213.77
800.92	213.80
801.24	213.79
801.56	213.85
801.89	213.91
802.21	213.87
802.53	213.81
802.85	213.85
803.17	214.00
803.49	213.92
803.81	213.87
804.13	213.83
804.45	213.85
804.77	213.92
805.09	213.90
805.41	213.86
805.73	213.87
806.05	213.78
806.37	213.64
806.69	213.63
807.01	213.61
807.33	213.59
807.65	213.37
807.97	213.44
808.28	213.38
808.60	213.30
808.92	213.26
809.24	213.52
809.56	213.37
809.88	213.26
810.20	213.27
810.52	213.31
810.84	213.28
811.16	213.11
811.48	213.06
811.80	213.25
812.12	213.28
812.43	213.24
812.75	213.27
813.07	213.25
813.39	213.24
813.71	213.08
814.03	213.02
814.35	213.03
814.67	212.89
814.98	212.78
815.30	212.80
815.62	212.81
815.94	212.48
816.26	212.53
816.58	212.41
816.89	212.42
817.21	212.36
817.53	212.34
817.85	212.42
818.17	212.41
818.48	212.17
818.80	212.20
819.12	212.22
819.44	212.19
819.76	212.17
820.07	212.10
820.39	212.18
820.71	212.16
821.03	212.24
821.34	212.16
821.66	212.23
821.98	212.16
822.30	212.04
822.61	212.35
822.93	212.35
823.25	212.38
823.57	212.37
823.88	212.42
824.20	212.41
824.52	212.45
824.83	212.46
825.15	212.45
825.47	212.42
825.79	212.41
826.10	212.37
826.42	212.38
826.74	212.43
827.05	212.38
827.37	212.50
827.69	212.40
828.00	212.46
828.32	212.44
828.64	212.38
828.95	212.63
829.27	212.44
829.58	212.40
829.90	212.44
830.22	212.43
830.53	212.35
830.85	212.31
831.17	212.24
831.48	212.18
831.80	212.16
832.11	212.17
832.43	212.14
832.75	212.15
833.06	212.34
833.38	212.16
833.69	212.24
834.01	212.22
834.32	212.22
834.64	212.21
834.96	212.27
835.27	212.29
835.59	212.21
835.90	212.19
836.22	212.17
836.53	212.10
836.85	212.14
837.16	212.47
837.48	212.51
837.79	212.57
838.11	212.60
838.42	212.63
838.74	212.62
839.05	212.63
839.37	212.52
839.68	212.29
840.00	212.40
840.31	212.40
840.63	212.36
840.94	212.30
841.26	212.20
841.57	212.13
841.88	212.15
842.20	212.01
842.51	211.95
842.83	211.91
843.14	212.22
843.46	212.18
843.77	211.98
844.08	211.96
844.40	211.85
844.71	211.86
845.03	211.80
845.34	211.79
845.65	211.71
845.97	211.82
846.28	211.84
846.60	211.75
846.91	211.66
847.22	211.65
847.54	211.68
847.85	211.76
848.16	211.75
848.48	211.70
848.79	211.87
849.10	211.97
849.42	211.98
849.73	211.65
850.04	211.66
850.36	211.57
850.67	211.65
850.98	211.66
851.30	211.67
851.61	211.73
851.92	211.75
852.23	211.81
852.55	211.79
852.86	211.78
853.17	211.81
853.49	211.93
853.80	211.99
854.11	212.05
854.42	211.99
854.74	211.94
855.05	211.99
855.36	211.80
855.67	211.80
855.99	211.81
856.30	212.25
856.61	212.22
856.92	212.22
857.23	212.19
857.55	212.15
857.86	212.11
858.17	212.16
858.48	212.09
858.79	212.09
859.11	212.14
859.42	212.18
859.73	212.19
860.04	212.10
860.35	211.99
860.66	211.91
860.98	211.99
861.29	212.07
861.60	212.02
861.91	212.16
862.22	212.05
862.53	212.05
862.84	211.65
863.16	211.76
863.47	211.74
863.78	211.70
864.09	211.74
864.40	211.74
864.71	211.74
865.02	211.83
865.33	211.82
865.64	211.74
865.95	211.71
866.27	211.97
866.58	212.05
866.89	212.12
867.20	212.12
867.51	212.08
867.82	211.99
868.13	212.08
868.44	211.93
868.75	212.04
869.06	212.04
869.37	212.08
869.68	212.00
869.99	212.02
870.30	212.08
870.61	212.09
870.92	212.06
871.23	212.00
871.54	212.01
871.85	212.03
872.16	212.05
872.47	212.00
872.78	211.73
873.09	211.65
873.40	211.53
873.71	211.56
874.02	211.58
874.33	211.59
874.64	211.51
874.95	211.60
875.26	211.50
875.56	211.49
875.87	211.47
876.18	211.33
876.49	211.64
876.80	211.59
877.11	211.56
877.42	211.57
877.73	211.61
878.04	211.49
878.35	211.41
878.66	211.41
878.96	211.39
879.27	211.36
879.58	211.37
879.89	211.38
880.20	211.51
880.51	211.53
880.82	211.57
881.12	211.58
881.43	211.47
881.74	211.43
882.05	211.33
882.36	211.36
882.67	211.43
882.97	211.06
883.28	210.93
883.59	210.92
883.90	210.94
884.21	210.91
884.51	210.82
884.82	210.81
885.13	210.79
885.44	210.82
885.74	210.75
886.05	210.77
886.36	210.72
886.67	210.50
886.98	210.61
887.28	210.64
887.59	210.68
887.90	210.73
888.20	210.74
888.51	210.90
888.82	210.84
889.13	210.82
889.43	211.14
889.74	211.17
890.05	211.15
890.35	211.14
890.66	211.10
890.97	211.22
891.28	211.21
891.58	211.27
891.89	211.25
892.20	211.31
892.50	211.35
892.81	211.37
893.12	211.40
893.42	211.29
893.73	211.29
894.04	211.27
894.34	211.28
894.65	211.27
894.95	211.18
895.26	211.19
895.57	211.39
895.87	211.07
896.18	211.27
896.48	211.33
896.79	211.30
897.10	211.37
897.40	211.35
897.71	211.37
898.01	211.38
898.32	211.45
898.63	211.41
898.93	211.36
899.24	211.45
899.54	211.49
899.85	211.46
900.15	211.47
900.46	211.49
900.76	211.55
901.07	211.61
901.38	211.67
901.68	211.75
901.99	211.60
902.29	211.66
902.60	211.53
902.90	211.47
903.21	211.50
903.51	211.48
903.82	211.56
904.12	211.59
904.43	211.58
904.73	211.59
905.03	211.62
905.34	211.95
905.64	211.93
905.95	211.92
906.25	211.88
906.56	211.89
906.86	211.87
907.17	211.85
907.47	211.84
907.77	211.77
908.08	211.71
908.38	211.71
908.69	211.71
908.99	211.79
909.30	211.82
909.60	211.83
909.90	211.82
910.21	211.70
910.51	211.68
910.81	211.67
911.12	211.62
911.42	211.65
911.73	211.29
912.03	211.28
912.33	211.41
912.64	211.42
912.94	211.31
913.24	211.25
913.55	211.22
913.85	211.22
914.15	211.32
914.46	211.31
914.76	211.27
915.06	211.23
915.37	211.23
915.67	211.28
915.97	211.29
916.27	211.23
916.58	211.28
916.88	211.22
917.18	211.14
917.49	211.35
917.79	211.31
918.09	211.37
918.39	211.49
918.70	211.41
919.00	211.42
919.30	211.61
919.60	211.56
919.91	211.59
920.21	211.55
920.51	211.44
920.81	211.44
921.12	211.54
921.42	211.55
921.72	211.47
922.02	211.45
922.32	211.41
922.63	211.44
922.93	211.60
923.23	211.67
923.53	211.70
923.83	211.47
924.13	211.52
924.44	211.58
924.74	211.53
925.04	211.59
925.34	211.57
925.64	211.43
925.94	211.47
926.24	211.65
926.55	211.59
926.85	211.64
927.15	211.62
927.45	211.61
927.75	211.60
928.05	211.62
928.35	211.58
928.65	211.64
928.95	211.64
929.26	211.49
929.56	211.53
929.86	211.51
930.16	211.49
930.46	211.47
930.76	211.40
931.06	211.29
931.36	211.17
931.66	211.22
931.96	211.25
932.26	211.32
932.56	211.09
932.86	211.21
933.16	211.20
933.46	211.22
933.76	211.11
934.06	211.15
934.36	211.29
934.66	211.19
934.96	211.24
935.26	211.25
935.56	211.29
935.86	211.17
936.16	211.15
936.46	211.22
936.76	211.28
937.06	211.21
937.36	211.20
937.66	211.23
937.96	211.25
938.26	211.17
938.56	211.15
938.86	211.26
939.16	211.31
939.46	211.38
939.76	211.38
940.06	211.39
940.35	211.39
940.65	211.21
940.95	211.35
941.25	211.21
941.55	211.24
941.85	211.21
942.15	211.28
942.45	211.41
942.75	211.35
943.04	211.35
943.34	211.43
943.64	211.46
943.94	211.41
944.24	211.41
944.54	211.48
944.84	211.39
945.13	211.31
945.43	211.25
945.73	211.23
946.03	211.19
946.33	211.21
946.62	211.10
946.92	211.03
947.22	211.06
947.52	211.06
947.82	211.04
948.11	211.04
948.41	211.02
948.71	210.94
949.01	211.03
949.31	210.97
949.60	210.96
949.90	211.08
950.20	211.08
950.50	211.04
950.79	210.99
951.09	211.07
951.39	211.10
951.69	210.98
951.98	211.01
952.28	211.04
952.58	211.03
952.87	211.09
953.17	211.21
953.47	211.10
953.76	211.15
954.06	211.12
954.36	211.07
954.66	211.06
954.95	211.18
955.25	211.14
955.55	211.13
955.84	211.05
956.14	210.99
956.44	210.96
956.73	210.90
957.03	210.85
957.32	210.82
957.62	210.81
957.92	210.95
958.21	210.94
958.51	211.28
958.81	211.29
959.10	211.32
959.40	211.37
959.69	211.45
959.99	211.48
960.29	211.48
960.58	211.43
960.88	211.60
961.17	211.50
961.47	211.51
961.76	211.48
962.06	211.52
962.36	211.51
962.65	211.58
962.95	211.63
963.24	211.67
963.54	211.65
963.83	211.63
964.13	211.59
964.42	211.48
964.72	211.15
965.01	211.19
965.31	211.14
965.60	211.06
965.90	211.27
966.19	211.18
966.49	211.18
966.78	211.24
967.08	211.17
967.37	211.18
967.67	211.13
967.96	211.22
968.26	211.20
968.55	211.25
968.85	211.29
969.14	211.28
969.43	211.22
969.73	211.22
970.02	211.20
970.32	211.18
970.61	211.20
970.91	211.19
971.20	211.07
971.49	211.06
971.79	211.17
972.08	210.93
972.38	210.91
972.67	210.88
972.96	210.90
973.26	210.82
973.55	210.95
973.85	210.90
974.14	210.87
974.43	210.87
974.73	210.76
975.02	210.75
975.31	210.77
975.61	210.83
975.90	210.79
976.19	210.80
976.49	210.81
976.78	210.87
977.07	210.86
977.37	210.93
977.66	210.95
977.95	210.76
978.24	210.84
978.54	210.90
978.83	210.93
979.12	210.91
979.42	210.88
979.71	210.83
980.00	210.84
980.29	210.81
980.59	210.82
980.88	210.91
981.17	210.88
981.46	210.82
981.76	210.81
982.05	211.00
982.34	211.03
982.63	210.99
982.93	210.94
983.22	211.06
983.51	211.10
983.80	211.12
984.09	211.29
984.39	211.26
984.68	211.23
984.97	211.27
985.26	211.26
985.55	211.26
985.85	211.15
986.14	211.18
986.43	211.30
986.72	211.27
987.01	211.15
987.30	211.15
987.59	211.15
987.89	211.12
988.18	211.02
988.47	210.97
988.76	210.99
989.05	210.94
989.34	210.90
989.63	210.97
989.92	210.98
990.22	210.89
990.51	210.84
990.80	210.92
991.09	210.83
991.38	210.89
991.67	210.95
991.96	210.95
992.25	211.01
992.54	210.89
992.83	210.94
993.12	210.92
993.41	211.00
993.70	211.17
993.99	211.28
994.28	211.23
994.58	211.25
994.87	211.16
995.16	211.15
995.45	211.00
995.74	210.89
996.03	210.93
996.32	210.91
996.61	210.99
996.90	211.00
997.19	211.13
997.48	211.10
997.77	211.04
998.06	211.09
998.34	211.07
998.63	211.06
998.92	211.05
999.21	211.13
999.50	211.09
999.79	210.91
1000.08	210.85
1000.37	210.85
1000.66	210.85
1000.95	210.99
1001.24	211.06
1001.53	211.21
1001.82	211.22
1002.11	211.12
1002.40	211.19
1002.68	211.21
1002.97	211.32
1003.26	211.22
1003.55	211.15
1003.84	211.16
1004.13	211.24
1004.42	211.23
1004.71	211.25
1004.99	211.23
1005.28	211.29
1005.57	211.24
1005.86	211.23
1006.15	211.22
1006.44	211.25
1006.72	211.30
1007.01	211.26
1007.30	211.22
1007.59	211.08
1007.88	211.10
1008.17	211.13
1008.45	211.03
1008.74	210.90
1009.03	210.73
1009.32	210.73
1009.60	210.70
1009.89	210.66
1010.18	210.53
1010.47	210.51
1010.76	210.47
1011.04	210.44
1011.33	210.47
1011.62	210.48
1011.91	210.52
1012.19	210.53
1012.48	210.54
1012.77	210.54
1013.05	210.75
1013.34	210.77
1013.63	210.80
1013.92	210.79
1014.20	210.77
1014.49	210.85
1014.78	210.88
1015.06	210.76
1015.35	210.78
1015.64	210.89
1015.92	211.01
1016.21	211.01
1016.50	211.02
1016.78	211.08
1017.07	211.09
1017.36	210.99
1017.64	210.96
1017.93	211.00
1018.22	211.01
1018.50	211.00
1018.79	210.95
1019.08	210.75
1019.36	210.75
1019.65	210.77
1019.93	210.88
1020.22	210.94
1020.51	211.08
1020.79	211.02
1021.08	211.00
1021.36	210.55
1021.65	210.60
1021.94	211.05
1022.22	211.15
1022.51	210.75
1022.79	212.75
1023.08	211.65
1023.36	214.65
1023.65	209.50
>>>>>End Processed Spectral Data<<<<<
