SpectraSuite Data File
++++++++++++++++++++++++++++++++++++
Date: Mon Feb 25 16:58:32 EST 2013
User: group
Dark Spectrum Present: No
Reference Spectrum Present: No
Number of Sampled Component Spectra: 1
Spectrometers: USB2E7196
Integration Time (usec): 104000 (USB2E7196)
Spectra Averaged: 20 (USB2E7196)
Boxcar Smoothing: 10 (USB2E7196)
Correct for Electrical Dark: No (USB2E7196)
Strobe/Lamp Enabled: No (USB2E7196)
Correct for Detector Non-linearity: No (USB2E7196)
Correct for Stray Light: No (USB2E7196)
Number of Pixels in Processed Spectrum: 2048
>>>>>Begin Processed Spectral Data<<<<<
339.09	0.00
339.48	198.60
339.86	200.55
340.24	201.25
340.63	203.40
341.01	209.60
341.39	205.85
341.78	207.45
342.16	209.55
342.54	209.05
342.93	198.30
343.31	208.33
343.69	208.91
344.07	209.34
344.46	209.80
344.84	210.15
345.22	210.24
345.60	210.54
345.99	210.75
346.37	210.84
346.75	210.93
347.13	210.96
347.52	211.03
347.90	211.32
348.28	211.38
348.66	211.38
349.05	211.33
349.43	211.45
349.81	211.50
350.19	211.46
350.57	211.64
350.96	211.68
351.34	211.73
351.72	211.79
352.10	211.94
352.48	211.98
352.87	212.05
353.25	212.06
353.63	212.03
354.01	212.05
354.39	212.14
354.77	212.20
355.15	212.35
355.54	212.44
355.92	212.36
356.30	212.44
356.68	212.75
357.06	212.86
357.44	212.82
357.82	212.90
358.20	212.99
358.58	212.98
358.97	212.98
359.35	213.15
359.73	213.33
360.11	213.32
360.49	213.41
360.87	213.50
361.25	213.64
361.63	213.79
362.01	213.89
362.39	213.90
362.77	214.02
363.15	214.02
363.53	214.04
363.91	214.07
364.29	214.06
364.67	213.75
365.05	213.78
365.43	213.84
365.81	213.93
366.19	214.13
366.57	214.28
366.95	214.32
367.33	214.18
367.71	214.11
368.09	214.18
368.47	214.18
368.85	214.10
369.23	214.12
369.61	214.01
369.99	214.01
370.37	214.00
370.75	214.06
371.13	213.91
371.51	213.87
371.89	213.81
372.27	213.89
372.65	213.86
373.03	213.80
373.41	213.74
373.78	213.69
374.16	213.50
374.54	213.33
374.92	213.29
375.30	213.24
375.68	213.12
376.06	213.07
376.44	213.01
376.82	212.99
377.19	212.88
377.57	212.79
377.95	212.69
378.33	212.60
378.71	212.39
379.09	212.45
379.47	212.36
379.84	212.34
380.22	212.21
380.60	212.09
380.98	212.05
381.36	211.92
381.73	211.79
382.11	211.82
382.49	211.77
382.87	211.69
383.25	211.70
383.62	212.07
384.00	211.96
384.38	211.89
384.76	211.89
385.13	211.97
385.51	212.01
385.89	211.92
386.27	211.91
386.64	211.94
387.02	211.93
387.40	211.84
387.78	211.84
388.15	211.79
388.53	211.79
388.91	211.83
389.29	211.85
389.66	211.87
390.04	211.78
390.42	211.78
390.79	211.78
391.17	211.76
391.55	211.29
391.92	211.28
392.30	211.37
392.68	211.34
393.05	211.25
393.43	211.21
393.81	211.29
394.18	211.22
394.56	211.22
394.94	211.22
395.31	211.30
395.69	211.39
396.06	211.48
396.44	211.50
396.82	211.42
397.19	211.55
397.57	211.55
397.95	211.57
398.32	211.61
398.70	211.71
399.07	211.78
399.45	211.88
399.82	211.89
400.20	211.87
400.58	211.91
400.95	211.95
401.33	212.06
401.70	212.34
402.08	212.53
402.45	212.62
402.83	212.76
403.20	212.83
403.58	212.90
403.95	213.11
404.33	213.33
404.71	213.51
405.08	213.89
405.46	214.11
405.83	214.44
406.21	214.61
406.58	214.92
406.96	215.23
407.33	215.58
407.70	216.01
408.08	216.67
408.45	217.11
408.83	217.54
409.20	217.95
409.58	218.24
409.95	218.81
410.33	219.40
410.70	220.02
411.08	220.74
411.45	221.45
411.82	222.10
412.20	222.96
412.57	224.05
412.95	224.73
413.32	225.83
413.69	226.83
414.07	228.10
414.44	229.33
414.82	230.58
415.19	232.06
415.56	233.52
415.94	234.96
416.31	236.73
416.68	238.63
417.06	240.77
417.43	242.73
417.81	244.94
418.18	247.22
418.55	249.65
418.93	252.27
419.30	254.96
419.67	257.92
420.04	260.79
420.42	263.87
420.79	267.65
421.16	271.28
421.54	275.20
421.91	279.08
422.28	283.18
422.66	287.55
423.03	291.92
423.40	296.45
423.77	301.23
424.15	306.19
424.52	311.16
424.89	316.70
425.26	322.15
425.64	327.32
426.01	333.01
426.38	338.91
426.75	344.95
427.13	351.30
427.50	357.92
427.87	364.83
428.24	371.66
428.61	378.16
428.99	385.45
429.36	393.30
429.73	400.96
430.10	408.76
430.47	416.77
430.85	425.00
431.22	433.71
431.59	443.15
431.96	452.03
432.33	461.93
432.70	471.49
433.08	482.81
433.45	493.59
433.82	504.32
434.19	516.31
434.56	527.96
434.93	539.14
435.30	550.45
435.68	563.08
436.05	575.65
436.42	588.04
436.79	599.51
437.16	611.89
437.53	625.06
437.90	637.91
438.27	650.77
438.64	663.95
439.01	676.45
439.38	687.56
439.75	698.54
440.13	711.07
440.50	722.87
440.87	732.67
441.24	742.64
441.61	753.82
441.98	762.32
442.35	772.32
442.72	782.29
443.09	791.71
443.46	797.72
443.83	802.14
444.20	806.11
444.57	811.40
444.94	814.30
445.31	817.36
445.68	820.63
446.05	822.42
446.42	822.30
446.79	821.86
447.16	821.22
447.53	820.88
447.90	816.99
448.27	813.20
448.64	807.30
449.01	803.55
449.37	795.90
449.74	788.46
450.11	779.32
450.48	769.39
450.85	759.38
451.22	750.81
451.59	742.62
451.96	734.74
452.33	724.07
452.70	714.44
453.07	702.68
453.43	690.51
453.80	679.01
454.17	667.92
454.54	657.30
454.91	645.91
455.28	634.81
455.65	624.56
456.02	614.26
456.38	605.58
456.75	594.50
457.12	585.33
457.49	576.15
457.86	567.26
458.23	559.66
458.59	551.31
458.96	542.89
459.33	535.30
459.70	527.87
460.07	521.86
460.43	514.94
460.80	508.46
461.17	502.85
461.54	496.82
461.91	491.17
462.27	485.50
462.64	480.63
463.01	475.19
463.38	470.03
463.74	464.58
464.11	459.93
464.48	455.94
464.85	451.49
465.21	448.16
465.58	444.69
465.95	440.24
466.32	436.57
466.68	433.06
467.05	429.59
467.42	425.97
467.78	422.04
468.15	418.49
468.52	415.83
468.88	412.25
469.25	409.25
469.62	406.75
469.98	403.98
470.35	401.43
470.72	399.12
471.08	396.49
471.45	394.40
471.82	392.27
472.18	389.78
472.55	387.99
472.92	385.87
473.28	383.96
473.65	382.26
474.02	380.41
474.38	378.88
474.75	377.51
475.11	376.16
475.48	375.25
475.85	374.30
476.21	373.35
476.58	372.66
476.94	371.97
477.31	371.18
477.67	370.43
478.04	369.80
478.41	369.37
478.77	369.24
479.14	368.76
479.50	368.48
479.87	368.46
480.23	368.44
480.60	368.40
480.96	368.27
481.33	368.71
481.69	369.10
482.06	369.21
482.42	369.40
482.79	369.68
483.15	370.18
483.52	370.79
483.88	371.35
484.25	371.87
484.61	372.62
484.98	373.36
485.34	374.41
485.71	375.57
486.07	376.77
486.44	377.61
486.80	378.91
487.17	380.27
487.53	381.86
487.90	383.59
488.26	385.36
488.62	387.31
488.99	389.19
489.35	391.18
489.72	393.39
490.08	395.55
490.44	397.83
490.81	400.13
491.17	402.58
491.54	405.14
491.90	407.81
492.26	410.64
492.63	413.48
492.99	416.47
493.36	419.55
493.72	422.75
494.08	426.16
494.45	429.60
494.81	433.13
495.17	436.58
495.54	440.31
495.90	444.00
496.26	447.66
496.63	451.32
496.99	455.21
497.35	459.30
497.72	463.58
498.08	467.82
498.44	472.15
498.80	476.65
499.17	481.28
499.53	485.87
499.89	490.47
500.26	495.07
500.62	499.56
500.98	504.16
501.34	508.73
501.71	513.42
502.07	518.17
502.43	522.85
502.79	527.56
503.16	532.10
503.52	536.92
503.88	541.75
504.24	546.64
504.60	551.43
504.97	556.19
505.33	560.88
505.69	565.84
506.05	570.56
506.41	575.20
506.78	579.65
507.14	583.98
507.50	588.42
507.86	593.12
508.22	597.64
508.59	601.89
508.95	606.30
509.31	610.68
509.67	614.92
510.03	619.08
510.39	623.42
510.75	627.40
511.12	631.42
511.48	635.38
511.84	639.19
512.20	642.82
512.56	646.64
512.92	650.41
513.28	654.07
513.64	657.57
514.00	660.92
514.37	664.27
514.73	667.81
515.09	671.22
515.45	674.22
515.81	677.32
516.17	680.43
516.53	683.16
516.89	685.89
517.25	688.57
517.61	691.39
517.97	693.82
518.33	696.30
518.69	698.65
519.05	700.99
519.41	703.36
519.77	706.02
520.13	708.28
520.49	710.20
520.85	712.14
521.21	714.25
521.57	716.32
521.93	718.07
522.29	720.04
522.65	721.83
523.01	723.57
523.37	725.21
523.73	727.00
524.09	728.71
524.45	730.44
524.81	732.03
525.17	733.67
525.53	735.34
525.89	737.07
526.25	738.80
526.61	740.12
526.97	741.58
527.33	743.03
527.68	744.81
528.04	746.42
528.40	747.58
528.76	749.05
529.12	750.65
529.48	752.46
529.84	753.90
530.20	755.55
530.56	757.31
530.91	759.24
531.27	760.87
531.63	762.65
531.99	764.19
532.35	765.96
532.71	767.66
533.07	769.64
533.42	771.80
533.78	773.59
534.14	775.71
534.50	777.43
534.86	779.36
535.21	780.69
535.57	782.77
535.93	784.73
536.29	786.85
536.65	788.87
537.00	790.65
537.36	792.49
537.72	794.10
538.08	795.86
538.44	797.56
538.79	799.63
539.15	801.65
539.51	803.95
539.87	806.06
540.22	808.26
540.58	810.53
540.94	812.51
541.29	814.72
541.65	816.53
542.01	818.78
542.37	820.78
542.72	822.86
543.08	824.82
543.44	827.35
543.79	829.00
544.15	830.97
544.51	833.51
544.87	836.04
545.22	838.38
545.58	840.69
545.94	842.77
546.29	844.76
546.65	846.81
547.01	848.77
547.36	850.82
547.72	852.61
548.07	854.25
548.43	855.91
548.79	857.53
549.14	859.58
549.50	861.56
549.86	863.34
550.21	865.40
550.57	867.55
550.92	869.35
551.28	871.45
551.64	873.31
551.99	875.23
552.35	876.88
552.70	878.44
553.06	880.49
553.41	882.56
553.77	884.79
554.13	886.77
554.48	888.88
554.84	891.07
555.19	893.23
555.55	895.24
555.90	897.02
556.26	898.87
556.61	900.57
556.97	902.12
557.32	903.95
557.68	905.54
558.03	906.97
558.39	908.23
558.74	909.98
559.10	911.47
559.45	912.91
559.81	914.51
560.16	916.05
560.52	917.34
560.87	918.98
561.23	919.89
561.58	921.43
561.94	922.39
562.29	923.18
562.64	924.45
563.00	925.71
563.35	927.14
563.71	928.85
564.06	930.31
564.42	931.80
564.77	933.41
565.12	935.00
565.48	936.63
565.83	938.08
566.19	939.56
566.54	940.93
566.89	941.74
567.25	943.15
567.60	944.82
567.96	946.47
568.31	947.72
568.66	949.01
569.02	949.80
569.37	950.62
569.72	951.91
570.08	952.45
570.43	953.13
570.78	953.83
571.14	954.03
571.49	954.36
571.84	954.78
572.20	954.55
572.55	954.67
572.90	954.21
573.26	954.07
573.61	953.71
573.96	953.43
574.31	953.37
574.67	952.79
575.02	951.75
575.37	950.64
575.72	949.34
576.08	948.65
576.43	947.60
576.78	946.92
577.13	945.77
577.49	945.20
577.84	944.11
578.19	943.24
578.54	942.67
578.90	942.17
579.25	941.14
579.60	940.05
579.95	938.59
580.30	937.70
580.66	936.85
581.01	935.47
581.36	934.03
581.71	932.55
582.06	931.19
582.42	930.07
582.77	928.62
583.12	927.32
583.47	925.96
583.82	924.71
584.17	922.98
584.53	921.64
584.88	919.98
585.23	918.50
585.58	916.59
585.93	914.57
586.28	912.85
586.63	911.21
586.98	909.67
587.34	908.30
587.69	906.55
588.04	904.79
588.39	903.25
588.74	901.54
589.09	900.05
589.44	898.11
589.79	896.40
590.14	894.60
590.49	892.92
590.84	891.08
591.19	889.53
591.54	887.87
591.89	885.62
592.25	883.58
592.60	881.26
592.95	879.21
593.30	877.06
593.65	874.37
594.00	871.83
594.35	870.77
594.70	868.49
595.05	866.21
595.40	863.80
595.75	861.10
596.10	859.03
596.45	856.83
596.80	854.84
597.15	852.75
597.50	850.21
597.85	847.81
598.19	845.05
598.54	842.57
598.89	840.17
599.24	838.26
599.59	835.88
599.94	833.81
600.29	831.52
600.64	829.15
600.99	826.83
601.34	824.79
601.69	821.16
602.04	818.29
602.39	815.83
602.74	813.56
603.08	811.60
603.43	809.40
603.78	806.69
604.13	803.97
604.48	801.47
604.83	799.59
605.18	797.47
605.53	795.16
605.87	792.51
606.22	790.19
606.57	787.63
606.92	784.91
607.27	782.14
607.62	779.66
607.96	777.27
608.31	774.83
608.66	772.14
609.01	769.47
609.36	767.17
609.70	764.47
610.05	761.36
610.40	758.62
610.75	755.49
611.10	753.15
611.44	750.14
611.79	747.01
612.14	743.89
612.49	740.46
612.83	737.65
613.18	734.52
613.53	731.45
613.88	728.42
614.22	725.55
614.57	722.58
614.92	719.47
615.27	716.46
615.61	713.51
615.96	710.60
616.31	707.88
616.65	705.22
617.00	702.23
617.35	699.59
617.70	696.51
618.04	693.35
618.39	689.98
618.74	687.25
619.08	684.36
619.43	681.39
619.78	678.76
620.12	675.87
620.47	673.19
620.82	670.05
621.16	666.66
621.51	663.97
621.85	661.22
622.20	658.39
622.55	655.32
622.89	652.37
623.24	649.46
623.59	646.32
623.93	643.34
624.28	640.79
624.62	638.30
624.97	635.56
625.32	633.03
625.66	630.44
626.01	627.51
626.35	624.85
626.70	622.00
627.04	619.43
627.39	616.80
627.73	614.18
628.08	611.90
628.43	609.43
628.77	606.56
629.12	603.74
629.46	601.22
629.81	598.66
630.15	596.04
630.50	593.27
630.84	590.69
631.19	588.05
631.53	585.34
631.88	582.21
632.22	579.34
632.57	576.96
632.91	574.32
633.26	571.79
633.60	568.95
633.95	566.52
634.29	563.75
634.64	561.18
634.98	558.40
635.32	555.89
635.67	553.75
636.01	551.55
636.36	549.16
636.70	546.79
637.05	544.30
637.39	541.98
637.73	539.90
638.08	538.13
638.42	536.03
638.77	533.79
639.11	531.78
639.45	529.66
639.80	527.04
640.14	524.63
640.49	522.47
640.83	520.50
641.17	518.27
641.52	515.98
641.86	513.65
642.20	511.68
642.55	509.20
642.89	506.73
643.23	504.34
643.58	502.31
643.92	499.94
644.26	497.85
644.61	495.70
644.95	493.40
645.29	490.80
645.64	488.39
645.98	486.15
646.32	483.90
646.66	481.60
647.01	479.57
647.35	477.72
647.69	475.52
648.04	473.35
648.38	471.18
648.72	469.08
649.06	466.87
649.41	464.54
649.75	462.58
650.09	460.59
650.43	458.38
650.78	456.25
651.12	454.17
651.46	452.09
651.80	450.05
652.14	448.03
652.49	446.15
652.83	444.07
653.17	441.90
653.51	439.83
653.85	438.05
654.20	436.06
654.54	433.75
654.88	431.80
655.22	429.76
655.56	427.69
655.90	425.60
656.25	423.63
656.59	421.72
656.93	419.70
657.27	417.79
657.61	415.75
657.95	413.92
658.29	412.10
658.64	410.33
658.98	408.50
659.32	406.42
659.66	404.42
660.00	402.54
660.34	400.81
660.68	398.86
661.02	396.90
661.36	395.08
661.70	393.38
662.05	391.55
662.39	390.01
662.73	388.62
663.07	387.19
663.41	385.63
663.75	383.95
664.09	382.28
664.43	380.51
664.77	379.02
665.11	377.27
665.45	375.63
665.79	374.08
666.13	372.43
666.47	370.98
666.81	369.41
667.15	367.82
667.49	366.39
667.83	365.08
668.17	363.66
668.51	362.39
668.85	361.08
669.19	359.97
669.53	358.43
669.87	356.83
670.21	355.38
670.55	354.11
670.89	353.08
671.23	351.90
671.57	350.65
671.91	349.45
672.25	348.26
672.58	347.19
672.92	345.82
673.26	344.69
673.60	343.60
673.94	342.48
674.28	341.44
674.62	340.37
674.96	339.34
675.30	338.32
675.64	337.10
675.97	335.93
676.31	334.67
676.65	333.53
676.99	332.61
677.33	331.51
677.67	330.30
678.01	328.94
678.34	327.85
678.68	326.92
679.02	325.75
679.36	324.68
679.70	323.45
680.04	322.37
680.37	321.30
680.71	320.25
681.05	319.24
681.39	318.13
681.73	317.02
682.06	315.92
682.40	314.85
682.74	313.83
683.08	312.91
683.42	311.77
683.75	310.82
684.09	309.71
684.43	308.77
684.77	307.75
685.10	306.87
685.44	305.78
685.78	304.80
686.12	303.95
686.45	303.07
686.79	302.17
687.13	301.41
687.46	300.44
687.80	299.57
688.14	298.60
688.48	297.84
688.81	297.00
689.15	296.17
689.49	295.26
689.82	294.45
690.16	293.47
690.50	292.76
690.83	291.84
691.17	290.94
691.51	290.02
691.84	289.33
692.18	288.52
692.52	287.78
692.85	287.02
693.19	286.38
693.52	285.59
693.86	284.68
694.20	283.82
694.53	283.08
694.87	282.26
695.21	281.51
695.54	280.78
695.88	279.94
696.21	279.10
696.55	278.48
696.88	277.67
697.22	276.95
697.56	276.31
697.89	275.67
698.23	275.03
698.56	274.37
698.90	273.75
699.23	273.02
699.57	272.40
699.90	271.62
700.24	270.81
700.58	270.09
700.91	269.67
701.25	269.27
701.58	268.80
701.92	268.25
702.25	267.70
702.59	267.06
702.92	266.49
703.26	265.90
703.59	265.18
703.93	264.98
704.26	264.42
704.60	263.79
704.93	263.21
705.26	262.57
705.60	262.08
705.93	261.39
706.27	261.04
706.60	260.58
706.94	260.21
707.27	259.67
707.61	259.18
707.94	258.59
708.27	257.82
708.61	257.20
708.94	256.66
709.28	256.25
709.61	255.75
709.94	255.27
710.28	254.87
710.61	254.54
710.95	253.75
711.28	253.61
711.61	253.14
711.95	252.79
712.28	252.38
712.61	252.03
712.95	251.80
713.28	251.35
713.61	250.84
713.95	250.30
714.28	249.89
714.61	249.47
714.95	249.01
715.28	248.58
715.61	248.19
715.95	247.81
716.28	247.36
716.61	247.02
716.95	246.66
717.28	246.33
717.61	245.95
717.94	245.63
718.28	244.99
718.61	244.56
718.94	244.17
719.27	243.80
719.61	243.43
719.94	243.04
720.27	242.61
720.60	242.28
720.94	242.04
721.27	241.74
721.60	241.55
721.93	241.28
722.27	241.14
722.60	240.92
722.93	240.63
723.26	240.35
723.59	239.99
723.93	239.66
724.26	239.36
724.59	239.00
724.92	238.71
725.25	238.54
725.59	238.32
725.92	238.16
726.25	238.00
726.58	237.67
726.91	237.33
727.24	237.20
727.57	236.92
727.91	236.60
728.24	236.43
728.57	236.14
728.90	235.92
729.23	235.55
729.56	235.44
729.89	235.13
730.22	234.87
730.55	234.73
730.89	234.49
731.22	234.19
731.55	234.00
731.88	233.75
732.21	233.47
732.54	233.25
732.87	232.95
733.20	232.67
733.53	232.46
733.86	232.33
734.19	232.04
734.52	231.91
734.85	231.91
735.18	231.66
735.51	231.55
735.84	231.37
736.17	231.39
736.50	231.03
736.83	231.25
737.16	231.05
737.49	230.77
737.82	230.61
738.15	230.50
738.48	230.37
738.81	230.19
739.14	229.99
739.47	229.85
739.80	229.73
740.13	229.60
740.46	229.42
740.79	229.16
741.12	229.01
741.45	228.81
741.78	228.50
742.11	228.46
742.44	228.19
742.77	228.10
743.10	227.76
743.43	227.55
743.75	227.06
744.08	227.36
744.41	227.23
744.74	227.04
745.07	226.81
745.40	226.63
745.73	226.59
746.06	226.39
746.39	226.17
746.71	225.96
747.04	225.72
747.37	225.51
747.70	225.43
748.03	225.34
748.36	225.25
748.68	225.13
749.01	224.74
749.34	224.58
749.67	224.38
750.00	224.34
750.33	224.49
750.65	224.32
750.98	223.70
751.31	223.55
751.64	223.55
751.97	223.62
752.29	223.47
752.62	223.22
752.95	223.16
753.28	222.98
753.60	222.79
753.93	222.72
754.26	222.67
754.59	222.45
754.91	222.20
755.24	222.05
755.57	221.89
755.90	221.82
756.22	221.68
756.55	221.55
756.88	221.33
757.20	220.94
757.53	220.69
757.86	220.56
758.19	220.55
758.51	220.35
758.84	220.03
759.17	219.92
759.49	219.80
759.82	219.87
760.15	219.83
760.47	219.75
760.80	219.66
761.13	219.59
761.45	219.53
761.78	219.45
762.11	219.31
762.43	219.16
762.76	219.02
763.08	218.98
763.41	218.90
763.74	218.89
764.06	218.83
764.39	218.89
764.71	218.78
765.04	218.66
765.37	218.50
765.69	218.45
766.02	218.33
766.34	218.27
766.67	218.02
767.00	218.00
767.32	218.13
767.65	218.19
767.97	218.05
768.30	217.94
768.62	217.83
768.95	217.79
769.27	217.70
769.60	217.80
769.92	217.69
770.25	217.52
770.57	217.39
770.90	217.28
771.22	217.16
771.55	217.14
771.87	217.05
772.20	217.04
772.52	217.20
772.85	217.62
773.17	217.54
773.50	217.47
773.82	217.41
774.15	217.13
774.47	216.90
774.80	216.90
775.12	216.92
775.45	216.89
775.77	216.79
776.09	216.75
776.42	216.61
776.74	216.56
777.07	216.57
777.39	216.50
777.72	216.47
778.04	216.42
778.36	216.33
778.69	216.36
779.01	216.38
779.33	216.08
779.66	215.56
779.98	215.47
780.31	215.38
780.63	215.42
780.95	215.45
781.28	215.44
781.60	215.32
781.92	215.15
782.25	215.12
782.57	215.12
782.89	215.08
783.22	215.09
783.54	215.00
783.86	215.05
784.19	215.00
784.51	215.06
784.83	214.95
785.16	214.97
785.48	214.80
785.80	214.73
786.12	214.66
786.45	214.68
786.77	214.68
787.09	214.72
787.42	214.61
787.74	214.59
788.06	214.55
788.38	214.51
788.71	214.55
789.03	214.49
789.35	214.50
789.67	214.43
789.99	214.40
790.32	214.39
790.64	214.30
790.96	214.61
791.28	214.41
791.61	214.45
791.93	214.41
792.25	214.41
792.57	214.61
792.89	214.57
793.21	214.57
793.54	214.54
793.86	214.54
794.18	214.46
794.50	214.40
794.82	214.48
795.14	214.51
795.47	214.55
795.79	214.61
796.11	214.50
796.43	214.47
796.75	214.41
797.07	214.41
797.39	214.39
797.71	214.06
798.04	214.16
798.36	214.13
798.68	214.11
799.00	214.13
799.32	213.96
799.64	214.04
799.96	214.00
800.28	214.01
800.60	213.84
800.92	213.91
801.24	213.85
801.56	213.80
801.89	213.80
802.21	213.76
802.53	213.60
802.85	213.64
803.17	213.82
803.49	213.72
803.81	213.65
804.13	213.56
804.45	213.51
804.77	213.46
805.09	213.44
805.41	213.40
805.73	213.30
806.05	213.19
806.37	213.17
806.69	213.09
807.01	213.07
807.33	213.14
807.65	212.98
807.97	213.14
808.28	213.05
808.60	212.92
808.92	212.89
809.24	213.15
809.56	213.12
809.88	212.97
810.20	213.03
810.52	213.15
810.84	213.14
811.16	213.16
811.48	213.06
811.80	213.18
812.12	213.13
812.43	213.20
812.75	213.20
813.07	213.10
813.39	213.14
813.71	213.07
814.03	213.02
814.35	213.04
814.67	212.91
814.98	212.85
815.30	212.92
815.62	212.85
815.94	212.67
816.26	212.64
816.58	212.58
816.89	212.61
817.21	212.47
817.53	212.55
817.85	212.50
818.17	212.60
818.48	212.46
818.80	212.53
819.12	212.41
819.44	212.35
819.76	212.30
820.07	212.30
820.39	212.30
820.71	212.25
821.03	212.27
821.34	212.20
821.66	212.22
821.98	212.17
822.30	212.17
822.61	212.28
822.93	212.26
823.25	212.26
823.57	212.15
823.88	212.19
824.20	212.06
824.52	212.10
824.83	211.95
825.15	211.87
825.47	211.85
825.79	211.84
826.10	211.81
826.42	211.85
826.74	211.89
827.05	211.83
827.37	211.91
827.69	211.90
828.00	211.97
828.32	212.00
828.64	212.00
828.95	212.18
829.27	212.07
829.58	212.00
829.90	212.02
830.22	212.07
830.53	212.00
830.85	212.09
831.17	211.99
831.48	212.07
831.80	212.12
832.11	212.10
832.43	212.15
832.75	212.19
833.06	212.45
833.38	212.33
833.69	212.37
834.01	212.40
834.32	212.40
834.64	212.34
834.96	212.25
835.27	212.27
835.59	212.16
835.90	212.14
836.22	212.18
836.53	212.16
836.85	212.14
837.16	212.45
837.48	212.37
837.79	212.53
838.11	212.51
838.42	212.54
838.74	212.56
839.05	212.51
839.37	212.50
839.68	212.16
840.00	212.16
840.31	212.20
840.63	212.10
840.94	211.99
841.26	211.92
841.57	211.97
841.88	212.02
842.20	211.94
842.51	211.86
842.83	211.83
843.14	212.16
843.46	212.11
843.77	211.99
844.08	212.07
844.40	211.92
844.71	211.91
845.03	211.85
845.34	211.87
845.65	211.89
845.97	211.87
846.28	211.93
846.60	211.89
846.91	211.81
847.22	211.81
847.54	211.90
847.85	211.97
848.16	211.97
848.48	211.84
848.79	211.97
849.10	212.05
849.42	212.06
849.73	211.68
850.04	211.72
850.36	211.51
850.67	211.46
850.98	211.49
851.30	211.48
851.61	211.37
851.92	211.25
852.23	211.39
852.55	211.35
852.86	211.34
853.17	211.39
853.49	211.46
853.80	211.55
854.11	211.63
854.42	211.64
854.74	211.56
855.05	211.60
855.36	211.42
855.67	211.46
855.99	211.50
856.30	211.92
856.61	211.86
856.92	211.93
857.23	211.98
857.55	211.92
857.86	211.93
858.17	212.10
858.48	212.10
858.79	212.00
859.11	212.06
859.42	212.08
859.73	212.13
860.04	212.08
860.35	211.95
860.66	211.82
860.98	211.81
861.29	211.86
861.60	211.91
861.91	212.01
862.22	211.94
862.53	211.84
862.84	211.48
863.16	211.62
863.47	211.57
863.78	211.52
864.09	211.55
864.40	211.58
864.71	211.55
865.02	211.56
865.33	211.48
865.64	211.50
865.95	211.49
866.27	211.70
866.58	211.76
866.89	211.82
867.20	211.84
867.51	211.81
867.82	211.85
868.13	211.93
868.44	211.88
868.75	211.92
869.06	211.92
869.37	211.94
869.68	211.78
869.99	211.82
870.30	211.86
870.61	211.89
870.92	211.85
871.23	211.84
871.54	211.88
871.85	212.02
872.16	211.99
872.47	211.98
872.78	211.74
873.09	211.73
873.40	211.68
873.71	211.68
874.02	211.72
874.33	211.65
874.64	211.57
874.95	211.64
875.26	211.58
875.56	211.58
875.87	211.53
876.18	211.55
876.49	211.91
876.80	211.89
877.11	211.94
877.42	211.97
877.73	211.94
878.04	211.87
878.35	211.84
878.66	211.90
878.96	211.83
879.27	211.77
879.58	211.75
879.89	211.77
880.20	211.79
880.51	211.79
880.82	211.79
881.12	211.71
881.43	211.59
881.74	211.46
882.05	211.52
882.36	211.54
882.67	211.55
882.97	211.15
883.28	211.10
883.59	211.02
883.90	211.04
884.21	211.08
884.51	211.10
884.82	210.99
885.13	210.99
885.44	211.03
885.74	211.07
886.05	211.00
886.36	211.03
886.67	210.93
886.98	211.01
887.28	211.03
887.59	211.05
887.90	210.99
888.20	211.07
888.51	211.09
888.82	211.07
889.13	211.08
889.43	211.40
889.74	211.39
890.05	211.32
890.35	211.30
890.66	211.19
890.97	211.14
891.28	211.14
891.58	211.09
891.89	211.07
892.20	211.05
892.50	211.14
892.81	211.09
893.12	211.16
893.42	211.06
893.73	211.07
894.04	211.12
894.34	211.25
894.65	211.21
894.95	211.17
895.26	211.19
895.57	211.42
895.87	211.00
896.18	211.11
896.48	211.12
896.79	211.10
897.10	211.25
897.40	211.26
897.71	211.39
898.01	211.30
898.32	211.37
898.63	211.33
898.93	211.30
899.24	211.31
899.54	211.23
899.85	211.16
900.15	211.13
900.46	211.12
900.76	211.10
901.07	211.19
901.38	211.18
901.68	211.23
901.99	211.02
902.29	211.10
902.60	211.05
902.90	211.10
903.21	211.07
903.51	211.07
903.82	211.26
904.12	211.20
904.43	211.31
904.73	211.29
905.03	211.40
905.34	211.71
905.64	211.68
905.95	211.77
906.25	211.78
906.56	211.83
906.86	211.78
907.17	211.79
907.47	211.76
907.77	211.68
908.08	211.61
908.38	211.57
908.69	211.62
908.99	211.61
909.30	211.64
909.60	211.74
909.90	211.70
910.21	211.56
910.51	211.53
910.81	211.52
911.12	211.53
911.42	211.47
911.73	211.15
912.03	211.16
912.33	211.20
912.64	211.18
912.94	211.18
913.24	211.15
913.55	211.15
913.85	211.11
914.15	211.24
914.46	211.21
914.76	211.23
915.06	211.25
915.37	211.21
915.67	211.17
915.97	211.08
916.27	211.01
916.58	211.01
916.88	211.02
917.18	211.00
917.49	211.22
917.79	211.25
918.09	211.25
918.39	211.37
918.70	211.37
919.00	211.41
919.30	211.51
919.60	211.46
919.91	211.41
920.21	211.39
920.51	211.32
920.81	211.33
921.12	211.39
921.42	211.35
921.72	211.43
922.02	211.45
922.32	211.45
922.63	211.45
922.93	211.55
923.23	211.55
923.53	211.50
923.83	211.25
924.13	211.23
924.44	211.26
924.74	211.34
925.04	211.37
925.34	211.36
925.64	211.23
925.94	211.26
926.24	211.44
926.55	211.45
926.85	211.47
927.15	211.48
927.45	211.40
927.75	211.37
928.05	211.33
928.35	211.23
928.65	211.34
928.95	211.36
929.26	211.26
929.56	211.34
929.86	211.35
930.16	211.30
930.46	211.28
930.76	211.22
931.06	211.01
931.36	210.91
931.66	210.96
931.96	210.97
932.26	211.00
932.56	210.87
932.86	210.87
933.16	210.93
933.46	210.90
933.76	210.94
934.06	211.02
934.36	211.14
934.66	211.22
934.96	211.14
935.26	211.16
935.56	211.24
935.86	211.10
936.16	211.11
936.46	211.16
936.76	211.18
937.06	211.12
937.36	211.13
937.66	211.10
937.96	211.07
938.26	210.99
938.56	210.99
938.86	211.04
939.16	211.13
939.46	211.12
939.76	211.20
940.06	211.13
940.35	211.04
940.65	210.91
940.95	210.94
941.25	210.90
941.55	210.84
941.85	210.76
942.15	210.87
942.45	210.92
942.75	210.89
943.04	210.90
943.34	211.03
943.64	211.01
943.94	211.05
944.24	211.08
944.54	211.14
944.84	211.14
945.13	211.05
945.43	210.96
945.73	210.95
946.03	210.89
946.33	210.92
946.62	210.99
946.92	210.94
947.22	210.97
947.52	210.97
947.82	211.01
948.11	211.01
948.41	210.93
948.71	210.81
949.01	210.87
949.31	210.87
949.60	210.83
949.90	210.90
950.20	210.83
950.50	210.82
950.79	210.81
951.09	210.80
951.39	210.82
951.69	210.84
951.98	210.88
952.28	210.87
952.58	210.90
952.87	210.80
953.17	210.82
953.47	210.76
953.76	210.78
954.06	210.71
954.36	210.69
954.66	210.65
954.95	210.77
955.25	210.76
955.55	210.81
955.84	210.69
956.14	210.76
956.44	210.84
956.73	210.82
957.03	210.84
957.32	210.93
957.62	210.91
957.92	210.92
958.21	210.86
958.51	211.30
958.81	211.34
959.10	211.45
959.40	211.57
959.69	211.65
959.99	211.66
960.29	211.76
960.58	211.78
960.88	211.93
961.17	211.93
961.47	211.95
961.76	211.85
962.06	211.99
962.36	211.89
962.65	211.93
962.95	211.92
963.24	211.97
963.54	211.98
963.83	212.03
964.13	212.08
964.42	212.04
964.72	211.69
965.01	211.67
965.31	211.66
965.60	211.63
965.90	211.85
966.19	211.83
966.49	211.82
966.78	211.84
967.08	211.82
967.37	211.85
967.67	211.79
967.96	211.95
968.26	211.90
968.55	211.96
968.85	211.90
969.14	211.90
969.43	211.83
969.73	211.81
970.02	211.74
970.32	211.70
970.61	211.76
970.91	211.74
971.20	211.72
971.49	211.66
971.79	211.64
972.08	211.38
972.38	211.39
972.67	211.38
972.96	211.39
973.26	211.34
973.55	211.35
973.85	211.38
974.14	211.31
974.43	211.38
974.73	211.32
975.02	211.34
975.31	211.32
975.61	211.32
975.90	211.22
976.19	211.21
976.49	211.25
976.78	211.25
977.07	211.19
977.37	211.16
977.66	211.16
977.95	211.13
978.24	211.09
978.54	211.11
978.83	211.06
979.12	211.02
979.42	211.02
979.71	210.98
980.00	210.97
980.29	210.89
980.59	210.82
980.88	210.90
981.17	210.84
981.46	210.93
981.76	210.89
982.05	211.06
982.34	211.12
982.63	211.07
982.93	211.04
983.22	211.09
983.51	211.07
983.80	211.12
984.09	211.15
984.39	211.15
984.68	211.14
984.97	211.15
985.26	211.11
985.55	211.16
985.85	211.12
986.14	211.18
986.43	211.25
986.72	211.22
987.01	211.13
987.30	211.16
987.59	211.13
987.89	211.14
988.18	210.98
988.47	210.93
988.76	210.94
989.05	210.94
989.34	210.96
989.63	211.09
989.92	211.08
990.22	211.05
990.51	211.07
990.80	211.07
991.09	211.10
991.38	211.14
991.67	211.06
991.96	211.05
992.25	210.95
992.54	210.96
992.83	210.91
993.12	210.89
993.41	210.92
993.70	211.02
993.99	211.11
994.28	211.18
994.58	211.26
994.87	211.22
995.16	211.15
995.45	211.09
995.74	210.96
996.03	210.94
996.32	211.02
996.61	211.09
996.90	211.09
997.19	211.10
997.48	211.12
997.77	211.09
998.06	211.07
998.34	211.19
998.63	211.11
998.92	211.16
999.21	211.25
999.50	211.32
999.79	211.22
1000.08	211.18
1000.37	211.16
1000.66	211.08
1000.95	211.15
1001.24	211.20
1001.53	211.23
1001.82	211.26
1002.11	211.23
1002.40	211.22
1002.68	211.32
1002.97	211.50
1003.26	211.49
1003.55	211.43
1003.84	211.44
1004.13	211.55
1004.42	211.50
1004.71	211.55
1004.99	211.56
1005.28	211.61
1005.57	211.50
1005.86	211.43
1006.15	211.40
1006.44	211.36
1006.72	211.36
1007.01	211.27
1007.30	211.35
1007.59	211.38
1007.88	211.35
1008.17	211.41
1008.45	211.30
1008.74	211.10
1009.03	210.99
1009.32	211.00
1009.60	210.98
1009.89	211.05
1010.18	210.92
1010.47	210.90
1010.76	210.85
1011.04	210.82
1011.33	211.03
1011.62	211.02
1011.91	211.05
1012.19	211.15
1012.48	211.12
1012.77	211.19
1013.05	211.36
1013.34	211.29
1013.63	211.32
1013.92	211.35
1014.20	211.33
1014.49	211.31
1014.78	211.37
1015.06	211.20
1015.35	211.17
1015.64	211.24
1015.92	211.20
1016.21	211.25
1016.50	211.25
1016.78	211.28
1017.07	211.30
1017.36	210.99
1017.64	210.95
1017.93	210.99
1018.22	210.92
1018.50	210.87
1018.79	210.81
1019.08	210.65
1019.36	210.69
1019.65	210.59
1019.93	210.65
1020.22	210.65
1020.51	210.91
1020.79	210.83
1021.08	210.75
1021.36	208.90
1021.65	210.55
1021.94	209.75
1022.22	211.45
1022.51	210.25
1022.79	212.85
1023.08	211.05
1023.36	215.20
1023.65	209.55
>>>>>End Processed Spectral Data<<<<<
