SpectraSuite Data File
++++++++++++++++++++++++++++++++++++
Date: Mon Feb 25 17:18:44 EST 2013
User: group
Dark Spectrum Present: No
Reference Spectrum Present: No
Number of Sampled Component Spectra: 1
Spectrometers: USB2E7196
Integration Time (usec): 104000 (USB2E7196)
Spectra Averaged: 20 (USB2E7196)
Boxcar Smoothing: 10 (USB2E7196)
Correct for Electrical Dark: No (USB2E7196)
Strobe/Lamp Enabled: No (USB2E7196)
Correct for Detector Non-linearity: No (USB2E7196)
Correct for Stray Light: No (USB2E7196)
Number of Pixels in Processed Spectrum: 2048
>>>>>Begin Processed Spectral Data<<<<<
339.09	0.00
339.48	196.80
339.86	200.30
340.24	200.50
340.63	204.15
341.01	209.85
341.39	205.10
341.78	206.60
342.16	209.00
342.54	206.80
342.93	197.65
343.31	207.62
343.69	208.18
344.07	208.59
344.46	209.13
344.84	209.45
345.22	209.48
345.60	209.77
345.99	210.02
346.37	210.11
346.75	210.31
347.13	210.40
347.52	210.51
347.90	210.79
348.28	210.90
348.66	210.98
349.05	211.02
349.43	211.14
349.81	211.19
350.19	211.28
350.57	211.28
350.96	211.44
351.34	211.53
351.72	211.68
352.10	211.87
352.48	211.84
352.87	211.90
353.25	212.04
353.63	212.07
354.01	212.08
354.39	212.19
354.77	212.24
355.15	212.49
355.54	212.49
355.92	212.49
356.30	212.55
356.68	212.90
357.06	212.94
357.44	212.97
357.82	213.08
358.20	213.23
358.58	213.38
358.97	213.40
359.35	213.63
359.73	213.80
360.11	213.80
360.49	213.95
360.87	214.08
361.25	214.16
361.63	214.44
362.01	214.61
362.39	214.63
362.77	214.70
363.15	214.74
363.53	214.82
363.91	214.91
364.29	214.98
364.67	214.71
365.05	214.71
365.43	214.78
365.81	214.81
366.19	214.99
366.57	215.21
366.95	215.24
367.33	215.18
367.71	215.20
368.09	215.33
368.47	215.36
368.85	215.31
369.23	215.43
369.61	215.25
369.99	215.29
370.37	215.41
370.75	215.64
371.13	215.49
371.51	215.44
371.89	215.38
372.27	215.38
372.65	215.38
373.03	215.37
373.41	215.32
373.78	215.30
374.16	215.08
374.54	214.93
374.92	214.82
375.30	214.79
375.68	214.59
376.06	214.57
376.44	214.49
376.82	214.50
377.19	214.34
377.57	214.26
377.95	214.05
378.33	213.93
378.71	213.70
379.09	213.76
379.47	213.76
379.84	213.72
380.22	213.64
380.60	213.55
380.98	213.49
381.36	213.43
381.73	213.29
382.11	213.26
382.49	213.22
382.87	213.21
383.25	213.21
383.62	213.59
384.00	213.44
384.38	213.45
384.76	213.41
385.13	213.55
385.51	213.55
385.89	213.47
386.27	213.45
386.64	213.41
387.02	213.37
387.40	213.31
387.78	213.28
388.15	213.22
388.53	213.10
388.91	213.09
389.29	213.10
389.66	213.14
390.04	213.09
390.42	213.10
390.79	213.09
391.17	212.99
391.55	212.63
391.92	212.65
392.30	212.59
392.68	212.53
393.05	212.43
393.43	212.37
393.81	212.42
394.18	212.32
394.56	212.31
394.94	212.34
395.31	212.27
395.69	212.39
396.06	212.54
396.44	212.64
396.82	212.57
397.19	212.67
397.57	212.69
397.95	212.77
398.32	212.74
398.70	212.76
399.07	212.87
399.45	212.87
399.82	212.90
400.20	212.95
400.58	212.99
400.95	212.93
401.33	213.12
401.70	213.45
402.08	213.57
402.45	213.66
402.83	213.77
403.20	213.87
403.58	213.91
403.95	213.96
404.33	214.08
404.71	214.23
405.08	214.52
405.46	214.65
405.83	214.85
406.21	215.01
406.58	215.30
406.96	215.54
407.33	215.83
407.70	216.08
408.08	216.57
408.45	216.86
408.83	217.19
409.20	217.43
409.58	217.53
409.95	217.93
410.33	218.29
410.70	218.60
411.08	219.13
411.45	219.55
411.82	220.05
412.20	220.73
412.57	221.51
412.95	221.84
413.32	222.55
413.69	223.14
414.07	223.85
414.44	224.51
414.82	225.24
415.19	226.16
415.56	227.05
415.94	227.89
416.31	229.08
416.68	230.24
417.06	231.50
417.43	232.87
417.81	234.22
418.18	235.66
418.55	237.25
418.93	238.78
419.30	240.43
419.67	242.17
420.04	243.87
420.42	245.61
420.79	247.96
421.16	250.11
421.54	252.52
421.91	254.95
422.28	257.36
422.66	259.92
423.03	262.54
423.40	265.19
423.77	267.97
424.15	270.70
424.52	273.58
424.89	276.80
425.26	279.79
425.64	282.75
426.01	285.94
426.38	289.29
426.75	292.79
427.13	296.34
427.50	300.13
427.87	304.02
428.24	307.91
428.61	311.45
428.99	315.61
429.36	319.86
429.73	324.13
430.10	328.54
430.47	332.99
430.85	337.61
431.22	342.54
431.59	347.76
431.96	352.65
432.33	358.21
432.70	363.48
433.08	369.58
433.45	375.33
433.82	381.05
434.19	387.46
434.56	393.78
434.93	399.73
435.30	405.60
435.68	412.18
436.05	418.76
436.42	425.10
436.79	430.89
437.16	437.35
437.53	443.87
437.90	450.45
438.27	456.93
438.64	463.64
439.01	469.96
439.38	475.45
439.75	480.96
440.13	486.94
440.50	492.73
440.87	497.40
441.24	502.35
441.61	507.88
441.98	511.77
442.35	516.36
442.72	521.16
443.09	525.80
443.46	528.54
443.83	530.31
444.20	532.10
444.57	534.47
444.94	535.55
445.31	536.89
445.68	538.20
446.05	538.69
446.42	537.90
446.79	536.95
447.16	536.11
447.53	535.18
447.90	532.63
448.27	529.86
448.64	526.29
449.01	523.65
449.37	519.05
449.74	514.75
450.11	509.65
450.48	503.91
450.85	497.89
451.22	492.90
451.59	488.20
451.96	483.53
452.33	477.60
452.70	472.13
453.07	465.48
453.43	458.69
453.80	452.35
454.17	446.23
454.54	440.46
454.91	434.20
455.28	428.39
455.65	422.83
456.02	417.86
456.38	413.30
456.75	407.50
457.12	402.65
457.49	397.86
457.86	393.06
458.23	389.23
458.59	384.94
458.96	380.50
459.33	376.54
459.70	372.72
460.07	369.62
460.43	365.91
460.80	362.70
461.17	359.81
461.54	356.76
461.91	353.90
462.27	351.00
462.64	348.46
463.01	345.85
463.38	343.34
463.74	340.29
464.11	337.81
464.48	335.81
464.85	333.59
465.21	331.91
465.58	330.18
465.95	327.93
466.32	326.26
466.68	324.52
467.05	322.80
467.42	321.05
467.78	319.15
468.15	317.58
468.52	316.33
468.88	314.68
469.25	313.22
469.62	312.10
469.98	310.85
470.35	309.83
470.72	308.70
471.08	307.47
471.45	306.52
471.82	305.70
472.18	304.58
472.55	303.99
472.92	303.11
473.28	302.40
473.65	301.79
474.02	301.10
474.38	300.72
474.75	300.44
475.11	299.97
475.48	299.69
475.85	299.53
476.21	299.37
476.58	299.21
476.94	299.29
477.31	299.22
477.67	299.31
478.04	299.31
478.41	299.58
478.77	300.16
479.14	300.34
479.50	300.78
479.87	301.41
480.23	301.83
480.60	302.37
480.96	302.85
481.33	303.59
481.69	304.35
482.06	305.05
482.42	305.86
482.79	306.89
483.15	307.99
483.52	309.19
483.88	310.25
484.25	311.60
484.61	312.93
484.98	314.46
485.34	316.17
485.71	318.04
486.07	319.85
486.44	321.55
486.80	323.75
487.17	325.89
487.53	328.26
487.90	330.82
488.26	333.56
488.62	336.60
488.99	339.54
489.35	342.52
489.72	345.93
490.08	349.47
490.44	353.11
490.81	356.94
491.17	360.64
491.54	364.90
491.90	369.26
492.26	373.84
492.63	378.72
492.99	383.77
493.36	389.10
493.72	394.73
494.08	400.37
494.45	406.45
494.81	412.96
495.17	419.49
495.54	426.48
495.90	433.52
496.26	440.80
496.63	448.58
496.99	456.78
497.35	465.28
497.72	473.94
498.08	483.04
498.44	492.45
498.80	502.65
499.17	513.15
499.53	523.93
499.89	535.22
500.26	546.60
500.62	558.13
500.98	570.50
501.34	583.15
501.71	596.44
502.07	610.08
502.43	623.93
502.79	638.13
503.16	652.95
503.52	668.22
503.88	683.87
504.24	699.97
504.60	716.54
504.97	733.43
505.33	750.87
505.69	769.24
506.05	787.89
506.41	806.56
506.78	825.62
507.14	845.11
507.50	865.01
507.86	885.62
508.22	906.85
508.59	928.11
508.95	950.04
509.31	972.27
509.67	994.95
510.03	1018.28
510.39	1042.41
510.75	1066.77
511.12	1091.54
511.48	1116.49
511.84	1141.60
512.20	1166.97
512.56	1193.21
512.92	1219.57
513.28	1246.12
513.64	1272.73
514.00	1299.96
514.37	1327.00
514.73	1355.03
515.09	1382.99
515.45	1411.01
515.81	1439.14
516.17	1467.55
516.53	1495.93
516.89	1524.74
517.25	1553.07
517.61	1581.72
517.97	1610.18
518.33	1638.57
518.69	1666.95
519.05	1695.94
519.41	1725.29
519.77	1754.71
520.13	1783.41
520.49	1812.11
520.85	1840.89
521.21	1870.42
521.57	1899.81
521.93	1928.94
522.29	1958.01
522.65	1987.58
523.01	2016.52
523.37	2044.57
523.73	2073.18
524.09	2101.71
524.45	2130.07
524.81	2159.04
525.17	2187.83
525.53	2216.26
525.89	2244.43
526.25	2272.60
526.61	2299.69
526.97	2326.60
527.33	2353.69
527.68	2380.76
528.04	2407.40
528.40	2432.78
528.76	2458.48
529.12	2484.44
529.48	2511.30
529.84	2536.89
530.20	2561.85
530.56	2587.37
530.91	2613.89
531.27	2639.21
531.63	2663.92
531.99	2688.35
532.35	2711.83
532.71	2734.88
533.07	2758.88
533.42	2781.80
533.78	2804.65
534.14	2827.05
534.50	2847.91
534.86	2869.67
535.21	2889.79
535.57	2911.27
535.93	2932.10
536.29	2951.92
536.65	2971.43
537.00	2989.35
537.36	3006.99
537.72	3024.56
538.08	3041.80
538.44	3059.03
538.79	3076.49
539.15	3093.46
539.51	3110.17
539.87	3127.63
540.22	3143.56
540.58	3159.95
540.94	3175.63
541.29	3189.55
541.65	3203.28
542.01	3217.84
542.37	3230.57
542.72	3244.64
543.08	3256.52
543.44	3270.07
543.79	3281.18
544.15	3291.78
544.51	3303.57
544.87	3315.62
545.22	3325.81
545.58	3334.64
545.94	3342.54
546.29	3349.36
546.65	3356.26
547.01	3363.14
547.36	3369.21
547.72	3375.55
548.07	3379.54
548.43	3384.13
548.79	3388.62
549.14	3393.49
549.50	3398.09
549.86	3401.43
550.21	3404.25
550.57	3407.79
550.92	3408.96
551.28	3411.31
551.64	3413.78
551.99	3415.45
552.35	3416.06
552.70	3417.28
553.06	3419.25
553.41	3420.60
553.77	3421.40
554.13	3422.14
554.48	3422.55
554.84	3422.80
555.19	3421.79
555.55	3420.56
555.90	3418.91
556.26	3417.68
556.61	3415.53
556.97	3412.49
557.32	3411.05
557.68	3408.17
558.03	3405.08
558.39	3402.61
558.74	3400.97
559.10	3398.69
559.45	3395.30
559.81	3392.82
560.16	3388.69
560.52	3385.12
560.87	3380.80
561.23	3376.20
561.58	3372.36
561.94	3366.72
562.29	3360.51
562.64	3356.25
563.00	3352.33
563.35	3348.47
563.71	3345.04
564.06	3341.11
564.42	3337.69
564.77	3333.37
565.12	3329.37
565.48	3324.86
565.83	3320.59
566.19	3315.97
566.54	3308.90
566.89	3303.09
567.25	3297.23
567.60	3291.88
567.96	3285.66
568.31	3280.26
568.66	3274.30
569.02	3267.14
569.37	3260.11
569.72	3253.50
570.08	3246.20
570.43	3238.36
570.78	3230.25
571.14	3221.04
571.49	3212.30
571.84	3204.02
572.20	3194.65
572.55	3186.09
572.90	3176.52
573.26	3166.28
573.61	3155.79
573.96	3146.25
574.31	3135.78
574.67	3124.53
575.02	3113.14
575.37	3102.25
575.72	3090.49
576.08	3080.51
576.43	3069.06
576.78	3059.13
577.13	3049.56
577.49	3039.26
577.84	3028.57
578.19	3018.61
578.54	3009.44
578.90	3000.00
579.25	2988.85
579.60	2977.90
579.95	2966.31
580.30	2955.90
580.66	2946.27
581.01	2935.19
581.36	2924.51
581.71	2913.60
582.06	2902.98
582.42	2892.91
582.77	2881.47
583.12	2870.30
583.47	2859.66
583.82	2850.04
584.17	2838.76
584.53	2827.63
584.88	2816.47
585.23	2805.36
585.58	2794.35
585.93	2782.56
586.28	2771.71
586.63	2760.82
586.98	2750.11
587.34	2740.35
587.69	2729.84
588.04	2718.55
588.39	2708.53
588.74	2697.56
589.09	2687.47
589.44	2676.52
589.79	2666.54
590.14	2656.97
590.49	2646.91
590.84	2636.04
591.19	2626.21
591.54	2616.11
591.89	2604.35
592.25	2593.27
592.60	2582.30
592.95	2570.66
593.30	2558.89
593.65	2546.73
594.00	2535.84
594.35	2526.69
594.70	2515.54
595.05	2505.07
595.40	2494.50
595.75	2482.69
596.10	2472.85
596.45	2462.65
596.80	2453.34
597.15	2443.41
597.50	2432.68
597.85	2422.83
598.19	2412.47
598.54	2401.92
598.89	2392.33
599.24	2384.17
599.59	2375.01
599.94	2366.90
600.29	2357.85
600.64	2349.15
600.99	2339.62
601.34	2330.20
601.69	2319.23
602.04	2308.92
602.39	2299.03
602.74	2289.68
603.08	2281.76
603.43	2273.32
603.78	2263.87
604.13	2254.51
604.48	2245.20
604.83	2237.51
605.18	2229.76
605.53	2220.64
605.87	2211.04
606.22	2202.46
606.57	2192.57
606.92	2183.26
607.27	2173.17
607.62	2163.83
607.96	2154.93
608.31	2146.98
608.66	2137.40
609.01	2128.01
609.36	2118.69
609.70	2108.33
610.05	2098.19
610.40	2088.01
610.75	2077.22
611.10	2068.23
611.44	2056.74
611.79	2045.55
612.14	2033.71
612.49	2021.45
612.83	2011.03
613.18	2000.23
613.53	1988.67
613.88	1976.98
614.22	1966.49
614.57	1955.34
614.92	1944.47
615.27	1933.16
615.61	1921.58
615.96	1911.29
616.31	1901.01
616.65	1891.40
617.00	1881.96
617.35	1871.74
617.70	1860.66
618.04	1849.62
618.39	1837.41
618.74	1827.45
619.08	1816.90
619.43	1806.63
619.78	1796.77
620.12	1786.52
620.47	1776.45
620.82	1765.41
621.16	1754.95
621.51	1744.17
621.85	1734.16
622.20	1723.39
622.55	1713.01
622.89	1702.77
623.24	1692.19
623.59	1681.33
623.93	1670.67
624.28	1660.36
624.62	1650.29
624.97	1640.43
625.32	1630.90
625.66	1621.78
626.01	1612.25
626.35	1603.05
626.70	1593.58
627.04	1584.60
627.39	1575.21
627.73	1565.66
628.08	1557.13
628.43	1547.81
628.77	1538.32
629.12	1528.49
629.46	1520.12
629.81	1511.03
630.15	1501.80
630.50	1492.96
630.84	1483.90
631.19	1474.82
631.53	1465.69
631.88	1455.92
632.22	1446.66
632.57	1437.96
632.91	1428.62
633.26	1419.51
633.60	1410.55
633.95	1401.69
634.29	1392.16
634.64	1383.60
634.98	1374.41
635.32	1365.57
635.67	1357.56
636.01	1349.15
636.36	1340.62
636.70	1332.22
637.05	1323.77
637.39	1315.62
637.73	1307.71
638.08	1300.47
638.42	1292.87
638.77	1284.83
639.11	1277.20
639.45	1269.07
639.80	1260.66
640.14	1252.29
640.49	1244.06
640.83	1235.77
641.17	1227.70
641.52	1219.36
641.86	1210.62
642.20	1203.00
642.55	1194.25
642.89	1185.65
643.23	1177.21
643.58	1169.49
643.92	1160.62
644.26	1152.52
644.61	1144.32
644.95	1135.80
645.29	1127.14
645.64	1118.48
645.98	1110.37
646.32	1102.51
646.66	1094.50
647.01	1086.68
647.35	1079.32
647.69	1071.23
648.04	1063.55
648.38	1055.75
648.72	1048.09
649.06	1040.29
649.41	1032.40
649.75	1025.05
650.09	1017.70
650.43	1010.11
650.78	1002.17
651.12	994.64
651.46	987.10
651.80	979.81
652.14	972.40
652.49	964.92
652.83	957.45
653.17	949.54
653.51	941.74
653.85	934.69
654.20	927.36
654.54	919.79
654.88	912.74
655.22	905.30
655.56	897.97
655.90	890.71
656.25	883.48
656.59	876.35
656.93	869.50
657.27	862.60
657.61	855.54
657.95	848.81
658.29	842.12
658.64	835.80
658.98	828.89
659.32	822.09
659.66	815.50
660.00	808.80
660.34	802.25
660.68	795.78
661.02	789.08
661.36	782.81
661.70	776.67
662.05	770.78
662.39	765.28
662.73	759.52
663.07	754.00
663.41	748.47
663.75	742.71
664.09	736.81
664.43	730.87
664.77	725.54
665.11	719.92
665.45	714.35
665.79	708.73
666.13	703.39
666.47	698.01
666.81	692.83
667.15	687.80
667.49	683.06
667.83	678.24
668.17	673.45
668.51	668.60
668.85	663.81
669.19	659.00
669.53	653.88
669.87	648.78
670.21	644.08
670.55	639.27
670.89	634.87
671.23	630.65
671.57	626.28
671.91	621.65
672.25	617.14
672.58	612.89
672.92	608.45
673.26	604.22
673.60	600.12
673.94	595.85
674.28	591.95
674.62	587.99
674.96	583.93
675.30	579.96
675.64	575.88
675.97	572.00
676.31	568.14
676.65	564.48
676.99	561.10
677.33	557.24
677.67	553.60
678.01	549.79
678.34	546.08
678.68	542.44
679.02	538.85
679.36	535.49
679.70	532.03
680.04	528.53
680.37	524.97
680.71	521.49
681.05	518.16
681.39	514.60
681.73	511.19
682.06	507.98
682.40	504.79
682.74	501.48
683.08	498.25
683.42	494.95
683.75	491.74
684.09	488.45
684.43	485.18
684.77	481.84
685.10	478.71
685.44	475.45
685.78	472.43
686.12	469.59
686.45	466.69
686.79	463.61
687.13	460.84
687.46	458.16
687.80	455.50
688.14	452.52
688.48	449.73
688.81	446.80
689.15	444.10
689.49	441.26
689.82	438.68
690.16	435.70
690.50	432.85
690.83	430.02
691.17	427.27
691.51	424.68
691.84	422.17
692.18	419.71
692.52	417.33
692.85	414.99
693.19	412.56
693.52	410.04
693.86	407.64
694.20	405.21
694.53	402.80
694.87	400.24
695.21	397.96
695.54	395.63
695.88	393.30
696.21	390.85
696.55	388.67
696.88	386.51
697.22	384.35
697.56	382.38
697.89	380.33
698.23	378.30
698.56	376.25
698.90	374.49
699.23	372.38
699.57	370.34
699.90	368.20
700.24	366.25
700.58	364.35
700.91	362.60
701.25	360.83
701.58	359.02
701.92	357.29
702.25	355.50
702.59	353.60
702.92	351.89
703.26	350.15
703.59	348.36
703.93	347.02
704.26	345.38
704.60	343.68
704.93	342.03
705.26	340.32
705.60	338.88
705.93	337.04
706.27	335.58
706.60	334.19
706.94	332.88
707.27	331.23
707.61	329.68
707.94	328.06
708.27	326.44
708.61	324.94
708.94	323.43
709.28	322.08
709.61	320.84
709.94	319.57
710.28	318.28
710.61	317.04
710.95	315.21
711.28	314.23
711.61	312.95
711.95	311.78
712.28	310.58
712.61	309.30
712.95	308.29
713.28	307.22
713.61	306.06
713.95	304.89
714.28	303.95
714.61	302.89
714.95	301.79
715.28	300.69
715.61	299.48
715.95	298.54
716.28	297.45
716.61	296.43
716.95	295.27
717.28	294.27
717.61	293.33
717.94	292.46
718.28	291.31
718.61	290.38
718.94	289.30
719.27	288.40
719.61	287.51
719.94	286.58
720.27	285.46
720.60	284.52
720.94	283.59
721.27	282.64
721.60	281.87
721.93	281.04
722.27	280.37
722.60	279.75
722.93	278.86
723.26	278.15
723.59	277.31
723.93	276.66
724.26	275.88
724.59	275.10
724.92	274.37
725.25	273.76
725.59	273.09
725.92	272.57
726.25	271.85
726.58	271.15
726.91	270.51
727.24	270.02
727.57	269.32
727.91	268.63
728.24	267.99
728.57	267.36
728.90	266.87
729.23	266.09
729.56	265.64
729.89	265.10
730.22	264.40
730.55	263.78
730.89	263.17
731.22	262.62
731.55	261.98
731.88	261.41
732.21	260.63
732.54	259.97
732.87	259.37
733.20	258.84
733.53	258.36
733.86	257.83
734.19	257.24
734.52	256.72
734.85	256.49
735.18	255.95
735.51	255.55
735.84	255.07
736.17	254.71
736.50	253.98
736.83	253.88
737.16	253.51
737.49	253.14
737.82	252.62
738.15	252.24
738.48	251.89
738.81	251.47
739.14	251.08
739.47	250.69
739.80	250.23
740.13	249.83
740.46	249.27
740.79	248.72
741.12	248.20
741.45	247.77
741.78	247.16
742.11	246.91
742.44	246.37
742.77	245.98
743.10	245.62
743.43	245.25
743.75	244.51
744.08	244.51
744.41	244.06
744.74	243.74
745.07	243.29
745.40	242.94
745.73	242.63
746.06	242.28
746.39	242.04
746.71	241.68
747.04	241.27
747.37	240.98
747.70	240.75
748.03	240.52
748.36	240.24
748.68	239.91
749.01	239.46
749.34	239.14
749.67	238.83
750.00	238.45
750.33	238.35
750.65	238.02
750.98	237.29
751.31	237.05
751.64	236.70
751.97	236.59
752.29	236.23
752.62	235.84
752.95	235.53
753.28	235.11
753.60	234.83
753.93	234.67
754.26	234.38
754.59	234.00
754.91	233.68
755.24	233.42
755.57	233.15
755.90	232.84
756.22	232.56
756.55	232.27
756.88	232.00
757.20	231.55
757.53	231.22
757.86	230.92
758.19	230.65
758.51	230.45
758.84	230.04
759.17	229.82
759.49	229.68
759.82	229.66
760.15	229.55
760.47	229.34
760.80	229.02
761.13	228.86
761.45	228.68
761.78	228.43
762.11	228.23
762.43	227.99
762.76	227.85
763.08	227.64
763.41	227.47
763.74	227.23
764.06	226.99
764.39	226.78
764.71	226.70
765.04	226.46
765.37	226.24
765.69	226.10
766.02	225.91
766.34	225.61
766.67	225.28
767.00	225.13
767.32	225.15
767.65	225.20
767.97	224.95
768.30	224.77
768.62	224.68
768.95	224.48
769.27	224.32
769.60	224.19
769.92	223.97
770.25	223.71
770.57	223.61
770.90	223.56
771.22	223.45
771.55	223.32
771.87	223.26
772.20	223.13
772.52	223.24
772.85	223.51
773.17	223.45
773.50	223.33
773.82	223.12
774.15	222.85
774.47	222.50
774.80	222.41
775.12	222.26
775.45	222.12
775.77	222.03
776.09	221.95
776.42	221.91
776.74	222.05
777.07	221.89
777.39	221.77
777.72	221.61
778.04	221.60
778.36	221.39
778.69	221.28
779.01	221.25
779.33	220.89
779.66	220.43
779.98	220.34
780.31	220.26
780.63	220.35
780.95	220.29
781.28	220.26
781.60	220.09
781.92	220.05
782.25	219.99
782.57	219.92
782.89	219.81
783.22	219.69
783.54	219.42
783.86	219.46
784.19	219.36
784.51	219.34
784.83	219.16
785.16	219.08
785.48	219.01
785.80	218.89
786.12	218.78
786.45	218.76
786.77	218.68
787.09	218.57
787.42	218.40
787.74	218.34
788.06	218.26
788.38	218.22
788.71	218.15
789.03	218.09
789.35	218.00
789.67	217.91
789.99	217.83
790.32	217.80
790.64	217.72
790.96	217.94
791.28	217.78
791.61	217.71
791.93	217.73
792.25	217.65
792.57	217.88
792.89	217.84
793.21	217.86
793.54	217.71
793.86	217.67
794.18	217.50
794.50	217.37
794.82	217.24
795.14	217.27
795.47	217.25
795.79	217.20
796.11	217.11
796.43	217.06
796.75	216.97
797.07	216.94
797.39	216.88
797.71	216.60
798.04	216.61
798.36	216.54
798.68	216.49
799.00	216.52
799.32	216.35
799.64	216.36
799.96	216.20
800.28	216.35
800.60	216.27
800.92	216.34
801.24	216.29
801.56	216.31
801.89	216.19
802.21	216.22
802.53	216.15
802.85	216.27
803.17	216.37
803.49	216.28
803.81	216.23
804.13	216.20
804.45	216.19
804.77	216.20
805.09	216.18
805.41	216.05
805.73	215.82
806.05	215.66
806.37	215.64
806.69	215.57
807.01	215.48
807.33	215.51
807.65	215.32
807.97	215.47
808.28	215.43
808.60	215.36
808.92	215.19
809.24	215.36
809.56	215.18
809.88	215.02
810.20	215.09
810.52	215.08
810.84	215.00
811.16	214.89
811.48	214.82
811.80	214.95
812.12	214.93
812.43	215.08
812.75	214.98
813.07	214.85
813.39	214.89
813.71	214.76
814.03	214.71
814.35	214.81
814.67	214.60
814.98	214.55
815.30	214.57
815.62	214.51
815.94	214.25
816.26	214.26
816.58	214.21
816.89	214.13
817.21	214.10
817.53	214.06
817.85	214.02
818.17	214.03
818.48	213.82
818.80	213.89
819.12	213.82
819.44	213.76
819.76	213.71
820.07	213.65
820.39	213.62
820.71	213.62
821.03	213.57
821.34	213.56
821.66	213.58
821.98	213.63
822.30	213.59
822.61	213.84
822.93	213.78
823.25	213.74
823.57	213.71
823.88	213.71
824.20	213.75
824.52	213.80
824.83	213.74
825.15	213.72
825.47	213.68
825.79	213.66
826.10	213.68
826.42	213.66
826.74	213.66
827.05	213.65
827.37	213.60
827.69	213.49
828.00	213.51
828.32	213.55
828.64	213.40
828.95	213.65
829.27	213.49
829.58	213.46
829.90	213.54
830.22	213.51
830.53	213.41
830.85	213.32
831.17	213.19
831.48	213.23
831.80	213.25
832.11	213.22
832.43	213.10
832.75	213.15
833.06	213.34
833.38	213.19
833.69	213.18
834.01	213.26
834.32	213.30
834.64	213.21
834.96	213.11
835.27	213.16
835.59	213.01
835.90	212.89
836.22	212.90
836.53	212.84
836.85	212.85
837.16	213.19
837.48	213.21
837.79	213.36
838.11	213.32
838.42	213.29
838.74	213.35
839.05	213.40
839.37	213.31
839.68	213.10
840.00	213.15
840.31	213.18
840.63	213.04
840.94	212.98
841.26	212.98
841.57	212.98
841.88	213.01
842.20	212.96
842.51	212.92
842.83	212.93
843.14	213.27
843.46	213.25
843.77	213.07
844.08	213.04
844.40	212.94
844.71	212.84
845.03	212.81
845.34	212.72
845.65	212.66
845.97	212.65
846.28	212.69
846.60	212.65
846.91	212.58
847.22	212.58
847.54	212.71
847.85	212.70
848.16	212.76
848.48	212.70
848.79	212.81
849.10	212.89
849.42	212.83
849.73	212.35
850.04	212.30
850.36	212.21
850.67	212.26
850.98	212.33
851.30	212.40
851.61	212.42
851.92	212.41
852.23	212.55
852.55	212.60
852.86	212.59
853.17	212.72
853.49	212.80
853.80	212.96
854.11	212.96
854.42	212.97
854.74	212.90
855.05	212.87
855.36	212.72
855.67	212.69
855.99	212.78
856.30	213.21
856.61	213.26
856.92	213.23
857.23	213.13
857.55	213.01
857.86	212.97
858.17	212.98
858.48	212.90
858.79	212.84
859.11	212.85
859.42	212.78
859.73	212.65
860.04	212.60
860.35	212.44
860.66	212.33
860.98	212.33
861.29	212.39
861.60	212.34
861.91	212.44
862.22	212.41
862.53	212.29
862.84	211.95
863.16	212.07
863.47	211.97
863.78	212.00
864.09	212.01
864.40	212.02
864.71	212.02
865.02	212.12
865.33	212.02
865.64	211.91
865.95	211.96
866.27	212.18
866.58	212.17
866.89	212.16
867.20	212.11
867.51	212.08
867.82	212.02
868.13	212.14
868.44	212.05
868.75	212.12
869.06	212.11
869.37	212.13
869.68	211.94
869.99	212.05
870.30	212.13
870.61	212.22
870.92	212.21
871.23	212.15
871.54	212.20
871.85	212.31
872.16	212.42
872.47	212.35
872.78	212.12
873.09	212.18
873.40	212.16
873.71	212.28
874.02	212.26
874.33	212.22
874.64	212.20
874.95	212.24
875.26	212.14
875.56	212.24
875.87	212.18
876.18	212.18
876.49	212.48
876.80	212.42
877.11	212.30
877.42	212.23
877.73	212.16
878.04	212.03
878.35	212.01
878.66	211.97
878.96	212.02
879.27	212.03
879.58	211.98
879.89	211.97
880.20	212.02
880.51	212.00
880.82	211.97
881.12	211.94
881.43	211.92
881.74	211.86
882.05	211.76
882.36	211.76
882.67	211.78
882.97	211.35
883.28	211.29
883.59	211.32
883.90	211.44
884.21	211.61
884.51	211.58
884.82	211.50
885.13	211.53
885.44	211.51
885.74	211.56
886.05	211.53
886.36	211.50
886.67	211.33
886.98	211.56
887.28	211.65
887.59	211.59
887.90	211.55
888.20	211.53
888.51	211.61
888.82	211.55
889.13	211.60
889.43	211.91
889.74	211.92
890.05	211.86
890.35	211.80
890.66	211.67
890.97	211.70
891.28	211.68
891.58	211.69
891.89	211.64
892.20	211.53
892.50	211.49
892.81	211.56
893.12	211.54
893.42	211.34
893.73	211.31
894.04	211.35
894.34	211.31
894.65	211.34
894.95	211.30
895.26	211.35
895.57	211.51
895.87	211.18
896.18	211.25
896.48	211.32
896.79	211.29
897.10	211.39
897.40	211.36
897.71	211.40
898.01	211.28
898.32	211.39
898.63	211.44
898.93	211.49
899.24	211.44
899.54	211.49
899.85	211.46
900.15	211.47
900.46	211.47
900.76	211.55
901.07	211.60
901.38	211.59
901.68	211.61
901.99	211.38
902.29	211.48
902.60	211.43
902.90	211.42
903.21	211.45
903.51	211.40
903.82	211.50
904.12	211.51
904.43	211.58
904.73	211.47
905.03	211.51
905.34	211.84
905.64	211.79
905.95	211.79
906.25	211.83
906.56	211.83
906.86	211.82
907.17	211.77
907.47	211.78
907.77	211.74
908.08	211.70
908.38	211.76
908.69	211.73
908.99	211.80
909.30	211.78
909.60	211.80
909.90	211.82
910.21	211.79
910.51	211.77
910.81	211.73
911.12	211.81
911.42	211.80
911.73	211.43
912.03	211.49
912.33	211.55
912.64	211.49
912.94	211.43
913.24	211.36
913.55	211.42
913.85	211.43
914.15	211.53
914.46	211.52
914.76	211.47
915.06	211.42
915.37	211.37
915.67	211.32
915.97	211.27
916.27	211.20
916.58	211.15
916.88	211.10
917.18	211.12
917.49	211.29
917.79	211.21
918.09	211.22
918.39	211.31
918.70	211.27
919.00	211.32
919.30	211.48
919.60	211.41
919.91	211.35
920.21	211.32
920.51	211.20
920.81	211.21
921.12	211.28
921.42	211.34
921.72	211.33
922.02	211.37
922.32	211.39
922.63	211.40
922.93	211.53
923.23	211.56
923.53	211.49
923.83	211.27
924.13	211.34
924.44	211.36
924.74	211.36
925.04	211.40
925.34	211.38
925.64	211.22
925.94	211.25
926.24	211.46
926.55	211.39
926.85	211.48
927.15	211.51
927.45	211.51
927.75	211.47
928.05	211.48
928.35	211.47
928.65	211.62
928.95	211.66
929.26	211.55
929.56	211.59
929.86	211.70
930.16	211.72
930.46	211.73
930.76	211.75
931.06	211.66
931.36	211.62
931.66	211.73
931.96	211.76
932.26	211.80
932.56	211.68
932.86	211.78
933.16	211.81
933.46	211.76
933.76	211.71
934.06	211.81
934.36	211.97
934.66	211.97
934.96	211.91
935.26	211.95
935.56	212.00
935.86	211.89
936.16	211.90
936.46	211.80
936.76	211.77
937.06	211.74
937.36	211.72
937.66	211.72
937.96	211.67
938.26	211.65
938.56	211.69
938.86	211.69
939.16	211.73
939.46	211.70
939.76	211.70
940.06	211.66
940.35	211.54
940.65	211.36
940.95	211.40
941.25	211.36
941.55	211.30
941.85	211.31
942.15	211.43
942.45	211.45
942.75	211.51
943.04	211.59
943.34	211.60
943.64	211.61
943.94	211.63
944.24	211.62
944.54	211.67
944.84	211.61
945.13	211.50
945.43	211.42
945.73	211.46
946.03	211.46
946.33	211.40
946.62	211.40
946.92	211.35
947.22	211.38
947.52	211.39
947.82	211.39
948.11	211.33
948.41	211.29
948.71	211.25
949.01	211.28
949.31	211.18
949.60	211.27
949.90	211.31
950.20	211.23
950.50	211.18
950.79	211.14
951.09	211.15
951.39	211.23
951.69	211.19
951.98	211.19
952.28	211.19
952.58	211.28
952.87	211.25
953.17	211.33
953.47	211.25
953.76	211.22
954.06	211.20
954.36	211.18
954.66	211.15
954.95	211.20
955.25	211.29
955.55	211.33
955.84	211.23
956.14	211.32
956.44	211.34
956.73	211.36
957.03	211.35
957.32	211.38
957.62	211.35
957.92	211.48
958.21	211.49
958.51	211.94
958.81	211.93
959.10	212.00
959.40	212.13
959.69	212.14
959.99	212.16
960.29	212.14
960.58	212.13
960.88	212.24
961.17	212.22
961.47	212.17
961.76	212.12
962.06	212.14
962.36	211.98
962.65	212.00
962.95	211.99
963.24	211.99
963.54	211.93
963.83	211.95
964.13	211.90
964.42	211.73
964.72	211.38
965.01	211.45
965.31	211.46
965.60	211.27
965.90	211.51
966.19	211.44
966.49	211.51
966.78	211.49
967.08	211.48
967.37	211.51
967.67	211.50
967.96	211.59
968.26	211.59
968.55	211.71
968.85	211.76
969.14	211.72
969.43	211.65
969.73	211.72
970.02	211.68
970.32	211.65
970.61	211.69
970.91	211.60
971.20	211.51
971.49	211.44
971.79	211.57
972.08	211.32
972.38	211.43
972.67	211.39
972.96	211.41
973.26	211.33
973.55	211.34
973.85	211.30
974.14	211.26
974.43	211.34
974.73	211.21
975.02	211.15
975.31	211.16
975.61	211.22
975.90	211.14
976.19	211.11
976.49	211.15
976.78	211.19
977.07	211.17
977.37	211.21
977.66	211.29
977.95	211.22
978.24	211.30
978.54	211.26
978.83	211.26
979.12	211.26
979.42	211.27
979.71	211.20
980.00	211.14
980.29	211.18
980.59	211.05
980.88	211.15
981.17	211.14
981.46	211.15
981.76	211.11
982.05	211.21
982.34	211.21
982.63	211.17
982.93	211.16
983.22	211.30
983.51	211.25
983.80	211.25
984.09	211.25
984.39	211.13
984.68	211.08
984.97	211.08
985.26	211.06
985.55	211.08
985.85	211.00
986.14	211.05
986.43	211.08
986.72	211.12
987.01	210.99
987.30	210.95
987.59	210.99
987.89	210.99
988.18	210.88
988.47	210.88
988.76	210.92
989.05	210.90
989.34	210.71
989.63	210.82
989.92	210.77
990.22	210.65
990.51	210.62
990.80	210.67
991.09	210.72
991.38	210.75
991.67	210.69
991.96	210.73
992.25	210.74
992.54	210.65
992.83	210.63
993.12	210.59
993.41	210.69
993.70	210.79
993.99	210.82
994.28	210.93
994.58	211.02
994.87	210.92
995.16	210.95
995.45	211.05
995.74	210.95
996.03	211.05
996.32	211.24
996.61	211.33
996.90	211.28
997.19	211.26
997.48	211.31
997.77	211.31
998.06	211.29
998.34	211.25
998.63	211.35
998.92	211.34
999.21	211.44
999.50	211.44
999.79	211.25
1000.08	211.32
1000.37	211.31
1000.66	211.23
1000.95	211.30
1001.24	211.27
1001.53	211.32
1001.82	211.32
1002.11	211.18
1002.40	211.19
1002.68	211.28
1002.97	211.52
1003.26	211.42
1003.55	211.35
1003.84	211.39
1004.13	211.53
1004.42	211.48
1004.71	211.40
1004.99	211.35
1005.28	211.38
1005.57	211.31
1005.86	211.33
1006.15	211.20
1006.44	211.16
1006.72	211.20
1007.01	211.20
1007.30	211.18
1007.59	211.07
1007.88	211.01
1008.17	211.08
1008.45	210.96
1008.74	210.75
1009.03	210.55
1009.32	210.61
1009.60	210.57
1009.89	210.54
1010.18	210.35
1010.47	210.36
1010.76	210.32
1011.04	210.38
1011.33	210.46
1011.62	210.59
1011.91	210.67
1012.19	210.77
1012.48	210.78
1012.77	210.76
1013.05	210.89
1013.34	210.93
1013.63	210.90
1013.92	210.98
1014.20	210.94
1014.49	211.00
1014.78	211.13
1015.06	211.11
1015.35	211.14
1015.64	211.24
1015.92	211.27
1016.21	211.36
1016.50	211.33
1016.78	211.46
1017.07	211.47
1017.36	211.34
1017.64	211.19
1017.93	211.20
1018.22	211.13
1018.50	211.05
1018.79	211.08
1019.08	210.87
1019.36	210.91
1019.65	210.96
1019.93	210.95
1020.22	211.05
1020.51	211.17
1020.79	211.12
1021.08	210.05
1021.36	209.75
1021.65	211.20
1021.94	209.65
1022.22	211.50
1022.51	210.90
1022.79	211.05
1023.08	212.35
1023.36	214.65
1023.65	210.70
>>>>>End Processed Spectral Data<<<<<
