SpectraSuite Data File
++++++++++++++++++++++++++++++++++++
Date: Mon Feb 25 17:20:46 EST 2013
User: group
Dark Spectrum Present: No
Reference Spectrum Present: No
Number of Sampled Component Spectra: 1
Spectrometers: USB2E7196
Integration Time (usec): 104000 (USB2E7196)
Spectra Averaged: 20 (USB2E7196)
Boxcar Smoothing: 10 (USB2E7196)
Correct for Electrical Dark: No (USB2E7196)
Strobe/Lamp Enabled: No (USB2E7196)
Correct for Detector Non-linearity: No (USB2E7196)
Correct for Stray Light: No (USB2E7196)
Number of Pixels in Processed Spectrum: 2048
>>>>>Begin Processed Spectral Data<<<<<
339.09	0.00
339.48	198.05
339.86	200.00
340.24	200.80
340.63	202.65
341.01	210.00
341.39	206.50
341.78	206.40
342.16	209.35
342.54	208.60
342.93	198.39
343.31	208.38
343.69	208.93
344.07	209.43
344.46	210.02
344.84	210.54
345.22	210.65
345.60	210.89
345.99	211.16
346.37	211.33
346.75	211.53
347.13	211.70
347.52	211.88
347.90	212.06
348.28	212.14
348.66	212.35
349.05	212.39
349.43	212.57
349.81	212.68
350.19	212.85
350.57	212.91
350.96	213.02
351.34	213.21
351.72	213.42
352.10	213.57
352.48	213.61
352.87	213.66
353.25	213.69
353.63	213.78
354.01	213.91
354.39	214.00
354.77	214.04
355.15	214.19
355.54	214.16
355.92	214.15
356.30	214.21
356.68	214.45
357.06	214.55
357.44	214.56
357.82	214.56
358.20	214.49
358.58	214.57
358.97	214.63
359.35	214.81
359.73	214.91
360.11	214.98
360.49	215.05
360.87	215.11
361.25	215.24
361.63	215.46
362.01	215.48
362.39	215.53
362.77	215.63
363.15	215.66
363.53	215.73
363.91	215.83
364.29	215.91
364.67	215.60
365.05	215.69
365.43	215.74
365.81	215.86
366.19	216.12
366.57	216.23
366.95	216.21
367.33	216.04
367.71	216.05
368.09	216.08
368.47	216.01
368.85	215.95
369.23	215.98
369.61	215.80
369.99	215.95
370.37	215.94
370.75	216.07
371.13	215.95
371.51	215.84
371.89	215.78
372.27	215.69
372.65	215.71
373.03	215.64
373.41	215.58
373.78	215.59
374.16	215.37
374.54	215.28
374.92	215.18
375.30	215.17
375.68	215.07
376.06	215.09
376.44	215.04
376.82	215.03
377.19	215.03
377.57	214.93
377.95	214.68
378.33	214.66
378.71	214.45
379.09	214.44
379.47	214.44
379.84	214.40
380.22	214.41
380.60	214.30
380.98	214.17
381.36	214.12
381.73	213.97
382.11	214.05
382.49	214.03
382.87	213.98
383.25	213.95
383.62	214.32
384.00	214.17
384.38	214.21
384.76	214.28
385.13	214.35
385.51	214.37
385.89	214.35
386.27	214.25
386.64	214.25
387.02	214.18
387.40	214.13
387.78	214.07
388.15	213.97
388.53	214.00
388.91	213.98
389.29	213.91
389.66	214.02
390.04	213.89
390.42	213.90
390.79	213.92
391.17	213.97
391.55	213.52
391.92	213.52
392.30	213.50
392.68	213.42
393.05	213.34
393.43	213.37
393.81	213.41
394.18	213.43
394.56	213.45
394.94	213.44
395.31	213.43
395.69	213.60
396.06	213.67
396.44	213.69
396.82	213.69
397.19	213.89
397.57	213.85
397.95	213.95
398.32	213.83
398.70	213.88
399.07	213.96
399.45	214.01
399.82	214.06
400.20	214.05
400.58	214.08
400.95	214.03
401.33	214.13
401.70	214.43
402.08	214.47
402.45	214.54
402.83	214.73
403.20	214.89
403.58	214.94
403.95	215.07
404.33	215.31
404.71	215.50
405.08	215.82
405.46	215.93
405.83	216.15
406.21	216.43
406.58	216.67
406.96	216.86
407.33	217.15
407.70	217.56
408.08	218.19
408.45	218.58
408.83	219.00
409.20	219.37
409.58	219.59
409.95	220.14
410.33	220.64
410.70	221.07
411.08	221.55
411.45	222.15
411.82	222.69
412.20	223.32
412.57	224.20
412.95	224.65
413.32	225.54
413.69	226.30
414.07	227.19
414.44	228.11
414.82	229.13
415.19	230.25
415.56	231.34
415.94	232.31
416.31	233.79
416.68	235.18
417.06	236.73
417.43	238.30
417.81	239.96
418.18	241.79
418.55	243.69
418.93	245.75
419.30	247.77
419.67	250.06
420.04	252.25
420.42	254.60
420.79	257.51
421.16	260.17
421.54	263.18
421.91	266.14
422.28	269.28
422.66	272.51
423.03	275.81
423.40	279.00
423.77	282.53
424.15	285.88
424.52	289.55
424.89	293.64
425.26	297.45
425.64	301.25
426.01	305.20
426.38	309.44
426.75	313.80
427.13	318.32
427.50	322.92
427.87	327.92
428.24	332.79
428.61	337.27
428.99	342.48
429.36	347.82
429.73	353.18
430.10	358.51
430.47	363.97
430.85	369.71
431.22	375.86
431.59	382.48
431.96	388.68
432.33	395.48
432.70	401.98
433.08	409.64
433.45	416.81
433.82	424.02
434.19	431.98
434.56	439.79
434.93	447.19
435.30	454.61
435.68	462.81
436.05	470.92
436.42	479.15
436.79	486.57
437.16	494.57
437.53	503.04
437.90	511.41
438.27	519.85
438.64	528.44
439.01	536.50
439.38	543.37
439.75	550.20
440.13	557.99
440.50	565.35
440.87	571.28
441.24	577.57
441.61	584.57
441.98	589.60
442.35	595.34
442.72	601.31
443.09	607.11
443.46	610.45
443.83	612.77
444.20	614.54
444.57	617.37
444.94	618.80
445.31	620.18
445.68	621.67
446.05	622.02
446.42	621.01
446.79	619.85
447.16	618.64
447.53	617.77
447.90	614.55
448.27	611.31
448.64	606.95
449.01	603.58
449.37	597.78
449.74	592.36
450.11	586.03
450.48	578.96
450.85	571.80
451.22	565.73
451.59	559.80
451.96	554.30
452.33	546.83
452.70	539.99
453.07	531.81
453.43	523.38
453.80	515.56
454.17	507.97
454.54	500.71
454.91	493.05
455.28	485.62
455.65	478.68
456.02	472.00
456.38	466.10
456.75	458.79
457.12	452.63
457.49	446.63
457.86	440.79
458.23	435.85
458.59	430.29
458.96	424.74
459.33	419.72
459.70	414.68
460.07	410.75
460.43	406.23
460.80	402.14
461.17	398.57
461.54	394.58
461.91	390.90
462.27	387.24
462.64	384.12
463.01	380.64
463.38	377.29
463.74	373.66
464.11	370.75
464.48	368.28
464.85	365.57
465.21	363.52
465.58	361.25
465.95	358.49
466.32	356.33
466.68	354.10
467.05	352.02
467.42	349.92
467.78	347.70
468.15	345.55
468.52	344.01
468.88	341.86
469.25	340.13
469.62	338.75
469.98	337.30
470.35	335.98
470.72	334.65
471.08	333.17
471.45	332.07
471.82	330.92
472.18	329.63
472.55	328.78
472.92	327.68
473.28	326.79
473.65	325.88
474.02	325.05
474.38	324.49
474.75	324.01
475.11	323.55
475.48	323.25
475.85	323.13
476.21	322.94
476.58	322.94
476.94	323.11
477.31	323.19
477.67	323.20
478.04	323.30
478.41	323.65
478.77	324.41
479.14	324.67
479.50	325.15
479.87	325.79
480.23	326.56
480.60	327.17
480.96	327.97
481.33	329.26
481.69	330.25
482.06	331.24
482.42	332.36
482.79	333.49
483.15	334.95
483.52	336.50
483.88	338.05
484.25	339.72
484.61	341.42
484.98	343.20
485.34	345.41
485.71	347.65
486.07	349.95
486.44	352.20
486.80	354.88
487.17	357.67
487.53	360.85
487.90	364.10
488.26	367.60
488.62	371.18
488.99	374.71
489.35	378.75
489.72	382.95
490.08	387.45
490.44	392.10
490.81	396.87
491.17	401.76
491.54	407.17
491.90	412.74
492.26	418.67
492.63	424.73
492.99	431.12
493.36	438.03
493.72	445.28
494.08	452.57
494.45	460.48
494.81	468.82
495.17	477.24
495.54	486.14
495.90	495.35
496.26	504.93
496.63	515.09
496.99	525.45
497.35	536.42
497.72	547.57
498.08	559.32
498.44	571.49
498.80	584.69
499.17	597.93
499.53	611.63
499.89	625.94
500.26	640.60
500.62	655.61
500.98	671.51
501.34	687.83
501.71	704.78
502.07	722.09
502.43	739.89
502.79	758.05
503.16	777.25
503.52	796.91
503.88	817.03
504.24	837.50
504.60	858.68
504.97	880.40
505.33	902.62
505.69	926.22
506.05	949.89
506.41	973.95
506.78	998.63
507.14	1023.72
507.50	1049.22
507.86	1075.71
508.22	1102.69
508.59	1129.80
508.95	1157.57
509.31	1185.85
509.67	1214.94
510.03	1244.57
510.39	1275.11
510.75	1305.46
511.12	1336.47
511.48	1368.05
511.84	1400.02
512.20	1432.01
512.56	1465.01
512.92	1498.58
513.28	1531.87
513.64	1565.53
514.00	1599.11
514.37	1633.31
514.73	1667.86
515.09	1703.12
515.45	1738.10
515.81	1773.45
516.17	1808.43
516.53	1843.79
516.89	1879.54
517.25	1915.19
517.61	1950.79
517.97	1986.07
518.33	2021.40
518.69	2056.85
519.05	2092.72
519.41	2129.02
519.77	2165.87
520.13	2201.60
520.49	2236.87
520.85	2273.12
521.21	2309.40
521.57	2346.27
521.93	2381.31
522.29	2418.32
522.65	2454.65
523.01	2490.63
523.37	2525.14
523.73	2561.00
524.09	2596.23
524.45	2631.76
524.81	2666.68
525.17	2702.17
525.53	2737.31
525.89	2772.77
526.25	2807.63
526.61	2841.05
526.97	2874.24
527.33	2907.01
527.68	2940.56
528.04	2973.02
528.40	3004.07
528.76	3035.74
529.12	3067.39
529.48	3100.42
529.84	3131.30
530.20	3161.88
530.56	3192.82
530.91	3224.95
531.27	3255.79
531.63	3285.68
531.99	3315.35
532.35	3344.23
532.71	3372.12
533.07	3400.70
533.42	3427.60
533.78	3455.32
534.14	3482.12
534.50	3507.55
534.86	3533.90
535.21	3557.92
535.57	3584.05
535.93	3608.62
536.29	3632.15
536.65	3655.58
537.00	3677.44
537.36	3698.62
537.72	3719.52
538.08	3739.83
538.44	3760.20
538.79	3780.36
539.15	3800.81
539.51	3820.10
539.87	3840.45
540.22	3859.64
540.58	3878.86
540.94	3897.67
541.29	3914.09
541.65	3930.54
542.01	3947.35
542.37	3962.40
542.72	3977.85
543.08	3991.00
543.44	4004.32
543.79	4016.71
544.15	4027.12
544.51	4037.66
544.87	4047.45
545.22	4056.35
545.58	4064.52
545.94	4071.00
546.29	4076.43
546.65	4081.16
547.01	4085.05
547.36	4087.51
547.72	4089.99
548.07	4090.60
548.43	4091.39
548.79	4092.62
549.14	4094.02
549.50	4094.73
549.86	4094.86
550.21	4094.92
550.57	4095.00
550.92	4095.00
551.28	4095.00
551.64	4095.00
551.99	4095.00
552.35	4095.00
552.70	4095.00
553.06	4095.00
553.41	4095.00
553.77	4095.00
554.13	4095.00
554.48	4095.00
554.84	4095.00
555.19	4095.00
555.55	4095.00
555.90	4095.00
556.26	4095.00
556.61	4094.99
556.97	4094.98
557.32	4094.98
557.68	4094.93
558.03	4094.90
558.39	4094.75
558.74	4094.75
559.10	4094.75
559.45	4094.74
559.81	4094.73
560.16	4094.40
560.52	4094.19
560.87	4093.21
561.23	4091.75
561.58	4090.94
561.94	4088.71
562.29	4086.22
562.64	4084.05
563.00	4082.06
563.35	4079.69
563.71	4077.56
564.06	4073.86
564.42	4070.38
564.77	4067.19
565.12	4063.46
565.48	4058.73
565.83	4053.98
566.19	4049.78
566.54	4043.50
566.89	4037.43
567.25	4031.74
567.60	4025.15
567.96	4017.85
568.31	4011.45
568.66	4003.72
569.02	3995.12
569.37	3986.48
569.72	3978.63
570.08	3969.93
570.43	3960.35
570.78	3950.59
571.14	3939.54
571.49	3929.24
571.84	3919.74
572.20	3907.97
572.55	3897.37
572.90	3886.00
573.26	3873.70
573.61	3861.10
573.96	3849.30
574.31	3836.37
574.67	3822.79
575.02	3808.97
575.37	3795.61
575.72	3780.95
576.08	3768.56
576.43	3754.61
576.78	3741.96
577.13	3729.54
577.49	3716.63
577.84	3703.79
578.19	3691.56
578.54	3680.30
578.90	3668.84
579.25	3654.99
579.60	3641.04
579.95	3625.94
580.30	3613.26
580.66	3601.16
581.01	3587.40
581.36	3573.68
581.71	3560.35
582.06	3547.49
582.42	3534.48
582.77	3520.48
583.12	3507.17
583.47	3494.25
583.82	3482.30
584.17	3469.51
584.53	3456.38
584.88	3443.08
585.23	3429.32
585.58	3415.57
585.93	3400.88
586.28	3387.27
586.63	3373.54
586.98	3360.96
587.34	3349.01
587.69	3335.66
588.04	3322.40
588.39	3309.83
588.74	3296.33
589.09	3283.78
589.44	3269.76
589.79	3257.43
590.14	3245.44
590.49	3232.64
590.84	3219.13
591.19	3207.20
591.54	3194.23
591.89	3179.35
592.25	3165.60
592.60	3151.96
592.95	3137.48
593.30	3122.90
593.65	3108.17
594.00	3094.22
594.35	3082.22
594.70	3068.57
595.05	3055.50
595.40	3042.11
595.75	3027.55
596.10	3015.37
596.45	3003.07
596.80	2991.44
597.15	2979.19
597.50	2966.10
597.85	2953.44
598.19	2940.60
598.54	2927.47
598.89	2915.21
599.24	2905.25
599.59	2893.60
599.94	2883.08
600.29	2872.07
600.64	2860.76
600.99	2848.07
601.34	2837.17
601.69	2823.91
602.04	2811.45
602.39	2799.09
602.74	2787.31
603.08	2777.23
603.43	2766.88
603.78	2755.16
604.13	2743.69
604.48	2731.90
604.83	2721.99
605.18	2712.39
605.53	2701.00
605.87	2688.89
606.22	2677.96
606.57	2665.62
606.92	2653.98
607.27	2641.55
607.62	2629.47
607.96	2618.81
608.31	2608.98
608.66	2596.59
609.01	2584.71
609.36	2573.02
609.70	2560.52
610.05	2547.91
610.40	2535.16
610.75	2521.64
611.10	2509.66
611.44	2495.62
611.79	2481.76
612.14	2467.22
612.49	2452.56
612.83	2439.63
613.18	2425.89
613.53	2411.86
613.88	2397.10
614.22	2384.10
614.57	2370.63
614.92	2357.44
615.27	2343.32
615.61	2329.41
615.96	2316.74
616.31	2304.51
616.65	2292.51
617.00	2280.68
617.35	2268.20
617.70	2254.95
618.04	2241.38
618.39	2226.96
618.74	2214.68
619.08	2201.96
619.43	2189.64
619.78	2177.55
620.12	2164.83
620.47	2152.68
620.82	2139.34
621.16	2126.77
621.51	2113.44
621.85	2101.21
622.20	2088.11
622.55	2075.35
622.89	2062.40
623.24	2049.53
623.59	2036.38
623.93	2023.22
624.28	2010.48
624.62	1998.31
624.97	1985.97
625.32	1974.32
625.66	1963.00
626.01	1951.31
626.35	1940.03
626.70	1928.08
627.04	1916.36
627.39	1904.98
627.73	1893.40
628.08	1882.90
628.43	1871.22
628.77	1859.78
629.12	1847.82
629.46	1837.38
629.81	1826.38
630.15	1815.56
630.50	1804.46
630.84	1792.72
631.19	1781.60
631.53	1770.43
631.88	1758.45
632.22	1747.10
632.57	1736.25
632.91	1724.68
633.26	1713.37
633.60	1702.30
633.95	1691.89
634.29	1680.81
634.64	1670.00
634.98	1658.54
635.32	1647.56
635.67	1638.01
636.01	1628.04
636.36	1617.64
636.70	1607.14
637.05	1596.78
637.39	1586.67
637.73	1576.86
638.08	1567.89
638.42	1558.36
638.77	1548.35
639.11	1538.65
639.45	1528.96
639.80	1518.25
640.14	1508.29
640.49	1498.35
640.83	1488.21
641.17	1478.12
641.52	1467.97
641.86	1457.45
642.20	1447.71
642.55	1436.96
642.89	1426.09
643.23	1415.37
643.58	1405.54
643.92	1394.82
644.26	1384.89
644.61	1374.78
644.95	1364.36
645.29	1353.92
645.64	1343.36
645.98	1333.54
646.32	1324.03
646.66	1313.90
647.01	1304.39
647.35	1294.74
647.69	1284.49
648.04	1274.91
648.38	1264.89
648.72	1255.12
649.06	1245.57
649.41	1236.01
649.75	1226.61
650.09	1217.62
650.43	1208.37
650.78	1198.38
651.12	1188.92
651.46	1179.22
651.80	1169.91
652.14	1160.78
652.49	1151.40
652.83	1142.11
653.17	1132.08
653.51	1122.12
653.85	1113.01
654.20	1103.88
654.54	1094.38
654.88	1085.48
655.22	1076.14
655.56	1066.86
655.90	1057.77
656.25	1048.71
656.59	1039.94
656.93	1031.55
657.27	1022.99
657.61	1013.91
657.95	1005.66
658.29	997.35
658.64	989.33
658.98	980.86
659.32	972.09
659.66	963.89
660.00	955.71
660.34	947.61
660.68	939.64
661.02	931.41
661.36	923.68
661.70	916.22
662.05	908.66
662.39	901.51
662.73	894.13
663.07	887.15
663.41	880.02
663.75	872.66
664.09	865.01
664.43	857.34
664.77	850.45
665.11	843.23
665.45	836.32
665.79	829.35
666.13	822.39
666.47	815.80
666.81	809.10
667.15	802.38
667.49	796.39
667.83	790.05
668.17	784.02
668.51	778.04
668.85	771.78
669.19	765.80
669.53	759.52
669.87	753.55
670.21	747.46
670.55	741.39
670.89	735.89
671.23	730.80
671.57	725.50
671.91	719.94
672.25	714.42
672.58	708.97
672.92	703.57
673.26	698.43
673.60	693.35
673.94	688.10
674.28	683.17
674.62	678.10
674.96	673.29
675.30	668.38
675.64	663.20
675.97	658.35
676.31	653.52
676.65	648.81
676.99	644.49
677.33	639.63
677.67	635.12
678.01	630.27
678.34	625.50
678.68	620.95
679.02	616.28
679.36	611.94
679.70	607.48
680.04	602.96
680.37	598.40
680.71	593.92
681.05	589.79
681.39	585.31
681.73	581.03
682.06	576.99
682.40	573.01
682.74	568.84
683.08	564.94
683.42	560.89
683.75	556.87
684.09	552.61
684.43	548.81
684.77	544.75
685.10	540.84
685.44	536.78
685.78	532.92
686.12	529.50
686.45	525.85
686.79	522.13
687.13	518.69
687.46	515.29
687.80	511.84
688.14	508.23
688.48	504.87
688.81	501.22
689.15	497.66
689.49	494.04
689.82	490.67
690.16	486.98
690.50	483.52
690.83	480.20
691.17	476.83
691.51	473.42
691.84	470.24
692.18	467.18
692.52	464.28
692.85	461.51
693.19	458.40
693.52	455.37
693.86	452.21
694.20	449.22
694.53	446.29
694.87	443.31
695.21	440.47
695.54	437.53
695.88	434.60
696.21	431.74
696.55	429.09
696.88	426.27
697.22	423.59
697.56	421.13
697.89	418.30
698.23	415.65
698.56	413.17
698.90	410.77
699.23	408.21
699.57	405.65
699.90	402.92
700.24	400.49
700.58	398.05
700.91	395.89
701.25	393.75
701.58	391.50
701.92	389.18
702.25	386.84
702.59	384.72
702.92	382.68
703.26	380.46
703.59	378.32
703.93	376.68
704.26	374.73
704.60	372.56
704.93	370.65
705.26	368.61
705.60	366.78
705.93	364.81
706.27	362.95
706.60	361.20
706.94	359.49
707.27	357.45
707.61	355.52
707.94	353.73
708.27	351.57
708.61	349.64
708.94	347.92
709.28	346.27
709.61	344.56
709.94	342.98
710.28	341.50
710.61	339.97
710.95	337.85
711.28	336.51
711.61	334.90
711.95	333.53
712.28	332.05
712.61	330.59
712.95	329.20
713.28	327.80
713.61	326.36
713.95	324.93
714.28	323.75
714.61	322.45
714.95	321.08
715.28	319.81
715.61	318.41
715.95	317.12
716.28	315.69
716.61	314.38
716.95	312.95
717.28	311.60
717.61	310.35
717.94	309.31
718.28	307.83
718.61	306.75
718.94	305.43
719.27	304.30
719.61	303.07
719.94	301.97
720.27	300.74
720.60	299.65
720.94	298.52
721.27	297.37
721.60	296.40
721.93	295.31
722.27	294.46
722.60	293.53
722.93	292.48
723.26	291.60
723.59	290.65
723.93	289.79
724.26	288.93
724.59	287.99
724.92	287.11
725.25	286.31
725.59	285.40
725.92	284.65
726.25	283.83
726.58	283.03
726.91	282.14
727.24	281.43
727.57	280.55
727.91	279.71
728.24	279.06
728.57	278.30
728.90	277.70
729.23	276.79
729.56	276.22
729.89	275.46
730.22	274.78
730.55	274.00
730.89	273.29
731.22	272.57
731.55	271.82
731.88	271.09
732.21	270.41
732.54	269.72
732.87	269.00
733.20	268.42
733.53	267.79
733.86	267.23
734.19	266.53
734.52	266.00
734.85	265.65
735.18	264.89
735.51	264.34
735.84	263.69
736.17	263.20
736.50	262.49
736.83	262.42
737.16	261.89
737.49	261.35
737.82	260.78
738.15	260.26
738.48	259.76
738.81	259.21
739.14	258.59
739.47	258.01
739.80	257.45
740.13	256.85
740.46	256.23
740.79	255.56
741.12	254.99
741.45	254.40
741.78	253.68
742.11	253.35
742.44	252.82
742.77	252.39
743.10	251.95
743.43	251.47
743.75	250.62
744.08	250.56
744.41	250.08
744.74	249.56
745.07	249.09
745.40	248.73
745.73	248.40
746.06	247.95
746.39	247.60
746.71	247.12
747.04	246.73
747.37	246.31
747.70	246.08
748.03	245.79
748.36	245.47
748.68	245.03
749.01	244.50
749.34	244.06
749.67	243.66
750.00	243.30
750.33	243.09
750.65	242.74
750.98	241.88
751.31	241.55
751.64	241.28
751.97	241.06
752.29	240.65
752.62	240.23
752.95	239.80
753.28	239.37
753.60	239.03
753.93	238.80
754.26	238.59
754.59	238.10
754.91	237.78
755.24	237.46
755.57	237.19
755.90	236.95
756.22	236.68
756.55	236.37
756.88	235.99
757.20	235.48
757.53	235.06
757.86	234.81
758.19	234.52
758.51	234.29
758.84	233.87
759.17	233.62
759.49	233.36
759.82	233.35
760.15	233.12
760.47	232.89
760.80	232.56
761.13	232.35
761.45	232.12
761.78	231.83
762.11	231.54
762.43	231.25
762.76	230.98
763.08	230.74
763.41	230.55
763.74	230.36
764.06	230.15
764.39	230.01
764.71	229.78
765.04	229.54
765.37	229.24
765.69	228.97
766.02	228.64
766.34	228.40
766.67	228.04
767.00	227.98
767.32	227.98
767.65	227.87
767.97	227.63
768.30	227.50
768.62	227.29
768.95	227.04
769.27	226.92
769.60	226.83
769.92	226.60
770.25	226.30
770.57	226.11
770.90	225.90
771.22	225.73
771.55	225.57
771.87	225.41
772.20	225.28
772.52	225.43
772.85	225.79
773.17	225.64
773.50	225.45
773.82	225.20
774.15	224.86
774.47	224.60
774.80	224.42
775.12	224.21
775.45	224.01
775.77	223.99
776.09	223.81
776.42	223.62
776.74	223.61
777.07	223.45
777.39	223.28
777.72	223.23
778.04	223.16
778.36	223.03
778.69	223.00
779.01	222.84
779.33	222.45
779.66	221.92
779.98	221.83
780.31	221.74
780.63	221.74
780.95	221.74
781.28	221.55
781.60	221.33
781.92	221.33
782.25	221.30
782.57	221.08
782.89	220.89
783.22	220.75
783.54	220.53
783.86	220.47
784.19	220.43
784.51	220.47
784.83	220.33
785.16	220.19
785.48	220.08
785.80	220.00
786.12	219.98
786.45	219.86
786.77	219.81
787.09	219.74
787.42	219.61
787.74	219.58
788.06	219.56
788.38	219.64
788.71	219.44
789.03	219.40
789.35	219.40
789.67	219.34
789.99	219.37
790.32	219.27
790.64	219.27
790.96	219.41
791.28	219.16
791.61	219.08
791.93	219.01
792.25	218.93
792.57	219.09
792.89	218.95
793.21	218.93
793.54	218.82
793.86	218.72
794.18	218.61
794.50	218.43
794.82	218.38
795.14	218.25
795.47	218.31
795.79	218.24
796.11	218.10
796.43	218.13
796.75	217.98
797.07	217.97
797.39	217.90
797.71	217.61
798.04	217.53
798.36	217.44
798.68	217.41
799.00	217.35
799.32	217.14
799.64	217.14
799.96	217.06
800.28	217.05
800.60	217.00
800.92	217.02
801.24	216.94
801.56	216.94
801.89	216.86
802.21	216.80
802.53	216.56
802.85	216.65
803.17	216.73
803.49	216.64
803.81	216.60
804.13	216.54
804.45	216.45
804.77	216.57
805.09	216.58
805.41	216.50
805.73	216.39
806.05	216.31
806.37	216.25
806.69	216.16
807.01	216.06
807.33	216.04
807.65	215.88
807.97	216.02
808.28	215.88
808.60	215.89
808.92	215.83
809.24	216.20
809.56	216.11
809.88	215.91
810.20	215.89
810.52	215.92
810.84	215.81
811.16	215.80
811.48	215.63
811.80	215.69
812.12	215.71
812.43	215.82
812.75	215.80
813.07	215.72
813.39	215.77
813.71	215.73
814.03	215.71
814.35	215.70
814.67	215.49
814.98	215.49
815.30	215.52
815.62	215.40
815.94	215.05
816.26	215.09
816.58	214.99
816.89	215.02
817.21	214.85
817.53	214.88
817.85	214.79
818.17	214.86
818.48	214.75
818.80	214.73
819.12	214.67
819.44	214.55
819.76	214.53
820.07	214.43
820.39	214.39
820.71	214.41
821.03	214.42
821.34	214.41
821.66	214.39
821.98	214.37
822.30	214.40
822.61	214.63
822.93	214.54
823.25	214.54
823.57	214.48
823.88	214.60
824.20	214.64
824.52	214.69
824.83	214.59
825.15	214.49
825.47	214.50
825.79	214.44
826.10	214.53
826.42	214.45
826.74	214.46
827.05	214.43
827.37	214.41
827.69	214.39
828.00	214.35
828.32	214.37
828.64	214.31
828.95	214.44
829.27	214.32
829.58	214.29
829.90	214.39
830.22	214.42
830.53	214.36
830.85	214.29
831.17	214.19
831.48	214.14
831.80	214.16
832.11	214.09
832.43	214.08
832.75	213.98
833.06	214.22
833.38	214.19
833.69	214.14
834.01	214.16
834.32	214.11
834.64	214.08
834.96	214.04
835.27	213.99
835.59	213.78
835.90	213.76
836.22	213.79
836.53	213.70
836.85	213.65
837.16	213.94
837.48	213.93
837.79	214.03
838.11	214.01
838.42	214.01
838.74	214.01
839.05	213.91
839.37	213.92
839.68	213.67
840.00	213.64
840.31	213.69
840.63	213.56
840.94	213.63
841.26	213.63
841.57	213.60
841.88	213.66
842.20	213.70
842.51	213.61
842.83	213.63
843.14	213.95
843.46	213.95
843.77	213.77
844.08	213.69
844.40	213.66
844.71	213.66
845.03	213.61
845.34	213.66
845.65	213.68
845.97	213.65
846.28	213.70
846.60	213.75
846.91	213.75
847.22	213.79
847.54	213.80
847.85	213.79
848.16	213.73
848.48	213.64
848.79	213.84
849.10	213.87
849.42	213.85
849.73	213.48
850.04	213.42
850.36	213.30
850.67	213.38
850.98	213.36
851.30	213.40
851.61	213.35
851.92	213.27
852.23	213.37
852.55	213.44
852.86	213.42
853.17	213.41
853.49	213.48
853.80	213.58
854.11	213.58
854.42	213.56
854.74	213.56
855.05	213.55
855.36	213.27
855.67	213.19
855.99	213.15
856.30	213.50
856.61	213.52
856.92	213.50
857.23	213.50
857.55	213.36
857.86	213.29
858.17	213.34
858.48	213.24
858.79	213.15
859.11	213.12
859.42	213.12
859.73	213.04
860.04	212.98
860.35	212.80
860.66	212.66
860.98	212.72
861.29	212.74
861.60	212.70
861.91	212.79
862.22	212.76
862.53	212.71
862.84	212.35
863.16	212.42
863.47	212.35
863.78	212.36
864.09	212.46
864.40	212.55
864.71	212.54
865.02	212.58
865.33	212.55
865.64	212.50
865.95	212.44
866.27	212.70
866.58	212.69
866.89	212.75
867.20	212.76
867.51	212.75
867.82	212.68
868.13	212.84
868.44	212.77
868.75	212.84
869.06	212.92
869.37	212.92
869.68	212.79
869.99	212.90
870.30	212.83
870.61	212.82
870.92	212.71
871.23	212.68
871.54	212.74
871.85	212.86
872.16	212.85
872.47	212.88
872.78	212.62
873.09	212.62
873.40	212.57
873.71	212.63
874.02	212.59
874.33	212.67
874.64	212.56
874.95	212.64
875.26	212.64
875.56	212.54
875.87	212.51
876.18	212.55
876.49	212.85
876.80	212.86
877.11	212.80
877.42	212.83
877.73	212.84
878.04	212.80
878.35	212.71
878.66	212.71
878.96	212.68
879.27	212.72
879.58	212.69
879.89	212.68
880.20	212.73
880.51	212.74
880.82	212.65
881.12	212.67
881.43	212.57
881.74	212.48
882.05	212.53
882.36	212.56
882.67	212.54
882.97	212.12
883.28	212.09
883.59	212.10
883.90	212.10
884.21	212.15
884.51	212.15
884.82	212.18
885.13	212.16
885.44	212.22
885.74	212.20
886.05	212.13
886.36	212.12
886.67	212.01
886.98	212.13
887.28	212.18
887.59	212.17
887.90	212.20
888.20	212.15
888.51	212.20
888.82	212.12
889.13	212.20
889.43	212.47
889.74	212.40
890.05	212.39
890.35	212.40
890.66	212.31
890.97	212.28
891.28	212.16
891.58	212.24
891.89	212.15
892.20	212.16
892.50	212.20
892.81	212.17
893.12	212.18
893.42	212.03
893.73	212.07
894.04	212.03
894.34	212.08
894.65	212.11
894.95	212.05
895.26	212.08
895.57	212.18
895.87	211.93
896.18	212.05
896.48	212.05
896.79	212.12
897.10	212.18
897.40	212.27
897.71	212.28
898.01	212.21
898.32	212.32
898.63	212.30
898.93	212.30
899.24	212.29
899.54	212.26
899.85	212.25
900.15	212.19
900.46	212.25
900.76	212.23
901.07	212.27
901.38	212.24
901.68	212.30
901.99	212.16
902.29	212.16
902.60	212.06
902.90	212.10
903.21	211.97
903.51	211.99
903.82	211.94
904.12	212.00
904.43	212.05
904.73	212.03
905.03	212.01
905.34	212.33
905.64	212.34
905.95	212.29
906.25	212.27
906.56	212.30
906.86	212.21
907.17	212.20
907.47	212.14
907.77	212.04
908.08	211.93
908.38	211.92
908.69	211.96
908.99	212.04
909.30	211.99
909.60	212.00
909.90	211.97
910.21	211.93
910.51	211.90
910.81	211.94
911.12	211.91
911.42	211.89
911.73	211.56
912.03	211.55
912.33	211.67
912.64	211.70
912.94	211.67
913.24	211.60
913.55	211.62
913.85	211.64
914.15	211.71
914.46	211.78
914.76	211.80
915.06	211.70
915.37	211.66
915.67	211.65
915.97	211.64
916.27	211.57
916.58	211.63
916.88	211.62
917.18	211.54
917.49	211.75
917.79	211.81
918.09	211.85
918.39	211.93
918.70	211.83
919.00	211.83
919.30	212.03
919.60	212.03
919.91	211.96
920.21	211.92
920.51	211.89
920.81	211.84
921.12	211.75
921.42	211.82
921.72	211.81
922.02	211.75
922.32	211.78
922.63	211.79
922.93	211.90
923.23	211.90
923.53	211.80
923.83	211.61
924.13	211.65
924.44	211.57
924.74	211.67
925.04	211.79
925.34	211.78
925.64	211.54
925.94	211.59
926.24	211.75
926.55	211.75
926.85	211.85
927.15	211.86
927.45	211.95
927.75	211.89
928.05	211.92
928.35	211.98
928.65	212.09
928.95	212.11
929.26	211.98
929.56	212.04
929.86	212.13
930.16	212.08
930.46	212.05
930.76	212.09
931.06	211.96
931.36	211.89
931.66	211.94
931.96	212.07
932.26	212.08
932.56	211.89
932.86	211.92
933.16	211.93
933.46	211.87
933.76	211.79
934.06	211.89
934.36	211.98
934.66	211.99
934.96	211.94
935.26	211.97
935.56	211.98
935.86	211.87
936.16	211.80
936.46	211.69
936.76	211.61
937.06	211.59
937.36	211.55
937.66	211.56
937.96	211.51
938.26	211.40
938.56	211.37
938.86	211.45
939.16	211.55
939.46	211.53
939.76	211.62
940.06	211.63
940.35	211.57
940.65	211.36
940.95	211.37
941.25	211.21
941.55	211.18
941.85	211.17
942.15	211.28
942.45	211.43
942.75	211.49
943.04	211.53
943.34	211.55
943.64	211.57
943.94	211.46
944.24	211.47
944.54	211.54
944.84	211.53
945.13	211.50
945.43	211.41
945.73	211.40
946.03	211.35
946.33	211.32
946.62	211.28
946.92	211.30
947.22	211.32
947.52	211.42
947.82	211.50
948.11	211.45
948.41	211.34
948.71	211.22
949.01	211.25
949.31	211.20
949.60	211.18
949.90	211.25
950.20	211.26
950.50	211.23
950.79	211.15
951.09	211.19
951.39	211.21
951.69	211.13
951.98	211.21
952.28	211.21
952.58	211.25
952.87	211.29
953.17	211.30
953.47	211.28
953.76	211.27
954.06	211.18
954.36	211.25
954.66	211.27
954.95	211.40
955.25	211.50
955.55	211.59
955.84	211.58
956.14	211.54
956.44	211.60
956.73	211.58
957.03	211.57
957.32	211.59
957.62	211.55
957.92	211.67
958.21	211.57
958.51	212.05
958.81	212.05
959.10	212.12
959.40	212.19
959.69	212.18
959.99	212.22
960.29	212.21
960.58	212.12
960.88	212.29
961.17	212.25
961.47	212.20
961.76	212.11
962.06	212.17
962.36	212.16
962.65	212.15
962.95	212.20
963.24	212.24
963.54	212.31
963.83	212.34
964.13	212.33
964.42	212.31
964.72	211.97
965.01	211.94
965.31	211.88
965.60	211.81
965.90	211.98
966.19	211.88
966.49	211.95
966.78	211.91
967.08	211.87
967.37	211.81
967.67	211.73
967.96	211.78
968.26	211.71
968.55	211.79
968.85	211.82
969.14	211.78
969.43	211.72
969.73	211.58
970.02	211.60
970.32	211.59
970.61	211.56
970.91	211.48
971.20	211.45
971.49	211.45
971.79	211.52
972.08	211.31
972.38	211.35
972.67	211.33
972.96	211.39
973.26	211.26
973.55	211.38
973.85	211.45
974.14	211.47
974.43	211.53
974.73	211.55
975.02	211.48
975.31	211.45
975.61	211.42
975.90	211.38
976.19	211.29
976.49	211.28
976.78	211.28
977.07	211.22
977.37	211.24
977.66	211.20
977.95	211.20
978.24	211.22
978.54	211.27
978.83	211.17
979.12	211.17
979.42	211.22
979.71	211.20
980.00	211.13
980.29	211.12
980.59	211.07
980.88	211.04
981.17	211.04
981.46	211.06
981.76	211.10
982.05	211.19
982.34	211.21
982.63	211.27
982.93	211.34
983.22	211.40
983.51	211.51
983.80	211.54
984.09	211.52
984.39	211.53
984.68	211.57
984.97	211.61
985.26	211.60
985.55	211.62
985.85	211.49
986.14	211.58
986.43	211.65
986.72	211.64
987.01	211.55
987.30	211.56
987.59	211.52
987.89	211.58
988.18	211.53
988.47	211.56
988.76	211.50
989.05	211.43
989.34	211.41
989.63	211.40
989.92	211.38
990.22	211.34
990.51	211.30
990.80	211.29
991.09	211.41
991.38	211.50
991.67	211.44
991.96	211.43
992.25	211.41
992.54	211.25
992.83	211.25
993.12	211.26
993.41	211.27
993.70	211.49
993.99	211.56
994.28	211.60
994.58	211.63
994.87	211.59
995.16	211.62
995.45	211.56
995.74	211.42
996.03	211.49
996.32	211.57
996.61	211.65
996.90	211.56
997.19	211.43
997.48	211.35
997.77	211.30
998.06	211.26
998.34	211.19
998.63	211.24
998.92	211.19
999.21	211.24
999.50	211.25
999.79	211.06
1000.08	211.00
1000.37	211.01
1000.66	210.92
1000.95	211.01
1001.24	211.00
1001.53	211.06
1001.82	211.10
1002.11	210.98
1002.40	210.98
1002.68	211.00
1002.97	211.24
1003.26	211.26
1003.55	211.23
1003.84	211.32
1004.13	211.45
1004.42	211.47
1004.71	211.45
1004.99	211.46
1005.28	211.49
1005.57	211.53
1005.86	211.54
1006.15	211.51
1006.44	211.46
1006.72	211.57
1007.01	211.46
1007.30	211.40
1007.59	211.36
1007.88	211.33
1008.17	211.36
1008.45	211.28
1008.74	211.18
1009.03	211.02
1009.32	210.99
1009.60	210.94
1009.89	210.90
1010.18	210.77
1010.47	210.73
1010.76	210.76
1011.04	210.68
1011.33	211.09
1011.62	211.10
1011.91	211.10
1012.19	211.13
1012.48	211.08
1012.77	211.08
1013.05	211.26
1013.34	211.36
1013.63	211.42
1013.92	211.50
1014.20	211.46
1014.49	211.44
1014.78	211.51
1015.06	211.45
1015.35	211.40
1015.64	211.43
1015.92	211.45
1016.21	211.55
1016.50	211.60
1016.78	211.61
1017.07	211.74
1017.36	211.27
1017.64	211.19
1017.93	211.31
1018.22	211.28
1018.50	211.35
1018.79	211.29
1019.08	211.13
1019.36	211.07
1019.65	211.03
1019.93	211.07
1020.22	211.18
1020.51	211.40
1020.79	211.35
1021.08	210.50
1021.36	211.20
1021.65	210.70
1021.94	210.75
1022.22	210.90
1022.51	210.90
1022.79	212.55
1023.08	212.00
1023.36	215.50
1023.65	210.75
>>>>>End Processed Spectral Data<<<<<
