SpectraSuite Data File
++++++++++++++++++++++++++++++++++++
Date: Mon Feb 25 17:18:55 EST 2013
User: group
Dark Spectrum Present: No
Reference Spectrum Present: No
Number of Sampled Component Spectra: 1
Spectrometers: USB2E7196
Integration Time (usec): 104000 (USB2E7196)
Spectra Averaged: 20 (USB2E7196)
Boxcar Smoothing: 10 (USB2E7196)
Correct for Electrical Dark: No (USB2E7196)
Strobe/Lamp Enabled: No (USB2E7196)
Correct for Detector Non-linearity: No (USB2E7196)
Correct for Stray Light: No (USB2E7196)
Number of Pixels in Processed Spectrum: 2048
>>>>>Begin Processed Spectral Data<<<<<
339.09	0.00
339.48	199.05
339.86	200.35
340.24	202.65
340.63	204.50
341.01	210.55
341.39	204.90
341.78	208.55
342.16	210.00
342.54	209.25
342.93	198.41
343.31	208.47
343.69	208.98
344.07	209.44
344.46	209.86
344.84	210.17
345.22	210.19
345.60	210.58
345.99	210.82
346.37	210.91
346.75	211.03
347.13	211.19
347.52	211.24
347.90	211.40
348.28	211.44
348.66	211.63
349.05	211.63
349.43	211.72
349.81	211.75
350.19	211.83
350.57	211.90
350.96	211.99
351.34	212.08
351.72	212.21
352.10	212.33
352.48	212.37
352.87	212.45
353.25	212.54
353.63	212.47
354.01	212.44
354.39	212.52
354.77	212.54
355.15	212.62
355.54	212.69
355.92	212.68
356.30	212.76
356.68	212.95
357.06	213.09
357.44	213.13
357.82	213.24
358.20	213.36
358.58	213.48
358.97	213.63
359.35	213.76
359.73	213.95
360.11	213.96
360.49	214.04
360.87	214.16
361.25	214.25
361.63	214.44
362.01	214.54
362.39	214.62
362.77	214.75
363.15	214.84
363.53	214.91
363.91	214.95
364.29	214.96
364.67	214.81
365.05	214.86
365.43	214.96
365.81	215.05
366.19	215.20
366.57	215.33
366.95	215.37
367.33	215.32
367.71	215.26
368.09	215.39
368.47	215.44
368.85	215.35
369.23	215.43
369.61	215.36
369.99	215.44
370.37	215.47
370.75	215.63
371.13	215.50
371.51	215.43
371.89	215.43
372.27	215.40
372.65	215.39
373.03	215.36
373.41	215.30
373.78	215.26
374.16	215.10
374.54	215.00
374.92	214.86
375.30	214.82
375.68	214.77
376.06	214.72
376.44	214.63
376.82	214.68
377.19	214.61
377.57	214.57
377.95	214.49
378.33	214.39
378.71	214.14
379.09	214.15
379.47	214.17
379.84	214.10
380.22	214.04
380.60	214.01
380.98	213.93
381.36	213.89
381.73	213.77
382.11	213.85
382.49	213.76
382.87	213.74
383.25	213.65
383.62	213.95
384.00	213.88
384.38	213.89
384.76	213.86
385.13	213.99
385.51	213.93
385.89	213.87
386.27	213.84
386.64	213.93
387.02	213.88
387.40	213.79
387.78	213.80
388.15	213.77
388.53	213.62
388.91	213.52
389.29	213.52
389.66	213.55
390.04	213.36
390.42	213.41
390.79	213.38
391.17	213.40
391.55	213.02
391.92	212.96
392.30	212.98
392.68	212.90
393.05	212.80
393.43	212.86
393.81	212.79
394.18	212.80
394.56	212.74
394.94	212.80
395.31	212.80
395.69	212.85
396.06	212.97
396.44	213.03
396.82	213.11
397.19	213.25
397.57	213.23
397.95	213.39
398.32	213.27
398.70	213.36
399.07	213.41
399.45	213.40
399.82	213.40
400.20	213.38
400.58	213.41
400.95	213.31
401.33	213.40
401.70	213.68
402.08	213.66
402.45	213.64
402.83	213.83
403.20	213.94
403.58	214.03
403.95	214.11
404.33	214.25
404.71	214.32
405.08	214.61
405.46	214.71
405.83	214.84
406.21	214.99
406.58	215.18
406.96	215.41
407.33	215.72
407.70	215.98
408.08	216.45
408.45	216.84
408.83	217.18
409.20	217.40
409.58	217.49
409.95	217.97
410.33	218.40
410.70	218.65
411.08	219.09
411.45	219.52
411.82	219.90
412.20	220.50
412.57	221.25
412.95	221.56
413.32	222.29
413.69	222.99
414.07	223.72
414.44	224.51
414.82	225.30
415.19	226.24
415.56	227.23
415.94	228.08
416.31	229.18
416.68	230.29
417.06	231.63
417.43	232.99
417.81	234.32
418.18	235.77
418.55	237.31
418.93	239.02
419.30	240.81
419.67	242.65
420.04	244.44
420.42	246.24
420.79	248.60
421.16	250.80
421.54	253.20
421.91	255.68
422.28	258.17
422.66	260.81
423.03	263.52
423.40	266.19
423.77	269.05
424.15	271.91
424.52	274.95
424.89	278.19
425.26	281.29
425.64	284.41
426.01	287.70
426.38	291.17
426.75	294.61
427.13	298.06
427.50	301.94
427.87	305.85
428.24	309.79
428.61	313.45
428.99	317.77
429.36	322.20
429.73	326.63
430.10	331.08
430.47	335.65
430.85	340.19
431.22	345.16
431.59	350.52
431.96	355.42
432.33	360.89
432.70	366.18
433.08	372.57
433.45	378.35
433.82	384.25
434.19	390.79
434.56	397.15
434.93	403.46
435.30	409.55
435.68	416.27
436.05	422.89
436.42	429.45
436.79	435.48
437.16	441.93
437.53	448.82
437.90	455.52
438.27	462.11
438.64	469.08
439.01	475.33
439.38	480.96
439.75	486.72
440.13	493.03
440.50	499.16
440.87	504.06
441.24	509.14
441.61	514.69
441.98	518.78
442.35	523.47
442.72	528.18
443.09	532.86
443.46	535.74
443.83	537.60
444.20	539.20
444.57	541.40
444.94	542.50
445.31	543.53
445.68	544.88
446.05	545.30
446.42	544.44
446.79	543.82
447.16	542.77
447.53	541.88
447.90	539.19
448.27	536.40
448.64	532.64
449.01	529.89
449.37	525.30
449.74	520.83
450.11	515.75
450.48	509.92
450.85	503.97
451.22	498.88
451.59	494.18
451.96	489.67
452.33	483.58
452.70	478.04
453.07	471.37
453.43	464.27
453.80	457.88
454.17	451.69
454.54	445.76
454.91	439.57
455.28	433.38
455.65	427.75
456.02	422.45
456.38	417.72
456.75	411.76
457.12	406.76
457.49	401.87
457.86	397.01
458.23	392.95
458.59	388.44
458.96	383.89
459.33	379.78
459.70	375.77
460.07	372.53
460.43	368.83
460.80	365.52
461.17	362.62
461.54	359.39
461.91	356.50
462.27	353.50
462.64	350.92
463.01	348.27
463.38	345.70
463.74	342.62
464.11	340.09
464.48	338.20
464.85	335.88
465.21	334.25
465.58	332.44
465.95	330.19
466.32	328.42
466.68	326.53
467.05	324.82
467.42	323.04
467.78	321.21
468.15	319.50
468.52	318.30
468.88	316.65
469.25	315.31
469.62	314.32
469.98	313.07
470.35	311.91
470.72	310.95
471.08	309.75
471.45	308.93
471.82	308.03
472.18	306.89
472.55	306.31
472.92	305.35
473.28	304.57
473.65	303.94
474.02	303.37
474.38	303.05
474.75	302.63
475.11	302.14
475.48	301.87
475.85	301.71
476.21	301.41
476.58	301.44
476.94	301.42
477.31	301.25
477.67	301.27
478.04	301.44
478.41	301.58
478.77	302.14
479.14	302.21
479.50	302.63
479.87	303.13
480.23	303.62
480.60	304.12
480.96	304.73
481.33	305.63
481.69	306.37
482.06	307.17
482.42	308.15
482.79	309.16
483.15	310.36
483.52	311.67
483.88	313.00
484.25	314.21
484.61	315.63
484.98	317.20
485.34	319.07
485.71	320.94
486.07	322.78
486.44	324.47
486.80	326.80
487.17	329.15
487.53	331.64
487.90	334.40
488.26	337.28
488.62	340.23
488.99	343.15
489.35	346.20
489.72	349.55
490.08	353.00
490.44	356.69
490.81	360.59
491.17	364.49
491.54	368.79
491.90	373.36
492.26	378.10
492.63	382.97
492.99	387.88
493.36	393.28
493.72	399.14
494.08	404.98
494.45	411.16
494.81	417.69
495.17	424.41
495.54	431.34
495.90	438.70
496.26	446.32
496.63	454.28
496.99	462.68
497.35	471.39
497.72	480.54
498.08	489.78
498.44	499.49
498.80	510.05
499.17	520.71
499.53	531.71
499.89	543.21
500.26	554.87
500.62	566.98
500.98	579.54
501.34	592.43
501.71	606.04
502.07	619.91
502.43	634.27
502.79	648.83
503.16	663.99
503.52	679.52
503.88	695.35
504.24	711.87
504.60	728.84
504.97	746.28
505.33	764.08
505.69	783.08
506.05	802.34
506.41	821.37
506.78	840.76
507.14	860.85
507.50	881.32
507.86	902.72
508.22	924.29
508.59	946.07
508.95	968.61
509.31	991.22
509.67	1014.52
510.03	1038.14
510.39	1062.84
510.75	1087.84
511.12	1112.81
511.48	1138.46
511.84	1164.59
512.20	1190.65
512.56	1217.39
512.92	1244.32
513.28	1271.41
513.64	1298.48
514.00	1325.92
514.37	1353.95
514.73	1382.33
515.09	1410.83
515.45	1439.18
515.81	1467.90
516.17	1496.94
516.53	1525.94
516.89	1555.31
517.25	1584.58
517.61	1613.91
517.97	1642.89
518.33	1671.80
518.69	1701.36
519.05	1731.11
519.41	1760.65
519.77	1790.71
520.13	1820.19
520.49	1849.42
520.85	1878.73
521.21	1908.58
521.57	1938.73
521.93	1967.98
522.29	1998.11
522.65	2028.09
523.01	2057.66
523.37	2086.45
523.73	2115.85
524.09	2144.92
524.45	2174.18
524.81	2203.27
525.17	2232.80
525.53	2262.10
525.89	2291.09
526.25	2319.51
526.61	2346.88
526.97	2374.75
527.33	2402.73
527.68	2430.51
528.04	2457.82
528.40	2484.06
528.76	2510.07
529.12	2537.06
529.48	2564.51
529.84	2590.30
530.20	2616.03
530.56	2642.12
530.91	2669.35
531.27	2695.13
531.63	2720.24
531.99	2745.18
532.35	2769.27
532.71	2792.48
533.07	2816.74
533.42	2839.75
533.78	2863.57
534.14	2886.49
534.50	2907.93
534.86	2929.66
535.21	2950.36
535.57	2972.37
535.93	2993.53
536.29	3013.79
536.65	3033.59
537.00	3052.44
537.36	3070.59
537.72	3088.25
538.08	3105.75
538.44	3122.95
538.79	3140.59
539.15	3157.94
539.51	3174.50
539.87	3192.03
540.22	3208.69
540.58	3225.14
540.94	3241.32
541.29	3254.94
541.65	3269.04
542.01	3283.27
542.37	3296.71
542.72	3310.54
543.08	3322.50
543.44	3336.12
543.79	3348.27
544.15	3358.91
544.51	3370.53
544.87	3382.50
545.22	3392.99
545.58	3402.70
545.94	3410.84
546.29	3417.93
546.65	3424.97
547.01	3432.06
547.36	3438.45
547.72	3444.67
548.07	3448.81
548.43	3453.41
548.79	3458.13
549.14	3462.80
549.50	3467.50
549.86	3470.74
550.21	3473.44
550.57	3476.90
550.92	3477.81
551.28	3479.55
551.64	3481.51
551.99	3483.50
552.35	3484.56
552.70	3486.02
553.06	3487.17
553.41	3488.25
553.77	3489.28
554.13	3489.80
554.48	3490.31
554.84	3490.30
555.19	3489.64
555.55	3488.67
555.90	3486.93
556.26	3485.55
556.61	3483.55
556.97	3480.51
557.32	3478.57
557.68	3475.46
558.03	3472.50
558.39	3470.46
558.74	3468.86
559.10	3466.61
559.45	3462.75
559.81	3459.76
560.16	3455.37
560.52	3451.82
560.87	3447.72
561.23	3442.51
561.58	3438.39
561.94	3432.93
562.29	3427.18
562.64	3422.43
563.00	3418.16
563.35	3414.33
563.71	3410.71
564.06	3406.64
564.42	3402.79
564.77	3398.44
565.12	3394.78
565.48	3390.04
565.83	3385.40
566.19	3380.69
566.54	3374.07
566.89	3368.28
567.25	3361.98
567.60	3357.05
567.96	3350.85
568.31	3344.95
568.66	3338.94
569.02	3331.67
569.37	3323.88
569.72	3317.23
570.08	3309.42
570.43	3301.22
570.78	3292.85
571.14	3283.81
571.49	3274.93
571.84	3267.10
572.20	3257.47
572.55	3248.67
572.90	3238.91
573.26	3228.56
573.61	3217.67
573.96	3208.24
574.31	3197.42
574.67	3186.46
575.02	3174.66
575.37	3163.32
575.72	3151.54
576.08	3141.28
576.43	3130.43
576.78	3120.85
577.13	3110.34
577.49	3099.83
577.84	3089.07
578.19	3078.91
578.54	3069.43
578.90	3059.87
579.25	3048.41
579.60	3037.08
579.95	3025.16
580.30	3015.07
580.66	3004.91
581.01	2993.86
581.36	2982.41
581.71	2971.19
582.06	2960.00
582.42	2949.55
582.77	2938.06
583.12	2926.96
583.47	2916.41
583.82	2906.26
584.17	2895.11
584.53	2884.39
584.88	2873.38
585.23	2862.50
585.58	2851.19
585.93	2839.58
586.28	2828.69
586.63	2817.17
586.98	2806.81
587.34	2796.90
587.69	2785.56
588.04	2774.22
588.39	2763.73
588.74	2752.36
589.09	2742.49
589.44	2731.56
589.79	2721.03
590.14	2710.88
590.49	2700.53
590.84	2689.30
591.19	2679.38
591.54	2668.51
591.89	2656.23
592.25	2644.93
592.60	2633.33
592.95	2621.90
593.30	2609.35
593.65	2596.74
594.00	2585.70
594.35	2576.21
594.70	2564.87
595.05	2554.14
595.40	2543.47
595.75	2531.88
596.10	2521.85
596.45	2511.49
596.80	2501.95
597.15	2492.22
597.50	2481.60
597.85	2471.41
598.19	2460.77
598.54	2449.56
598.89	2440.05
599.24	2431.44
599.59	2422.13
599.94	2414.02
600.29	2404.67
600.64	2395.60
600.99	2385.90
601.34	2376.56
601.69	2365.15
602.04	2355.00
602.39	2344.72
602.74	2334.78
603.08	2326.39
603.43	2317.77
603.78	2308.17
604.13	2298.66
604.48	2288.73
604.83	2280.82
605.18	2272.99
605.53	2263.84
605.87	2254.37
606.22	2245.00
606.57	2235.35
606.92	2225.63
607.27	2215.08
607.62	2204.94
607.96	2195.88
608.31	2187.61
608.66	2177.85
609.01	2168.21
609.36	2158.26
609.70	2148.26
610.05	2138.00
610.40	2127.81
610.75	2117.20
611.10	2107.23
611.44	2095.38
611.79	2084.09
612.14	2072.26
612.49	2059.74
612.83	2048.99
613.18	2037.62
613.53	2026.36
613.88	2014.40
614.22	2003.52
614.57	1992.43
614.92	1981.56
615.27	1970.13
615.61	1958.20
615.96	1947.61
616.31	1937.35
616.65	1927.65
617.00	1917.43
617.35	1907.35
617.70	1896.21
618.04	1884.60
618.39	1872.75
618.74	1862.80
619.08	1852.41
619.43	1841.64
619.78	1831.47
620.12	1821.05
620.47	1810.89
620.82	1799.59
621.16	1788.72
621.51	1777.79
621.85	1767.55
622.20	1756.54
622.55	1745.96
622.89	1735.36
623.24	1724.26
623.59	1713.04
623.93	1702.14
624.28	1691.82
624.62	1681.40
624.97	1671.22
625.32	1661.50
625.66	1652.19
626.01	1642.36
626.35	1632.57
626.70	1622.86
627.04	1613.59
627.39	1603.88
627.73	1594.27
628.08	1585.44
628.43	1575.97
628.77	1566.40
629.12	1556.34
629.46	1547.90
629.81	1538.81
630.15	1529.71
630.50	1520.67
630.84	1511.07
631.19	1501.93
631.53	1492.52
631.88	1482.98
632.22	1473.03
632.57	1463.88
632.91	1454.30
633.26	1444.95
633.60	1435.92
633.95	1427.07
634.29	1417.60
634.64	1408.66
634.98	1399.30
635.32	1390.31
635.67	1382.09
636.01	1373.56
636.36	1364.76
636.70	1355.87
637.05	1347.21
637.39	1338.78
637.73	1330.66
638.08	1323.11
638.42	1315.11
638.77	1307.00
639.11	1298.59
639.45	1290.87
639.80	1282.54
640.14	1274.07
640.49	1265.60
640.83	1257.08
641.17	1248.80
641.52	1240.36
641.86	1231.64
642.20	1223.54
642.55	1214.90
642.89	1206.20
643.23	1197.59
643.58	1189.78
643.92	1181.12
644.26	1172.84
644.61	1164.59
644.95	1156.01
645.29	1147.55
645.64	1138.93
645.98	1130.84
646.32	1123.02
646.66	1114.64
647.01	1106.55
647.35	1098.84
647.69	1090.59
648.04	1082.77
648.38	1074.55
648.72	1066.86
649.06	1059.08
649.41	1051.20
649.75	1043.31
650.09	1035.61
650.43	1028.00
650.78	1019.84
651.12	1011.93
651.46	1004.22
651.80	996.75
652.14	989.28
652.49	981.54
652.83	973.72
653.17	965.44
653.51	957.68
653.85	950.27
654.20	942.80
654.54	934.93
654.88	927.83
655.22	920.32
655.56	913.01
655.90	905.42
656.25	898.05
656.59	890.88
656.93	883.84
657.27	876.98
657.61	869.48
657.95	862.59
658.29	856.03
658.64	849.30
658.98	842.11
659.32	834.93
659.66	828.40
660.00	821.70
660.34	814.95
660.68	808.11
661.02	801.31
661.36	794.85
661.70	788.81
662.05	782.55
662.39	776.69
662.73	770.66
663.07	764.86
663.41	759.01
663.75	753.18
664.09	747.09
664.43	741.02
664.77	735.73
665.11	729.96
665.45	724.29
665.79	718.63
666.13	713.28
666.47	707.89
666.81	702.45
667.15	697.15
667.49	692.43
667.83	687.49
668.17	682.60
668.51	677.71
668.85	672.71
669.19	668.05
669.53	662.90
669.87	657.94
670.21	653.00
670.55	648.15
670.89	643.57
671.23	639.43
671.57	635.05
671.91	630.35
672.25	625.87
672.58	621.44
672.92	617.09
673.26	612.85
673.60	608.80
673.94	604.47
674.28	600.31
674.62	596.22
674.96	592.17
675.30	588.18
675.64	584.00
675.97	579.94
676.31	575.98
676.65	572.17
676.99	568.63
677.33	564.75
677.67	561.00
678.01	557.04
678.34	553.10
678.68	549.33
679.02	545.68
679.36	542.15
679.70	538.39
680.04	534.85
680.37	531.13
680.71	527.55
681.05	524.14
681.39	520.66
681.73	517.11
682.06	513.97
682.40	510.73
682.74	507.35
683.08	504.15
683.42	500.57
683.75	497.37
684.09	493.92
684.43	490.80
684.77	487.48
685.10	484.24
685.44	480.90
685.78	477.66
686.12	474.68
686.45	471.47
686.79	468.52
687.13	465.57
687.46	462.80
687.80	460.12
688.14	457.19
688.48	454.43
688.81	451.49
689.15	448.45
689.49	445.48
689.82	442.74
690.16	439.74
690.50	436.94
690.83	434.14
691.17	431.26
691.51	428.46
691.84	426.01
692.18	423.53
692.52	421.18
692.85	418.92
693.19	416.54
693.52	414.24
693.86	411.75
694.20	409.31
694.53	406.82
694.87	404.14
695.21	401.74
695.54	399.28
695.88	396.96
696.21	394.53
696.55	392.29
696.88	390.05
697.22	387.87
697.56	385.83
697.89	383.66
698.23	381.69
698.56	379.69
698.90	377.62
699.23	375.44
699.57	373.37
699.90	371.16
700.24	368.94
700.58	366.86
700.91	365.04
701.25	363.24
701.58	361.30
701.92	359.46
702.25	357.59
702.59	355.71
702.92	353.89
703.26	352.15
703.59	350.54
703.93	349.07
704.26	347.45
704.60	345.78
704.93	344.02
705.26	342.30
705.60	340.66
705.93	338.98
706.27	337.54
706.60	336.10
706.94	334.79
707.27	333.33
707.61	331.80
707.94	330.14
708.27	328.48
708.61	327.09
708.94	325.70
709.28	324.41
709.61	323.14
709.94	321.87
710.28	320.53
710.61	319.15
710.95	317.56
711.28	316.41
711.61	315.09
711.95	314.02
712.28	312.79
712.61	311.56
712.95	310.48
713.28	309.44
713.61	308.23
713.95	306.95
714.28	305.85
714.61	304.70
714.95	303.76
715.28	302.58
715.61	301.40
715.95	300.27
716.28	299.18
716.61	298.13
716.95	297.03
717.28	296.04
717.61	295.00
717.94	294.02
718.28	292.81
718.61	291.88
718.94	290.78
719.27	289.85
719.61	288.95
719.94	287.95
720.27	286.80
720.60	285.81
720.94	284.94
721.27	284.04
721.60	283.35
721.93	282.46
722.27	281.86
722.60	281.14
722.93	280.36
723.26	279.54
723.59	278.70
723.93	277.97
724.26	277.26
724.59	276.50
724.92	275.82
725.25	275.22
725.59	274.60
725.92	274.00
726.25	273.32
726.58	272.64
726.91	272.03
727.24	271.40
727.57	270.72
727.91	269.86
728.24	269.23
728.57	268.44
728.90	267.81
729.23	266.99
729.56	266.56
729.89	266.00
730.22	265.40
730.55	264.84
730.89	264.22
731.22	263.64
731.55	263.02
731.88	262.48
732.21	261.82
732.54	261.11
732.87	260.49
733.20	259.93
733.53	259.38
733.86	258.80
734.19	258.26
734.52	257.77
734.85	257.64
735.18	257.13
735.51	256.80
735.84	256.36
736.17	255.92
736.50	255.22
736.83	255.10
737.16	254.60
737.49	254.09
737.82	253.60
738.15	253.08
738.48	252.60
738.81	252.14
739.14	251.76
739.47	251.26
739.80	250.90
740.13	250.49
740.46	249.99
740.79	249.50
741.12	249.10
741.45	248.65
741.78	248.06
742.11	247.73
742.44	247.28
742.77	246.95
743.10	246.56
743.43	246.08
743.75	245.29
744.08	245.35
744.41	244.99
744.74	244.65
745.07	244.23
745.40	243.95
745.73	243.70
746.06	243.31
746.39	243.05
746.71	242.61
747.04	242.23
747.37	241.83
747.70	241.55
748.03	241.23
748.36	240.97
748.68	240.65
749.01	240.25
749.34	239.88
749.67	239.50
750.00	239.19
750.33	239.17
750.65	238.85
750.98	238.16
751.31	237.82
751.64	237.53
751.97	237.45
752.29	237.12
752.62	236.67
752.95	236.33
753.28	236.00
753.60	235.75
753.93	235.55
754.26	235.36
754.59	234.98
754.91	234.68
755.24	234.36
755.57	234.00
755.90	233.73
756.22	233.45
756.55	233.14
756.88	232.82
757.20	232.36
757.53	232.06
757.86	231.72
758.19	231.48
758.51	231.25
758.84	230.79
759.17	230.50
759.49	230.29
759.82	230.19
760.15	229.97
760.47	229.70
760.80	229.35
761.13	229.18
761.45	229.00
761.78	228.78
762.11	228.61
762.43	228.44
762.76	228.21
763.08	228.07
763.41	227.93
763.74	227.70
764.06	227.45
764.39	227.31
764.71	227.15
765.04	226.95
765.37	226.68
765.69	226.50
766.02	226.35
766.34	226.10
766.67	225.75
767.00	225.71
767.32	225.71
767.65	225.82
767.97	225.63
768.30	225.43
768.62	225.20
768.95	224.98
769.27	224.79
769.60	224.65
769.92	224.40
770.25	224.09
770.57	223.96
770.90	223.88
771.22	223.66
771.55	223.51
771.87	223.40
772.20	223.28
772.52	223.49
772.85	223.85
773.17	223.77
773.50	223.69
773.82	223.39
774.15	223.05
774.47	222.62
774.80	222.41
775.12	222.32
775.45	222.25
775.77	222.13
776.09	222.07
776.42	221.98
776.74	221.95
777.07	221.89
777.39	221.80
777.72	221.65
778.04	221.59
778.36	221.48
778.69	221.37
779.01	221.35
779.33	220.89
779.66	220.30
779.98	220.14
780.31	219.97
780.63	220.06
780.95	220.03
781.28	219.95
781.60	219.88
781.92	219.79
782.25	219.72
782.57	219.64
782.89	219.52
783.22	219.37
783.54	219.25
783.86	219.17
784.19	219.13
784.51	219.10
784.83	219.00
785.16	218.91
785.48	218.80
785.80	218.67
786.12	218.64
786.45	218.60
786.77	218.59
787.09	218.62
787.42	218.47
787.74	218.43
788.06	218.39
788.38	218.36
788.71	218.27
789.03	218.12
789.35	218.12
789.67	218.05
789.99	218.14
790.32	218.03
790.64	218.04
790.96	218.20
791.28	218.02
791.61	217.94
791.93	217.83
792.25	217.77
792.57	217.96
792.89	217.84
793.21	217.80
793.54	217.68
793.86	217.56
794.18	217.48
794.50	217.43
794.82	217.38
795.14	217.30
795.47	217.39
795.79	217.40
796.11	217.31
796.43	217.21
796.75	217.05
797.07	216.96
797.39	216.89
797.71	216.60
798.04	216.59
798.36	216.63
798.68	216.64
799.00	216.61
799.32	216.36
799.64	216.46
799.96	216.40
800.28	216.45
800.60	216.42
800.92	216.46
801.24	216.34
801.56	216.27
801.89	216.23
802.21	216.13
802.53	216.05
802.85	216.06
803.17	216.20
803.49	216.10
803.81	216.11
804.13	216.01
804.45	215.84
804.77	215.85
805.09	215.76
805.41	215.73
805.73	215.60
806.05	215.47
806.37	215.31
806.69	215.33
807.01	215.28
807.33	215.26
807.65	215.01
807.97	215.12
808.28	215.15
808.60	215.07
808.92	215.02
809.24	215.29
809.56	215.14
809.88	214.98
810.20	215.08
810.52	215.07
810.84	215.06
811.16	215.12
811.48	215.09
811.80	215.12
812.12	215.11
812.43	215.24
812.75	215.25
813.07	215.24
813.39	215.18
813.71	215.09
814.03	215.01
814.35	215.07
814.67	214.93
814.98	214.86
815.30	214.98
815.62	214.89
815.94	214.58
816.26	214.57
816.58	214.45
816.89	214.38
817.21	214.29
817.53	214.32
817.85	214.32
818.17	214.20
818.48	214.08
818.80	214.08
819.12	214.00
819.44	213.91
819.76	213.83
820.07	213.75
820.39	213.71
820.71	213.71
821.03	213.73
821.34	213.65
821.66	213.67
821.98	213.60
822.30	213.57
822.61	213.71
822.93	213.69
823.25	213.69
823.57	213.67
823.88	213.72
824.20	213.66
824.52	213.67
824.83	213.64
825.15	213.54
825.47	213.50
825.79	213.49
826.10	213.48
826.42	213.45
826.74	213.55
827.05	213.51
827.37	213.52
827.69	213.47
828.00	213.48
828.32	213.38
828.64	213.26
828.95	213.45
829.27	213.35
829.58	213.40
829.90	213.44
830.22	213.39
830.53	213.34
830.85	213.28
831.17	213.24
831.48	213.24
831.80	213.22
832.11	213.17
832.43	213.10
832.75	213.11
833.06	213.35
833.38	213.28
833.69	213.30
834.01	213.32
834.32	213.25
834.64	213.28
834.96	213.34
835.27	213.39
835.59	213.24
835.90	213.11
836.22	213.04
836.53	212.98
836.85	212.97
837.16	213.28
837.48	213.32
837.79	213.44
838.11	213.53
838.42	213.60
838.74	213.68
839.05	213.66
839.37	213.61
839.68	213.31
840.00	213.18
840.31	213.25
840.63	213.18
840.94	213.15
841.26	213.09
841.57	213.14
841.88	213.11
842.20	213.02
842.51	213.07
842.83	213.08
843.14	213.32
843.46	213.27
843.77	213.06
844.08	212.99
844.40	212.87
844.71	212.78
845.03	212.72
845.34	212.65
845.65	212.64
845.97	212.68
846.28	212.72
846.60	212.80
846.91	212.72
847.22	212.70
847.54	212.81
847.85	212.82
848.16	212.70
848.48	212.69
848.79	212.85
849.10	212.83
849.42	212.82
849.73	212.56
850.04	212.65
850.36	212.43
850.67	212.51
850.98	212.50
851.30	212.46
851.61	212.45
851.92	212.41
852.23	212.51
852.55	212.52
852.86	212.56
853.17	212.58
853.49	212.62
853.80	212.64
854.11	212.59
854.42	212.64
854.74	212.61
855.05	212.62
855.36	212.42
855.67	212.46
855.99	212.48
856.30	212.87
856.61	212.80
856.92	212.92
857.23	212.88
857.55	212.87
857.86	212.90
858.17	213.01
858.48	212.96
858.79	212.84
859.11	212.85
859.42	212.84
859.73	212.73
860.04	212.67
860.35	212.64
860.66	212.55
860.98	212.55
861.29	212.59
861.60	212.55
861.91	212.67
862.22	212.60
862.53	212.50
862.84	212.09
863.16	212.22
863.47	212.15
863.78	212.12
864.09	212.13
864.40	212.17
864.71	212.10
865.02	212.11
865.33	212.11
865.64	212.11
865.95	212.07
866.27	212.32
866.58	212.29
866.89	212.29
867.20	212.25
867.51	212.08
867.82	212.03
868.13	212.16
868.44	212.03
868.75	212.10
869.06	212.17
869.37	212.22
869.68	212.14
869.99	212.20
870.30	212.18
870.61	212.15
870.92	212.07
871.23	212.10
871.54	212.16
871.85	212.23
872.16	212.20
872.47	212.21
872.78	212.00
873.09	212.06
873.40	212.04
873.71	212.14
874.02	212.27
874.33	212.26
874.64	212.10
874.95	212.23
875.26	212.13
875.56	212.05
875.87	211.97
876.18	211.89
876.49	212.18
876.80	212.19
877.11	212.13
877.42	212.10
877.73	212.08
878.04	212.03
878.35	212.00
878.66	212.01
878.96	212.04
879.27	212.04
879.58	212.00
879.89	211.95
880.20	211.96
880.51	211.94
880.82	211.95
881.12	212.00
881.43	211.91
881.74	211.90
882.05	211.91
882.36	211.97
882.67	212.06
882.97	211.75
883.28	211.78
883.59	211.80
883.90	211.89
884.21	211.95
884.51	211.92
884.82	211.88
885.13	211.80
885.44	211.77
885.74	211.78
886.05	211.76
886.36	211.80
886.67	211.76
886.98	211.91
887.28	211.97
887.59	211.98
887.90	212.01
888.20	212.00
888.51	212.11
888.82	212.06
889.13	212.02
889.43	212.27
889.74	212.17
890.05	212.20
890.35	212.17
890.66	212.12
890.97	212.09
891.28	212.11
891.58	212.22
891.89	212.22
892.20	212.16
892.50	212.17
892.81	212.20
893.12	212.16
893.42	211.98
893.73	211.97
894.04	211.94
894.34	211.95
894.65	211.94
894.95	211.86
895.26	211.94
895.57	212.06
895.87	211.78
896.18	211.80
896.48	211.78
896.79	211.74
897.10	211.75
897.40	211.80
897.71	211.85
898.01	211.81
898.32	211.84
898.63	211.83
898.93	211.86
899.24	211.85
899.54	211.88
899.85	211.90
900.15	211.92
900.46	211.92
900.76	211.93
901.07	211.90
901.38	211.93
901.68	211.96
901.99	211.79
902.29	211.71
902.60	211.75
902.90	211.73
903.21	211.71
903.51	211.72
903.82	211.75
904.12	211.69
904.43	211.64
904.73	211.59
905.03	211.63
905.34	211.90
905.64	211.90
905.95	211.92
906.25	211.90
906.56	211.86
906.86	211.89
907.17	211.80
907.47	211.83
907.77	211.79
908.08	211.70
908.38	211.72
908.69	211.84
908.99	211.85
909.30	211.85
909.60	211.86
909.90	211.88
910.21	211.77
910.51	211.75
910.81	211.82
911.12	211.92
911.42	211.96
911.73	211.73
912.03	211.70
912.33	211.71
912.64	211.71
912.94	211.61
913.24	211.53
913.55	211.54
913.85	211.51
914.15	211.55
914.46	211.55
914.76	211.57
915.06	211.50
915.37	211.45
915.67	211.51
915.97	211.51
916.27	211.40
916.58	211.55
916.88	211.46
917.18	211.42
917.49	211.59
917.79	211.61
918.09	211.58
918.39	211.70
918.70	211.69
919.00	211.70
919.30	211.94
919.60	212.01
919.91	211.96
920.21	212.00
920.51	211.95
920.81	211.95
921.12	211.94
921.42	211.93
921.72	212.01
922.02	211.93
922.32	212.02
922.63	212.06
922.93	212.13
923.23	212.18
923.53	212.15
923.83	211.89
924.13	211.93
924.44	211.87
924.74	211.84
925.04	211.91
925.34	211.89
925.64	211.70
925.94	211.66
926.24	211.83
926.55	211.83
926.85	211.87
927.15	211.83
927.45	211.90
927.75	211.96
928.05	211.96
928.35	211.98
928.65	212.04
928.95	212.09
929.26	211.99
929.56	212.10
929.86	212.14
930.16	212.15
930.46	212.01
930.76	212.02
931.06	211.95
931.36	211.79
931.66	211.81
931.96	211.80
932.26	211.76
932.56	211.67
932.86	211.62
933.16	211.58
933.46	211.59
933.76	211.45
934.06	211.45
934.36	211.57
934.66	211.51
934.96	211.42
935.26	211.40
935.56	211.39
935.86	211.30
936.16	211.24
936.46	211.20
936.76	211.24
937.06	211.26
937.36	211.17
937.66	211.20
937.96	211.23
938.26	211.16
938.56	211.18
938.86	211.22
939.16	211.30
939.46	211.38
939.76	211.43
940.06	211.49
940.35	211.42
940.65	211.23
940.95	211.28
941.25	211.25
941.55	211.19
941.85	211.18
942.15	211.28
942.45	211.38
942.75	211.31
943.04	211.37
943.34	211.42
943.64	211.45
943.94	211.44
944.24	211.47
944.54	211.52
944.84	211.52
945.13	211.50
945.43	211.46
945.73	211.45
946.03	211.36
946.33	211.37
946.62	211.38
946.92	211.39
947.22	211.42
947.52	211.42
947.82	211.50
948.11	211.49
948.41	211.38
948.71	211.27
949.01	211.37
949.31	211.36
949.60	211.38
949.90	211.44
950.20	211.47
950.50	211.42
950.79	211.42
951.09	211.48
951.39	211.49
951.69	211.50
951.98	211.55
952.28	211.60
952.58	211.57
952.87	211.55
953.17	211.60
953.47	211.54
953.76	211.55
954.06	211.49
954.36	211.44
954.66	211.39
954.95	211.49
955.25	211.54
955.55	211.50
955.84	211.37
956.14	211.42
956.44	211.36
956.73	211.34
957.03	211.36
957.32	211.35
957.62	211.28
957.92	211.34
958.21	211.29
958.51	211.70
958.81	211.80
959.10	211.88
959.40	212.00
959.69	212.07
959.99	212.11
960.29	212.07
960.58	212.09
960.88	212.33
961.17	212.31
961.47	212.28
961.76	212.25
962.06	212.38
962.36	212.32
962.65	212.40
962.95	212.45
963.24	212.46
963.54	212.50
963.83	212.57
964.13	212.54
964.42	212.43
964.72	212.21
965.01	212.15
965.31	212.11
965.60	211.94
965.90	212.09
966.19	211.97
966.49	212.07
966.78	212.02
967.08	211.96
967.37	211.97
967.67	211.94
967.96	212.05
968.26	212.02
968.55	212.11
968.85	212.07
969.14	212.08
969.43	212.03
969.73	212.00
970.02	211.93
970.32	211.90
970.61	211.93
970.91	211.79
971.20	211.74
971.49	211.69
971.79	211.76
972.08	211.60
972.38	211.60
972.67	211.51
972.96	211.60
973.26	211.48
973.55	211.62
973.85	211.55
974.14	211.48
974.43	211.46
974.73	211.33
975.02	211.32
975.31	211.28
975.61	211.23
975.90	211.17
976.19	211.20
976.49	211.16
976.78	211.30
977.07	211.30
977.37	211.29
977.66	211.39
977.95	211.31
978.24	211.32
978.54	211.42
978.83	211.38
979.12	211.33
979.42	211.35
979.71	211.27
980.00	211.35
980.29	211.40
980.59	211.34
980.88	211.44
981.17	211.48
981.46	211.47
981.76	211.49
982.05	211.62
982.34	211.63
982.63	211.63
982.93	211.54
983.22	211.62
983.51	211.68
983.80	211.62
984.09	211.70
984.39	211.65
984.68	211.59
984.97	211.63
985.26	211.55
985.55	211.57
985.85	211.41
986.14	211.35
986.43	211.33
986.72	211.36
987.01	211.32
987.30	211.30
987.59	211.30
987.89	211.32
988.18	211.20
988.47	211.12
988.76	211.08
989.05	211.05
989.34	210.99
989.63	211.05
989.92	211.03
990.22	210.91
990.51	210.95
990.80	210.99
991.09	211.04
991.38	211.11
991.67	211.07
991.96	211.07
992.25	211.14
992.54	211.07
992.83	211.11
993.12	211.07
993.41	211.04
993.70	211.18
993.99	211.16
994.28	211.22
994.58	211.32
994.87	211.29
995.16	211.27
995.45	211.22
995.74	211.09
996.03	211.10
996.32	211.22
996.61	211.31
996.90	211.25
997.19	211.23
997.48	211.21
997.77	211.17
998.06	211.20
998.34	211.17
998.63	211.14
998.92	211.08
999.21	211.10
999.50	211.23
999.79	211.05
1000.08	211.12
1000.37	211.14
1000.66	211.12
1000.95	211.22
1001.24	211.24
1001.53	211.30
1001.82	211.27
1002.11	211.22
1002.40	211.25
1002.68	211.22
1002.97	211.52
1003.26	211.47
1003.55	211.44
1003.84	211.44
1004.13	211.64
1004.42	211.57
1004.71	211.64
1004.99	211.66
1005.28	211.81
1005.57	211.70
1005.86	211.64
1006.15	211.53
1006.44	211.45
1006.72	211.46
1007.01	211.42
1007.30	211.49
1007.59	211.43
1007.88	211.48
1008.17	211.53
1008.45	211.46
1008.74	211.37
1009.03	211.11
1009.32	211.11
1009.60	211.08
1009.89	211.08
1010.18	210.90
1010.47	210.95
1010.76	210.87
1011.04	210.84
1011.33	210.76
1011.62	210.78
1011.91	210.82
1012.19	210.91
1012.48	210.87
1012.77	210.92
1013.05	211.06
1013.34	211.01
1013.63	210.96
1013.92	210.92
1014.20	210.89
1014.49	210.86
1014.78	210.88
1015.06	210.80
1015.35	210.80
1015.64	210.84
1015.92	210.90
1016.21	210.95
1016.50	211.02
1016.78	211.09
1017.07	211.11
1017.36	211.03
1017.64	210.99
1017.93	210.98
1018.22	210.94
1018.50	210.98
1018.79	210.86
1019.08	210.70
1019.36	210.69
1019.65	210.66
1019.93	210.73
1020.22	210.78
1020.51	211.04
1020.79	210.99
1021.08	210.35
1021.36	210.75
1021.65	210.50
1021.94	210.45
1022.22	210.95
1022.51	209.65
1022.79	211.45
1023.08	211.30
1023.36	216.30
1023.65	209.95
>>>>>End Processed Spectral Data<<<<<
