SpectraSuite Data File
++++++++++++++++++++++++++++++++++++
Date: Mon Feb 25 17:06:31 EST 2013
User: group
Dark Spectrum Present: No
Reference Spectrum Present: No
Number of Sampled Component Spectra: 1
Spectrometers: USB2E7196
Integration Time (usec): 104000 (USB2E7196)
Spectra Averaged: 20 (USB2E7196)
Boxcar Smoothing: 10 (USB2E7196)
Correct for Electrical Dark: No (USB2E7196)
Strobe/Lamp Enabled: No (USB2E7196)
Correct for Detector Non-linearity: No (USB2E7196)
Correct for Stray Light: No (USB2E7196)
Number of Pixels in Processed Spectrum: 2048
>>>>>Begin Processed Spectral Data<<<<<
339.09	0.00
339.48	199.65
339.86	199.90
340.24	201.05
340.63	203.75
341.01	210.60
341.39	205.55
341.78	207.35
342.16	209.85
342.54	210.65
342.93	198.74
343.31	208.75
343.69	209.25
344.07	209.77
344.46	210.22
344.84	210.57
345.22	210.58
345.60	210.82
345.99	210.96
346.37	211.01
346.75	211.02
347.13	211.07
347.52	211.14
347.90	211.27
348.28	211.24
348.66	211.33
349.05	211.17
349.43	211.22
349.81	211.27
350.19	211.36
350.57	211.39
350.96	211.35
351.34	211.41
351.72	211.43
352.10	211.45
352.48	211.50
352.87	211.45
353.25	211.46
353.63	211.48
354.01	211.55
354.39	211.56
354.77	211.69
355.15	211.81
355.54	211.79
355.92	211.64
356.30	211.77
356.68	211.98
357.06	212.09
357.44	212.01
357.82	212.00
358.20	212.03
358.58	212.07
358.97	212.14
359.35	212.27
359.73	212.37
360.11	212.39
360.49	212.51
360.87	212.59
361.25	212.66
361.63	212.79
362.01	212.86
362.39	212.91
362.77	212.87
363.15	212.81
363.53	212.76
363.91	212.88
364.29	212.84
364.67	212.55
365.05	212.52
365.43	212.63
365.81	212.70
366.19	212.89
366.57	213.05
366.95	213.03
367.33	212.86
367.71	212.90
368.09	212.99
368.47	212.92
368.85	212.93
369.23	213.04
369.61	212.97
369.99	213.04
370.37	213.02
370.75	213.19
371.13	213.12
371.51	213.08
371.89	213.09
372.27	213.02
372.65	212.98
373.03	212.98
373.41	212.92
373.78	212.85
374.16	212.65
374.54	212.46
374.92	212.36
375.30	212.45
375.68	212.27
376.06	212.23
376.44	212.16
376.82	212.15
377.19	212.07
377.57	212.05
377.95	211.92
378.33	211.93
378.71	211.65
379.09	211.73
379.47	211.75
379.84	211.62
380.22	211.66
380.60	211.59
380.98	211.55
381.36	211.51
381.73	211.37
382.11	211.34
382.49	211.33
382.87	211.35
383.25	211.24
383.62	211.64
384.00	211.51
384.38	211.42
384.76	211.41
385.13	211.49
385.51	211.41
385.89	211.29
386.27	211.22
386.64	211.25
387.02	211.21
387.40	211.08
387.78	211.11
388.15	211.05
388.53	211.09
388.91	210.98
389.29	210.90
389.66	211.02
390.04	210.93
390.42	210.97
390.79	210.91
391.17	210.87
391.55	210.50
391.92	210.44
392.30	210.63
392.68	210.55
393.05	210.45
393.43	210.50
393.81	210.47
394.18	210.45
394.56	210.45
394.94	210.48
395.31	210.43
395.69	210.42
396.06	210.47
396.44	210.41
396.82	210.44
397.19	210.59
397.57	210.52
397.95	210.66
398.32	210.57
398.70	210.58
399.07	210.72
399.45	210.75
399.82	210.81
400.20	210.65
400.58	210.59
400.95	210.53
401.33	210.48
401.70	210.74
402.08	210.75
402.45	210.80
402.83	210.93
403.20	211.05
403.58	211.15
403.95	211.23
404.33	211.37
404.71	211.43
405.08	211.69
405.46	211.72
405.83	211.79
406.21	211.91
406.58	212.08
406.96	212.11
407.33	212.33
407.70	212.52
408.08	213.00
408.45	213.27
408.83	213.44
409.20	213.70
409.58	213.77
409.95	214.00
410.33	214.20
410.70	214.32
411.08	214.65
411.45	214.89
411.82	215.15
412.20	215.52
412.57	216.06
412.95	216.12
413.32	216.65
413.69	217.05
414.07	217.47
414.44	217.84
414.82	218.47
415.19	219.02
415.56	219.63
415.94	220.03
416.31	220.83
416.68	221.63
417.06	222.50
417.43	223.36
417.81	224.30
418.18	225.28
418.55	226.26
418.93	227.23
419.30	228.37
419.67	229.59
420.04	230.74
420.42	231.92
420.79	233.66
421.16	235.12
421.54	236.81
421.91	238.42
422.28	240.13
422.66	241.77
423.03	243.67
423.40	245.42
423.77	247.35
424.15	249.17
424.52	251.13
424.89	253.27
425.26	255.31
425.64	257.25
426.01	259.41
426.38	261.69
426.75	264.18
427.13	266.55
427.50	269.04
427.87	271.68
428.24	274.34
428.61	276.73
428.99	279.68
429.36	282.62
429.73	285.64
430.10	288.67
430.47	291.76
430.85	294.71
431.22	298.10
431.59	301.94
431.96	305.41
432.33	309.23
432.70	312.95
433.08	317.36
433.45	321.59
433.82	325.76
434.19	330.36
434.56	334.92
434.93	339.22
435.30	343.54
435.68	348.40
436.05	353.22
436.42	357.90
436.79	362.10
437.16	366.70
437.53	371.64
437.90	376.47
438.27	381.33
438.64	386.23
439.01	391.00
439.38	394.93
439.75	399.04
440.13	403.67
440.50	407.87
440.87	411.35
441.24	415.08
441.61	419.09
441.98	422.25
442.35	425.76
442.72	429.33
443.09	432.95
443.46	435.02
443.83	436.48
444.20	437.86
444.57	439.81
444.94	440.93
445.31	442.01
445.68	443.48
446.05	444.13
446.42	443.94
446.79	443.54
447.16	443.09
447.53	442.91
447.90	441.33
448.27	439.89
448.64	437.68
449.01	436.15
449.37	433.35
449.74	430.41
450.11	427.06
450.48	423.30
450.85	419.22
451.22	415.90
451.59	412.68
451.96	409.61
452.33	405.40
452.70	401.47
453.07	396.85
453.43	391.90
453.80	387.42
454.17	383.23
454.54	379.15
454.91	374.81
455.28	370.50
455.65	366.58
456.02	363.03
456.38	359.58
456.75	355.30
457.12	351.55
457.49	348.01
457.86	344.39
458.23	341.57
458.59	338.39
458.96	335.21
459.33	332.33
459.70	329.48
460.07	327.26
460.43	324.71
460.80	322.28
461.17	320.08
461.54	317.79
461.91	315.61
462.27	313.36
462.64	311.44
463.01	309.37
463.38	307.43
463.74	304.96
464.11	303.18
464.48	301.59
464.85	299.96
465.21	298.76
465.58	297.40
465.95	295.63
466.32	294.26
466.68	292.84
467.05	291.47
467.42	290.05
467.78	288.48
468.15	287.11
468.52	286.08
468.88	284.69
469.25	283.44
469.62	282.52
469.98	281.49
470.35	280.59
470.72	279.66
471.08	278.49
471.45	277.69
471.82	276.98
472.18	276.01
472.55	275.44
472.92	274.56
473.28	273.83
473.65	273.05
474.02	272.39
474.38	271.77
474.75	271.28
475.11	270.67
475.48	270.35
475.85	269.95
476.21	269.56
476.58	269.30
476.94	269.09
477.31	268.71
477.67	268.43
478.04	268.15
478.41	267.88
478.77	268.07
479.14	267.83
479.50	267.53
479.87	267.47
480.23	267.25
480.60	267.08
480.96	267.04
481.33	267.21
481.69	267.23
482.06	267.30
482.42	267.26
482.79	267.41
483.15	267.51
483.52	267.71
483.88	267.72
484.25	267.85
484.61	267.95
484.98	268.17
485.34	268.53
485.71	268.84
486.07	269.27
486.44	269.25
486.80	269.61
487.17	269.99
487.53	270.60
487.90	271.16
488.26	271.90
488.62	272.51
488.99	273.08
489.35	273.71
489.72	274.35
490.08	275.04
490.44	275.63
490.81	276.34
491.17	277.06
491.54	277.99
491.90	278.91
492.26	279.83
492.63	280.77
492.99	281.57
493.36	282.54
493.72	283.54
494.08	284.62
494.45	285.75
494.81	286.99
495.17	288.05
495.54	289.21
495.90	290.32
496.26	291.51
496.63	292.65
496.99	293.87
497.35	295.16
497.72	296.51
498.08	297.91
498.44	299.22
498.80	300.66
499.17	302.14
499.53	303.46
499.89	304.96
500.26	306.38
500.62	307.84
500.98	309.48
501.34	310.98
501.71	312.62
502.07	314.04
502.43	315.55
502.79	316.96
503.16	318.49
503.52	319.87
503.88	321.28
504.24	322.84
504.60	324.37
504.97	326.00
505.33	327.54
505.69	329.30
506.05	331.01
506.41	332.60
506.78	334.05
507.14	335.66
507.50	337.15
507.86	338.80
508.22	340.51
508.59	342.03
508.95	343.61
509.31	345.35
509.67	347.09
510.03	348.66
510.39	350.33
510.75	352.05
511.12	353.74
511.48	355.42
511.84	357.09
512.20	358.76
512.56	360.46
512.92	362.12
513.28	363.71
513.64	365.27
514.00	366.95
514.37	368.64
514.73	370.39
515.09	372.30
515.45	373.90
515.81	375.56
516.17	377.20
516.53	378.93
516.89	380.44
517.25	382.10
517.61	383.98
517.97	385.75
518.33	387.43
518.69	389.22
519.05	391.12
519.41	392.86
519.77	395.00
520.13	396.68
520.49	398.63
520.85	400.50
521.21	402.53
521.57	404.43
521.93	406.36
522.29	408.35
522.65	410.23
523.01	412.34
523.37	414.33
523.73	416.42
524.09	418.50
524.45	420.64
524.81	422.93
525.17	425.04
525.53	427.39
525.89	429.72
526.25	432.12
526.61	434.37
526.97	436.82
527.33	439.19
527.68	441.95
528.04	444.45
528.40	446.94
528.76	449.36
529.12	451.99
529.48	454.75
529.84	457.34
530.20	460.05
530.56	462.78
530.91	465.66
531.27	468.52
531.63	471.41
531.99	474.38
532.35	477.07
532.71	480.02
533.07	483.03
533.42	486.31
533.78	489.41
534.14	492.47
534.50	495.40
534.86	498.35
535.21	501.13
535.57	504.25
535.93	507.36
536.29	510.69
536.65	513.85
537.00	516.88
537.36	519.90
537.72	522.92
538.08	525.94
538.44	529.00
538.79	532.10
539.15	535.26
539.51	538.34
539.87	541.58
540.22	544.68
540.58	547.86
540.94	550.82
541.29	553.77
541.65	556.66
542.01	559.93
542.37	563.15
542.72	566.45
543.08	569.63
543.44	572.75
543.79	575.65
544.15	578.68
544.51	581.92
544.87	585.10
545.22	588.14
545.58	591.32
545.94	594.35
546.29	597.35
546.65	600.12
547.01	602.75
547.36	605.70
547.72	608.50
548.07	611.25
548.43	613.83
548.79	616.49
549.14	619.25
549.50	621.87
549.86	624.05
550.21	626.46
550.57	628.85
550.92	631.12
551.28	633.52
551.64	635.91
551.99	638.22
552.35	640.50
552.70	642.83
553.06	644.98
553.41	647.28
553.77	649.58
554.13	651.76
554.48	654.29
554.84	656.48
555.19	658.58
555.55	660.56
555.90	662.50
556.26	664.45
556.61	666.26
556.97	667.75
557.32	669.66
557.68	671.50
558.03	673.04
558.39	674.78
558.74	676.53
559.10	678.14
559.45	679.65
559.81	681.45
560.16	682.83
560.52	684.42
560.87	685.81
561.23	687.00
561.58	688.85
561.94	689.99
562.29	691.20
562.64	692.64
563.00	693.92
563.35	695.42
563.71	697.09
564.06	698.64
564.42	700.26
564.77	701.76
565.12	703.05
565.48	704.78
565.83	706.10
566.19	707.34
566.54	708.40
566.89	709.47
567.25	710.70
567.60	712.08
567.96	713.34
568.31	714.51
568.66	715.61
569.02	716.08
569.37	716.81
569.72	717.66
570.08	718.25
570.43	718.88
570.78	719.26
571.14	719.34
571.49	719.80
571.84	720.20
572.20	720.17
572.55	720.49
572.90	720.15
573.26	720.06
573.61	719.95
573.96	719.97
574.31	719.91
574.67	719.36
575.02	718.81
575.37	718.24
575.72	717.60
576.08	717.29
576.43	716.84
576.78	716.47
577.13	716.05
577.49	715.60
577.84	715.02
578.19	714.65
578.54	714.42
578.90	713.85
579.25	713.43
579.60	713.00
579.95	712.30
580.30	711.96
580.66	711.60
581.01	710.94
581.36	710.42
581.71	709.59
582.06	709.05
582.42	708.62
582.77	707.84
583.12	707.26
583.47	706.63
583.82	706.21
584.17	705.70
584.53	705.10
584.88	704.42
585.23	703.91
585.58	703.13
585.93	702.48
586.28	701.98
586.63	701.08
586.98	700.52
587.34	700.11
587.69	699.23
588.04	698.45
588.39	697.73
588.74	696.75
589.09	696.27
589.44	695.42
589.79	694.69
590.14	694.01
590.49	693.09
590.84	692.17
591.19	691.29
591.54	690.33
591.89	689.02
592.25	688.29
592.60	687.19
592.95	686.14
593.30	684.63
593.65	683.17
594.00	682.01
594.35	681.80
594.70	680.21
595.05	679.21
595.40	678.09
595.75	676.80
596.10	675.76
596.45	674.50
596.80	673.57
597.15	672.50
597.50	671.20
597.85	670.29
598.19	668.92
598.54	667.82
598.89	666.74
599.24	665.98
599.59	664.76
599.94	663.61
600.29	662.61
600.64	661.75
600.99	660.60
601.34	659.63
601.69	657.49
602.04	656.35
602.39	655.15
602.74	654.13
603.08	653.37
603.43	652.52
603.78	651.43
604.13	650.16
604.48	648.96
604.83	648.14
605.18	647.15
605.53	646.12
605.87	644.84
606.22	643.71
606.57	642.55
606.92	641.29
607.27	640.10
607.62	638.69
607.96	637.68
608.31	636.76
608.66	635.41
609.01	634.15
609.36	632.85
609.70	631.62
610.05	630.15
610.40	628.56
610.75	626.94
611.10	625.69
611.44	624.03
611.79	622.27
612.14	620.57
612.49	618.45
612.83	616.94
613.18	615.11
613.53	613.35
613.88	611.31
614.22	609.49
614.57	607.92
614.92	606.26
615.27	604.33
615.61	602.42
615.96	600.67
616.31	598.94
616.65	597.44
617.00	595.53
617.35	593.77
617.70	591.92
618.04	589.92
618.39	587.73
618.74	586.09
619.08	584.16
619.43	582.34
619.78	580.86
620.12	578.90
620.47	577.29
620.82	575.26
621.16	573.33
621.51	571.43
621.85	569.37
622.20	567.42
622.55	565.45
622.89	563.36
623.24	561.58
623.59	559.53
623.93	557.52
624.28	555.60
624.62	553.88
624.97	552.15
625.32	550.34
625.66	548.63
626.01	546.76
626.35	545.13
626.70	543.22
627.04	541.56
627.39	539.71
627.73	537.76
628.08	536.19
628.43	534.46
628.77	532.77
629.12	531.02
629.46	529.30
629.81	527.65
630.15	526.05
630.50	524.12
630.84	522.29
631.19	520.38
631.53	518.69
631.88	516.62
632.22	514.68
632.57	512.95
632.91	511.14
633.26	509.34
633.60	507.41
633.95	505.75
634.29	503.66
634.64	502.02
634.98	500.11
635.32	498.37
635.67	496.73
636.01	494.98
636.36	493.10
636.70	491.54
637.05	489.65
637.39	487.95
637.73	486.36
638.08	485.03
638.42	483.53
638.77	481.79
639.11	480.20
639.45	478.55
639.80	476.81
640.14	474.95
640.49	473.16
640.83	471.41
641.17	469.57
641.52	467.76
641.86	465.96
642.20	464.46
642.55	462.46
642.89	460.72
643.23	458.85
643.58	457.29
643.92	455.31
644.26	453.59
644.61	451.84
644.95	450.04
645.29	448.12
645.64	446.40
645.98	444.63
646.32	442.87
646.66	441.00
647.01	439.24
647.35	437.75
647.69	435.89
648.04	434.41
648.38	432.70
648.72	431.05
649.06	429.45
649.41	427.63
649.75	426.07
650.09	424.40
650.43	422.74
650.78	421.00
651.12	419.33
651.46	417.67
651.80	415.93
652.14	414.29
652.49	412.74
652.83	410.98
653.17	409.45
653.51	407.77
653.85	406.33
654.20	404.70
654.54	402.86
654.88	401.33
655.22	399.61
655.56	397.95
655.90	396.31
656.25	394.60
656.59	392.96
656.93	391.32
657.27	389.87
657.61	388.23
657.95	386.64
658.29	385.06
658.64	383.65
658.98	382.14
659.32	380.48
659.66	378.80
660.00	377.18
660.34	375.42
660.68	373.83
661.02	372.16
661.36	370.69
661.70	369.20
662.05	367.83
662.39	366.57
662.73	365.28
663.07	364.13
663.41	362.83
663.75	361.51
664.09	360.18
664.43	358.59
664.77	357.39
665.11	355.96
665.45	354.69
665.79	353.31
666.13	352.01
666.47	350.70
666.81	349.36
667.15	348.20
667.49	347.19
667.83	346.06
668.17	344.89
668.51	343.78
668.85	342.81
669.19	341.81
669.53	340.45
669.87	339.19
670.21	337.87
670.55	336.60
670.89	335.66
671.23	334.65
671.57	333.62
671.91	332.47
672.25	331.45
672.58	330.51
672.92	329.37
673.26	328.34
673.60	327.40
673.94	326.44
674.28	325.39
674.62	324.39
674.96	323.40
675.30	322.40
675.64	321.31
675.97	320.21
676.31	319.10
676.65	318.16
676.99	317.38
677.33	316.31
677.67	315.38
678.01	314.23
678.34	313.25
678.68	312.41
679.02	311.41
679.36	310.46
679.70	309.39
680.04	308.46
680.37	307.50
680.71	306.62
681.05	305.82
681.39	304.96
681.73	304.05
682.06	303.17
682.40	302.41
682.74	301.63
683.08	300.84
683.42	299.88
683.75	299.08
684.09	298.08
684.43	297.29
684.77	296.40
685.10	295.58
685.44	294.64
685.78	293.73
686.12	292.95
686.45	292.15
686.79	291.38
687.13	290.70
687.46	289.95
687.80	289.24
688.14	288.31
688.48	287.50
688.81	286.70
689.15	285.93
689.49	285.05
689.82	284.26
690.16	283.39
690.50	282.67
690.83	281.80
691.17	281.05
691.51	280.37
691.84	279.72
692.18	278.98
692.52	278.32
692.85	277.72
693.19	277.17
693.52	276.51
693.86	275.75
694.20	275.03
694.53	274.38
694.87	273.66
695.21	273.01
695.54	272.36
695.88	271.63
696.21	271.00
696.55	270.45
696.88	269.78
697.22	269.17
697.56	268.65
697.89	268.18
698.23	267.58
698.56	266.91
698.90	266.34
699.23	265.76
699.57	265.22
699.90	264.58
700.24	263.87
700.58	263.28
700.91	262.86
701.25	262.50
701.58	262.03
701.92	261.49
702.25	261.00
702.59	260.37
702.92	259.92
703.26	259.40
703.59	258.77
703.93	258.62
704.26	258.17
704.60	257.71
704.93	257.13
705.26	256.60
705.60	256.20
705.93	255.65
706.27	255.27
706.60	254.87
706.94	254.51
707.27	254.02
707.61	253.58
707.94	253.09
708.27	252.45
708.61	251.87
708.94	251.40
709.28	250.88
709.61	250.54
709.94	250.19
710.28	249.72
710.61	249.39
710.95	248.62
711.28	248.45
711.61	248.01
711.95	247.68
712.28	247.31
712.61	246.90
712.95	246.78
713.28	246.52
713.61	246.10
713.95	245.68
714.28	245.45
714.61	245.06
714.95	244.70
715.28	244.32
715.61	243.96
715.95	243.68
716.28	243.28
716.61	242.92
716.95	242.48
717.28	242.20
717.61	241.90
717.94	241.68
718.28	241.12
718.61	240.78
718.94	240.40
719.27	240.15
719.61	239.90
719.94	239.41
720.27	238.93
720.60	238.62
720.94	238.30
721.27	238.00
721.60	237.85
721.93	237.55
722.27	237.40
722.60	237.25
722.93	236.92
723.26	236.86
723.59	236.62
723.93	236.41
724.26	236.12
724.59	235.79
724.92	235.54
725.25	235.41
725.59	235.21
725.92	235.04
726.25	234.75
726.58	234.51
726.91	234.32
727.24	234.21
727.57	234.00
727.91	233.73
728.24	233.52
728.57	233.19
728.90	233.04
729.23	232.78
729.56	232.69
729.89	232.50
730.22	232.19
730.55	231.99
730.89	231.83
731.22	231.65
731.55	231.57
731.88	231.41
732.21	231.17
732.54	230.88
732.87	230.68
733.20	230.58
733.53	230.39
733.86	230.22
734.19	229.98
734.52	229.82
734.85	229.94
735.18	229.72
735.51	229.72
735.84	229.57
736.17	229.56
736.50	229.22
736.83	229.44
737.16	229.30
737.49	229.10
737.82	228.92
738.15	228.85
738.48	228.61
738.81	228.39
739.14	228.19
739.47	228.04
739.80	227.93
740.13	227.82
740.46	227.58
740.79	227.35
741.12	227.20
741.45	227.07
741.78	226.71
742.11	226.65
742.44	226.43
742.77	226.33
743.10	226.08
743.43	225.94
743.75	225.44
744.08	225.79
744.41	225.66
744.74	225.50
745.07	225.17
745.40	225.10
745.73	225.17
746.06	224.99
746.39	224.85
746.71	224.68
747.04	224.45
747.37	224.30
747.70	224.28
748.03	224.15
748.36	224.03
748.68	223.88
749.01	223.55
749.34	223.40
749.67	223.21
750.00	223.05
750.33	223.11
750.65	223.02
750.98	222.44
751.31	222.30
751.64	222.15
751.97	222.32
752.29	222.18
752.62	221.84
752.95	221.74
753.28	221.54
753.60	221.36
753.93	221.31
754.26	221.28
754.59	221.00
754.91	220.84
755.24	220.70
755.57	220.64
755.90	220.59
756.22	220.44
756.55	220.30
756.88	220.11
757.20	219.79
757.53	219.61
757.86	219.48
758.19	219.43
758.51	219.34
758.84	219.08
759.17	218.98
759.49	218.91
759.82	218.98
760.15	218.98
760.47	218.93
760.80	218.74
761.13	218.72
761.45	218.67
761.78	218.59
762.11	218.57
762.43	218.40
762.76	218.31
763.08	218.17
763.41	218.15
763.74	218.12
764.06	218.05
764.39	218.00
764.71	217.93
765.04	217.82
765.37	217.68
765.69	217.60
766.02	217.45
766.34	217.38
766.67	217.16
767.00	217.10
767.32	217.16
767.65	217.34
767.97	217.19
768.30	217.09
768.62	217.02
768.95	216.89
769.27	216.74
769.60	216.80
769.92	216.78
770.25	216.60
770.57	216.55
770.90	216.56
771.22	216.45
771.55	216.37
771.87	216.38
772.20	216.37
772.52	216.54
772.85	216.89
773.17	216.83
773.50	216.83
773.82	216.80
774.15	216.62
774.47	216.32
774.80	216.27
775.12	216.27
775.45	216.21
775.77	216.20
776.09	216.24
776.42	216.17
776.74	216.17
777.07	216.10
777.39	215.99
777.72	215.88
778.04	215.88
778.36	215.83
778.69	215.83
779.01	215.72
779.33	215.36
779.66	214.99
779.98	214.87
780.31	214.77
780.63	214.83
780.95	214.90
781.28	214.85
781.60	214.75
781.92	214.67
782.25	214.71
782.57	214.61
782.89	214.51
783.22	214.51
783.54	214.50
783.86	214.55
784.19	214.48
784.51	214.49
784.83	214.44
785.16	214.40
785.48	214.30
785.80	214.39
786.12	214.47
786.45	214.41
786.77	214.44
787.09	214.39
787.42	214.31
787.74	214.26
788.06	214.32
788.38	214.32
788.71	214.32
789.03	214.28
789.35	214.29
789.67	214.26
789.99	214.13
790.32	214.03
790.64	214.09
790.96	214.34
791.28	214.23
791.61	214.17
791.93	214.17
792.25	214.16
792.57	214.39
792.89	214.31
793.21	214.35
793.54	214.36
793.86	214.36
794.18	214.30
794.50	214.22
794.82	214.10
795.14	214.13
795.47	214.18
795.79	214.16
796.11	214.08
796.43	214.07
796.75	214.11
797.07	214.14
797.39	214.10
797.71	213.91
798.04	213.91
798.36	213.90
798.68	213.84
799.00	213.95
799.32	213.72
799.64	213.75
799.96	213.71
800.28	213.72
800.60	213.64
800.92	213.62
801.24	213.56
801.56	213.64
801.89	213.59
802.21	213.50
802.53	213.43
802.85	213.48
803.17	213.60
803.49	213.44
803.81	213.34
804.13	213.32
804.45	213.23
804.77	213.29
805.09	213.27
805.41	213.28
805.73	213.06
806.05	212.94
806.37	212.81
806.69	212.76
807.01	212.73
807.33	212.78
807.65	212.70
807.97	212.82
808.28	212.72
808.60	212.67
808.92	212.71
809.24	212.92
809.56	212.87
809.88	212.76
810.20	212.89
810.52	212.96
810.84	212.81
811.16	212.80
811.48	212.77
811.80	212.94
812.12	212.85
812.43	212.99
812.75	213.01
813.07	212.99
813.39	213.00
813.71	212.90
814.03	212.80
814.35	212.75
814.67	212.59
814.98	212.59
815.30	212.58
815.62	212.40
815.94	212.13
816.26	212.09
816.58	211.99
816.89	211.90
817.21	211.77
817.53	211.84
817.85	211.84
818.17	211.79
818.48	211.59
818.80	211.68
819.12	211.57
819.44	211.48
819.76	211.50
820.07	211.48
820.39	211.49
820.71	211.58
821.03	211.61
821.34	211.61
821.66	211.70
821.98	211.77
822.30	211.87
822.61	212.09
822.93	212.11
823.25	212.18
823.57	212.20
823.88	212.29
824.20	212.28
824.52	212.30
824.83	212.28
825.15	212.30
825.47	212.28
825.79	212.27
826.10	212.26
826.42	212.26
826.74	212.31
827.05	212.31
827.37	212.34
827.69	212.31
828.00	212.31
828.32	212.28
828.64	212.21
828.95	212.34
829.27	212.21
829.58	212.20
829.90	212.31
830.22	212.35
830.53	212.29
830.85	212.19
831.17	212.16
831.48	212.14
831.80	212.16
832.11	212.14
832.43	212.05
832.75	212.06
833.06	212.25
833.38	212.15
833.69	212.10
834.01	212.01
834.32	212.03
834.64	212.04
834.96	211.94
835.27	211.96
835.59	211.80
835.90	211.75
836.22	211.72
836.53	211.60
836.85	211.53
837.16	211.89
837.48	211.92
837.79	212.03
838.11	212.07
838.42	212.02
838.74	212.07
839.05	212.07
839.37	212.10
839.68	211.85
840.00	211.82
840.31	211.90
840.63	211.90
840.94	211.85
841.26	211.78
841.57	211.81
841.88	211.84
842.20	211.76
842.51	211.71
842.83	211.70
843.14	211.96
843.46	211.98
843.77	211.78
844.08	211.71
844.40	211.61
844.71	211.57
845.03	211.53
845.34	211.50
845.65	211.48
845.97	211.44
846.28	211.46
846.60	211.50
846.91	211.43
847.22	211.37
847.54	211.41
847.85	211.43
848.16	211.44
848.48	211.30
848.79	211.47
849.10	211.51
849.42	211.55
849.73	211.30
850.04	211.28
850.36	211.20
850.67	211.29
850.98	211.24
851.30	211.20
851.61	211.20
851.92	211.21
852.23	211.32
852.55	211.40
852.86	211.38
853.17	211.38
853.49	211.50
853.80	211.61
854.11	211.68
854.42	211.70
854.74	211.64
855.05	211.70
855.36	211.56
855.67	211.58
855.99	211.54
856.30	211.92
856.61	211.80
856.92	211.73
857.23	211.76
857.55	211.75
857.86	211.78
858.17	211.86
858.48	211.77
858.79	211.75
859.11	211.69
859.42	211.77
859.73	211.72
860.04	211.65
860.35	211.50
860.66	211.37
860.98	211.40
861.29	211.43
861.60	211.40
861.91	211.52
862.22	211.42
862.53	211.40
862.84	211.00
863.16	211.20
863.47	211.18
863.78	211.15
864.09	211.25
864.40	211.29
864.71	211.30
865.02	211.36
865.33	211.28
865.64	211.25
865.95	211.19
866.27	211.44
866.58	211.46
866.89	211.53
867.20	211.54
867.51	211.55
867.82	211.55
868.13	211.63
868.44	211.50
868.75	211.61
869.06	211.64
869.37	211.67
869.68	211.56
869.99	211.60
870.30	211.66
870.61	211.63
870.92	211.51
871.23	211.49
871.54	211.50
871.85	211.60
872.16	211.64
872.47	211.61
872.78	211.45
873.09	211.43
873.40	211.47
873.71	211.45
874.02	211.42
874.33	211.35
874.64	211.30
874.95	211.37
875.26	211.22
875.56	211.24
875.87	211.20
876.18	211.24
876.49	211.56
876.80	211.49
877.11	211.47
877.42	211.52
877.73	211.49
878.04	211.46
878.35	211.52
878.66	211.53
878.96	211.50
879.27	211.49
879.58	211.46
879.89	211.39
880.20	211.52
880.51	211.56
880.82	211.60
881.12	211.60
881.43	211.54
881.74	211.59
882.05	211.53
882.36	211.59
882.67	211.56
882.97	211.23
883.28	211.25
883.59	211.11
883.90	211.18
884.21	211.24
884.51	211.22
884.82	211.11
885.13	211.09
885.44	211.13
885.74	211.06
886.05	211.08
886.36	211.09
886.67	210.98
886.98	211.08
887.28	211.15
887.59	211.22
887.90	211.20
888.20	211.21
888.51	211.25
888.82	211.19
889.13	211.20
889.43	211.50
889.74	211.36
890.05	211.39
890.35	211.31
890.66	211.17
890.97	211.20
891.28	211.17
891.58	211.19
891.89	211.19
892.20	211.16
892.50	211.10
892.81	211.10
893.12	211.11
893.42	210.91
893.73	210.92
894.04	210.82
894.34	210.90
894.65	210.85
894.95	210.84
895.26	210.83
895.57	211.03
895.87	210.62
896.18	210.77
896.48	210.84
896.79	210.81
897.10	210.91
897.40	210.90
897.71	210.89
898.01	210.82
898.32	210.89
898.63	210.96
898.93	211.00
899.24	210.93
899.54	210.91
899.85	210.93
900.15	210.84
900.46	210.83
900.76	210.85
901.07	210.88
901.38	210.86
901.68	210.89
901.99	210.72
902.29	210.79
902.60	210.69
902.90	210.68
903.21	210.65
903.51	210.55
903.82	210.67
904.12	210.71
904.43	210.81
904.73	210.68
905.03	210.65
905.34	210.96
905.64	210.91
905.95	210.91
906.25	210.96
906.56	210.99
906.86	211.02
907.17	210.99
907.47	211.00
907.77	210.95
908.08	210.89
908.38	210.87
908.69	210.84
908.99	210.94
909.30	210.92
909.60	210.99
909.90	211.02
910.21	210.85
910.51	210.75
910.81	210.68
911.12	210.79
911.42	210.73
911.73	210.31
912.03	210.42
912.33	210.43
912.64	210.38
912.94	210.27
913.24	210.27
913.55	210.28
913.85	210.21
914.15	210.34
914.46	210.33
914.76	210.31
915.06	210.31
915.37	210.31
915.67	210.28
915.97	210.31
916.27	210.28
916.58	210.33
916.88	210.37
917.18	210.44
917.49	210.70
917.79	210.77
918.09	210.89
918.39	210.99
918.70	211.04
919.00	211.10
919.30	211.31
919.60	211.25
919.91	211.20
920.21	211.25
920.51	211.13
920.81	211.17
921.12	211.25
921.42	211.19
921.72	211.18
922.02	211.22
922.32	211.21
922.63	211.25
922.93	211.47
923.23	211.40
923.53	211.31
923.83	211.05
924.13	211.09
924.44	211.11
924.74	211.11
925.04	211.16
925.34	211.11
925.64	211.03
925.94	211.03
926.24	211.29
926.55	211.21
926.85	211.29
927.15	211.27
927.45	211.23
927.75	211.27
928.05	211.31
928.35	211.26
928.65	211.33
928.95	211.39
929.26	211.21
929.56	211.32
929.86	211.37
930.16	211.27
930.46	211.21
930.76	211.16
931.06	211.06
931.36	210.87
931.66	210.93
931.96	210.92
932.26	210.94
932.56	210.75
932.86	210.84
933.16	210.85
933.46	210.85
933.76	210.80
934.06	210.96
934.36	211.10
934.66	211.10
934.96	211.07
935.26	211.05
935.56	211.12
935.86	211.10
936.16	211.09
936.46	211.09
936.76	211.08
937.06	211.09
937.36	211.15
937.66	211.21
937.96	211.17
938.26	211.12
938.56	211.09
938.86	211.07
939.16	211.12
939.46	211.12
939.76	211.09
940.06	211.15
940.35	211.06
940.65	210.83
940.95	210.87
941.25	210.80
941.55	210.75
941.85	210.72
942.15	210.77
942.45	210.86
942.75	210.87
943.04	210.90
943.34	210.91
943.64	210.82
943.94	210.81
944.24	210.87
944.54	210.89
944.84	210.88
945.13	210.86
945.43	210.77
945.73	210.74
946.03	210.77
946.33	210.69
946.62	210.70
946.92	210.73
947.22	210.72
947.52	210.75
947.82	210.81
948.11	210.73
948.41	210.69
948.71	210.57
949.01	210.65
949.31	210.59
949.60	210.71
949.90	210.88
950.20	210.87
950.50	210.84
950.79	210.83
951.09	210.97
951.39	211.00
951.69	210.98
951.98	211.04
952.28	211.08
952.58	211.14
952.87	211.10
953.17	211.10
953.47	211.13
953.76	211.17
954.06	211.15
954.36	211.13
954.66	211.11
954.95	211.19
955.25	211.17
955.55	211.31
955.84	211.18
956.14	211.12
956.44	211.15
956.73	211.13
957.03	211.19
957.32	211.14
957.62	211.11
957.92	211.19
958.21	211.16
958.51	211.59
958.81	211.61
959.10	211.65
959.40	211.77
959.69	211.81
959.99	211.86
960.29	211.82
960.58	211.77
960.88	211.89
961.17	211.84
961.47	211.95
961.76	211.86
962.06	211.93
962.36	211.88
962.65	211.94
962.95	211.95
963.24	211.86
963.54	211.81
963.83	211.84
964.13	211.85
964.42	211.74
964.72	211.42
965.01	211.36
965.31	211.29
965.60	211.16
965.90	211.36
966.19	211.25
966.49	211.29
966.78	211.35
967.08	211.31
967.37	211.24
967.67	211.13
967.96	211.25
968.26	211.22
968.55	211.23
968.85	211.19
969.14	211.13
969.43	211.15
969.73	211.14
970.02	211.13
970.32	211.09
970.61	211.08
970.91	210.96
971.20	210.90
971.49	210.85
971.79	210.90
972.08	210.61
972.38	210.63
972.67	210.56
972.96	210.60
973.26	210.46
973.55	210.65
973.85	210.64
974.14	210.58
974.43	210.55
974.73	210.55
975.02	210.52
975.31	210.58
975.61	210.58
975.90	210.58
976.19	210.57
976.49	210.66
976.78	210.66
977.07	210.69
977.37	210.77
977.66	210.87
977.95	210.79
978.24	210.89
978.54	210.97
978.83	211.03
979.12	211.09
979.42	211.17
979.71	211.09
980.00	211.08
980.29	211.07
980.59	211.00
980.88	211.11
981.17	211.17
981.46	211.24
981.76	211.26
982.05	211.37
982.34	211.33
982.63	211.33
982.93	211.42
983.22	211.55
983.51	211.55
983.80	211.60
984.09	211.73
984.39	211.67
984.68	211.66
984.97	211.69
985.26	211.61
985.55	211.64
985.85	211.56
986.14	211.58
986.43	211.61
986.72	211.70
987.01	211.64
987.30	211.62
987.59	211.53
987.89	211.58
988.18	211.50
988.47	211.51
988.76	211.45
989.05	211.35
989.34	211.20
989.63	211.34
989.92	211.29
990.22	211.22
990.51	211.23
990.80	211.18
991.09	211.16
991.38	211.22
991.67	211.22
991.96	211.18
992.25	211.22
992.54	211.19
992.83	211.18
993.12	211.05
993.41	211.09
993.70	211.18
993.99	211.20
994.28	211.25
994.58	211.31
994.87	211.21
995.16	211.25
995.45	211.20
995.74	211.08
996.03	211.14
996.32	211.09
996.61	211.16
996.90	211.13
997.19	211.11
997.48	211.11
997.77	211.05
998.06	211.13
998.34	211.03
998.63	211.03
998.92	210.97
999.21	211.03
999.50	210.97
999.79	210.85
1000.08	210.75
1000.37	210.70
1000.66	210.56
1000.95	210.69
1001.24	210.71
1001.53	210.80
1001.82	210.82
1002.11	210.72
1002.40	210.85
1002.68	210.91
1002.97	211.12
1003.26	211.08
1003.55	210.99
1003.84	211.03
1004.13	211.16
1004.42	211.20
1004.71	211.13
1004.99	211.16
1005.28	211.28
1005.57	211.26
1005.86	211.28
1006.15	211.32
1006.44	211.27
1006.72	211.34
1007.01	211.31
1007.30	211.32
1007.59	211.29
1007.88	211.16
1008.17	211.17
1008.45	211.03
1008.74	210.88
1009.03	210.77
1009.32	210.77
1009.60	210.76
1009.89	210.72
1010.18	210.50
1010.47	210.50
1010.76	210.51
1011.04	210.52
1011.33	210.50
1011.62	210.61
1011.91	210.57
1012.19	210.61
1012.48	210.64
1012.77	210.72
1013.05	210.81
1013.34	210.81
1013.63	210.83
1013.92	210.99
1014.20	210.98
1014.49	211.01
1014.78	211.07
1015.06	210.91
1015.35	210.92
1015.64	211.03
1015.92	211.07
1016.21	211.19
1016.50	211.21
1016.78	211.26
1017.07	211.23
1017.36	211.19
1017.64	211.07
1017.93	211.15
1018.22	211.04
1018.50	211.04
1018.79	210.97
1019.08	210.86
1019.36	210.91
1019.65	210.77
1019.93	210.77
1020.22	210.77
1020.51	210.94
1020.79	210.90
1021.08	209.70
1021.36	210.20
1021.65	210.50
1021.94	210.70
1022.22	211.65
1022.51	209.10
1022.79	212.25
1023.08	210.15
1023.36	213.95
1023.65	210.65
>>>>>End Processed Spectral Data<<<<<
