SpectraSuite Data File
++++++++++++++++++++++++++++++++++++
Date: Mon Feb 25 17:09:42 EST 2013
User: group
Dark Spectrum Present: No
Reference Spectrum Present: No
Number of Sampled Component Spectra: 1
Spectrometers: USB2E7196
Integration Time (usec): 104000 (USB2E7196)
Spectra Averaged: 20 (USB2E7196)
Boxcar Smoothing: 10 (USB2E7196)
Correct for Electrical Dark: No (USB2E7196)
Strobe/Lamp Enabled: No (USB2E7196)
Correct for Detector Non-linearity: No (USB2E7196)
Correct for Stray Light: No (USB2E7196)
Number of Pixels in Processed Spectrum: 2048
>>>>>Begin Processed Spectral Data<<<<<
339.09	0.00
339.48	197.80
339.86	199.40
340.24	201.15
340.63	202.25
341.01	208.75
341.39	205.65
341.78	206.80
342.16	206.75
342.54	207.15
342.93	197.79
343.31	207.78
343.69	208.34
344.07	208.85
344.46	209.31
344.84	209.71
345.22	209.81
345.60	210.05
345.99	210.20
346.37	210.40
346.75	210.58
347.13	210.54
347.52	210.59
347.90	210.75
348.28	210.83
348.66	210.80
349.05	210.64
349.43	210.66
349.81	210.67
350.19	210.69
350.57	210.65
350.96	210.78
351.34	210.87
351.72	210.96
352.10	210.98
352.48	211.01
352.87	211.06
353.25	211.14
353.63	211.21
354.01	211.32
354.39	211.38
354.77	211.42
355.15	211.71
355.54	211.71
355.92	211.65
356.30	211.72
356.68	212.14
357.06	212.26
357.44	212.27
357.82	212.40
358.20	212.54
358.58	212.60
358.97	212.69
359.35	212.80
359.73	212.94
360.11	213.06
360.49	213.12
360.87	213.17
361.25	213.24
361.63	213.38
362.01	213.45
362.39	213.49
362.77	213.54
363.15	213.52
363.53	213.60
363.91	213.71
364.29	213.74
364.67	213.42
365.05	213.52
365.43	213.63
365.81	213.61
366.19	213.78
366.57	213.92
366.95	213.80
367.33	213.69
367.71	213.62
368.09	213.64
368.47	213.68
368.85	213.59
369.23	213.65
369.61	213.51
369.99	213.59
370.37	213.67
370.75	213.86
371.13	213.73
371.51	213.73
371.89	213.68
372.27	213.59
372.65	213.55
373.03	213.42
373.41	213.37
373.78	213.36
374.16	213.13
374.54	213.04
374.92	213.00
375.30	213.04
375.68	212.92
376.06	212.90
376.44	212.78
376.82	212.81
377.19	212.73
377.57	212.70
377.95	212.57
378.33	212.44
378.71	212.13
379.09	212.19
379.47	212.12
379.84	212.12
380.22	212.12
380.60	212.04
380.98	211.98
381.36	211.87
381.73	211.79
382.11	211.74
382.49	211.69
382.87	211.62
383.25	211.54
383.62	212.01
384.00	211.88
384.38	211.87
384.76	211.92
385.13	212.03
385.51	211.95
385.89	211.82
386.27	211.76
386.64	211.84
387.02	211.75
387.40	211.59
387.78	211.49
388.15	211.43
388.53	211.35
388.91	211.35
389.29	211.33
389.66	211.33
390.04	211.35
390.42	211.42
390.79	211.46
391.17	211.46
391.55	210.99
391.92	210.93
392.30	210.95
392.68	210.82
393.05	210.67
393.43	210.67
393.81	210.71
394.18	210.63
394.56	210.56
394.94	210.56
395.31	210.55
395.69	210.65
396.06	210.64
396.44	210.68
396.82	210.59
397.19	210.79
397.57	210.74
397.95	210.75
398.32	210.61
398.70	210.55
399.07	210.56
399.45	210.55
399.82	210.63
400.20	210.57
400.58	210.54
400.95	210.45
401.33	210.50
401.70	210.68
402.08	210.70
402.45	210.75
402.83	210.91
403.20	211.03
403.58	211.04
403.95	211.20
404.33	211.28
404.71	211.44
405.08	211.65
405.46	211.80
405.83	211.91
406.21	212.00
406.58	212.18
406.96	212.25
407.33	212.44
407.70	212.61
408.08	213.05
408.45	213.30
408.83	213.56
409.20	213.67
409.58	213.70
409.95	213.95
410.33	214.13
410.70	214.18
411.08	214.47
411.45	214.70
411.82	214.88
412.20	215.25
412.57	215.73
412.95	215.71
413.32	216.04
413.69	216.33
414.07	216.65
414.44	217.02
414.82	217.44
415.19	217.91
415.56	218.37
415.94	218.76
416.31	219.34
416.68	219.91
417.06	220.71
417.43	221.42
417.81	222.22
418.18	223.12
418.55	224.00
418.93	224.80
419.30	225.72
419.67	226.72
420.04	227.71
420.42	228.66
420.79	230.14
421.16	231.33
421.54	232.79
421.91	234.19
422.28	235.63
422.66	237.11
423.03	238.78
423.40	240.32
423.77	241.83
424.15	243.47
424.52	245.19
424.89	246.97
425.26	248.74
425.64	250.40
426.01	252.13
426.38	254.06
426.75	256.04
427.13	258.05
427.50	260.12
427.87	262.38
428.24	264.57
428.61	266.54
428.99	269.00
429.36	271.37
429.73	273.92
430.10	276.36
430.47	278.95
430.85	281.34
431.22	284.16
431.59	287.34
431.96	290.15
432.33	293.20
432.70	296.23
433.08	299.75
433.45	303.17
433.82	306.52
434.19	310.36
434.56	314.15
434.93	317.57
435.30	321.12
435.68	324.89
436.05	328.75
436.42	332.51
436.79	336.05
437.16	339.77
437.53	343.61
437.90	347.53
438.27	351.41
438.64	355.38
439.01	359.03
439.38	362.21
439.75	365.52
440.13	369.22
440.50	372.73
440.87	375.60
441.24	378.60
441.61	381.88
441.98	384.21
442.35	386.91
442.72	389.77
443.09	392.55
443.46	394.30
443.83	395.37
444.20	396.35
444.57	397.72
444.94	398.59
445.31	399.39
445.68	400.47
446.05	400.88
446.42	400.60
446.79	400.33
447.16	399.88
447.53	399.53
447.90	398.14
448.27	396.80
448.64	394.87
449.01	393.38
449.37	390.86
449.74	388.35
450.11	385.77
450.48	382.66
450.85	379.40
451.22	376.57
451.59	374.01
451.96	371.42
452.33	367.89
452.70	364.75
453.07	360.95
453.43	356.81
453.80	353.01
454.17	349.55
454.54	346.13
454.91	342.49
455.28	339.02
455.65	335.74
456.02	332.95
456.38	330.19
456.75	326.81
457.12	323.89
457.49	321.17
457.86	318.07
458.23	315.81
458.59	313.15
458.96	310.45
459.33	308.04
459.70	305.80
460.07	304.11
460.43	301.95
460.80	300.00
461.17	298.28
461.54	296.56
461.91	294.84
462.27	293.06
462.64	291.53
463.01	289.82
463.38	288.44
463.74	286.29
464.11	284.85
464.48	283.57
464.85	282.17
465.21	281.10
465.58	279.99
465.95	278.55
466.32	277.45
466.68	276.35
467.05	275.32
467.42	274.21
467.78	272.92
468.15	271.78
468.52	270.96
468.88	269.94
469.25	268.89
469.62	268.05
469.98	267.28
470.35	266.52
470.72	265.81
471.08	264.90
471.45	264.20
471.82	263.49
472.18	262.80
472.55	262.43
472.92	261.81
473.28	261.34
473.65	260.76
474.02	260.27
474.38	259.93
474.75	259.51
475.11	259.07
475.48	258.77
475.85	258.57
476.21	258.33
476.58	258.08
476.94	257.96
477.31	257.87
477.67	257.71
478.04	257.58
478.41	257.45
478.77	257.70
479.14	257.57
479.50	257.54
479.87	257.58
480.23	257.50
480.60	257.48
480.96	257.41
481.33	257.64
481.69	257.72
482.06	257.74
482.42	257.83
482.79	258.01
483.15	258.26
483.52	258.51
483.88	258.66
484.25	258.93
484.61	259.24
484.98	259.45
485.34	259.90
485.71	260.33
486.07	260.88
486.44	261.05
486.80	261.58
487.17	262.10
487.53	262.72
487.90	263.45
488.26	264.25
488.62	265.03
488.99	265.72
489.35	266.53
489.72	267.44
490.08	268.39
490.44	269.23
490.81	270.16
491.17	271.09
491.54	272.16
491.90	273.25
492.26	274.40
492.63	275.66
492.99	276.75
493.36	278.19
493.72	279.51
494.08	280.87
494.45	282.34
494.81	284.05
495.17	285.71
495.54	287.32
495.90	288.98
496.26	290.73
496.63	292.57
496.99	294.46
497.35	296.40
497.72	298.42
498.08	300.50
498.44	302.66
498.80	304.94
499.17	307.23
499.53	309.55
499.89	312.04
500.26	314.45
500.62	316.99
500.98	319.62
501.34	322.35
501.71	325.15
502.07	328.05
502.43	330.87
502.79	333.57
503.16	336.60
503.52	339.64
503.88	342.80
504.24	346.00
504.60	349.32
504.97	352.74
505.33	356.10
505.69	359.85
506.05	363.56
506.41	367.16
506.78	370.86
507.14	374.61
507.50	378.40
507.86	382.61
508.22	386.67
508.59	390.72
508.95	394.87
509.31	399.17
509.67	403.43
510.03	407.81
510.39	412.45
510.75	416.94
511.12	421.50
511.48	426.18
511.84	430.95
512.20	435.76
512.56	440.67
512.92	445.74
513.28	450.67
513.64	455.64
514.00	460.83
514.37	466.09
514.73	471.39
515.09	476.68
515.45	481.71
515.81	487.09
516.17	492.31
516.53	497.68
516.89	503.05
517.25	508.53
517.61	513.94
517.97	519.37
518.33	524.94
518.69	530.53
519.05	536.22
519.41	542.00
519.77	548.00
520.13	553.64
520.49	559.31
520.85	565.04
521.21	570.95
521.57	576.74
521.93	582.53
522.29	588.56
522.65	594.45
523.01	600.46
523.37	606.54
523.73	612.70
524.09	618.57
524.45	624.46
524.81	630.59
525.17	636.92
525.53	643.00
525.89	649.29
526.25	655.65
526.61	661.50
526.97	667.45
527.33	673.35
527.68	679.75
528.04	685.81
528.40	691.70
528.76	697.68
529.12	703.87
529.48	710.19
529.84	716.21
530.20	722.38
530.56	728.51
530.91	734.75
531.27	740.95
531.63	747.30
531.99	753.59
532.35	759.50
532.71	765.37
533.07	771.68
533.42	777.75
533.78	783.78
534.14	789.77
534.50	795.52
534.86	801.35
535.21	806.78
535.57	812.70
535.93	818.45
536.29	824.25
536.65	829.82
537.00	835.13
537.36	840.37
537.72	845.68
538.08	850.98
538.44	855.86
538.79	860.95
539.15	865.76
539.51	870.72
539.87	876.07
540.22	881.02
540.58	886.00
540.94	890.75
541.29	895.27
541.65	899.77
542.01	904.43
542.37	908.78
542.72	913.21
543.08	917.39
543.44	921.91
543.79	925.90
544.15	930.05
544.51	934.42
544.87	938.77
545.22	942.62
545.58	946.44
545.94	950.08
546.29	953.33
546.65	956.82
547.01	960.21
547.36	963.45
547.72	966.48
548.07	969.26
548.43	971.90
548.79	974.66
549.14	977.58
549.50	980.10
549.86	982.60
550.21	985.22
550.57	987.76
550.92	989.53
551.28	991.59
551.64	993.50
551.99	995.40
552.35	996.91
552.70	998.81
553.06	1000.64
553.41	1002.45
553.77	1004.52
554.13	1006.16
554.48	1007.64
554.84	1009.19
555.19	1010.64
555.55	1011.91
555.90	1012.95
556.26	1013.85
556.61	1014.81
556.97	1015.72
557.32	1016.57
557.68	1017.01
558.03	1017.76
558.39	1018.83
558.74	1019.92
559.10	1020.66
559.45	1021.39
559.81	1022.47
560.16	1022.92
560.52	1023.59
560.87	1024.07
561.23	1024.12
561.58	1024.89
561.94	1025.16
562.29	1024.98
562.64	1025.27
563.00	1025.56
563.35	1025.95
563.71	1026.72
564.06	1026.95
564.42	1027.27
564.77	1027.72
565.12	1028.17
565.48	1028.50
565.83	1028.59
566.19	1028.81
566.54	1028.59
566.89	1028.24
567.25	1028.01
567.60	1028.08
567.96	1027.70
568.31	1027.54
568.66	1027.24
569.02	1026.20
569.37	1025.42
569.72	1024.86
570.08	1023.99
570.43	1023.02
570.78	1022.12
571.14	1020.80
571.49	1019.66
571.84	1018.62
572.20	1017.25
572.55	1016.15
572.90	1014.43
573.26	1012.83
573.61	1011.00
573.96	1009.63
574.31	1007.84
574.67	1005.86
575.02	1003.66
575.37	1001.56
575.72	999.32
576.08	997.35
576.43	995.53
576.78	993.88
577.13	992.28
577.49	990.75
577.84	988.91
578.19	987.45
578.54	985.78
578.90	984.43
579.25	982.64
579.60	980.56
579.95	978.18
580.30	976.33
580.66	974.82
581.01	972.78
581.36	970.66
581.71	968.57
582.06	966.56
582.42	964.90
582.77	962.74
583.12	960.84
583.47	959.10
583.82	957.46
584.17	955.42
584.53	953.51
584.88	951.27
585.23	949.14
585.58	946.86
585.93	944.69
586.28	942.60
586.63	940.57
586.98	938.91
587.34	937.36
587.69	935.45
588.04	933.29
588.39	931.24
588.74	928.92
589.09	927.10
589.44	924.92
589.79	922.83
590.14	920.85
590.49	918.66
590.84	916.54
591.19	914.54
591.54	912.38
591.89	909.77
592.25	907.60
592.60	905.22
592.95	902.68
593.30	900.25
593.65	897.45
594.00	894.87
594.35	893.58
594.70	890.98
595.05	888.49
595.40	885.96
595.75	883.24
596.10	881.31
596.45	879.14
596.80	877.11
597.15	874.99
597.50	872.78
597.85	870.81
598.19	868.39
598.54	865.97
598.89	863.99
599.24	862.11
599.59	859.84
599.94	858.13
600.29	856.13
600.64	854.03
600.99	851.90
601.34	849.87
601.69	846.44
602.04	844.15
602.39	841.95
602.74	839.89
603.08	838.47
603.43	836.61
603.78	834.51
604.13	832.47
604.48	830.18
604.83	828.62
605.18	826.85
605.53	824.79
605.87	822.57
606.22	820.53
606.57	818.26
606.92	816.05
607.27	813.75
607.62	811.64
607.96	809.67
608.31	807.80
608.66	805.39
609.01	803.07
609.36	800.68
609.70	798.25
610.05	795.85
610.40	793.20
610.75	790.52
611.10	788.09
611.44	785.19
611.79	782.46
612.14	779.32
612.49	776.03
612.83	773.26
613.18	770.19
613.53	767.00
613.88	763.91
614.22	761.23
614.57	758.15
614.92	755.27
615.27	752.23
615.61	749.06
615.96	746.54
616.31	743.95
616.65	741.63
617.00	738.84
617.35	735.93
617.70	732.86
618.04	729.70
618.39	726.45
618.74	723.63
619.08	720.76
619.43	717.94
619.78	715.07
620.12	712.35
620.47	709.66
620.82	706.66
621.16	703.72
621.51	700.83
621.85	698.17
622.20	695.13
622.55	692.02
622.89	689.05
623.24	685.92
623.59	682.77
623.93	679.78
624.28	676.94
624.62	674.48
624.97	671.80
625.32	669.22
625.66	666.60
626.01	663.88
626.35	661.21
626.70	658.35
627.04	656.01
627.39	653.28
627.73	650.70
628.08	648.44
628.43	645.59
628.77	642.87
629.12	640.06
629.46	637.61
629.81	635.04
630.15	632.65
630.50	630.04
630.84	627.27
631.19	624.43
631.53	621.73
631.88	618.66
632.22	615.81
632.57	613.33
632.91	610.65
633.26	608.12
633.60	605.38
633.95	603.00
634.29	600.12
634.64	597.57
634.98	594.80
635.32	592.15
635.67	589.90
636.01	587.31
636.36	584.71
636.70	582.23
637.05	579.63
637.39	576.99
637.73	574.66
638.08	572.64
638.42	570.39
638.77	568.20
639.11	565.71
639.45	563.34
639.80	560.58
640.14	558.15
640.49	555.54
640.83	553.06
641.17	550.51
641.52	548.17
641.86	545.52
642.20	543.25
642.55	540.48
642.89	537.93
643.23	535.47
643.58	533.32
643.92	530.67
644.26	528.35
644.61	525.98
644.95	523.55
645.29	520.91
645.64	518.47
645.98	516.04
646.32	513.86
646.66	511.45
647.01	509.13
647.35	506.94
647.69	504.66
648.04	502.47
648.38	500.21
648.72	497.71
649.06	495.37
649.41	492.95
649.75	490.81
650.09	488.64
650.43	486.30
650.78	483.77
651.12	481.40
651.46	479.18
651.80	477.08
652.14	474.65
652.49	472.34
652.83	469.94
653.17	467.44
653.51	464.91
653.85	462.79
654.20	460.71
654.54	458.23
654.88	455.80
655.22	453.50
655.56	451.11
655.90	448.83
656.25	446.63
656.59	444.36
656.93	442.20
657.27	440.05
657.61	437.74
657.95	435.73
658.29	433.70
658.64	431.58
658.98	429.34
659.32	427.17
659.66	425.24
660.00	423.08
660.34	421.02
660.68	418.88
661.02	416.67
661.36	414.51
661.70	412.53
662.05	410.62
662.39	408.82
662.73	407.07
663.07	405.45
663.41	403.68
663.75	401.87
664.09	399.95
664.43	398.03
664.77	396.31
665.11	394.37
665.45	392.62
665.79	390.76
666.13	389.04
666.47	387.36
666.81	385.51
667.15	383.78
667.49	382.27
667.83	380.88
668.17	379.40
668.51	377.88
668.85	376.39
669.19	374.95
669.53	373.31
669.87	371.60
670.21	369.93
670.55	368.42
670.89	367.22
671.23	365.88
671.57	364.43
671.91	362.97
672.25	361.54
672.58	360.15
672.92	358.82
673.26	357.39
673.60	356.08
673.94	354.70
674.28	353.52
674.62	352.23
674.96	350.91
675.30	349.53
675.64	348.22
675.97	346.82
676.31	345.64
676.65	344.39
676.99	343.37
677.33	342.03
677.67	340.84
678.01	339.29
678.34	338.05
678.68	336.89
679.02	335.67
679.36	334.49
679.70	333.32
680.04	332.12
680.37	330.75
680.71	329.56
681.05	328.46
681.39	327.32
681.73	326.14
682.06	325.07
682.40	324.07
682.74	322.92
683.08	321.97
683.42	320.71
683.75	319.67
684.09	318.49
684.43	317.50
684.77	316.23
685.10	315.29
685.44	314.14
685.78	313.05
686.12	312.13
686.45	311.14
686.79	310.02
687.13	309.07
687.46	308.30
687.80	307.37
688.14	306.36
688.48	305.37
688.81	304.26
689.15	303.22
689.49	302.07
689.82	301.09
690.16	299.99
690.50	299.00
690.83	297.88
691.17	296.87
691.51	295.96
691.84	295.13
692.18	294.08
692.52	293.24
692.85	292.45
693.19	291.63
693.52	290.73
693.86	289.87
694.20	288.98
694.53	288.06
694.87	287.12
695.21	286.22
695.54	285.26
695.88	284.42
696.21	283.51
696.55	282.84
696.88	282.07
697.22	281.26
697.56	280.60
697.89	279.89
698.23	279.15
698.56	278.35
698.90	277.66
699.23	277.00
699.57	276.25
699.90	275.40
700.24	274.55
700.58	273.92
700.91	273.26
701.25	272.84
701.58	272.18
701.92	271.58
702.25	271.01
702.59	270.38
702.92	269.72
703.26	269.16
703.59	268.49
703.93	268.07
704.26	267.51
704.60	266.95
704.93	266.28
705.26	265.68
705.60	265.14
705.93	264.57
706.27	264.10
706.60	263.62
706.94	263.20
707.27	262.64
707.61	261.99
707.94	261.35
708.27	260.51
708.61	259.93
708.94	259.42
709.28	258.89
709.61	258.37
709.94	257.95
710.28	257.40
710.61	256.95
710.95	256.24
711.28	255.96
711.61	255.37
711.95	254.97
712.28	254.44
712.61	254.02
712.95	253.70
713.28	253.28
713.61	252.73
713.95	252.25
714.28	251.80
714.61	251.33
714.95	250.94
715.28	250.44
715.61	250.00
715.95	249.55
716.28	249.04
716.61	248.69
716.95	248.20
717.28	247.83
717.61	247.34
717.94	246.94
718.28	246.29
718.61	245.91
718.94	245.50
719.27	245.14
719.61	244.70
719.94	244.20
720.27	243.69
720.60	243.36
720.94	242.96
721.27	242.57
721.60	242.30
721.93	241.97
722.27	241.73
722.60	241.49
722.93	241.16
723.26	240.91
723.59	240.50
723.93	240.31
724.26	240.03
724.59	239.75
724.92	239.47
725.25	239.32
725.59	238.95
725.92	238.72
726.25	238.49
726.58	238.25
726.91	237.99
727.24	237.86
727.57	237.56
727.91	237.21
728.24	237.05
728.57	236.78
728.90	236.49
729.23	236.08
729.56	236.04
729.89	235.74
730.22	235.46
730.55	235.21
730.89	234.93
731.22	234.63
731.55	234.37
731.88	234.17
732.21	233.85
732.54	233.64
732.87	233.37
733.20	233.18
733.53	232.94
733.86	232.71
734.19	232.28
734.52	232.17
734.85	232.22
735.18	231.97
735.51	231.84
735.84	231.71
736.17	231.73
736.50	231.26
736.83	231.51
737.16	231.32
737.49	231.15
737.82	230.92
738.15	230.82
738.48	230.70
738.81	230.54
739.14	230.31
739.47	230.13
739.80	229.96
740.13	229.74
740.46	229.55
740.79	229.32
741.12	229.22
741.45	229.01
741.78	228.63
742.11	228.58
742.44	228.29
742.77	228.21
743.10	227.92
743.43	227.77
743.75	227.15
744.08	227.39
744.41	227.14
744.74	227.00
745.07	226.79
745.40	226.67
745.73	226.56
746.06	226.38
746.39	226.26
746.71	226.15
747.04	226.04
747.37	225.90
747.70	225.79
748.03	225.61
748.36	225.47
748.68	225.35
749.01	225.07
749.34	224.96
749.67	224.77
750.00	224.67
750.33	224.74
750.65	224.65
750.98	224.11
751.31	224.00
751.64	223.87
751.97	224.01
752.29	223.73
752.62	223.45
752.95	223.34
753.28	223.22
753.60	222.97
753.93	222.85
754.26	222.68
754.59	222.48
754.91	222.34
755.24	222.22
755.57	222.05
755.90	221.93
756.22	221.80
756.55	221.67
756.88	221.52
757.20	221.21
757.53	221.01
757.86	220.94
758.19	220.88
758.51	220.75
758.84	220.33
759.17	220.24
759.49	220.18
759.82	220.27
760.15	220.17
760.47	220.11
760.80	219.91
761.13	219.86
761.45	219.77
761.78	219.73
762.11	219.61
762.43	219.53
762.76	219.40
763.08	219.35
763.41	219.29
763.74	219.31
764.06	219.19
764.39	219.10
764.71	218.95
765.04	218.85
765.37	218.73
765.69	218.70
766.02	218.66
766.34	218.52
766.67	218.28
767.00	218.22
767.32	218.29
767.65	218.43
767.97	218.40
768.30	218.37
768.62	218.30
768.95	218.17
769.27	218.15
769.60	218.18
769.92	218.07
770.25	217.90
770.57	217.64
770.90	217.60
771.22	217.56
771.55	217.55
771.87	217.53
772.20	217.41
772.52	217.56
772.85	217.91
773.17	217.91
773.50	217.78
773.82	217.66
774.15	217.42
774.47	217.10
774.80	216.95
775.12	216.83
775.45	216.74
775.77	216.65
776.09	216.56
776.42	216.45
776.74	216.46
777.07	216.42
777.39	216.45
777.72	216.33
778.04	216.32
778.36	216.20
778.69	216.16
779.01	216.17
779.33	215.83
779.66	215.41
779.98	215.31
780.31	215.32
780.63	215.46
780.95	215.53
781.28	215.47
781.60	215.45
781.92	215.39
782.25	215.36
782.57	215.34
782.89	215.26
783.22	215.22
783.54	215.11
783.86	215.12
784.19	215.08
784.51	215.22
784.83	215.18
785.16	215.14
785.48	215.06
785.80	215.12
786.12	215.17
786.45	215.10
786.77	215.16
787.09	215.17
787.42	215.00
787.74	215.03
788.06	215.05
788.38	214.99
788.71	214.93
789.03	214.87
789.35	214.90
789.67	214.88
789.99	214.84
790.32	214.77
790.64	214.76
790.96	215.04
791.28	214.89
791.61	214.83
791.93	214.88
792.25	214.88
792.57	215.01
792.89	214.87
793.21	214.91
793.54	214.74
793.86	214.65
794.18	214.60
794.50	214.46
794.82	214.45
795.14	214.48
795.47	214.58
795.79	214.63
796.11	214.54
796.43	214.44
796.75	214.44
797.07	214.47
797.39	214.45
797.71	214.14
798.04	214.07
798.36	214.02
798.68	213.97
799.00	213.96
799.32	213.77
799.64	213.88
799.96	213.86
800.28	213.92
800.60	213.90
800.92	213.89
801.24	213.90
801.56	213.89
801.89	213.76
802.21	213.68
802.53	213.54
802.85	213.55
803.17	213.70
803.49	213.59
803.81	213.57
804.13	213.45
804.45	213.32
804.77	213.36
805.09	213.38
805.41	213.26
805.73	213.16
806.05	213.03
806.37	212.97
806.69	212.91
807.01	212.86
807.33	212.87
807.65	212.73
807.97	212.78
808.28	212.83
808.60	212.85
808.92	212.85
809.24	213.10
809.56	213.05
809.88	212.95
810.20	212.99
810.52	212.93
810.84	212.92
811.16	212.97
811.48	212.96
811.80	213.04
812.12	213.07
812.43	213.12
812.75	213.21
813.07	213.19
813.39	213.18
813.71	213.07
814.03	212.99
814.35	213.10
814.67	213.01
814.98	212.86
815.30	212.83
815.62	212.76
815.94	212.45
816.26	212.49
816.58	212.46
816.89	212.40
817.21	212.36
817.53	212.41
817.85	212.43
818.17	212.35
818.48	212.26
818.80	212.29
819.12	212.21
819.44	212.12
819.76	212.06
820.07	211.97
820.39	212.01
820.71	212.06
821.03	211.99
821.34	211.91
821.66	212.02
821.98	212.06
822.30	212.01
822.61	212.23
822.93	212.15
823.25	212.07
823.57	212.10
823.88	212.16
824.20	212.14
824.52	212.15
824.83	212.13
825.15	212.01
825.47	211.96
825.79	212.04
826.10	211.96
826.42	212.01
826.74	212.10
827.05	212.10
827.37	212.10
827.69	212.07
828.00	212.13
828.32	212.05
828.64	211.92
828.95	212.12
829.27	212.05
829.58	212.07
829.90	212.15
830.22	212.16
830.53	212.10
830.85	212.03
831.17	211.95
831.48	211.91
831.80	212.00
832.11	212.00
832.43	211.91
832.75	211.92
833.06	212.05
833.38	211.93
833.69	211.86
834.01	211.87
834.32	211.85
834.64	211.78
834.96	211.79
835.27	211.80
835.59	211.59
835.90	211.51
836.22	211.52
836.53	211.48
836.85	211.46
837.16	211.81
837.48	211.82
837.79	211.98
838.11	211.99
838.42	211.92
838.74	212.02
839.05	212.02
839.37	212.02
839.68	211.78
840.00	211.74
840.31	211.91
840.63	211.88
840.94	211.88
841.26	211.86
841.57	211.90
841.88	212.00
842.20	212.04
842.51	212.06
842.83	212.05
843.14	212.26
843.46	212.25
843.77	212.04
844.08	211.96
844.40	211.83
844.71	211.87
845.03	211.86
845.34	211.78
845.65	211.67
845.97	211.70
846.28	211.73
846.60	211.77
846.91	211.60
847.22	211.58
847.54	211.63
847.85	211.59
848.16	211.50
848.48	211.43
848.79	211.51
849.10	211.42
849.42	211.38
849.73	211.09
850.04	211.10
850.36	210.93
850.67	211.04
850.98	211.01
851.30	210.99
851.61	210.96
851.92	210.98
852.23	211.13
852.55	211.14
852.86	211.19
853.17	211.24
853.49	211.33
853.80	211.42
854.11	211.50
854.42	211.60
854.74	211.65
855.05	211.67
855.36	211.51
855.67	211.63
855.99	211.66
856.30	212.13
856.61	212.11
856.92	212.13
857.23	212.04
857.55	212.00
857.86	212.01
858.17	212.08
858.48	212.04
858.79	212.06
859.11	212.02
859.42	211.95
859.73	211.89
860.04	211.91
860.35	211.74
860.66	211.59
860.98	211.59
861.29	211.57
861.60	211.53
861.91	211.60
862.22	211.52
862.53	211.47
862.84	211.07
863.16	211.08
863.47	211.08
863.78	211.09
864.09	211.12
864.40	211.15
864.71	211.13
865.02	211.08
865.33	210.95
865.64	210.92
865.95	210.94
866.27	211.21
866.58	211.15
866.89	211.28
867.20	211.30
867.51	211.22
867.82	211.26
868.13	211.34
868.44	211.24
868.75	211.30
869.06	211.22
869.37	211.19
869.68	211.16
869.99	211.25
870.30	211.29
870.61	211.35
870.92	211.28
871.23	211.28
871.54	211.30
871.85	211.35
872.16	211.41
872.47	211.36
872.78	211.09
873.09	211.13
873.40	211.04
873.71	211.05
874.02	211.11
874.33	211.03
874.64	210.99
874.95	211.11
875.26	211.06
875.56	211.12
875.87	211.05
876.18	211.02
876.49	211.33
876.80	211.32
877.11	211.27
877.42	211.28
877.73	211.30
878.04	211.40
878.35	211.43
878.66	211.39
878.96	211.48
879.27	211.43
879.58	211.40
879.89	211.37
880.20	211.46
880.51	211.44
880.82	211.51
881.12	211.50
881.43	211.46
881.74	211.47
882.05	211.49
882.36	211.60
882.67	211.65
882.97	211.22
883.28	211.16
883.59	211.15
883.90	211.24
884.21	211.33
884.51	211.23
884.82	211.22
885.13	211.28
885.44	211.26
885.74	211.35
886.05	211.32
886.36	211.35
886.67	211.21
886.98	211.42
887.28	211.40
887.59	211.48
887.90	211.45
888.20	211.37
888.51	211.38
888.82	211.34
889.13	211.36
889.43	211.59
889.74	211.63
890.05	211.58
890.35	211.47
890.66	211.35
890.97	211.35
891.28	211.31
891.58	211.34
891.89	211.30
892.20	211.23
892.50	211.22
892.81	211.16
893.12	211.19
893.42	210.98
893.73	210.97
894.04	210.88
894.34	210.95
894.65	210.95
894.95	210.88
895.26	210.90
895.57	211.03
895.87	210.78
896.18	210.90
896.48	210.97
896.79	210.99
897.10	211.04
897.40	211.03
897.71	211.10
898.01	211.02
898.32	211.09
898.63	211.10
898.93	211.10
899.24	211.09
899.54	211.11
899.85	211.09
900.15	211.10
900.46	211.18
900.76	211.23
901.07	211.21
901.38	211.23
901.68	211.30
901.99	211.14
902.29	211.16
902.60	211.03
902.90	211.00
903.21	210.96
903.51	210.97
903.82	211.06
904.12	210.97
904.43	210.98
904.73	210.95
905.03	210.99
905.34	211.38
905.64	211.40
905.95	211.37
906.25	211.40
906.56	211.37
906.86	211.33
907.17	211.32
907.47	211.38
907.77	211.36
908.08	211.22
908.38	211.22
908.69	211.25
908.99	211.37
909.30	211.44
909.60	211.48
909.90	211.47
910.21	211.40
910.51	211.39
910.81	211.43
911.12	211.40
911.42	211.37
911.73	211.03
912.03	211.07
912.33	211.13
912.64	211.12
912.94	211.12
913.24	211.03
913.55	210.93
913.85	210.92
914.15	211.04
914.46	211.14
914.76	211.11
915.06	211.05
915.37	210.95
915.67	210.86
915.97	210.88
916.27	210.83
916.58	210.84
916.88	210.88
917.18	210.92
917.49	211.17
917.79	211.23
918.09	211.20
918.39	211.26
918.70	211.25
919.00	211.22
919.30	211.32
919.60	211.31
919.91	211.31
920.21	211.31
920.51	211.20
920.81	211.16
921.12	211.23
921.42	211.30
921.72	211.32
922.02	211.34
922.32	211.36
922.63	211.35
922.93	211.50
923.23	211.52
923.53	211.39
923.83	211.18
924.13	211.17
924.44	211.18
924.74	211.20
925.04	211.25
925.34	211.22
925.64	211.05
925.94	211.09
926.24	211.28
926.55	211.21
926.85	211.21
927.15	211.17
927.45	211.13
927.75	211.03
928.05	211.04
928.35	210.98
928.65	211.06
928.95	211.11
929.26	211.00
929.56	210.96
929.86	211.10
930.16	211.13
930.46	211.13
930.76	211.14
931.06	211.05
931.36	210.94
931.66	210.98
931.96	211.08
932.26	211.09
932.56	210.92
932.86	210.95
933.16	211.02
933.46	211.01
933.76	211.02
934.06	211.14
934.36	211.27
934.66	211.25
934.96	211.20
935.26	211.18
935.56	211.25
935.86	211.20
936.16	211.07
936.46	210.99
936.76	210.94
937.06	210.92
937.36	210.93
937.66	210.93
937.96	210.96
938.26	210.92
938.56	210.88
938.86	210.89
939.16	211.01
939.46	211.08
939.76	211.11
940.06	211.09
940.35	211.10
940.65	210.84
940.95	210.93
941.25	210.86
941.55	210.80
941.85	210.76
942.15	210.86
942.45	210.99
942.75	211.01
943.04	210.99
943.34	211.04
943.64	211.05
943.94	211.05
944.24	211.04
944.54	211.10
944.84	211.11
945.13	211.03
945.43	210.92
945.73	210.84
946.03	210.84
946.33	210.81
946.62	210.73
946.92	210.82
947.22	210.83
947.52	210.85
947.82	210.90
948.11	210.92
948.41	210.81
948.71	210.70
949.01	210.68
949.31	210.72
949.60	210.72
949.90	210.76
950.20	210.76
950.50	210.74
950.79	210.61
951.09	210.63
951.39	210.66
951.69	210.62
951.98	210.69
952.28	210.66
952.58	210.71
952.87	210.67
953.17	210.75
953.47	210.63
953.76	210.64
954.06	210.58
954.36	210.46
954.66	210.52
954.95	210.63
955.25	210.69
955.55	210.69
955.84	210.64
956.14	210.59
956.44	210.65
956.73	210.70
957.03	210.69
957.32	210.70
957.62	210.68
957.92	210.78
958.21	210.80
958.51	211.23
958.81	211.20
959.10	211.30
959.40	211.34
959.69	211.40
959.99	211.43
960.29	211.47
960.58	211.59
960.88	211.75
961.17	211.71
961.47	211.73
961.76	211.75
962.06	211.85
962.36	211.85
962.65	211.85
962.95	211.82
963.24	211.89
963.54	211.97
963.83	211.97
964.13	212.01
964.42	211.90
964.72	211.62
965.01	211.70
965.31	211.65
965.60	211.58
965.90	211.91
966.19	211.84
966.49	211.86
966.78	211.75
967.08	211.72
967.37	211.67
967.67	211.66
967.96	211.71
968.26	211.64
968.55	211.75
968.85	211.69
969.14	211.74
969.43	211.74
969.73	211.69
970.02	211.81
970.32	211.82
970.61	211.82
970.91	211.71
971.20	211.61
971.49	211.57
971.79	211.57
972.08	211.29
972.38	211.39
972.67	211.47
972.96	211.52
973.26	211.44
973.55	211.57
973.85	211.53
974.14	211.46
974.43	211.56
974.73	211.40
975.02	211.36
975.31	211.31
975.61	211.32
975.90	211.30
976.19	211.16
976.49	211.12
976.78	211.22
977.07	211.33
977.37	211.41
977.66	211.56
977.95	211.52
978.24	211.56
978.54	211.55
978.83	211.46
979.12	211.48
979.42	211.44
979.71	211.37
980.00	211.29
980.29	211.21
980.59	211.15
980.88	211.26
981.17	211.34
981.46	211.35
981.76	211.38
982.05	211.49
982.34	211.52
982.63	211.48
982.93	211.40
983.22	211.35
983.51	211.34
983.80	211.25
984.09	211.25
984.39	211.18
984.68	211.09
984.97	211.09
985.26	211.08
985.55	211.12
985.85	211.10
986.14	211.25
986.43	211.36
986.72	211.29
987.01	211.13
987.30	211.10
987.59	211.09
987.89	211.01
988.18	210.88
988.47	210.85
988.76	210.85
989.05	210.79
989.34	210.79
989.63	210.84
989.92	210.80
990.22	210.80
990.51	210.75
990.80	210.77
991.09	210.77
991.38	210.80
991.67	210.78
991.96	210.75
992.25	210.68
992.54	210.55
992.83	210.53
993.12	210.61
993.41	210.68
993.70	210.77
993.99	210.77
994.28	210.75
994.58	210.83
994.87	210.81
995.16	210.83
995.45	210.79
995.74	210.72
996.03	210.78
996.32	210.85
996.61	210.98
996.90	211.00
997.19	211.09
997.48	211.11
997.77	211.07
998.06	211.03
998.34	211.07
998.63	211.18
998.92	211.24
999.21	211.19
999.50	211.16
999.79	211.05
1000.08	211.11
1000.37	211.17
1000.66	211.13
1000.95	211.26
1001.24	211.24
1001.53	211.28
1001.82	211.26
1002.11	211.22
1002.40	211.26
1002.68	211.29
1002.97	211.50
1003.26	211.35
1003.55	211.27
1003.84	211.28
1004.13	211.45
1004.42	211.34
1004.71	211.31
1004.99	211.26
1005.28	211.37
1005.57	211.35
1005.86	211.38
1006.15	211.34
1006.44	211.34
1006.72	211.37
1007.01	211.32
1007.30	211.37
1007.59	211.32
1007.88	211.30
1008.17	211.31
1008.45	211.17
1008.74	211.12
1009.03	210.94
1009.32	211.00
1009.60	210.93
1009.89	210.92
1010.18	210.75
1010.47	210.79
1010.76	210.76
1011.04	210.75
1011.33	210.75
1011.62	210.77
1011.91	210.73
1012.19	210.75
1012.48	210.72
1012.77	210.75
1013.05	210.80
1013.34	210.75
1013.63	210.74
1013.92	210.73
1014.20	210.66
1014.49	210.76
1014.78	210.70
1015.06	210.59
1015.35	210.59
1015.64	210.66
1015.92	210.70
1016.21	210.70
1016.50	210.75
1016.78	210.77
1017.07	210.79
1017.36	210.69
1017.64	210.69
1017.93	210.80
1018.22	210.75
1018.50	210.81
1018.79	210.72
1019.08	210.64
1019.36	210.71
1019.65	210.69
1019.93	210.83
1020.22	210.86
1020.51	211.04
1020.79	211.04
1021.08	209.85
1021.36	211.35
1021.65	210.20
1021.94	211.20
1022.22	211.15
1022.51	210.40
1022.79	212.90
1023.08	210.25
1023.36	215.75
1023.65	210.20
>>>>>End Processed Spectral Data<<<<<
