SpectraSuite Data File
++++++++++++++++++++++++++++++++++++
Date: Mon Feb 25 17:05:37 EST 2013
User: group
Dark Spectrum Present: No
Reference Spectrum Present: No
Number of Sampled Component Spectra: 1
Spectrometers: USB2E7196
Integration Time (usec): 104000 (USB2E7196)
Spectra Averaged: 20 (USB2E7196)
Boxcar Smoothing: 10 (USB2E7196)
Correct for Electrical Dark: No (USB2E7196)
Strobe/Lamp Enabled: No (USB2E7196)
Correct for Detector Non-linearity: No (USB2E7196)
Correct for Stray Light: No (USB2E7196)
Number of Pixels in Processed Spectrum: 2048
>>>>>Begin Processed Spectral Data<<<<<
339.09	0.00
339.48	198.80
339.86	198.50
340.24	201.45
340.63	202.00
341.01	208.55
341.39	203.90
341.78	205.00
342.16	209.00
342.54	207.60
342.93	197.58
343.31	207.57
343.69	208.10
344.07	208.56
344.46	209.00
344.84	209.38
345.22	209.41
345.60	209.75
345.99	209.98
346.37	210.00
346.75	210.11
347.13	210.14
347.52	210.21
347.90	210.47
348.28	210.50
348.66	210.59
349.05	210.49
349.43	210.48
349.81	210.51
350.19	210.55
350.57	210.57
350.96	210.65
351.34	210.74
351.72	210.78
352.10	210.88
352.48	210.91
352.87	210.99
353.25	211.08
353.63	211.10
354.01	211.22
354.39	211.39
354.77	211.46
355.15	211.60
355.54	211.73
355.92	211.57
356.30	211.72
356.68	212.05
357.06	212.25
357.44	212.33
357.82	212.46
358.20	212.59
358.58	212.68
358.97	212.76
359.35	212.87
359.73	213.05
360.11	213.18
360.49	213.32
360.87	213.39
361.25	213.50
361.63	213.72
362.01	213.79
362.39	213.81
362.77	213.89
363.15	213.96
363.53	213.97
363.91	214.01
364.29	213.99
364.67	213.68
365.05	213.64
365.43	213.71
365.81	213.79
366.19	213.89
366.57	214.02
366.95	213.98
367.33	213.93
367.71	213.90
368.09	213.94
368.47	213.85
368.85	213.85
369.23	213.90
369.61	213.77
369.99	213.74
370.37	213.79
370.75	213.96
371.13	213.85
371.51	213.78
371.89	213.80
372.27	213.76
372.65	213.75
373.03	213.69
373.41	213.62
373.78	213.51
374.16	213.29
374.54	213.16
374.92	213.09
375.30	213.00
375.68	212.90
376.06	212.87
376.44	212.78
376.82	212.79
377.19	212.69
377.57	212.62
377.95	212.49
378.33	212.40
378.71	212.17
379.09	212.17
379.47	212.16
379.84	212.03
380.22	211.91
380.60	211.81
380.98	211.67
381.36	211.57
381.73	211.43
382.11	211.48
382.49	211.37
382.87	211.27
383.25	211.30
383.62	211.61
384.00	211.47
384.38	211.53
384.76	211.45
385.13	211.55
385.51	211.44
385.89	211.43
386.27	211.35
386.64	211.28
387.02	211.16
387.40	211.06
387.78	211.04
388.15	211.06
388.53	211.02
388.91	211.05
389.29	210.97
389.66	211.00
390.04	210.88
390.42	210.92
390.79	210.94
391.17	210.88
391.55	210.45
391.92	210.36
392.30	210.41
392.68	210.34
393.05	210.31
393.43	210.38
393.81	210.32
394.18	210.24
394.56	210.21
394.94	210.35
395.31	210.36
395.69	210.51
396.06	210.57
396.44	210.59
396.82	210.62
397.19	210.89
397.57	210.88
397.95	211.01
398.32	210.94
398.70	211.01
399.07	211.13
399.45	211.15
399.82	211.26
400.20	211.18
400.58	211.19
400.95	211.05
401.33	211.09
401.70	211.43
402.08	211.52
402.45	211.64
402.83	211.66
403.20	211.67
403.58	211.62
403.95	211.68
404.33	211.84
404.71	211.84
405.08	212.09
405.46	212.15
405.83	212.23
406.21	212.29
406.58	212.41
406.96	212.54
407.33	212.72
407.70	212.91
408.08	213.28
408.45	213.49
408.83	213.73
409.20	213.88
409.58	213.80
409.95	214.10
410.33	214.31
410.70	214.49
411.08	214.86
411.45	215.22
411.82	215.48
412.20	215.86
412.57	216.43
412.95	216.47
413.32	216.94
413.69	217.34
414.07	217.84
414.44	218.28
414.82	218.83
415.19	219.55
415.56	220.19
415.94	220.72
416.31	221.55
416.68	222.35
417.06	223.26
417.43	224.22
417.81	225.13
418.18	226.15
418.55	227.19
418.93	228.33
419.30	229.50
419.67	230.77
420.04	232.01
420.42	233.34
420.79	235.15
421.16	236.72
421.54	238.45
421.91	240.18
422.28	241.93
422.66	243.71
423.03	245.65
423.40	247.52
423.77	249.67
424.15	251.64
424.52	253.78
424.89	256.19
425.26	258.45
425.64	260.59
426.01	262.99
426.38	265.51
426.75	268.04
427.13	270.67
427.50	273.39
427.87	276.21
428.24	279.10
428.61	281.70
428.99	284.84
429.36	288.05
429.73	291.25
430.10	294.67
430.47	298.13
430.85	301.44
431.22	305.13
431.59	309.12
431.96	313.00
432.33	317.25
432.70	321.28
433.08	325.99
433.45	330.55
433.82	335.06
434.19	340.08
434.56	345.04
434.93	349.72
435.30	354.52
435.68	359.81
436.05	364.86
436.42	369.95
436.79	374.73
437.16	379.84
437.53	385.31
437.90	390.65
438.27	395.87
438.64	401.34
439.01	406.44
439.38	410.88
439.75	415.29
440.13	420.32
440.50	424.98
440.87	428.96
441.24	433.12
441.61	437.67
441.98	441.04
442.35	444.93
442.72	449.01
443.09	452.95
443.46	455.37
443.83	457.21
444.20	458.91
444.57	460.98
444.94	462.18
445.31	463.43
445.68	464.97
446.05	465.59
446.42	465.46
446.79	465.29
447.16	464.77
447.53	464.55
447.90	462.78
448.27	461.25
448.64	458.74
449.01	456.99
449.37	453.81
449.74	450.69
450.11	447.04
450.48	442.74
450.85	438.40
451.22	434.74
451.59	431.20
451.96	427.78
452.33	423.18
452.70	419.05
453.07	414.11
453.43	408.67
453.80	403.97
454.17	399.29
454.54	394.77
454.91	390.11
455.28	385.59
455.65	381.23
456.02	377.24
456.38	373.54
456.75	368.90
457.12	364.90
457.49	361.16
457.86	357.32
458.23	354.24
458.59	350.69
458.96	347.20
459.33	344.15
459.70	341.11
460.07	338.74
460.43	335.89
460.80	333.21
461.17	330.91
461.54	328.28
461.91	325.93
462.27	323.54
462.64	321.45
463.01	319.17
463.38	317.10
463.74	314.52
464.11	312.60
464.48	310.92
464.85	309.08
465.21	307.64
465.58	306.21
465.95	304.30
466.32	302.84
466.68	301.29
467.05	299.73
467.42	298.11
467.78	296.35
468.15	294.96
468.52	293.82
468.88	292.25
469.25	291.01
469.62	289.89
469.98	288.74
470.35	287.64
470.72	286.52
471.08	285.26
471.45	284.38
471.82	283.55
472.18	282.57
472.55	281.86
472.92	280.96
473.28	280.07
473.65	279.28
474.02	278.50
474.38	277.86
474.75	277.33
475.11	276.68
475.48	276.34
475.85	275.82
476.21	275.32
476.58	274.95
476.94	274.60
477.31	274.18
477.67	273.77
478.04	273.45
478.41	273.20
478.77	273.44
479.14	273.11
479.50	272.79
479.87	272.66
480.23	272.58
480.60	272.36
480.96	272.21
481.33	272.38
481.69	272.36
482.06	272.35
482.42	272.30
482.79	272.37
483.15	272.38
483.52	272.47
483.88	272.60
484.25	272.72
484.61	272.83
484.98	273.07
485.34	273.45
485.71	273.87
486.07	274.29
486.44	274.23
486.80	274.52
487.17	274.94
487.53	275.40
487.90	275.85
488.26	276.61
488.62	277.24
488.99	277.65
489.35	278.18
489.72	278.85
490.08	279.57
490.44	280.20
490.81	280.98
491.17	281.81
491.54	282.69
491.90	283.62
492.26	284.52
492.63	285.39
492.99	286.31
493.36	287.18
493.72	288.22
494.08	289.30
494.45	290.44
494.81	291.60
495.17	292.70
495.54	293.88
495.90	294.98
496.26	296.17
496.63	297.44
496.99	298.79
497.35	300.11
497.72	301.37
498.08	302.73
498.44	304.04
498.80	305.40
499.17	306.67
499.53	307.95
499.89	309.33
500.26	310.70
500.62	311.95
500.98	313.54
501.34	314.81
501.71	316.27
502.07	317.69
502.43	318.99
502.79	320.23
503.16	321.58
503.52	322.89
503.88	324.14
504.24	325.50
504.60	326.81
504.97	328.14
505.33	329.46
505.69	330.94
506.05	332.21
506.41	333.45
506.78	334.65
507.14	335.83
507.50	337.13
507.86	338.50
508.22	339.85
508.59	340.88
508.95	342.10
509.31	343.39
509.67	344.55
510.03	345.88
510.39	347.15
510.75	348.12
511.12	349.25
511.48	350.40
511.84	351.45
512.20	352.58
512.56	353.62
512.92	354.74
513.28	355.64
513.64	356.66
514.00	357.65
514.37	358.72
514.73	359.85
515.09	360.91
515.45	361.75
515.81	362.74
516.17	363.71
516.53	364.72
516.89	365.64
517.25	366.63
517.61	367.65
517.97	368.59
518.33	369.66
518.69	370.68
519.05	371.83
519.41	372.95
519.77	374.20
520.13	375.24
520.49	376.25
520.85	377.34
521.21	378.55
521.57	379.87
521.93	381.05
522.29	382.32
522.65	383.40
523.01	384.77
523.37	385.96
523.73	387.40
524.09	388.68
524.45	390.08
524.81	391.45
525.17	392.81
525.53	394.33
525.89	396.00
526.25	397.62
526.61	399.11
526.97	400.72
527.33	402.38
527.68	404.54
528.04	406.36
528.40	408.20
528.76	410.05
529.12	411.99
529.48	414.00
529.84	415.92
530.20	418.04
530.56	420.27
530.91	422.57
531.27	424.81
531.63	427.12
531.99	429.35
532.35	431.70
532.71	433.97
533.07	436.45
533.42	439.16
533.78	441.57
534.14	444.07
534.50	446.43
534.86	448.90
535.21	451.03
535.57	453.56
535.93	456.14
536.29	458.98
536.65	461.48
537.00	464.00
537.36	466.52
537.72	469.15
538.08	471.74
538.44	474.37
538.79	477.02
539.15	479.70
539.51	482.39
539.87	485.08
540.22	487.95
540.58	490.83
540.94	493.35
541.29	496.20
541.65	498.94
542.01	501.85
542.37	504.56
542.72	507.25
543.08	510.17
543.44	513.06
543.79	515.60
544.15	518.61
544.51	521.64
544.87	524.61
545.22	527.40
545.58	530.11
545.94	532.82
546.29	535.54
546.65	538.31
547.01	540.90
547.36	543.73
547.72	546.55
548.07	549.11
548.43	551.81
548.79	554.13
549.14	556.69
549.50	559.40
549.86	561.87
550.21	564.49
550.57	567.21
550.92	569.67
551.28	572.28
551.64	574.57
551.99	576.99
552.35	579.34
552.70	581.67
553.06	584.05
553.41	586.41
553.77	588.95
554.13	591.27
554.48	593.88
554.84	596.45
555.19	598.59
555.55	601.00
555.90	603.17
556.26	605.48
556.61	607.58
556.97	609.53
557.32	611.58
557.68	613.56
558.03	615.34
558.39	617.10
558.74	619.01
559.10	620.84
559.45	622.70
559.81	624.76
560.16	626.73
560.52	628.65
560.87	630.50
561.23	631.93
561.58	633.84
561.94	635.42
562.29	636.73
562.64	638.49
563.00	639.96
563.35	641.50
563.71	643.32
564.06	645.03
564.42	646.60
564.77	648.46
565.12	650.24
565.48	652.16
565.83	653.97
566.19	655.45
566.54	656.90
566.89	658.26
567.25	659.55
567.60	661.04
567.96	662.51
568.31	663.89
568.66	665.24
569.02	665.91
569.37	666.86
569.72	668.06
570.08	668.93
570.43	669.70
570.78	670.40
571.14	670.85
571.49	671.40
571.84	672.11
572.20	672.40
572.55	672.90
572.90	672.90
573.26	673.07
573.61	673.12
573.96	673.52
574.31	673.65
574.67	673.69
575.02	673.52
575.37	673.24
575.72	672.95
576.08	672.95
576.43	673.04
576.78	672.96
577.13	672.72
577.49	672.67
577.84	672.70
578.19	672.68
578.54	672.78
578.90	672.85
579.25	672.64
579.60	672.36
579.95	672.00
580.30	671.83
580.66	671.69
581.01	671.55
581.36	671.04
581.71	670.62
582.06	670.38
582.42	670.00
582.77	669.59
583.12	669.32
583.47	669.03
583.82	668.80
584.17	668.40
584.53	668.22
584.88	667.72
585.23	667.32
585.58	666.80
585.93	666.17
586.28	665.70
586.63	665.28
586.98	665.01
587.34	664.69
587.69	664.07
588.04	663.55
588.39	662.97
588.74	662.24
589.09	662.00
589.44	661.32
589.79	660.87
590.14	660.42
590.49	659.62
590.84	658.79
591.19	658.22
591.54	657.58
591.89	656.45
592.25	655.85
592.60	654.80
592.95	653.88
593.30	653.01
593.65	651.77
594.00	650.55
594.35	650.40
594.70	649.09
595.05	648.23
595.40	647.17
595.75	646.03
596.10	645.28
596.45	644.04
596.80	643.14
597.15	642.23
597.50	640.91
597.85	639.97
598.19	639.00
598.54	637.80
598.89	636.68
599.24	636.15
599.59	634.98
599.94	634.20
600.29	633.22
600.64	632.34
600.99	631.43
601.34	630.72
601.69	628.79
602.04	627.82
602.39	626.77
602.74	625.92
603.08	625.34
603.43	624.67
603.78	623.88
604.13	622.90
604.48	621.93
604.83	621.57
605.18	620.83
605.53	619.80
605.87	618.87
606.22	617.98
606.57	616.71
606.92	615.58
607.27	614.45
607.62	613.68
607.96	612.76
608.31	611.76
608.66	610.58
609.01	609.51
609.36	608.36
609.70	607.19
610.05	605.80
610.40	604.44
610.75	602.91
611.10	601.72
611.44	600.28
611.79	598.60
612.14	596.88
612.49	595.08
612.83	593.69
613.18	592.14
613.53	590.61
613.88	588.92
614.22	587.47
614.57	585.93
614.92	584.18
615.27	582.49
615.61	580.85
615.96	579.29
616.31	577.73
616.65	576.38
617.00	574.75
617.35	573.17
617.70	571.21
618.04	569.43
618.39	567.36
618.74	565.68
619.08	564.05
619.43	562.30
619.78	560.92
620.12	559.21
620.47	557.59
620.82	555.63
621.16	553.66
621.51	551.95
621.85	550.10
622.20	548.22
622.55	546.40
622.89	544.69
623.24	542.89
623.59	540.97
623.93	539.11
624.28	537.45
624.62	536.04
624.97	534.69
625.32	532.99
625.66	531.45
626.01	529.82
626.35	528.21
626.70	526.42
627.04	524.60
627.39	522.94
627.73	521.27
628.08	519.86
628.43	518.33
628.77	516.47
629.12	514.75
629.46	513.21
629.81	511.49
630.15	509.75
630.50	507.90
630.84	506.18
631.19	504.42
631.53	502.75
631.88	500.62
632.22	498.70
632.57	497.21
632.91	495.51
633.26	493.86
633.60	492.06
633.95	490.48
634.29	488.69
634.64	487.01
634.98	485.11
635.32	483.48
635.67	482.13
636.01	480.65
636.36	479.04
636.70	477.46
637.05	475.84
637.39	474.29
637.73	472.97
638.08	471.52
638.42	470.24
638.77	468.71
639.11	467.28
639.45	465.76
639.80	463.96
640.14	462.34
640.49	460.64
640.83	459.08
641.17	457.59
641.52	455.95
641.86	454.26
642.20	452.90
642.55	450.99
642.89	449.25
643.23	447.51
643.58	446.05
643.92	444.19
644.26	442.54
644.61	440.96
644.95	439.25
645.29	437.58
645.64	435.73
645.98	433.96
646.32	432.28
646.66	430.47
647.01	428.86
647.35	427.30
647.69	425.70
648.04	424.24
648.38	422.63
648.72	421.20
649.06	419.54
649.41	417.76
649.75	416.29
650.09	414.69
650.43	413.27
650.78	411.53
651.12	409.95
651.46	408.47
651.80	406.88
652.14	405.36
652.49	403.83
652.83	402.30
653.17	400.63
653.51	399.02
653.85	397.71
654.20	396.22
654.54	394.50
654.88	392.80
655.22	391.31
655.56	389.70
655.90	388.09
656.25	386.64
656.59	385.16
656.93	383.59
657.27	382.20
657.61	380.46
657.95	379.10
658.29	377.70
658.64	376.25
658.98	374.78
659.32	373.17
659.66	371.68
660.00	370.21
660.34	368.68
660.68	367.13
661.02	365.60
661.36	364.15
661.70	362.81
662.05	361.53
662.39	360.15
662.73	358.84
663.07	357.61
663.41	356.40
663.75	355.11
664.09	353.89
664.43	352.46
664.77	351.23
665.11	349.91
665.45	348.78
665.79	347.49
666.13	346.20
666.47	345.08
666.81	343.96
667.15	342.69
667.49	341.63
667.83	340.63
668.17	339.43
668.51	338.29
668.85	337.27
669.19	336.31
669.53	335.06
669.87	333.85
670.21	332.66
670.55	331.36
670.89	330.40
671.23	329.37
671.57	328.37
671.91	327.44
672.25	326.35
672.58	325.33
672.92	324.26
673.26	323.23
673.60	322.27
673.94	321.19
674.28	320.24
674.62	319.33
674.96	318.44
675.30	317.54
675.64	316.53
675.97	315.48
676.31	314.49
676.65	313.56
676.99	312.76
677.33	311.88
677.67	311.06
678.01	310.05
678.34	309.15
678.68	308.25
679.02	307.20
679.36	306.32
679.70	305.36
680.04	304.56
680.37	303.77
680.71	302.82
681.05	302.09
681.39	301.30
681.73	300.45
682.06	299.58
682.40	298.71
682.74	297.90
683.08	297.29
683.42	296.39
683.75	295.69
684.09	294.73
684.43	293.96
684.77	293.11
685.10	292.36
685.44	291.53
685.78	290.70
686.12	289.97
686.45	289.18
686.79	288.37
687.13	287.65
687.46	286.80
687.80	286.10
688.14	285.31
688.48	284.59
688.81	283.94
689.15	283.30
689.49	282.59
689.82	281.90
690.16	280.96
690.50	280.15
690.83	279.29
691.17	278.60
691.51	277.82
691.84	277.14
692.18	276.43
692.52	275.79
692.85	275.15
693.19	274.69
693.52	274.00
693.86	273.32
694.20	272.67
694.53	272.09
694.87	271.44
695.21	270.66
695.54	269.98
695.88	269.22
696.21	268.36
696.55	267.82
696.88	267.21
697.22	266.61
697.56	266.24
697.89	265.66
698.23	265.13
698.56	264.52
698.90	264.05
699.23	263.42
699.57	262.80
699.90	262.25
700.24	261.58
700.58	261.10
700.91	260.61
701.25	260.28
701.58	259.87
701.92	259.42
702.25	258.90
702.59	258.42
702.92	257.96
703.26	257.53
703.59	257.01
703.93	256.81
704.26	256.47
704.60	255.93
704.93	255.54
705.26	255.10
705.60	254.77
705.93	254.16
706.27	253.90
706.60	253.52
706.94	253.22
707.27	252.74
707.61	252.34
707.94	251.91
708.27	251.23
708.61	250.75
708.94	250.37
709.28	250.08
709.61	249.65
709.94	249.25
710.28	248.94
710.61	248.56
710.95	247.99
711.28	247.72
711.61	247.39
711.95	247.14
712.28	246.66
712.61	246.23
712.95	246.07
713.28	245.79
713.61	245.51
713.95	245.03
714.28	244.74
714.61	244.33
714.95	244.00
715.28	243.68
715.61	243.32
715.95	243.00
716.28	242.60
716.61	242.33
716.95	241.97
717.28	241.59
717.61	241.22
717.94	240.87
718.28	240.36
718.61	240.09
718.94	239.69
719.27	239.51
719.61	239.24
719.94	238.93
720.27	238.48
720.60	238.10
720.94	237.81
721.27	237.53
721.60	237.35
721.93	237.08
722.27	236.96
722.60	236.70
722.93	236.28
723.26	236.12
723.59	235.81
723.93	235.64
724.26	235.46
724.59	235.20
724.92	235.00
725.25	234.86
725.59	234.53
725.92	234.34
726.25	234.09
726.58	233.83
726.91	233.62
727.24	233.40
727.57	233.18
727.91	232.96
728.24	232.77
728.57	232.52
728.90	232.30
729.23	231.91
729.56	231.80
729.89	231.67
730.22	231.38
730.55	231.20
730.89	231.03
731.22	230.79
731.55	230.69
731.88	230.47
732.21	230.17
732.54	229.91
732.87	229.67
733.20	229.46
733.53	229.28
733.86	229.09
734.19	228.88
734.52	228.70
734.85	228.73
735.18	228.54
735.51	228.49
735.84	228.40
736.17	228.32
736.50	228.03
736.83	228.23
737.16	228.10
737.49	227.90
737.82	227.70
738.15	227.62
738.48	227.43
738.81	227.30
739.14	227.17
739.47	227.01
739.80	226.92
740.13	226.82
740.46	226.63
740.79	226.41
741.12	226.25
741.45	226.14
741.78	225.81
742.11	225.70
742.44	225.47
742.77	225.44
743.10	225.30
743.43	225.16
743.75	224.70
744.08	225.07
744.41	224.90
744.74	224.74
745.07	224.47
745.40	224.42
745.73	224.35
746.06	224.18
746.39	224.17
746.71	223.98
747.04	223.85
747.37	223.77
747.70	223.73
748.03	223.65
748.36	223.61
748.68	223.50
749.01	223.34
749.34	223.22
749.67	223.06
750.00	222.96
750.33	223.12
750.65	223.04
750.98	222.49
751.31	222.46
751.64	222.28
751.97	222.41
752.29	222.22
752.62	221.96
752.95	221.90
753.28	221.67
753.60	221.56
753.93	221.56
754.26	221.50
754.59	221.31
754.91	221.18
755.24	221.04
755.57	220.94
755.90	220.87
756.22	220.75
756.55	220.53
756.88	220.38
757.20	220.06
757.53	219.85
757.86	219.78
758.19	219.72
758.51	219.64
758.84	219.44
759.17	219.33
759.49	219.33
759.82	219.37
760.15	219.34
760.47	219.32
760.80	219.09
761.13	219.04
761.45	218.94
761.78	218.87
762.11	218.85
762.43	218.75
762.76	218.62
763.08	218.57
763.41	218.57
763.74	218.46
764.06	218.39
764.39	218.38
764.71	218.26
765.04	218.12
765.37	218.11
765.69	218.01
766.02	218.03
766.34	217.94
766.67	217.74
767.00	217.75
767.32	217.80
767.65	218.00
767.97	217.84
768.30	217.86
768.62	217.80
768.95	217.66
769.27	217.58
769.60	217.68
769.92	217.62
770.25	217.50
770.57	217.45
770.90	217.37
771.22	217.22
771.55	217.20
771.87	217.12
772.20	217.04
772.52	217.26
772.85	217.55
773.17	217.46
773.50	217.39
773.82	217.32
774.15	217.17
774.47	216.89
774.80	216.90
775.12	216.85
775.45	216.80
775.77	216.80
776.09	216.84
776.42	216.71
776.74	216.74
777.07	216.69
777.39	216.73
777.72	216.64
778.04	216.67
778.36	216.56
778.69	216.51
779.01	216.47
779.33	216.17
779.66	215.76
779.98	215.72
780.31	215.66
780.63	215.70
780.95	215.67
781.28	215.59
781.60	215.54
781.92	215.39
782.25	215.31
782.57	215.28
782.89	215.13
783.22	215.03
783.54	214.89
783.86	214.89
784.19	214.69
784.51	214.80
784.83	214.77
785.16	214.67
785.48	214.69
785.80	214.67
786.12	214.64
786.45	214.60
786.77	214.59
787.09	214.55
787.42	214.38
787.74	214.27
788.06	214.21
788.38	214.12
788.71	214.09
789.03	214.11
789.35	214.01
789.67	213.98
789.99	213.88
790.32	213.85
790.64	213.87
790.96	214.19
791.28	214.03
791.61	213.91
791.93	214.00
792.25	213.90
792.57	214.09
792.89	213.99
793.21	213.98
793.54	213.95
793.86	213.91
794.18	213.89
794.50	213.87
794.82	213.89
795.14	213.86
795.47	213.92
795.79	213.85
796.11	213.79
796.43	213.74
796.75	213.82
797.07	213.75
797.39	213.61
797.71	213.33
798.04	213.29
798.36	213.35
798.68	213.29
799.00	213.33
799.32	213.15
799.64	213.23
799.96	213.14
800.28	213.16
800.60	213.19
800.92	213.18
801.24	213.19
801.56	213.14
801.89	213.15
802.21	213.13
802.53	213.03
802.85	213.05
803.17	213.25
803.49	213.18
803.81	213.18
804.13	213.09
804.45	213.10
804.77	213.10
805.09	212.95
805.41	212.86
805.73	212.81
806.05	212.59
806.37	212.50
806.69	212.50
807.01	212.47
807.33	212.47
807.65	212.29
807.97	212.36
808.28	212.34
808.60	212.29
808.92	212.28
809.24	212.45
809.56	212.40
809.88	212.28
810.20	212.25
810.52	212.29
810.84	212.40
811.16	212.31
811.48	212.32
811.80	212.53
812.12	212.54
812.43	212.56
812.75	212.70
813.07	212.67
813.39	212.68
813.71	212.58
814.03	212.50
814.35	212.59
814.67	212.51
814.98	212.47
815.30	212.45
815.62	212.31
815.94	212.10
816.26	212.11
816.58	212.02
816.89	212.03
817.21	211.96
817.53	211.85
817.85	211.94
818.17	211.91
818.48	211.76
818.80	211.80
819.12	211.79
819.44	211.66
819.76	211.59
820.07	211.55
820.39	211.62
820.71	211.65
821.03	211.66
821.34	211.54
821.66	211.60
821.98	211.60
822.30	211.66
822.61	211.91
822.93	211.88
823.25	211.87
823.57	211.84
823.88	211.86
824.20	211.90
824.52	211.91
824.83	211.97
825.15	211.89
825.47	211.82
825.79	211.82
826.10	211.80
826.42	211.81
826.74	211.89
827.05	211.85
827.37	211.79
827.69	211.75
828.00	211.84
828.32	211.83
828.64	211.79
828.95	211.91
829.27	211.83
829.58	211.90
829.90	211.93
830.22	211.95
830.53	211.86
830.85	211.84
831.17	211.72
831.48	211.66
831.80	211.65
832.11	211.72
832.43	211.70
832.75	211.75
833.06	212.01
833.38	211.93
833.69	211.91
834.01	211.94
834.32	211.94
834.64	211.85
834.96	211.79
835.27	211.88
835.59	211.81
835.90	211.74
836.22	211.63
836.53	211.59
836.85	211.57
837.16	211.96
837.48	211.94
837.79	212.03
838.11	212.06
838.42	212.10
838.74	212.12
839.05	212.07
839.37	212.05
839.68	211.75
840.00	211.70
840.31	211.78
840.63	211.76
840.94	211.77
841.26	211.72
841.57	211.76
841.88	211.76
842.20	211.70
842.51	211.58
842.83	211.62
843.14	211.95
843.46	211.93
843.77	211.71
844.08	211.70
844.40	211.59
844.71	211.55
845.03	211.55
845.34	211.50
845.65	211.48
845.97	211.51
846.28	211.50
846.60	211.51
846.91	211.38
847.22	211.32
847.54	211.40
847.85	211.42
848.16	211.36
848.48	211.26
848.79	211.36
849.10	211.40
849.42	211.38
849.73	211.01
850.04	210.98
850.36	210.88
850.67	210.98
850.98	211.00
851.30	211.02
851.61	211.01
851.92	211.03
852.23	211.16
852.55	211.11
852.86	211.13
853.17	211.16
853.49	211.23
853.80	211.30
854.11	211.25
854.42	211.35
854.74	211.28
855.05	211.30
855.36	211.16
855.67	211.26
855.99	211.30
856.30	211.71
856.61	211.77
856.92	211.73
857.23	211.68
857.55	211.65
857.86	211.60
858.17	211.61
858.48	211.56
858.79	211.46
859.11	211.54
859.42	211.55
859.73	211.51
860.04	211.54
860.35	211.50
860.66	211.42
860.98	211.38
861.29	211.43
861.60	211.45
861.91	211.48
862.22	211.34
862.53	211.30
862.84	210.90
863.16	210.89
863.47	210.85
863.78	210.77
864.09	210.75
864.40	210.76
864.71	210.78
865.02	210.86
865.33	210.82
865.64	210.72
865.95	210.70
866.27	210.91
866.58	210.90
866.89	210.95
867.20	210.95
867.51	210.93
867.82	210.94
868.13	210.97
868.44	210.89
868.75	210.98
869.06	211.03
869.37	211.06
869.68	211.00
869.99	211.07
870.30	211.10
870.61	211.17
870.92	211.10
871.23	211.08
871.54	211.06
871.85	211.15
872.16	211.22
872.47	211.22
872.78	211.01
873.09	211.03
873.40	210.96
873.71	210.95
874.02	210.95
874.33	210.90
874.64	210.90
874.95	210.98
875.26	210.90
875.56	210.81
875.87	210.78
876.18	210.76
876.49	211.11
876.80	211.17
877.11	211.12
877.42	211.16
877.73	211.07
878.04	211.07
878.35	211.03
878.66	211.02
878.96	211.06
879.27	211.10
879.58	211.05
879.89	211.07
880.20	211.27
880.51	211.22
880.82	211.27
881.12	211.24
881.43	211.14
881.74	211.14
882.05	211.12
882.36	211.19
882.67	211.29
882.97	210.89
883.28	210.84
883.59	210.78
883.90	210.84
884.21	210.93
884.51	210.92
884.82	210.87
885.13	210.89
885.44	210.81
885.74	210.82
886.05	210.82
886.36	210.82
886.67	210.64
886.98	210.85
887.28	210.88
887.59	210.91
887.90	210.97
888.20	210.98
888.51	211.08
888.82	211.00
889.13	210.96
889.43	211.29
889.74	211.26
890.05	211.32
890.35	211.30
890.66	211.31
890.97	211.22
891.28	211.22
891.58	211.24
891.89	211.25
892.20	211.24
892.50	211.19
892.81	211.17
893.12	211.27
893.42	211.09
893.73	211.10
894.04	211.05
894.34	211.08
894.65	211.06
894.95	210.98
895.26	211.00
895.57	211.19
895.87	210.87
896.18	210.88
896.48	210.88
896.79	210.86
897.10	210.86
897.40	210.90
897.71	210.87
898.01	210.81
898.32	210.91
898.63	210.81
898.93	210.88
899.24	210.87
899.54	210.76
899.85	210.76
900.15	210.72
900.46	210.74
900.76	210.80
901.07	210.79
901.38	210.80
901.68	210.85
901.99	210.64
902.29	210.63
902.60	210.69
902.90	210.69
903.21	210.72
903.51	210.64
903.82	210.69
904.12	210.75
904.43	210.78
904.73	210.75
905.03	210.79
905.34	211.15
905.64	211.11
905.95	211.12
906.25	211.11
906.56	211.08
906.86	211.10
907.17	211.07
907.47	211.12
907.77	211.13
908.08	211.02
908.38	211.03
908.69	211.11
908.99	211.18
909.30	211.22
909.60	211.25
909.90	211.33
910.21	211.24
910.51	211.20
910.81	211.24
911.12	211.22
911.42	211.30
911.73	210.88
912.03	210.95
912.33	211.05
912.64	211.01
912.94	211.11
913.24	211.10
913.55	211.06
913.85	210.99
914.15	211.06
914.46	211.08
914.76	211.11
915.06	211.06
915.37	210.88
915.67	210.83
915.97	210.78
916.27	210.72
916.58	210.76
916.88	210.78
917.18	210.73
917.49	210.94
917.79	210.93
918.09	211.00
918.39	211.13
918.70	211.09
919.00	211.14
919.30	211.25
919.60	211.19
919.91	211.18
920.21	211.20
920.51	211.16
920.81	211.19
921.12	211.17
921.42	211.20
921.72	211.30
922.02	211.29
922.32	211.36
922.63	211.40
922.93	211.60
923.23	211.61
923.53	211.56
923.83	211.43
924.13	211.49
924.44	211.53
924.74	211.51
925.04	211.60
925.34	211.57
925.64	211.47
925.94	211.47
926.24	211.65
926.55	211.65
926.85	211.64
927.15	211.63
927.45	211.62
927.75	211.59
928.05	211.59
928.35	211.55
928.65	211.64
928.95	211.64
929.26	211.52
929.56	211.58
929.86	211.66
930.16	211.67
930.46	211.60
930.76	211.60
931.06	211.46
931.36	211.35
931.66	211.46
931.96	211.46
932.26	211.46
932.56	211.36
932.86	211.39
933.16	211.42
933.46	211.43
933.76	211.42
934.06	211.49
934.36	211.60
934.66	211.65
934.96	211.51
935.26	211.50
935.56	211.54
935.86	211.39
936.16	211.41
936.46	211.32
936.76	211.28
937.06	211.20
937.36	211.21
937.66	211.20
937.96	211.14
938.26	211.05
938.56	211.03
938.86	211.02
939.16	211.12
939.46	211.11
939.76	211.07
940.06	211.07
940.35	211.01
940.65	210.91
940.95	210.96
941.25	210.96
941.55	210.94
941.85	210.86
942.15	210.94
942.45	210.95
942.75	210.96
943.04	210.88
943.34	210.90
943.64	210.85
943.94	210.82
944.24	210.81
944.54	210.91
944.84	210.92
945.13	210.89
945.43	210.80
945.73	210.85
946.03	210.94
946.33	210.85
946.62	210.89
946.92	210.88
947.22	210.90
947.52	210.92
947.82	210.92
948.11	210.94
948.41	210.93
948.71	210.84
949.01	210.86
949.31	210.94
949.60	211.01
949.90	211.11
950.20	211.10
950.50	211.07
950.79	211.00
951.09	211.06
951.39	211.04
951.69	211.06
951.98	211.10
952.28	211.09
952.58	211.15
952.87	211.12
953.17	211.18
953.47	211.08
953.76	211.13
954.06	211.08
954.36	211.03
954.66	211.00
954.95	211.12
955.25	211.15
955.55	211.17
955.84	211.08
956.14	211.09
956.44	211.13
956.73	211.12
957.03	211.13
957.32	211.11
957.62	211.08
957.92	211.11
958.21	210.98
958.51	211.39
958.81	211.43
959.10	211.46
959.40	211.48
959.69	211.50
959.99	211.47
960.29	211.52
960.58	211.55
960.88	211.66
961.17	211.53
961.47	211.53
961.76	211.48
962.06	211.61
962.36	211.55
962.65	211.54
962.95	211.57
963.24	211.52
963.54	211.54
963.83	211.56
964.13	211.52
964.42	211.47
964.72	211.10
965.01	211.17
965.31	211.19
965.60	211.11
965.90	211.32
966.19	211.31
966.49	211.28
966.78	211.24
967.08	211.25
967.37	211.39
967.67	211.29
967.96	211.38
968.26	211.29
968.55	211.39
968.85	211.39
969.14	211.37
969.43	211.42
969.73	211.39
970.02	211.34
970.32	211.32
970.61	211.36
970.91	211.25
971.20	211.11
971.49	211.04
971.79	211.05
972.08	210.73
972.38	210.74
972.67	210.70
972.96	210.71
973.26	210.61
973.55	210.68
973.85	210.71
974.14	210.71
974.43	210.72
974.73	210.64
975.02	210.63
975.31	210.60
975.61	210.54
975.90	210.54
976.19	210.54
976.49	210.58
976.78	210.63
977.07	210.62
977.37	210.63
977.66	210.64
977.95	210.62
978.24	210.70
978.54	210.72
978.83	210.75
979.12	210.71
979.42	210.71
979.71	210.46
980.00	210.46
980.29	210.41
980.59	210.33
980.88	210.38
981.17	210.31
981.46	210.34
981.76	210.34
982.05	210.50
982.34	210.57
982.63	210.58
982.93	210.49
983.22	210.57
983.51	210.54
983.80	210.60
984.09	210.67
984.39	210.66
984.68	210.66
984.97	210.63
985.26	210.69
985.55	210.67
985.85	210.76
986.14	210.81
986.43	210.93
986.72	210.91
987.01	210.80
987.30	210.81
987.59	210.79
987.89	210.78
988.18	210.58
988.47	210.51
988.76	210.40
989.05	210.41
989.34	210.33
989.63	210.43
989.92	210.35
990.22	210.23
990.51	210.22
990.80	210.16
991.09	210.19
991.38	210.20
991.67	210.24
991.96	210.16
992.25	210.12
992.54	209.99
992.83	210.03
993.12	210.01
993.41	210.07
993.70	210.26
993.99	210.41
994.28	210.47
994.58	210.51
994.87	210.45
995.16	210.49
995.45	210.54
995.74	210.47
996.03	210.56
996.32	210.65
996.61	210.75
996.90	210.75
997.19	210.77
997.48	210.75
997.77	210.66
998.06	210.62
998.34	210.64
998.63	210.72
998.92	210.70
999.21	210.76
999.50	210.79
999.79	210.58
1000.08	210.48
1000.37	210.43
1000.66	210.41
1000.95	210.63
1001.24	210.60
1001.53	210.63
1001.82	210.61
1002.11	210.40
1002.40	210.36
1002.68	210.45
1002.97	210.69
1003.26	210.62
1003.55	210.57
1003.84	210.64
1004.13	210.83
1004.42	210.78
1004.71	210.73
1004.99	210.75
1005.28	210.81
1005.57	210.81
1005.86	210.80
1006.15	210.83
1006.44	210.81
1006.72	210.88
1007.01	210.76
1007.30	210.72
1007.59	210.72
1007.88	210.78
1008.17	210.93
1008.45	210.91
1008.74	210.70
1009.03	210.58
1009.32	210.67
1009.60	210.69
1009.89	210.64
1010.18	210.51
1010.47	210.58
1010.76	210.55
1011.04	210.53
1011.33	210.60
1011.62	210.63
1011.91	210.60
1012.19	210.61
1012.48	210.63
1012.77	210.57
1013.05	210.77
1013.34	210.84
1013.63	210.79
1013.92	210.74
1014.20	210.70
1014.49	210.74
1014.78	210.77
1015.06	210.62
1015.35	210.52
1015.64	210.58
1015.92	210.61
1016.21	210.63
1016.50	210.59
1016.78	210.61
1017.07	210.64
1017.36	210.51
1017.64	210.41
1017.93	210.52
1018.22	210.54
1018.50	210.57
1018.79	210.53
1019.08	210.38
1019.36	210.35
1019.65	210.34
1019.93	210.52
1020.22	210.60
1020.51	210.75
1020.79	210.74
1021.08	211.50
1021.36	210.75
1021.65	210.15
1021.94	210.80
1022.22	210.10
1022.51	209.95
1022.79	213.65
1023.08	211.60
1023.36	214.85
1023.65	209.30
>>>>>End Processed Spectral Data<<<<<
