SpectraSuite Data File
++++++++++++++++++++++++++++++++++++
Date: Mon Feb 25 17:05:06 EST 2013
User: group
Dark Spectrum Present: No
Reference Spectrum Present: No
Number of Sampled Component Spectra: 1
Spectrometers: USB2E7196
Integration Time (usec): 104000 (USB2E7196)
Spectra Averaged: 20 (USB2E7196)
Boxcar Smoothing: 10 (USB2E7196)
Correct for Electrical Dark: No (USB2E7196)
Strobe/Lamp Enabled: No (USB2E7196)
Correct for Detector Non-linearity: No (USB2E7196)
Correct for Stray Light: No (USB2E7196)
Number of Pixels in Processed Spectrum: 2048
>>>>>Begin Processed Spectral Data<<<<<
339.09	0.00
339.48	198.45
339.86	199.40
340.24	201.45
340.63	202.50
341.01	209.10
341.39	205.60
341.78	207.90
342.16	209.15
342.54	208.00
342.93	198.38
343.31	208.39
343.69	208.94
344.07	209.49
344.46	209.97
344.84	210.41
345.22	210.47
345.60	210.73
345.99	210.88
346.37	210.95
346.75	211.07
347.13	211.17
347.52	211.21
347.90	211.34
348.28	211.39
348.66	211.54
349.05	211.45
349.43	211.52
349.81	211.55
350.19	211.49
350.57	211.54
350.96	211.63
351.34	211.82
351.72	211.95
352.10	212.00
352.48	211.99
352.87	212.04
353.25	212.06
353.63	212.18
354.01	212.22
354.39	212.32
354.77	212.40
355.15	212.56
355.54	212.55
355.92	212.50
356.30	212.44
356.68	212.73
357.06	212.76
357.44	212.75
357.82	212.81
358.20	212.94
358.58	212.91
358.97	212.95
359.35	212.98
359.73	213.06
360.11	213.16
360.49	213.26
360.87	213.25
361.25	213.41
361.63	213.54
362.01	213.61
362.39	213.55
362.77	213.59
363.15	213.52
363.53	213.60
363.91	213.71
364.29	213.75
364.67	213.40
365.05	213.44
365.43	213.43
365.81	213.49
366.19	213.65
366.57	213.88
366.95	213.83
367.33	213.74
367.71	213.64
368.09	213.66
368.47	213.57
368.85	213.56
369.23	213.56
369.61	213.36
369.99	213.47
370.37	213.53
370.75	213.64
371.13	213.57
371.51	213.48
371.89	213.39
372.27	213.37
372.65	213.37
373.03	213.33
373.41	213.26
373.78	213.10
374.16	212.84
374.54	212.62
374.92	212.55
375.30	212.46
375.68	212.35
376.06	212.27
376.44	212.23
376.82	212.20
377.19	212.11
377.57	212.05
377.95	211.85
378.33	211.78
378.71	211.55
379.09	211.54
379.47	211.55
379.84	211.45
380.22	211.42
380.60	211.30
380.98	211.25
381.36	211.21
381.73	211.13
382.11	211.14
382.49	211.15
382.87	210.98
383.25	210.91
383.62	211.31
384.00	211.17
384.38	211.07
384.76	211.06
385.13	211.15
385.51	211.08
385.89	211.09
386.27	211.08
386.64	211.08
387.02	210.96
387.40	210.91
387.78	210.91
388.15	210.95
388.53	210.88
388.91	210.87
389.29	210.76
389.66	210.86
390.04	210.77
390.42	210.85
390.79	210.95
391.17	210.92
391.55	210.53
391.92	210.53
392.30	210.58
392.68	210.51
393.05	210.44
393.43	210.45
393.81	210.39
394.18	210.28
394.56	210.25
394.94	210.35
395.31	210.31
395.69	210.41
396.06	210.34
396.44	210.42
396.82	210.34
397.19	210.56
397.57	210.47
397.95	210.47
398.32	210.35
398.70	210.38
399.07	210.51
399.45	210.54
399.82	210.57
400.20	210.59
400.58	210.57
400.95	210.47
401.33	210.51
401.70	210.75
402.08	210.80
402.45	210.90
402.83	211.05
403.20	211.06
403.58	210.99
403.95	211.17
404.33	211.23
404.71	211.37
405.08	211.63
405.46	211.75
405.83	211.89
406.21	211.98
406.58	212.13
406.96	212.25
407.33	212.43
407.70	212.68
408.08	213.11
408.45	213.33
408.83	213.65
409.20	213.85
409.58	213.76
409.95	214.06
410.33	214.38
410.70	214.51
411.08	214.90
411.45	215.25
411.82	215.46
412.20	215.84
412.57	216.44
412.95	216.54
413.32	217.11
413.69	217.55
414.07	218.01
414.44	218.50
414.82	219.11
415.19	219.72
415.56	220.36
415.94	220.89
416.31	221.83
416.68	222.58
417.06	223.58
417.43	224.72
417.81	225.75
418.18	226.61
418.55	227.80
418.93	228.96
419.30	230.27
419.67	231.62
420.04	233.01
420.42	234.30
420.79	236.17
421.16	237.70
421.54	239.66
421.91	241.54
422.28	243.41
422.66	245.33
423.03	247.50
423.40	249.52
423.77	251.66
424.15	253.71
424.52	256.03
424.89	258.50
425.26	260.74
425.64	263.02
426.01	265.69
426.38	268.18
426.75	270.99
427.13	273.77
427.50	276.75
427.87	279.72
428.24	282.73
428.61	285.59
428.99	289.11
429.36	292.52
429.73	295.99
430.10	299.53
430.47	303.10
430.85	306.66
431.22	310.53
431.59	314.93
431.96	318.90
432.33	323.39
432.70	327.68
433.08	332.84
433.45	337.69
433.82	342.42
434.19	347.83
434.56	352.99
434.93	357.90
435.30	362.82
435.68	368.40
436.05	373.94
436.42	379.30
436.79	384.16
437.16	389.48
437.53	395.23
437.90	400.82
438.27	406.53
438.64	412.18
439.01	417.67
439.38	422.32
439.75	427.17
440.13	432.41
440.50	437.45
440.87	441.59
441.24	445.84
441.61	450.73
441.98	454.25
442.35	458.36
442.72	462.75
443.09	466.97
443.46	469.54
443.83	471.42
444.20	473.08
444.57	475.29
444.94	476.54
445.31	477.86
445.68	479.51
446.05	480.10
446.42	480.02
446.79	479.65
447.16	479.20
447.53	479.06
447.90	477.33
448.27	475.61
448.64	473.01
449.01	471.17
449.37	467.71
449.74	464.43
450.11	460.65
450.48	456.10
450.85	451.39
451.22	447.51
451.59	443.81
451.96	440.21
452.33	435.42
452.70	431.01
453.07	425.66
453.43	419.88
453.80	414.79
454.17	409.86
454.54	405.20
454.91	400.27
455.28	395.20
455.65	390.63
456.02	386.36
456.38	382.39
456.75	377.65
457.12	373.49
457.49	369.59
457.86	365.38
458.23	362.10
458.59	358.49
458.96	354.81
459.33	351.47
459.70	348.24
460.07	345.65
460.43	342.70
460.80	339.83
461.17	337.41
461.54	334.72
461.91	332.17
462.27	329.66
462.64	327.43
463.01	325.02
463.38	322.81
463.74	320.11
464.11	318.10
464.48	316.26
464.85	314.34
465.21	312.81
465.58	311.34
465.95	309.39
466.32	307.78
466.68	306.18
467.05	304.61
467.42	302.93
467.78	301.11
468.15	299.58
468.52	298.58
468.88	296.92
469.25	295.54
469.62	294.55
469.98	293.32
470.35	292.22
470.72	291.11
471.08	289.85
471.45	288.79
471.82	287.83
472.18	286.78
472.55	286.00
472.92	285.04
473.28	284.17
473.65	283.28
474.02	282.55
474.38	281.93
474.75	281.40
475.11	280.78
475.48	280.36
475.85	279.83
476.21	279.30
476.58	278.98
476.94	278.79
477.31	278.30
477.67	277.94
478.04	277.54
478.41	277.32
478.77	277.43
479.14	277.20
479.50	277.13
479.87	277.00
480.23	276.89
480.60	276.74
480.96	276.56
481.33	276.74
481.69	276.74
482.06	276.70
482.42	276.65
482.79	276.73
483.15	276.72
483.52	276.94
483.88	276.93
484.25	277.05
484.61	277.17
484.98	277.39
485.34	277.72
485.71	278.05
486.07	278.46
486.44	278.45
486.80	278.88
487.17	279.25
487.53	279.82
487.90	280.38
488.26	280.99
488.62	281.82
488.99	282.25
489.35	282.81
489.72	283.49
490.08	284.15
490.44	284.79
490.81	285.70
491.17	286.37
491.54	287.23
491.90	288.19
492.26	289.03
492.63	289.89
492.99	290.70
493.36	291.72
493.72	292.70
494.08	293.80
494.45	294.94
494.81	296.01
495.17	297.06
495.54	298.19
495.90	299.26
496.26	300.30
496.63	301.60
496.99	302.87
497.35	304.05
497.72	305.41
498.08	306.72
498.44	307.93
498.80	309.39
499.17	310.77
499.53	312.01
499.89	313.39
500.26	314.71
500.62	316.15
500.98	317.52
501.34	318.85
501.71	320.27
502.07	321.59
502.43	322.83
502.79	324.06
503.16	325.34
503.52	326.70
503.88	327.88
504.24	329.11
504.60	330.39
504.97	331.85
505.33	333.00
505.69	334.38
506.05	335.69
506.41	336.83
506.78	337.88
507.14	338.99
507.50	340.13
507.86	341.20
508.22	342.17
508.59	343.07
508.95	344.10
509.31	345.22
509.67	346.17
510.03	347.14
510.39	348.09
510.75	348.94
511.12	349.75
511.48	350.62
511.84	351.43
512.20	352.26
512.56	352.89
512.92	353.81
513.28	354.55
513.64	355.18
514.00	355.86
514.37	356.56
514.73	357.40
515.09	358.10
515.45	358.85
515.81	359.48
516.17	360.21
516.53	360.83
516.89	361.26
517.25	361.87
517.61	362.61
517.97	363.35
518.33	364.05
518.69	364.75
519.05	365.55
519.41	366.30
519.77	367.20
520.13	367.89
520.49	368.45
520.85	369.10
521.21	369.95
521.57	370.85
521.93	371.69
522.29	372.43
522.65	373.36
523.01	374.20
523.37	375.16
523.73	376.21
524.09	377.22
524.45	378.20
524.81	379.27
525.17	380.48
525.53	381.64
525.89	382.91
526.25	384.19
526.61	385.30
526.97	386.44
527.33	387.65
527.68	389.50
528.04	391.03
528.40	392.55
528.76	394.04
529.12	395.55
529.48	397.25
529.84	398.88
530.20	400.56
530.56	402.43
530.91	404.41
531.27	406.27
531.63	408.28
531.99	410.27
532.35	412.22
532.71	414.00
533.07	416.03
533.42	418.42
533.78	420.43
534.14	422.62
534.50	424.84
534.86	427.26
535.21	429.15
535.57	431.47
535.93	433.70
536.29	436.21
536.65	438.57
537.00	440.88
537.36	443.26
537.72	445.57
538.08	448.07
538.44	450.38
538.79	452.96
539.15	455.37
539.51	457.86
539.87	460.46
540.22	463.27
540.58	465.93
540.94	468.36
541.29	471.12
541.65	473.83
542.01	476.58
542.37	479.17
542.72	481.95
543.08	484.54
543.44	487.46
543.79	489.84
544.15	492.70
544.51	495.79
544.87	498.68
545.22	501.53
545.58	504.26
545.94	506.97
546.29	509.74
546.65	512.50
547.01	515.23
547.36	518.05
547.72	520.59
548.07	523.25
548.43	525.72
548.79	528.30
549.14	530.90
549.50	533.65
549.86	536.10
550.21	538.52
550.57	541.34
550.92	543.74
551.28	546.28
551.64	548.71
551.99	550.96
552.35	553.40
552.70	555.78
553.06	558.30
553.41	560.86
553.77	563.23
554.13	565.49
554.48	568.01
554.84	570.48
555.19	572.92
555.55	575.54
555.90	577.73
556.26	579.94
556.61	581.98
556.97	583.83
557.32	585.96
557.68	588.03
558.03	589.95
558.39	591.99
558.74	594.24
559.10	596.27
559.45	598.37
559.81	600.45
560.16	602.41
560.52	604.28
560.87	606.13
561.23	607.83
561.58	610.16
561.94	611.92
562.29	613.58
562.64	615.26
563.00	616.71
563.35	618.53
563.71	620.49
564.06	622.35
564.42	624.28
564.77	626.15
565.12	628.11
565.48	630.05
565.83	631.62
566.19	633.22
566.54	634.73
566.89	636.12
567.25	637.64
567.60	639.25
567.96	640.91
568.31	642.49
568.66	643.88
569.02	644.79
569.37	645.70
569.72	646.75
570.08	647.86
570.43	648.69
570.78	649.57
571.14	650.20
571.49	650.93
571.84	651.70
572.20	652.07
572.55	652.53
572.90	652.70
573.26	653.23
573.61	653.69
573.96	654.07
574.31	654.44
574.67	654.48
575.02	654.39
575.37	653.95
575.72	653.70
576.08	653.74
576.43	653.55
576.78	653.69
577.13	653.66
577.49	653.66
577.84	653.67
578.19	653.87
578.54	654.16
578.90	654.28
579.25	654.17
579.60	654.03
579.95	653.64
580.30	653.47
580.66	653.38
581.01	653.11
581.36	652.83
581.71	652.55
582.06	652.58
582.42	652.42
582.77	652.40
583.12	652.22
583.47	652.08
583.82	652.08
584.17	651.98
584.53	651.88
584.88	651.50
585.23	651.29
585.58	650.86
585.93	650.17
586.28	649.88
586.63	649.59
586.98	649.43
587.34	649.48
587.69	649.21
588.04	648.88
588.39	648.51
588.74	647.90
589.09	647.49
589.44	646.70
589.79	646.33
590.14	645.94
590.49	645.46
590.84	644.78
591.19	644.28
591.54	643.61
591.89	642.74
592.25	642.20
592.60	641.44
592.95	640.68
593.30	639.84
593.65	638.67
594.00	637.66
594.35	637.75
594.70	636.72
595.05	635.94
595.40	635.01
595.75	633.77
596.10	633.09
596.45	632.15
596.80	631.46
597.15	630.54
597.50	629.43
597.85	628.53
598.19	627.46
598.54	626.49
598.89	625.57
599.24	624.91
599.59	623.92
599.94	623.17
600.29	622.17
600.64	621.46
600.99	620.74
601.34	619.93
601.69	618.08
602.04	617.12
602.39	616.04
602.74	615.24
603.08	614.70
603.43	613.96
603.78	613.10
604.13	612.23
604.48	611.52
604.83	610.85
605.18	610.10
605.53	609.33
605.87	608.34
606.22	607.49
606.57	606.46
606.92	605.43
607.27	604.24
607.62	603.18
607.96	602.18
608.31	601.33
608.66	600.28
609.01	599.14
609.36	598.02
609.70	596.87
610.05	595.60
610.40	594.41
610.75	593.05
611.10	591.84
611.44	590.24
611.79	588.52
612.14	586.85
612.49	585.12
612.83	583.83
613.18	582.34
613.53	580.81
613.88	579.14
614.22	577.66
614.57	576.19
614.92	574.86
615.27	573.24
615.61	571.55
615.96	569.96
616.31	568.53
616.65	567.02
617.00	565.58
617.35	563.99
617.70	562.40
618.04	560.64
618.39	558.85
618.74	557.48
619.08	555.98
619.43	554.48
619.78	552.93
620.12	551.17
620.47	549.65
620.82	547.80
621.16	546.00
621.51	544.48
621.85	542.92
622.20	541.12
622.55	539.41
622.89	537.58
623.24	536.04
623.59	534.09
623.93	532.44
624.28	530.72
624.62	529.41
624.97	527.81
625.32	526.10
625.66	524.51
626.01	522.70
626.35	520.96
626.70	519.34
627.04	517.94
627.39	516.34
627.73	514.72
628.08	513.17
628.43	511.73
628.77	509.93
629.12	508.16
629.46	506.56
629.81	504.91
630.15	503.31
630.50	501.57
630.84	500.03
631.19	498.39
631.53	496.70
631.88	494.62
632.22	492.75
632.57	491.45
632.91	489.81
633.26	488.25
633.60	486.63
633.95	485.17
634.29	483.26
634.64	481.79
634.98	480.02
635.32	478.54
635.67	477.06
636.01	475.53
636.36	473.97
636.70	472.55
637.05	470.96
637.39	469.51
637.73	468.12
638.08	466.75
638.42	465.36
638.77	463.95
639.11	462.44
639.45	460.93
639.80	459.04
640.14	457.38
640.49	455.72
640.83	454.24
641.17	452.58
641.52	451.09
641.86	449.34
642.20	447.90
642.55	446.17
642.89	444.42
643.23	442.77
643.58	441.44
643.92	439.62
644.26	438.11
644.61	436.58
644.95	434.78
645.29	433.05
645.64	431.45
645.98	429.73
646.32	428.31
646.66	426.64
647.01	425.19
647.35	423.68
647.69	422.11
648.04	420.59
648.38	418.96
648.72	417.43
649.06	415.80
649.41	414.16
649.75	412.60
650.09	411.21
650.43	409.65
650.78	407.80
651.12	406.28
651.46	404.76
651.80	403.17
652.14	401.70
652.49	400.34
652.83	398.69
653.17	397.15
653.51	395.39
653.85	394.03
654.20	392.55
654.54	391.07
654.88	389.55
655.22	388.17
655.56	386.67
655.90	385.04
656.25	383.60
656.59	382.13
656.93	380.61
657.27	379.21
657.61	377.71
657.95	376.34
658.29	374.88
658.64	373.48
658.98	371.95
659.32	370.46
659.66	368.87
660.00	367.39
660.34	365.99
660.68	364.67
661.02	363.13
661.36	361.85
661.70	360.43
662.05	359.15
662.39	357.81
662.73	356.61
663.07	355.55
663.41	354.35
663.75	353.07
664.09	351.80
664.43	350.30
664.77	349.11
665.11	347.90
665.45	346.72
665.79	345.50
666.13	344.39
666.47	343.15
666.81	342.00
667.15	340.73
667.49	339.67
667.83	338.60
668.17	337.54
668.51	336.32
668.85	335.39
669.19	334.43
669.53	333.18
669.87	331.97
670.21	330.78
670.55	329.59
670.89	328.65
671.23	327.73
671.57	326.78
671.91	325.72
672.25	324.72
672.58	323.84
672.92	322.78
673.26	321.74
673.60	320.83
673.94	319.93
674.28	319.11
674.62	318.16
674.96	317.14
675.30	316.16
675.64	315.23
675.97	314.18
676.31	313.21
676.65	312.33
676.99	311.63
677.33	310.72
677.67	309.93
678.01	308.91
678.34	308.00
678.68	307.25
679.02	306.33
679.36	305.36
679.70	304.43
680.04	303.58
680.37	302.77
680.71	301.92
681.05	301.07
681.39	300.20
681.73	299.28
682.06	298.50
682.40	297.70
682.74	296.89
683.08	296.21
683.42	295.35
683.75	294.62
684.09	293.77
684.43	292.94
684.77	291.96
685.10	291.19
685.44	290.37
685.78	289.52
686.12	288.88
686.45	288.17
686.79	287.42
687.13	286.72
687.46	286.00
687.80	285.35
688.14	284.59
688.48	283.88
688.81	283.23
689.15	282.54
689.49	281.78
689.82	281.12
690.16	280.22
690.50	279.54
690.83	278.72
691.17	277.87
691.51	277.18
691.84	276.64
692.18	275.96
692.52	275.40
692.85	274.79
693.19	274.22
693.52	273.57
693.86	272.86
694.20	272.25
694.53	271.61
694.87	270.89
695.21	270.20
695.54	269.63
695.88	268.93
696.21	268.23
696.55	267.75
696.88	267.10
697.22	266.55
697.56	266.01
697.89	265.42
698.23	264.92
698.56	264.42
698.90	263.96
699.23	263.36
699.57	262.73
699.90	262.08
700.24	261.45
700.58	260.92
700.91	260.49
701.25	260.19
701.58	259.77
701.92	259.32
702.25	258.85
702.59	258.26
702.92	257.87
703.26	257.41
703.59	256.94
703.93	256.81
704.26	256.46
704.60	256.00
704.93	255.58
705.26	255.03
705.60	254.68
705.93	254.09
706.27	253.84
706.60	253.50
706.94	253.27
707.27	252.74
707.61	252.35
707.94	251.90
708.27	251.17
708.61	250.67
708.94	250.25
709.28	249.89
709.61	249.53
709.94	249.11
710.28	248.70
710.61	248.30
710.95	247.55
711.28	247.34
711.61	246.92
711.95	246.62
712.28	246.30
712.61	245.93
712.95	245.81
713.28	245.53
713.61	245.16
713.95	244.70
714.28	244.50
714.61	244.08
714.95	243.69
715.28	243.32
715.61	242.93
715.95	242.61
716.28	242.20
716.61	241.95
716.95	241.61
717.28	241.33
717.61	241.05
717.94	240.73
718.28	240.24
718.61	240.00
718.94	239.60
719.27	239.31
719.61	238.98
719.94	238.55
720.27	238.12
720.60	237.81
720.94	237.61
721.27	237.28
721.60	237.08
721.93	236.87
722.27	236.75
722.60	236.60
722.93	236.31
723.26	236.21
723.59	235.87
723.93	235.64
724.26	235.47
724.59	235.23
724.92	235.15
725.25	234.95
725.59	234.73
725.92	234.67
726.25	234.49
726.58	234.28
726.91	234.11
727.24	233.90
727.57	233.69
727.91	233.38
728.24	233.11
728.57	232.93
728.90	232.75
729.23	232.45
729.56	232.40
729.89	232.25
730.22	231.97
730.55	231.75
730.89	231.55
731.22	231.27
731.55	231.02
731.88	230.78
732.21	230.47
732.54	230.16
732.87	229.85
733.20	229.61
733.53	229.41
733.86	229.23
734.19	229.00
734.52	228.94
734.85	228.92
735.18	228.71
735.51	228.58
735.84	228.39
736.17	228.33
736.50	227.93
736.83	228.19
737.16	228.04
737.49	227.94
737.82	227.70
738.15	227.57
738.48	227.41
738.81	227.22
739.14	227.02
739.47	226.95
739.80	226.77
740.13	226.71
740.46	226.45
740.79	226.20
741.12	226.03
741.45	225.73
741.78	225.49
742.11	225.51
742.44	225.29
742.77	225.21
743.10	225.05
743.43	224.90
743.75	224.32
744.08	224.56
744.41	224.38
744.74	224.28
745.07	224.11
745.40	224.05
745.73	224.00
746.06	223.93
746.39	223.80
746.71	223.65
747.04	223.43
747.37	223.40
747.70	223.38
748.03	223.35
748.36	223.28
748.68	223.11
749.01	222.87
749.34	222.81
749.67	222.66
750.00	222.59
750.33	222.82
750.65	222.79
750.98	222.25
751.31	222.19
751.64	222.10
751.97	222.19
752.29	222.03
752.62	221.80
752.95	221.67
753.28	221.49
753.60	221.48
753.93	221.50
754.26	221.44
754.59	221.25
754.91	221.07
755.24	221.00
755.57	220.93
755.90	220.82
756.22	220.69
756.55	220.58
756.88	220.35
757.20	219.99
757.53	219.76
757.86	219.62
758.19	219.63
758.51	219.56
758.84	219.29
759.17	219.23
759.49	219.22
759.82	219.28
760.15	219.29
760.47	219.14
760.80	218.98
761.13	218.95
761.45	218.83
761.78	218.79
762.11	218.67
762.43	218.54
762.76	218.53
763.08	218.54
763.41	218.45
763.74	218.46
764.06	218.37
764.39	218.30
764.71	218.24
765.04	218.07
765.37	217.96
765.69	217.92
766.02	217.83
766.34	217.70
766.67	217.55
767.00	217.51
767.32	217.66
767.65	217.77
767.97	217.63
768.30	217.60
768.62	217.47
768.95	217.46
769.27	217.38
769.60	217.27
769.92	217.06
770.25	216.98
770.57	216.87
770.90	216.82
771.22	216.76
771.55	216.76
771.87	216.71
772.20	216.63
772.52	216.82
772.85	217.17
773.17	217.13
773.50	217.00
773.82	216.87
774.15	216.62
774.47	216.40
774.80	216.35
775.12	216.27
775.45	216.23
775.77	216.15
776.09	216.15
776.42	216.14
776.74	216.21
777.07	216.11
777.39	216.03
777.72	215.93
778.04	215.93
778.36	215.82
778.69	215.79
779.01	215.73
779.33	215.44
779.66	214.97
779.98	214.92
780.31	214.95
780.63	215.08
780.95	215.16
781.28	215.05
781.60	214.95
781.92	214.96
782.25	214.93
782.57	214.81
782.89	214.73
783.22	214.65
783.54	214.56
783.86	214.59
784.19	214.55
784.51	214.66
784.83	214.61
785.16	214.62
785.48	214.65
785.80	214.67
786.12	214.65
786.45	214.59
786.77	214.64
787.09	214.55
787.42	214.37
787.74	214.27
788.06	214.24
788.38	214.25
788.71	214.15
789.03	214.13
789.35	214.16
789.67	214.12
789.99	214.15
790.32	214.01
790.64	214.01
790.96	214.28
791.28	214.14
791.61	214.09
791.93	214.08
792.25	213.94
792.57	214.17
792.89	214.14
793.21	214.17
793.54	214.09
793.86	214.14
794.18	214.23
794.50	214.16
794.82	214.23
795.14	214.24
795.47	214.32
795.79	214.25
796.11	214.20
796.43	214.21
796.75	214.20
797.07	214.34
797.39	214.28
797.71	214.02
798.04	214.02
798.36	214.03
798.68	214.01
799.00	214.13
799.32	213.90
799.64	213.92
799.96	213.96
800.28	213.97
800.60	213.90
800.92	213.80
801.24	213.80
801.56	213.76
801.89	213.72
802.21	213.67
802.53	213.68
802.85	213.80
803.17	214.00
803.49	213.91
803.81	213.85
804.13	213.81
804.45	213.71
804.77	213.80
805.09	213.81
805.41	213.74
805.73	213.57
806.05	213.48
806.37	213.36
806.69	213.22
807.01	213.19
807.33	213.21
807.65	213.14
807.97	213.32
808.28	213.26
808.60	213.25
808.92	213.18
809.24	213.33
809.56	213.18
809.88	212.93
810.20	212.89
810.52	212.90
810.84	212.85
811.16	212.78
811.48	212.70
811.80	212.84
812.12	212.79
812.43	212.90
812.75	212.88
813.07	212.91
813.39	212.97
813.71	212.95
814.03	212.88
814.35	212.89
814.67	212.69
814.98	212.72
815.30	212.66
815.62	212.57
815.94	212.32
816.26	212.34
816.58	212.33
816.89	212.35
817.21	212.34
817.53	212.35
817.85	212.36
818.17	212.41
818.48	212.20
818.80	212.26
819.12	212.21
819.44	212.17
819.76	212.15
820.07	212.15
820.39	212.11
820.71	212.15
821.03	212.14
821.34	212.11
821.66	212.09
821.98	212.07
822.30	212.05
822.61	212.35
822.93	212.35
823.25	212.31
823.57	212.32
823.88	212.31
824.20	212.34
824.52	212.43
824.83	212.31
825.15	212.36
825.47	212.33
825.79	212.33
826.10	212.33
826.42	212.22
826.74	212.21
827.05	212.17
827.37	212.11
827.69	212.01
828.00	212.01
828.32	212.00
828.64	212.04
828.95	212.25
829.27	212.10
829.58	212.00
829.90	212.08
830.22	212.03
830.53	211.96
830.85	211.96
831.17	211.90
831.48	211.88
831.80	211.81
832.11	211.80
832.43	211.65
832.75	211.68
833.06	211.96
833.38	211.84
833.69	211.80
834.01	211.78
834.32	211.82
834.64	211.74
834.96	211.68
835.27	211.65
835.59	211.53
835.90	211.38
836.22	211.42
836.53	211.35
836.85	211.32
837.16	211.63
837.48	211.58
837.79	211.65
838.11	211.67
838.42	211.70
838.74	211.63
839.05	211.68
839.37	211.62
839.68	211.34
840.00	211.32
840.31	211.40
840.63	211.39
840.94	211.34
841.26	211.38
841.57	211.39
841.88	211.43
842.20	211.39
842.51	211.35
842.83	211.34
843.14	211.65
843.46	211.68
843.77	211.46
844.08	211.44
844.40	211.30
844.71	211.26
845.03	211.15
845.34	211.20
845.65	211.17
845.97	211.15
846.28	211.20
846.60	211.25
846.91	211.16
847.22	211.10
847.54	211.20
847.85	211.14
848.16	211.11
848.48	211.04
848.79	211.14
849.10	211.25
849.42	211.25
849.73	210.90
850.04	210.86
850.36	210.74
850.67	210.77
850.98	210.84
851.30	210.79
851.61	210.82
851.92	210.79
852.23	210.83
852.55	210.83
852.86	210.88
853.17	210.88
853.49	211.00
853.80	211.08
854.11	211.08
854.42	211.20
854.74	211.16
855.05	211.20
855.36	211.04
855.67	211.04
855.99	211.04
856.30	211.51
856.61	211.53
856.92	211.55
857.23	211.59
857.55	211.56
857.86	211.59
858.17	211.64
858.48	211.54
858.79	211.56
859.11	211.59
859.42	211.51
859.73	211.49
860.04	211.47
860.35	211.40
860.66	211.32
860.98	211.26
861.29	211.30
861.60	211.21
861.91	211.29
862.22	211.17
862.53	211.08
862.84	210.69
863.16	210.78
863.47	210.73
863.78	210.68
864.09	210.71
864.40	210.70
864.71	210.74
865.02	210.79
865.33	210.79
865.64	210.74
865.95	210.76
866.27	211.01
866.58	211.00
866.89	211.04
867.20	211.05
867.51	210.93
867.82	211.00
868.13	211.08
868.44	211.07
868.75	211.20
869.06	211.25
869.37	211.25
869.68	211.18
869.99	211.23
870.30	211.23
870.61	211.24
870.92	211.20
871.23	211.14
871.54	211.22
871.85	211.26
872.16	211.30
872.47	211.28
872.78	211.05
873.09	211.07
873.40	211.03
873.71	211.02
874.02	211.14
874.33	211.06
874.64	211.01
874.95	211.00
875.26	210.94
875.56	210.95
875.87	210.90
876.18	210.84
876.49	211.16
876.80	211.18
877.11	211.07
877.42	211.15
877.73	211.14
878.04	211.16
878.35	211.10
878.66	211.08
878.96	211.09
879.27	211.05
879.58	210.98
879.89	210.97
880.20	211.09
880.51	211.04
880.82	211.01
881.12	211.03
881.43	210.93
881.74	210.85
882.05	210.83
882.36	210.89
882.67	210.92
882.97	210.56
883.28	210.44
883.59	210.46
883.90	210.45
884.21	210.52
884.51	210.40
884.82	210.40
885.13	210.39
885.44	210.35
885.74	210.36
886.05	210.34
886.36	210.37
886.67	210.23
886.98	210.37
887.28	210.46
887.59	210.47
887.90	210.51
888.20	210.59
888.51	210.67
888.82	210.59
889.13	210.57
889.43	210.88
889.74	210.97
890.05	210.92
890.35	210.88
890.66	210.81
890.97	210.81
891.28	210.78
891.58	210.85
891.89	210.87
892.20	210.81
892.50	210.79
892.81	210.75
893.12	210.72
893.42	210.60
893.73	210.53
894.04	210.51
894.34	210.55
894.65	210.53
894.95	210.50
895.26	210.54
895.57	210.74
895.87	210.35
896.18	210.38
896.48	210.56
896.79	210.56
897.10	210.64
897.40	210.70
897.71	210.74
898.01	210.69
898.32	210.73
898.63	210.81
898.93	210.85
899.24	210.94
899.54	211.03
899.85	211.03
900.15	211.07
900.46	211.09
900.76	211.17
901.07	211.17
901.38	211.20
901.68	211.20
901.99	211.01
902.29	211.11
902.60	211.03
902.90	210.90
903.21	210.90
903.51	210.83
903.82	210.94
904.12	210.91
904.43	210.91
904.73	210.95
905.03	210.96
905.34	211.32
905.64	211.22
905.95	211.08
906.25	211.05
906.56	211.09
906.86	211.17
907.17	211.06
907.47	211.05
907.77	210.95
908.08	210.91
908.38	210.94
908.69	211.01
908.99	211.07
909.30	211.15
909.60	211.14
909.90	211.23
910.21	211.10
910.51	211.07
910.81	211.12
911.12	211.07
911.42	211.09
911.73	210.73
912.03	210.81
912.33	210.93
912.64	210.94
912.94	210.85
913.24	210.73
913.55	210.80
913.85	210.81
914.15	210.91
914.46	210.96
914.76	210.93
915.06	210.87
915.37	210.79
915.67	210.76
915.97	210.77
916.27	210.64
916.58	210.66
916.88	210.66
917.18	210.61
917.49	210.90
917.79	210.87
918.09	210.89
918.39	210.85
918.70	210.95
919.00	211.00
919.30	211.25
919.60	211.24
919.91	211.22
920.21	211.29
920.51	211.22
920.81	211.22
921.12	211.27
921.42	211.29
921.72	211.39
922.02	211.45
922.32	211.54
922.63	211.61
922.93	211.73
923.23	211.76
923.53	211.74
923.83	211.48
924.13	211.50
924.44	211.47
924.74	211.63
925.04	211.75
925.34	211.68
925.64	211.47
925.94	211.49
926.24	211.70
926.55	211.70
926.85	211.75
927.15	211.67
927.45	211.74
927.75	211.73
928.05	211.78
928.35	211.68
928.65	211.73
928.95	211.70
929.26	211.67
929.56	211.75
929.86	211.85
930.16	211.86
930.46	211.88
930.76	211.91
931.06	211.78
931.36	211.54
931.66	211.59
931.96	211.68
932.26	211.75
932.56	211.57
932.86	211.52
933.16	211.49
933.46	211.48
933.76	211.38
934.06	211.43
934.36	211.50
934.66	211.57
934.96	211.48
935.26	211.55
935.56	211.59
935.86	211.50
936.16	211.37
936.46	211.35
936.76	211.35
937.06	211.33
937.36	211.33
937.66	211.40
937.96	211.36
938.26	211.25
938.56	211.10
938.86	211.07
939.16	211.16
939.46	211.21
939.76	211.25
940.06	211.22
940.35	211.13
940.65	210.99
940.95	210.95
941.25	210.93
941.55	210.85
941.85	210.80
942.15	210.89
942.45	211.01
942.75	210.99
943.04	210.94
943.34	211.02
943.64	210.99
943.94	210.95
944.24	210.95
944.54	210.98
944.84	211.04
945.13	211.02
945.43	210.95
945.73	210.89
946.03	210.86
946.33	210.91
946.62	210.89
946.92	210.83
947.22	210.84
947.52	210.88
947.82	210.95
948.11	210.90
948.41	210.76
948.71	210.65
949.01	210.65
949.31	210.62
949.60	210.51
949.90	210.50
950.20	210.46
950.50	210.53
950.79	210.45
951.09	210.49
951.39	210.44
951.69	210.39
951.98	210.53
952.28	210.60
952.58	210.57
952.87	210.55
953.17	210.56
953.47	210.55
953.76	210.52
954.06	210.42
954.36	210.43
954.66	210.41
954.95	210.55
955.25	210.60
955.55	210.65
955.84	210.67
956.14	210.71
956.44	210.75
956.73	210.67
957.03	210.78
957.32	210.74
957.62	210.77
957.92	210.88
958.21	210.78
958.51	211.18
958.81	211.25
959.10	211.35
959.40	211.44
959.69	211.44
959.99	211.51
960.29	211.54
960.58	211.43
960.88	211.60
961.17	211.52
961.47	211.56
961.76	211.45
962.06	211.52
962.36	211.55
962.65	211.51
962.95	211.42
963.24	211.34
963.54	211.40
963.83	211.41
964.13	211.36
964.42	211.26
964.72	210.90
965.01	210.84
965.31	210.72
965.60	210.66
965.90	210.86
966.19	210.78
966.49	210.76
966.78	210.79
967.08	210.71
967.37	210.76
967.67	210.62
967.96	210.78
968.26	210.74
968.55	210.75
968.85	210.70
969.14	210.76
969.43	210.74
969.73	210.72
970.02	210.71
970.32	210.71
970.61	210.73
970.91	210.60
971.20	210.53
971.49	210.52
971.79	210.56
972.08	210.27
972.38	210.20
972.67	210.24
972.96	210.25
973.26	210.25
973.55	210.28
973.85	210.32
974.14	210.24
974.43	210.26
974.73	210.21
975.02	210.24
975.31	210.25
975.61	210.32
975.90	210.28
976.19	210.21
976.49	210.25
976.78	210.31
977.07	210.36
977.37	210.42
977.66	210.45
977.95	210.40
978.24	210.45
978.54	210.67
978.83	210.58
979.12	210.64
979.42	210.65
979.71	210.58
980.00	210.55
980.29	210.63
980.59	210.55
980.88	210.58
981.17	210.58
981.46	210.58
981.76	210.60
982.05	210.67
982.34	210.74
982.63	210.68
982.93	210.64
983.22	210.76
983.51	210.80
983.80	210.85
984.09	210.90
984.39	210.91
984.68	210.76
984.97	210.85
985.26	210.89
985.55	210.95
985.85	210.88
986.14	210.95
986.43	210.96
986.72	210.95
987.01	210.88
987.30	210.91
987.59	210.90
987.89	210.91
988.18	210.85
988.47	210.87
988.76	210.85
989.05	210.81
989.34	210.79
989.63	210.88
989.92	210.86
990.22	210.90
990.51	210.89
990.80	210.88
991.09	210.91
991.38	210.90
991.67	210.78
991.96	210.80
992.25	210.78
992.54	210.77
992.83	210.78
993.12	210.79
993.41	210.80
993.70	210.95
993.99	210.96
994.28	210.96
994.58	211.00
994.87	211.01
995.16	211.05
995.45	211.02
995.74	210.90
996.03	210.94
996.32	210.91
996.61	211.02
996.90	211.10
997.19	211.08
997.48	211.12
997.77	211.07
998.06	211.13
998.34	211.14
998.63	211.09
998.92	211.14
999.21	211.25
999.50	211.31
999.79	211.09
1000.08	211.09
1000.37	211.20
1000.66	211.17
1000.95	211.21
1001.24	211.17
1001.53	211.16
1001.82	211.18
1002.11	211.15
1002.40	211.21
1002.68	211.23
1002.97	211.37
1003.26	211.35
1003.55	211.20
1003.84	211.30
1004.13	211.42
1004.42	211.40
1004.71	211.40
1004.99	211.45
1005.28	211.51
1005.57	211.48
1005.86	211.61
1006.15	211.59
1006.44	211.51
1006.72	211.49
1007.01	211.47
1007.30	211.55
1007.59	211.58
1007.88	211.52
1008.17	211.47
1008.45	211.42
1008.74	211.33
1009.03	211.24
1009.32	211.19
1009.60	211.24
1009.89	211.20
1010.18	211.03
1010.47	211.01
1010.76	211.02
1011.04	210.93
1011.33	210.89
1011.62	210.87
1011.91	210.84
1012.19	210.85
1012.48	210.84
1012.77	210.89
1013.05	211.01
1013.34	210.99
1013.63	210.92
1013.92	211.03
1014.20	211.06
1014.49	211.00
1014.78	210.98
1015.06	210.84
1015.35	210.82
1015.64	210.80
1015.92	210.89
1016.21	210.88
1016.50	210.88
1016.78	210.89
1017.07	210.95
1017.36	210.84
1017.64	210.77
1017.93	210.81
1018.22	210.75
1018.50	210.76
1018.79	210.70
1019.08	210.56
1019.36	210.64
1019.65	210.62
1019.93	210.61
1020.22	210.69
1020.51	210.94
1020.79	210.89
1021.08	209.95
1021.36	210.95
1021.65	210.10
1021.94	210.90
1022.22	212.35
1022.51	210.30
1022.79	211.65
1023.08	212.30
1023.36	215.50
1023.65	208.75
>>>>>End Processed Spectral Data<<<<<
