SpectraSuite Data File
++++++++++++++++++++++++++++++++++++
Date: Mon Feb 25 17:03:04 EST 2013
User: group
Dark Spectrum Present: No
Reference Spectrum Present: No
Number of Sampled Component Spectra: 1
Spectrometers: USB2E7196
Integration Time (usec): 104000 (USB2E7196)
Spectra Averaged: 20 (USB2E7196)
Boxcar Smoothing: 10 (USB2E7196)
Correct for Electrical Dark: No (USB2E7196)
Strobe/Lamp Enabled: No (USB2E7196)
Correct for Detector Non-linearity: No (USB2E7196)
Correct for Stray Light: No (USB2E7196)
Number of Pixels in Processed Spectrum: 2048
>>>>>Begin Processed Spectral Data<<<<<
339.09	0.00
339.48	197.75
339.86	200.25
340.24	202.05
340.63	202.60
341.01	208.40
341.39	205.35
341.78	206.55
342.16	208.50
342.54	207.50
342.93	198.03
343.31	208.03
343.69	208.64
344.07	209.12
344.46	209.57
344.84	209.97
345.22	210.05
345.60	210.36
345.99	210.52
346.37	210.61
346.75	210.78
347.13	210.86
347.52	210.99
347.90	211.14
348.28	211.10
348.66	211.25
349.05	211.20
349.43	211.22
349.81	211.30
350.19	211.33
350.57	211.36
350.96	211.50
351.34	211.65
351.72	211.71
352.10	211.79
352.48	211.80
352.87	211.85
353.25	211.94
353.63	211.88
354.01	212.01
354.39	212.11
354.77	212.15
355.15	212.28
355.54	212.21
355.92	212.09
356.30	212.17
356.68	212.47
357.06	212.48
357.44	212.51
357.82	212.60
358.20	212.68
358.58	212.70
358.97	212.71
359.35	212.79
359.73	212.87
360.11	212.91
360.49	213.00
360.87	213.00
361.25	213.07
361.63	213.34
362.01	213.41
362.39	213.43
362.77	213.57
363.15	213.55
363.53	213.63
363.91	213.71
364.29	213.76
364.67	213.39
365.05	213.53
365.43	213.60
365.81	213.60
366.19	213.76
366.57	213.90
366.95	213.89
367.33	213.77
367.71	213.75
368.09	213.79
368.47	213.77
368.85	213.73
369.23	213.81
369.61	213.55
369.99	213.57
370.37	213.55
370.75	213.66
371.13	213.58
371.51	213.47
371.89	213.45
372.27	213.41
372.65	213.40
373.03	213.30
373.41	213.20
373.78	213.10
374.16	212.79
374.54	212.65
374.92	212.58
375.30	212.55
375.68	212.47
376.06	212.41
376.44	212.36
376.82	212.40
377.19	212.31
377.57	212.34
377.95	212.17
378.33	212.15
378.71	211.81
379.09	211.82
379.47	211.88
379.84	211.79
380.22	211.71
380.60	211.64
380.98	211.58
381.36	211.58
381.73	211.50
382.11	211.52
382.49	211.46
382.87	211.41
383.25	211.40
383.62	211.75
384.00	211.62
384.38	211.53
384.76	211.47
385.13	211.57
385.51	211.51
385.89	211.47
386.27	211.39
386.64	211.47
387.02	211.38
387.40	211.24
387.78	211.26
388.15	211.26
388.53	211.15
388.91	211.11
389.29	211.01
389.66	211.03
390.04	210.98
390.42	211.03
390.79	211.00
391.17	210.94
391.55	210.54
391.92	210.56
392.30	210.57
392.68	210.54
393.05	210.45
393.43	210.43
393.81	210.48
394.18	210.44
394.56	210.36
394.94	210.50
395.31	210.45
395.69	210.51
396.06	210.49
396.44	210.58
396.82	210.49
397.19	210.72
397.57	210.67
397.95	210.71
398.32	210.60
398.70	210.70
399.07	210.79
399.45	210.80
399.82	210.79
400.20	210.79
400.58	210.77
400.95	210.73
401.33	210.88
401.70	211.11
402.08	211.16
402.45	211.18
402.83	211.27
403.20	211.43
403.58	211.46
403.95	211.72
404.33	211.85
404.71	212.11
405.08	212.40
405.46	212.60
405.83	212.79
406.21	213.00
406.58	213.17
406.96	213.31
407.33	213.50
407.70	213.75
408.08	214.28
408.45	214.59
408.83	214.88
409.20	215.06
409.58	215.17
409.95	215.56
410.33	215.94
410.70	216.20
411.08	216.63
411.45	217.11
411.82	217.45
412.20	218.02
412.57	218.58
412.95	218.73
413.32	219.32
413.69	219.86
414.07	220.53
414.44	221.19
414.82	221.95
415.19	222.85
415.56	223.63
415.94	224.38
416.31	225.48
416.68	226.45
417.06	227.68
417.43	228.87
417.81	230.14
418.18	231.52
418.55	232.85
418.93	234.41
419.30	235.92
419.67	237.55
420.04	239.22
420.42	241.01
420.79	243.36
421.16	245.42
421.54	247.77
421.91	249.99
422.28	252.38
422.66	254.91
423.03	257.53
423.40	260.16
423.77	262.89
424.15	265.60
424.52	268.56
424.89	271.72
425.26	274.66
425.64	277.67
426.01	280.87
426.38	284.31
426.75	287.72
427.13	291.29
427.50	295.05
427.87	298.91
428.24	302.81
428.61	306.37
428.99	310.60
429.36	314.92
429.73	319.31
430.10	323.79
430.47	328.17
430.85	332.68
431.22	337.67
431.59	343.12
431.96	348.24
432.33	353.85
432.70	359.28
433.08	365.80
433.45	371.82
433.82	377.87
434.19	384.65
434.56	391.33
434.93	397.64
435.30	403.98
435.68	411.03
436.05	418.03
436.42	424.98
436.79	431.40
437.16	438.31
437.53	445.68
437.90	452.90
438.27	460.12
438.64	467.58
439.01	474.61
439.38	480.81
439.75	486.86
440.13	493.79
440.50	500.32
440.87	505.77
441.24	511.45
441.61	517.66
441.98	522.38
442.35	527.73
442.72	533.21
443.09	538.50
443.46	541.90
443.83	544.29
444.20	546.55
444.57	549.53
444.94	551.33
445.31	553.14
445.68	555.00
446.05	555.98
446.42	555.84
446.79	555.43
447.16	554.86
447.53	554.63
447.90	552.54
448.27	550.37
448.64	547.15
449.01	544.76
449.37	540.50
449.74	536.38
450.11	531.50
450.48	525.94
450.85	520.11
451.22	515.32
451.59	510.64
451.96	506.10
452.33	499.91
452.70	494.31
453.07	487.46
453.43	480.46
453.80	473.88
454.17	467.64
454.54	461.66
454.91	455.27
455.28	449.04
455.65	442.99
456.02	437.45
456.38	432.36
456.75	426.16
457.12	420.86
457.49	415.61
457.86	410.33
458.23	406.04
458.59	401.42
458.96	396.60
459.33	392.38
459.70	388.18
460.07	384.86
460.43	380.97
460.80	377.45
461.17	374.26
461.54	371.00
461.91	367.82
462.27	364.64
462.64	361.82
463.01	358.76
463.38	355.97
463.74	352.60
464.11	349.95
464.48	347.87
464.85	345.35
465.21	343.45
465.58	341.37
465.95	338.88
466.32	336.84
466.68	334.75
467.05	332.72
467.42	330.69
467.78	328.46
468.15	326.46
468.52	324.99
468.88	322.94
469.25	321.13
469.62	319.65
469.98	318.00
470.35	316.58
470.72	315.13
471.08	313.46
471.45	312.29
471.82	311.07
472.18	309.46
472.55	308.51
472.92	307.18
473.28	306.07
473.65	305.00
474.02	303.89
474.38	303.07
474.75	302.35
475.11	301.46
475.48	300.85
475.85	300.15
476.21	299.40
476.58	298.86
476.94	298.47
477.31	297.90
477.67	297.44
478.04	297.01
478.41	296.76
478.77	296.85
479.14	296.50
479.50	296.25
479.87	296.15
480.23	295.93
480.60	295.87
480.96	295.72
481.33	295.99
481.69	296.09
482.06	295.95
482.42	295.85
482.79	295.94
483.15	296.05
483.52	296.43
483.88	296.63
484.25	296.86
484.61	297.17
484.98	297.45
485.34	297.96
485.71	298.45
486.07	298.86
486.44	299.02
486.80	299.54
487.17	300.10
487.53	300.84
487.90	301.64
488.26	302.50
488.62	303.45
488.99	303.99
489.35	304.75
489.72	305.65
490.08	306.59
490.44	307.51
490.81	308.47
491.17	309.36
491.54	310.36
491.90	311.48
492.26	312.45
492.63	313.61
492.99	314.69
493.36	315.87
493.72	317.23
494.08	318.51
494.45	319.92
494.81	321.41
495.17	322.70
495.54	324.15
495.90	325.42
496.26	326.75
496.63	328.38
496.99	329.82
497.35	331.41
497.72	333.11
498.08	334.70
498.44	336.38
498.80	338.16
499.17	339.85
499.53	341.44
499.89	343.22
500.26	344.80
500.62	346.43
500.98	348.08
501.34	349.66
501.71	351.33
502.07	352.81
502.43	354.23
502.79	355.70
503.16	357.06
503.52	358.40
503.88	359.83
504.24	361.03
504.60	362.48
504.97	363.89
505.33	365.05
505.69	366.45
506.05	367.71
506.41	368.75
506.78	369.82
507.14	370.82
507.50	371.73
507.86	372.80
508.22	373.78
508.59	374.55
508.95	375.30
509.31	376.17
509.67	376.92
510.03	377.64
510.39	378.38
510.75	378.93
511.12	379.72
511.48	380.26
511.84	380.72
512.20	381.14
512.56	381.45
512.92	381.83
513.28	382.05
513.64	382.25
514.00	382.39
514.37	382.62
514.73	382.91
515.09	383.28
515.45	383.38
515.81	383.29
516.17	383.39
516.53	383.38
516.89	383.18
517.25	383.05
517.61	383.02
517.97	382.90
518.33	382.82
518.69	382.65
519.05	382.50
519.41	382.56
519.77	382.75
520.13	382.59
520.49	382.36
520.85	382.13
521.21	382.13
521.57	382.07
521.93	381.83
522.29	381.70
522.65	381.40
523.01	381.35
523.37	381.27
523.73	381.22
524.09	381.27
524.45	381.24
524.81	381.35
525.17	381.59
525.53	381.74
525.89	382.02
526.25	382.23
526.61	382.43
526.97	382.62
527.33	382.83
527.68	383.60
528.04	384.25
528.40	384.75
528.76	385.29
529.12	385.86
529.48	386.63
529.84	387.31
530.20	388.24
530.56	389.11
530.91	390.23
531.27	391.17
531.63	392.22
531.99	393.47
532.35	394.65
532.71	395.65
533.07	396.86
533.42	398.53
533.78	399.84
534.14	401.27
534.50	402.64
534.86	403.97
535.21	405.15
535.57	406.72
535.93	408.27
536.29	410.02
536.65	411.74
537.00	413.39
537.36	415.14
537.72	416.77
538.08	418.54
538.44	420.29
538.79	422.34
539.15	424.30
539.51	426.13
539.87	428.35
540.22	430.54
540.58	432.85
540.94	434.75
541.29	436.93
541.65	439.23
542.01	441.79
542.37	444.20
542.72	446.65
543.08	448.97
543.44	451.61
543.79	453.86
544.15	456.59
544.51	459.26
544.87	461.91
545.22	464.72
545.58	467.42
545.94	469.99
546.29	472.55
546.65	475.14
547.01	477.96
547.36	480.53
547.72	483.30
548.07	485.91
548.43	488.44
548.79	491.21
549.14	493.86
549.50	496.34
549.86	498.86
550.21	501.50
550.57	504.32
550.92	506.94
551.28	509.76
551.64	512.33
551.99	515.06
552.35	517.76
552.70	520.25
553.06	522.79
553.41	525.48
553.77	528.38
554.13	531.12
554.48	533.84
554.84	536.50
555.19	538.90
555.55	541.60
555.90	544.21
556.26	546.63
556.61	548.96
556.97	551.36
557.32	553.85
557.68	556.25
558.03	558.49
558.39	560.66
558.74	562.94
559.10	565.30
559.45	567.76
559.81	570.16
560.16	572.39
560.52	574.73
560.87	577.09
561.23	578.95
561.58	581.24
561.94	583.33
562.29	585.46
562.64	587.71
563.00	589.80
563.35	591.93
563.71	594.24
564.06	596.54
564.42	598.79
564.77	601.08
565.12	603.43
565.48	605.88
565.83	608.05
566.19	609.95
566.54	611.72
566.89	613.47
567.25	615.47
567.60	617.56
567.96	619.49
568.31	621.47
568.66	623.25
569.02	624.58
569.37	625.85
569.72	627.47
570.08	628.86
570.43	630.07
570.78	631.44
571.14	632.37
571.49	633.53
571.84	634.63
572.20	635.54
572.55	636.40
572.90	636.85
573.26	637.57
573.61	638.37
573.96	639.16
574.31	639.65
574.67	639.97
575.02	640.24
575.37	640.46
575.72	640.46
576.08	641.06
576.43	641.46
576.78	641.85
577.13	642.09
577.49	642.42
577.84	642.87
578.19	643.13
578.54	643.77
578.90	644.02
579.25	644.14
579.60	644.23
579.95	644.14
580.30	644.36
580.66	644.66
581.01	644.75
581.36	644.73
581.71	644.86
582.06	645.15
582.42	645.07
582.77	645.17
583.12	645.29
583.47	645.12
583.82	645.04
584.17	645.24
584.53	645.29
584.88	645.06
585.23	644.88
585.58	644.48
585.93	644.12
586.28	643.96
586.63	643.96
586.98	643.95
587.34	643.90
587.69	643.61
588.04	643.32
588.39	643.14
588.74	642.78
589.09	642.42
589.44	641.77
589.79	641.49
590.14	640.98
590.49	640.44
590.84	639.76
591.19	639.53
591.54	639.03
591.89	638.05
592.25	637.77
592.60	637.04
592.95	636.44
593.30	635.66
593.65	634.81
594.00	633.80
594.35	633.93
594.70	633.04
595.05	632.26
595.40	631.18
595.75	630.05
596.10	629.32
596.45	628.63
596.80	627.91
597.15	627.10
597.50	626.20
597.85	625.45
598.19	624.64
598.54	623.65
598.89	622.50
599.24	621.91
599.59	620.78
599.94	619.86
600.29	618.92
600.64	617.99
600.99	617.04
601.34	616.23
601.69	614.12
602.04	613.07
602.39	612.03
602.74	611.41
603.08	610.81
603.43	610.12
603.78	608.99
604.13	607.98
604.48	607.11
604.83	606.36
605.18	605.55
605.53	604.67
605.87	603.56
606.22	602.88
606.57	601.99
606.92	601.03
607.27	599.97
607.62	599.00
607.96	598.12
608.31	597.25
608.66	596.22
609.01	595.16
609.36	594.09
609.70	592.92
610.05	591.52
610.40	590.09
610.75	588.45
611.10	587.45
611.44	585.82
611.79	584.32
612.14	582.81
612.49	581.21
612.83	579.72
613.18	578.24
613.53	576.73
613.88	574.94
614.22	573.26
614.57	571.83
614.92	570.31
615.27	568.61
615.61	566.95
615.96	565.37
616.31	563.84
616.65	562.46
617.00	560.98
617.35	559.51
617.70	557.90
618.04	556.26
618.39	554.30
618.74	552.96
619.08	551.34
619.43	549.78
619.78	548.17
620.12	546.61
620.47	545.11
620.82	543.16
621.16	541.45
621.51	540.08
621.85	538.45
622.20	536.72
622.55	534.98
622.89	533.16
623.24	531.39
623.59	529.52
623.93	527.82
624.28	526.31
624.62	524.91
624.97	523.34
625.32	521.74
625.66	520.18
626.01	518.53
626.35	516.90
626.70	515.18
627.04	513.75
627.39	512.09
627.73	510.60
628.08	509.24
628.43	507.68
628.77	505.97
629.12	504.11
629.46	502.73
629.81	501.21
630.15	499.62
630.50	498.10
630.84	496.57
631.19	494.84
631.53	493.09
631.88	491.12
632.22	489.37
632.57	487.90
632.91	486.24
633.26	484.55
633.60	482.87
633.95	481.38
634.29	479.69
634.64	478.16
634.98	476.36
635.32	474.81
635.67	473.28
636.01	471.61
636.36	470.18
636.70	468.62
637.05	467.07
637.39	465.66
637.73	464.28
638.08	462.95
638.42	461.57
638.77	460.12
639.11	458.66
639.45	457.24
639.80	455.49
640.14	453.97
640.49	452.52
640.83	451.05
641.17	449.57
641.52	447.94
641.86	446.40
642.20	445.02
642.55	443.29
642.89	441.62
643.23	439.98
643.58	438.67
643.92	436.91
644.26	435.43
644.61	433.77
644.95	431.97
645.29	430.20
645.64	428.55
645.98	426.86
646.32	425.45
646.66	423.79
647.01	422.36
647.35	420.97
647.69	419.46
648.04	418.02
648.38	416.33
648.72	414.73
649.06	413.05
649.41	411.39
649.75	409.78
650.09	408.35
650.43	406.73
650.78	404.96
651.12	403.53
651.46	401.96
651.80	400.51
652.14	399.13
652.49	397.89
652.83	396.38
653.17	394.79
653.51	393.20
653.85	391.76
654.20	390.27
654.54	388.62
654.88	387.10
655.22	385.67
655.56	384.16
655.90	382.63
656.25	381.26
656.59	379.76
656.93	378.51
657.27	377.23
657.61	375.91
657.95	374.60
658.29	373.15
658.64	371.85
658.98	370.42
659.32	368.84
659.66	367.33
660.00	365.94
660.34	364.70
660.68	363.25
661.02	361.88
661.36	360.51
661.70	359.22
662.05	357.79
662.39	356.53
662.73	355.39
663.07	354.43
663.41	353.28
663.75	351.90
664.09	350.59
664.43	349.10
664.77	347.93
665.11	346.64
665.45	345.43
665.79	344.23
666.13	342.94
666.47	341.82
666.81	340.61
667.15	339.53
667.49	338.48
667.83	337.47
668.17	336.34
668.51	335.32
668.85	334.33
669.19	333.44
669.53	332.29
669.87	331.08
670.21	329.79
670.55	328.59
670.89	327.96
671.23	327.00
671.57	326.03
671.91	325.02
672.25	324.01
672.58	323.25
672.92	322.17
673.26	321.39
673.60	320.54
673.94	319.56
674.28	318.48
674.62	317.52
674.96	316.60
675.30	315.79
675.64	314.83
675.97	313.80
676.31	312.87
676.65	311.87
676.99	311.21
677.33	310.30
677.67	309.45
678.01	308.38
678.34	307.47
678.68	306.65
679.02	305.72
679.36	304.83
679.70	303.80
680.04	302.96
680.37	302.07
680.71	301.19
681.05	300.50
681.39	299.80
681.73	298.90
682.06	298.04
682.40	297.23
682.74	296.46
683.08	295.81
683.42	294.93
683.75	294.25
684.09	293.30
684.43	292.58
684.77	291.72
685.10	290.88
685.44	290.11
685.78	289.37
686.12	288.59
686.45	287.81
686.79	286.97
687.13	286.26
687.46	285.45
687.80	284.81
688.14	284.00
688.48	283.18
688.81	282.40
689.15	281.70
689.49	280.81
689.82	280.15
690.16	279.23
690.50	278.42
690.83	277.63
691.17	276.86
691.51	276.11
691.84	275.58
692.18	274.90
692.52	274.24
692.85	273.57
693.19	273.16
693.52	272.60
693.86	271.94
694.20	271.30
694.53	270.76
694.87	270.06
695.21	269.41
695.54	268.83
695.88	268.22
696.21	267.60
696.55	267.11
696.88	266.42
697.22	265.84
697.56	265.40
697.89	264.80
698.23	264.41
698.56	263.93
698.90	263.37
699.23	262.75
699.57	262.30
699.90	261.75
700.24	261.06
700.58	260.54
700.91	260.11
701.25	259.85
701.58	259.43
701.92	258.98
702.25	258.53
702.59	257.97
702.92	257.57
703.26	257.03
703.59	256.53
703.93	256.49
704.26	256.06
704.60	255.55
704.93	255.16
705.26	254.55
705.60	254.14
705.93	253.62
706.27	253.38
706.60	252.95
706.94	252.68
707.27	252.24
707.61	251.79
707.94	251.37
708.27	250.69
708.61	250.19
708.94	249.76
709.28	249.39
709.61	249.09
709.94	248.75
710.28	248.42
710.61	248.06
710.95	247.35
711.28	247.32
711.61	246.94
711.95	246.71
712.28	246.41
712.61	246.04
712.95	245.91
713.28	245.74
713.61	245.34
713.95	244.89
714.28	244.54
714.61	244.12
714.95	243.78
715.28	243.44
715.61	243.05
715.95	242.77
716.28	242.42
716.61	242.14
716.95	241.68
717.28	241.37
717.61	241.07
717.94	240.81
718.28	240.28
718.61	240.02
718.94	239.57
719.27	239.26
719.61	239.01
719.94	238.61
720.27	238.11
720.60	237.80
720.94	237.50
721.27	237.24
721.60	237.06
721.93	236.87
722.27	236.74
722.60	236.60
722.93	236.31
723.26	236.15
723.59	235.86
723.93	235.71
724.26	235.48
724.59	235.24
724.92	234.97
725.25	234.80
725.59	234.60
725.92	234.47
726.25	234.27
726.58	234.12
726.91	233.90
727.24	233.70
727.57	233.51
727.91	233.27
728.24	233.16
728.57	232.92
728.90	232.72
729.23	232.35
729.56	232.26
729.89	232.02
730.22	231.75
730.55	231.47
730.89	231.30
731.22	231.09
731.55	230.88
731.88	230.58
732.21	230.26
732.54	230.01
732.87	229.82
733.20	229.65
733.53	229.35
733.86	229.14
734.19	228.94
734.52	228.82
734.85	228.85
735.18	228.66
735.51	228.58
735.84	228.48
736.17	228.48
736.50	228.19
736.83	228.51
737.16	228.32
737.49	228.16
737.82	227.93
738.15	227.81
738.48	227.64
738.81	227.62
739.14	227.47
739.47	227.35
739.80	227.09
740.13	226.90
740.46	226.71
740.79	226.52
741.12	226.34
741.45	226.16
741.78	225.84
742.11	225.75
742.44	225.52
742.77	225.33
743.10	225.10
743.43	224.90
743.75	224.34
744.08	224.61
744.41	224.55
744.74	224.41
745.07	224.25
745.40	224.22
745.73	224.10
746.06	223.97
746.39	223.90
746.71	223.76
747.04	223.62
747.37	223.48
747.70	223.39
748.03	223.20
748.36	223.08
748.68	222.90
749.01	222.69
749.34	222.59
749.67	222.56
750.00	222.49
750.33	222.61
750.65	222.52
750.98	222.00
751.31	221.86
751.64	221.81
751.97	221.87
752.29	221.70
752.62	221.44
752.95	221.26
753.28	221.13
753.60	221.07
753.93	221.00
754.26	220.96
754.59	220.79
754.91	220.75
755.24	220.70
755.57	220.63
755.90	220.53
756.22	220.42
756.55	220.17
756.88	220.03
757.20	219.70
757.53	219.49
757.86	219.32
758.19	219.26
758.51	219.08
758.84	218.89
759.17	218.79
759.49	218.83
759.82	218.94
760.15	218.83
760.47	218.71
760.80	218.57
761.13	218.51
761.45	218.42
761.78	218.30
762.11	218.16
762.43	218.06
762.76	217.96
763.08	217.92
763.41	217.87
763.74	217.88
764.06	217.84
764.39	217.83
764.71	217.92
765.04	217.79
765.37	217.74
765.69	217.59
766.02	217.54
766.34	217.36
766.67	217.20
767.00	217.21
767.32	217.41
767.65	217.58
767.97	217.54
768.30	217.45
768.62	217.41
768.95	217.33
769.27	217.33
769.60	217.28
769.92	217.15
770.25	217.10
770.57	216.91
770.90	216.88
771.22	216.72
771.55	216.55
771.87	216.56
772.20	216.47
772.52	216.63
772.85	217.02
773.17	217.02
773.50	216.91
773.82	216.76
774.15	216.38
774.47	216.14
774.80	216.09
775.12	216.15
775.45	216.09
775.77	216.03
776.09	215.98
776.42	215.91
776.74	215.98
777.07	215.80
777.39	215.70
777.72	215.61
778.04	215.69
778.36	215.70
778.69	215.71
779.01	215.71
779.33	215.41
779.66	214.97
779.98	214.94
780.31	214.92
780.63	214.98
780.95	215.07
781.28	215.02
781.60	214.90
781.92	214.78
782.25	214.79
782.57	214.73
782.89	214.63
783.22	214.61
783.54	214.44
783.86	214.57
784.19	214.57
784.51	214.62
784.83	214.46
785.16	214.38
785.48	214.29
785.80	214.25
786.12	214.28
786.45	214.23
786.77	214.14
787.09	214.14
787.42	214.01
787.74	214.03
788.06	214.01
788.38	213.92
788.71	213.88
789.03	213.88
789.35	213.94
789.67	213.89
789.99	213.86
790.32	213.87
790.64	213.81
790.96	214.01
791.28	213.81
791.61	213.87
791.93	213.85
792.25	213.83
792.57	214.06
792.89	213.97
793.21	213.93
793.54	213.88
793.86	213.75
794.18	213.78
794.50	213.70
794.82	213.67
795.14	213.70
795.47	213.76
795.79	213.73
796.11	213.64
796.43	213.63
796.75	213.64
797.07	213.60
797.39	213.57
797.71	213.38
798.04	213.48
798.36	213.48
798.68	213.50
799.00	213.50
799.32	213.36
799.64	213.37
799.96	213.36
800.28	213.40
800.60	213.42
800.92	213.47
801.24	213.45
801.56	213.44
801.89	213.41
802.21	213.45
802.53	213.37
802.85	213.41
803.17	213.62
803.49	213.61
803.81	213.55
804.13	213.50
804.45	213.35
804.77	213.29
805.09	213.20
805.41	213.13
805.73	213.04
806.05	212.91
806.37	212.88
806.69	212.85
807.01	212.82
807.33	212.85
807.65	212.66
807.97	212.73
808.28	212.69
808.60	212.72
808.92	212.65
809.24	212.88
809.56	212.77
809.88	212.60
810.20	212.54
810.52	212.66
810.84	212.55
811.16	212.55
811.48	212.50
811.80	212.60
812.12	212.64
812.43	212.60
812.75	212.65
813.07	212.61
813.39	212.58
813.71	212.63
814.03	212.55
814.35	212.59
814.67	212.53
814.98	212.51
815.30	212.51
815.62	212.44
815.94	212.15
816.26	212.21
816.58	212.17
816.89	212.18
817.21	212.09
817.53	212.23
817.85	212.31
818.17	212.40
818.48	212.38
818.80	212.39
819.12	212.46
819.44	212.40
819.76	212.41
820.07	212.46
820.39	212.36
820.71	212.40
821.03	212.40
821.34	212.33
821.66	212.42
821.98	212.38
822.30	212.36
822.61	212.57
822.93	212.48
823.25	212.44
823.57	212.46
823.88	212.51
824.20	212.43
824.52	212.48
824.83	212.40
825.15	212.27
825.47	212.19
825.79	212.18
826.10	212.14
826.42	212.11
826.74	212.07
827.05	212.08
827.37	212.17
827.69	212.16
828.00	212.22
828.32	212.16
828.64	212.18
828.95	212.39
829.27	212.29
829.58	212.32
829.90	212.40
830.22	212.41
830.53	212.36
830.85	212.36
831.17	212.21
831.48	212.14
831.80	212.15
832.11	212.10
832.43	212.13
832.75	212.05
833.06	212.24
833.38	212.12
833.69	212.09
834.01	212.01
834.32	212.05
834.64	211.97
834.96	211.94
835.27	211.90
835.59	211.81
835.90	211.73
836.22	211.71
836.53	211.56
836.85	211.48
837.16	211.79
837.48	211.78
837.79	211.95
838.11	212.03
838.42	212.03
838.74	212.14
839.05	212.04
839.37	212.04
839.68	211.81
840.00	211.84
840.31	211.95
840.63	211.95
840.94	211.88
841.26	211.85
841.57	211.87
841.88	211.86
842.20	211.74
842.51	211.75
842.83	211.77
843.14	212.09
843.46	212.07
843.77	211.86
844.08	211.85
844.40	211.69
844.71	211.63
845.03	211.58
845.34	211.55
845.65	211.44
845.97	211.47
846.28	211.55
846.60	211.51
846.91	211.39
847.22	211.39
847.54	211.45
847.85	211.49
848.16	211.40
848.48	211.38
848.79	211.50
849.10	211.53
849.42	211.52
849.73	211.20
850.04	211.27
850.36	211.15
850.67	211.16
850.98	211.14
851.30	211.20
851.61	211.26
851.92	211.25
852.23	211.45
852.55	211.44
852.86	211.47
853.17	211.59
853.49	211.72
853.80	211.69
854.11	211.70
854.42	211.77
854.74	211.78
855.05	211.76
855.36	211.59
855.67	211.58
855.99	211.57
856.30	212.01
856.61	211.97
856.92	211.94
857.23	211.99
857.55	211.99
857.86	211.97
858.17	212.00
858.48	211.97
858.79	211.89
859.11	211.93
859.42	211.78
859.73	211.72
860.04	211.61
860.35	211.57
860.66	211.44
860.98	211.34
861.29	211.38
861.60	211.37
861.91	211.51
862.22	211.43
862.53	211.43
862.84	210.98
863.16	211.07
863.47	211.08
863.78	210.96
864.09	211.01
864.40	211.04
864.71	210.99
865.02	210.97
865.33	210.90
865.64	210.85
865.95	210.90
866.27	211.13
866.58	211.14
866.89	211.17
867.20	211.20
867.51	211.21
867.82	211.19
868.13	211.28
868.44	211.18
868.75	211.29
869.06	211.30
869.37	211.30
869.68	211.23
869.99	211.30
870.30	211.40
870.61	211.45
870.92	211.42
871.23	211.44
871.54	211.54
871.85	211.60
872.16	211.60
872.47	211.51
872.78	211.37
873.09	211.38
873.40	211.29
873.71	211.29
874.02	211.31
874.33	211.32
874.64	211.24
874.95	211.32
875.26	211.21
875.56	211.18
875.87	211.19
876.18	211.15
876.49	211.48
876.80	211.46
877.11	211.40
877.42	211.38
877.73	211.35
878.04	211.29
878.35	211.33
878.66	211.38
878.96	211.42
879.27	211.36
879.58	211.33
879.89	211.36
880.20	211.51
880.51	211.49
880.82	211.45
881.12	211.44
881.43	211.43
881.74	211.39
882.05	211.38
882.36	211.46
882.67	211.51
882.97	211.05
883.28	211.05
883.59	210.98
883.90	211.02
884.21	211.04
884.51	210.96
884.82	210.91
885.13	210.89
885.44	210.93
885.74	210.90
886.05	210.87
886.36	210.88
886.67	210.68
886.98	210.86
887.28	210.94
887.59	210.94
887.90	210.82
888.20	210.82
888.51	210.97
888.82	210.88
889.13	210.80
889.43	211.16
889.74	211.07
890.05	211.11
890.35	210.99
890.66	211.00
890.97	211.04
891.28	210.99
891.58	210.95
891.89	210.95
892.20	210.94
892.50	210.94
892.81	210.94
893.12	210.95
893.42	210.74
893.73	210.73
894.04	210.75
894.34	210.85
894.65	210.83
894.95	210.67
895.26	210.66
895.57	210.83
895.87	210.50
896.18	210.65
896.48	210.70
896.79	210.72
897.10	210.78
897.40	210.79
897.71	210.85
898.01	210.89
898.32	210.92
898.63	210.91
898.93	210.88
899.24	210.94
899.54	210.93
899.85	210.96
900.15	210.92
900.46	210.89
900.76	210.85
901.07	210.85
901.38	210.89
901.68	210.96
901.99	210.80
902.29	210.83
902.60	210.76
902.90	210.73
903.21	210.75
903.51	210.73
903.82	210.80
904.12	210.80
904.43	210.75
904.73	210.75
905.03	210.75
905.34	211.16
905.64	211.12
905.95	211.15
906.25	211.14
906.56	211.16
906.86	211.20
907.17	211.22
907.47	211.32
907.77	211.33
908.08	211.29
908.38	211.36
908.69	211.43
908.99	211.48
909.30	211.44
909.60	211.41
909.90	211.36
910.21	211.25
910.51	211.20
910.81	211.25
911.12	211.25
911.42	211.30
911.73	210.96
912.03	211.01
912.33	211.08
912.64	211.09
912.94	211.04
913.24	210.96
913.55	210.92
913.85	210.83
914.15	210.89
914.46	210.91
914.76	210.79
915.06	210.73
915.37	210.69
915.67	210.64
915.97	210.72
916.27	210.70
916.58	210.72
916.88	210.77
917.18	210.77
917.49	211.00
917.79	210.94
918.09	210.96
918.39	211.02
918.70	211.02
919.00	210.98
919.30	211.14
919.60	211.11
919.91	211.06
920.21	211.13
920.51	211.01
920.81	210.99
921.12	211.08
921.42	211.05
921.72	211.09
922.02	211.14
922.32	211.22
922.63	211.25
922.93	211.44
923.23	211.45
923.53	211.45
923.83	211.28
924.13	211.34
924.44	211.29
924.74	211.35
925.04	211.38
925.34	211.35
925.64	211.25
925.94	211.30
926.24	211.47
926.55	211.44
926.85	211.46
927.15	211.40
927.45	211.39
927.75	211.32
928.05	211.30
928.35	211.28
928.65	211.27
928.95	211.24
929.26	211.07
929.56	211.05
929.86	211.05
930.16	210.91
930.46	210.89
930.76	210.96
931.06	210.79
931.36	210.68
931.66	210.74
931.96	210.76
932.26	210.79
932.56	210.64
932.86	210.65
933.16	210.71
933.46	210.69
933.76	210.65
934.06	210.85
934.36	210.95
934.66	211.01
934.96	211.00
935.26	211.00
935.56	211.08
935.86	211.05
936.16	210.99
936.46	210.99
936.76	210.94
937.06	210.88
937.36	210.86
937.66	210.90
937.96	210.87
938.26	210.80
938.56	210.72
938.86	210.81
939.16	210.92
939.46	210.94
939.76	210.99
940.06	210.99
940.35	210.85
940.65	210.70
940.95	210.67
941.25	210.55
941.55	210.57
941.85	210.49
942.15	210.53
942.45	210.63
942.75	210.68
943.04	210.69
943.34	210.75
943.64	210.70
943.94	210.63
944.24	210.63
944.54	210.70
944.84	210.68
945.13	210.63
945.43	210.57
945.73	210.57
946.03	210.59
946.33	210.56
946.62	210.52
946.92	210.50
947.22	210.58
947.52	210.54
947.82	210.56
948.11	210.57
948.41	210.51
948.71	210.40
949.01	210.37
949.31	210.37
949.60	210.33
949.90	210.41
950.20	210.42
950.50	210.44
950.79	210.32
951.09	210.34
951.39	210.28
951.69	210.20
951.98	210.27
952.28	210.35
952.58	210.40
952.87	210.41
953.17	210.53
953.47	210.46
953.76	210.50
954.06	210.49
954.36	210.43
954.66	210.42
954.95	210.56
955.25	210.65
955.55	210.61
955.84	210.63
956.14	210.66
956.44	210.72
956.73	210.68
957.03	210.74
957.32	210.85
957.62	210.84
957.92	210.87
958.21	210.79
958.51	211.10
958.81	211.15
959.10	211.20
959.40	211.19
959.69	211.20
959.99	211.24
960.29	211.20
960.58	211.15
960.88	211.31
961.17	211.24
961.47	211.31
961.76	211.35
962.06	211.39
962.36	211.32
962.65	211.23
962.95	211.26
963.24	211.25
963.54	211.25
963.83	211.33
964.13	211.36
964.42	211.32
964.72	211.02
965.01	211.03
965.31	210.96
965.60	210.85
965.90	211.11
966.19	211.02
966.49	211.09
966.78	211.20
967.08	211.12
967.37	211.17
967.67	211.06
967.96	211.09
968.26	211.03
968.55	211.12
968.85	211.22
969.14	211.26
969.43	211.20
969.73	211.19
970.02	211.16
970.32	211.14
970.61	211.17
970.91	211.08
971.20	210.98
971.49	210.97
971.79	211.07
972.08	210.80
972.38	210.87
972.67	210.80
972.96	210.81
973.26	210.75
973.55	210.85
973.85	210.84
974.14	210.86
974.43	210.91
974.73	210.88
975.02	210.88
975.31	210.82
975.61	210.90
975.90	210.90
976.19	210.86
976.49	210.88
976.78	210.91
977.07	210.96
977.37	211.02
977.66	211.07
977.95	211.07
978.24	211.13
978.54	211.23
978.83	211.27
979.12	211.24
979.42	211.30
979.71	211.18
980.00	211.08
980.29	211.05
980.59	211.00
980.88	211.05
981.17	210.99
981.46	211.08
981.76	211.04
982.05	211.10
982.34	211.05
982.63	211.07
982.93	210.94
983.22	211.01
983.51	210.96
983.80	211.05
984.09	211.08
984.39	211.04
984.68	211.00
984.97	210.95
985.26	210.96
985.55	210.92
985.85	210.90
986.14	211.03
986.43	211.09
986.72	211.05
987.01	210.99
987.30	211.04
987.59	210.94
987.89	210.98
988.18	210.87
988.47	210.95
988.76	210.89
989.05	210.95
989.34	210.89
989.63	210.99
989.92	210.92
990.22	210.85
990.51	210.81
990.80	210.76
991.09	210.83
991.38	210.85
991.67	210.82
991.96	210.80
992.25	210.85
992.54	210.77
992.83	210.83
993.12	210.84
993.41	210.80
993.70	210.95
993.99	211.00
994.28	211.08
994.58	211.15
994.87	211.21
995.16	211.21
995.45	211.17
995.74	211.10
996.03	211.10
996.32	211.15
996.61	211.28
996.90	211.23
997.19	211.15
997.48	211.16
997.77	211.12
998.06	211.06
998.34	211.02
998.63	211.03
998.92	211.03
999.21	210.96
999.50	211.03
999.79	210.95
1000.08	211.00
1000.37	210.98
1000.66	210.87
1000.95	210.86
1001.24	210.88
1001.53	210.96
1001.82	210.87
1002.11	210.81
1002.40	210.80
1002.68	210.85
1002.97	211.10
1003.26	211.14
1003.55	211.10
1003.84	211.12
1004.13	211.30
1004.42	211.24
1004.71	211.24
1004.99	211.18
1005.28	211.39
1005.57	211.36
1005.86	211.28
1006.15	211.22
1006.44	211.13
1006.72	211.21
1007.01	211.19
1007.30	211.20
1007.59	211.13
1007.88	211.20
1008.17	211.22
1008.45	211.17
1008.74	210.95
1009.03	210.78
1009.32	210.73
1009.60	210.75
1009.89	210.77
1010.18	210.63
1010.47	210.65
1010.76	210.68
1011.04	210.71
1011.33	211.02
1011.62	211.02
1011.91	211.13
1012.19	211.09
1012.48	211.09
1012.77	211.01
1013.05	211.11
1013.34	211.09
1013.63	211.05
1013.92	211.01
1014.20	210.96
1014.49	210.99
1014.78	211.09
1015.06	211.00
1015.35	211.04
1015.64	211.06
1015.92	211.05
1016.21	211.00
1016.50	211.02
1016.78	211.09
1017.07	211.13
1017.36	210.69
1017.64	210.65
1017.93	210.53
1018.22	210.56
1018.50	210.55
1018.79	210.67
1019.08	210.51
1019.36	210.55
1019.65	210.55
1019.93	210.65
1020.22	210.66
1020.51	210.87
1020.79	210.80
1021.08	210.95
1021.36	209.80
1021.65	212.35
1021.94	209.45
1022.22	211.35
1022.51	210.20
1022.79	211.60
1023.08	209.60
1023.36	215.70
1023.65	209.55
>>>>>End Processed Spectral Data<<<<<
