SpectraSuite Data File
++++++++++++++++++++++++++++++++++++
Date: Mon Feb 25 16:56:31 EST 2013
User: group
Dark Spectrum Present: No
Reference Spectrum Present: No
Number of Sampled Component Spectra: 1
Spectrometers: USB2E7196
Integration Time (usec): 104000 (USB2E7196)
Spectra Averaged: 20 (USB2E7196)
Boxcar Smoothing: 10 (USB2E7196)
Correct for Electrical Dark: No (USB2E7196)
Strobe/Lamp Enabled: No (USB2E7196)
Correct for Detector Non-linearity: No (USB2E7196)
Correct for Stray Light: No (USB2E7196)
Number of Pixels in Processed Spectrum: 2048
>>>>>Begin Processed Spectral Data<<<<<
339.09	0.00
339.48	199.10
339.86	200.30
340.24	201.50
340.63	201.80
341.01	209.80
341.39	205.65
341.78	207.50
342.16	209.20
342.54	209.85
342.93	198.49
343.31	208.46
343.69	209.00
344.07	209.46
344.46	209.97
344.84	210.45
345.22	210.60
345.60	210.87
345.99	211.13
346.37	211.25
346.75	211.28
347.13	211.29
347.52	211.38
347.90	211.46
348.28	211.45
348.66	211.57
349.05	211.57
349.43	211.62
349.81	211.69
350.19	211.66
350.57	211.77
350.96	211.90
351.34	212.05
351.72	212.15
352.10	212.27
352.48	212.29
352.87	212.28
353.25	212.22
353.63	212.28
354.01	212.26
354.39	212.30
354.77	212.38
355.15	212.58
355.54	212.65
355.92	212.60
356.30	212.61
356.68	212.90
357.06	212.91
357.44	212.89
357.82	212.86
358.20	213.00
358.58	213.09
358.97	213.10
359.35	213.21
359.73	213.30
360.11	213.27
360.49	213.31
360.87	213.32
361.25	213.43
361.63	213.58
362.01	213.62
362.39	213.62
362.77	213.65
363.15	213.62
363.53	213.56
363.91	213.63
364.29	213.68
364.67	213.35
365.05	213.44
365.43	213.49
365.81	213.63
366.19	213.76
366.57	213.92
366.95	213.92
367.33	213.80
367.71	213.86
368.09	213.96
368.47	213.96
368.85	214.02
369.23	214.11
369.61	213.97
369.99	214.13
370.37	214.20
370.75	214.41
371.13	214.36
371.51	214.34
371.89	214.36
372.27	214.37
372.65	214.44
373.03	214.35
373.41	214.31
373.78	214.24
374.16	214.01
374.54	213.72
374.92	213.63
375.30	213.59
375.68	213.39
376.06	213.39
376.44	213.34
376.82	213.25
377.19	213.14
377.57	213.14
377.95	212.93
378.33	212.84
378.71	212.65
379.09	212.69
379.47	212.74
379.84	212.64
380.22	212.61
380.60	212.48
380.98	212.44
381.36	212.35
381.73	212.24
382.11	212.37
382.49	212.41
382.87	212.37
383.25	212.40
383.62	212.85
384.00	212.68
384.38	212.63
384.76	212.77
385.13	212.85
385.51	212.80
385.89	212.73
386.27	212.72
386.64	212.64
387.02	212.53
387.40	212.43
387.78	212.45
388.15	212.45
388.53	212.39
388.91	212.38
389.29	212.41
389.66	212.40
390.04	212.19
390.42	212.30
390.79	212.29
391.17	212.25
391.55	211.81
391.92	211.87
392.30	211.97
392.68	211.83
393.05	211.86
393.43	211.78
393.81	211.81
394.18	211.79
394.56	211.82
394.94	211.97
395.31	211.95
395.69	212.05
396.06	212.09
396.44	212.18
396.82	212.18
397.19	212.33
397.57	212.41
397.95	212.60
398.32	212.50
398.70	212.66
399.07	212.85
399.45	212.91
399.82	213.04
400.20	213.07
400.58	213.18
400.95	213.08
401.33	213.32
401.70	213.75
402.08	213.85
402.45	213.94
402.83	214.16
403.20	214.40
403.58	214.57
403.95	214.83
404.33	215.08
404.71	215.27
405.08	215.75
405.46	216.00
405.83	216.26
406.21	216.60
406.58	216.86
406.96	217.12
407.33	217.56
407.70	217.97
408.08	218.69
408.45	219.27
408.83	219.97
409.20	220.51
409.58	220.94
409.95	221.74
410.33	222.58
410.70	223.23
411.08	224.11
411.45	225.09
411.82	225.97
412.20	227.13
412.57	228.56
412.95	229.45
413.32	230.83
413.69	232.19
414.07	233.66
414.44	235.32
414.82	237.05
415.19	239.01
415.56	241.03
415.94	242.94
416.31	245.27
416.68	247.65
417.06	250.39
417.43	252.98
417.81	255.95
418.18	259.07
418.55	262.45
418.93	265.96
419.30	269.51
419.67	273.39
420.04	277.35
420.42	281.48
420.79	286.35
421.16	291.14
421.54	296.23
421.91	301.51
422.28	306.87
422.66	312.71
423.03	318.42
423.40	324.22
423.77	330.65
424.15	337.14
424.52	343.87
424.89	351.21
425.26	358.31
425.64	365.09
426.01	372.56
426.38	380.43
426.75	388.40
427.13	396.69
427.50	405.39
427.87	414.48
428.24	423.63
428.61	432.37
428.99	442.10
429.36	452.53
429.73	462.84
430.10	473.18
430.47	483.79
430.85	494.70
431.22	506.50
431.59	518.65
431.96	530.37
432.33	543.50
432.70	556.08
433.08	571.11
433.45	585.20
433.82	599.34
434.19	614.96
434.56	630.42
434.93	645.34
435.30	660.46
435.68	677.15
436.05	693.62
436.42	710.23
436.79	725.35
437.16	741.83
437.53	759.06
437.90	776.29
438.27	793.23
438.64	811.21
439.01	827.82
439.38	842.92
439.75	857.81
440.13	874.40
440.50	890.16
440.87	903.13
441.24	916.79
441.61	931.71
441.98	943.21
442.35	956.55
442.72	969.90
443.09	982.46
443.46	990.68
443.83	996.75
444.20	1002.04
444.57	1009.31
444.94	1013.29
445.31	1017.49
445.68	1021.54
446.05	1024.16
446.42	1023.60
446.79	1022.85
447.16	1022.00
447.53	1021.58
447.90	1016.48
448.27	1011.58
448.64	1003.95
449.01	998.87
449.37	988.67
449.74	978.92
450.11	966.73
450.48	953.43
450.85	939.86
451.22	928.33
451.59	917.32
451.96	906.91
452.33	892.50
452.70	879.62
453.07	864.02
453.43	848.20
453.80	832.66
454.17	818.06
454.54	804.03
454.91	788.73
455.28	773.92
455.65	760.26
456.02	746.33
456.38	734.74
456.75	719.90
457.12	707.75
457.49	695.68
457.86	683.96
458.23	673.90
458.59	662.98
458.96	651.72
459.33	641.82
459.70	631.83
460.07	624.03
460.43	614.88
460.80	606.34
461.17	598.61
461.54	590.94
461.91	583.46
462.27	575.95
462.64	569.74
463.01	562.55
463.38	555.57
463.74	548.74
464.11	542.67
464.48	537.45
464.85	531.59
465.21	527.01
465.58	522.38
465.95	516.56
466.32	511.84
466.68	507.27
467.05	502.58
467.42	497.80
467.78	492.73
468.15	488.15
468.52	484.82
468.88	480.39
469.25	476.27
469.62	472.87
469.98	469.19
470.35	465.75
470.72	462.67
471.08	459.28
471.45	456.34
471.82	453.47
472.18	450.31
472.55	448.10
472.92	445.40
473.28	442.95
473.65	440.71
474.02	438.47
474.38	436.47
474.75	434.76
475.11	433.06
475.48	431.72
475.85	430.47
476.21	429.25
476.58	428.21
476.94	427.49
477.31	426.74
477.67	425.94
478.04	425.41
478.41	424.93
478.77	424.99
479.14	424.49
479.50	424.31
479.87	424.35
480.23	424.51
480.60	424.39
480.96	424.33
481.33	425.04
481.69	425.53
482.06	426.00
482.42	426.32
482.79	426.83
483.15	427.72
483.52	428.94
483.88	429.82
484.25	431.02
484.61	432.18
484.98	433.42
485.34	435.10
485.71	436.86
486.07	438.74
486.44	440.18
486.80	442.42
487.17	444.59
487.53	447.07
487.90	449.63
488.26	452.42
488.62	455.50
488.99	458.10
489.35	460.99
489.72	464.32
490.08	467.96
490.44	471.41
490.81	475.02
491.17	478.56
491.54	482.55
491.90	486.62
492.26	491.07
492.63	495.48
492.99	500.03
493.36	504.66
493.72	509.60
494.08	514.85
494.45	520.16
494.81	525.74
495.17	531.35
495.54	537.08
495.90	543.04
496.26	549.00
496.63	555.37
496.99	561.87
497.35	568.55
497.72	575.21
498.08	582.25
498.44	589.39
498.80	597.03
499.17	604.63
499.53	612.36
499.89	620.03
500.26	627.76
500.62	635.43
500.98	643.70
501.34	651.82
501.71	660.13
502.07	668.35
502.43	676.59
502.79	684.92
503.16	693.54
503.52	702.19
503.88	710.81
504.24	719.46
504.60	728.25
504.97	737.18
505.33	746.08
505.69	755.50
506.05	764.60
506.41	773.17
506.78	781.89
507.14	790.62
507.50	799.52
507.86	808.37
508.22	817.44
508.59	826.07
508.95	835.02
509.31	843.89
509.67	852.99
510.03	861.98
510.39	871.09
510.75	879.80
511.12	888.69
511.48	897.45
511.84	906.38
512.20	914.98
512.56	923.70
512.92	932.39
513.28	940.60
513.64	948.94
514.00	957.36
514.37	965.69
514.73	974.00
515.09	982.07
515.45	990.02
515.81	998.01
516.17	1005.88
516.53	1013.39
516.89	1020.85
517.25	1027.80
517.61	1034.81
517.97	1041.54
518.33	1048.44
518.69	1054.91
519.05	1061.68
519.41	1068.26
519.77	1075.04
520.13	1080.98
520.49	1086.81
520.85	1092.77
521.21	1098.82
521.57	1104.97
521.93	1110.23
522.29	1116.03
522.65	1121.72
523.01	1127.37
523.37	1132.42
523.73	1137.51
524.09	1142.48
524.45	1147.32
524.81	1152.59
525.17	1157.91
525.53	1162.99
525.89	1167.63
526.25	1172.44
526.61	1176.41
526.97	1180.49
527.33	1184.76
527.68	1189.25
528.04	1193.74
528.40	1197.56
528.76	1201.44
529.12	1205.23
529.48	1209.78
529.84	1213.60
530.20	1217.24
530.56	1220.84
530.91	1224.97
531.27	1228.92
531.63	1232.75
531.99	1236.49
532.35	1239.87
532.71	1242.92
533.07	1246.37
533.42	1249.84
533.78	1253.34
534.14	1257.08
534.50	1260.04
534.86	1263.05
535.21	1265.56
535.57	1268.62
535.93	1271.60
536.29	1274.24
536.65	1276.94
537.00	1279.21
537.36	1281.48
537.72	1283.78
538.08	1286.23
538.44	1288.25
538.79	1290.51
539.15	1292.46
539.51	1294.68
539.87	1297.10
540.22	1299.36
540.58	1301.96
540.94	1304.21
541.29	1305.88
541.65	1307.32
542.01	1309.41
542.37	1311.24
542.72	1313.08
543.08	1314.45
543.44	1316.45
543.79	1317.70
544.15	1319.01
544.51	1320.63
544.87	1322.20
545.22	1323.75
545.58	1324.60
545.94	1325.55
546.29	1326.10
546.65	1326.98
547.01	1327.55
547.36	1328.09
547.72	1328.79
548.07	1328.63
548.43	1328.67
548.79	1328.76
549.14	1329.21
549.50	1329.36
549.86	1329.26
550.21	1329.54
550.57	1329.98
550.92	1329.63
551.28	1330.00
551.64	1329.96
551.99	1330.19
552.35	1330.00
552.70	1329.53
553.06	1330.05
553.41	1330.17
553.77	1330.66
554.13	1330.73
554.48	1331.28
554.84	1331.48
555.19	1331.39
555.55	1331.45
555.90	1331.58
556.26	1331.42
556.61	1331.01
556.97	1330.61
557.32	1330.58
557.68	1330.08
558.03	1329.31
558.39	1328.91
558.74	1328.40
559.10	1328.13
559.45	1327.44
559.81	1327.30
560.16	1326.71
560.52	1325.98
560.87	1325.50
561.23	1324.21
561.58	1323.86
561.94	1322.53
562.29	1321.17
562.64	1320.64
563.00	1319.65
563.35	1318.91
563.71	1318.92
564.06	1318.41
564.42	1318.32
564.77	1317.81
565.12	1317.73
565.48	1317.34
565.83	1317.06
566.19	1316.90
566.54	1316.21
566.89	1315.41
567.25	1314.69
567.60	1314.57
567.96	1314.44
568.31	1313.90
568.66	1313.53
569.02	1312.29
569.37	1311.10
569.72	1310.40
570.08	1309.00
570.43	1308.04
570.78	1306.57
571.14	1304.66
571.49	1303.28
571.84	1301.90
572.20	1300.16
572.55	1298.02
572.90	1295.81
573.26	1293.54
573.61	1291.05
573.96	1288.85
574.31	1286.48
574.67	1283.90
575.02	1280.70
575.37	1277.31
575.72	1274.10
576.08	1271.34
576.43	1268.34
576.78	1265.86
577.13	1263.28
577.49	1260.74
577.84	1257.76
578.19	1255.06
578.54	1252.79
578.90	1250.34
579.25	1246.99
579.60	1243.74
579.95	1240.38
580.30	1237.59
580.66	1234.78
581.01	1231.69
581.36	1228.17
581.71	1224.78
582.06	1221.64
582.42	1218.35
582.77	1214.78
583.12	1211.25
583.47	1207.80
583.82	1204.51
584.17	1200.84
584.53	1197.17
584.88	1193.23
585.23	1189.46
585.58	1185.83
585.93	1181.61
586.28	1177.78
586.63	1174.04
586.98	1170.55
587.34	1167.46
587.69	1163.80
588.04	1159.90
588.39	1156.25
588.74	1152.54
589.09	1149.25
589.44	1145.11
589.79	1141.77
590.14	1138.65
590.49	1135.30
590.84	1131.62
591.19	1128.35
591.54	1124.80
591.89	1120.42
592.25	1117.01
592.60	1112.97
592.95	1108.67
593.30	1104.61
593.65	1100.14
594.00	1096.01
594.35	1092.90
594.70	1088.38
595.05	1084.50
595.40	1080.43
595.75	1076.30
596.10	1072.68
596.45	1068.52
596.80	1064.98
597.15	1061.26
597.50	1056.78
597.85	1052.71
598.19	1048.65
598.54	1044.55
598.89	1040.54
599.24	1037.25
599.59	1033.05
599.94	1029.58
600.29	1025.87
600.64	1021.93
600.99	1017.80
601.34	1013.98
601.69	1008.98
602.04	1005.06
602.39	1000.67
602.74	996.72
603.08	992.88
603.43	989.25
603.78	985.40
604.13	981.15
604.48	976.98
604.83	973.63
605.18	970.18
605.53	966.18
605.87	962.00
606.22	958.23
606.57	953.98
606.92	949.72
607.27	945.60
607.62	941.74
607.96	938.04
608.31	934.78
608.66	930.88
609.01	926.78
609.36	922.85
609.70	919.00
610.05	914.83
610.40	910.78
610.75	906.20
611.10	902.10
611.44	897.58
611.79	893.23
612.14	888.74
612.49	883.76
612.83	879.42
613.18	875.02
613.53	870.58
613.88	866.14
614.22	862.05
614.57	857.60
614.92	853.22
615.27	848.64
615.61	844.06
615.96	839.82
616.31	835.80
616.65	831.98
617.00	827.92
617.35	823.68
617.70	819.20
618.04	814.79
618.39	810.18
618.74	806.22
619.08	802.04
619.43	797.88
619.78	794.10
620.12	790.38
620.47	786.55
620.82	782.25
621.16	778.00
621.51	773.87
621.85	770.06
622.20	765.85
622.55	761.82
622.89	757.71
623.24	753.76
623.59	749.48
623.93	745.36
624.28	741.39
624.62	737.80
624.97	734.05
625.32	730.32
625.66	726.73
626.01	722.83
626.35	719.17
626.70	715.35
627.04	711.68
627.39	707.77
627.73	704.00
628.08	700.79
628.43	697.36
628.77	693.75
629.12	689.85
629.46	686.43
629.81	682.95
630.15	679.37
630.50	675.65
630.84	672.26
631.19	668.60
631.53	665.11
631.88	661.24
632.22	657.75
632.57	654.46
632.91	651.04
633.26	647.71
633.60	644.29
633.95	640.97
634.29	637.47
634.64	634.21
634.98	630.76
635.32	627.30
635.67	624.33
636.01	621.12
636.36	618.02
636.70	615.11
637.05	612.11
637.39	609.06
637.73	606.18
638.08	603.62
638.42	600.84
638.77	597.94
639.11	595.21
639.45	592.33
639.80	589.18
640.14	586.13
640.49	583.07
640.83	580.12
641.17	577.20
641.52	574.32
641.86	571.37
642.20	568.65
642.55	565.51
642.89	562.48
643.23	559.52
643.58	556.94
643.92	553.77
644.26	550.89
644.61	548.31
644.95	545.45
645.29	542.22
645.64	539.34
645.98	536.43
646.32	533.65
646.66	530.79
647.01	528.15
647.35	525.61
647.69	523.05
648.04	520.42
648.38	517.71
648.72	515.08
649.06	512.29
649.41	509.56
649.75	507.04
650.09	504.44
650.43	501.84
650.78	498.97
651.12	496.44
651.46	493.77
651.80	491.19
652.14	488.73
652.49	486.33
652.83	483.96
653.17	481.25
653.51	478.66
653.85	476.30
654.20	473.93
654.54	471.38
654.88	468.94
655.22	466.60
655.56	464.07
655.90	461.63
656.25	459.34
656.59	457.05
656.93	454.84
657.27	452.53
657.61	450.14
657.95	447.95
658.29	445.64
658.64	443.45
658.98	441.21
659.32	438.68
659.66	436.42
660.00	433.80
660.34	431.65
660.68	429.35
661.02	427.12
661.36	424.94
661.70	422.87
662.05	420.72
662.39	418.58
662.73	416.81
663.07	414.96
663.41	413.01
663.75	410.88
664.09	408.85
664.43	406.85
664.77	405.10
665.11	403.16
665.45	401.32
665.79	399.60
666.13	397.76
666.47	395.98
666.81	394.11
667.15	392.39
667.49	390.83
667.83	389.38
668.17	387.65
668.51	386.02
668.85	384.33
669.19	383.00
669.53	381.30
669.87	379.48
670.21	377.88
670.55	376.31
670.89	374.90
671.23	373.45
671.57	372.03
671.91	370.51
672.25	369.00
672.58	367.53
672.92	365.93
673.26	364.41
673.60	363.09
673.94	361.73
674.28	360.46
674.62	359.01
674.96	357.53
675.30	356.29
675.64	354.86
675.97	353.51
676.31	351.95
676.65	350.68
676.99	349.57
677.33	348.09
677.67	346.79
678.01	345.43
678.34	344.09
678.68	342.75
679.02	341.39
679.36	340.19
679.70	339.00
680.04	337.76
680.37	336.49
680.71	335.21
681.05	334.00
681.39	332.77
681.73	331.64
682.06	330.46
682.40	329.18
682.74	328.06
683.08	326.97
683.42	325.85
683.75	324.72
684.09	323.45
684.43	322.42
684.77	321.24
685.10	320.15
685.44	318.97
685.78	317.82
686.12	316.80
686.45	315.62
686.79	314.54
687.13	313.57
687.46	312.48
687.80	311.52
688.14	310.51
688.48	309.62
688.81	308.56
689.15	307.62
689.49	306.57
689.82	305.50
690.16	304.40
690.50	303.31
690.83	302.34
691.17	301.22
691.51	300.14
691.84	299.20
692.18	298.25
692.52	297.39
692.85	296.58
693.19	295.69
693.52	294.84
693.86	293.94
694.20	293.07
694.53	292.27
694.87	291.37
695.21	290.43
695.54	289.49
695.88	288.54
696.21	287.61
696.55	286.75
696.88	286.00
697.22	285.29
697.56	284.58
697.89	283.80
698.23	283.06
698.56	282.28
698.90	281.54
699.23	280.68
699.57	279.88
699.90	279.09
700.24	278.31
700.58	277.53
700.91	276.89
701.25	276.45
701.58	275.76
701.92	275.03
702.25	274.30
702.59	273.56
702.92	272.93
703.26	272.21
703.59	271.57
703.93	271.15
704.26	270.47
704.60	269.85
704.93	269.10
705.26	268.55
705.60	268.04
705.93	267.28
706.27	266.80
706.60	266.40
706.94	265.92
707.27	265.29
707.61	264.73
707.94	264.06
708.27	263.17
708.61	262.53
708.94	262.05
709.28	261.61
709.61	261.06
709.94	260.60
710.28	260.15
710.61	259.70
710.95	258.92
711.28	258.68
711.61	258.16
711.95	257.82
712.28	257.31
712.61	256.81
712.95	256.59
713.28	256.24
713.61	255.64
713.95	255.10
714.28	254.67
714.61	254.24
714.95	253.78
715.28	253.24
715.61	252.79
715.95	252.36
716.28	251.83
716.61	251.46
716.95	250.95
717.28	250.55
717.61	250.12
717.94	249.79
718.28	249.10
718.61	248.69
718.94	248.21
719.27	247.87
719.61	247.47
719.94	247.00
720.27	246.54
720.60	246.16
720.94	245.83
721.27	245.56
721.60	245.21
721.93	244.84
722.27	244.74
722.60	244.49
722.93	244.02
723.26	243.73
723.59	243.36
723.93	243.03
724.26	242.75
724.59	242.38
724.92	241.99
725.25	241.84
725.59	241.60
725.92	241.40
726.25	241.06
726.58	240.74
726.91	240.48
727.24	240.19
727.57	239.94
727.91	239.51
728.24	239.26
728.57	238.97
728.90	238.73
729.23	238.28
729.56	238.16
729.89	237.99
730.22	237.72
730.55	237.49
730.89	237.24
731.22	236.96
731.55	236.71
731.88	236.50
732.21	236.16
732.54	235.83
732.87	235.52
733.20	235.38
733.53	235.22
733.86	234.99
734.19	234.76
734.52	234.60
734.85	234.72
735.18	234.40
735.51	234.33
735.84	234.14
736.17	234.12
736.50	233.69
736.83	233.86
737.16	233.64
737.49	233.36
737.82	233.12
738.15	232.93
738.48	232.73
738.81	232.49
739.14	232.27
739.47	232.01
739.80	231.79
740.13	231.60
740.46	231.31
740.79	231.06
741.12	230.83
741.45	230.55
741.78	230.15
742.11	230.07
742.44	229.79
742.77	229.56
743.10	229.21
743.43	229.07
743.75	228.54
744.08	228.89
744.41	228.65
744.74	228.51
745.07	228.28
745.40	228.19
745.73	228.17
746.06	227.95
746.39	227.86
746.71	227.65
747.04	227.33
747.37	227.22
747.70	227.08
748.03	226.86
748.36	226.70
748.68	226.45
749.01	226.17
749.34	225.97
749.67	225.91
750.00	225.73
750.33	225.82
750.65	225.69
750.98	225.02
751.31	224.89
751.64	224.79
751.97	224.87
752.29	224.70
752.62	224.40
752.95	224.22
753.28	224.01
753.60	223.95
753.93	223.93
754.26	223.85
754.59	223.59
754.91	223.48
755.24	223.29
755.57	223.14
755.90	222.96
756.22	222.82
756.55	222.55
756.88	222.42
757.20	222.05
757.53	221.84
757.86	221.72
758.19	221.65
758.51	221.48
758.84	221.15
759.17	220.99
759.49	220.91
759.82	220.98
760.15	220.93
760.47	220.82
760.80	220.57
761.13	220.49
761.45	220.39
761.78	220.26
762.11	220.20
762.43	220.09
762.76	220.05
763.08	220.01
763.41	220.04
763.74	220.01
764.06	219.87
764.39	219.79
764.71	219.72
765.04	219.59
765.37	219.53
765.69	219.38
766.02	219.26
766.34	219.11
766.67	218.94
767.00	218.94
767.32	219.00
767.65	219.18
767.97	218.99
768.30	219.02
768.62	218.91
768.95	218.86
769.27	218.84
769.60	218.74
769.92	218.58
770.25	218.46
770.57	218.29
770.90	218.27
771.22	218.13
771.55	218.08
771.87	218.07
772.20	217.93
772.52	218.21
772.85	218.56
773.17	218.48
773.50	218.34
773.82	218.12
774.15	217.87
774.47	217.55
774.80	217.47
775.12	217.30
775.45	217.27
775.77	217.21
776.09	217.16
776.42	217.22
776.74	217.30
777.07	217.17
777.39	217.15
777.72	216.99
778.04	216.98
778.36	216.94
778.69	216.86
779.01	216.93
779.33	216.55
779.66	216.10
779.98	215.98
780.31	215.93
780.63	216.07
780.95	216.16
781.28	216.12
781.60	216.03
781.92	216.07
782.25	216.08
782.57	216.03
782.89	215.97
783.22	215.79
783.54	215.74
783.86	215.75
784.19	215.68
784.51	215.82
784.83	215.72
785.16	215.69
785.48	215.68
785.80	215.58
786.12	215.63
786.45	215.64
786.77	215.68
787.09	215.75
787.42	215.56
787.74	215.46
788.06	215.42
788.38	215.40
788.71	215.29
789.03	215.21
789.35	215.14
789.67	215.02
789.99	215.04
790.32	214.91
790.64	214.87
790.96	215.16
791.28	215.01
791.61	215.00
791.93	214.89
792.25	214.90
792.57	215.08
792.89	215.00
793.21	214.99
793.54	214.95
793.86	214.85
794.18	214.91
794.50	214.79
794.82	214.82
795.14	214.90
795.47	214.93
795.79	214.91
796.11	214.85
796.43	214.80
796.75	214.83
797.07	214.82
797.39	214.78
797.71	214.43
798.04	214.40
798.36	214.35
798.68	214.38
799.00	214.26
799.32	214.05
799.64	214.06
799.96	213.94
800.28	213.97
800.60	213.93
800.92	213.90
801.24	213.86
801.56	213.92
801.89	213.90
802.21	213.92
802.53	213.91
802.85	214.09
803.17	214.30
803.49	214.16
803.81	214.08
804.13	214.04
804.45	214.05
804.77	214.14
805.09	214.17
805.41	214.12
805.73	214.09
806.05	214.00
806.37	213.98
806.69	214.00
807.01	214.01
807.33	214.01
807.65	213.87
807.97	214.05
808.28	213.94
808.60	213.83
808.92	213.78
809.24	213.95
809.56	213.79
809.88	213.64
810.20	213.65
810.52	213.73
810.84	213.76
811.16	213.67
811.48	213.54
811.80	213.63
812.12	213.63
812.43	213.67
812.75	213.76
813.07	213.72
813.39	213.70
813.71	213.55
814.03	213.43
814.35	213.44
814.67	213.25
814.98	213.16
815.30	213.18
815.62	213.12
815.94	212.76
816.26	212.81
816.58	212.67
816.89	212.69
817.21	212.59
817.53	212.55
817.85	212.60
818.17	212.57
818.48	212.48
818.80	212.46
819.12	212.38
819.44	212.26
819.76	212.18
820.07	212.16
820.39	212.19
820.71	212.24
821.03	212.18
821.34	212.19
821.66	212.24
821.98	212.26
822.30	212.25
822.61	212.54
822.93	212.42
823.25	212.44
823.57	212.38
823.88	212.51
824.20	212.54
824.52	212.54
824.83	212.54
825.15	212.48
825.47	212.46
825.79	212.42
826.10	212.40
826.42	212.38
826.74	212.44
827.05	212.43
827.37	212.48
827.69	212.50
828.00	212.45
828.32	212.45
828.64	212.39
828.95	212.52
829.27	212.43
829.58	212.42
829.90	212.55
830.22	212.58
830.53	212.40
830.85	212.25
831.17	212.14
831.48	212.17
831.80	212.22
832.11	212.19
832.43	212.15
832.75	212.12
833.06	212.37
833.38	212.22
833.69	212.21
834.01	212.19
834.32	212.09
834.64	212.10
834.96	212.04
835.27	212.02
835.59	211.95
835.90	211.84
836.22	211.90
836.53	211.75
836.85	211.68
837.16	212.06
837.48	212.11
837.79	212.26
838.11	212.20
838.42	212.11
838.74	212.18
839.05	212.24
839.37	212.26
839.68	212.01
840.00	212.03
840.31	212.04
840.63	211.99
840.94	212.00
841.26	211.88
841.57	211.95
841.88	211.99
842.20	211.93
842.51	211.91
842.83	211.90
843.14	212.23
843.46	212.30
843.77	212.14
844.08	212.15
844.40	212.00
844.71	211.96
845.03	211.95
845.34	211.93
845.65	211.95
845.97	211.84
846.28	211.90
846.60	211.92
846.91	211.90
847.22	211.97
847.54	212.05
847.85	212.13
848.16	212.04
848.48	211.96
848.79	212.07
849.10	212.11
849.42	212.06
849.73	211.76
850.04	211.67
850.36	211.45
850.67	211.50
850.98	211.56
851.30	211.67
851.61	211.65
851.92	211.62
852.23	211.67
852.55	211.78
852.86	211.76
853.17	211.75
853.49	211.83
853.80	211.84
854.11	211.88
854.42	211.95
854.74	211.96
855.05	211.98
855.36	211.80
855.67	211.84
855.99	211.82
856.30	212.20
856.61	212.25
856.92	212.29
857.23	212.21
857.55	212.15
857.86	212.08
858.17	212.22
858.48	212.20
858.79	212.12
859.11	212.26
859.42	212.26
859.73	212.16
860.04	212.08
860.35	211.98
860.66	211.89
860.98	211.92
861.29	211.94
861.60	211.96
861.91	212.02
862.22	211.95
862.53	211.95
862.84	211.50
863.16	211.58
863.47	211.54
863.78	211.59
864.09	211.67
864.40	211.72
864.71	211.62
865.02	211.74
865.33	211.71
865.64	211.53
865.95	211.48
866.27	211.80
866.58	211.77
866.89	211.80
867.20	211.79
867.51	211.70
867.82	211.79
868.13	211.82
868.44	211.76
868.75	211.85
869.06	211.90
869.37	212.01
869.68	211.84
869.99	211.93
870.30	211.96
870.61	211.96
870.92	211.86
871.23	211.88
871.54	211.82
871.85	211.90
872.16	211.95
872.47	211.93
872.78	211.70
873.09	211.81
873.40	211.79
873.71	211.78
874.02	211.79
874.33	211.75
874.64	211.71
874.95	211.77
875.26	211.67
875.56	211.60
875.87	211.54
876.18	211.62
876.49	211.95
876.80	211.92
877.11	211.83
877.42	211.90
877.73	211.86
878.04	211.78
878.35	211.81
878.66	211.77
878.96	211.76
879.27	211.74
879.58	211.69
879.89	211.71
880.20	211.81
880.51	211.80
880.82	211.62
881.12	211.61
881.43	211.54
881.74	211.50
882.05	211.44
882.36	211.44
882.67	211.42
882.97	211.04
883.28	210.98
883.59	210.97
883.90	210.92
884.21	211.00
884.51	211.00
884.82	210.91
885.13	210.91
885.44	210.95
885.74	210.97
886.05	210.91
886.36	210.90
886.67	210.80
886.98	210.89
887.28	210.97
887.59	210.95
887.90	211.00
888.20	211.02
888.51	211.14
888.82	211.06
889.13	211.11
889.43	211.37
889.74	211.40
890.05	211.39
890.35	211.39
890.66	211.37
890.97	211.30
891.28	211.28
891.58	211.32
891.89	211.35
892.20	211.29
892.50	211.29
892.81	211.26
893.12	211.24
893.42	211.16
893.73	211.23
894.04	211.24
894.34	211.24
894.65	211.18
894.95	211.12
895.26	211.12
895.57	211.28
895.87	210.95
896.18	210.95
896.48	211.04
896.79	211.01
897.10	211.06
897.40	211.14
897.71	211.16
898.01	211.11
898.32	211.15
898.63	211.17
898.93	211.23
899.24	211.26
899.54	211.28
899.85	211.21
900.15	211.20
900.46	211.17
900.76	211.22
901.07	211.30
901.38	211.29
901.68	211.39
901.99	211.19
902.29	211.24
902.60	211.25
902.90	211.15
903.21	211.22
903.51	211.15
903.82	211.21
904.12	211.23
904.43	211.27
904.73	211.28
905.03	211.33
905.34	211.63
905.64	211.56
905.95	211.59
906.25	211.61
906.56	211.54
906.86	211.58
907.17	211.55
907.47	211.61
907.77	211.58
908.08	211.55
908.38	211.60
908.69	211.61
908.99	211.69
909.30	211.80
909.60	211.72
909.90	211.71
910.21	211.64
910.51	211.58
910.81	211.60
911.12	211.59
911.42	211.57
911.73	211.20
912.03	211.30
912.33	211.36
912.64	211.37
912.94	211.37
913.24	211.34
913.55	211.30
913.85	211.24
914.15	211.40
914.46	211.42
914.76	211.37
915.06	211.40
915.37	211.20
915.67	211.14
915.97	211.17
916.27	211.18
916.58	211.16
916.88	211.14
917.18	211.04
917.49	211.20
917.79	211.18
918.09	211.32
918.39	211.38
918.70	211.36
919.00	211.41
919.30	211.59
919.60	211.61
919.91	211.58
920.21	211.59
920.51	211.43
920.81	211.41
921.12	211.42
921.42	211.37
921.72	211.51
922.02	211.52
922.32	211.60
922.63	211.61
922.93	211.70
923.23	211.80
923.53	211.84
923.83	211.61
924.13	211.69
924.44	211.61
924.74	211.65
925.04	211.69
925.34	211.65
925.64	211.54
925.94	211.44
926.24	211.61
926.55	211.59
926.85	211.69
927.15	211.69
927.45	211.70
927.75	211.71
928.05	211.66
928.35	211.64
928.65	211.68
928.95	211.64
929.26	211.60
929.56	211.59
929.86	211.61
930.16	211.59
930.46	211.54
930.76	211.56
931.06	211.31
931.36	211.28
931.66	211.25
931.96	211.25
932.26	211.32
932.56	211.14
932.86	211.12
933.16	211.05
933.46	211.05
933.76	211.06
934.06	211.07
934.36	211.21
934.66	211.20
934.96	211.16
935.26	211.19
935.56	211.24
935.86	211.17
936.16	211.16
936.46	211.14
936.76	211.11
937.06	211.04
937.36	211.15
937.66	211.09
937.96	211.05
938.26	211.01
938.56	210.97
938.86	211.02
939.16	211.11
939.46	211.15
939.76	211.09
940.06	211.04
940.35	211.02
940.65	210.87
940.95	210.91
941.25	210.80
941.55	210.74
941.85	210.73
942.15	210.76
942.45	210.82
942.75	210.79
943.04	210.78
943.34	210.87
943.64	210.81
943.94	210.75
944.24	210.85
944.54	210.84
944.84	210.83
945.13	210.80
945.43	210.77
945.73	210.73
946.03	210.74
946.33	210.70
946.62	210.65
946.92	210.57
947.22	210.54
947.52	210.59
947.82	210.61
948.11	210.56
948.41	210.54
948.71	210.48
949.01	210.56
949.31	210.59
949.60	210.61
949.90	210.69
950.20	210.78
950.50	210.82
950.79	210.87
951.09	210.93
951.39	210.98
951.69	210.95
951.98	211.04
952.28	211.09
952.58	211.10
952.87	211.12
953.17	211.33
953.47	211.28
953.76	211.28
954.06	211.27
954.36	211.20
954.66	211.12
954.95	211.19
955.25	211.21
955.55	211.20
955.84	211.07
956.14	211.05
956.44	211.00
956.73	210.89
957.03	210.82
957.32	210.77
957.62	210.72
957.92	210.71
958.21	210.64
958.51	211.03
958.81	211.09
959.10	211.09
959.40	211.05
959.69	211.19
959.99	211.23
960.29	211.19
960.58	211.16
960.88	211.35
961.17	211.34
961.47	211.33
961.76	211.24
962.06	211.34
962.36	211.29
962.65	211.32
962.95	211.32
963.24	211.31
963.54	211.32
963.83	211.31
964.13	211.37
964.42	211.36
964.72	211.11
965.01	211.15
965.31	211.11
965.60	211.08
965.90	211.22
966.19	211.12
966.49	211.15
966.78	211.23
967.08	211.15
967.37	211.11
967.67	211.03
967.96	211.20
968.26	211.18
968.55	211.20
968.85	211.20
969.14	211.22
969.43	211.22
969.73	211.21
970.02	211.24
970.32	211.22
970.61	211.12
970.91	210.90
971.20	210.80
971.49	210.81
971.79	210.81
972.08	210.54
972.38	210.66
972.67	210.66
972.96	210.67
973.26	210.65
973.55	210.79
973.85	210.78
974.14	210.70
974.43	210.77
974.73	210.72
975.02	210.66
975.31	210.60
975.61	210.67
975.90	210.64
976.19	210.62
976.49	210.61
976.78	210.72
977.07	210.82
977.37	210.87
977.66	210.91
977.95	210.91
978.24	210.99
978.54	210.98
978.83	211.06
979.12	210.96
979.42	210.94
979.71	210.86
980.00	210.84
980.29	210.85
980.59	210.69
980.88	210.88
981.17	210.97
981.46	211.02
981.76	211.00
982.05	211.19
982.34	211.24
982.63	211.32
982.93	211.32
983.22	211.42
983.51	211.40
983.80	211.42
984.09	211.47
984.39	211.46
984.68	211.38
984.97	211.33
985.26	211.36
985.55	211.47
985.85	211.41
986.14	211.50
986.43	211.56
986.72	211.58
987.01	211.47
987.30	211.45
987.59	211.44
987.89	211.46
988.18	211.34
988.47	211.33
988.76	211.25
989.05	211.20
989.34	211.15
989.63	211.31
989.92	211.31
990.22	211.21
990.51	211.18
990.80	211.20
991.09	211.20
991.38	211.33
991.67	211.25
991.96	211.22
992.25	211.23
992.54	211.16
992.83	211.23
993.12	211.21
993.41	211.21
993.70	211.30
993.99	211.34
994.28	211.41
994.58	211.45
994.87	211.39
995.16	211.44
995.45	211.43
995.74	211.31
996.03	211.38
996.32	211.45
996.61	211.49
996.90	211.51
997.19	211.52
997.48	211.46
997.77	211.43
998.06	211.54
998.34	211.56
998.63	211.58
998.92	211.52
999.21	211.53
999.50	211.55
999.79	211.45
1000.08	211.44
1000.37	211.39
1000.66	211.33
1000.95	211.42
1001.24	211.45
1001.53	211.45
1001.82	211.40
1002.11	211.25
1002.40	211.30
1002.68	211.40
1002.97	211.62
1003.26	211.67
1003.55	211.56
1003.84	211.56
1004.13	211.59
1004.42	211.54
1004.71	211.57
1004.99	211.57
1005.28	211.67
1005.57	211.67
1005.86	211.65
1006.15	211.66
1006.44	211.62
1006.72	211.64
1007.01	211.55
1007.30	211.55
1007.59	211.53
1007.88	211.48
1008.17	211.59
1008.45	211.46
1008.74	211.28
1009.03	211.18
1009.32	211.08
1009.60	211.10
1009.89	211.09
1010.18	210.95
1010.47	210.89
1010.76	210.83
1011.04	210.85
1011.33	210.90
1011.62	210.90
1011.91	210.96
1012.19	210.95
1012.48	210.98
1012.77	210.99
1013.05	211.15
1013.34	211.14
1013.63	211.08
1013.92	211.19
1014.20	211.14
1014.49	211.21
1014.78	211.29
1015.06	211.16
1015.35	211.18
1015.64	211.24
1015.92	211.30
1016.21	211.37
1016.50	211.41
1016.78	211.47
1017.07	211.51
1017.36	211.38
1017.64	211.28
1017.93	211.36
1018.22	211.29
1018.50	211.24
1018.79	211.22
1019.08	211.07
1019.36	211.10
1019.65	211.06
1019.93	211.15
1020.22	211.21
1020.51	211.33
1020.79	211.25
1021.08	210.00
1021.36	210.05
1021.65	211.40
1021.94	210.55
1022.22	211.80
1022.51	209.95
1022.79	213.40
1023.08	212.20
1023.36	214.30
1023.65	209.55
>>>>>End Processed Spectral Data<<<<<
