SpectraSuite Data File
++++++++++++++++++++++++++++++++++++
Date: Mon Feb 25 17:13:14 EST 2013
User: group
Dark Spectrum Present: No
Reference Spectrum Present: No
Number of Sampled Component Spectra: 1
Spectrometers: USB2E7196
Integration Time (usec): 104000 (USB2E7196)
Spectra Averaged: 20 (USB2E7196)
Boxcar Smoothing: 10 (USB2E7196)
Correct for Electrical Dark: No (USB2E7196)
Strobe/Lamp Enabled: No (USB2E7196)
Correct for Detector Non-linearity: No (USB2E7196)
Correct for Stray Light: No (USB2E7196)
Number of Pixels in Processed Spectrum: 2048
>>>>>Begin Processed Spectral Data<<<<<
339.09	0.00
339.48	198.25
339.86	199.95
340.24	201.95
340.63	203.00
341.01	208.90
341.39	206.05
341.78	208.00
342.16	209.30
342.54	209.90
342.93	198.41
343.31	208.48
343.69	209.05
344.07	209.50
344.46	209.95
344.84	210.29
345.22	210.29
345.60	210.57
345.99	210.72
346.37	210.78
346.75	210.82
347.13	210.80
347.52	210.80
347.90	210.97
348.28	210.96
348.66	211.08
349.05	210.98
349.43	210.95
349.81	211.02
350.19	210.98
350.57	211.05
350.96	211.12
351.34	211.15
351.72	211.25
352.10	211.33
352.48	211.35
352.87	211.45
353.25	211.62
353.63	211.68
354.01	211.76
354.39	211.93
354.77	211.99
355.15	212.20
355.54	212.24
355.92	212.15
356.30	212.26
356.68	212.51
357.06	212.61
357.44	212.62
357.82	212.61
358.20	212.70
358.58	212.73
358.97	212.77
359.35	212.90
359.73	212.97
360.11	212.99
360.49	213.05
360.87	213.05
361.25	213.08
361.63	213.19
362.01	213.17
362.39	213.07
362.77	213.12
363.15	213.10
363.53	213.11
363.91	213.13
364.29	213.21
364.67	212.92
365.05	212.92
365.43	213.06
365.81	213.18
366.19	213.40
366.57	213.54
366.95	213.57
367.33	213.48
367.71	213.49
368.09	213.69
368.47	213.65
368.85	213.69
369.23	213.69
369.61	213.53
369.99	213.65
370.37	213.70
370.75	213.82
371.13	213.79
371.51	213.78
371.89	213.86
372.27	213.83
372.65	213.76
373.03	213.77
373.41	213.65
373.78	213.56
374.16	213.31
374.54	213.15
374.92	213.10
375.30	213.06
375.68	212.94
376.06	212.80
376.44	212.80
376.82	212.78
377.19	212.73
377.57	212.65
377.95	212.47
378.33	212.40
378.71	212.19
379.09	212.19
379.47	212.23
379.84	212.05
380.22	211.95
380.60	211.90
380.98	211.87
381.36	211.84
381.73	211.77
382.11	211.75
382.49	211.71
382.87	211.60
383.25	211.55
383.62	211.96
384.00	211.88
384.38	211.79
384.76	211.82
385.13	211.99
385.51	212.00
385.89	211.89
386.27	211.85
386.64	211.89
387.02	211.77
387.40	211.62
387.78	211.70
388.15	211.70
388.53	211.60
388.91	211.52
389.29	211.49
389.66	211.48
390.04	211.47
390.42	211.58
390.79	211.58
391.17	211.58
391.55	211.15
391.92	211.12
392.30	211.14
392.68	211.02
393.05	210.93
393.43	210.92
393.81	210.98
394.18	210.93
394.56	210.90
394.94	211.02
395.31	211.03
395.69	211.08
396.06	211.06
396.44	211.14
396.82	211.14
397.19	211.32
397.57	211.39
397.95	211.41
398.32	211.28
398.70	211.30
399.07	211.38
399.45	211.40
399.82	211.46
400.20	211.48
400.58	211.53
400.95	211.40
401.33	211.50
401.70	211.77
402.08	211.83
402.45	211.92
402.83	211.97
403.20	212.06
403.58	212.14
403.95	212.37
404.33	212.49
404.71	212.52
405.08	212.68
405.46	212.74
405.83	212.84
406.21	212.80
406.58	212.93
406.96	213.03
407.33	213.12
407.70	213.22
408.08	213.60
408.45	213.75
408.83	214.05
409.20	214.16
409.58	214.20
409.95	214.45
410.33	214.60
410.70	214.70
411.08	215.04
411.45	215.24
411.82	215.43
412.20	215.80
412.57	216.36
412.95	216.46
413.32	216.82
413.69	217.24
414.07	217.75
414.44	218.20
414.82	218.68
415.19	219.30
415.56	219.84
415.94	220.23
416.31	220.95
416.68	221.59
417.06	222.41
417.43	223.18
417.81	224.01
418.18	224.92
418.55	225.84
418.93	226.73
419.30	227.70
419.67	228.75
420.04	229.84
420.42	230.85
420.79	232.41
421.16	233.77
421.54	235.28
421.91	236.77
422.28	238.23
422.66	239.75
423.03	241.41
423.40	243.07
423.77	244.74
424.15	246.38
424.52	248.06
424.89	250.01
425.26	251.77
425.64	253.55
426.01	255.41
426.38	257.49
426.75	259.60
427.13	261.66
427.50	263.79
427.87	266.05
428.24	268.36
428.61	270.44
428.99	272.96
429.36	275.43
429.73	278.02
430.10	280.65
430.47	283.34
430.85	285.90
431.22	288.81
431.59	292.09
431.96	294.94
432.33	298.22
432.70	301.35
433.08	305.06
433.45	308.60
433.82	312.15
434.19	316.02
434.56	319.75
434.93	323.37
435.30	326.99
435.68	330.97
436.05	334.90
436.42	338.75
436.79	342.24
437.16	346.01
437.53	350.01
437.90	354.01
438.27	357.93
438.64	361.96
439.01	365.82
439.38	368.95
439.75	372.35
440.13	376.01
440.50	379.51
440.87	382.37
441.24	385.23
441.61	388.33
441.98	390.60
442.35	393.43
442.72	396.32
443.09	399.25
443.46	400.80
443.83	401.93
444.20	402.86
444.57	404.22
444.94	405.01
445.31	405.68
445.68	406.67
446.05	406.82
446.42	406.38
446.79	405.85
447.16	405.29
447.53	404.81
447.90	403.32
448.27	401.71
448.64	399.60
449.01	398.10
449.37	395.52
449.74	392.99
450.11	390.13
450.48	386.75
450.85	383.08
451.22	380.18
451.59	377.30
451.96	374.54
452.33	370.91
452.70	367.45
453.07	363.55
453.43	359.15
453.80	355.50
454.17	351.86
454.54	348.36
454.91	344.72
455.28	341.10
455.65	337.80
456.02	335.01
456.38	332.05
456.75	328.53
457.12	325.62
457.49	322.78
457.86	319.58
458.23	317.27
458.59	314.72
458.96	312.10
459.33	309.70
459.70	307.41
460.07	305.51
460.43	303.47
460.80	301.55
461.17	299.97
461.54	298.21
461.91	296.55
462.27	294.73
462.64	293.17
463.01	291.57
463.38	290.03
463.74	287.87
464.11	286.56
464.48	285.30
464.85	283.87
465.21	282.91
465.58	281.87
465.95	280.42
466.32	279.29
466.68	278.12
467.05	277.13
467.42	276.08
467.78	274.98
468.15	273.94
468.52	273.13
468.88	271.94
469.25	270.93
469.62	270.25
469.98	269.43
470.35	268.81
470.72	268.11
471.08	267.29
471.45	266.77
471.82	266.15
472.18	265.62
472.55	265.24
472.92	264.58
473.28	264.15
473.65	263.63
474.02	263.22
474.38	262.90
474.75	262.63
475.11	262.20
475.48	261.99
475.85	261.79
476.21	261.55
476.58	261.45
476.94	261.33
477.31	261.20
477.67	261.17
478.04	261.10
478.41	261.10
478.77	261.48
479.14	261.36
479.50	261.55
479.87	261.60
480.23	261.72
480.60	261.86
480.96	262.02
481.33	262.49
481.69	262.69
482.06	263.03
482.42	263.34
482.79	263.75
483.15	264.23
483.52	264.84
483.88	265.34
484.25	265.88
484.61	266.42
484.98	267.01
485.34	267.82
485.71	268.56
486.07	269.39
486.44	269.90
486.80	270.83
487.17	271.68
487.53	272.78
487.90	273.94
488.26	275.25
488.62	276.56
488.99	277.79
489.35	279.25
489.72	280.67
490.08	282.15
490.44	283.75
490.81	285.37
491.17	286.95
491.54	288.83
491.90	290.79
492.26	292.77
492.63	294.92
492.99	297.02
493.36	299.46
493.72	301.96
494.08	304.53
494.45	307.28
494.81	310.21
495.17	313.07
495.54	316.12
495.90	319.13
496.26	322.44
496.63	325.79
496.99	329.30
497.35	333.02
497.72	336.92
498.08	340.89
498.44	345.15
498.80	349.61
499.17	354.04
499.53	358.62
499.89	363.65
500.26	368.60
500.62	373.71
500.98	378.93
501.34	384.30
501.71	390.05
502.07	395.84
502.43	401.65
502.79	407.67
503.16	413.89
503.52	420.46
503.88	427.02
504.24	433.83
504.60	440.95
504.97	448.30
505.33	455.59
505.69	463.54
506.05	471.31
506.41	479.27
506.78	487.47
507.14	495.83
507.50	504.30
507.86	512.95
508.22	521.88
508.59	530.79
508.95	540.10
509.31	549.49
509.67	559.11
510.03	569.01
510.39	579.06
510.75	589.30
511.12	599.71
511.48	610.41
511.84	621.30
512.20	631.93
512.56	642.92
512.92	654.35
513.28	665.48
513.64	676.85
514.00	688.34
514.37	700.15
514.73	712.14
515.09	724.27
515.45	736.32
515.81	748.65
516.17	761.06
516.53	773.34
516.89	785.89
517.25	798.35
517.61	810.90
517.97	823.70
518.33	836.54
518.69	849.24
519.05	862.20
519.41	875.18
519.77	888.60
520.13	901.48
520.49	914.31
520.85	927.46
521.21	940.74
521.57	954.10
521.93	966.75
522.29	980.24
522.65	993.56
523.01	1006.69
523.37	1019.53
523.73	1032.83
524.09	1046.10
524.45	1059.17
524.81	1072.60
525.17	1086.04
525.53	1099.15
525.89	1112.35
526.25	1125.48
526.61	1138.04
526.97	1150.55
527.33	1163.25
527.68	1176.36
528.04	1189.03
528.40	1201.43
528.76	1213.95
529.12	1226.55
529.48	1239.70
529.84	1251.88
530.20	1263.96
530.56	1276.25
530.91	1288.93
531.27	1301.32
531.63	1313.56
531.99	1325.85
532.35	1337.39
532.71	1348.79
533.07	1360.58
533.42	1372.06
533.78	1383.47
534.14	1394.76
534.50	1405.69
534.86	1416.74
535.21	1426.92
535.57	1437.87
535.93	1448.15
536.29	1458.66
536.65	1468.87
537.00	1478.32
537.36	1487.75
537.72	1497.30
538.08	1506.80
538.44	1515.81
538.79	1524.46
539.15	1533.19
539.51	1541.64
539.87	1550.81
540.22	1559.45
540.58	1568.09
540.94	1576.59
541.29	1584.11
541.65	1591.36
542.01	1598.81
542.37	1605.97
542.72	1613.43
543.08	1619.87
543.44	1627.20
543.79	1633.10
544.15	1638.92
544.51	1645.52
544.87	1651.82
545.22	1657.26
545.58	1662.65
545.94	1667.46
546.29	1672.20
546.65	1676.57
547.01	1680.93
547.36	1684.98
547.72	1688.85
548.07	1692.13
548.43	1694.76
548.79	1698.04
549.14	1701.19
549.50	1704.46
549.86	1706.83
550.21	1709.20
550.57	1711.93
550.92	1713.46
551.28	1715.55
551.64	1717.39
551.99	1719.24
552.35	1720.47
552.70	1722.04
553.06	1723.38
553.41	1724.66
553.77	1725.70
554.13	1726.76
554.48	1727.79
554.84	1728.56
555.19	1728.94
555.55	1729.14
555.90	1729.36
556.26	1729.31
556.61	1729.20
556.97	1728.64
557.32	1728.40
557.68	1727.53
558.03	1726.58
558.39	1726.22
558.74	1725.92
559.10	1725.65
559.45	1724.60
559.81	1724.26
560.16	1722.72
560.52	1721.88
560.87	1720.90
561.23	1719.79
561.58	1718.80
561.94	1717.06
562.29	1714.94
562.64	1713.46
563.00	1712.16
563.35	1711.07
563.71	1710.20
564.06	1709.00
564.42	1707.51
564.77	1706.19
565.12	1705.00
565.48	1703.72
565.83	1702.20
566.19	1700.66
566.54	1698.24
566.89	1695.96
567.25	1693.73
567.60	1692.13
567.96	1689.60
568.31	1687.45
568.66	1684.67
569.02	1681.84
569.37	1678.89
569.72	1676.15
570.08	1672.72
570.43	1669.39
570.78	1665.88
571.14	1661.92
571.49	1658.10
571.84	1655.02
572.20	1650.96
572.55	1647.52
572.90	1643.14
573.26	1638.48
573.61	1633.75
573.96	1629.79
574.31	1625.30
574.67	1620.22
575.02	1615.19
575.37	1610.45
575.72	1605.00
576.08	1600.73
576.43	1595.60
576.78	1590.61
577.13	1586.52
577.49	1582.30
577.84	1577.78
578.19	1573.19
578.54	1569.10
578.90	1565.13
579.25	1560.22
579.60	1555.44
579.95	1550.08
580.30	1545.93
580.66	1541.79
581.01	1536.84
581.36	1531.82
581.71	1526.92
582.06	1522.41
582.42	1517.91
582.77	1512.85
583.12	1508.09
583.47	1503.87
583.82	1499.82
584.17	1495.56
584.53	1490.66
584.88	1485.99
585.23	1480.91
585.58	1476.11
585.93	1471.03
586.28	1466.33
586.63	1461.61
586.98	1456.95
587.34	1452.65
587.69	1447.85
588.04	1443.15
588.39	1439.02
588.74	1434.07
589.09	1429.66
589.44	1424.67
589.79	1420.10
590.14	1415.78
590.49	1411.28
590.84	1406.04
591.19	1401.55
591.54	1396.88
591.89	1391.46
592.25	1386.71
592.60	1381.82
592.95	1376.74
593.30	1371.37
593.65	1365.99
594.00	1360.91
594.35	1357.43
594.70	1352.38
595.05	1347.49
595.40	1342.67
595.75	1337.04
596.10	1332.66
596.45	1328.13
596.80	1323.98
597.15	1319.69
597.50	1314.87
597.85	1310.41
598.19	1305.76
598.54	1300.77
598.89	1296.35
599.24	1292.54
599.59	1288.22
599.94	1284.31
600.29	1280.34
600.64	1276.30
600.99	1271.88
601.34	1267.78
601.69	1262.13
602.04	1257.59
602.39	1252.87
602.74	1248.46
603.08	1245.00
603.43	1241.07
603.78	1236.85
604.13	1232.51
604.48	1227.93
604.83	1224.74
605.18	1221.30
605.53	1217.07
605.87	1212.80
606.22	1208.74
606.57	1204.48
606.92	1200.05
607.27	1195.31
607.62	1190.88
607.96	1186.92
608.31	1183.02
608.66	1178.43
609.01	1174.02
609.36	1169.58
609.70	1165.01
610.05	1160.18
610.40	1155.52
610.75	1150.43
611.10	1145.86
611.44	1140.55
611.79	1135.51
612.14	1129.53
612.49	1123.44
612.83	1118.29
613.18	1113.06
613.53	1107.65
613.88	1101.89
614.22	1096.99
614.57	1091.81
614.92	1086.40
615.27	1080.89
615.61	1075.38
615.96	1070.46
616.31	1065.58
616.65	1061.03
617.00	1056.22
617.35	1051.20
617.70	1045.55
618.04	1040.09
618.39	1034.25
618.74	1029.26
619.08	1023.99
619.43	1018.99
619.78	1014.28
620.12	1009.41
620.47	1004.52
620.82	999.10
621.16	993.85
621.51	988.35
621.85	983.45
622.20	978.32
622.55	972.98
622.89	967.74
623.24	962.33
623.59	956.74
623.93	951.45
624.28	946.52
624.62	941.87
624.97	937.11
625.32	932.38
625.66	927.70
626.01	922.97
626.35	918.60
626.70	913.86
627.04	909.45
627.39	904.65
627.73	900.02
628.08	895.85
628.43	891.06
628.77	886.41
629.12	881.82
629.46	877.69
629.81	873.45
630.15	869.06
630.50	864.45
630.84	860.10
631.19	855.60
631.53	851.19
631.88	846.10
632.22	841.29
632.57	836.97
632.91	832.58
633.26	828.13
633.60	823.49
633.95	819.34
634.29	814.70
634.64	810.43
634.98	805.71
635.32	801.41
635.67	797.70
636.01	793.60
636.36	789.11
636.70	784.84
637.05	780.60
637.39	776.60
637.73	772.84
638.08	769.19
638.42	765.33
638.77	761.25
639.11	757.47
639.45	753.72
639.80	749.55
640.14	745.27
640.49	741.26
640.83	737.17
641.17	733.11
641.52	728.93
641.86	724.80
642.20	720.99
642.55	716.44
642.89	712.22
643.23	708.01
643.58	704.31
643.92	699.86
644.26	695.85
644.61	691.82
644.95	687.71
645.29	683.52
645.64	679.17
645.98	675.09
646.32	671.29
646.66	667.24
647.01	663.45
647.35	659.89
647.69	655.88
648.04	652.19
648.38	648.16
648.72	644.50
649.06	640.63
649.41	636.72
649.75	633.13
650.09	629.39
650.43	625.66
650.78	621.62
651.12	617.91
651.46	614.26
651.80	610.64
652.14	606.94
652.49	603.20
652.83	599.60
653.17	595.85
653.51	592.16
653.85	588.67
654.20	584.97
654.54	581.14
654.88	577.43
655.22	573.75
655.56	570.23
655.90	566.51
656.25	562.94
656.59	559.46
656.93	556.10
657.27	552.87
657.61	549.44
657.95	546.18
658.29	543.02
658.64	539.71
658.98	536.14
659.32	532.69
659.66	529.45
660.00	526.08
660.34	522.82
660.68	519.35
661.02	516.09
661.36	513.19
661.70	510.23
662.05	507.36
662.39	504.47
662.73	501.57
663.07	498.96
663.41	496.15
663.75	493.30
664.09	490.21
664.43	487.20
664.77	484.35
665.11	481.51
665.45	478.63
665.79	475.90
666.13	473.35
666.47	470.69
666.81	468.11
667.15	465.49
667.49	463.01
667.83	460.58
668.17	458.14
668.51	455.54
668.85	453.20
669.19	450.83
669.53	448.26
669.87	445.65
670.21	443.06
670.55	440.50
670.89	438.35
671.23	436.46
671.57	434.30
671.91	431.99
672.25	429.74
672.58	427.65
672.92	425.45
673.26	423.36
673.60	421.43
673.94	419.28
674.28	417.23
674.62	415.18
674.96	413.09
675.30	411.07
675.64	409.00
675.97	406.85
676.31	404.89
676.65	403.05
676.99	401.41
677.33	399.50
677.67	397.73
678.01	395.63
678.34	393.54
678.68	391.68
679.02	389.84
679.36	388.07
679.70	386.19
680.04	384.29
680.37	382.37
680.71	380.46
681.05	378.66
681.39	377.00
681.73	375.27
682.06	373.70
682.40	372.14
682.74	370.37
683.08	368.77
683.42	367.02
683.75	365.39
684.09	363.61
684.43	361.99
684.77	360.29
685.10	358.71
685.44	357.06
685.78	355.27
686.12	353.83
686.45	352.23
686.79	350.68
687.13	349.30
687.46	347.78
687.80	346.42
688.14	344.95
688.48	343.43
688.81	341.94
689.15	340.41
689.49	338.80
689.82	337.50
690.16	335.95
690.50	334.50
690.83	332.96
691.17	331.46
691.51	330.04
691.84	328.77
692.18	327.37
692.52	326.17
692.85	324.99
693.19	323.85
693.52	322.57
693.86	321.26
694.20	319.95
694.53	318.75
694.87	317.46
695.21	316.16
695.54	314.86
695.88	313.48
696.21	312.22
696.55	311.13
696.88	309.84
697.22	308.66
697.56	307.72
697.89	306.63
698.23	305.63
698.56	304.55
698.90	303.57
699.23	302.50
699.57	301.33
699.90	300.12
700.24	298.87
700.58	297.77
700.91	296.82
701.25	296.04
701.58	295.04
701.92	294.08
702.25	293.09
702.59	292.15
702.92	291.39
703.26	290.48
703.59	289.54
703.93	288.97
704.26	288.12
704.60	287.18
704.93	286.27
705.26	285.38
705.60	284.55
705.93	283.58
706.27	282.85
706.60	282.11
706.94	281.54
707.27	280.76
707.61	280.05
707.94	279.19
708.27	278.15
708.61	277.32
708.94	276.60
709.28	275.86
709.61	275.13
709.94	274.37
710.28	273.61
710.61	272.94
710.95	271.88
711.28	271.36
711.61	270.65
711.95	269.95
712.28	269.19
712.61	268.60
712.95	268.18
713.28	267.65
713.61	267.01
713.95	266.28
714.28	265.71
714.61	265.06
714.95	264.46
715.28	263.84
715.61	263.22
715.95	262.64
716.28	262.07
716.61	261.46
716.95	260.89
717.28	260.35
717.61	259.70
717.94	259.22
718.28	258.43
718.61	257.90
718.94	257.35
719.27	256.89
719.61	256.32
719.94	255.69
720.27	254.95
720.60	254.37
720.94	253.90
721.27	253.45
721.60	253.03
721.93	252.54
722.27	252.24
722.60	251.84
722.93	251.36
723.26	250.97
723.59	250.53
723.93	250.15
724.26	249.83
724.59	249.45
724.92	249.03
725.25	248.74
725.59	248.25
725.92	247.98
726.25	247.59
726.58	247.25
726.91	246.81
727.24	246.52
727.57	246.18
727.91	245.81
728.24	245.38
728.57	244.96
728.90	244.68
729.23	244.25
729.56	244.06
729.89	243.71
730.22	243.35
730.55	243.02
730.89	242.63
731.22	242.28
731.55	241.97
731.88	241.64
732.21	241.22
732.54	240.86
732.87	240.47
733.20	240.19
733.53	239.86
733.86	239.59
734.19	239.26
734.52	239.02
734.85	238.92
735.18	238.57
735.51	238.40
735.84	238.15
736.17	237.92
736.50	237.42
736.83	237.53
737.16	237.20
737.49	236.97
737.82	236.68
738.15	236.37
738.48	236.10
738.81	235.77
739.14	235.42
739.47	235.18
739.80	234.94
740.13	234.71
740.46	234.42
740.79	234.04
741.12	233.81
741.45	233.55
741.78	233.09
742.11	232.97
742.44	232.70
742.77	232.45
743.10	232.20
743.43	232.00
743.75	231.36
744.08	231.58
744.41	231.25
744.74	231.03
745.07	230.73
745.40	230.55
745.73	230.58
746.06	230.37
746.39	230.17
746.71	229.91
747.04	229.62
747.37	229.39
747.70	229.29
748.03	229.07
748.36	228.91
748.68	228.70
749.01	228.39
749.34	228.19
749.67	228.02
750.00	227.90
750.33	227.98
750.65	227.79
750.98	227.20
751.31	227.15
751.64	226.94
751.97	227.04
752.29	226.83
752.62	226.51
752.95	226.47
753.28	226.36
753.60	226.18
753.93	226.19
754.26	226.04
754.59	225.82
754.91	225.67
755.24	225.48
755.57	225.30
755.90	225.17
756.22	225.04
756.55	224.87
756.88	224.54
757.20	224.19
757.53	223.93
757.86	223.78
758.19	223.63
758.51	223.41
758.84	223.06
759.17	222.91
759.49	222.77
759.82	222.75
760.15	222.55
760.47	222.45
760.80	222.18
761.13	222.09
761.45	221.93
761.78	221.82
762.11	221.71
762.43	221.60
762.76	221.45
763.08	221.30
763.41	221.21
763.74	221.15
764.06	220.99
764.39	220.98
764.71	220.92
765.04	220.83
765.37	220.77
765.69	220.71
766.02	220.61
766.34	220.51
766.67	220.25
767.00	220.22
767.32	220.29
767.65	220.41
767.97	220.27
768.30	220.26
768.62	220.17
768.95	220.01
769.27	219.89
769.60	219.85
769.92	219.70
770.25	219.50
770.57	219.39
770.90	219.30
771.22	219.16
771.55	219.11
771.87	218.94
772.20	218.84
772.52	219.00
772.85	219.31
773.17	219.31
773.50	219.15
773.82	219.02
774.15	218.83
774.47	218.50
774.80	218.50
775.12	218.37
775.45	218.22
775.77	218.20
776.09	218.20
776.42	218.10
776.74	218.21
777.07	218.19
777.39	218.10
777.72	218.05
778.04	218.03
778.36	217.82
778.69	217.87
779.01	217.85
779.33	217.44
779.66	216.96
779.98	216.79
780.31	216.88
780.63	217.00
780.95	217.02
781.28	216.92
781.60	216.80
781.92	216.76
782.25	216.85
782.57	216.79
782.89	216.72
783.22	216.63
783.54	216.43
783.86	216.36
784.19	216.30
784.51	216.35
784.83	216.29
785.16	216.29
785.48	216.13
785.80	216.12
786.12	216.17
786.45	216.09
786.77	216.03
787.09	215.95
787.42	215.75
787.74	215.67
788.06	215.72
788.38	215.60
788.71	215.51
789.03	215.40
789.35	215.42
789.67	215.33
789.99	215.37
790.32	215.26
790.64	215.36
790.96	215.64
791.28	215.51
791.61	215.44
791.93	215.42
792.25	215.43
792.57	215.61
792.89	215.49
793.21	215.52
793.54	215.55
793.86	215.53
794.18	215.45
794.50	215.34
794.82	215.25
795.14	215.28
795.47	215.31
795.79	215.27
796.11	215.10
796.43	215.00
796.75	214.93
797.07	214.93
797.39	214.84
797.71	214.52
798.04	214.47
798.36	214.47
798.68	214.40
799.00	214.37
799.32	214.19
799.64	214.27
799.96	214.26
800.28	214.22
800.60	214.12
800.92	214.23
801.24	214.21
801.56	214.22
801.89	214.20
802.21	214.22
802.53	214.13
802.85	214.27
803.17	214.49
803.49	214.45
803.81	214.44
804.13	214.27
804.45	214.24
804.77	214.24
805.09	214.17
805.41	214.11
805.73	214.06
806.05	213.92
806.37	213.85
806.69	213.72
807.01	213.66
807.33	213.67
807.65	213.41
807.97	213.57
808.28	213.50
808.60	213.48
808.92	213.38
809.24	213.66
809.56	213.49
809.88	213.34
810.20	213.33
810.52	213.37
810.84	213.43
811.16	213.36
811.48	213.30
811.80	213.39
812.12	213.46
812.43	213.54
812.75	213.47
813.07	213.46
813.39	213.47
813.71	213.44
814.03	213.39
814.35	213.46
814.67	213.23
814.98	213.18
815.30	213.17
815.62	213.10
815.94	212.77
816.26	212.82
816.58	212.69
816.89	212.66
817.21	212.53
817.53	212.51
817.85	212.48
818.17	212.47
818.48	212.37
818.80	212.30
819.12	212.16
819.44	212.21
819.76	212.08
820.07	212.07
820.39	212.01
820.71	212.04
821.03	211.98
821.34	211.95
821.66	212.03
821.98	212.00
822.30	211.96
822.61	212.20
822.93	212.19
823.25	212.26
823.57	212.24
823.88	212.38
824.20	212.43
824.52	212.57
824.83	212.53
825.15	212.46
825.47	212.48
825.79	212.52
826.10	212.43
826.42	212.50
826.74	212.60
827.05	212.62
827.37	212.58
827.69	212.62
828.00	212.70
828.32	212.70
828.64	212.68
828.95	212.91
829.27	212.79
829.58	212.67
829.90	212.67
830.22	212.71
830.53	212.57
830.85	212.45
831.17	212.28
831.48	212.27
831.80	212.31
832.11	212.26
832.43	212.22
832.75	212.28
833.06	212.48
833.38	212.33
833.69	212.31
834.01	212.33
834.32	212.33
834.64	212.23
834.96	212.19
835.27	212.20
835.59	212.00
835.90	211.89
836.22	211.96
836.53	211.87
836.85	211.79
837.16	212.11
837.48	212.11
837.79	212.27
838.11	212.39
838.42	212.38
838.74	212.43
839.05	212.47
839.37	212.43
839.68	212.21
840.00	212.23
840.31	212.35
840.63	212.32
840.94	212.30
841.26	212.27
841.57	212.32
841.88	212.32
842.20	212.31
842.51	212.27
842.83	212.32
843.14	212.64
843.46	212.72
843.77	212.58
844.08	212.60
844.40	212.42
844.71	212.34
845.03	212.35
845.34	212.28
845.65	212.19
845.97	212.12
846.28	212.09
846.60	212.13
846.91	211.97
847.22	212.03
847.54	212.03
847.85	212.03
848.16	211.93
848.48	211.83
848.79	211.88
849.10	211.92
849.42	211.85
849.73	211.55
850.04	211.50
850.36	211.31
850.67	211.36
850.98	211.42
851.30	211.51
851.61	211.52
851.92	211.59
852.23	211.79
852.55	211.89
852.86	211.87
853.17	211.90
853.49	212.01
853.80	212.01
854.11	212.03
854.42	212.14
854.74	212.16
855.05	212.21
855.36	212.06
855.67	212.10
855.99	212.11
856.30	212.51
856.61	212.49
856.92	212.49
857.23	212.50
857.55	212.48
857.86	212.40
858.17	212.43
858.48	212.36
858.79	212.18
859.11	212.22
859.42	212.22
859.73	212.15
860.04	212.12
860.35	212.00
860.66	211.95
860.98	211.85
861.29	211.89
861.60	211.90
861.91	212.03
862.22	211.98
862.53	211.92
862.84	211.53
863.16	211.57
863.47	211.57
863.78	211.51
864.09	211.53
864.40	211.51
864.71	211.49
865.02	211.53
865.33	211.52
865.64	211.45
865.95	211.51
866.27	211.77
866.58	211.68
866.89	211.78
867.20	211.75
867.51	211.77
867.82	211.70
868.13	211.80
868.44	211.78
868.75	211.85
869.06	211.96
869.37	212.00
869.68	211.95
869.99	212.02
870.30	211.99
870.61	212.04
870.92	212.07
871.23	212.01
871.54	212.01
871.85	212.09
872.16	212.12
872.47	212.07
872.78	211.81
873.09	211.86
873.40	211.84
873.71	211.87
874.02	211.88
874.33	211.88
874.64	211.82
874.95	211.87
875.26	211.78
875.56	211.66
875.87	211.64
876.18	211.60
876.49	211.87
876.80	211.87
877.11	211.79
877.42	211.74
877.73	211.77
878.04	211.70
878.35	211.70
878.66	211.64
878.96	211.62
879.27	211.57
879.58	211.56
879.89	211.51
880.20	211.58
880.51	211.55
880.82	211.48
881.12	211.45
881.43	211.39
881.74	211.32
882.05	211.44
882.36	211.46
882.67	211.47
882.97	211.19
883.28	211.15
883.59	211.14
883.90	211.17
884.21	211.29
884.51	211.32
884.82	211.22
885.13	211.27
885.44	211.32
885.74	211.39
886.05	211.40
886.36	211.40
886.67	211.27
886.98	211.47
887.28	211.56
887.59	211.53
887.90	211.47
888.20	211.53
888.51	211.55
888.82	211.50
889.13	211.57
889.43	211.77
889.74	211.84
890.05	211.81
890.35	211.76
890.66	211.60
890.97	211.59
891.28	211.66
891.58	211.68
891.89	211.65
892.20	211.58
892.50	211.51
892.81	211.50
893.12	211.47
893.42	211.30
893.73	211.32
894.04	211.35
894.34	211.44
894.65	211.42
894.95	211.30
895.26	211.29
895.57	211.38
895.87	211.12
896.18	211.08
896.48	211.11
896.79	211.11
897.10	211.24
897.40	211.25
897.71	211.28
898.01	211.25
898.32	211.25
898.63	211.25
898.93	211.25
899.24	211.27
899.54	211.28
899.85	211.28
900.15	211.26
900.46	211.30
900.76	211.28
901.07	211.21
901.38	211.17
901.68	211.29
901.99	211.17
902.29	211.17
902.60	211.17
902.90	211.16
903.21	211.15
903.51	211.05
903.82	211.06
904.12	211.02
904.43	211.03
904.73	211.07
905.03	211.12
905.34	211.46
905.64	211.42
905.95	211.49
906.25	211.50
906.56	211.49
906.86	211.42
907.17	211.40
907.47	211.48
907.77	211.49
908.08	211.30
908.38	211.32
908.69	211.36
908.99	211.40
909.30	211.40
909.60	211.35
909.90	211.42
910.21	211.42
910.51	211.32
910.81	211.27
911.12	211.30
911.42	211.26
911.73	210.98
912.03	211.06
912.33	211.16
912.64	211.11
912.94	211.08
913.24	211.04
913.55	211.05
913.85	210.99
914.15	211.08
914.46	211.21
914.76	211.17
915.06	211.10
915.37	211.00
915.67	210.96
915.97	211.01
916.27	210.90
916.58	210.85
916.88	210.91
917.18	210.98
917.49	211.12
917.79	211.11
918.09	211.13
918.39	211.14
918.70	211.01
919.00	210.95
919.30	211.08
919.60	211.05
919.91	211.04
920.21	211.08
920.51	211.01
920.81	210.96
921.12	211.03
921.42	211.07
921.72	211.18
922.02	211.24
922.32	211.26
922.63	211.32
922.93	211.49
923.23	211.47
923.53	211.36
923.83	211.18
924.13	211.20
924.44	211.20
924.74	211.28
925.04	211.41
925.34	211.45
925.64	211.37
925.94	211.38
926.24	211.51
926.55	211.47
926.85	211.49
927.15	211.52
927.45	211.50
927.75	211.45
928.05	211.40
928.35	211.37
928.65	211.44
928.95	211.45
929.26	211.35
929.56	211.42
929.86	211.47
930.16	211.43
930.46	211.42
930.76	211.41
931.06	211.19
931.36	211.11
931.66	211.18
931.96	211.26
932.26	211.33
932.56	211.15
932.86	211.14
933.16	211.16
933.46	211.06
933.76	211.02
934.06	211.14
934.36	211.33
934.66	211.30
934.96	211.23
935.26	211.28
935.56	211.30
935.86	211.24
936.16	211.24
936.46	211.25
936.76	211.27
937.06	211.18
937.36	211.19
937.66	211.24
937.96	211.18
938.26	211.05
938.56	210.98
938.86	211.05
939.16	211.17
939.46	211.15
939.76	211.16
940.06	211.16
940.35	211.10
940.65	210.90
940.95	210.93
941.25	210.91
941.55	210.86
941.85	210.83
942.15	210.90
942.45	210.92
942.75	210.86
943.04	210.92
943.34	211.02
943.64	211.05
943.94	210.95
944.24	210.96
944.54	210.96
944.84	211.00
945.13	210.99
945.43	210.87
945.73	210.83
946.03	210.84
946.33	210.81
946.62	210.72
946.92	210.68
947.22	210.75
947.52	210.76
947.82	210.74
948.11	210.65
948.41	210.58
948.71	210.54
949.01	210.56
949.31	210.48
949.60	210.40
949.90	210.42
950.20	210.39
950.50	210.37
950.79	210.39
951.09	210.42
951.39	210.40
951.69	210.41
951.98	210.53
952.28	210.54
952.58	210.53
952.87	210.55
953.17	210.61
953.47	210.57
953.76	210.50
954.06	210.47
954.36	210.47
954.66	210.49
954.95	210.53
955.25	210.55
955.55	210.55
955.84	210.50
956.14	210.56
956.44	210.61
956.73	210.56
957.03	210.52
957.32	210.54
957.62	210.56
957.92	210.55
958.21	210.50
958.51	210.93
958.81	211.01
959.10	211.05
959.40	211.18
959.69	211.17
959.99	211.30
960.29	211.36
960.58	211.40
960.88	211.57
961.17	211.59
961.47	211.68
961.76	211.69
962.06	211.73
962.36	211.73
962.65	211.74
962.95	211.77
963.24	211.81
963.54	211.80
963.83	211.77
964.13	211.79
964.42	211.73
964.72	211.46
965.01	211.37
965.31	211.35
965.60	211.28
965.90	211.52
966.19	211.41
966.49	211.38
966.78	211.39
967.08	211.33
967.37	211.27
967.67	211.16
967.96	211.14
968.26	211.16
968.55	211.18
968.85	211.14
969.14	211.17
969.43	211.18
969.73	211.08
970.02	211.10
970.32	211.13
970.61	211.19
970.91	211.13
971.20	211.11
971.49	211.09
971.79	211.13
972.08	210.89
972.38	210.97
972.67	210.99
972.96	211.03
973.26	210.90
973.55	211.09
973.85	211.10
974.14	211.11
974.43	211.16
974.73	211.07
975.02	211.07
975.31	211.01
975.61	210.99
975.90	210.96
976.19	210.95
976.49	210.99
976.78	210.94
977.07	210.88
977.37	210.94
977.66	210.98
977.95	210.85
978.24	210.90
978.54	210.92
978.83	210.89
979.12	210.80
979.42	210.84
979.71	210.73
980.00	210.72
980.29	210.73
980.59	210.65
980.88	210.80
981.17	210.80
981.46	210.85
981.76	210.80
982.05	211.03
982.34	211.05
982.63	211.07
982.93	211.11
983.22	211.15
983.51	211.21
983.80	211.25
984.09	211.30
984.39	211.25
984.68	211.18
984.97	211.16
985.26	211.20
985.55	211.24
985.85	211.12
986.14	211.13
986.43	211.20
986.72	211.23
987.01	211.05
987.30	211.01
987.59	211.05
987.89	211.08
988.18	210.93
988.47	210.89
988.76	210.78
989.05	210.83
989.34	210.81
989.63	210.79
989.92	210.75
990.22	210.71
990.51	210.68
990.80	210.66
991.09	210.65
991.38	210.70
991.67	210.65
991.96	210.69
992.25	210.75
992.54	210.69
992.83	210.69
993.12	210.71
993.41	210.78
993.70	210.80
993.99	210.86
994.28	210.92
994.58	210.96
994.87	210.97
995.16	210.86
995.45	210.82
995.74	210.73
996.03	210.76
996.32	210.88
996.61	210.99
996.90	211.00
997.19	211.12
997.48	211.15
997.77	211.13
998.06	211.11
998.34	211.12
998.63	211.15
998.92	211.15
999.21	211.23
999.50	211.22
999.79	211.23
1000.08	211.25
1000.37	211.26
1000.66	211.18
1000.95	211.31
1001.24	211.38
1001.53	211.48
1001.82	211.46
1002.11	211.37
1002.40	211.35
1002.68	211.36
1002.97	211.66
1003.26	211.53
1003.55	211.41
1003.84	211.39
1004.13	211.53
1004.42	211.44
1004.71	211.40
1004.99	211.40
1005.28	211.47
1005.57	211.46
1005.86	211.38
1006.15	211.34
1006.44	211.26
1006.72	211.40
1007.01	211.33
1007.30	211.30
1007.59	211.27
1007.88	211.30
1008.17	211.33
1008.45	211.26
1008.74	211.15
1009.03	210.87
1009.32	210.93
1009.60	210.98
1009.89	210.97
1010.18	210.80
1010.47	210.84
1010.76	210.86
1011.04	210.85
1011.33	210.85
1011.62	210.85
1011.91	210.88
1012.19	210.93
1012.48	210.93
1012.77	210.83
1013.05	211.00
1013.34	211.03
1013.63	210.98
1013.92	210.94
1014.20	210.91
1014.49	210.93
1014.78	210.91
1015.06	210.85
1015.35	210.86
1015.64	210.87
1015.92	210.88
1016.21	210.90
1016.50	210.88
1016.78	210.89
1017.07	210.92
1017.36	210.86
1017.64	210.82
1017.93	210.81
1018.22	210.75
1018.50	210.71
1018.79	210.74
1019.08	210.55
1019.36	210.50
1019.65	210.47
1019.93	210.60
1020.22	210.70
1020.51	210.86
1020.79	210.83
1021.08	210.60
1021.36	209.55
1021.65	211.10
1021.94	211.05
1022.22	209.90
1022.51	210.15
1022.79	212.60
1023.08	212.20
1023.36	214.40
1023.65	209.05
>>>>>End Processed Spectral Data<<<<<
