SpectraSuite Data File
++++++++++++++++++++++++++++++++++++
Date: Mon Feb 25 17:12:11 EST 2013
User: group
Dark Spectrum Present: No
Reference Spectrum Present: No
Number of Sampled Component Spectra: 1
Spectrometers: USB2E7196
Integration Time (usec): 104000 (USB2E7196)
Spectra Averaged: 20 (USB2E7196)
Boxcar Smoothing: 10 (USB2E7196)
Correct for Electrical Dark: No (USB2E7196)
Strobe/Lamp Enabled: No (USB2E7196)
Correct for Detector Non-linearity: No (USB2E7196)
Correct for Stray Light: No (USB2E7196)
Number of Pixels in Processed Spectrum: 2048
>>>>>Begin Processed Spectral Data<<<<<
339.09	0.00
339.48	197.95
339.86	199.85
340.24	201.70
340.63	203.05
341.01	210.20
341.39	206.80
341.78	207.10
342.16	208.90
342.54	210.05
342.93	198.51
343.31	208.52
343.69	209.13
344.07	209.60
344.46	210.12
344.84	210.48
345.22	210.50
345.60	210.71
345.99	210.93
346.37	211.03
346.75	211.06
347.13	211.10
347.52	211.21
347.90	211.28
348.28	211.24
348.66	211.36
349.05	211.29
349.43	211.24
349.81	211.29
350.19	211.31
350.57	211.40
350.96	211.41
351.34	211.54
351.72	211.57
352.10	211.66
352.48	211.67
352.87	211.72
353.25	211.78
353.63	211.82
354.01	211.81
354.39	211.95
354.77	212.04
355.15	212.23
355.54	212.25
355.92	212.17
356.30	212.27
356.68	212.48
357.06	212.59
357.44	212.69
357.82	212.78
358.20	212.83
358.58	212.88
358.97	212.99
359.35	213.08
359.73	213.27
360.11	213.31
360.49	213.30
360.87	213.35
361.25	213.42
361.63	213.56
362.01	213.69
362.39	213.67
362.77	213.75
363.15	213.61
363.53	213.61
363.91	213.69
364.29	213.70
364.67	213.39
365.05	213.34
365.43	213.36
365.81	213.39
366.19	213.52
366.57	213.67
366.95	213.64
367.33	213.51
367.71	213.45
368.09	213.53
368.47	213.56
368.85	213.55
369.23	213.61
369.61	213.46
369.99	213.55
370.37	213.61
370.75	213.70
371.13	213.67
371.51	213.59
371.89	213.64
372.27	213.64
372.65	213.69
373.03	213.75
373.41	213.68
373.78	213.58
374.16	213.38
374.54	213.19
374.92	213.19
375.30	213.27
375.68	213.15
376.06	213.12
376.44	213.09
376.82	213.08
377.19	212.99
377.57	212.94
377.95	212.69
378.33	212.56
378.71	212.37
379.09	212.44
379.47	212.47
379.84	212.36
380.22	212.26
380.60	212.13
380.98	212.00
381.36	211.96
381.73	211.77
382.11	211.86
382.49	211.87
382.87	211.72
383.25	211.57
383.62	211.91
384.00	211.83
384.38	211.78
384.76	211.76
385.13	211.80
385.51	211.79
385.89	211.81
386.27	211.84
386.64	211.80
387.02	211.78
387.40	211.70
387.78	211.70
388.15	211.72
388.53	211.68
388.91	211.68
389.29	211.63
389.66	211.83
390.04	211.67
390.42	211.67
390.79	211.73
391.17	211.73
391.55	211.40
391.92	211.38
392.30	211.33
392.68	211.25
393.05	211.23
393.43	211.30
393.81	211.22
394.18	211.05
394.56	211.07
394.94	211.06
395.31	211.08
395.69	211.12
396.06	211.21
396.44	211.25
396.82	211.20
397.19	211.41
397.57	211.27
397.95	211.43
398.32	211.31
398.70	211.37
399.07	211.45
399.45	211.39
399.82	211.37
400.20	211.41
400.58	211.41
400.95	211.28
401.33	211.35
401.70	211.68
402.08	211.72
402.45	211.77
402.83	211.90
403.20	211.95
403.58	211.94
403.95	211.96
404.33	212.04
404.71	212.13
405.08	212.31
405.46	212.46
405.83	212.53
406.21	212.74
406.58	212.88
406.96	213.01
407.33	213.21
407.70	213.41
408.08	213.85
408.45	214.08
408.83	214.42
409.20	214.48
409.58	214.45
409.95	214.75
410.33	214.91
410.70	214.97
411.08	215.21
411.45	215.45
411.82	215.66
412.20	216.04
412.57	216.52
412.95	216.54
413.32	216.96
413.69	217.28
414.07	217.64
414.44	218.00
414.82	218.45
415.19	218.85
415.56	219.34
415.94	219.64
416.31	220.26
416.68	220.82
417.06	221.62
417.43	222.42
417.81	223.21
418.18	224.10
418.55	225.07
418.93	226.00
419.30	226.95
419.67	227.97
420.04	228.92
420.42	229.99
420.79	231.51
421.16	232.67
421.54	234.12
421.91	235.45
422.28	236.82
422.66	238.24
423.03	239.96
423.40	241.43
423.77	243.04
424.15	244.63
424.52	246.34
424.89	248.15
425.26	249.82
425.64	251.50
426.01	253.27
426.38	255.23
426.75	257.30
427.13	259.35
427.50	261.48
427.87	263.66
428.24	265.71
428.61	267.64
428.99	270.10
429.36	272.41
429.73	274.91
430.10	277.43
430.47	279.95
430.85	282.34
431.22	285.11
431.59	288.32
431.96	291.07
432.33	294.16
432.70	297.23
433.08	300.71
433.45	304.14
433.82	307.46
434.19	311.00
434.56	314.60
434.93	318.05
435.30	321.51
435.68	325.38
436.05	329.27
436.42	332.90
436.79	336.32
437.16	340.09
437.53	343.93
437.90	347.80
438.27	351.75
438.64	355.73
439.01	359.44
439.38	362.39
439.75	365.58
440.13	369.01
440.50	372.29
440.87	375.02
441.24	377.80
441.61	380.91
441.98	383.30
442.35	385.96
442.72	388.67
443.09	391.49
443.46	393.11
443.83	394.09
444.20	395.18
444.57	396.54
444.94	397.05
445.31	397.73
445.68	398.71
446.05	398.79
446.42	398.33
446.79	397.97
447.16	397.54
447.53	397.20
447.90	395.89
448.27	394.31
448.64	392.31
449.01	390.73
449.37	388.21
449.74	385.76
450.11	383.04
450.48	379.86
450.85	376.40
451.22	373.49
451.59	370.83
451.96	368.23
452.33	364.75
452.70	361.72
453.07	358.01
453.43	353.88
453.80	350.34
454.17	346.90
454.54	343.50
454.91	339.93
455.28	336.44
455.65	333.29
456.02	330.68
456.38	327.95
456.75	324.65
457.12	321.79
457.49	318.92
457.86	315.96
458.23	313.70
458.59	311.15
458.96	308.59
459.33	306.26
459.70	303.91
460.07	302.08
460.43	300.11
460.80	298.22
461.17	296.52
461.54	294.69
461.91	293.01
462.27	291.30
462.64	289.82
463.01	288.30
463.38	286.75
463.74	284.67
464.11	283.36
464.48	282.18
464.85	280.89
465.21	280.05
465.58	278.99
465.95	277.58
466.32	276.62
466.68	275.50
467.05	274.54
467.42	273.50
467.78	272.38
468.15	271.25
468.52	270.51
468.88	269.44
469.25	268.50
469.62	267.77
469.98	266.97
470.35	266.27
470.72	265.59
471.08	264.80
471.45	264.34
471.82	263.75
472.18	263.04
472.55	262.55
472.92	261.92
473.28	261.43
473.65	260.95
474.02	260.43
474.38	260.25
474.75	259.92
475.11	259.57
475.48	259.35
475.85	259.16
476.21	258.86
476.58	258.82
476.94	258.77
477.31	258.70
477.67	258.60
478.04	258.56
478.41	258.55
478.77	258.82
479.14	258.66
479.50	258.67
479.87	258.86
480.23	259.04
480.60	259.06
480.96	259.19
481.33	259.49
481.69	259.65
482.06	259.81
482.42	260.01
482.79	260.49
483.15	260.84
483.52	261.25
483.88	261.69
484.25	262.08
484.61	262.51
484.98	263.01
485.34	263.71
485.71	264.37
486.07	265.02
486.44	265.46
486.80	266.25
487.17	267.06
487.53	267.96
487.90	268.89
488.26	270.08
488.62	271.23
488.99	272.30
489.35	273.47
489.72	274.64
490.08	275.91
490.44	277.08
490.81	278.49
491.17	279.95
491.54	281.54
491.90	283.20
492.26	284.95
492.63	286.75
492.99	288.53
493.36	290.34
493.72	292.44
494.08	294.55
494.45	296.92
494.81	299.38
495.17	301.81
495.54	304.45
495.90	306.91
496.26	309.59
496.63	312.48
496.99	315.52
497.35	318.56
497.72	321.93
498.08	325.17
498.44	328.61
498.80	332.33
499.17	336.00
499.53	339.77
499.89	343.87
500.26	348.00
500.62	352.16
500.98	356.82
501.34	361.31
501.71	366.08
502.07	370.78
502.43	375.61
502.79	380.49
503.16	385.63
503.52	390.95
503.88	396.34
504.24	402.05
504.60	407.82
504.97	413.84
505.33	419.84
505.69	426.47
506.05	433.11
506.41	439.60
506.78	446.24
507.14	453.05
507.50	459.97
507.86	466.90
508.22	474.28
508.59	481.33
508.95	489.05
509.31	496.81
509.67	504.76
510.03	512.86
510.39	521.29
510.75	529.55
511.12	538.25
511.48	547.07
511.84	555.71
512.20	564.64
512.56	573.80
512.92	583.02
513.28	592.11
513.64	601.29
514.00	610.73
514.37	620.25
514.73	630.05
515.09	639.78
515.45	649.69
515.81	659.46
516.17	669.65
516.53	679.69
516.89	689.89
517.25	700.03
517.61	710.30
517.97	720.47
518.33	730.93
518.69	741.27
519.05	751.88
519.41	762.65
519.77	773.57
520.13	784.08
520.49	794.48
520.85	805.28
521.21	816.15
521.57	827.13
521.93	837.73
522.29	848.75
522.65	859.75
523.01	870.89
523.37	881.64
523.73	892.41
524.09	903.18
524.45	914.00
524.81	924.97
525.17	935.75
525.53	946.95
525.89	958.01
526.25	968.91
526.61	979.22
526.97	989.69
527.33	1000.23
527.68	1011.15
528.04	1021.75
528.40	1031.75
528.76	1042.18
529.12	1052.66
529.48	1063.64
529.84	1074.02
530.20	1084.14
530.56	1094.35
530.91	1105.03
531.27	1115.70
531.63	1125.99
531.99	1136.06
532.35	1145.85
532.71	1155.57
533.07	1165.49
533.42	1175.22
533.78	1184.93
534.14	1194.55
534.50	1203.54
534.86	1212.67
535.21	1221.30
535.57	1230.65
535.93	1239.46
536.29	1248.31
536.65	1256.73
537.00	1264.70
537.36	1272.70
537.72	1280.70
538.08	1288.72
538.44	1296.59
538.79	1304.27
539.15	1311.95
539.51	1319.45
539.87	1327.35
540.22	1334.78
540.58	1342.13
540.94	1349.22
541.29	1355.86
541.65	1362.35
542.01	1369.23
542.37	1375.48
542.72	1381.66
543.08	1387.59
543.44	1394.32
543.79	1399.69
544.15	1405.06
544.51	1411.16
544.87	1416.95
545.22	1422.29
545.58	1426.96
545.94	1431.22
546.29	1435.17
546.65	1438.91
547.01	1443.03
547.36	1446.69
547.72	1450.70
548.07	1453.74
548.43	1456.60
548.79	1459.51
549.14	1462.59
549.50	1465.50
549.86	1467.98
550.21	1470.57
550.57	1473.20
550.92	1474.83
551.28	1476.83
551.64	1478.98
551.99	1480.85
552.35	1481.89
552.70	1483.35
553.06	1484.88
553.41	1486.52
553.77	1487.99
554.13	1489.15
554.48	1490.39
554.84	1491.70
555.19	1492.24
555.55	1492.95
555.90	1493.38
556.26	1493.80
556.61	1493.77
556.97	1493.74
557.32	1493.99
557.68	1493.85
558.03	1493.27
558.39	1493.23
558.74	1493.43
559.10	1493.25
559.45	1492.52
559.81	1492.64
560.16	1492.07
560.52	1491.56
560.87	1490.74
561.23	1489.83
561.58	1489.65
561.94	1488.40
562.29	1486.56
562.64	1485.45
563.00	1484.28
563.35	1483.63
563.71	1483.11
564.06	1482.57
564.42	1481.72
564.77	1480.77
565.12	1480.00
565.48	1479.30
565.83	1478.27
566.19	1477.35
566.54	1475.54
566.89	1473.86
567.25	1472.31
567.60	1470.77
567.96	1469.23
568.31	1467.80
568.66	1465.82
569.02	1463.39
569.37	1461.06
569.72	1459.18
570.08	1457.03
570.43	1454.74
570.78	1451.88
571.14	1448.67
571.49	1445.74
571.84	1443.12
572.20	1440.01
572.55	1437.08
572.90	1433.56
573.26	1430.19
573.61	1426.31
573.96	1423.25
574.31	1419.64
574.67	1415.59
575.02	1411.75
575.37	1407.76
575.72	1403.62
576.08	1400.32
576.43	1396.22
576.78	1392.69
577.13	1389.13
577.49	1385.35
577.84	1381.70
578.19	1378.20
578.54	1375.05
578.90	1371.74
579.25	1367.90
579.60	1363.81
579.95	1359.60
580.30	1356.08
580.66	1352.24
581.01	1348.23
581.36	1344.10
581.71	1340.28
582.06	1336.80
582.42	1333.10
582.77	1328.91
583.12	1325.06
583.47	1321.32
583.82	1317.82
584.17	1314.00
584.53	1310.54
584.88	1306.90
585.23	1302.90
585.58	1299.04
585.93	1294.71
586.28	1290.96
586.63	1287.03
586.98	1283.54
587.34	1280.13
587.69	1276.13
588.04	1272.49
588.39	1269.11
588.74	1264.95
589.09	1261.35
589.44	1257.23
589.79	1253.53
590.14	1250.05
590.49	1246.14
590.84	1242.04
591.19	1238.72
591.54	1234.88
591.89	1230.17
592.25	1226.22
592.60	1221.87
592.95	1217.58
593.30	1213.23
593.65	1208.49
594.00	1204.32
594.35	1201.26
594.70	1197.06
595.05	1193.11
595.40	1189.01
595.75	1184.44
596.10	1180.90
596.45	1176.97
596.80	1173.43
597.15	1169.58
597.50	1165.67
597.85	1161.86
598.19	1157.91
598.54	1153.92
598.89	1150.15
599.24	1146.96
599.59	1143.23
599.94	1140.10
600.29	1136.73
600.64	1133.29
600.99	1129.64
601.34	1126.19
601.69	1121.61
602.04	1117.83
602.39	1114.08
602.74	1110.57
603.08	1107.53
603.43	1104.56
603.78	1101.15
604.13	1097.45
604.48	1093.75
604.83	1090.64
605.18	1087.71
605.53	1084.19
605.87	1080.30
606.22	1076.77
606.57	1073.16
606.92	1069.35
607.27	1065.50
607.62	1061.80
607.96	1058.50
608.31	1055.41
608.66	1051.49
609.01	1047.72
609.36	1043.77
609.70	1039.95
610.05	1035.97
610.40	1031.79
610.75	1027.28
611.10	1023.49
611.44	1018.78
611.79	1014.53
612.14	1009.90
612.49	1005.18
612.83	1001.05
613.18	996.48
613.53	991.99
613.88	987.21
614.22	983.04
614.57	978.60
614.92	974.10
615.27	969.46
615.61	964.79
615.96	960.58
616.31	956.25
616.65	952.26
617.00	947.90
617.35	943.49
617.70	938.98
618.04	934.37
618.39	929.30
618.74	925.28
619.08	920.83
619.43	916.62
619.78	912.26
620.12	907.83
620.47	903.79
620.82	899.25
621.16	894.72
621.51	890.26
621.85	885.87
622.20	881.38
622.55	876.97
622.89	872.43
623.24	867.94
623.59	863.36
623.93	858.92
624.28	854.60
624.62	850.60
624.97	846.72
625.32	842.66
625.66	838.80
626.01	834.74
626.35	830.89
626.70	826.61
627.04	823.02
627.39	819.00
627.73	815.03
628.08	811.24
628.43	807.19
628.77	803.13
629.12	799.09
629.46	795.46
629.81	791.57
630.15	787.73
630.50	783.79
630.84	779.91
631.19	776.07
631.53	772.40
631.88	768.12
632.22	763.95
632.57	760.38
632.91	756.47
633.26	752.57
633.60	748.64
633.95	745.15
634.29	740.85
634.64	737.28
634.98	733.35
635.32	729.56
635.67	726.19
636.01	722.54
636.36	718.94
636.70	715.30
637.05	711.87
637.39	708.42
637.73	705.22
638.08	702.21
638.42	699.05
638.77	695.54
639.11	692.15
639.45	688.73
639.80	684.91
640.14	681.44
640.49	677.95
640.83	674.44
641.17	670.80
641.52	667.34
641.86	663.60
642.20	660.31
642.55	656.78
642.89	653.21
643.23	649.58
643.58	646.30
643.92	642.72
644.26	639.00
644.61	635.54
644.95	631.73
645.29	627.97
645.64	624.35
645.98	620.77
646.32	617.57
646.66	614.12
647.01	610.79
647.35	607.56
647.69	604.07
648.04	600.80
648.38	597.50
648.72	594.20
649.06	590.81
649.41	587.49
649.75	584.30
650.09	581.15
650.43	578.02
650.78	574.59
651.12	571.23
651.46	567.99
651.80	565.05
652.14	561.95
652.49	558.75
652.83	555.43
653.17	552.06
653.51	548.60
653.85	545.60
654.20	542.46
654.54	539.11
654.88	536.05
655.22	532.89
655.56	529.67
655.90	526.62
656.25	523.60
656.59	520.43
656.93	517.49
657.27	514.48
657.61	511.39
657.95	508.35
658.29	505.45
658.64	502.77
658.98	499.51
659.32	496.40
659.66	493.53
660.00	490.63
660.34	487.77
660.68	484.84
661.02	481.86
661.36	479.18
661.70	476.54
662.05	473.90
662.39	471.49
662.73	469.11
663.07	466.72
663.41	464.24
663.75	461.68
664.09	458.98
664.43	456.33
664.77	453.90
665.11	451.55
665.45	449.22
665.79	446.76
666.13	444.49
666.47	442.19
666.81	439.87
667.15	437.45
667.49	435.49
667.83	433.49
668.17	431.36
668.51	429.20
668.85	427.07
669.19	425.05
669.53	422.77
669.87	420.59
670.21	418.31
670.55	416.23
670.89	414.49
671.23	412.62
671.57	410.59
671.91	408.58
672.25	406.45
672.58	404.58
672.92	402.64
673.26	400.74
673.60	398.91
673.94	397.06
674.28	395.39
674.62	393.55
674.96	391.75
675.30	389.91
675.64	388.09
675.97	386.26
676.31	384.48
676.65	382.69
676.99	381.10
677.33	379.39
677.67	377.69
678.01	375.70
678.34	373.97
678.68	372.35
679.02	370.74
679.36	369.19
679.70	367.53
680.04	365.94
680.37	364.36
680.71	362.96
681.05	361.50
681.39	359.96
681.73	358.41
682.06	356.99
682.40	355.55
682.74	354.07
683.08	352.76
683.42	351.26
683.75	349.84
684.09	348.24
684.43	346.92
684.77	345.41
685.10	344.15
685.44	342.76
685.78	341.43
686.12	340.02
686.45	338.64
686.79	337.21
687.13	335.90
687.46	334.55
687.80	333.22
688.14	331.72
688.48	330.47
688.81	329.00
689.15	327.68
689.49	326.28
689.82	325.03
690.16	323.54
690.50	322.20
690.83	320.93
691.17	319.63
691.51	318.22
691.84	317.08
692.18	315.90
692.52	314.72
692.85	313.71
693.19	312.71
693.52	311.59
693.86	310.40
694.20	309.28
694.53	308.17
694.87	307.00
695.21	305.92
695.54	304.76
695.88	303.77
696.21	302.53
696.55	301.45
696.88	300.36
697.22	299.44
697.56	298.52
697.89	297.54
698.23	296.68
698.56	295.79
698.90	294.90
699.23	293.86
699.57	292.94
699.90	291.89
700.24	290.89
700.58	290.05
700.91	289.24
701.25	288.54
701.58	287.75
701.92	286.93
702.25	286.11
702.59	285.29
702.92	284.49
703.26	283.69
703.59	282.96
703.93	282.42
704.26	281.60
704.60	280.73
704.93	279.88
705.26	279.02
705.60	278.21
705.93	277.34
706.27	276.73
706.60	276.04
706.94	275.50
707.27	274.73
707.61	274.03
707.94	273.24
708.27	272.31
708.61	271.45
708.94	270.76
709.28	270.11
709.61	269.33
709.94	268.68
710.28	268.04
710.61	267.53
710.95	266.61
711.28	266.17
711.61	265.66
711.95	265.21
712.28	264.65
712.61	264.11
712.95	263.70
713.28	263.18
713.61	262.50
713.95	261.84
714.28	261.31
714.61	260.67
714.95	260.13
715.28	259.60
715.61	259.06
715.95	258.54
716.28	257.95
716.61	257.55
716.95	257.02
717.28	256.51
717.61	255.93
717.94	255.47
718.28	254.82
718.61	254.29
718.94	253.69
719.27	253.20
719.61	252.74
719.94	252.20
720.27	251.52
720.60	251.01
720.94	250.49
721.27	250.04
721.60	249.67
721.93	249.24
722.27	248.97
722.60	248.66
722.93	248.17
723.26	247.82
723.59	247.44
723.93	247.09
724.26	246.70
724.59	246.33
724.92	245.98
725.25	245.69
725.59	245.29
725.92	245.00
726.25	244.69
726.58	244.38
726.91	244.04
727.24	243.82
727.57	243.54
727.91	243.17
728.24	242.89
728.57	242.58
728.90	242.34
729.23	241.91
729.56	241.72
729.89	241.39
730.22	241.01
730.55	240.67
730.89	240.34
731.22	240.06
731.55	239.73
731.88	239.41
732.21	238.97
732.54	238.63
732.87	238.28
733.20	237.96
733.53	237.67
733.86	237.43
734.19	237.08
734.52	236.95
734.85	236.97
735.18	236.67
735.51	236.47
735.84	236.19
736.17	235.96
736.50	235.45
736.83	235.64
737.16	235.40
737.49	235.12
737.82	234.81
738.15	234.66
738.48	234.44
738.81	234.19
739.14	233.91
739.47	233.71
739.80	233.56
740.13	233.37
740.46	233.06
740.79	232.72
741.12	232.48
741.45	232.16
741.78	231.66
742.11	231.49
742.44	231.16
742.77	231.00
743.10	230.74
743.43	230.64
743.75	230.09
744.08	230.41
744.41	230.18
744.74	230.00
745.07	229.72
745.40	229.58
745.73	229.55
746.06	229.44
746.39	229.29
746.71	228.97
747.04	228.71
747.37	228.51
747.70	228.50
748.03	228.36
748.36	228.22
748.68	228.05
749.01	227.81
749.34	227.71
749.67	227.54
750.00	227.40
750.33	227.43
750.65	227.37
750.98	226.70
751.31	226.54
751.64	226.40
751.97	226.40
752.29	226.23
752.62	225.94
752.95	225.71
753.28	225.51
753.60	225.41
753.93	225.36
754.26	225.25
754.59	224.94
754.91	224.76
755.24	224.53
755.57	224.38
755.90	224.21
756.22	223.94
756.55	223.74
756.88	223.52
757.20	223.14
757.53	222.77
757.86	222.62
758.19	222.50
758.51	222.30
758.84	222.00
759.17	221.81
759.49	221.68
759.82	221.73
760.15	221.63
760.47	221.46
760.80	221.24
761.13	221.17
761.45	221.07
761.78	221.01
762.11	220.94
762.43	220.81
762.76	220.77
763.08	220.77
763.41	220.77
763.74	220.75
764.06	220.64
764.39	220.63
764.71	220.50
765.04	220.38
765.37	220.33
765.69	220.21
766.02	220.09
766.34	219.91
766.67	219.70
767.00	219.72
767.32	219.88
767.65	220.11
767.97	220.05
768.30	219.97
768.62	219.85
768.95	219.71
769.27	219.67
769.60	219.60
769.92	219.41
770.25	219.23
770.57	219.06
770.90	219.00
771.22	218.89
771.55	218.95
771.87	218.91
772.20	218.76
772.52	219.03
772.85	219.40
773.17	219.42
773.50	219.31
773.82	219.11
774.15	218.83
774.47	218.44
774.80	218.36
775.12	218.35
775.45	218.33
775.77	218.25
776.09	218.23
776.42	218.16
776.74	218.20
777.07	218.12
777.39	218.05
777.72	217.96
778.04	217.89
778.36	217.74
778.69	217.63
779.01	217.67
779.33	217.25
779.66	216.88
779.98	216.83
780.31	216.79
780.63	216.88
780.95	216.83
781.28	216.78
781.60	216.62
781.92	216.46
782.25	216.30
782.57	216.29
782.89	216.21
783.22	216.19
783.54	216.06
783.86	216.01
784.19	215.96
784.51	216.14
784.83	216.01
785.16	216.04
785.48	216.04
785.80	216.02
786.12	216.05
786.45	215.97
786.77	215.90
787.09	215.90
787.42	215.77
787.74	215.81
788.06	215.72
788.38	215.70
788.71	215.65
789.03	215.73
789.35	215.74
789.67	215.63
789.99	215.52
790.32	215.52
790.64	215.53
790.96	215.83
791.28	215.57
791.61	215.59
791.93	215.45
792.25	215.36
792.57	215.56
792.89	215.51
793.21	215.46
793.54	215.45
793.86	215.35
794.18	215.31
794.50	215.21
794.82	215.24
795.14	215.32
795.47	215.30
795.79	215.26
796.11	215.11
796.43	215.04
796.75	215.04
797.07	214.99
797.39	214.97
797.71	214.64
798.04	214.61
798.36	214.55
798.68	214.60
799.00	214.69
799.32	214.46
799.64	214.52
799.96	214.50
800.28	214.60
800.60	214.56
800.92	214.58
801.24	214.50
801.56	214.49
801.89	214.45
802.21	214.50
802.53	214.42
802.85	214.48
803.17	214.71
803.49	214.65
803.81	214.58
804.13	214.50
804.45	214.50
804.77	214.49
805.09	214.53
805.41	214.45
805.73	214.34
806.05	214.19
806.37	214.12
806.69	214.05
807.01	213.95
807.33	213.95
807.65	213.76
807.97	213.90
808.28	213.79
808.60	213.67
808.92	213.49
809.24	213.64
809.56	213.63
809.88	213.43
810.20	213.49
810.52	213.60
810.84	213.56
811.16	213.40
811.48	213.42
811.80	213.46
812.12	213.46
812.43	213.49
812.75	213.54
813.07	213.45
813.39	213.45
813.71	213.33
814.03	213.24
814.35	213.25
814.67	213.09
814.98	213.16
815.30	213.23
815.62	213.29
815.94	213.02
816.26	212.95
816.58	212.92
816.89	212.84
817.21	212.70
817.53	212.75
817.85	212.87
818.17	212.82
818.48	212.68
818.80	212.73
819.12	212.63
819.44	212.57
819.76	212.53
820.07	212.52
820.39	212.50
820.71	212.66
821.03	212.66
821.34	212.66
821.66	212.52
821.98	212.47
822.30	212.42
822.61	212.65
822.93	212.65
823.25	212.56
823.57	212.58
823.88	212.72
824.20	212.65
824.52	212.66
824.83	212.62
825.15	212.62
825.47	212.58
825.79	212.62
826.10	212.65
826.42	212.60
826.74	212.62
827.05	212.63
827.37	212.52
827.69	212.41
828.00	212.41
828.32	212.50
828.64	212.49
828.95	212.68
829.27	212.57
829.58	212.54
829.90	212.63
830.22	212.57
830.53	212.39
830.85	212.34
831.17	212.21
831.48	212.25
831.80	212.23
832.11	212.09
832.43	212.07
832.75	212.00
833.06	212.22
833.38	212.08
833.69	212.01
834.01	212.00
834.32	212.13
834.64	212.11
834.96	212.07
835.27	212.08
835.59	211.96
835.90	211.88
836.22	211.87
836.53	211.83
836.85	211.85
837.16	212.22
837.48	212.23
837.79	212.42
838.11	212.42
838.42	212.41
838.74	212.54
839.05	212.45
839.37	212.47
839.68	212.25
840.00	212.27
840.31	212.39
840.63	212.42
840.94	212.41
841.26	212.39
841.57	212.39
841.88	212.39
842.20	212.31
842.51	212.34
842.83	212.30
843.14	212.60
843.46	212.51
843.77	212.34
844.08	212.37
844.40	212.15
844.71	212.12
845.03	212.12
845.34	212.11
845.65	212.16
845.97	212.13
846.28	212.17
846.60	212.18
846.91	212.11
847.22	212.09
847.54	212.13
847.85	212.09
848.16	212.06
848.48	212.06
848.79	212.30
849.10	212.29
849.42	212.30
849.73	211.95
850.04	212.02
850.36	211.84
850.67	211.94
850.98	211.95
851.30	212.00
851.61	212.00
851.92	211.98
852.23	212.01
852.55	212.05
852.86	212.09
853.17	212.11
853.49	212.16
853.80	212.17
854.11	212.20
854.42	212.28
854.74	212.21
855.05	212.15
855.36	211.91
855.67	211.93
855.99	211.95
856.30	212.40
856.61	212.39
856.92	212.39
857.23	212.30
857.55	212.34
857.86	212.26
858.17	212.26
858.48	212.18
858.79	212.16
859.11	212.12
859.42	212.10
859.73	212.03
860.04	212.04
860.35	211.96
860.66	211.82
860.98	211.81
861.29	211.86
861.60	211.86
861.91	211.93
862.22	211.89
862.53	211.85
862.84	211.39
863.16	211.48
863.47	211.50
863.78	211.48
864.09	211.47
864.40	211.49
864.71	211.53
865.02	211.66
865.33	211.56
865.64	211.50
865.95	211.47
866.27	211.74
866.58	211.70
866.89	211.73
867.20	211.77
867.51	211.70
867.82	211.65
868.13	211.71
868.44	211.61
868.75	211.66
869.06	211.58
869.37	211.60
869.68	211.46
869.99	211.54
870.30	211.52
870.61	211.49
870.92	211.39
871.23	211.31
871.54	211.19
871.85	211.34
872.16	211.43
872.47	211.41
872.78	211.15
873.09	211.21
873.40	211.14
873.71	211.06
874.02	211.10
874.33	211.13
874.64	211.03
874.95	211.07
875.26	211.03
875.56	211.12
875.87	211.10
876.18	211.07
876.49	211.30
876.80	211.30
877.11	211.30
877.42	211.41
877.73	211.49
878.04	211.53
878.35	211.52
878.66	211.60
878.96	211.56
879.27	211.54
879.58	211.51
879.89	211.52
880.20	211.70
880.51	211.65
880.82	211.64
881.12	211.72
881.43	211.68
881.74	211.61
882.05	211.54
882.36	211.60
882.67	211.61
882.97	211.27
883.28	211.25
883.59	211.25
883.90	211.25
884.21	211.17
884.51	211.18
884.82	211.12
885.13	211.02
885.44	211.03
885.74	211.02
886.05	210.98
886.36	211.02
886.67	210.90
886.98	211.12
887.28	211.18
887.59	211.20
887.90	211.25
888.20	211.31
888.51	211.42
888.82	211.40
889.13	211.50
889.43	211.80
889.74	211.75
890.05	211.76
890.35	211.74
890.66	211.74
890.97	211.69
891.28	211.65
891.58	211.64
891.89	211.68
892.20	211.64
892.50	211.63
892.81	211.61
893.12	211.61
893.42	211.46
893.73	211.40
894.04	211.33
894.34	211.30
894.65	211.31
894.95	211.28
895.26	211.33
895.57	211.48
895.87	211.10
896.18	211.19
896.48	211.18
896.79	211.13
897.10	211.25
897.40	211.23
897.71	211.28
898.01	211.29
898.32	211.34
898.63	211.39
898.93	211.44
899.24	211.45
899.54	211.48
899.85	211.42
900.15	211.51
900.46	211.51
900.76	211.56
901.07	211.53
901.38	211.50
901.68	211.53
901.99	211.31
902.29	211.36
902.60	211.35
902.90	211.32
903.21	211.37
903.51	211.34
903.82	211.43
904.12	211.42
904.43	211.46
904.73	211.43
905.03	211.46
905.34	211.76
905.64	211.75
905.95	211.72
906.25	211.68
906.56	211.61
906.86	211.64
907.17	211.61
907.47	211.65
907.77	211.62
908.08	211.54
908.38	211.53
908.69	211.62
908.99	211.64
909.30	211.60
909.60	211.55
909.90	211.62
910.21	211.53
910.51	211.43
910.81	211.44
911.12	211.49
911.42	211.41
911.73	211.06
912.03	211.03
912.33	211.14
912.64	211.16
912.94	211.17
913.24	211.13
913.55	211.10
913.85	211.05
914.15	211.10
914.46	211.13
914.76	211.14
915.06	211.15
915.37	211.13
915.67	211.17
915.97	211.19
916.27	211.04
916.58	211.08
916.88	211.08
917.18	211.04
917.49	211.21
917.79	211.28
918.09	211.32
918.39	211.48
918.70	211.38
919.00	211.39
919.30	211.49
919.60	211.48
919.91	211.49
920.21	211.49
920.51	211.41
920.81	211.46
921.12	211.46
921.42	211.38
921.72	211.43
922.02	211.43
922.32	211.51
922.63	211.52
922.93	211.68
923.23	211.67
923.53	211.61
923.83	211.40
924.13	211.39
924.44	211.41
924.74	211.39
925.04	211.55
925.34	211.58
925.64	211.47
925.94	211.46
926.24	211.61
926.55	211.55
926.85	211.67
927.15	211.69
927.45	211.75
927.75	211.67
928.05	211.68
928.35	211.70
928.65	211.74
928.95	211.78
929.26	211.62
929.56	211.75
929.86	211.83
930.16	211.83
930.46	211.86
930.76	211.82
931.06	211.64
931.36	211.45
931.66	211.51
931.96	211.57
932.26	211.61
932.56	211.46
932.86	211.55
933.16	211.49
933.46	211.39
933.76	211.30
934.06	211.48
934.36	211.60
934.66	211.56
934.96	211.54
935.26	211.55
935.56	211.67
935.86	211.60
936.16	211.52
936.46	211.50
936.76	211.50
937.06	211.47
937.36	211.54
937.66	211.55
937.96	211.52
938.26	211.47
938.56	211.40
938.86	211.43
939.16	211.41
939.46	211.41
939.76	211.45
940.06	211.54
940.35	211.43
940.65	211.20
940.95	211.27
941.25	211.16
941.55	211.11
941.85	211.03
942.15	211.09
942.45	211.20
942.75	211.24
943.04	211.21
943.34	211.34
943.64	211.35
943.94	211.30
944.24	211.26
944.54	211.20
944.84	211.18
945.13	211.19
945.43	211.20
945.73	211.25
946.03	211.17
946.33	211.08
946.62	211.08
946.92	211.11
947.22	211.11
947.52	211.12
947.82	211.18
948.11	211.20
948.41	211.10
948.71	210.99
949.01	210.95
949.31	210.92
949.60	210.85
949.90	210.89
950.20	210.91
950.50	210.89
950.79	210.88
951.09	211.00
951.39	210.94
951.69	210.87
951.98	210.87
952.28	210.90
952.58	210.98
952.87	210.97
953.17	211.03
953.47	210.96
953.76	211.00
954.06	210.92
954.36	210.82
954.66	210.80
954.95	210.86
955.25	210.91
955.55	210.91
955.84	210.85
956.14	210.81
956.44	210.80
956.73	210.81
957.03	210.80
957.32	210.75
957.62	210.80
957.92	210.95
958.21	210.92
958.51	211.31
958.81	211.26
959.10	211.27
959.40	211.35
959.69	211.46
959.99	211.45
960.29	211.47
960.58	211.49
960.88	211.66
961.17	211.66
961.47	211.67
961.76	211.73
962.06	211.82
962.36	211.75
962.65	211.78
962.95	211.79
963.24	211.82
963.54	211.80
963.83	211.81
964.13	211.75
964.42	211.65
964.72	211.36
965.01	211.35
965.31	211.35
965.60	211.25
965.90	211.38
966.19	211.36
966.49	211.41
966.78	211.38
967.08	211.38
967.37	211.33
967.67	211.25
967.96	211.30
968.26	211.22
968.55	211.29
968.85	211.24
969.14	211.28
969.43	211.27
969.73	211.25
970.02	211.17
970.32	211.13
970.61	211.18
970.91	211.07
971.20	211.04
971.49	210.99
971.79	211.02
972.08	210.77
972.38	210.81
972.67	210.75
972.96	210.78
973.26	210.69
973.55	210.79
973.85	210.80
974.14	210.77
974.43	210.82
974.73	210.80
975.02	210.82
975.31	210.78
975.61	210.78
975.90	210.78
976.19	210.76
976.49	210.82
976.78	210.83
977.07	210.78
977.37	210.82
977.66	210.93
977.95	210.85
978.24	210.94
978.54	210.98
978.83	210.90
979.12	210.89
979.42	210.92
979.71	210.84
980.00	210.84
980.29	210.83
980.59	210.78
980.88	210.90
981.17	210.90
981.46	210.94
981.76	210.95
982.05	211.10
982.34	211.20
982.63	211.09
982.93	211.14
983.22	211.38
983.51	211.37
983.80	211.37
984.09	211.43
984.39	211.35
984.68	211.30
984.97	211.42
985.26	211.47
985.55	211.48
985.85	211.42
986.14	211.52
986.43	211.59
986.72	211.55
987.01	211.44
987.30	211.42
987.59	211.40
987.89	211.36
988.18	211.20
988.47	211.18
988.76	211.18
989.05	211.17
989.34	211.06
989.63	211.18
989.92	211.17
990.22	211.15
990.51	211.20
990.80	211.18
991.09	211.18
991.38	211.15
991.67	211.12
991.96	211.10
992.25	211.07
992.54	210.99
992.83	211.00
993.12	210.98
993.41	211.03
993.70	211.17
993.99	211.25
994.28	211.35
994.58	211.43
994.87	211.48
995.16	211.42
995.45	211.39
995.74	211.21
996.03	211.18
996.32	211.30
996.61	211.42
996.90	211.40
997.19	211.39
997.48	211.42
997.77	211.43
998.06	211.45
998.34	211.38
998.63	211.35
998.92	211.44
999.21	211.50
999.50	211.52
999.79	211.49
1000.08	211.48
1000.37	211.51
1000.66	211.37
1000.95	211.40
1001.24	211.40
1001.53	211.46
1001.82	211.47
1002.11	211.40
1002.40	211.38
1002.68	211.33
1002.97	211.59
1003.26	211.53
1003.55	211.51
1003.84	211.53
1004.13	211.66
1004.42	211.66
1004.71	211.65
1004.99	211.57
1005.28	211.65
1005.57	211.64
1005.86	211.51
1006.15	211.51
1006.44	211.42
1006.72	211.47
1007.01	211.36
1007.30	211.42
1007.59	211.33
1007.88	211.34
1008.17	211.40
1008.45	211.26
1008.74	211.15
1009.03	211.00
1009.32	211.04
1009.60	211.06
1009.89	211.03
1010.18	210.90
1010.47	210.87
1010.76	210.92
1011.04	210.90
1011.33	210.87
1011.62	210.84
1011.91	210.85
1012.19	210.86
1012.48	210.87
1012.77	210.90
1013.05	211.07
1013.34	211.10
1013.63	211.13
1013.92	211.15
1014.20	211.13
1014.49	211.22
1014.78	211.24
1015.06	211.08
1015.35	211.03
1015.64	211.03
1015.92	211.05
1016.21	211.06
1016.50	211.10
1016.78	211.10
1017.07	211.16
1017.36	211.10
1017.64	211.08
1017.93	211.16
1018.22	211.16
1018.50	211.15
1018.79	211.10
1019.08	211.02
1019.36	210.99
1019.65	210.93
1019.93	211.08
1020.22	211.16
1020.51	211.22
1020.79	211.20
1021.08	211.45
1021.36	210.45
1021.65	210.30
1021.94	211.60
1022.22	211.50
1022.51	210.10
1022.79	213.85
1023.08	211.85
1023.36	213.55
1023.65	210.00
>>>>>End Processed Spectral Data<<<<<
