SpectraSuite Data File
++++++++++++++++++++++++++++++++++++
Date: Mon Feb 25 17:02:04 EST 2013
User: group
Dark Spectrum Present: No
Reference Spectrum Present: No
Number of Sampled Component Spectra: 1
Spectrometers: USB2E7196
Integration Time (usec): 104000 (USB2E7196)
Spectra Averaged: 20 (USB2E7196)
Boxcar Smoothing: 10 (USB2E7196)
Correct for Electrical Dark: No (USB2E7196)
Strobe/Lamp Enabled: No (USB2E7196)
Correct for Detector Non-linearity: No (USB2E7196)
Correct for Stray Light: No (USB2E7196)
Number of Pixels in Processed Spectrum: 2048
>>>>>Begin Processed Spectral Data<<<<<
339.09	0.00
339.48	198.25
339.86	199.45
340.24	200.20
340.63	202.15
341.01	208.90
341.39	204.90
341.78	206.65
342.16	209.70
342.54	208.15
342.93	197.77
343.31	207.82
343.69	208.33
344.07	208.80
344.46	209.30
344.84	209.67
345.22	209.66
345.60	209.93
345.99	210.12
346.37	210.13
346.75	210.16
347.13	210.22
347.52	210.25
347.90	210.44
348.28	210.44
348.66	210.50
349.05	210.40
349.43	210.44
349.81	210.48
350.19	210.47
350.57	210.50
350.96	210.61
351.34	210.62
351.72	210.75
352.10	210.85
352.48	210.90
352.87	210.94
353.25	211.05
353.63	211.10
354.01	211.16
354.39	211.31
354.77	211.42
355.15	211.58
355.54	211.62
355.92	211.55
356.30	211.62
356.68	211.93
357.06	212.05
357.44	211.98
357.82	212.09
358.20	212.22
358.58	212.23
358.97	212.30
359.35	212.45
359.73	212.57
360.11	212.62
360.49	212.64
360.87	212.70
361.25	212.85
361.63	212.96
362.01	213.06
362.39	213.03
362.77	213.09
363.15	213.13
363.53	213.13
363.91	213.21
364.29	213.20
364.67	212.98
365.05	212.99
365.43	213.10
365.81	213.13
366.19	213.34
366.57	213.50
366.95	213.51
367.33	213.42
367.71	213.35
368.09	213.40
368.47	213.41
368.85	213.42
369.23	213.44
369.61	213.36
369.99	213.47
370.37	213.55
370.75	213.74
371.13	213.67
371.51	213.66
371.89	213.73
372.27	213.75
372.65	213.73
373.03	213.64
373.41	213.63
373.78	213.57
374.16	213.42
374.54	213.30
374.92	213.20
375.30	213.16
375.68	213.10
376.06	213.10
376.44	213.06
376.82	213.01
377.19	212.93
377.57	212.88
377.95	212.69
378.33	212.62
378.71	212.34
379.09	212.31
379.47	212.31
379.84	212.22
380.22	212.14
380.60	212.04
380.98	212.07
381.36	212.00
381.73	211.90
382.11	211.93
382.49	211.90
382.87	211.79
383.25	211.78
383.62	212.10
384.00	211.95
384.38	211.87
384.76	211.99
385.13	212.10
385.51	212.01
385.89	211.87
386.27	211.89
386.64	211.97
387.02	211.97
387.40	211.87
387.78	211.82
388.15	211.72
388.53	211.63
388.91	211.52
389.29	211.45
389.66	211.49
390.04	211.37
390.42	211.41
390.79	211.44
391.17	211.42
391.55	211.10
391.92	211.11
392.30	211.09
392.68	210.93
393.05	210.85
393.43	210.93
393.81	210.97
394.18	210.81
394.56	210.74
394.94	210.74
395.31	210.67
395.69	210.74
396.06	210.86
396.44	210.96
396.82	211.01
397.19	211.25
397.57	211.20
397.95	211.29
398.32	211.20
398.70	211.29
399.07	211.32
399.45	211.30
399.82	211.31
400.20	211.34
400.58	211.36
400.95	211.24
401.33	211.25
401.70	211.54
402.08	211.62
402.45	211.68
402.83	211.82
403.20	211.94
403.58	212.04
403.95	212.13
404.33	212.17
404.71	212.23
405.08	212.46
405.46	212.58
405.83	212.64
406.21	212.74
406.58	212.91
406.96	213.07
407.33	213.30
407.70	213.52
408.08	214.06
408.45	214.37
408.83	214.79
409.20	215.10
409.58	215.17
409.95	215.55
410.33	215.94
410.70	216.26
411.08	216.74
411.45	217.20
411.82	217.63
412.20	218.19
412.57	219.01
412.95	219.32
413.32	220.05
413.69	220.70
414.07	221.52
414.44	222.21
414.82	223.12
415.19	224.03
415.56	225.02
415.94	225.86
416.31	227.05
416.68	228.17
417.06	229.57
417.43	230.94
417.81	232.41
418.18	233.88
418.55	235.47
418.93	237.17
419.30	238.87
419.67	240.73
420.04	242.65
420.42	244.53
420.79	247.04
421.16	249.36
421.54	252.01
421.91	254.55
422.28	257.24
422.66	260.01
423.03	262.92
423.40	265.75
423.77	268.85
424.15	271.90
424.52	275.21
424.89	278.74
425.26	282.14
425.64	285.40
426.01	289.07
426.38	292.92
426.75	296.76
427.13	300.81
427.50	304.98
427.87	309.43
428.24	313.80
428.61	318.01
428.99	322.84
429.36	327.83
429.73	332.83
430.10	337.92
430.47	343.06
430.85	348.24
431.22	353.92
431.59	360.18
431.96	365.93
432.33	372.26
432.70	378.44
433.08	385.81
433.45	392.88
433.82	399.84
434.19	407.48
434.56	415.12
434.93	422.23
435.30	429.50
435.68	437.59
436.05	445.54
436.42	453.45
436.79	460.76
437.16	468.60
437.53	476.67
437.90	484.70
438.27	492.89
438.64	501.42
439.01	509.39
439.38	516.20
439.75	523.27
440.13	531.13
440.50	538.47
440.87	544.60
441.24	550.93
441.61	557.92
441.98	563.35
442.35	569.44
442.72	575.82
443.09	581.92
443.46	585.68
443.83	588.59
444.20	590.96
444.57	594.34
444.94	596.28
445.31	598.42
445.68	600.56
446.05	601.72
446.42	601.45
446.79	601.00
447.16	600.46
447.53	600.25
447.90	597.81
448.27	595.49
448.64	591.72
449.01	589.07
449.37	584.35
449.74	579.54
450.11	573.98
450.48	567.63
450.85	561.09
451.22	555.51
451.59	550.19
451.96	545.11
452.33	538.00
452.70	531.75
453.07	524.28
453.43	516.49
453.80	509.04
454.17	501.92
454.54	495.18
454.91	487.94
455.28	480.79
455.65	474.06
456.02	467.65
456.38	462.18
456.75	455.15
457.12	449.00
457.49	443.23
457.86	437.34
458.23	432.45
458.59	427.05
458.96	421.77
459.33	416.88
459.70	412.02
460.07	408.33
460.43	403.82
460.80	399.63
461.17	396.05
461.54	392.28
461.91	388.70
462.27	385.02
462.64	381.93
463.01	378.41
463.38	375.17
463.74	371.46
464.11	368.43
464.48	365.85
464.85	363.06
465.21	360.94
465.58	358.69
465.95	355.92
466.32	353.60
466.68	351.28
467.05	349.09
467.42	346.82
467.78	344.32
468.15	342.02
468.52	340.33
468.88	338.07
469.25	336.02
469.62	334.36
469.98	332.65
470.35	331.04
470.72	329.50
471.08	327.76
471.45	326.36
471.82	324.90
472.18	323.37
472.55	322.21
472.92	320.61
473.28	319.22
473.65	317.99
474.02	316.89
474.38	315.80
474.75	314.92
475.11	314.05
475.48	313.33
475.85	312.73
476.21	312.00
476.58	311.40
476.94	310.96
477.31	310.36
477.67	309.78
478.04	309.29
478.41	308.93
478.77	309.03
479.14	308.66
479.50	308.41
479.87	308.28
480.23	308.15
480.60	308.00
480.96	307.95
481.33	308.12
481.69	308.14
482.06	308.17
482.42	308.18
482.79	308.25
483.15	308.38
483.52	308.67
483.88	308.96
484.25	309.19
484.61	309.46
484.98	309.84
485.34	310.43
485.71	311.02
486.07	311.59
486.44	311.75
486.80	312.36
487.17	312.95
487.53	313.81
487.90	314.69
488.26	315.78
488.62	316.81
488.99	317.63
489.35	318.61
489.72	319.73
490.08	320.77
490.44	321.93
490.81	323.21
491.17	324.45
491.54	325.75
491.90	327.08
492.26	328.44
492.63	329.88
492.99	331.27
493.36	332.74
493.72	334.25
494.08	335.86
494.45	337.52
494.81	339.34
495.17	340.93
495.54	342.65
495.90	344.27
496.26	346.01
496.63	347.85
496.99	349.67
497.35	351.53
497.72	353.47
498.08	355.38
498.44	357.23
498.80	359.14
499.17	361.03
499.53	362.96
499.89	364.97
500.26	366.90
500.62	368.74
500.98	370.73
501.34	372.67
501.71	374.62
502.07	376.42
502.43	378.16
502.79	379.86
503.16	381.63
503.52	383.37
503.88	385.00
504.24	386.67
504.60	388.38
504.97	389.95
505.33	391.45
505.69	393.14
506.05	394.64
506.41	396.06
506.78	397.23
507.14	398.59
507.50	399.91
507.86	401.14
508.22	402.47
508.59	403.49
508.95	404.39
509.31	405.58
509.67	406.65
510.03	407.55
510.39	408.49
510.75	409.29
511.12	410.13
511.48	411.03
511.84	411.72
512.20	412.41
512.56	413.14
512.92	413.76
513.28	414.20
513.64	414.60
514.00	415.02
514.37	415.63
514.73	416.04
515.09	416.17
515.45	416.50
515.81	416.65
516.17	416.78
516.53	416.99
516.89	416.86
517.25	416.74
517.61	416.81
517.97	416.72
518.33	416.62
518.69	416.55
519.05	416.35
519.41	416.22
519.77	416.27
520.13	415.98
520.49	415.71
520.85	415.46
521.21	415.43
521.57	415.30
521.93	415.01
522.29	414.82
522.65	414.59
523.01	414.38
523.37	414.10
523.73	414.02
524.09	414.04
524.45	414.00
524.81	414.06
525.17	414.08
525.53	414.22
525.89	414.31
526.25	414.42
526.61	414.35
526.97	414.50
527.33	414.55
527.68	415.16
528.04	415.64
528.40	415.96
528.76	416.33
529.12	416.74
529.48	417.47
529.84	418.10
530.20	418.90
530.56	419.57
530.91	420.46
531.27	421.34
531.63	422.13
531.99	423.03
532.35	424.05
532.71	424.94
533.07	426.06
533.42	427.53
533.78	428.62
534.14	430.02
534.50	431.22
534.86	432.55
535.21	433.57
535.57	435.04
535.93	436.58
536.29	438.27
536.65	439.96
537.00	441.39
537.36	443.04
537.72	444.58
538.08	446.30
538.44	448.00
538.79	449.75
539.15	451.54
539.51	453.52
539.87	455.56
540.22	457.72
540.58	459.82
540.94	461.65
541.29	463.86
541.65	465.97
542.01	468.31
542.37	470.54
542.72	472.95
543.08	475.11
543.44	477.66
543.79	479.88
544.15	482.32
544.51	485.11
544.87	487.68
545.22	490.38
545.58	493.05
545.94	495.78
546.29	498.35
546.65	501.15
547.01	503.64
547.36	506.34
547.72	509.18
548.07	511.84
548.43	514.50
548.79	517.22
549.14	520.02
549.50	522.87
549.86	525.61
550.21	528.27
550.57	531.17
550.92	533.60
551.28	536.36
551.64	538.94
551.99	541.43
552.35	543.96
552.70	546.64
553.06	549.30
553.41	551.95
553.77	554.81
554.13	557.44
554.48	560.36
554.84	563.08
555.19	565.60
555.55	568.52
555.90	571.00
556.26	573.38
556.61	575.75
556.97	577.93
557.32	580.43
557.68	582.76
558.03	585.18
558.39	587.53
558.74	590.06
559.10	592.59
559.45	595.07
559.81	597.50
560.16	599.87
560.52	602.21
560.87	604.60
561.23	606.87
561.58	609.39
561.94	611.37
562.29	613.36
562.64	615.56
563.00	617.43
563.35	619.84
563.71	622.39
564.06	624.65
564.42	627.07
564.77	629.32
565.12	631.65
565.48	634.07
565.83	636.38
566.19	638.51
566.54	640.28
566.89	642.23
567.25	644.43
567.60	646.40
567.96	648.51
568.31	650.51
568.66	652.28
569.02	653.65
569.37	655.27
569.72	656.93
570.08	658.40
570.43	659.93
570.78	661.20
571.14	662.23
571.49	663.45
571.84	664.47
572.20	665.66
572.55	666.73
572.90	667.16
573.26	667.78
573.61	668.26
573.96	669.04
574.31	669.56
574.67	669.79
575.02	669.99
575.37	670.14
575.72	670.01
576.08	670.37
576.43	670.53
576.78	670.86
577.13	671.14
577.49	671.52
577.84	671.60
578.19	671.79
578.54	672.19
578.90	672.57
579.25	672.80
579.60	672.56
579.95	672.32
580.30	672.52
580.66	672.84
581.01	672.85
581.36	672.92
581.71	672.69
582.06	672.84
582.42	672.99
582.77	672.85
583.12	672.95
583.47	672.89
583.82	672.90
584.17	672.80
584.53	672.79
584.88	672.49
585.23	672.46
585.58	672.08
585.93	671.66
586.28	671.32
586.63	671.08
586.98	670.91
587.34	670.93
587.69	670.53
588.04	670.14
588.39	669.84
588.74	669.17
589.09	669.12
589.44	668.32
589.79	667.78
590.14	667.44
590.49	666.81
590.84	665.95
591.19	665.58
591.54	664.84
591.89	663.75
592.25	663.22
592.60	662.15
592.95	661.30
593.30	660.35
593.65	659.27
594.00	658.10
594.35	658.16
594.70	657.11
595.05	656.18
595.40	655.06
595.75	653.86
596.10	653.07
596.45	651.99
596.80	651.20
597.15	650.29
597.50	649.02
597.85	648.19
598.19	647.18
598.54	645.91
598.89	645.00
599.24	644.35
599.59	643.18
599.94	642.29
600.29	641.50
600.64	640.52
600.99	639.41
601.34	638.60
601.69	636.34
602.04	635.04
602.39	633.90
602.74	632.90
603.08	632.04
603.43	631.22
603.78	629.99
604.13	628.79
604.48	627.73
604.83	626.92
605.18	625.83
605.53	624.81
605.87	623.84
606.22	622.62
606.57	621.36
606.92	620.07
607.27	618.96
607.62	617.60
607.96	616.54
608.31	615.56
608.66	614.19
609.01	613.10
609.36	611.89
609.70	610.51
610.05	609.04
610.40	607.86
610.75	606.13
611.10	605.00
611.44	603.45
611.79	601.60
612.14	600.11
612.49	598.34
612.83	596.71
613.18	594.80
613.53	593.30
613.88	591.42
614.22	589.90
614.57	588.05
614.92	586.37
615.27	584.67
615.61	582.88
615.96	581.34
616.31	579.65
616.65	578.15
617.00	576.67
617.35	575.08
617.70	573.11
618.04	571.30
618.39	569.14
618.74	567.50
619.08	565.84
619.43	564.01
619.78	562.44
620.12	560.83
620.47	559.31
620.82	557.32
621.16	555.50
621.51	553.85
621.85	552.12
622.20	550.31
622.55	548.35
622.89	546.41
623.24	544.49
623.59	542.57
623.93	540.78
624.28	538.93
624.62	537.43
624.97	535.76
625.32	534.04
625.66	532.45
626.01	530.72
626.35	529.06
626.70	527.19
627.04	525.48
627.39	523.63
627.73	521.97
628.08	520.48
628.43	518.80
628.77	516.80
629.12	514.97
629.46	513.39
629.81	511.79
630.15	510.14
630.50	508.34
630.84	506.56
631.19	504.84
631.53	503.03
631.88	500.87
632.22	498.85
632.57	497.33
632.91	495.60
633.26	493.91
633.60	492.13
633.95	490.46
634.29	488.67
634.64	487.12
634.98	485.18
635.32	483.46
635.67	481.93
636.01	480.29
636.36	478.61
636.70	477.02
637.05	475.37
637.39	473.82
637.73	472.38
638.08	471.10
638.42	469.52
638.77	468.10
639.11	466.68
639.45	465.19
639.80	463.32
640.14	461.69
640.49	460.09
640.83	458.51
641.17	457.02
641.52	455.35
641.86	453.57
642.20	452.18
642.55	450.38
642.89	448.78
643.23	447.05
643.58	445.70
643.92	443.93
644.26	442.28
644.61	440.72
644.95	439.01
645.29	437.10
645.64	435.39
645.98	433.66
646.32	432.10
646.66	430.47
647.01	428.91
647.35	427.36
647.69	425.72
648.04	424.14
648.38	422.44
648.72	420.80
649.06	419.12
649.41	417.40
649.75	415.91
650.09	414.29
650.43	412.94
650.78	411.13
651.12	409.56
651.46	407.89
651.80	406.28
652.14	404.79
652.49	403.32
652.83	401.80
653.17	400.14
653.51	398.49
653.85	397.03
654.20	395.60
654.54	393.94
654.88	392.43
655.22	391.00
655.56	389.32
655.90	387.91
656.25	386.40
656.59	385.00
656.93	383.43
657.27	382.12
657.61	380.50
657.95	379.21
658.29	377.78
658.64	376.50
658.98	374.99
659.32	373.42
659.66	371.94
660.00	370.38
660.34	368.86
660.68	367.36
661.02	365.85
661.36	364.40
661.70	363.06
662.05	361.66
662.39	360.42
662.73	359.32
663.07	358.04
663.41	356.86
663.75	355.44
664.09	354.21
664.43	352.73
664.77	351.43
665.11	349.99
665.45	348.72
665.79	347.57
666.13	346.32
666.47	345.12
666.81	343.97
667.15	342.79
667.49	341.87
667.83	340.84
668.17	339.68
668.51	338.54
668.85	337.46
669.19	336.50
669.53	335.18
669.87	333.96
670.21	332.79
670.55	331.60
670.89	330.80
671.23	329.77
671.57	328.75
671.91	327.82
672.25	326.90
672.58	325.95
672.92	324.73
673.26	323.84
673.60	322.79
673.94	321.77
674.28	320.88
674.62	319.87
674.96	318.88
675.30	318.05
675.64	317.23
675.97	316.31
676.31	315.37
676.65	314.52
676.99	313.77
677.33	312.86
677.67	312.09
678.01	310.93
678.34	310.04
678.68	309.23
679.02	308.20
679.36	307.28
679.70	306.32
680.04	305.50
680.37	304.54
680.71	303.74
681.05	302.94
681.39	302.14
681.73	301.20
682.06	300.39
682.40	299.52
682.74	298.71
683.08	298.03
683.42	297.11
683.75	296.33
684.09	295.48
684.43	294.73
684.77	293.83
685.10	293.14
685.44	292.33
685.78	291.44
686.12	290.80
686.45	290.00
686.79	289.27
687.13	288.58
687.46	287.90
687.80	287.20
688.14	286.42
688.48	285.68
688.81	285.00
689.15	284.40
689.49	283.68
689.82	282.96
690.16	282.04
690.50	281.33
690.83	280.54
691.17	279.72
691.51	278.91
691.84	278.25
692.18	277.53
692.52	276.81
692.85	276.20
693.19	275.59
693.52	275.01
693.86	274.25
694.20	273.57
694.53	272.86
694.87	272.17
695.21	271.58
695.54	270.96
695.88	270.21
696.21	269.36
696.55	268.69
696.88	268.08
697.22	267.46
697.56	266.91
697.89	266.39
698.23	265.82
698.56	265.23
698.90	264.70
699.23	264.01
699.57	263.50
699.90	262.91
700.24	262.29
700.58	261.73
700.91	261.23
701.25	260.90
701.58	260.56
701.92	260.16
702.25	259.65
702.59	259.02
702.92	258.60
703.26	258.22
703.59	257.77
703.93	257.55
704.26	257.07
704.60	256.60
704.93	256.10
705.26	255.50
705.60	255.10
705.93	254.55
706.27	254.31
706.60	253.94
706.94	253.58
707.27	253.15
707.61	252.71
707.94	252.31
708.27	251.65
708.61	251.08
708.94	250.59
709.28	250.22
709.61	249.89
709.94	249.52
710.28	249.14
710.61	248.74
710.95	248.00
711.28	247.98
711.61	247.52
711.95	247.14
712.28	246.93
712.61	246.63
712.95	246.48
713.28	246.22
713.61	245.83
713.95	245.44
714.28	245.06
714.61	244.66
714.95	244.32
715.28	243.91
715.61	243.56
715.95	243.23
716.28	242.76
716.61	242.46
716.95	242.09
717.28	241.72
717.61	241.43
717.94	241.16
718.28	240.54
718.61	240.25
718.94	239.96
719.27	239.51
719.61	239.25
719.94	238.90
720.27	238.39
720.60	238.06
720.94	237.78
721.27	237.51
721.60	237.32
721.93	237.01
722.27	236.90
722.60	236.67
722.93	236.38
723.26	236.25
723.59	235.89
723.93	235.71
724.26	235.46
724.59	235.17
724.92	234.95
725.25	234.81
725.59	234.63
725.92	234.46
726.25	234.34
726.58	234.11
726.91	233.80
727.24	233.66
727.57	233.47
727.91	233.19
728.24	232.99
728.57	232.76
728.90	232.65
729.23	232.36
729.56	232.31
729.89	232.09
730.22	231.86
730.55	231.62
730.89	231.39
731.22	231.20
731.55	231.00
731.88	230.86
732.21	230.62
732.54	230.34
732.87	230.09
733.20	229.88
733.53	229.70
733.86	229.57
734.19	229.35
734.52	229.19
734.85	229.24
735.18	229.02
735.51	228.92
735.84	228.81
736.17	228.77
736.50	228.45
736.83	228.72
737.16	228.56
737.49	228.45
737.82	228.33
738.15	228.14
738.48	228.06
738.81	227.86
739.14	227.67
739.47	227.57
739.80	227.39
740.13	227.31
740.46	227.03
740.79	226.82
741.12	226.61
741.45	226.38
741.78	226.10
742.11	225.99
742.44	225.80
742.77	225.65
743.10	225.37
743.43	225.22
743.75	224.74
744.08	225.00
744.41	224.88
744.74	224.66
745.07	224.48
745.40	224.37
745.73	224.28
746.06	224.15
746.39	224.07
746.71	223.96
747.04	223.73
747.37	223.60
747.70	223.57
748.03	223.51
748.36	223.46
748.68	223.27
749.01	223.16
749.34	223.05
749.67	222.90
750.00	222.86
750.33	222.97
750.65	222.91
750.98	222.29
751.31	222.19
751.64	222.07
751.97	222.21
752.29	222.00
752.62	221.78
752.95	221.64
753.28	221.47
753.60	221.41
753.93	221.45
754.26	221.41
754.59	221.20
754.91	221.02
755.24	220.93
755.57	220.82
755.90	220.71
756.22	220.58
756.55	220.41
756.88	220.28
757.20	220.01
757.53	219.78
757.86	219.76
758.19	219.71
758.51	219.66
758.84	219.41
759.17	219.33
759.49	219.34
759.82	219.46
760.15	219.45
760.47	219.33
760.80	219.13
761.13	219.05
761.45	218.94
761.78	218.89
762.11	218.83
762.43	218.78
762.76	218.68
763.08	218.60
763.41	218.60
763.74	218.58
764.06	218.51
764.39	218.51
764.71	218.51
765.04	218.34
765.37	218.25
765.69	218.14
766.02	218.15
766.34	218.06
766.67	217.83
767.00	217.74
767.32	217.84
767.65	218.00
767.97	217.97
768.30	217.87
768.62	217.88
768.95	217.77
769.27	217.71
769.60	217.76
769.92	217.72
770.25	217.60
770.57	217.39
770.90	217.27
771.22	217.13
771.55	216.99
771.87	217.04
772.20	216.96
772.52	217.22
772.85	217.58
773.17	217.46
773.50	217.38
773.82	217.28
774.15	217.00
774.47	216.70
774.80	216.62
775.12	216.57
775.45	216.54
775.77	216.45
776.09	216.39
776.42	216.26
776.74	216.21
777.07	216.12
777.39	216.08
777.72	216.00
778.04	215.98
778.36	215.94
778.69	215.83
779.01	215.89
779.33	215.56
779.66	215.08
779.98	215.05
780.31	215.05
780.63	215.14
780.95	215.23
781.28	215.22
781.60	215.10
781.92	215.04
782.25	214.89
782.57	214.94
782.89	214.83
783.22	214.76
783.54	214.70
783.86	214.75
784.19	214.65
784.51	214.72
784.83	214.73
785.16	214.62
785.48	214.63
785.80	214.59
786.12	214.58
786.45	214.51
786.77	214.49
787.09	214.49
787.42	214.34
787.74	214.28
788.06	214.23
788.38	214.22
788.71	214.26
789.03	214.28
789.35	214.21
789.67	214.17
789.99	214.16
790.32	214.05
790.64	214.02
790.96	214.31
791.28	214.22
791.61	214.12
791.93	214.12
792.25	214.08
792.57	214.28
792.89	214.12
793.21	214.16
793.54	214.10
793.86	213.98
794.18	214.03
794.50	213.99
794.82	214.02
795.14	214.04
795.47	214.08
795.79	214.07
796.11	213.97
796.43	213.95
796.75	213.95
797.07	214.00
797.39	213.92
797.71	213.66
798.04	213.59
798.36	213.61
798.68	213.65
799.00	213.57
799.32	213.38
799.64	213.45
799.96	213.37
800.28	213.43
800.60	213.42
800.92	213.39
801.24	213.30
801.56	213.23
801.89	213.10
802.21	213.13
802.53	213.11
802.85	213.16
803.17	213.37
803.49	213.23
803.81	213.15
804.13	213.18
804.45	213.15
804.77	213.21
805.09	213.21
805.41	213.15
805.73	213.17
806.05	213.02
806.37	213.05
806.69	213.08
807.01	213.00
807.33	213.03
807.65	212.87
807.97	213.00
808.28	212.95
808.60	212.99
808.92	212.87
809.24	213.02
809.56	212.96
809.88	212.78
810.20	212.85
810.52	212.96
810.84	212.88
811.16	212.88
811.48	212.79
811.80	212.83
812.12	212.85
812.43	212.89
812.75	212.93
813.07	212.82
813.39	212.77
813.71	212.74
814.03	212.66
814.35	212.67
814.67	212.54
814.98	212.54
815.30	212.52
815.62	212.46
815.94	212.20
816.26	212.23
816.58	212.14
816.89	212.16
817.21	212.03
817.53	212.04
817.85	211.99
818.17	212.00
818.48	211.88
818.80	211.89
819.12	211.79
819.44	211.68
819.76	211.61
820.07	211.61
820.39	211.59
820.71	211.65
821.03	211.67
821.34	211.61
821.66	211.62
821.98	211.67
822.30	211.64
822.61	211.88
822.93	211.83
823.25	211.82
823.57	211.79
823.88	211.86
824.20	211.78
824.52	211.85
824.83	211.85
825.15	211.80
825.47	211.85
825.79	211.89
826.10	211.92
826.42	211.91
826.74	211.97
827.05	211.97
827.37	211.98
827.69	211.87
828.00	211.94
828.32	211.93
828.64	211.88
828.95	212.03
829.27	211.93
829.58	211.88
829.90	212.00
830.22	212.01
830.53	211.93
830.85	212.00
831.17	211.90
831.48	211.89
831.80	211.90
832.11	211.79
832.43	211.75
832.75	211.78
833.06	212.05
833.38	211.96
833.69	211.88
834.01	211.86
834.32	211.96
834.64	211.85
834.96	211.81
835.27	211.82
835.59	211.73
835.90	211.63
836.22	211.63
836.53	211.53
836.85	211.51
837.16	211.82
837.48	211.77
837.79	211.94
838.11	211.95
838.42	211.95
838.74	212.04
839.05	212.00
839.37	211.93
839.68	211.65
840.00	211.63
840.31	211.67
840.63	211.59
840.94	211.57
841.26	211.55
841.57	211.61
841.88	211.61
842.20	211.60
842.51	211.52
842.83	211.60
843.14	211.90
843.46	211.87
843.77	211.70
844.08	211.77
844.40	211.59
844.71	211.53
845.03	211.49
845.34	211.41
845.65	211.39
845.97	211.38
846.28	211.35
846.60	211.34
846.91	211.30
847.22	211.29
847.54	211.31
847.85	211.40
848.16	211.37
848.48	211.36
848.79	211.45
849.10	211.55
849.42	211.54
849.73	211.20
850.04	211.14
850.36	211.10
850.67	211.05
850.98	211.11
851.30	211.17
851.61	211.11
851.92	211.07
852.23	211.20
852.55	211.25
852.86	211.31
853.17	211.35
853.49	211.41
853.80	211.55
854.11	211.63
854.42	211.64
854.74	211.65
855.05	211.68
855.36	211.48
855.67	211.50
855.99	211.47
856.30	211.89
856.61	211.91
856.92	211.80
857.23	211.86
857.55	211.76
857.86	211.73
858.17	211.85
858.48	211.82
858.79	211.73
859.11	211.73
859.42	211.73
859.73	211.67
860.04	211.72
860.35	211.62
860.66	211.51
860.98	211.44
861.29	211.41
861.60	211.38
861.91	211.50
862.22	211.43
862.53	211.38
862.84	210.98
863.16	211.12
863.47	211.08
863.78	211.03
864.09	211.06
864.40	211.04
864.71	211.05
865.02	211.12
865.33	211.17
865.64	211.12
865.95	211.18
866.27	211.40
866.58	211.37
866.89	211.37
867.20	211.34
867.51	211.36
867.82	211.35
868.13	211.43
868.44	211.29
868.75	211.35
869.06	211.42
869.37	211.45
869.68	211.27
869.99	211.38
870.30	211.35
870.61	211.44
870.92	211.42
871.23	211.36
871.54	211.44
871.85	211.40
872.16	211.45
872.47	211.33
872.78	211.17
873.09	211.18
873.40	211.24
873.71	211.20
874.02	211.26
874.33	211.22
874.64	211.11
874.95	211.27
875.26	211.24
875.56	211.21
875.87	211.19
876.18	211.21
876.49	211.51
876.80	211.55
877.11	211.43
877.42	211.48
877.73	211.43
878.04	211.34
878.35	211.36
878.66	211.37
878.96	211.39
879.27	211.40
879.58	211.38
879.89	211.28
880.20	211.47
880.51	211.43
880.82	211.42
881.12	211.49
881.43	211.36
881.74	211.34
882.05	211.25
882.36	211.31
882.67	211.37
882.97	210.97
883.28	210.89
883.59	210.93
883.90	210.96
884.21	211.12
884.51	211.16
884.82	211.12
885.13	211.07
885.44	211.11
885.74	211.07
886.05	211.08
886.36	211.10
886.67	210.94
886.98	211.05
887.28	211.14
887.59	211.13
887.90	211.10
888.20	211.10
888.51	211.32
888.82	211.17
889.13	211.20
889.43	211.57
889.74	211.59
890.05	211.62
890.35	211.62
890.66	211.54
890.97	211.46
891.28	211.48
891.58	211.56
891.89	211.51
892.20	211.47
892.50	211.44
892.81	211.36
893.12	211.41
893.42	211.25
893.73	211.31
894.04	211.31
894.34	211.34
894.65	211.31
894.95	211.22
895.26	211.28
895.57	211.46
895.87	211.11
896.18	211.20
896.48	211.14
896.79	211.07
897.10	211.09
897.40	211.11
897.71	211.11
898.01	211.02
898.32	211.11
898.63	211.12
898.93	211.14
899.24	211.19
899.54	211.10
899.85	211.10
900.15	211.04
900.46	211.06
900.76	211.17
901.07	211.16
901.38	211.13
901.68	211.17
901.99	210.99
902.29	210.99
902.60	210.92
902.90	210.94
903.21	210.98
903.51	210.96
903.82	211.03
904.12	211.05
904.43	211.12
904.73	211.05
905.03	211.07
905.34	211.39
905.64	211.33
905.95	211.37
906.25	211.36
906.56	211.37
906.86	211.32
907.17	211.26
907.47	211.32
907.77	211.30
908.08	211.29
908.38	211.25
908.69	211.32
908.99	211.43
909.30	211.46
909.60	211.42
909.90	211.43
910.21	211.37
910.51	211.30
910.81	211.29
911.12	211.39
911.42	211.40
911.73	211.08
912.03	211.22
912.33	211.30
912.64	211.28
912.94	211.31
913.24	211.29
913.55	211.31
913.85	211.28
914.15	211.38
914.46	211.39
914.76	211.35
915.06	211.29
915.37	211.13
915.67	211.10
915.97	211.17
916.27	211.12
916.58	211.11
916.88	211.07
917.18	211.02
917.49	211.16
917.79	211.15
918.09	211.15
918.39	211.22
918.70	211.19
919.00	211.17
919.30	211.25
919.60	211.19
919.91	211.09
920.21	211.13
920.51	210.98
920.81	210.96
921.12	211.09
921.42	211.10
921.72	211.17
922.02	211.24
922.32	211.20
922.63	211.21
922.93	211.43
923.23	211.52
923.53	211.47
923.83	211.26
924.13	211.32
924.44	211.34
924.74	211.35
925.04	211.43
925.34	211.44
925.64	211.33
925.94	211.40
926.24	211.61
926.55	211.53
926.85	211.64
927.15	211.64
927.45	211.63
927.75	211.65
928.05	211.68
928.35	211.62
928.65	211.65
928.95	211.75
929.26	211.55
929.56	211.62
929.86	211.70
930.16	211.66
930.46	211.60
930.76	211.61
931.06	211.49
931.36	211.39
931.66	211.44
931.96	211.50
932.26	211.53
932.56	211.46
932.86	211.54
933.16	211.54
933.46	211.50
933.76	211.43
934.06	211.51
934.36	211.56
934.66	211.56
934.96	211.60
935.26	211.51
935.56	211.66
935.86	211.52
936.16	211.46
936.46	211.43
936.76	211.42
937.06	211.33
937.36	211.36
937.66	211.41
937.96	211.45
938.26	211.36
938.56	211.36
938.86	211.27
939.16	211.34
939.46	211.33
939.76	211.41
940.06	211.40
940.35	211.31
940.65	211.15
940.95	211.17
941.25	211.15
941.55	211.14
941.85	211.09
942.15	211.19
942.45	211.28
942.75	211.29
943.04	211.28
943.34	211.38
943.64	211.28
943.94	211.13
944.24	211.11
944.54	211.15
944.84	211.12
945.13	211.10
945.43	211.04
945.73	210.98
946.03	210.84
946.33	210.82
946.62	210.72
946.92	210.69
947.22	210.75
947.52	210.70
947.82	210.74
948.11	210.63
948.41	210.53
948.71	210.38
949.01	210.43
949.31	210.44
949.60	210.44
949.90	210.50
950.20	210.62
950.50	210.60
950.79	210.49
951.09	210.49
951.39	210.51
951.69	210.47
951.98	210.57
952.28	210.59
952.58	210.62
952.87	210.67
953.17	210.68
953.47	210.57
953.76	210.56
954.06	210.51
954.36	210.49
954.66	210.45
954.95	210.60
955.25	210.61
955.55	210.67
955.84	210.58
956.14	210.70
956.44	210.70
956.73	210.63
957.03	210.70
957.32	210.60
957.62	210.55
957.92	210.60
958.21	210.47
958.51	210.94
958.81	210.91
959.10	210.96
959.40	211.13
959.69	211.17
959.99	211.18
960.29	211.18
960.58	211.22
960.88	211.39
961.17	211.32
961.47	211.30
961.76	211.21
962.06	211.32
962.36	211.20
962.65	211.17
962.95	211.22
963.24	211.14
963.54	211.26
963.83	211.31
964.13	211.28
964.42	211.27
964.72	210.95
965.01	211.00
965.31	210.94
965.60	210.79
965.90	211.03
966.19	211.02
966.49	211.00
966.78	210.92
967.08	210.90
967.37	210.91
967.67	210.86
967.96	210.92
968.26	210.87
968.55	210.92
968.85	210.83
969.14	210.87
969.43	210.94
969.73	210.92
970.02	210.87
970.32	210.82
970.61	210.83
970.91	210.75
971.20	210.62
971.49	210.63
971.79	210.71
972.08	210.44
972.38	210.43
972.67	210.35
972.96	210.37
973.26	210.30
973.55	210.45
973.85	210.47
974.14	210.39
974.43	210.40
974.73	210.40
975.02	210.45
975.31	210.40
975.61	210.37
975.90	210.29
976.19	210.37
976.49	210.45
976.78	210.45
977.07	210.45
977.37	210.55
977.66	210.63
977.95	210.54
978.24	210.58
978.54	210.64
978.83	210.70
979.12	210.73
979.42	210.77
979.71	210.67
980.00	210.69
980.29	210.69
980.59	210.64
980.88	210.62
981.17	210.57
981.46	210.55
981.76	210.52
982.05	210.69
982.34	210.58
982.63	210.57
982.93	210.55
983.22	210.62
983.51	210.58
983.80	210.55
984.09	210.61
984.39	210.56
984.68	210.53
984.97	210.55
985.26	210.53
985.55	210.55
985.85	210.42
986.14	210.44
986.43	210.57
986.72	210.51
987.01	210.45
987.30	210.55
987.59	210.55
987.89	210.63
988.18	210.45
988.47	210.43
988.76	210.38
989.05	210.40
989.34	210.31
989.63	210.40
989.92	210.41
990.22	210.36
990.51	210.32
990.80	210.27
991.09	210.24
991.38	210.30
991.67	210.25
991.96	210.34
992.25	210.33
992.54	210.26
992.83	210.24
993.12	210.26
993.41	210.24
993.70	210.40
993.99	210.48
994.28	210.69
994.58	210.81
994.87	210.78
995.16	210.75
995.45	210.76
995.74	210.69
996.03	210.67
996.32	210.73
996.61	210.86
996.90	210.88
997.19	210.96
997.48	210.93
997.77	210.97
998.06	210.95
998.34	210.93
998.63	210.94
998.92	211.02
999.21	211.07
999.50	211.07
999.79	210.93
1000.08	210.87
1000.37	210.76
1000.66	210.71
1000.95	210.81
1001.24	210.88
1001.53	211.00
1001.82	210.98
1002.11	211.00
1002.40	211.00
1002.68	211.01
1002.97	211.27
1003.26	211.22
1003.55	211.15
1003.84	211.16
1004.13	211.26
1004.42	211.24
1004.71	211.19
1004.99	211.19
1005.28	211.23
1005.57	211.25
1005.86	211.33
1006.15	211.28
1006.44	211.17
1006.72	211.24
1007.01	211.19
1007.30	211.14
1007.59	211.09
1007.88	211.07
1008.17	211.05
1008.45	210.96
1008.74	210.87
1009.03	210.72
1009.32	210.70
1009.60	210.72
1009.89	210.68
1010.18	210.56
1010.47	210.53
1010.76	210.54
1011.04	210.43
1011.33	210.86
1011.62	210.90
1011.91	210.77
1012.19	210.80
1012.48	210.88
1012.77	210.83
1013.05	210.97
1013.34	211.03
1013.63	210.89
1013.92	210.94
1014.20	210.88
1014.49	210.96
1014.78	211.02
1015.06	210.85
1015.35	210.85
1015.64	210.91
1015.92	210.92
1016.21	210.99
1016.50	211.00
1016.78	211.03
1017.07	211.16
1017.36	210.62
1017.64	210.49
1017.93	210.55
1018.22	210.53
1018.50	210.45
1018.79	210.44
1019.08	210.31
1019.36	210.31
1019.65	210.36
1019.93	210.51
1020.22	210.51
1020.51	210.72
1020.79	210.61
1021.08	210.10
1021.36	208.85
1021.65	210.50
1021.94	210.65
1022.22	211.40
1022.51	209.95
1022.79	213.80
1023.08	209.55
1023.36	215.20
1023.65	209.00
>>>>>End Processed Spectral Data<<<<<
