SpectraSuite Data File
++++++++++++++++++++++++++++++++++++
Date: Mon Feb 25 17:09:51 EST 2013
User: group
Dark Spectrum Present: No
Reference Spectrum Present: No
Number of Sampled Component Spectra: 1
Spectrometers: USB2E7196
Integration Time (usec): 104000 (USB2E7196)
Spectra Averaged: 20 (USB2E7196)
Boxcar Smoothing: 10 (USB2E7196)
Correct for Electrical Dark: No (USB2E7196)
Strobe/Lamp Enabled: No (USB2E7196)
Correct for Detector Non-linearity: No (USB2E7196)
Correct for Stray Light: No (USB2E7196)
Number of Pixels in Processed Spectrum: 2048
>>>>>Begin Processed Spectral Data<<<<<
339.09	0.00
339.48	199.00
339.86	200.25
340.24	202.65
340.63	203.30
341.01	209.65
341.39	206.15
341.78	207.50
342.16	209.50
342.54	208.95
342.93	198.59
343.31	208.58
343.69	209.08
344.07	209.56
344.46	209.94
344.84	210.32
345.22	210.39
345.60	210.61
345.99	210.82
346.37	210.95
346.75	211.01
347.13	211.05
347.52	211.17
347.90	211.33
348.28	211.32
348.66	211.32
349.05	211.27
349.43	211.38
349.81	211.42
350.19	211.37
350.57	211.36
350.96	211.39
351.34	211.50
351.72	211.54
352.10	211.54
352.48	211.59
352.87	211.59
353.25	211.67
353.63	211.67
354.01	211.65
354.39	211.65
354.77	211.77
355.15	211.85
355.54	211.80
355.92	211.72
356.30	211.78
356.68	212.04
357.06	212.15
357.44	212.13
357.82	212.20
358.20	212.27
358.58	212.35
358.97	212.36
359.35	212.36
359.73	212.54
360.11	212.58
360.49	212.61
360.87	212.66
361.25	212.69
361.63	212.88
362.01	212.98
362.39	212.95
362.77	213.04
363.15	213.07
363.53	213.11
363.91	213.16
364.29	213.16
364.67	212.83
365.05	212.75
365.43	212.76
365.81	212.84
366.19	213.04
366.57	213.10
366.95	213.13
367.33	213.20
367.71	213.16
368.09	213.31
368.47	213.30
368.85	213.30
369.23	213.29
369.61	213.07
369.99	213.13
370.37	213.21
370.75	213.25
371.13	213.16
371.51	213.07
371.89	213.08
372.27	213.12
372.65	213.16
373.03	213.15
373.41	213.07
373.78	213.02
374.16	212.75
374.54	212.66
374.92	212.58
375.30	212.46
375.68	212.33
376.06	212.23
376.44	212.21
376.82	212.17
377.19	212.12
377.57	212.14
377.95	211.95
378.33	211.88
378.71	211.61
379.09	211.62
379.47	211.66
379.84	211.50
380.22	211.32
380.60	211.18
380.98	211.19
381.36	211.22
381.73	211.09
382.11	211.11
382.49	211.10
382.87	211.09
383.25	211.03
383.62	211.44
384.00	211.34
384.38	211.28
384.76	211.35
385.13	211.46
385.51	211.43
385.89	211.36
386.27	211.39
386.64	211.48
387.02	211.42
387.40	211.31
387.78	211.31
388.15	211.30
388.53	211.34
388.91	211.24
389.29	211.19
389.66	211.28
390.04	211.21
390.42	211.25
390.79	211.21
391.17	211.21
391.55	210.84
391.92	210.90
392.30	210.96
392.68	210.78
393.05	210.74
393.43	210.80
393.81	210.86
394.18	210.76
394.56	210.72
394.94	210.76
395.31	210.80
395.69	210.94
396.06	211.03
396.44	211.05
396.82	211.04
397.19	211.18
397.57	211.11
397.95	211.17
398.32	211.07
398.70	211.13
399.07	211.25
399.45	211.14
399.82	211.10
400.20	211.09
400.58	211.12
400.95	210.98
401.33	211.06
401.70	211.27
402.08	211.35
402.45	211.39
402.83	211.49
403.20	211.52
403.58	211.53
403.95	211.68
404.33	211.72
404.71	211.79
405.08	212.00
405.46	212.09
405.83	212.20
406.21	212.26
406.58	212.24
406.96	212.26
407.33	212.50
407.70	212.65
408.08	212.95
408.45	213.21
408.83	213.40
409.20	213.48
409.58	213.50
409.95	213.70
410.33	213.90
410.70	214.02
411.08	214.29
411.45	214.52
411.82	214.61
412.20	214.99
412.57	215.50
412.95	215.52
413.32	215.90
413.69	216.24
414.07	216.70
414.44	217.20
414.82	217.74
415.19	218.25
415.56	218.81
415.94	219.24
416.31	219.78
416.68	220.46
417.06	221.21
417.43	221.95
417.81	222.69
418.18	223.52
418.55	224.34
418.93	225.23
419.30	226.17
419.67	227.21
420.04	228.19
420.42	229.15
420.79	230.62
421.16	231.86
421.54	233.27
421.91	234.56
422.28	235.99
422.66	237.40
423.03	239.05
423.40	240.50
423.77	242.01
424.15	243.58
424.52	245.27
424.89	247.06
425.26	248.79
425.64	250.47
426.01	252.24
426.38	254.17
426.75	256.24
427.13	258.19
427.50	260.29
427.87	262.44
428.24	264.66
428.61	266.59
428.99	268.98
429.36	271.41
429.73	273.91
430.10	276.29
430.47	278.81
430.85	281.10
431.22	283.83
431.59	287.10
431.96	289.99
432.33	293.09
432.70	296.14
433.08	299.69
433.45	303.05
433.82	306.50
434.19	310.26
434.56	313.85
434.93	317.29
435.30	320.82
435.68	324.69
436.05	328.32
436.42	332.11
436.79	335.57
437.16	339.19
437.53	342.95
437.90	346.88
438.27	350.71
438.64	354.81
439.01	358.63
439.38	361.64
439.75	364.80
440.13	368.50
440.50	371.91
440.87	374.62
441.24	377.57
441.61	380.65
441.98	382.99
442.35	385.74
442.72	388.54
443.09	391.30
443.46	393.00
443.83	394.26
444.20	395.39
444.57	396.75
444.94	397.51
445.31	398.42
445.68	399.46
446.05	399.81
446.42	399.51
446.79	399.11
447.16	398.73
447.53	398.53
447.90	397.00
448.27	395.67
448.64	393.86
449.01	392.37
449.37	390.01
449.74	387.69
450.11	385.08
450.48	381.92
450.85	378.51
451.22	375.67
451.59	373.13
451.96	370.49
452.33	367.00
452.70	363.85
453.07	360.06
453.43	355.85
453.80	352.22
454.17	348.66
454.54	345.28
454.91	341.75
455.28	338.23
455.65	335.04
456.02	332.14
456.38	329.31
456.75	325.97
457.12	322.96
457.49	320.06
457.86	316.98
458.23	314.79
458.59	312.30
458.96	309.73
459.33	307.23
459.70	304.86
460.07	303.17
460.43	301.17
460.80	299.28
461.17	297.70
461.54	295.87
461.91	294.20
462.27	292.48
462.64	290.91
463.01	289.31
463.38	287.91
463.74	285.87
464.11	284.49
464.48	283.17
464.85	281.79
465.21	280.92
465.58	279.93
465.95	278.46
466.32	277.36
466.68	276.22
467.05	275.23
467.42	274.18
467.78	272.90
468.15	271.86
468.52	271.01
468.88	269.89
469.25	268.95
469.62	268.23
469.98	267.45
470.35	266.75
470.72	266.03
471.08	265.03
471.45	264.50
471.82	263.84
472.18	263.29
472.55	262.88
472.92	262.09
473.28	261.39
473.65	260.83
474.02	260.31
474.38	260.00
474.75	259.68
475.11	259.16
475.48	258.95
475.85	258.55
476.21	258.35
476.58	258.19
476.94	258.01
477.31	257.75
477.67	257.43
478.04	257.22
478.41	257.06
478.77	257.37
479.14	257.21
479.50	257.17
479.87	257.05
480.23	257.02
480.60	256.99
480.96	257.14
481.33	257.42
481.69	257.50
482.06	257.65
482.42	257.76
482.79	258.07
483.15	258.20
483.52	258.48
483.88	258.64
484.25	258.86
484.61	259.17
484.98	259.50
485.34	260.02
485.71	260.47
486.07	260.97
486.44	261.10
486.80	261.56
487.17	262.08
487.53	262.81
487.90	263.48
488.26	264.35
488.62	265.14
488.99	265.80
489.35	266.62
489.72	267.35
490.08	268.11
490.44	268.96
490.81	270.03
491.17	270.95
491.54	272.11
491.90	273.32
492.26	274.48
492.63	275.71
492.99	276.90
493.36	278.17
493.72	279.56
494.08	280.99
494.45	282.56
494.81	284.15
495.17	285.65
495.54	287.30
495.90	288.95
496.26	290.67
496.63	292.58
496.99	294.45
497.35	296.47
497.72	298.63
498.08	300.73
498.44	302.88
498.80	305.35
499.17	307.61
499.53	310.00
499.89	312.55
500.26	315.10
500.62	317.68
500.98	320.58
501.34	323.41
501.71	326.40
502.07	329.29
502.43	332.28
502.79	335.33
503.16	338.42
503.52	341.66
503.88	344.85
504.24	348.16
504.60	351.66
504.97	355.25
505.33	358.80
505.69	362.72
506.05	366.60
506.41	370.37
506.78	374.14
507.14	378.01
507.50	382.03
507.86	386.15
508.22	390.48
508.59	394.48
508.95	398.62
509.31	402.88
509.67	407.26
510.03	411.89
510.39	416.61
510.75	421.32
511.12	426.00
511.48	431.04
511.84	435.91
512.20	440.76
512.56	445.76
512.92	450.86
513.28	455.95
513.64	461.03
514.00	466.34
514.37	471.77
514.73	477.30
515.09	482.68
515.45	488.08
515.81	493.58
516.17	499.24
516.53	504.86
516.89	510.56
517.25	516.30
517.61	522.03
517.97	527.74
518.33	533.69
518.69	539.52
519.05	545.30
519.41	551.39
519.77	557.67
520.13	563.57
520.49	569.52
520.85	575.45
521.21	581.65
521.57	587.88
521.93	593.87
522.29	600.10
522.65	606.34
523.01	612.62
523.37	618.66
523.73	624.88
524.09	631.18
524.45	637.48
524.81	643.76
525.17	650.02
525.53	656.43
525.89	662.77
526.25	669.21
526.61	675.59
526.97	681.80
527.33	688.02
527.68	694.65
528.04	701.00
528.40	707.29
528.76	713.61
529.12	719.87
529.48	726.43
529.84	732.82
530.20	739.13
530.56	745.68
530.91	752.42
531.27	759.03
531.63	765.38
531.99	771.61
532.35	777.90
532.71	784.13
533.07	790.72
533.42	797.24
533.78	803.39
534.14	809.37
534.50	815.19
534.86	821.25
535.21	826.89
535.57	832.99
535.93	838.72
536.29	844.51
536.65	850.24
537.00	855.71
537.36	860.98
537.72	866.41
538.08	871.54
538.44	876.68
538.79	881.71
539.15	887.00
539.51	892.40
539.87	897.68
540.22	902.64
540.58	907.58
540.94	912.37
541.29	917.04
541.65	921.65
542.01	926.49
542.37	930.95
542.72	935.69
543.08	939.91
543.44	944.58
543.79	948.57
544.15	952.61
544.51	956.95
544.87	961.35
545.22	965.43
545.58	969.23
545.94	972.77
546.29	976.35
546.65	979.67
547.01	982.78
547.36	986.08
547.72	989.61
548.07	992.41
548.43	994.96
548.79	997.58
549.14	1000.20
549.50	1002.83
549.86	1005.18
550.21	1007.38
550.57	1010.00
550.92	1011.88
551.28	1014.02
551.64	1016.23
551.99	1018.24
552.35	1019.79
552.70	1021.49
553.06	1023.58
553.41	1025.35
553.77	1027.21
554.13	1029.00
554.48	1030.80
554.84	1032.42
555.19	1033.46
555.55	1034.72
555.90	1035.70
556.26	1036.91
556.61	1038.04
556.97	1038.93
557.32	1040.04
557.68	1040.71
558.03	1041.25
558.39	1041.99
558.74	1043.05
559.10	1043.71
559.45	1044.35
559.81	1045.05
560.16	1045.52
560.52	1046.17
560.87	1046.62
561.23	1046.84
561.58	1047.15
561.94	1047.06
562.29	1046.82
562.64	1047.12
563.00	1047.22
563.35	1047.67
563.71	1048.23
564.06	1048.57
564.42	1048.88
564.77	1049.00
565.12	1049.30
565.48	1049.56
565.83	1049.85
566.19	1049.81
566.54	1049.40
566.89	1049.14
567.25	1049.16
567.60	1048.80
567.96	1048.27
568.31	1048.18
568.66	1047.82
569.02	1047.06
569.37	1046.35
569.72	1045.65
570.08	1044.75
570.43	1043.88
570.78	1042.72
571.14	1041.32
571.49	1039.92
571.84	1038.75
572.20	1037.32
572.55	1036.28
572.90	1034.47
573.26	1032.57
573.61	1030.74
573.96	1029.32
574.31	1027.35
574.67	1025.18
575.02	1023.16
575.37	1020.87
575.72	1018.40
576.08	1016.35
576.43	1014.29
576.78	1012.52
577.13	1010.76
577.49	1008.94
577.84	1006.90
578.19	1005.30
578.54	1003.64
578.90	1001.97
579.25	999.85
579.60	997.75
579.95	995.18
580.30	993.40
580.66	991.86
581.01	989.83
581.36	987.53
581.71	985.44
582.06	983.66
582.42	981.80
582.77	979.73
583.12	977.80
583.47	975.76
583.82	974.08
584.17	971.85
584.53	969.84
584.88	967.72
585.23	965.66
585.58	963.29
585.93	960.86
586.28	959.05
586.63	957.00
586.98	955.14
587.34	953.60
587.69	951.38
588.04	949.02
588.39	946.77
588.74	944.57
589.09	942.76
589.44	940.09
589.79	938.04
590.14	935.91
590.49	933.62
590.84	931.36
591.19	929.20
591.54	927.07
591.89	924.47
592.25	922.19
592.60	919.61
592.95	917.21
593.30	914.67
593.65	911.79
594.00	909.07
594.35	907.64
594.70	904.99
595.05	902.73
595.40	900.29
595.75	897.71
596.10	895.56
596.45	892.94
596.80	891.16
597.15	889.03
597.50	886.60
597.85	884.48
598.19	881.85
598.54	879.51
598.89	877.30
599.24	875.55
599.59	873.39
599.94	871.43
600.29	869.30
600.64	867.26
600.99	864.98
601.34	863.16
601.69	859.65
602.04	857.18
602.39	854.73
602.74	852.65
603.08	850.85
603.43	848.96
603.78	846.88
604.13	844.51
604.48	842.20
604.83	840.49
605.18	838.60
605.53	836.70
605.87	834.28
606.22	832.32
606.57	829.82
606.92	827.37
607.27	825.08
607.62	822.73
607.96	820.53
608.31	818.57
608.66	816.10
609.01	813.78
609.36	811.46
609.70	809.12
610.05	806.57
610.40	804.01
610.75	801.14
611.10	798.63
611.44	795.63
611.79	792.64
612.14	789.45
612.49	786.10
612.83	783.29
613.18	780.26
613.53	777.05
613.88	773.91
614.22	771.17
614.57	768.11
614.92	765.30
615.27	762.18
615.61	758.99
615.96	756.11
616.31	753.42
616.65	750.75
617.00	747.74
617.35	744.81
617.70	741.73
618.04	738.53
618.39	735.23
618.74	732.52
619.08	729.67
619.43	726.84
619.78	724.03
620.12	721.07
620.47	718.34
620.82	715.10
621.16	712.13
621.51	709.10
621.85	706.28
622.20	703.18
622.55	700.35
622.89	697.38
623.24	694.45
623.59	691.40
623.93	688.32
624.28	685.57
624.62	683.02
624.97	680.35
625.32	677.62
625.66	674.99
626.01	672.16
626.35	669.39
626.70	666.50
627.04	664.00
627.39	661.17
627.73	658.45
628.08	656.05
628.43	653.31
628.77	650.35
629.12	647.44
629.46	645.03
629.81	642.27
630.15	639.61
630.50	636.76
630.84	633.88
631.19	631.13
631.53	628.37
631.88	625.27
632.22	622.17
632.57	619.74
632.91	617.03
633.26	614.29
633.60	611.60
633.95	609.14
634.29	606.24
634.64	603.63
634.98	600.73
635.32	598.12
635.67	595.63
636.01	593.26
636.36	590.69
636.70	588.07
637.05	585.55
637.39	583.09
637.73	580.74
638.08	578.81
638.42	576.59
638.77	574.11
639.11	571.55
639.45	569.26
639.80	566.44
640.14	563.79
640.49	561.23
640.83	558.73
641.17	556.27
641.52	553.87
641.86	551.48
642.20	549.24
642.55	546.63
642.89	544.18
643.23	541.50
643.58	539.38
643.92	536.61
644.26	534.13
644.61	531.49
644.95	528.92
645.29	526.06
645.64	523.44
645.98	521.06
646.32	518.84
646.66	516.26
647.01	513.90
647.35	511.64
647.69	509.20
648.04	506.87
648.38	504.31
648.72	501.82
649.06	499.34
649.41	496.81
649.75	494.43
650.09	492.07
650.43	489.76
650.78	487.02
651.12	484.65
651.46	482.42
651.80	480.33
652.14	478.10
652.49	475.90
652.83	473.54
653.17	470.96
653.51	468.47
653.85	466.35
654.20	464.11
654.54	461.84
654.88	459.57
655.22	457.28
655.56	455.09
655.90	452.79
656.25	450.47
656.59	448.34
656.93	446.02
657.27	443.92
657.61	441.62
657.95	439.65
658.29	437.50
658.64	435.35
658.98	433.01
659.32	430.78
659.66	428.47
660.00	426.27
660.34	424.28
660.68	422.19
661.02	420.00
661.36	418.04
661.70	415.96
662.05	414.08
662.39	412.30
662.73	410.37
663.07	408.74
663.41	406.91
663.75	404.97
664.09	403.16
664.43	401.08
664.77	399.35
665.11	397.34
665.45	395.65
665.79	393.80
666.13	392.10
666.47	390.30
666.81	388.68
667.15	386.98
667.49	385.38
667.83	383.80
668.17	382.18
668.51	380.56
668.85	379.04
669.19	377.55
669.53	375.75
669.87	374.19
670.21	372.53
670.55	371.01
670.89	369.73
671.23	368.34
671.57	366.81
671.91	365.23
672.25	363.80
672.58	362.38
672.92	360.91
673.26	359.55
673.60	358.30
673.94	356.89
674.28	355.52
674.62	354.19
674.96	352.86
675.30	351.63
675.64	350.19
675.97	348.85
676.31	347.54
676.65	346.27
676.99	345.11
677.33	343.83
677.67	342.53
678.01	341.09
678.34	339.83
678.68	338.72
679.02	337.53
679.36	336.34
679.70	335.16
680.04	334.03
680.37	332.76
680.71	331.51
681.05	330.32
681.39	329.25
681.73	328.04
682.06	326.83
682.40	325.65
682.74	324.66
683.08	323.51
683.42	322.28
683.75	321.19
684.09	319.98
684.43	318.86
684.77	317.67
685.10	316.54
685.44	315.32
685.78	314.14
686.12	313.20
686.45	312.11
686.79	311.01
687.13	310.03
687.46	308.97
687.80	307.89
688.14	306.70
688.48	305.66
688.81	304.65
689.15	303.72
689.49	302.70
689.82	301.73
690.16	300.63
690.50	299.60
690.83	298.60
691.17	297.51
691.51	296.47
691.84	295.61
692.18	294.66
692.52	293.83
692.85	293.15
693.19	292.26
693.52	291.45
693.86	290.53
694.20	289.64
694.53	288.81
694.87	287.95
695.21	287.24
695.54	286.32
695.88	285.43
696.21	284.49
696.55	283.66
696.88	282.72
697.22	282.01
697.56	281.34
697.89	280.50
698.23	279.84
698.56	279.00
698.90	278.27
699.23	277.54
699.57	276.78
699.90	275.90
700.24	275.07
700.58	274.35
700.91	273.69
701.25	273.17
701.58	272.49
701.92	271.92
702.25	271.23
702.59	270.52
702.92	269.90
703.26	269.30
703.59	268.76
703.93	268.47
704.26	267.90
704.60	267.25
704.93	266.67
705.26	265.99
705.60	265.51
705.93	264.77
706.27	264.28
706.60	263.78
706.94	263.34
707.27	262.75
707.61	262.11
707.94	261.50
708.27	260.69
708.61	260.10
708.94	259.50
709.28	259.02
709.61	258.51
709.94	258.05
710.28	257.59
710.61	257.08
710.95	256.28
711.28	255.98
711.61	255.49
711.95	255.03
712.28	254.56
712.61	254.08
712.95	253.88
713.28	253.55
713.61	253.06
713.95	252.47
714.28	252.04
714.61	251.64
714.95	251.24
715.28	250.82
715.61	250.29
715.95	249.86
716.28	249.34
716.61	249.00
716.95	248.46
717.28	247.99
717.61	247.51
717.94	247.03
718.28	246.38
718.61	245.93
718.94	245.60
719.27	245.31
719.61	244.94
719.94	244.49
720.27	243.94
720.60	243.55
720.94	243.24
721.27	243.00
721.60	242.67
721.93	242.30
722.27	242.06
722.60	241.86
722.93	241.49
723.26	241.31
723.59	240.94
723.93	240.76
724.26	240.55
724.59	240.31
724.92	240.14
725.25	239.99
725.59	239.74
725.92	239.50
726.25	239.15
726.58	238.97
726.91	238.66
727.24	238.44
727.57	238.15
727.91	237.80
728.24	237.48
728.57	237.22
728.90	237.03
729.23	236.73
729.56	236.65
729.89	236.42
730.22	236.06
730.55	235.89
730.89	235.56
731.22	235.25
731.55	234.93
731.88	234.71
732.21	234.34
732.54	234.02
732.87	233.77
733.20	233.55
733.53	233.29
733.86	233.05
734.19	232.74
734.52	232.54
734.85	232.65
735.18	232.38
735.51	232.28
735.84	232.08
736.17	231.89
736.50	231.54
736.83	231.75
737.16	231.53
737.49	231.30
737.82	231.06
738.15	230.92
738.48	230.71
738.81	230.42
739.14	230.26
739.47	230.08
739.80	229.81
740.13	229.68
740.46	229.36
740.79	229.15
741.12	229.01
741.45	228.79
741.78	228.36
742.11	228.28
742.44	227.99
742.77	227.92
743.10	227.60
743.43	227.39
743.75	226.80
744.08	227.16
744.41	226.91
744.74	226.74
745.07	226.47
745.40	226.39
745.73	226.36
746.06	226.18
746.39	226.12
746.71	225.96
747.04	225.67
747.37	225.54
747.70	225.43
748.03	225.25
748.36	225.20
748.68	225.00
749.01	224.78
749.34	224.60
749.67	224.37
750.00	224.38
750.33	224.47
750.65	224.41
750.98	223.76
751.31	223.65
751.64	223.50
751.97	223.58
752.29	223.42
752.62	223.17
752.95	223.06
753.28	222.89
753.60	222.68
753.93	222.67
754.26	222.57
754.59	222.38
754.91	222.28
755.24	222.11
755.57	222.07
755.90	221.93
756.22	221.80
756.55	221.65
756.88	221.41
757.20	221.05
757.53	220.84
757.86	220.78
758.19	220.67
758.51	220.55
758.84	220.26
759.17	220.10
759.49	219.98
759.82	219.98
760.15	219.92
760.47	219.83
760.80	219.63
761.13	219.57
761.45	219.45
761.78	219.33
762.11	219.25
762.43	219.05
762.76	218.99
763.08	219.04
763.41	218.95
763.74	218.92
764.06	218.83
764.39	218.68
764.71	218.55
765.04	218.45
765.37	218.38
765.69	218.33
766.02	218.26
766.34	218.14
766.67	217.91
767.00	217.85
767.32	218.02
767.65	218.16
767.97	217.97
768.30	217.90
768.62	217.83
768.95	217.65
769.27	217.65
769.60	217.59
769.92	217.31
770.25	217.17
770.57	217.05
770.90	217.00
771.22	216.97
771.55	216.96
771.87	216.96
772.20	216.90
772.52	217.11
772.85	217.44
773.17	217.36
773.50	217.27
773.82	217.14
774.15	216.85
774.47	216.60
774.80	216.63
775.12	216.58
775.45	216.56
775.77	216.59
776.09	216.60
776.42	216.52
776.74	216.68
777.07	216.59
777.39	216.58
777.72	216.46
778.04	216.46
778.36	216.39
778.69	216.29
779.01	216.27
779.33	215.91
779.66	215.48
779.98	215.47
780.31	215.47
780.63	215.55
780.95	215.67
781.28	215.60
781.60	215.42
781.92	215.40
782.25	215.39
782.57	215.43
782.89	215.36
783.22	215.30
783.54	215.21
783.86	215.20
784.19	215.13
784.51	215.22
784.83	215.08
785.16	215.02
785.48	215.05
785.80	215.05
786.12	215.01
786.45	215.05
786.77	215.06
787.09	215.01
787.42	214.91
787.74	214.79
788.06	214.79
788.38	214.78
788.71	214.70
789.03	214.65
789.35	214.60
789.67	214.48
789.99	214.51
790.32	214.40
790.64	214.40
790.96	214.67
791.28	214.54
791.61	214.56
791.93	214.50
792.25	214.45
792.57	214.63
792.89	214.58
793.21	214.51
793.54	214.46
793.86	214.54
794.18	214.50
794.50	214.45
794.82	214.45
795.14	214.49
795.47	214.59
795.79	214.59
796.11	214.45
796.43	214.40
796.75	214.37
797.07	214.36
797.39	214.32
797.71	214.04
798.04	213.97
798.36	213.93
798.68	213.91
799.00	213.89
799.32	213.70
799.64	213.75
799.96	213.75
800.28	213.75
800.60	213.56
800.92	213.52
801.24	213.49
801.56	213.49
801.89	213.46
802.21	213.40
802.53	213.29
802.85	213.34
803.17	213.49
803.49	213.44
803.81	213.43
804.13	213.36
804.45	213.35
804.77	213.43
805.09	213.46
805.41	213.43
805.73	213.35
806.05	213.26
806.37	213.26
806.69	213.23
807.01	213.15
807.33	213.21
807.65	213.15
807.97	213.27
808.28	213.19
808.60	213.21
808.92	213.17
809.24	213.39
809.56	213.29
809.88	213.17
810.20	213.15
810.52	213.30
810.84	213.31
811.16	213.21
811.48	213.18
811.80	213.32
812.12	213.37
812.43	213.45
812.75	213.44
813.07	213.35
813.39	213.40
813.71	213.36
814.03	213.30
814.35	213.34
814.67	213.22
814.98	213.19
815.30	213.11
815.62	213.05
815.94	212.82
816.26	212.88
816.58	212.80
816.89	212.79
817.21	212.62
817.53	212.61
817.85	212.64
818.17	212.60
818.48	212.41
818.80	212.40
819.12	212.33
819.44	212.31
819.76	212.32
820.07	212.22
820.39	212.18
820.71	212.26
821.03	212.25
821.34	212.28
821.66	212.38
821.98	212.42
822.30	212.43
822.61	212.64
822.93	212.59
823.25	212.57
823.57	212.62
823.88	212.68
824.20	212.71
824.52	212.75
824.83	212.74
825.15	212.72
825.47	212.73
825.79	212.74
826.10	212.68
826.42	212.59
826.74	212.73
827.05	212.75
827.37	212.72
827.69	212.68
828.00	212.66
828.32	212.64
828.64	212.62
828.95	212.71
829.27	212.61
829.58	212.59
829.90	212.67
830.22	212.67
830.53	212.59
830.85	212.56
831.17	212.50
831.48	212.50
831.80	212.46
832.11	212.39
832.43	212.33
832.75	212.35
833.06	212.57
833.38	212.44
833.69	212.43
834.01	212.42
834.32	212.42
834.64	212.35
834.96	212.36
835.27	212.32
835.59	212.28
835.90	212.20
836.22	212.20
836.53	212.16
836.85	212.11
837.16	212.36
837.48	212.30
837.79	212.45
838.11	212.37
838.42	212.40
838.74	212.45
839.05	212.41
839.37	212.40
839.68	212.20
840.00	212.15
840.31	212.23
840.63	212.18
840.94	212.09
841.26	212.09
841.57	212.03
841.88	212.13
842.20	212.05
842.51	212.00
842.83	211.97
843.14	212.24
843.46	212.23
843.77	212.16
844.08	212.13
844.40	212.03
844.71	212.04
845.03	211.99
845.34	211.93
845.65	211.98
845.97	211.93
846.28	211.96
846.60	212.05
846.91	211.99
847.22	211.99
847.54	212.08
847.85	212.08
848.16	212.01
848.48	211.96
848.79	212.05
849.10	212.07
849.42	212.10
849.73	211.78
850.04	211.80
850.36	211.54
850.67	211.65
850.98	211.61
851.30	211.64
851.61	211.74
851.92	211.71
852.23	211.78
852.55	211.88
852.86	211.89
853.17	211.85
853.49	211.90
853.80	211.95
854.11	212.03
854.42	212.06
854.74	212.10
855.05	212.06
855.36	211.95
855.67	212.00
855.99	211.98
856.30	212.46
856.61	212.42
856.92	212.49
857.23	212.45
857.55	212.45
857.86	212.49
858.17	212.49
858.48	212.47
858.79	212.33
859.11	212.32
859.42	212.35
859.73	212.30
860.04	212.27
860.35	212.20
860.66	212.04
860.98	212.01
861.29	212.08
861.60	212.08
861.91	212.15
862.22	212.02
862.53	212.00
862.84	211.50
863.16	211.54
863.47	211.52
863.78	211.50
864.09	211.46
864.40	211.41
864.71	211.36
865.02	211.41
865.33	211.44
865.64	211.36
865.95	211.29
866.27	211.45
866.58	211.42
866.89	211.44
867.20	211.45
867.51	211.41
867.82	211.37
868.13	211.45
868.44	211.29
868.75	211.45
869.06	211.42
869.37	211.50
869.68	211.38
869.99	211.48
870.30	211.49
870.61	211.54
870.92	211.53
871.23	211.53
871.54	211.53
871.85	211.62
872.16	211.66
872.47	211.70
872.78	211.54
873.09	211.57
873.40	211.57
873.71	211.61
874.02	211.65
874.33	211.57
874.64	211.47
874.95	211.60
875.26	211.47
875.56	211.53
875.87	211.47
876.18	211.45
876.49	211.72
876.80	211.66
877.11	211.63
877.42	211.64
877.73	211.65
878.04	211.63
878.35	211.55
878.66	211.55
878.96	211.53
879.27	211.54
879.58	211.54
879.89	211.50
880.20	211.52
880.51	211.49
880.82	211.48
881.12	211.43
881.43	211.28
881.74	211.27
882.05	211.23
882.36	211.27
882.67	211.31
882.97	210.87
883.28	210.89
883.59	210.80
883.90	210.83
884.21	210.84
884.51	210.80
884.82	210.78
885.13	210.74
885.44	210.73
885.74	210.72
886.05	210.64
886.36	210.72
886.67	210.63
886.98	210.77
887.28	210.83
887.59	210.91
887.90	210.97
888.20	210.93
888.51	211.00
888.82	210.88
889.13	210.89
889.43	211.15
889.74	211.14
890.05	211.25
890.35	211.17
890.66	211.11
890.97	211.14
891.28	211.14
891.58	211.18
891.89	211.11
892.20	211.05
892.50	211.02
892.81	210.86
893.12	210.90
893.42	210.77
893.73	210.76
894.04	210.76
894.34	210.76
894.65	210.75
894.95	210.69
895.26	210.77
895.57	210.99
895.87	210.76
896.18	210.85
896.48	210.85
896.79	210.84
897.10	210.91
897.40	210.90
897.71	210.91
898.01	210.87
898.32	210.95
898.63	210.99
898.93	211.03
899.24	211.12
899.54	211.09
899.85	211.06
900.15	211.02
900.46	211.05
900.76	211.12
901.07	211.15
901.38	211.25
901.68	211.23
901.99	211.05
902.29	211.10
902.60	211.05
902.90	210.95
903.21	211.04
903.51	211.05
903.82	211.10
904.12	211.08
904.43	211.18
904.73	211.20
905.03	211.25
905.34	211.62
905.64	211.60
905.95	211.57
906.25	211.56
906.56	211.56
906.86	211.51
907.17	211.46
907.47	211.48
907.77	211.37
908.08	211.28
908.38	211.26
908.69	211.25
908.99	211.31
909.30	211.36
909.60	211.30
909.90	211.26
910.21	211.18
910.51	211.15
910.81	211.10
911.12	211.10
911.42	211.10
911.73	210.75
912.03	210.82
912.33	210.92
912.64	210.93
912.94	210.91
913.24	210.81
913.55	210.80
913.85	210.78
914.15	210.85
914.46	210.98
914.76	210.97
915.06	210.94
915.37	210.84
915.67	210.76
915.97	210.77
916.27	210.73
916.58	210.79
916.88	210.83
917.18	210.80
917.49	211.00
917.79	210.99
918.09	211.02
918.39	211.02
918.70	211.00
919.00	211.04
919.30	211.28
919.60	211.35
919.91	211.41
920.21	211.38
920.51	211.25
920.81	211.25
921.12	211.29
921.42	211.24
921.72	211.33
922.02	211.45
922.32	211.51
922.63	211.56
922.93	211.70
923.23	211.74
923.53	211.74
923.83	211.52
924.13	211.51
924.44	211.56
924.74	211.69
925.04	211.74
925.34	211.75
925.64	211.55
925.94	211.52
926.24	211.64
926.55	211.66
926.85	211.76
927.15	211.76
927.45	211.80
927.75	211.84
928.05	211.80
928.35	211.67
928.65	211.71
928.95	211.65
929.26	211.53
929.56	211.50
929.86	211.47
930.16	211.40
930.46	211.30
930.76	211.22
931.06	211.05
931.36	210.88
931.66	210.90
931.96	210.91
932.26	210.99
932.56	210.85
932.86	210.87
933.16	210.86
933.46	210.84
933.76	210.70
934.06	210.78
934.36	210.86
934.66	210.90
934.96	210.83
935.26	210.94
935.56	211.00
935.86	210.95
936.16	210.94
936.46	210.96
936.76	210.95
937.06	210.97
937.36	211.00
937.66	211.07
937.96	211.04
938.26	211.04
938.56	210.97
938.86	210.97
939.16	211.05
939.46	211.09
939.76	211.05
940.06	211.11
940.35	211.06
940.65	210.91
940.95	210.95
941.25	210.94
941.55	210.84
941.85	210.77
942.15	210.84
942.45	210.97
942.75	211.00
943.04	211.10
943.34	211.20
943.64	211.07
943.94	211.06
944.24	211.03
944.54	210.98
944.84	210.99
945.13	210.93
945.43	210.87
945.73	210.79
946.03	210.84
946.33	210.82
946.62	210.75
946.92	210.76
947.22	210.77
947.52	210.74
947.82	210.86
948.11	210.85
948.41	210.78
948.71	210.68
949.01	210.72
949.31	210.76
949.60	210.70
949.90	210.80
950.20	210.84
950.50	210.86
950.79	210.83
951.09	210.90
951.39	210.93
951.69	210.88
951.98	210.96
952.28	210.89
952.58	210.90
952.87	210.92
953.17	210.98
953.47	210.92
953.76	210.90
954.06	210.74
954.36	210.69
954.66	210.65
954.95	210.75
955.25	210.72
955.55	210.68
955.84	210.57
956.14	210.57
956.44	210.52
956.73	210.47
957.03	210.54
957.32	210.47
957.62	210.43
957.92	210.50
958.21	210.45
958.51	210.90
958.81	210.96
959.10	210.94
959.40	210.97
959.69	210.99
959.99	210.99
960.29	211.06
960.58	211.01
960.88	211.24
961.17	211.18
961.47	211.24
961.76	211.18
962.06	211.22
962.36	211.20
962.65	211.19
962.95	211.16
963.24	211.14
963.54	211.16
963.83	211.20
964.13	211.18
964.42	211.07
964.72	210.86
965.01	210.86
965.31	210.82
965.60	210.75
965.90	211.06
966.19	211.10
966.49	211.09
966.78	211.18
967.08	211.10
967.37	211.06
967.67	210.98
967.96	211.02
968.26	211.01
968.55	211.01
968.85	211.06
969.14	211.07
969.43	211.05
969.73	211.08
970.02	211.10
970.32	211.06
970.61	211.10
970.91	210.92
971.20	210.86
971.49	210.95
971.79	210.99
972.08	210.68
972.38	210.62
972.67	210.62
972.96	210.63
973.26	210.57
973.55	210.71
973.85	210.62
974.14	210.61
974.43	210.65
974.73	210.64
975.02	210.61
975.31	210.60
975.61	210.59
975.90	210.52
976.19	210.45
976.49	210.55
976.78	210.62
977.07	210.57
977.37	210.57
977.66	210.58
977.95	210.58
978.24	210.60
978.54	210.68
978.83	210.63
979.12	210.65
979.42	210.65
979.71	210.59
980.00	210.64
980.29	210.66
980.59	210.58
980.88	210.67
981.17	210.68
981.46	210.76
981.76	210.76
982.05	210.84
982.34	210.90
982.63	210.83
982.93	210.81
983.22	210.89
983.51	210.90
983.80	210.98
984.09	210.96
984.39	210.96
984.68	210.86
984.97	210.93
985.26	210.83
985.55	210.85
985.85	210.75
986.14	210.84
986.43	210.86
986.72	210.87
987.01	210.78
987.30	210.79
987.59	210.81
987.89	210.89
988.18	210.76
988.47	210.69
988.76	210.65
989.05	210.59
989.34	210.55
989.63	210.62
989.92	210.46
990.22	210.42
990.51	210.38
990.80	210.42
991.09	210.45
991.38	210.52
991.67	210.44
991.96	210.38
992.25	210.43
992.54	210.36
992.83	210.36
993.12	210.35
993.41	210.42
993.70	210.50
993.99	210.54
994.28	210.70
994.58	210.76
994.87	210.84
995.16	210.89
995.45	210.90
995.74	210.85
996.03	210.97
996.32	211.08
996.61	211.15
996.90	211.25
997.19	211.16
997.48	211.14
997.77	211.13
998.06	211.16
998.34	211.09
998.63	211.10
998.92	211.14
999.21	211.22
999.50	211.21
999.79	211.09
1000.08	210.99
1000.37	210.90
1000.66	210.84
1000.95	210.95
1001.24	210.99
1001.53	210.96
1001.82	210.90
1002.11	210.80
1002.40	210.73
1002.68	210.87
1002.97	211.00
1003.26	210.98
1003.55	210.95
1003.84	211.01
1004.13	211.12
1004.42	211.09
1004.71	211.10
1004.99	211.05
1005.28	211.15
1005.57	211.14
1005.86	211.17
1006.15	211.19
1006.44	211.20
1006.72	211.33
1007.01	211.16
1007.30	211.13
1007.59	211.12
1007.88	211.14
1008.17	211.15
1008.45	211.19
1008.74	211.00
1009.03	210.88
1009.32	210.97
1009.60	211.02
1009.89	211.03
1010.18	210.94
1010.47	210.94
1010.76	210.88
1011.04	210.93
1011.33	210.90
1011.62	210.86
1011.91	210.82
1012.19	210.85
1012.48	210.80
1012.77	210.75
1013.05	210.92
1013.34	210.80
1013.63	210.76
1013.92	210.75
1014.20	210.78
1014.49	210.73
1014.78	210.80
1015.06	210.67
1015.35	210.62
1015.64	210.64
1015.92	210.60
1016.21	210.58
1016.50	210.58
1016.78	210.65
1017.07	210.69
1017.36	210.58
1017.64	210.59
1017.93	210.61
1018.22	210.52
1018.50	210.56
1018.79	210.49
1019.08	210.39
1019.36	210.54
1019.65	210.58
1019.93	210.63
1020.22	210.64
1020.51	210.83
1020.79	210.78
1021.08	209.40
1021.36	210.45
1021.65	210.05
1021.94	211.45
1022.22	211.35
1022.51	210.45
1022.79	211.10
1023.08	210.85
1023.36	214.70
1023.65	210.35
>>>>>End Processed Spectral Data<<<<<
