SpectraSuite Data File
++++++++++++++++++++++++++++++++++++
Date: Mon Feb 25 17:00:52 EST 2013
User: group
Dark Spectrum Present: No
Reference Spectrum Present: No
Number of Sampled Component Spectra: 1
Spectrometers: USB2E7196
Integration Time (usec): 104000 (USB2E7196)
Spectra Averaged: 20 (USB2E7196)
Boxcar Smoothing: 10 (USB2E7196)
Correct for Electrical Dark: No (USB2E7196)
Strobe/Lamp Enabled: No (USB2E7196)
Correct for Detector Non-linearity: No (USB2E7196)
Correct for Stray Light: No (USB2E7196)
Number of Pixels in Processed Spectrum: 2048
>>>>>Begin Processed Spectral Data<<<<<
339.09	0.00
339.48	199.80
339.86	200.75
340.24	201.00
340.63	203.50
341.01	208.55
341.39	204.95
341.78	208.30
342.16	209.00
342.54	208.15
342.93	198.29
343.31	208.29
343.69	208.77
344.07	209.21
344.46	209.68
344.84	210.03
345.22	210.12
345.60	210.37
345.99	210.45
346.37	210.52
346.75	210.62
347.13	210.74
347.52	210.76
347.90	210.97
348.28	211.03
348.66	211.11
349.05	211.00
349.43	211.06
349.81	211.07
350.19	211.11
350.57	211.13
350.96	211.23
351.34	211.32
351.72	211.37
352.10	211.47
352.48	211.49
352.87	211.49
353.25	211.54
353.63	211.69
354.01	211.79
354.39	211.88
354.77	211.97
355.15	212.13
355.54	212.14
355.92	212.06
356.30	212.05
356.68	212.36
357.06	212.47
357.44	212.47
357.82	212.50
358.20	212.55
358.58	212.55
358.97	212.62
359.35	212.67
359.73	212.77
360.11	212.84
360.49	212.89
360.87	212.95
361.25	213.04
361.63	213.19
362.01	213.25
362.39	213.29
362.77	213.37
363.15	213.42
363.53	213.44
363.91	213.54
364.29	213.57
364.67	213.24
365.05	213.20
365.43	213.27
365.81	213.32
366.19	213.52
366.57	213.71
366.95	213.71
367.33	213.67
367.71	213.72
368.09	213.77
368.47	213.80
368.85	213.77
369.23	213.81
369.61	213.60
369.99	213.66
370.37	213.66
370.75	213.74
371.13	213.64
371.51	213.59
371.89	213.52
372.27	213.57
372.65	213.62
373.03	213.59
373.41	213.46
373.78	213.39
374.16	213.17
374.54	213.04
374.92	212.96
375.30	212.94
375.68	212.82
376.06	212.69
376.44	212.59
376.82	212.54
377.19	212.48
377.57	212.39
377.95	212.30
378.33	212.20
378.71	212.02
379.09	212.01
379.47	212.02
379.84	211.94
380.22	211.83
380.60	211.68
380.98	211.62
381.36	211.65
381.73	211.47
382.11	211.45
382.49	211.48
382.87	211.43
383.25	211.45
383.62	211.76
384.00	211.66
384.38	211.68
384.76	211.84
385.13	211.97
385.51	211.94
385.89	211.81
386.27	211.78
386.64	211.74
387.02	211.65
387.40	211.53
387.78	211.49
388.15	211.52
388.53	211.48
388.91	211.42
389.29	211.42
389.66	211.55
390.04	211.48
390.42	211.47
390.79	211.44
391.17	211.37
391.55	210.98
391.92	211.03
392.30	211.01
392.68	210.81
393.05	210.75
393.43	210.74
393.81	210.75
394.18	210.69
394.56	210.68
394.94	210.72
395.31	210.65
395.69	210.77
396.06	210.80
396.44	210.79
396.82	210.80
397.19	210.90
397.57	210.89
397.95	210.93
398.32	210.83
398.70	210.92
399.07	211.02
399.45	211.00
399.82	211.05
400.20	211.05
400.58	211.13
400.95	211.04
401.33	211.20
401.70	211.48
402.08	211.57
402.45	211.64
402.83	211.81
403.20	211.96
403.58	211.99
403.95	212.12
404.33	212.33
404.71	212.46
405.08	212.77
405.46	212.86
405.83	213.16
406.21	213.37
406.58	213.51
406.96	213.79
407.33	214.10
407.70	214.40
408.08	215.01
408.45	215.35
408.83	215.71
409.20	216.02
409.58	216.16
409.95	216.68
410.33	217.18
410.70	217.58
411.08	218.16
411.45	218.75
411.82	219.22
412.20	219.88
412.57	220.76
412.95	221.08
413.32	221.95
413.69	222.62
414.07	223.54
414.44	224.51
414.82	225.38
415.19	226.54
415.56	227.59
415.94	228.61
416.31	229.96
416.68	231.36
417.06	232.98
417.43	234.55
417.81	236.20
418.18	237.96
418.55	239.77
418.93	241.81
419.30	243.85
419.67	246.11
420.04	248.37
420.42	250.56
420.79	253.55
421.16	256.35
421.54	259.39
421.91	262.30
422.28	265.35
422.66	268.61
423.03	271.97
423.40	275.38
423.77	278.91
424.15	282.50
424.52	286.20
424.89	290.20
425.26	294.28
425.64	298.21
426.01	302.37
426.38	306.90
426.75	311.31
427.13	315.95
427.50	320.82
427.87	325.83
428.24	331.00
428.61	335.83
428.99	341.17
429.36	346.89
429.73	352.53
430.10	358.32
430.47	364.21
430.85	370.29
431.22	376.76
431.59	383.82
431.96	390.45
432.33	397.93
432.70	405.14
433.08	413.46
433.45	421.34
433.82	429.31
434.19	438.03
434.56	446.80
434.93	455.34
435.30	463.66
435.68	473.08
436.05	482.32
436.42	491.53
436.79	499.97
437.16	509.18
437.53	519.09
437.90	528.65
438.27	538.27
438.64	548.23
439.01	557.42
439.38	565.58
439.75	573.63
440.13	582.67
440.50	591.25
440.87	598.44
441.24	605.82
441.61	613.98
441.98	620.36
442.35	627.69
442.72	634.76
443.09	641.86
443.46	646.44
443.83	649.71
444.20	652.64
444.57	656.73
444.94	659.02
445.31	661.25
445.68	663.70
446.05	665.01
446.42	664.69
446.79	664.37
447.16	663.86
447.53	663.94
447.90	661.12
448.27	658.38
448.64	654.11
449.01	651.24
449.37	645.62
449.74	640.13
450.11	633.46
450.48	626.10
450.85	618.50
451.22	611.93
451.59	605.85
451.96	599.98
452.33	591.81
452.70	584.40
453.07	575.58
453.43	566.54
453.80	557.85
454.17	549.50
454.54	541.75
454.91	533.29
455.28	524.85
455.65	517.29
456.02	509.92
456.38	503.46
456.75	495.19
457.12	488.30
457.49	481.32
457.86	474.46
458.23	468.86
458.59	462.66
458.96	456.49
459.33	450.94
459.70	445.23
460.07	440.94
460.43	435.89
460.80	431.17
461.17	426.85
461.54	422.54
461.91	418.41
462.27	414.02
462.64	410.39
463.01	406.36
463.38	402.48
463.74	398.15
464.11	394.63
464.48	391.66
464.85	388.41
465.21	386.09
465.58	383.53
465.95	380.32
466.32	377.70
466.68	374.85
467.05	372.10
467.42	369.42
467.78	366.53
468.15	363.87
468.52	361.90
468.88	359.35
469.25	357.05
469.62	355.11
469.98	353.10
470.35	351.19
470.72	349.34
471.08	347.31
471.45	345.66
471.82	344.14
472.18	342.34
472.55	340.98
472.92	339.34
473.28	337.82
473.65	336.46
474.02	335.07
474.38	334.02
474.75	332.94
475.11	331.98
475.48	331.23
475.85	330.47
476.21	329.54
476.58	328.92
476.94	328.37
477.31	327.70
477.67	327.11
478.04	326.65
478.41	326.31
478.77	326.29
479.14	325.96
479.50	325.66
479.87	325.61
480.23	325.49
480.60	325.22
480.96	325.10
481.33	325.33
481.69	325.41
482.06	325.45
482.42	325.63
482.79	325.70
483.15	325.83
483.52	326.35
483.88	326.66
484.25	326.94
484.61	327.32
484.98	327.79
485.34	328.47
485.71	329.16
486.07	329.89
486.44	330.32
486.80	331.09
487.17	331.82
487.53	332.86
487.90	333.93
488.26	335.23
488.62	336.47
488.99	337.49
489.35	338.67
489.72	340.02
490.08	341.36
490.44	342.75
490.81	344.30
491.17	345.57
491.54	347.19
491.90	348.76
492.26	350.35
492.63	352.12
492.99	353.69
493.36	355.49
493.72	357.48
494.08	359.44
494.45	361.54
494.81	363.72
495.17	365.76
495.54	367.94
495.90	370.11
496.26	372.35
496.63	374.71
496.99	377.13
497.35	379.55
497.72	381.99
498.08	384.49
498.44	386.97
498.80	389.69
499.17	392.30
499.53	395.04
499.89	397.75
500.26	400.32
500.62	402.88
500.98	405.53
501.34	408.01
501.71	410.70
502.07	413.22
502.43	415.77
502.79	418.32
503.16	420.76
503.52	423.26
503.88	425.65
504.24	427.96
504.60	430.23
504.97	432.53
505.33	434.81
505.69	437.31
506.05	439.47
506.41	441.45
506.78	443.54
507.14	445.39
507.50	447.42
507.86	449.38
508.22	451.33
508.59	453.05
508.95	454.71
509.31	456.53
509.67	458.25
510.03	459.78
510.39	461.30
510.75	462.89
511.12	464.22
511.48	465.49
511.84	466.80
512.20	468.11
512.56	469.39
512.92	470.55
513.28	471.65
513.64	472.70
514.00	473.67
514.37	474.66
514.73	475.63
515.09	476.54
515.45	477.21
515.81	477.97
516.17	478.52
516.53	479.19
516.89	479.51
517.25	479.77
517.61	480.26
517.97	480.41
518.33	480.58
518.69	480.92
519.05	481.26
519.41	481.49
519.77	481.76
520.13	481.89
520.49	481.89
520.85	481.80
521.21	481.99
521.57	482.10
521.93	481.87
522.29	482.11
522.65	482.06
523.01	482.27
523.37	482.22
523.73	482.44
524.09	482.39
524.45	482.52
524.81	482.66
525.17	482.89
525.53	483.37
525.89	483.65
526.25	483.83
526.61	484.01
526.97	484.35
527.33	484.83
527.68	485.57
528.04	486.20
528.40	486.61
528.76	486.99
529.12	487.63
529.48	488.60
529.84	489.17
530.20	489.86
530.56	490.54
530.91	491.61
531.27	492.48
531.63	493.58
531.99	494.52
532.35	495.66
532.71	496.67
533.07	497.85
533.42	499.42
533.78	500.68
534.14	502.14
534.50	503.38
534.86	504.79
535.21	505.77
535.57	507.16
535.93	508.51
536.29	510.19
536.65	511.81
537.00	513.25
537.36	514.86
537.72	516.48
538.08	518.28
538.44	519.88
538.79	521.64
539.15	523.52
539.51	525.50
539.87	527.42
540.22	529.33
540.58	531.44
540.94	533.22
541.29	535.27
541.65	537.18
542.01	539.38
542.37	541.52
542.72	543.83
543.08	545.97
543.44	548.56
543.79	550.59
544.15	552.92
544.51	555.51
544.87	557.94
545.22	560.45
545.58	562.83
545.94	565.31
546.29	567.85
546.65	570.31
547.01	572.88
547.36	575.48
547.72	578.05
548.07	580.52
548.43	582.93
548.79	585.42
549.14	588.15
549.50	590.77
549.86	593.24
550.21	595.84
550.57	598.82
550.92	601.33
551.28	604.23
551.64	606.83
551.99	609.49
552.35	612.05
552.70	614.62
553.06	617.25
553.41	619.76
553.77	622.48
554.13	625.02
554.48	627.66
554.84	630.35
555.19	633.17
555.55	635.85
555.90	638.43
556.26	641.00
556.61	643.35
556.97	645.60
557.32	648.08
557.68	650.36
558.03	652.51
558.39	654.81
558.74	657.15
559.10	659.44
559.45	661.67
559.81	664.15
560.16	666.36
560.52	668.64
560.87	671.14
561.23	673.18
561.58	675.67
561.94	677.80
562.29	679.75
562.64	681.80
563.00	683.70
563.35	685.88
563.71	688.25
564.06	690.55
564.42	692.98
564.77	695.22
565.12	697.47
565.48	699.83
565.83	701.99
566.19	704.12
566.54	706.04
566.89	708.00
567.25	709.93
567.60	712.17
567.96	714.35
568.31	716.46
568.66	718.50
569.02	719.81
569.37	721.21
569.72	722.86
570.08	724.28
570.43	725.75
570.78	727.15
571.14	728.06
571.49	729.02
571.84	730.12
572.20	730.86
572.55	731.74
572.90	732.16
573.26	732.79
573.61	733.23
573.96	733.85
574.31	734.10
574.67	734.26
575.02	734.23
575.37	733.96
575.72	733.54
576.08	733.50
576.43	733.63
576.78	733.68
577.13	733.77
577.49	733.85
577.84	733.82
578.19	733.94
578.54	734.12
578.90	734.44
579.25	734.22
579.60	734.11
579.95	733.89
580.30	733.91
580.66	733.76
581.01	733.53
581.36	733.29
581.71	733.07
582.06	733.16
582.42	732.94
582.77	732.70
583.12	732.46
583.47	732.06
583.82	731.83
584.17	731.45
584.53	731.17
584.88	730.59
585.23	730.22
585.58	729.49
585.93	728.90
586.28	728.24
586.63	727.83
586.98	727.33
587.34	726.94
587.69	726.24
588.04	725.78
588.39	725.15
588.74	724.31
589.09	723.79
589.44	722.75
589.79	722.02
590.14	721.44
590.49	720.59
590.84	719.80
591.19	719.10
591.54	718.36
591.89	716.93
592.25	716.25
592.60	714.93
592.95	713.76
593.30	712.42
593.65	711.03
594.00	709.58
594.35	709.17
594.70	707.73
595.05	706.49
595.40	705.01
595.75	703.62
596.10	702.50
596.45	701.23
596.80	700.14
597.15	698.99
597.50	697.50
597.85	696.31
598.19	694.86
598.54	693.43
598.89	692.17
599.24	691.29
599.59	689.80
599.94	688.65
600.29	687.37
600.64	686.18
600.99	684.88
601.34	683.74
601.69	681.49
602.04	680.00
602.39	678.52
602.74	677.29
603.08	676.26
603.43	675.06
603.78	673.46
604.13	671.95
604.48	670.56
604.83	669.48
605.18	668.44
605.53	667.05
605.87	665.62
606.22	664.12
606.57	662.54
606.92	660.91
607.27	659.57
607.62	658.06
607.96	656.79
608.31	655.40
608.66	653.68
609.01	652.13
609.36	650.41
609.70	648.85
610.05	647.11
610.40	645.20
610.75	643.24
611.10	641.64
611.44	639.80
611.79	637.71
612.14	635.73
612.49	633.35
612.83	631.40
613.18	629.32
613.53	627.26
613.88	625.25
614.22	623.41
614.57	621.34
614.92	619.33
615.27	617.21
615.61	615.14
615.96	613.19
616.31	611.29
616.65	609.66
617.00	607.74
617.35	605.67
617.70	603.62
618.04	601.53
618.39	599.34
618.74	597.18
619.08	595.21
619.43	593.12
619.78	591.42
620.12	589.45
620.47	587.63
620.82	585.39
621.16	583.06
621.51	580.91
621.85	578.86
622.20	576.94
622.55	574.69
622.89	572.48
623.24	570.35
623.59	568.10
623.93	565.98
624.28	563.95
624.62	562.24
624.97	560.37
625.32	558.40
625.66	556.61
626.01	554.66
626.35	552.67
626.70	550.66
627.04	548.61
627.39	546.60
627.73	544.68
628.08	543.21
628.43	541.50
628.77	539.48
629.12	537.46
629.46	535.52
629.81	533.62
630.15	531.83
630.50	529.93
630.84	528.05
631.19	526.14
631.53	524.10
631.88	521.75
632.22	519.67
632.57	517.87
632.91	515.89
633.26	514.14
633.60	512.15
633.95	510.45
634.29	508.42
634.64	506.68
634.98	504.58
635.32	502.65
635.67	500.85
636.01	499.07
636.36	497.10
636.70	495.31
637.05	493.48
637.39	491.69
637.73	490.10
638.08	488.55
638.42	486.91
638.77	485.30
639.11	483.72
639.45	481.95
639.80	480.08
640.14	478.03
640.49	476.14
640.83	474.40
641.17	472.47
641.52	470.65
641.86	468.82
642.20	467.13
642.55	465.07
642.89	463.17
643.23	461.35
643.58	459.72
643.92	457.84
644.26	456.17
644.61	454.43
644.95	452.53
645.29	450.60
645.64	448.78
645.98	447.05
646.32	445.34
646.66	443.38
647.01	441.60
647.35	440.01
647.69	438.24
648.04	436.68
648.38	434.91
648.72	433.33
649.06	431.53
649.41	429.66
649.75	428.02
650.09	426.49
650.43	424.89
650.78	423.02
651.12	421.26
651.46	419.47
651.80	417.82
652.14	416.20
652.49	414.59
652.83	412.86
653.17	411.05
653.51	409.20
653.85	407.77
654.20	406.20
654.54	404.51
654.88	402.80
655.22	401.15
655.56	399.45
655.90	397.71
656.25	396.07
656.59	394.50
656.93	392.93
657.27	391.31
657.61	389.47
657.95	388.01
658.29	386.50
658.64	385.05
658.98	383.28
659.32	381.52
659.66	379.85
660.00	378.24
660.34	376.60
660.68	375.07
661.02	373.41
661.36	371.89
661.70	370.42
662.05	369.00
662.39	367.51
662.73	366.35
663.07	365.13
663.41	363.83
663.75	362.41
664.09	361.00
664.43	359.42
664.77	358.18
665.11	356.81
665.45	355.49
665.79	354.29
666.13	353.06
666.47	351.88
666.81	350.64
667.15	349.34
667.49	348.19
667.83	347.11
668.17	345.93
668.51	344.79
668.85	343.74
669.19	342.77
669.53	341.55
669.87	340.15
670.21	338.77
670.55	337.54
670.89	336.68
671.23	335.66
671.57	334.66
671.91	333.66
672.25	332.60
672.58	331.68
672.92	330.49
673.26	329.44
673.60	328.32
673.94	327.38
674.28	326.47
674.62	325.54
674.96	324.53
675.30	323.58
675.64	322.53
675.97	321.45
676.31	320.32
676.65	319.34
676.99	318.57
677.33	317.72
677.67	316.88
678.01	315.73
678.34	314.78
678.68	313.91
679.02	312.87
679.36	311.80
679.70	310.75
680.04	309.82
680.37	308.91
680.71	308.03
681.05	307.08
681.39	306.02
681.73	305.06
682.06	304.19
682.40	303.33
682.74	302.52
683.08	301.80
683.42	300.92
683.75	300.14
684.09	299.18
684.43	298.20
684.77	297.30
685.10	296.51
685.44	295.65
685.78	294.74
686.12	293.96
686.45	293.33
686.79	292.45
687.13	291.65
687.46	290.86
687.80	290.15
688.14	289.36
688.48	288.70
688.81	287.98
689.15	287.18
689.49	286.35
689.82	285.52
690.16	284.64
690.50	283.77
690.83	282.96
691.17	282.15
691.51	281.45
691.84	280.77
692.18	279.96
692.52	279.23
692.85	278.67
693.19	278.13
693.52	277.42
693.86	276.74
694.20	276.05
694.53	275.41
694.87	274.73
695.21	274.07
695.54	273.36
695.88	272.65
696.21	271.98
696.55	271.37
696.88	270.72
697.22	270.04
697.56	269.56
697.89	268.88
698.23	268.23
698.56	267.65
698.90	267.04
699.23	266.40
699.57	265.76
699.90	265.07
700.24	264.31
700.58	263.68
700.91	263.22
701.25	262.91
701.58	262.41
701.92	261.91
702.25	261.35
702.59	260.83
702.92	260.36
703.26	259.80
703.59	259.35
703.93	259.13
704.26	258.71
704.60	258.20
704.93	257.80
705.26	257.38
705.60	256.92
705.93	256.36
706.27	256.11
706.60	255.78
706.94	255.61
707.27	255.16
707.61	254.77
707.94	254.27
708.27	253.59
708.61	253.12
708.94	252.64
709.28	252.19
709.61	251.79
709.94	251.39
710.28	251.04
710.61	250.66
710.95	250.06
711.28	249.79
711.61	249.40
711.95	249.06
712.28	248.70
712.61	248.33
712.95	248.27
713.28	248.03
713.61	247.52
713.95	247.00
714.28	246.77
714.61	246.31
714.95	245.89
715.28	245.55
715.61	245.17
715.95	244.87
716.28	244.59
716.61	244.24
716.95	243.85
717.28	243.48
717.61	243.16
717.94	242.75
718.28	242.21
718.61	241.86
718.94	241.51
719.27	241.17
719.61	240.90
719.94	240.40
720.27	239.89
720.60	239.65
720.94	239.30
721.27	238.96
721.60	238.83
721.93	238.62
722.27	238.52
722.60	238.37
722.93	238.07
723.26	237.81
723.59	237.49
723.93	237.27
724.26	237.04
724.59	236.71
724.92	236.58
725.25	236.46
725.59	236.18
725.92	235.93
726.25	235.72
726.58	235.42
726.91	235.18
727.24	234.95
727.57	234.76
727.91	234.47
728.24	234.22
728.57	233.90
728.90	233.80
729.23	233.40
729.56	233.25
729.89	233.04
730.22	232.86
730.55	232.65
730.89	232.35
731.22	232.13
731.55	231.94
731.88	231.63
732.21	231.36
732.54	231.23
732.87	231.04
733.20	230.81
733.53	230.67
733.86	230.57
734.19	230.37
734.52	230.14
734.85	230.19
735.18	229.99
735.51	229.89
735.84	229.54
736.17	229.42
736.50	229.09
736.83	229.27
737.16	229.06
737.49	228.97
737.82	228.90
738.15	228.75
738.48	228.56
738.81	228.45
739.14	228.25
739.47	228.08
739.80	227.95
740.13	227.80
740.46	227.65
740.79	227.38
741.12	227.19
741.45	227.01
741.78	226.70
742.11	226.63
742.44	226.40
742.77	226.33
743.10	226.21
743.43	226.10
743.75	225.56
744.08	225.83
744.41	225.65
744.74	225.46
745.07	225.30
745.40	225.24
745.73	225.27
746.06	225.17
746.39	225.01
746.71	224.81
747.04	224.63
747.37	224.44
747.70	224.30
748.03	224.18
748.36	224.07
748.68	224.05
749.01	223.87
749.34	223.73
749.67	223.66
750.00	223.55
750.33	223.64
750.65	223.60
750.98	223.06
751.31	222.93
751.64	222.84
751.97	222.91
752.29	222.79
752.62	222.50
752.95	222.36
753.28	222.24
753.60	222.18
753.93	222.26
754.26	222.14
754.59	222.04
754.91	221.97
755.24	221.87
755.57	221.60
755.90	221.44
756.22	221.33
756.55	221.15
756.88	221.02
757.20	220.66
757.53	220.47
757.86	220.44
758.19	220.34
758.51	220.23
758.84	219.97
759.17	219.83
759.49	219.72
759.82	219.76
760.15	219.68
760.47	219.56
760.80	219.32
761.13	219.30
761.45	219.14
761.78	219.04
762.11	219.01
762.43	218.97
762.76	218.87
763.08	218.82
763.41	218.82
763.74	218.74
764.06	218.60
764.39	218.50
764.71	218.39
765.04	218.36
765.37	218.25
765.69	218.15
766.02	218.07
766.34	218.01
766.67	217.91
767.00	218.01
767.32	218.09
767.65	218.23
767.97	218.14
768.30	218.16
768.62	218.09
768.95	217.91
769.27	217.85
769.60	217.87
769.92	217.79
770.25	217.57
770.57	217.49
770.90	217.51
771.22	217.40
771.55	217.35
771.87	217.31
772.20	217.33
772.52	217.56
772.85	217.95
773.17	217.90
773.50	217.78
773.82	217.54
774.15	217.36
774.47	217.10
774.80	217.04
775.12	216.90
775.45	216.82
775.77	216.83
776.09	216.80
776.42	216.72
776.74	216.65
777.07	216.60
777.39	216.41
777.72	216.31
778.04	216.36
778.36	216.22
778.69	216.13
779.01	216.03
779.33	215.63
779.66	215.16
779.98	215.09
780.31	215.08
780.63	215.22
780.95	215.23
781.28	215.17
781.60	215.11
781.92	215.14
782.25	215.06
782.57	214.93
782.89	214.82
783.22	214.78
783.54	214.75
783.86	214.76
784.19	214.76
784.51	214.82
784.83	214.78
785.16	214.84
785.48	214.81
785.80	214.76
786.12	214.74
786.45	214.70
786.77	214.67
787.09	214.63
787.42	214.43
787.74	214.47
788.06	214.47
788.38	214.35
788.71	214.23
789.03	214.23
789.35	214.34
789.67	214.28
789.99	214.25
790.32	214.22
790.64	214.24
790.96	214.52
791.28	214.39
791.61	214.34
791.93	214.27
792.25	214.17
792.57	214.40
792.89	214.30
793.21	214.30
793.54	214.21
793.86	214.11
794.18	214.14
794.50	213.97
794.82	213.90
795.14	213.91
795.47	214.01
795.79	214.02
796.11	213.88
796.43	213.83
796.75	213.79
797.07	213.76
797.39	213.70
797.71	213.38
798.04	213.40
798.36	213.42
798.68	213.38
799.00	213.37
799.32	213.20
799.64	213.33
799.96	213.34
800.28	213.40
800.60	213.44
800.92	213.44
801.24	213.43
801.56	213.43
801.89	213.44
802.21	213.37
802.53	213.29
802.85	213.37
803.17	213.55
803.49	213.50
803.81	213.45
804.13	213.43
804.45	213.45
804.77	213.42
805.09	213.41
805.41	213.41
805.73	213.40
806.05	213.30
806.37	213.20
806.69	213.15
807.01	213.15
807.33	213.05
807.65	212.93
807.97	213.05
808.28	213.02
808.60	212.99
808.92	212.89
809.24	213.07
809.56	212.97
809.88	212.84
810.20	212.82
810.52	212.94
810.84	212.92
811.16	212.90
811.48	212.88
811.80	212.90
812.12	212.83
812.43	212.86
812.75	212.86
813.07	212.86
813.39	212.82
813.71	212.75
814.03	212.71
814.35	212.77
814.67	212.54
814.98	212.50
815.30	212.47
815.62	212.50
815.94	212.24
816.26	212.23
816.58	212.09
816.89	212.15
817.21	212.02
817.53	211.96
817.85	211.93
818.17	211.92
818.48	211.77
818.80	211.87
819.12	211.80
819.44	211.73
819.76	211.67
820.07	211.71
820.39	211.69
820.71	211.80
821.03	211.67
821.34	211.68
821.66	211.73
821.98	211.80
822.30	211.75
822.61	212.02
822.93	212.04
823.25	212.07
823.57	212.00
823.88	212.12
824.20	212.22
824.52	212.22
824.83	212.20
825.15	212.16
825.47	212.11
825.79	212.17
826.10	212.15
826.42	212.04
826.74	212.06
827.05	212.03
827.37	211.97
827.69	212.01
828.00	212.00
828.32	211.99
828.64	211.89
828.95	212.09
829.27	211.96
829.58	211.96
829.90	212.02
830.22	212.02
830.53	211.84
830.85	211.68
831.17	211.62
831.48	211.61
831.80	211.61
832.11	211.63
832.43	211.59
832.75	211.56
833.06	211.82
833.38	211.67
833.69	211.74
834.01	211.78
834.32	211.71
834.64	211.71
834.96	211.65
835.27	211.67
835.59	211.53
835.90	211.45
836.22	211.41
836.53	211.38
836.85	211.35
837.16	211.72
837.48	211.74
837.79	211.85
838.11	211.84
838.42	211.82
838.74	211.78
839.05	211.70
839.37	211.67
839.68	211.47
840.00	211.50
840.31	211.40
840.63	211.34
840.94	211.33
841.26	211.28
841.57	211.37
841.88	211.42
842.20	211.37
842.51	211.34
842.83	211.39
843.14	211.67
843.46	211.70
843.77	211.51
844.08	211.54
844.40	211.45
844.71	211.49
845.03	211.54
845.34	211.56
845.65	211.56
845.97	211.62
846.28	211.70
846.60	211.68
846.91	211.69
847.22	211.68
847.54	211.80
847.85	211.80
848.16	211.79
848.48	211.70
848.79	211.87
849.10	211.89
849.42	211.83
849.73	211.49
850.04	211.44
850.36	211.36
850.67	211.42
850.98	211.40
851.30	211.36
851.61	211.36
851.92	211.36
852.23	211.49
852.55	211.53
852.86	211.49
853.17	211.54
853.49	211.66
853.80	211.74
854.11	211.79
854.42	211.84
854.74	211.75
855.05	211.84
855.36	211.68
855.67	211.71
855.99	211.79
856.30	212.29
856.61	212.33
856.92	212.34
857.23	212.30
857.55	212.30
857.86	212.34
858.17	212.43
858.48	212.30
858.79	212.22
859.11	212.23
859.42	212.23
859.73	212.21
860.04	212.19
860.35	212.11
860.66	211.94
860.98	211.96
861.29	212.09
861.60	212.05
861.91	212.11
862.22	212.07
862.53	212.02
862.84	211.51
863.16	211.58
863.47	211.55
863.78	211.57
864.09	211.60
864.40	211.56
864.71	211.55
865.02	211.57
865.33	211.58
865.64	211.48
865.95	211.50
866.27	211.67
866.58	211.64
866.89	211.65
867.20	211.67
867.51	211.65
867.82	211.56
868.13	211.63
868.44	211.55
868.75	211.66
869.06	211.67
869.37	211.74
869.68	211.68
869.99	211.72
870.30	211.73
870.61	211.78
870.92	211.75
871.23	211.68
871.54	211.86
871.85	211.93
872.16	211.99
872.47	211.88
872.78	211.72
873.09	211.68
873.40	211.66
873.71	211.65
874.02	211.66
874.33	211.63
874.64	211.49
874.95	211.59
875.26	211.45
875.56	211.32
875.87	211.31
876.18	211.30
876.49	211.63
876.80	211.60
877.11	211.48
877.42	211.51
877.73	211.49
878.04	211.36
878.35	211.35
878.66	211.34
878.96	211.39
879.27	211.39
879.58	211.41
879.89	211.48
880.20	211.54
880.51	211.48
880.82	211.40
881.12	211.47
881.43	211.27
881.74	211.32
882.05	211.41
882.36	211.40
882.67	211.35
882.97	210.98
883.28	210.89
883.59	210.95
883.90	210.97
884.21	211.04
884.51	211.08
884.82	211.03
885.13	211.03
885.44	211.07
885.74	211.08
886.05	211.11
886.36	211.01
886.67	211.03
886.98	211.24
887.28	211.37
887.59	211.36
887.90	211.45
888.20	211.37
888.51	211.41
888.82	211.34
889.13	211.38
889.43	211.69
889.74	211.78
890.05	211.77
890.35	211.73
890.66	211.72
890.97	211.65
891.28	211.60
891.58	211.64
891.89	211.56
892.20	211.52
892.50	211.49
892.81	211.49
893.12	211.42
893.42	211.20
893.73	211.16
894.04	211.17
894.34	211.27
894.65	211.25
894.95	211.23
895.26	211.26
895.57	211.48
895.87	211.10
896.18	211.08
896.48	211.08
896.79	211.06
897.10	211.07
897.40	211.09
897.71	211.13
898.01	211.11
898.32	211.20
898.63	211.21
898.93	211.24
899.24	211.26
899.54	211.25
899.85	211.34
900.15	211.36
900.46	211.33
900.76	211.24
901.07	211.28
901.38	211.35
901.68	211.40
901.99	211.21
902.29	211.26
902.60	211.23
902.90	211.21
903.21	211.27
903.51	211.21
903.82	211.29
904.12	211.30
904.43	211.30
904.73	211.30
905.03	211.27
905.34	211.58
905.64	211.57
905.95	211.56
906.25	211.45
906.56	211.39
906.86	211.42
907.17	211.44
907.47	211.46
907.77	211.35
908.08	211.26
908.38	211.23
908.69	211.26
908.99	211.34
909.30	211.42
909.60	211.41
909.90	211.48
910.21	211.38
910.51	211.27
910.81	211.28
911.12	211.25
911.42	211.29
911.73	210.94
912.03	210.97
912.33	211.07
912.64	211.08
912.94	211.17
913.24	211.04
913.55	210.97
913.85	210.93
914.15	211.00
914.46	211.06
914.76	211.09
915.06	211.05
915.37	210.97
915.67	210.93
915.97	210.90
916.27	210.78
916.58	210.79
916.88	210.88
917.18	210.84
917.49	211.11
917.79	211.10
918.09	211.05
918.39	211.13
918.70	211.04
919.00	211.10
919.30	211.25
919.60	211.30
919.91	211.25
920.21	211.26
920.51	211.15
920.81	211.08
921.12	211.12
921.42	211.13
921.72	211.19
922.02	211.15
922.32	211.17
922.63	211.20
922.93	211.34
923.23	211.35
923.53	211.30
923.83	211.01
924.13	211.00
924.44	211.07
924.74	211.10
925.04	211.24
925.34	211.22
925.64	211.01
925.94	211.08
926.24	211.35
926.55	211.32
926.85	211.42
927.15	211.42
927.45	211.41
927.75	211.36
928.05	211.30
928.35	211.30
928.65	211.39
928.95	211.41
929.26	211.26
929.56	211.27
929.86	211.30
930.16	211.36
930.46	211.34
930.76	211.35
931.06	211.20
931.36	211.05
931.66	211.12
931.96	211.19
932.26	211.21
932.56	211.04
932.86	211.05
933.16	211.11
933.46	211.09
933.76	211.02
934.06	211.17
934.36	211.33
934.66	211.33
934.96	211.24
935.26	211.25
935.56	211.34
935.86	211.31
936.16	211.26
936.46	211.20
936.76	211.14
937.06	211.09
937.36	211.08
937.66	211.10
937.96	211.02
938.26	210.90
938.56	210.82
938.86	210.79
939.16	210.91
939.46	210.85
939.76	210.87
940.06	210.88
940.35	210.71
940.65	210.55
940.95	210.62
941.25	210.58
941.55	210.50
941.85	210.46
942.15	210.55
942.45	210.68
942.75	210.65
943.04	210.76
943.34	210.82
943.64	210.79
943.94	210.76
944.24	210.75
944.54	210.80
944.84	210.81
945.13	210.73
945.43	210.58
945.73	210.57
946.03	210.59
946.33	210.47
946.62	210.49
946.92	210.47
947.22	210.35
947.52	210.34
947.82	210.45
948.11	210.43
948.41	210.35
948.71	210.25
949.01	210.29
949.31	210.20
949.60	210.16
949.90	210.21
950.20	210.13
950.50	210.13
950.79	210.06
951.09	210.15
951.39	210.14
951.69	210.18
951.98	210.17
952.28	210.21
952.58	210.22
952.87	210.24
953.17	210.27
953.47	210.30
953.76	210.33
954.06	210.22
954.36	210.22
954.66	210.19
954.95	210.30
955.25	210.37
955.55	210.39
955.84	210.34
956.14	210.45
956.44	210.56
956.73	210.52
957.03	210.50
957.32	210.47
957.62	210.56
957.92	210.60
958.21	210.69
958.51	211.03
958.81	211.15
959.10	211.11
959.40	211.21
959.69	211.25
959.99	211.19
960.29	211.22
960.58	211.19
960.88	211.28
961.17	211.21
961.47	211.22
961.76	211.20
962.06	211.33
962.36	211.23
962.65	211.22
962.95	211.25
963.24	211.28
963.54	211.30
963.83	211.34
964.13	211.32
964.42	211.17
964.72	210.89
965.01	210.93
965.31	210.99
965.60	210.87
965.90	211.07
966.19	211.12
966.49	211.13
966.78	211.05
967.08	211.04
967.37	210.97
967.67	210.88
967.96	210.96
968.26	210.90
968.55	210.93
968.85	210.94
969.14	210.97
969.43	211.00
969.73	210.91
970.02	210.87
970.32	210.91
970.61	210.99
970.91	210.90
971.20	210.87
971.49	210.82
971.79	210.87
972.08	210.60
972.38	210.62
972.67	210.68
972.96	210.81
973.26	210.78
973.55	210.92
973.85	210.95
974.14	210.96
974.43	211.02
974.73	210.97
975.02	210.93
975.31	210.90
975.61	210.86
975.90	210.85
976.19	210.78
976.49	210.80
976.78	210.79
977.07	210.78
977.37	210.74
977.66	210.83
977.95	210.80
978.24	210.85
978.54	210.98
978.83	210.91
979.12	210.90
979.42	210.78
979.71	210.78
980.00	210.72
980.29	210.64
980.59	210.54
980.88	210.61
981.17	210.67
981.46	210.67
981.76	210.68
982.05	210.85
982.34	210.87
982.63	210.83
982.93	210.75
983.22	210.85
983.51	210.87
983.80	210.83
984.09	210.90
984.39	210.88
984.68	210.76
984.97	210.79
985.26	210.78
985.55	210.91
985.85	210.89
986.14	210.98
986.43	211.03
986.72	211.04
987.01	210.98
987.30	211.00
987.59	211.00
987.89	211.09
988.18	210.90
988.47	210.91
988.76	210.94
989.05	210.99
989.34	210.90
989.63	210.99
989.92	210.97
990.22	210.83
990.51	210.81
990.80	210.74
991.09	210.75
991.38	210.72
991.67	210.75
991.96	210.66
992.25	210.65
992.54	210.62
992.83	210.67
993.12	210.69
993.41	210.74
993.70	210.87
993.99	210.94
994.28	211.01
994.58	211.09
994.87	211.09
995.16	211.07
995.45	211.08
995.74	210.98
996.03	211.07
996.32	211.15
996.61	211.27
996.90	211.32
997.19	211.31
997.48	211.30
997.77	211.19
998.06	211.23
998.34	211.23
998.63	211.24
998.92	211.19
999.21	211.18
999.50	211.15
999.79	211.10
1000.08	211.04
1000.37	211.03
1000.66	210.99
1000.95	211.10
1001.24	211.16
1001.53	211.20
1001.82	211.17
1002.11	211.05
1002.40	211.15
1002.68	211.18
1002.97	211.40
1003.26	211.38
1003.55	211.30
1003.84	211.34
1004.13	211.41
1004.42	211.35
1004.71	211.39
1004.99	211.37
1005.28	211.46
1005.57	211.45
1005.86	211.34
1006.15	211.25
1006.44	211.20
1006.72	211.22
1007.01	211.08
1007.30	211.05
1007.59	210.97
1007.88	211.02
1008.17	211.08
1008.45	210.96
1008.74	210.87
1009.03	210.73
1009.32	210.70
1009.60	210.80
1009.89	210.72
1010.18	210.60
1010.47	210.61
1010.76	210.59
1011.04	210.59
1011.33	210.51
1011.62	210.50
1011.91	210.56
1012.19	210.56
1012.48	210.57
1012.77	210.62
1013.05	210.70
1013.34	210.72
1013.63	210.75
1013.92	210.74
1014.20	210.65
1014.49	210.68
1014.78	210.62
1015.06	210.51
1015.35	210.47
1015.64	210.50
1015.92	210.62
1016.21	210.64
1016.50	210.64
1016.78	210.68
1017.07	210.70
1017.36	210.67
1017.64	210.61
1017.93	210.59
1018.22	210.61
1018.50	210.64
1018.79	210.55
1019.08	210.44
1019.36	210.38
1019.65	210.28
1019.93	210.35
1020.22	210.49
1020.51	210.67
1020.79	210.70
1021.08	210.15
1021.36	210.50
1021.65	210.40
1021.94	210.10
1022.22	210.20
1022.51	208.80
1022.79	212.00
1023.08	212.05
1023.36	214.85
1023.65	210.20
>>>>>End Processed Spectral Data<<<<<
