SpectraSuite Data File
++++++++++++++++++++++++++++++++++++
Date: Mon Feb 25 17:13:59 EST 2013
User: group
Dark Spectrum Present: No
Reference Spectrum Present: No
Number of Sampled Component Spectra: 1
Spectrometers: USB2E7196
Integration Time (usec): 104000 (USB2E7196)
Spectra Averaged: 20 (USB2E7196)
Boxcar Smoothing: 10 (USB2E7196)
Correct for Electrical Dark: No (USB2E7196)
Strobe/Lamp Enabled: No (USB2E7196)
Correct for Detector Non-linearity: No (USB2E7196)
Correct for Stray Light: No (USB2E7196)
Number of Pixels in Processed Spectrum: 2048
>>>>>Begin Processed Spectral Data<<<<<
339.09	0.00
339.48	198.10
339.86	201.45
340.24	201.20
340.63	203.65
341.01	211.10
341.39	205.85
341.78	208.20
342.16	210.05
342.54	208.55
342.93	199.05
343.31	209.04
343.69	209.63
344.07	210.06
344.46	210.60
344.84	210.99
345.22	211.05
345.60	211.30
345.99	211.48
346.37	211.55
346.75	211.72
347.13	211.80
347.52	211.81
347.90	212.01
348.28	212.03
348.66	212.11
349.05	211.97
349.43	212.03
349.81	211.97
350.19	211.96
350.57	212.00
350.96	212.06
351.34	212.24
351.72	212.30
352.10	212.40
352.48	212.40
352.87	212.37
353.25	212.36
353.63	212.43
354.01	212.48
354.39	212.59
354.77	212.56
355.15	212.71
355.54	212.77
355.92	212.73
356.30	212.73
356.68	212.95
357.06	213.12
357.44	213.10
357.82	213.12
358.20	213.19
358.58	213.20
358.97	213.26
359.35	213.24
359.73	213.32
360.11	213.25
360.49	213.28
360.87	213.31
361.25	213.38
361.63	213.47
362.01	213.46
362.39	213.38
362.77	213.47
363.15	213.40
363.53	213.41
363.91	213.32
364.29	213.34
364.67	213.06
365.05	212.90
365.43	212.99
365.81	213.04
366.19	213.22
366.57	213.23
366.95	213.16
367.33	213.12
367.71	213.12
368.09	213.25
368.47	213.18
368.85	213.16
369.23	213.17
369.61	213.01
369.99	213.09
370.37	213.11
370.75	213.20
371.13	213.06
371.51	212.94
371.89	212.97
372.27	212.95
372.65	212.94
373.03	213.05
373.41	212.94
373.78	212.86
374.16	212.61
374.54	212.51
374.92	212.45
375.30	212.45
375.68	212.39
376.06	212.38
376.44	212.35
376.82	212.34
377.19	212.33
377.57	212.37
377.95	212.26
378.33	212.20
378.71	211.99
379.09	212.04
379.47	212.04
379.84	211.96
380.22	211.80
380.60	211.78
380.98	211.65
381.36	211.63
381.73	211.57
382.11	211.63
382.49	211.69
382.87	211.65
383.25	211.60
383.62	211.98
384.00	211.86
384.38	211.82
384.76	211.92
385.13	211.98
385.51	211.88
385.89	211.80
386.27	211.80
386.64	211.81
387.02	211.72
387.40	211.75
387.78	211.79
388.15	211.86
388.53	211.77
388.91	211.74
389.29	211.69
389.66	211.75
390.04	211.65
390.42	211.68
390.79	211.67
391.17	211.69
391.55	211.28
391.92	211.25
392.30	211.32
392.68	211.18
393.05	211.10
393.43	211.16
393.81	211.14
394.18	211.12
394.56	211.12
394.94	211.20
395.31	211.11
395.69	211.13
396.06	211.21
396.44	211.28
396.82	211.33
397.19	211.47
397.57	211.43
397.95	211.56
398.32	211.45
398.70	211.45
399.07	211.50
399.45	211.47
399.82	211.49
400.20	211.51
400.58	211.55
400.95	211.47
401.33	211.55
401.70	211.88
402.08	211.91
402.45	211.97
402.83	212.12
403.20	212.16
403.58	212.20
403.95	212.33
404.33	212.42
404.71	212.49
405.08	212.74
405.46	212.76
405.83	212.75
406.21	212.91
406.58	213.12
406.96	213.20
407.33	213.36
407.70	213.53
408.08	213.92
408.45	214.14
408.83	214.44
409.20	214.55
409.58	214.51
409.95	214.79
410.33	215.05
410.70	215.12
411.08	215.54
411.45	215.76
411.82	215.85
412.20	216.25
412.57	216.77
412.95	216.85
413.32	217.36
413.69	217.81
414.07	218.21
414.44	218.65
414.82	219.20
415.19	219.82
415.56	220.36
415.94	220.79
416.31	221.50
416.68	222.18
417.06	223.03
417.43	223.89
417.81	224.73
418.18	225.61
418.55	226.59
418.93	227.52
419.30	228.61
419.67	229.82
420.04	230.94
420.42	231.96
420.79	233.55
421.16	234.90
421.54	236.49
421.91	238.04
422.28	239.64
422.66	241.29
423.03	243.01
423.40	244.69
423.77	246.32
424.15	248.07
424.52	249.96
424.89	251.98
425.26	253.91
425.64	255.83
426.01	257.85
426.38	259.96
426.75	262.22
427.13	264.43
427.50	266.83
427.87	269.22
428.24	271.72
428.61	273.90
428.99	276.53
429.36	279.13
429.73	281.74
430.10	284.46
430.47	287.23
430.85	290.00
431.22	293.01
431.59	296.61
431.96	299.64
432.33	303.01
432.70	306.31
433.08	310.15
433.45	313.68
433.82	317.37
434.19	321.39
434.56	325.24
434.93	328.95
435.30	332.65
435.68	336.82
436.05	340.92
436.42	345.03
436.79	348.80
437.16	352.78
437.53	357.14
437.90	361.28
438.27	365.45
438.64	369.64
439.01	373.71
439.38	376.96
439.75	380.41
440.13	384.36
440.50	387.99
440.87	390.94
441.24	394.10
441.61	397.50
441.98	400.03
442.35	402.91
442.72	405.89
443.09	408.88
443.46	410.49
443.83	411.72
444.20	412.63
444.57	413.89
444.94	414.60
445.31	415.18
445.68	416.24
446.05	416.49
446.42	415.97
446.79	415.29
447.16	414.63
447.53	414.25
447.90	412.51
448.27	410.92
448.64	408.68
449.01	407.11
449.37	404.17
449.74	401.37
450.11	398.38
450.48	394.78
450.85	390.98
451.22	387.97
451.59	384.96
451.96	382.06
452.33	378.43
452.70	374.92
453.07	370.81
453.43	366.30
453.80	362.33
454.17	358.68
454.54	355.16
454.91	351.35
455.28	347.58
455.65	344.12
456.02	341.07
456.38	338.10
456.75	334.35
457.12	331.36
457.49	328.39
457.86	325.20
458.23	322.85
458.59	320.12
458.96	317.30
459.33	314.71
459.70	312.34
460.07	310.36
460.43	308.13
460.80	306.21
461.17	304.39
461.54	302.40
461.91	300.55
462.27	298.70
462.64	297.07
463.01	295.34
463.38	293.75
463.74	291.55
464.11	290.06
464.48	288.75
464.85	287.33
465.21	286.37
465.58	285.25
465.95	283.73
466.32	282.63
466.68	281.41
467.05	280.26
467.42	279.08
467.78	277.86
468.15	276.78
468.52	275.96
468.88	274.82
469.25	273.91
469.62	273.16
469.98	272.34
470.35	271.60
470.72	270.85
471.08	269.99
471.45	269.48
471.82	268.91
472.18	268.26
472.55	267.76
472.92	267.07
473.28	266.55
473.65	266.12
474.02	265.68
474.38	265.49
474.75	265.31
475.11	264.97
475.48	264.78
475.85	264.62
476.21	264.35
476.58	264.19
476.94	264.05
477.31	263.93
477.67	263.91
478.04	263.96
478.41	264.00
478.77	264.38
479.14	264.31
479.50	264.48
479.87	264.76
480.23	264.93
480.60	265.13
480.96	265.39
481.33	265.80
481.69	266.13
482.06	266.36
482.42	266.72
482.79	267.21
483.15	267.72
483.52	268.34
483.88	268.87
484.25	269.50
484.61	270.15
484.98	270.87
485.34	271.74
485.71	272.59
486.07	273.50
486.44	274.16
486.80	275.23
487.17	276.19
487.53	277.32
487.90	278.65
488.26	280.16
488.62	281.75
488.99	283.05
489.35	284.50
489.72	286.13
490.08	287.80
490.44	289.55
490.81	291.44
491.17	293.30
491.54	295.47
491.90	297.70
492.26	300.02
492.63	302.34
492.99	304.73
493.36	307.36
493.72	310.15
494.08	312.94
494.45	316.01
494.81	319.25
495.17	322.52
495.54	326.04
495.90	329.47
496.26	333.05
496.63	337.05
496.99	341.17
497.35	345.48
497.72	349.87
498.08	354.39
498.44	359.15
498.80	364.20
499.17	369.26
499.53	374.56
499.89	380.10
500.26	385.73
500.62	391.52
500.98	397.57
501.34	403.75
501.71	410.24
502.07	416.94
502.43	423.75
502.79	430.63
503.16	437.71
503.52	444.94
503.88	452.56
504.24	460.36
504.60	468.36
504.97	476.47
505.33	484.97
505.69	493.94
506.05	502.89
506.41	512.12
506.78	521.55
507.14	531.11
507.50	540.94
507.86	551.08
508.22	561.31
508.59	571.74
508.95	582.42
509.31	593.36
509.67	604.49
510.03	615.90
510.39	627.49
510.75	639.26
511.12	651.38
511.48	663.58
511.84	676.00
512.20	688.59
512.56	701.50
512.92	714.23
513.28	727.33
513.64	740.40
514.00	753.65
514.37	767.09
514.73	780.66
515.09	794.56
515.45	808.25
515.81	822.25
516.17	836.39
516.53	850.54
516.89	864.65
517.25	878.96
517.61	893.61
517.97	908.05
518.33	922.71
518.69	937.53
519.05	952.36
519.41	967.11
519.77	982.23
520.13	996.89
520.49	1011.87
520.85	1026.73
521.21	1041.89
521.57	1057.17
521.93	1071.90
522.29	1087.45
522.65	1102.45
523.01	1117.52
523.37	1132.34
523.73	1147.32
524.09	1162.36
524.45	1177.74
524.81	1192.59
525.17	1207.57
525.53	1222.63
525.89	1237.62
526.25	1252.48
526.61	1266.81
526.97	1281.50
527.33	1296.01
527.68	1311.08
528.04	1325.31
528.40	1339.25
528.76	1353.44
529.12	1367.49
529.48	1382.08
529.84	1396.00
530.20	1410.02
530.56	1424.05
530.91	1438.50
531.27	1452.44
531.63	1466.29
531.99	1479.60
532.35	1492.96
532.71	1505.85
533.07	1519.20
533.42	1531.94
533.78	1544.84
534.14	1557.45
534.50	1569.19
534.86	1581.45
535.21	1592.75
535.57	1605.18
535.93	1616.63
536.29	1628.02
536.65	1639.17
537.00	1649.48
537.36	1659.75
537.72	1670.10
538.08	1680.32
538.44	1690.02
538.79	1699.94
539.15	1709.53
539.51	1718.82
539.87	1728.48
540.22	1737.90
540.58	1747.34
540.94	1756.55
541.29	1764.52
541.65	1772.53
542.01	1780.97
542.37	1788.90
542.72	1796.93
543.08	1803.92
543.44	1811.95
543.79	1818.74
544.15	1825.00
544.51	1832.44
544.87	1839.48
545.22	1845.55
545.58	1851.29
545.94	1856.41
546.29	1860.99
546.65	1865.80
547.01	1870.66
547.36	1875.14
547.72	1879.28
548.07	1882.38
548.43	1885.40
548.79	1888.58
549.14	1891.77
549.50	1895.10
549.86	1897.31
550.21	1899.52
550.57	1902.24
550.92	1903.74
551.28	1905.37
551.64	1907.65
551.99	1909.22
552.35	1910.25
552.70	1911.55
553.06	1912.93
553.41	1914.37
553.77	1916.02
554.13	1916.74
554.48	1917.59
554.84	1918.29
555.19	1918.33
555.55	1918.65
555.90	1918.38
556.26	1918.37
556.61	1918.06
556.97	1916.97
557.32	1916.59
557.68	1915.65
558.03	1914.52
558.39	1913.90
558.74	1913.73
559.10	1912.81
559.45	1911.65
559.81	1910.60
560.16	1909.05
560.52	1907.96
560.87	1906.42
561.23	1904.16
561.58	1902.85
561.94	1900.58
562.29	1898.16
562.64	1896.25
563.00	1894.19
563.35	1892.77
563.71	1891.53
564.06	1890.08
564.42	1888.74
564.77	1887.10
565.12	1885.49
565.48	1883.85
565.83	1881.29
566.19	1879.52
566.54	1876.69
566.89	1873.90
567.25	1871.52
567.60	1869.09
567.96	1866.21
568.31	1863.53
568.66	1860.64
569.02	1857.00
569.37	1853.68
569.72	1850.50
570.08	1847.20
570.43	1843.68
570.78	1839.63
571.14	1834.89
571.49	1830.42
571.84	1826.44
572.20	1821.66
572.55	1817.82
572.90	1812.69
573.26	1808.32
573.61	1802.80
573.96	1797.98
574.31	1792.85
574.67	1786.89
575.02	1781.17
575.37	1775.58
575.72	1769.70
576.08	1764.89
576.43	1759.42
576.78	1754.11
577.13	1748.99
577.49	1743.44
577.84	1737.99
578.19	1733.08
578.54	1728.71
578.90	1724.06
579.25	1718.48
579.60	1712.82
579.95	1706.41
580.30	1701.47
580.66	1696.62
581.01	1691.08
581.36	1685.38
581.71	1679.99
582.06	1675.20
582.42	1670.00
582.77	1664.29
583.12	1658.79
583.47	1653.26
583.82	1648.42
584.17	1643.05
584.53	1637.61
584.88	1632.32
585.23	1626.90
585.58	1621.57
585.93	1615.74
586.28	1610.50
586.63	1605.05
586.98	1599.86
587.34	1595.39
587.69	1589.73
588.04	1583.86
588.39	1578.81
588.74	1573.33
589.09	1568.17
589.44	1562.47
589.79	1557.43
590.14	1552.50
590.49	1547.43
590.84	1541.91
591.19	1536.93
591.54	1531.65
591.89	1525.45
592.25	1519.74
592.60	1514.07
592.95	1507.90
593.30	1501.60
593.65	1495.35
594.00	1489.49
594.35	1485.14
594.70	1479.16
595.05	1473.64
595.40	1468.26
595.75	1462.13
596.10	1457.09
596.45	1451.68
596.80	1446.68
597.15	1441.50
597.50	1435.86
597.85	1430.72
598.19	1425.29
598.54	1419.89
598.89	1415.05
599.24	1410.97
599.59	1406.42
599.94	1402.09
600.29	1397.55
600.64	1393.08
600.99	1387.89
601.34	1383.40
601.69	1377.25
602.04	1372.12
602.39	1367.03
602.74	1362.11
603.08	1357.94
603.43	1353.67
603.78	1348.85
604.13	1344.05
604.48	1339.20
604.83	1335.19
605.18	1331.13
605.53	1326.40
605.87	1321.30
606.22	1316.66
606.57	1311.57
606.92	1306.59
607.27	1301.23
607.62	1296.11
607.96	1291.58
608.31	1287.23
608.66	1282.02
609.01	1276.95
609.36	1271.95
609.70	1266.64
610.05	1261.04
610.40	1255.66
610.75	1249.83
611.10	1244.82
611.44	1238.71
611.79	1232.77
612.14	1226.46
612.49	1220.03
612.83	1214.30
613.18	1208.13
613.53	1202.00
613.88	1195.48
614.22	1189.52
614.57	1183.65
614.92	1177.71
615.27	1171.68
615.61	1165.60
615.96	1159.88
616.31	1154.43
616.65	1149.11
617.00	1143.85
617.35	1138.51
617.70	1132.71
618.04	1126.50
618.39	1119.98
618.74	1114.32
619.08	1108.42
619.43	1102.78
619.78	1097.16
620.12	1091.50
620.47	1086.14
620.82	1080.00
621.16	1074.19
621.51	1068.43
621.85	1062.65
622.20	1056.80
622.55	1050.71
622.89	1044.83
623.24	1039.08
623.59	1033.01
623.93	1027.11
624.28	1021.60
624.62	1016.16
624.97	1010.68
625.32	1005.53
625.66	1000.37
626.01	995.18
626.35	990.30
626.70	985.05
627.04	980.10
627.39	975.14
627.73	969.93
628.08	965.21
628.43	960.12
628.77	954.78
629.12	949.50
629.46	944.83
629.81	940.00
630.15	935.08
630.50	929.88
630.84	925.02
631.19	920.04
631.53	914.92
631.88	909.58
632.22	904.23
632.57	899.46
632.91	894.33
633.26	889.34
633.60	884.36
633.95	879.63
634.29	874.54
634.64	869.66
634.98	864.52
635.32	859.79
635.67	855.43
636.01	850.95
636.36	846.29
636.70	841.69
637.05	837.17
637.39	832.73
637.73	828.55
638.08	824.60
638.42	820.26
638.77	816.00
639.11	811.64
639.45	807.43
639.80	802.70
640.14	798.15
640.49	793.66
640.83	788.96
641.17	784.57
641.52	779.95
641.86	775.38
642.20	771.21
642.55	766.31
642.89	761.77
643.23	757.08
643.58	753.05
643.92	748.32
644.26	743.89
644.61	739.53
644.95	734.94
645.29	730.18
645.64	725.73
645.98	721.19
646.32	716.99
646.66	712.50
647.01	708.33
647.35	704.47
647.69	699.98
648.04	695.92
648.38	691.52
648.72	687.29
649.06	682.94
649.41	678.78
649.75	674.77
650.09	670.63
650.43	666.60
650.78	662.04
651.12	657.81
651.46	653.55
651.80	649.41
652.14	645.33
652.49	641.24
652.83	637.05
653.17	632.71
653.51	628.37
653.85	624.42
654.20	620.36
654.54	616.01
654.88	612.17
655.22	608.07
655.56	603.92
655.90	599.93
656.25	595.91
656.59	592.03
656.93	588.15
657.27	584.43
657.61	580.50
657.95	577.07
658.29	573.39
658.64	569.92
658.98	566.09
659.32	562.26
659.66	558.65
660.00	554.94
660.34	551.19
660.68	547.61
661.02	543.87
661.36	540.44
661.70	537.15
662.05	533.84
662.39	530.68
662.73	527.63
663.07	524.67
663.41	521.69
663.75	518.34
664.09	515.12
664.43	511.77
664.77	508.60
665.11	505.23
665.45	502.34
665.79	499.16
666.13	496.17
666.47	493.30
666.81	490.26
667.15	487.33
667.49	484.93
667.83	482.38
668.17	479.79
668.51	477.14
668.85	474.45
669.19	472.00
669.53	469.28
669.87	466.52
670.21	463.71
670.55	461.00
670.89	458.77
671.23	456.42
671.57	453.95
671.91	451.61
672.25	449.23
672.58	446.71
672.92	444.23
673.26	441.93
673.60	439.63
673.94	437.34
674.28	435.13
674.62	432.86
674.96	430.46
675.30	428.26
675.64	425.96
675.97	423.73
676.31	421.53
676.65	419.37
676.99	417.57
677.33	415.48
677.67	413.42
678.01	411.11
678.34	408.99
678.68	407.06
679.02	404.92
679.36	402.95
679.70	400.92
680.04	398.93
680.37	396.95
680.71	394.98
681.05	393.22
681.39	391.29
681.73	389.26
682.06	387.50
682.40	385.68
682.74	383.89
683.08	382.18
683.42	380.25
683.75	378.45
684.09	376.34
684.43	374.53
684.77	372.68
685.10	370.91
685.44	369.06
685.78	367.20
686.12	365.71
686.45	364.11
686.79	362.45
687.13	360.99
687.46	359.40
687.80	357.85
688.14	356.06
688.48	354.58
688.81	352.94
689.15	351.33
689.49	349.74
689.82	348.17
690.16	346.30
690.50	344.73
690.83	343.19
691.17	341.61
691.51	340.06
691.84	338.60
692.18	337.19
692.52	335.87
692.85	334.56
693.19	333.20
693.52	331.71
693.86	330.33
694.20	328.93
694.53	327.58
694.87	326.17
695.21	324.78
695.54	323.21
695.88	321.84
696.21	320.40
696.55	319.14
696.88	317.88
697.22	316.74
697.56	315.51
697.89	314.22
698.23	313.03
698.56	311.93
698.90	310.92
699.23	309.63
699.57	308.40
699.90	307.20
700.24	305.94
700.58	304.75
700.91	303.62
701.25	302.65
701.58	301.65
701.92	300.61
702.25	299.58
702.59	298.59
702.92	297.69
703.26	296.75
703.59	295.71
703.93	295.00
704.26	294.13
704.60	293.21
704.93	292.23
705.26	291.29
705.60	290.43
705.93	289.30
706.27	288.50
706.60	287.71
706.94	287.01
707.27	286.07
707.61	285.20
707.94	284.32
708.27	283.18
708.61	282.21
708.94	281.39
709.28	280.67
709.61	279.92
709.94	279.04
710.28	278.29
710.61	277.49
710.95	276.37
711.28	275.77
711.61	275.02
711.95	274.42
712.28	273.69
712.61	272.94
712.95	272.47
713.28	271.97
713.61	271.20
713.95	270.45
714.28	269.86
714.61	269.21
714.95	268.59
715.28	267.97
715.61	267.33
715.95	266.66
716.28	265.91
716.61	265.37
716.95	264.82
717.28	264.21
717.61	263.68
717.94	263.17
718.28	262.36
718.61	261.76
718.94	261.11
719.27	260.60
719.61	259.98
719.94	259.44
720.27	258.62
720.60	258.14
720.94	257.53
721.27	256.98
721.60	256.54
721.93	256.01
722.27	255.64
722.60	255.19
722.93	254.66
723.26	254.20
723.59	253.62
723.93	253.15
724.26	252.62
724.59	252.14
724.92	251.68
725.25	251.41
725.59	250.93
725.92	250.55
726.25	250.08
726.58	249.74
726.91	249.18
727.24	248.81
727.57	248.34
727.91	247.89
728.24	247.54
728.57	247.17
728.90	246.88
729.23	246.47
729.56	246.35
729.89	245.99
730.22	245.65
730.55	245.32
730.89	244.99
731.22	244.69
731.55	244.32
731.88	244.02
732.21	243.48
732.54	243.08
732.87	242.71
733.20	242.42
733.53	242.02
733.86	241.75
734.19	241.38
734.52	241.19
734.85	241.22
735.18	240.96
735.51	240.71
735.84	240.34
736.17	240.17
736.50	239.51
736.83	239.63
737.16	239.32
737.49	239.05
737.82	238.65
738.15	238.42
738.48	238.10
738.81	237.79
739.14	237.55
739.47	237.30
739.80	237.06
740.13	236.76
740.46	236.44
740.79	236.15
741.12	235.86
741.45	235.54
741.78	235.04
742.11	234.84
742.44	234.50
742.77	234.31
743.10	233.90
743.43	233.66
743.75	233.02
744.08	233.18
744.41	232.89
744.74	232.66
745.07	232.30
745.40	232.17
745.73	232.04
746.06	231.79
746.39	231.60
746.71	231.26
747.04	231.03
747.37	230.90
747.70	230.69
748.03	230.61
748.36	230.39
748.68	230.13
749.01	229.71
749.34	229.51
749.67	229.28
750.00	229.13
750.33	229.25
750.65	229.11
750.98	228.46
751.31	228.33
751.64	228.24
751.97	228.34
752.29	228.10
752.62	227.77
752.95	227.60
753.28	227.36
753.60	227.22
753.93	227.08
754.26	226.91
754.59	226.58
754.91	226.35
755.24	226.13
755.57	225.92
755.90	225.87
756.22	225.67
756.55	225.51
756.88	225.35
757.20	224.91
757.53	224.69
757.86	224.59
758.19	224.39
758.51	224.13
758.84	223.79
759.17	223.68
759.49	223.56
759.82	223.51
760.15	223.35
760.47	223.25
760.80	223.07
761.13	222.89
761.45	222.73
761.78	222.55
762.11	222.45
762.43	222.34
762.76	222.14
763.08	222.03
763.41	221.90
763.74	221.76
764.06	221.66
764.39	221.55
764.71	221.42
765.04	221.30
765.37	221.28
765.69	221.10
766.02	220.95
766.34	220.78
766.67	220.62
767.00	220.64
767.32	220.72
767.65	220.88
767.97	220.82
768.30	220.86
768.62	220.85
768.95	220.71
769.27	220.55
769.60	220.50
769.92	220.40
770.25	220.28
770.57	220.10
770.90	220.02
771.22	219.89
771.55	219.83
771.87	219.75
772.20	219.59
772.52	219.82
772.85	220.14
773.17	220.05
773.50	220.01
773.82	219.91
774.15	219.68
774.47	219.39
774.80	219.32
775.12	219.18
775.45	219.03
775.77	218.96
776.09	218.95
776.42	218.85
776.74	218.83
777.07	218.73
777.39	218.64
777.72	218.52
778.04	218.47
778.36	218.36
778.69	218.31
779.01	218.28
779.33	217.91
779.66	217.47
779.98	217.41
780.31	217.31
780.63	217.32
780.95	217.26
781.28	217.14
781.60	217.00
781.92	216.95
782.25	216.90
782.57	216.82
782.89	216.78
783.22	216.75
783.54	216.62
783.86	216.57
784.19	216.53
784.51	216.65
784.83	216.55
785.16	216.48
785.48	216.40
785.80	216.32
786.12	216.30
786.45	216.23
786.77	216.26
787.09	216.20
787.42	216.07
787.74	216.05
788.06	215.98
788.38	216.01
788.71	215.93
789.03	215.91
789.35	215.92
789.67	215.85
789.99	215.82
790.32	215.74
790.64	215.77
790.96	216.00
791.28	215.78
791.61	215.75
791.93	215.71
792.25	215.70
792.57	215.92
792.89	215.78
793.21	215.70
793.54	215.62
793.86	215.53
794.18	215.49
794.50	215.37
794.82	215.37
795.14	215.34
795.47	215.35
795.79	215.30
796.11	215.18
796.43	215.13
796.75	215.06
797.07	215.07
797.39	215.04
797.71	214.73
798.04	214.73
798.36	214.67
798.68	214.68
799.00	214.64
799.32	214.40
799.64	214.42
799.96	214.39
800.28	214.36
800.60	214.33
800.92	214.34
801.24	214.17
801.56	214.14
801.89	214.06
802.21	214.03
802.53	213.92
802.85	214.05
803.17	214.18
803.49	214.04
803.81	213.95
804.13	213.79
804.45	213.75
804.77	213.71
805.09	213.68
805.41	213.60
805.73	213.51
806.05	213.39
806.37	213.33
806.69	213.30
807.01	213.26
807.33	213.20
807.65	213.04
807.97	213.31
808.28	213.27
808.60	213.26
808.92	213.25
809.24	213.42
809.56	213.28
809.88	213.10
810.20	213.18
810.52	213.25
810.84	213.26
811.16	213.28
811.48	213.29
811.80	213.41
812.12	213.42
812.43	213.44
812.75	213.43
813.07	213.45
813.39	213.48
813.71	213.40
814.03	213.39
814.35	213.40
814.67	213.22
814.98	213.17
815.30	213.12
815.62	213.05
815.94	212.82
816.26	212.77
816.58	212.73
816.89	212.66
817.21	212.55
817.53	212.54
817.85	212.56
818.17	212.50
818.48	212.30
818.80	212.40
819.12	212.40
819.44	212.40
819.76	212.33
820.07	212.31
820.39	212.42
820.71	212.44
821.03	212.43
821.34	212.44
821.66	212.53
821.98	212.59
822.30	212.60
822.61	212.85
822.93	212.90
823.25	212.92
823.57	212.98
823.88	212.99
824.20	212.99
824.52	213.00
824.83	212.98
825.15	212.98
825.47	212.86
825.79	212.89
826.10	212.83
826.42	212.78
826.74	212.80
827.05	212.66
827.37	212.66
827.69	212.63
828.00	212.61
828.32	212.57
828.64	212.50
828.95	212.68
829.27	212.60
829.58	212.60
829.90	212.56
830.22	212.57
830.53	212.56
830.85	212.54
831.17	212.46
831.48	212.45
831.80	212.43
832.11	212.52
832.43	212.45
832.75	212.44
833.06	212.73
833.38	212.62
833.69	212.70
834.01	212.70
834.32	212.77
834.64	212.75
834.96	212.74
835.27	212.68
835.59	212.56
835.90	212.42
836.22	212.46
836.53	212.44
836.85	212.36
837.16	212.75
837.48	212.74
837.79	212.80
838.11	212.83
838.42	212.82
838.74	212.80
839.05	212.78
839.37	212.79
839.68	212.55
840.00	212.50
840.31	212.51
840.63	212.46
840.94	212.41
841.26	212.32
841.57	212.28
841.88	212.30
842.20	212.20
842.51	212.17
842.83	212.08
843.14	212.40
843.46	212.41
843.77	212.20
844.08	212.22
844.40	212.16
844.71	212.15
845.03	212.22
845.34	212.19
845.65	212.19
845.97	212.16
846.28	212.15
846.60	212.20
846.91	212.15
847.22	212.15
847.54	212.18
847.85	212.22
848.16	212.25
848.48	212.27
848.79	212.42
849.10	212.49
849.42	212.50
849.73	212.19
850.04	212.24
850.36	212.06
850.67	212.08
850.98	212.08
851.30	212.06
851.61	211.98
851.92	211.95
852.23	212.03
852.55	212.12
852.86	212.14
853.17	212.15
853.49	212.20
853.80	212.33
854.11	212.43
854.42	212.49
854.74	212.44
855.05	212.43
855.36	212.24
855.67	212.21
855.99	212.29
856.30	212.63
856.61	212.54
856.92	212.52
857.23	212.59
857.55	212.58
857.86	212.54
858.17	212.63
858.48	212.61
858.79	212.50
859.11	212.51
859.42	212.50
859.73	212.52
860.04	212.58
860.35	212.43
860.66	212.18
860.98	212.18
861.29	212.23
861.60	212.23
861.91	212.32
862.22	212.27
862.53	212.25
862.84	211.86
863.16	211.97
863.47	211.94
863.78	211.88
864.09	211.94
864.40	212.05
864.71	212.05
865.02	212.04
865.33	212.01
865.64	211.90
865.95	211.87
866.27	211.95
866.58	211.86
866.89	211.90
867.20	211.95
867.51	211.83
867.82	211.78
868.13	211.87
868.44	211.78
868.75	211.85
869.06	211.80
869.37	211.88
869.68	211.75
869.99	211.85
870.30	211.83
870.61	211.78
870.92	211.65
871.23	211.61
871.54	211.70
871.85	211.79
872.16	211.81
872.47	211.76
872.78	211.58
873.09	211.63
873.40	211.59
873.71	211.62
874.02	211.67
874.33	211.63
874.64	211.48
874.95	211.58
875.26	211.46
875.56	211.47
875.87	211.39
876.18	211.42
876.49	211.73
876.80	211.71
877.11	211.63
877.42	211.64
877.73	211.64
878.04	211.53
878.35	211.50
878.66	211.56
878.96	211.58
879.27	211.57
879.58	211.54
879.89	211.52
880.20	211.64
880.51	211.64
880.82	211.65
881.12	211.64
881.43	211.56
881.74	211.55
882.05	211.54
882.36	211.57
882.67	211.63
882.97	211.23
883.28	211.25
883.59	211.28
883.90	211.34
884.21	211.41
884.51	211.50
884.82	211.44
885.13	211.39
885.44	211.39
885.74	211.40
886.05	211.40
886.36	211.45
886.67	211.32
886.98	211.47
887.28	211.55
887.59	211.62
887.90	211.66
888.20	211.67
888.51	211.66
888.82	211.56
889.13	211.47
889.43	211.75
889.74	211.70
890.05	211.64
890.35	211.66
890.66	211.59
890.97	211.51
891.28	211.49
891.58	211.56
891.89	211.56
892.20	211.59
892.50	211.51
892.81	211.48
893.12	211.51
893.42	211.35
893.73	211.28
894.04	211.32
894.34	211.30
894.65	211.27
894.95	211.27
895.26	211.40
895.57	211.56
895.87	211.24
896.18	211.33
896.48	211.42
896.79	211.37
897.10	211.37
897.40	211.38
897.71	211.47
898.01	211.38
898.32	211.51
898.63	211.51
898.93	211.53
899.24	211.50
899.54	211.42
899.85	211.35
900.15	211.39
900.46	211.37
900.76	211.42
901.07	211.43
901.38	211.41
901.68	211.41
901.99	211.27
902.29	211.32
902.60	211.22
902.90	211.17
903.21	211.15
903.51	211.13
903.82	211.19
904.12	211.15
904.43	211.19
904.73	211.09
905.03	211.07
905.34	211.39
905.64	211.41
905.95	211.47
906.25	211.52
906.56	211.51
906.86	211.53
907.17	211.43
907.47	211.45
907.77	211.46
908.08	211.33
908.38	211.32
908.69	211.35
908.99	211.47
909.30	211.46
909.60	211.44
909.90	211.50
910.21	211.40
910.51	211.33
910.81	211.27
911.12	211.24
911.42	211.26
911.73	210.96
912.03	210.94
912.33	210.96
912.64	210.96
912.94	210.91
913.24	210.83
913.55	210.85
913.85	210.86
914.15	210.91
914.46	210.97
914.76	210.98
915.06	210.98
915.37	210.76
915.67	210.82
915.97	210.81
916.27	210.77
916.58	210.77
916.88	210.78
917.18	210.82
917.49	211.07
917.79	211.05
918.09	211.10
918.39	211.27
918.70	211.24
919.00	211.24
919.30	211.41
919.60	211.43
919.91	211.41
920.21	211.38
920.51	211.28
920.81	211.31
921.12	211.34
921.42	211.29
921.72	211.42
922.02	211.43
922.32	211.50
922.63	211.50
922.93	211.65
923.23	211.70
923.53	211.70
923.83	211.47
924.13	211.49
924.44	211.54
924.74	211.46
925.04	211.53
925.34	211.50
925.64	211.36
925.94	211.35
926.24	211.53
926.55	211.54
926.85	211.58
927.15	211.55
927.45	211.51
927.75	211.52
928.05	211.52
928.35	211.48
928.65	211.54
928.95	211.57
929.26	211.49
929.56	211.53
929.86	211.49
930.16	211.47
930.46	211.46
930.76	211.36
931.06	211.21
931.36	211.15
931.66	211.26
931.96	211.33
932.26	211.32
932.56	211.23
932.86	211.27
933.16	211.25
933.46	211.25
933.76	211.21
934.06	211.29
934.36	211.40
934.66	211.36
934.96	211.30
935.26	211.25
935.56	211.30
935.86	211.26
936.16	211.30
936.46	211.24
936.76	211.19
937.06	211.17
937.36	211.25
937.66	211.27
937.96	211.29
938.26	211.19
938.56	211.13
938.86	211.08
939.16	211.17
939.46	211.24
939.76	211.20
940.06	211.24
940.35	211.18
940.65	210.97
940.95	211.09
941.25	211.03
941.55	211.02
941.85	210.97
942.15	211.03
942.45	211.11
942.75	211.17
943.04	211.21
943.34	211.27
943.64	211.30
943.94	211.23
944.24	211.21
944.54	211.20
944.84	211.27
945.13	211.29
945.43	211.19
945.73	211.20
946.03	211.28
946.33	211.25
946.62	211.29
946.92	211.37
947.22	211.29
947.52	211.29
947.82	211.29
948.11	211.31
948.41	211.27
948.71	211.20
949.01	211.24
949.31	211.18
949.60	211.17
949.90	211.18
950.20	211.24
950.50	211.14
950.79	211.10
951.09	211.15
951.39	211.12
951.69	211.10
951.98	211.19
952.28	211.15
952.58	211.16
952.87	211.15
953.17	211.10
953.47	211.09
953.76	211.16
954.06	211.13
954.36	211.08
954.66	211.05
954.95	211.16
955.25	211.16
955.55	211.23
955.84	211.16
956.14	211.21
956.44	211.21
956.73	211.23
957.03	211.31
957.32	211.31
957.62	211.31
957.92	211.38
958.21	211.26
958.51	211.66
958.81	211.73
959.10	211.75
959.40	211.85
959.69	211.89
959.99	211.89
960.29	211.95
960.58	211.91
960.88	211.95
961.17	211.89
961.47	211.90
961.76	211.83
962.06	211.88
962.36	211.81
962.65	211.79
962.95	211.87
963.24	211.82
963.54	211.83
963.83	211.84
964.13	211.83
964.42	211.82
964.72	211.49
965.01	211.48
965.31	211.47
965.60	211.43
965.90	211.62
966.19	211.55
966.49	211.54
966.78	211.57
967.08	211.61
967.37	211.62
967.67	211.58
967.96	211.75
968.26	211.78
968.55	211.84
968.85	211.86
969.14	211.81
969.43	211.85
969.73	211.76
970.02	211.79
970.32	211.76
970.61	211.75
970.91	211.75
971.20	211.64
971.49	211.54
971.79	211.65
972.08	211.41
972.38	211.44
972.67	211.40
972.96	211.47
973.26	211.40
973.55	211.54
973.85	211.48
974.14	211.39
974.43	211.36
974.73	211.27
975.02	211.21
975.31	211.15
975.61	211.05
975.90	211.02
976.19	210.98
976.49	211.03
976.78	211.07
977.07	211.05
977.37	211.08
977.66	211.23
977.95	211.10
978.24	211.12
978.54	211.21
978.83	211.16
979.12	211.09
979.42	211.06
979.71	210.97
980.00	211.03
980.29	211.05
980.59	210.96
980.88	211.10
981.17	211.13
981.46	211.21
981.76	211.28
982.05	211.42
982.34	211.39
982.63	211.30
982.93	211.31
983.22	211.39
983.51	211.49
983.80	211.45
984.09	211.51
984.39	211.42
984.68	211.38
984.97	211.43
985.26	211.51
985.55	211.52
985.85	211.47
986.14	211.52
986.43	211.57
986.72	211.61
987.01	211.50
987.30	211.53
987.59	211.48
987.89	211.43
988.18	211.33
988.47	211.35
988.76	211.42
989.05	211.42
989.34	211.34
989.63	211.42
989.92	211.40
990.22	211.38
990.51	211.48
990.80	211.47
991.09	211.52
991.38	211.57
991.67	211.64
991.96	211.59
992.25	211.58
992.54	211.49
992.83	211.57
993.12	211.58
993.41	211.60
993.70	211.77
993.99	211.91
994.28	211.98
994.58	212.01
994.87	211.95
995.16	211.91
995.45	211.87
995.74	211.73
996.03	211.81
996.32	211.86
996.61	211.94
996.90	211.94
997.19	211.86
997.48	211.72
997.77	211.66
998.06	211.71
998.34	211.72
998.63	211.73
998.92	211.68
999.21	211.75
999.50	211.73
999.79	211.53
1000.08	211.49
1000.37	211.50
1000.66	211.44
1000.95	211.54
1001.24	211.62
1001.53	211.67
1001.82	211.67
1002.11	211.55
1002.40	211.55
1002.68	211.67
1002.97	211.81
1003.26	211.80
1003.55	211.74
1003.84	211.76
1004.13	211.78
1004.42	211.72
1004.71	211.74
1004.99	211.73
1005.28	211.74
1005.57	211.71
1005.86	211.72
1006.15	211.62
1006.44	211.51
1006.72	211.58
1007.01	211.42
1007.30	211.32
1007.59	211.26
1007.88	211.28
1008.17	211.34
1008.45	211.21
1008.74	210.94
1009.03	210.74
1009.32	210.72
1009.60	210.76
1009.89	210.74
1010.18	210.64
1010.47	210.65
1010.76	210.65
1011.04	210.67
1011.33	210.65
1011.62	210.76
1011.91	210.73
1012.19	210.80
1012.48	210.85
1012.77	210.82
1013.05	211.00
1013.34	210.98
1013.63	210.99
1013.92	210.99
1014.20	210.94
1014.49	210.99
1014.78	211.04
1015.06	210.97
1015.35	211.02
1015.64	211.13
1015.92	211.14
1016.21	211.18
1016.50	211.09
1016.78	211.06
1017.07	211.06
1017.36	211.00
1017.64	210.87
1017.93	210.87
1018.22	210.84
1018.50	210.78
1018.79	210.76
1019.08	210.65
1019.36	210.67
1019.65	210.61
1019.93	210.67
1020.22	210.79
1020.51	211.04
1020.79	211.06
1021.08	210.60
1021.36	209.55
1021.65	210.70
1021.94	210.80
1022.22	210.15
1022.51	209.70
1022.79	212.25
1023.08	213.30
1023.36	216.40
1023.65	211.05
>>>>>End Processed Spectral Data<<<<<
