SpectraSuite Data File
++++++++++++++++++++++++++++++++++++
Date: Mon Feb 25 16:57:55 EST 2013
User: group
Dark Spectrum Present: No
Reference Spectrum Present: No
Number of Sampled Component Spectra: 1
Spectrometers: USB2E7196
Integration Time (usec): 104000 (USB2E7196)
Spectra Averaged: 20 (USB2E7196)
Boxcar Smoothing: 10 (USB2E7196)
Correct for Electrical Dark: No (USB2E7196)
Strobe/Lamp Enabled: No (USB2E7196)
Correct for Detector Non-linearity: No (USB2E7196)
Correct for Stray Light: No (USB2E7196)
Number of Pixels in Processed Spectrum: 2048
>>>>>Begin Processed Spectral Data<<<<<
339.09	0.00
339.48	198.70
339.86	200.25
340.24	201.70
340.63	203.65
341.01	210.95
341.39	207.30
341.78	208.45
342.16	210.30
342.54	210.20
342.93	198.98
343.31	209.03
343.69	209.61
344.07	210.07
344.46	210.52
344.84	210.85
345.22	210.86
345.60	211.05
345.99	211.17
346.37	211.26
346.75	211.30
347.13	211.32
347.52	211.37
347.90	211.56
348.28	211.52
348.66	211.54
349.05	211.48
349.43	211.48
349.81	211.49
350.19	211.55
350.57	211.52
350.96	211.58
351.34	211.57
351.72	211.62
352.10	211.68
352.48	211.67
352.87	211.75
353.25	211.77
353.63	211.81
354.01	211.88
354.39	211.88
354.77	211.95
355.15	212.06
355.54	212.04
355.92	211.93
356.30	211.90
356.68	212.09
357.06	212.11
357.44	212.10
357.82	212.17
358.20	212.21
358.58	212.30
358.97	212.37
359.35	212.54
359.73	212.61
360.11	212.71
360.49	212.74
360.87	212.77
361.25	212.89
361.63	213.02
362.01	213.04
362.39	213.03
362.77	213.05
363.15	213.08
363.53	213.16
363.91	213.26
364.29	213.40
364.67	213.18
365.05	213.17
365.43	213.24
365.81	213.26
366.19	213.38
366.57	213.48
366.95	213.43
367.33	213.36
367.71	213.33
368.09	213.44
368.47	213.50
368.85	213.44
369.23	213.44
369.61	213.27
369.99	213.39
370.37	213.40
370.75	213.54
371.13	213.46
371.51	213.39
371.89	213.40
372.27	213.34
372.65	213.35
373.03	213.39
373.41	213.32
373.78	213.29
374.16	213.14
374.54	212.99
374.92	212.92
375.30	212.89
375.68	212.86
376.06	212.80
376.44	212.74
376.82	212.76
377.19	212.70
377.57	212.65
377.95	212.52
378.33	212.51
378.71	212.36
379.09	212.36
379.47	212.46
379.84	212.32
380.22	212.23
380.60	212.15
380.98	212.05
381.36	212.00
381.73	211.89
382.11	211.91
382.49	211.91
382.87	211.81
383.25	211.76
383.62	212.06
384.00	211.84
384.38	211.84
384.76	211.87
385.13	211.94
385.51	211.89
385.89	211.88
386.27	211.86
386.64	211.82
387.02	211.74
387.40	211.57
387.78	211.65
388.15	211.69
388.53	211.57
388.91	211.58
389.29	211.55
389.66	211.56
390.04	211.53
390.42	211.58
390.79	211.60
391.17	211.59
391.55	211.30
391.92	211.36
392.30	211.38
392.68	211.38
393.05	211.38
393.43	211.45
393.81	211.44
394.18	211.41
394.56	211.43
394.94	211.56
395.31	211.64
395.69	211.71
396.06	211.82
396.44	211.94
396.82	212.01
397.19	212.17
397.57	212.24
397.95	212.34
398.32	212.27
398.70	212.38
399.07	212.53
399.45	212.49
399.82	212.59
400.20	212.62
400.58	212.61
400.95	212.56
401.33	212.68
401.70	212.98
402.08	213.07
402.45	213.14
402.83	213.30
403.20	213.41
403.58	213.55
403.95	213.66
404.33	213.89
404.71	214.06
405.08	214.42
405.46	214.67
405.83	214.85
406.21	215.11
406.58	215.39
406.96	215.62
407.33	216.06
407.70	216.49
408.08	217.11
408.45	217.67
408.83	218.21
409.20	218.76
409.58	219.11
409.95	219.85
410.33	220.55
410.70	221.14
411.08	221.96
411.45	222.70
411.82	223.53
412.20	224.46
412.57	225.58
412.95	226.29
413.32	227.42
413.69	228.64
414.07	229.87
414.44	231.27
414.82	232.72
415.19	234.25
415.56	235.88
415.94	237.47
416.31	239.40
416.68	241.37
417.06	243.60
417.43	245.81
417.81	248.20
418.18	250.70
418.55	253.42
418.93	256.20
419.30	259.25
419.67	262.46
420.04	265.72
420.42	269.10
420.79	273.28
421.16	277.20
421.54	281.37
421.91	285.70
422.28	290.17
422.66	294.92
423.03	299.73
423.40	304.65
423.77	310.01
424.15	315.35
424.52	320.93
424.89	326.99
425.26	332.82
425.64	338.48
426.01	344.67
426.38	351.08
426.75	357.78
427.13	364.57
427.50	371.68
427.87	379.24
428.24	386.77
428.61	393.89
428.99	401.71
429.36	410.39
429.73	418.89
430.10	427.31
430.47	436.05
430.85	445.08
431.22	454.74
431.59	464.89
431.96	474.71
432.33	485.53
432.70	496.00
433.08	508.32
433.45	519.92
433.82	531.70
434.19	544.65
434.56	557.54
434.93	569.89
435.30	582.35
435.68	596.05
436.05	609.61
436.42	623.18
436.79	635.70
437.16	649.14
437.53	663.37
437.90	677.61
438.27	691.59
438.64	706.25
439.01	719.67
439.38	731.99
439.75	743.91
440.13	757.33
440.50	770.05
440.87	780.78
441.24	791.93
441.61	804.15
441.98	813.57
442.35	824.10
442.72	834.93
443.09	845.29
443.46	852.00
443.83	856.94
444.20	861.29
444.57	867.34
444.94	870.61
445.31	874.24
445.68	877.49
446.05	879.70
446.42	879.34
446.79	878.93
447.16	878.17
447.53	877.92
447.90	873.91
448.27	869.93
448.64	863.65
449.01	859.51
449.37	851.01
449.74	842.84
450.11	833.08
450.48	822.24
450.85	811.12
451.22	801.61
451.59	792.63
451.96	784.03
452.33	772.17
452.70	761.56
453.07	748.48
453.43	735.43
453.80	722.80
454.17	710.60
454.54	699.18
454.91	686.63
455.28	674.33
455.65	663.04
456.02	651.65
456.38	642.07
456.75	629.90
457.12	619.92
457.49	610.03
457.86	600.28
458.23	591.96
458.59	582.83
458.96	573.66
459.33	565.56
459.70	557.44
460.07	550.95
460.43	543.48
460.80	536.48
461.17	530.40
461.54	523.77
461.91	517.69
462.27	511.14
462.64	505.94
463.01	500.14
463.38	494.38
463.74	488.61
464.11	483.55
464.48	479.14
464.85	474.50
465.21	470.95
465.58	467.07
465.95	462.25
466.32	458.35
466.68	454.40
467.05	450.40
467.42	446.39
467.78	442.34
468.15	438.52
468.52	435.75
468.88	431.81
469.25	428.44
469.62	425.62
469.98	422.90
470.35	420.02
470.72	417.38
471.08	414.62
471.45	412.25
471.82	409.77
472.18	407.12
472.55	404.97
472.92	402.54
473.28	400.55
473.65	398.62
474.02	396.75
474.38	395.09
474.75	393.74
475.11	392.28
475.48	391.08
475.85	389.93
476.21	388.83
476.58	388.07
476.94	387.59
477.31	386.85
477.67	386.12
478.04	385.53
478.41	385.15
478.77	385.02
479.14	384.54
479.50	384.44
479.87	384.40
480.23	384.44
480.60	384.43
480.96	384.37
481.33	384.95
481.69	385.25
482.06	385.59
482.42	385.82
482.79	386.21
483.15	386.87
483.52	387.80
483.88	388.40
484.25	389.05
484.61	389.75
484.98	390.72
485.34	391.77
485.71	392.96
486.07	394.30
486.44	395.42
486.80	396.97
487.17	398.55
487.53	400.38
487.90	402.36
488.26	404.42
488.62	406.65
488.99	408.63
489.35	410.86
489.72	413.26
490.08	415.83
490.44	418.38
490.81	421.10
491.17	423.80
491.54	426.83
491.90	429.90
492.26	433.07
492.63	436.25
492.99	439.66
493.36	443.30
493.72	446.90
494.08	450.78
494.45	454.79
494.81	458.99
495.17	463.17
495.54	467.39
495.90	471.78
496.26	476.12
496.63	480.73
496.99	485.35
497.35	490.09
497.72	495.00
498.08	499.91
498.44	504.82
498.80	510.20
499.17	515.44
499.53	520.95
499.89	526.47
500.26	531.94
500.62	537.26
500.98	542.90
501.34	548.53
501.71	554.24
502.07	559.95
502.43	565.58
502.79	571.14
503.16	576.80
503.52	582.38
503.88	588.04
504.24	593.86
504.60	599.70
504.97	605.58
505.33	611.33
505.69	617.72
506.05	623.80
506.41	629.49
506.78	635.09
507.14	640.62
507.50	646.18
507.86	651.77
508.22	657.44
508.59	662.78
508.95	668.32
509.31	673.88
509.67	679.35
510.03	684.81
510.39	690.30
510.75	695.85
511.12	701.21
511.48	706.50
511.84	711.58
512.20	716.54
512.56	721.75
512.92	726.85
513.28	731.41
513.64	736.07
514.00	740.62
514.37	745.29
514.73	749.89
515.09	754.40
515.45	758.84
515.81	763.20
516.17	767.24
516.53	771.25
516.89	775.09
517.25	778.85
517.61	782.51
517.97	785.98
518.33	789.29
518.69	792.77
519.05	796.22
519.41	799.58
519.77	803.35
520.13	806.32
520.49	809.11
520.85	812.05
521.21	815.02
521.57	818.06
521.93	820.67
522.29	823.61
522.65	826.39
523.01	829.13
523.37	831.46
523.73	834.36
524.09	836.87
524.45	839.19
524.81	841.61
525.17	844.29
525.53	846.89
525.89	849.21
526.25	851.61
526.61	853.57
526.97	855.68
527.33	857.53
527.68	860.09
528.04	862.37
528.40	864.33
528.76	866.35
529.12	868.63
529.48	871.15
529.84	873.18
530.20	875.18
530.56	877.35
530.91	879.95
531.27	882.17
531.63	884.26
531.99	886.40
532.35	888.49
532.71	890.41
533.07	892.53
533.42	894.93
533.78	897.14
534.14	899.51
534.50	901.51
534.86	903.97
535.21	905.61
535.57	907.96
535.93	910.14
536.29	912.38
536.65	914.27
537.00	916.31
537.36	918.14
537.72	920.02
538.08	922.01
538.44	923.81
538.79	925.88
539.15	927.97
539.51	930.30
539.87	932.46
540.22	934.57
540.58	936.99
540.94	939.19
541.29	941.16
541.65	942.95
542.01	944.85
542.37	946.78
542.72	948.87
543.08	950.61
543.44	952.88
543.79	954.54
544.15	956.58
544.51	958.73
544.87	961.10
545.22	963.25
545.58	965.05
545.94	966.82
546.29	968.38
546.65	969.97
547.01	971.48
547.36	973.29
547.72	974.93
548.07	976.30
548.43	977.58
548.79	978.87
549.14	980.48
549.50	982.49
549.86	983.79
550.21	985.49
550.57	987.31
550.92	988.50
551.28	990.15
551.64	991.69
551.99	993.26
552.35	994.59
552.70	995.82
553.06	997.42
553.41	999.07
553.77	1000.78
554.13	1002.38
554.48	1004.24
554.84	1006.08
555.19	1007.52
555.55	1009.21
555.90	1010.65
556.26	1012.02
556.61	1013.25
556.97	1014.12
557.32	1015.45
557.68	1016.52
558.03	1017.30
558.39	1018.44
558.74	1019.54
559.10	1020.56
559.45	1021.45
559.81	1022.48
560.16	1023.52
560.52	1024.24
560.87	1025.03
561.23	1025.65
561.58	1026.90
561.94	1027.33
562.29	1027.59
562.64	1028.62
563.00	1029.25
563.35	1030.19
563.71	1031.61
564.06	1032.72
564.42	1033.89
564.77	1034.91
565.12	1035.94
565.48	1037.28
565.83	1038.36
566.19	1039.70
566.54	1040.25
566.89	1040.90
567.25	1041.90
567.60	1043.07
567.96	1044.37
568.31	1045.57
568.66	1046.43
569.02	1046.61
569.37	1046.96
569.72	1047.60
570.08	1047.84
570.43	1048.05
570.78	1048.03
571.14	1047.75
571.49	1047.37
571.84	1047.43
572.20	1046.91
572.55	1046.73
572.90	1045.87
573.26	1045.14
573.61	1044.11
573.96	1043.67
574.31	1042.69
574.67	1041.38
575.02	1039.84
575.37	1038.09
575.72	1036.42
576.08	1035.11
576.43	1033.63
576.78	1032.38
577.13	1031.22
577.49	1029.71
577.84	1028.17
578.19	1026.90
578.54	1025.76
578.90	1025.07
579.25	1023.37
579.60	1021.73
579.95	1019.58
580.30	1018.28
580.66	1016.79
581.01	1014.96
581.36	1013.05
581.71	1011.25
582.06	1009.50
582.42	1007.78
582.77	1006.05
583.12	1004.01
583.47	1002.01
583.82	1000.38
584.17	998.38
584.53	996.25
584.88	993.90
585.23	991.75
585.58	989.52
585.93	987.12
586.28	984.82
586.63	982.62
586.98	980.68
587.34	978.91
587.69	976.49
588.04	974.22
588.39	972.31
588.74	970.03
589.09	968.10
589.44	965.64
589.79	963.44
590.14	961.34
590.49	959.02
590.84	956.74
591.19	954.66
591.54	952.36
591.89	949.44
592.25	947.52
592.60	944.92
592.95	942.25
593.30	939.42
593.65	936.17
594.00	933.09
594.35	931.27
594.70	928.46
595.05	926.02
595.40	923.22
595.75	920.02
596.10	917.41
596.45	914.47
596.80	912.10
597.15	909.60
597.50	906.43
597.85	903.75
598.19	900.93
598.54	898.00
598.89	895.14
599.24	892.83
599.59	889.74
599.94	887.26
600.29	884.62
600.64	881.73
600.99	879.01
601.34	876.80
601.69	872.95
602.04	869.85
602.39	866.70
602.74	863.99
603.08	861.43
603.43	858.73
603.78	855.73
604.13	852.70
604.48	849.54
604.83	847.24
605.18	844.72
605.53	841.80
605.87	838.84
606.22	836.24
606.57	833.15
606.92	830.12
607.27	826.89
607.62	823.85
607.96	821.33
608.31	818.62
608.66	815.38
609.01	812.37
609.36	809.48
609.70	806.37
610.05	803.00
610.40	799.86
610.75	796.57
611.10	793.77
611.44	790.23
611.79	787.16
612.14	783.62
612.49	779.97
612.83	776.77
613.18	773.30
613.53	769.79
613.88	766.21
614.22	763.09
614.57	759.91
614.92	756.63
615.27	753.01
615.61	749.83
615.96	746.51
616.31	743.47
616.65	740.40
617.00	737.19
617.35	734.09
617.70	730.76
618.04	727.20
618.39	723.49
618.74	720.51
619.08	717.07
619.43	713.87
619.78	710.85
620.12	707.61
620.47	704.50
620.82	701.11
621.16	697.88
621.51	694.65
621.85	691.58
622.20	688.19
622.55	684.99
622.89	681.58
623.24	678.42
623.59	674.81
623.93	671.64
624.28	668.58
624.62	665.68
624.97	662.60
625.32	659.63
625.66	656.75
626.01	653.66
626.35	650.77
626.70	647.52
627.04	644.49
627.39	641.45
627.73	638.46
628.08	635.86
628.43	632.90
628.77	629.74
629.12	626.47
629.46	623.78
629.81	620.99
630.15	618.07
630.50	615.19
630.84	612.40
631.19	609.37
631.53	606.51
631.88	603.26
632.22	600.27
632.57	597.74
632.91	594.92
633.26	592.05
633.60	589.20
633.95	586.69
634.29	583.79
634.64	581.20
634.98	578.32
635.32	575.55
635.67	573.08
636.01	570.62
636.36	568.08
636.70	565.52
637.05	562.89
637.39	560.40
637.73	557.95
638.08	555.75
638.42	553.31
638.77	550.89
639.11	548.63
639.45	546.32
639.80	543.51
640.14	540.99
640.49	538.64
640.83	536.27
641.17	533.81
641.52	531.36
641.86	528.78
642.20	526.60
642.55	523.86
642.89	521.47
643.23	518.93
643.58	516.77
643.92	514.09
644.26	511.65
644.61	509.34
644.95	506.92
645.29	504.40
645.64	502.08
645.98	499.68
646.32	497.34
646.66	494.88
647.01	492.50
647.35	490.24
647.69	487.82
648.04	485.47
648.38	483.12
648.72	480.87
649.06	478.56
649.41	476.12
649.75	474.00
650.09	471.77
650.43	469.64
650.78	467.21
651.12	464.96
651.46	462.78
651.80	460.62
652.14	458.42
652.49	456.36
652.83	454.27
653.17	452.01
653.51	449.82
653.85	447.78
654.20	445.86
654.54	443.65
654.88	441.54
655.22	439.54
655.56	437.31
655.90	435.15
656.25	433.06
656.59	431.03
656.93	429.05
657.27	427.05
657.61	424.84
657.95	422.85
658.29	421.03
658.64	419.27
658.98	417.23
659.32	415.11
659.66	413.02
660.00	410.93
660.34	409.01
660.68	407.05
661.02	405.00
661.36	403.05
661.70	401.28
662.05	399.47
662.39	397.68
662.73	396.21
663.07	394.75
663.41	393.02
663.75	391.31
664.09	389.56
664.43	387.71
664.77	386.08
665.11	384.38
665.45	382.77
665.79	380.99
666.13	379.31
666.47	377.77
666.81	376.27
667.15	374.64
667.49	373.16
667.83	371.76
668.17	370.39
668.51	368.98
668.85	367.56
669.19	366.29
669.53	364.69
669.87	363.03
670.21	361.52
670.55	360.09
670.89	358.88
671.23	357.62
671.57	356.52
671.91	355.33
672.25	354.10
672.58	352.86
672.92	351.48
673.26	350.32
673.60	349.11
673.94	347.76
674.28	346.63
674.62	345.41
674.96	344.09
675.30	342.83
675.64	341.58
675.97	340.32
676.31	339.10
676.65	338.05
676.99	337.13
677.33	335.96
677.67	334.83
678.01	333.49
678.34	332.23
678.68	330.97
679.02	329.78
679.36	328.56
679.70	327.37
680.04	326.38
680.37	325.19
680.71	324.06
681.05	323.07
681.39	321.96
681.73	320.82
682.06	319.85
682.40	318.93
682.74	317.94
683.08	317.12
683.42	316.02
683.75	314.95
684.09	313.75
684.43	312.63
684.77	311.63
685.10	310.72
685.44	309.78
685.78	308.73
686.12	307.74
686.45	306.80
686.79	305.80
687.13	304.97
687.46	304.15
687.80	303.32
688.14	302.30
688.48	301.42
688.81	300.56
689.15	299.69
689.49	298.58
689.82	297.73
690.16	296.56
690.50	295.69
690.83	294.76
691.17	293.78
691.51	292.90
691.84	292.11
692.18	291.16
692.52	290.35
692.85	289.65
693.19	288.97
693.52	288.26
693.86	287.45
694.20	286.63
694.53	285.77
694.87	284.92
695.21	284.18
695.54	283.40
695.88	282.56
696.21	281.80
696.55	281.18
696.88	280.34
697.22	279.58
697.56	278.94
697.89	278.20
698.23	277.55
698.56	276.86
698.90	276.22
699.23	275.53
699.57	274.78
699.90	274.09
700.24	273.25
700.58	272.52
700.91	271.88
701.25	271.45
701.58	270.91
701.92	270.39
702.25	269.82
702.59	269.13
702.92	268.55
703.26	267.86
703.59	267.25
703.93	267.01
704.26	266.50
704.60	265.90
704.93	265.35
705.26	264.85
705.60	264.34
705.93	263.68
706.27	263.25
706.60	262.90
706.94	262.48
707.27	261.99
707.61	261.45
707.94	260.92
708.27	260.14
708.61	259.55
708.94	258.92
709.28	258.37
709.61	257.87
709.94	257.38
710.28	256.90
710.61	256.46
710.95	255.64
711.28	255.40
711.61	254.89
711.95	254.54
712.28	254.03
712.61	253.56
712.95	253.35
713.28	253.00
713.61	252.44
713.95	251.91
714.28	251.58
714.61	251.17
714.95	250.71
715.28	250.22
715.61	249.72
715.95	249.36
716.28	248.97
716.61	248.64
716.95	248.21
717.28	247.88
717.61	247.54
717.94	247.21
718.28	246.69
718.61	246.34
718.94	245.83
719.27	245.51
719.61	245.19
719.94	244.75
720.27	244.22
720.60	243.87
720.94	243.41
721.27	243.02
721.60	242.71
721.93	242.37
722.27	242.18
722.60	241.93
722.93	241.58
723.26	241.35
723.59	241.00
723.93	240.78
724.26	240.47
724.59	240.08
724.92	239.77
725.25	239.49
725.59	239.25
725.92	239.10
726.25	238.82
726.58	238.60
726.91	238.17
727.24	237.96
727.57	237.67
727.91	237.39
728.24	237.10
728.57	236.82
728.90	236.65
729.23	236.33
729.56	236.31
729.89	236.08
730.22	235.81
730.55	235.63
730.89	235.34
731.22	235.09
731.55	234.83
731.88	234.71
732.21	234.41
732.54	234.12
732.87	233.82
733.20	233.56
733.53	233.33
733.86	233.22
734.19	233.07
734.52	232.98
734.85	233.12
735.18	232.87
735.51	232.81
735.84	232.62
736.17	232.52
736.50	232.03
736.83	232.20
737.16	231.91
737.49	231.65
737.82	231.52
738.15	231.32
738.48	231.16
738.81	230.85
739.14	230.62
739.47	230.41
739.80	230.27
740.13	230.12
740.46	229.84
740.79	229.63
741.12	229.30
741.45	228.99
741.78	228.53
742.11	228.49
742.44	228.19
742.77	228.05
743.10	227.84
743.43	227.70
743.75	227.18
744.08	227.48
744.41	227.27
744.74	227.02
745.07	226.91
745.40	226.83
745.73	226.80
746.06	226.67
746.39	226.54
746.71	226.30
747.04	226.07
747.37	225.94
747.70	225.75
748.03	225.69
748.36	225.59
748.68	225.48
749.01	225.21
749.34	225.04
749.67	224.86
750.00	224.70
750.33	224.85
750.65	224.85
750.98	224.33
751.31	224.29
751.64	224.24
751.97	224.21
752.29	224.03
752.62	223.78
752.95	223.55
753.28	223.38
753.60	223.30
753.93	223.35
754.26	223.23
754.59	223.12
754.91	222.88
755.24	222.76
755.57	222.62
755.90	222.50
756.22	222.39
756.55	222.24
756.88	222.14
757.20	221.69
757.53	221.41
757.86	221.31
758.19	221.11
758.51	220.93
758.84	220.60
759.17	220.40
759.49	220.35
759.82	220.50
760.15	220.45
760.47	220.27
760.80	220.07
761.13	220.00
761.45	219.82
761.78	219.78
762.11	219.72
762.43	219.62
762.76	219.56
763.08	219.45
763.41	219.37
763.74	219.24
764.06	219.27
764.39	219.13
764.71	218.98
765.04	218.91
765.37	218.81
765.69	218.75
766.02	218.72
766.34	218.65
766.67	218.40
767.00	218.39
767.32	218.52
767.65	218.58
767.97	218.51
768.30	218.50
768.62	218.42
768.95	218.26
769.27	218.22
769.60	218.21
769.92	218.13
770.25	217.96
770.57	217.84
770.90	217.74
771.22	217.63
771.55	217.65
771.87	217.56
772.20	217.42
772.52	217.63
772.85	217.98
773.17	217.80
773.50	217.68
773.82	217.57
774.15	217.25
774.47	217.04
774.80	217.00
775.12	216.89
775.45	216.82
775.77	216.85
776.09	216.78
776.42	216.63
776.74	216.66
777.07	216.65
777.39	216.62
777.72	216.49
778.04	216.47
778.36	216.35
778.69	216.32
779.01	216.39
779.33	216.05
779.66	215.67
779.98	215.72
780.31	215.72
780.63	215.78
780.95	215.90
781.28	215.82
781.60	215.70
781.92	215.73
782.25	215.65
782.57	215.54
782.89	215.42
783.22	215.41
783.54	215.33
783.86	215.33
784.19	215.26
784.51	215.35
784.83	215.29
785.16	215.21
785.48	215.23
785.80	215.15
786.12	215.12
786.45	214.98
786.77	214.94
787.09	214.91
787.42	214.69
787.74	214.69
788.06	214.70
788.38	214.65
788.71	214.56
789.03	214.60
789.35	214.63
789.67	214.66
789.99	214.63
790.32	214.53
790.64	214.54
790.96	214.84
791.28	214.63
791.61	214.61
791.93	214.61
792.25	214.55
792.57	214.80
792.89	214.76
793.21	214.80
793.54	214.68
793.86	214.60
794.18	214.60
794.50	214.45
794.82	214.42
795.14	214.50
795.47	214.50
795.79	214.43
796.11	214.33
796.43	214.24
796.75	214.22
797.07	214.26
797.39	214.16
797.71	213.90
798.04	213.97
798.36	214.02
798.68	213.97
799.00	213.94
799.32	213.70
799.64	213.72
799.96	213.70
800.28	213.80
800.60	213.81
800.92	213.87
801.24	213.84
801.56	213.80
801.89	213.76
802.21	213.75
802.53	213.74
802.85	213.81
803.17	213.98
803.49	213.93
803.81	213.87
804.13	213.90
804.45	213.82
804.77	213.80
805.09	213.78
805.41	213.79
805.73	213.73
806.05	213.57
806.37	213.57
806.69	213.50
807.01	213.44
807.33	213.41
807.65	213.24
807.97	213.41
808.28	213.30
808.60	213.24
808.92	213.20
809.24	213.37
809.56	213.33
809.88	213.19
810.20	213.22
810.52	213.25
810.84	213.18
811.16	213.12
811.48	213.07
811.80	213.13
812.12	213.13
812.43	213.22
812.75	213.28
813.07	213.20
813.39	213.23
813.71	213.17
814.03	213.13
814.35	213.15
814.67	212.98
814.98	213.06
815.30	213.07
815.62	212.93
815.94	212.64
816.26	212.61
816.58	212.50
816.89	212.49
817.21	212.44
817.53	212.43
817.85	212.44
818.17	212.41
818.48	212.22
818.80	212.24
819.12	212.15
819.44	212.05
819.76	212.04
820.07	212.02
820.39	211.98
820.71	212.05
821.03	212.03
821.34	211.96
821.66	212.01
821.98	212.02
822.30	212.03
822.61	212.30
822.93	212.28
823.25	212.28
823.57	212.19
823.88	212.22
824.20	212.25
824.52	212.32
824.83	212.30
825.15	212.32
825.47	212.27
825.79	212.24
826.10	212.28
826.42	212.28
826.74	212.34
827.05	212.36
827.37	212.37
827.69	212.37
828.00	212.41
828.32	212.41
828.64	212.33
828.95	212.59
829.27	212.44
829.58	212.45
829.90	212.57
830.22	212.60
830.53	212.46
830.85	212.39
831.17	212.29
831.48	212.29
831.80	212.24
832.11	212.27
832.43	212.27
832.75	212.25
833.06	212.40
833.38	212.23
833.69	212.23
834.01	212.18
834.32	212.18
834.64	212.15
834.96	212.15
835.27	212.18
835.59	211.98
835.90	211.95
836.22	211.91
836.53	211.80
836.85	211.76
837.16	212.20
837.48	212.22
837.79	212.31
838.11	212.33
838.42	212.38
838.74	212.40
839.05	212.39
839.37	212.40
839.68	212.19
840.00	212.21
840.31	212.27
840.63	212.22
840.94	212.19
841.26	212.14
841.57	212.09
841.88	212.12
842.20	212.14
842.51	212.09
842.83	212.10
843.14	212.44
843.46	212.50
843.77	212.20
844.08	212.18
844.40	212.08
844.71	212.06
845.03	212.03
845.34	211.96
845.65	211.96
845.97	211.93
846.28	211.95
846.60	211.97
846.91	211.91
847.22	211.94
847.54	211.98
847.85	211.97
848.16	211.93
848.48	211.85
848.79	211.99
849.10	212.05
849.42	212.00
849.73	211.63
850.04	211.57
850.36	211.50
850.67	211.51
850.98	211.53
851.30	211.50
851.61	211.51
851.92	211.53
852.23	211.58
852.55	211.60
852.86	211.71
853.17	211.74
853.49	211.73
853.80	211.83
854.11	211.84
854.42	211.95
854.74	211.88
855.05	211.94
855.36	211.71
855.67	211.68
855.99	211.71
856.30	212.14
856.61	212.14
856.92	212.17
857.23	212.14
857.55	212.13
857.86	212.17
858.17	212.18
858.48	212.07
858.79	211.99
859.11	212.03
859.42	211.89
859.73	211.81
860.04	211.85
860.35	211.70
860.66	211.61
860.98	211.53
861.29	211.64
861.60	211.64
861.91	211.72
862.22	211.65
862.53	211.61
862.84	211.25
863.16	211.37
863.47	211.34
863.78	211.29
864.09	211.30
864.40	211.30
864.71	211.27
865.02	211.39
865.33	211.34
865.64	211.24
865.95	211.33
866.27	211.60
866.58	211.52
866.89	211.56
867.20	211.59
867.51	211.58
867.82	211.59
868.13	211.67
868.44	211.62
868.75	211.73
869.06	211.77
869.37	211.75
869.68	211.62
869.99	211.66
870.30	211.78
870.61	211.83
870.92	211.86
871.23	211.92
871.54	211.95
871.85	212.07
872.16	212.17
872.47	212.12
872.78	211.90
873.09	212.02
873.40	212.03
873.71	212.08
874.02	212.10
874.33	212.07
874.64	211.97
874.95	212.06
875.26	211.98
875.56	211.96
875.87	211.97
876.18	211.94
876.49	212.25
876.80	212.22
877.11	212.14
877.42	212.20
877.73	212.13
878.04	212.10
878.35	212.11
878.66	212.13
878.96	212.19
879.27	212.24
879.58	212.17
879.89	212.20
880.20	212.30
880.51	212.35
880.82	212.30
881.12	212.36
881.43	212.27
881.74	212.29
882.05	212.29
882.36	212.30
882.67	212.28
882.97	211.95
883.28	211.98
883.59	212.00
883.90	211.98
884.21	212.10
884.51	212.08
884.82	212.01
885.13	211.97
885.44	211.95
885.74	211.90
886.05	211.93
886.36	211.88
886.67	211.76
886.98	211.86
887.28	211.94
887.59	211.87
887.90	211.87
888.20	211.82
888.51	211.88
888.82	211.78
889.13	211.85
889.43	212.14
889.74	212.07
890.05	212.09
890.35	212.01
890.66	211.88
890.97	211.85
891.28	211.80
891.58	211.84
891.89	211.78
892.20	211.76
892.50	211.70
892.81	211.69
893.12	211.69
893.42	211.50
893.73	211.46
894.04	211.53
894.34	211.55
894.65	211.57
894.95	211.49
895.26	211.50
895.57	211.63
895.87	211.26
896.18	211.31
896.48	211.26
896.79	211.27
897.10	211.29
897.40	211.25
897.71	211.27
898.01	211.21
898.32	211.25
898.63	211.15
898.93	211.14
899.24	211.12
899.54	211.12
899.85	211.13
900.15	211.14
900.46	211.13
900.76	211.14
901.07	211.08
901.38	211.15
901.68	211.20
901.99	211.07
902.29	211.14
902.60	211.07
902.90	211.08
903.21	211.06
903.51	211.05
903.82	211.19
904.12	211.18
904.43	211.26
904.73	211.28
905.03	211.42
905.34	211.79
905.64	211.76
905.95	211.70
906.25	211.75
906.56	211.74
906.86	211.71
907.17	211.68
907.47	211.83
907.77	211.81
908.08	211.75
908.38	211.76
908.69	211.75
908.99	211.77
909.30	211.86
909.60	211.88
909.90	211.97
910.21	211.84
910.51	211.83
910.81	211.78
911.12	211.74
911.42	211.71
911.73	211.35
912.03	211.37
912.33	211.49
912.64	211.41
912.94	211.37
913.24	211.35
913.55	211.33
913.85	211.25
914.15	211.25
914.46	211.33
914.76	211.30
915.06	211.33
915.37	211.30
915.67	211.21
915.97	211.23
916.27	211.18
916.58	211.20
916.88	211.20
917.18	211.19
917.49	211.46
917.79	211.52
918.09	211.60
918.39	211.64
918.70	211.65
919.00	211.68
919.30	211.86
919.60	211.77
919.91	211.74
920.21	211.76
920.51	211.62
920.81	211.56
921.12	211.62
921.42	211.57
921.72	211.66
922.02	211.68
922.32	211.61
922.63	211.55
922.93	211.80
923.23	211.80
923.53	211.75
923.83	211.50
924.13	211.46
924.44	211.44
924.74	211.52
925.04	211.55
925.34	211.50
925.64	211.38
925.94	211.43
926.24	211.58
926.55	211.50
926.85	211.65
927.15	211.65
927.45	211.64
927.75	211.60
928.05	211.50
928.35	211.46
928.65	211.60
928.95	211.61
929.26	211.41
929.56	211.48
929.86	211.52
930.16	211.54
930.46	211.48
930.76	211.44
931.06	211.28
931.36	211.17
931.66	211.26
931.96	211.22
932.26	211.27
932.56	211.14
932.86	211.16
933.16	211.14
933.46	211.11
933.76	211.08
934.06	211.15
934.36	211.35
934.66	211.38
934.96	211.26
935.26	211.34
935.56	211.39
935.86	211.25
936.16	211.18
936.46	211.10
936.76	211.08
937.06	211.12
937.36	211.14
937.66	211.19
937.96	211.19
938.26	211.13
938.56	211.04
938.86	211.08
939.16	211.19
939.46	211.22
939.76	211.24
940.06	211.25
940.35	211.22
940.65	210.99
940.95	211.00
941.25	210.97
941.55	210.92
941.85	210.95
942.15	211.05
942.45	211.21
942.75	211.20
943.04	211.24
943.34	211.21
943.64	211.18
943.94	211.10
944.24	211.06
944.54	211.08
944.84	211.07
945.13	211.08
945.43	211.02
945.73	210.97
946.03	210.99
946.33	210.90
946.62	210.84
946.92	210.90
947.22	210.94
947.52	210.95
947.82	211.00
948.11	210.82
948.41	210.81
948.71	210.71
949.01	210.74
949.31	210.72
949.60	210.73
949.90	210.75
950.20	210.78
950.50	210.81
950.79	210.80
951.09	210.91
951.39	210.86
951.69	210.84
951.98	210.94
952.28	210.92
952.58	211.00
952.87	211.02
953.17	211.08
953.47	211.02
953.76	211.07
954.06	211.04
954.36	211.06
954.66	211.04
954.95	211.11
955.25	211.15
955.55	211.19
955.84	211.14
956.14	211.23
956.44	211.30
956.73	211.25
957.03	211.25
957.32	211.21
957.62	211.20
957.92	211.25
958.21	211.24
958.51	211.60
958.81	211.59
959.10	211.70
959.40	211.75
959.69	211.77
959.99	211.79
960.29	211.75
960.58	211.79
960.88	211.95
961.17	211.89
961.47	211.93
961.76	211.88
962.06	211.96
962.36	211.94
962.65	211.93
962.95	211.97
963.24	211.92
963.54	211.89
963.83	211.97
964.13	211.95
964.42	211.85
964.72	211.68
965.01	211.66
965.31	211.55
965.60	211.46
965.90	211.62
966.19	211.55
966.49	211.56
966.78	211.47
967.08	211.35
967.37	211.37
967.67	211.23
967.96	211.29
968.26	211.21
968.55	211.25
968.85	211.14
969.14	211.09
969.43	211.06
969.73	211.10
970.02	210.99
970.32	210.98
970.61	210.93
970.91	210.70
971.20	210.63
971.49	210.63
971.79	210.62
972.08	210.42
972.38	210.50
972.67	210.43
972.96	210.56
973.26	210.49
973.55	210.64
973.85	210.63
974.14	210.59
974.43	210.65
974.73	210.48
975.02	210.51
975.31	210.50
975.61	210.51
975.90	210.45
976.19	210.39
976.49	210.41
976.78	210.39
977.07	210.43
977.37	210.48
977.66	210.49
977.95	210.45
978.24	210.52
978.54	210.53
978.83	210.54
979.12	210.47
979.42	210.44
979.71	210.38
980.00	210.38
980.29	210.39
980.59	210.37
980.88	210.58
981.17	210.57
981.46	210.60
981.76	210.67
982.05	210.80
982.34	210.91
982.63	210.91
982.93	210.96
983.22	211.08
983.51	211.13
983.80	211.17
984.09	211.20
984.39	211.13
984.68	211.06
984.97	211.16
985.26	211.17
985.55	211.28
985.85	211.17
986.14	211.26
986.43	211.37
986.72	211.37
987.01	211.24
987.30	211.27
987.59	211.24
987.89	211.21
988.18	211.07
988.47	210.99
988.76	210.98
989.05	210.97
989.34	210.90
989.63	210.96
989.92	210.90
990.22	210.77
990.51	210.81
990.80	210.82
991.09	210.75
991.38	210.76
991.67	210.75
991.96	210.72
992.25	210.76
992.54	210.65
992.83	210.70
993.12	210.78
993.41	210.81
993.70	211.02
993.99	211.09
994.28	211.17
994.58	211.22
994.87	211.12
995.16	211.16
995.45	211.11
995.74	210.97
996.03	211.03
996.32	211.15
996.61	211.23
996.90	211.21
997.19	211.24
997.48	211.19
997.77	211.10
998.06	211.06
998.34	211.01
998.63	211.00
998.92	210.93
999.21	210.93
999.50	210.94
999.79	210.82
1000.08	210.77
1000.37	210.78
1000.66	210.77
1000.95	210.93
1001.24	210.91
1001.53	210.94
1001.82	210.95
1002.11	210.91
1002.40	210.90
1002.68	210.94
1002.97	211.16
1003.26	211.13
1003.55	211.13
1003.84	211.09
1004.13	211.22
1004.42	211.19
1004.71	211.19
1004.99	211.18
1005.28	211.21
1005.57	211.20
1005.86	211.11
1006.15	211.11
1006.44	211.11
1006.72	211.18
1007.01	211.06
1007.30	211.02
1007.59	210.98
1007.88	211.00
1008.17	211.03
1008.45	211.02
1008.74	210.85
1009.03	210.73
1009.32	210.70
1009.60	210.73
1009.89	210.82
1010.18	210.66
1010.47	210.60
1010.76	210.59
1011.04	210.60
1011.33	210.92
1011.62	210.87
1011.91	210.87
1012.19	210.88
1012.48	210.82
1012.77	210.87
1013.05	211.06
1013.34	211.07
1013.63	211.06
1013.92	211.11
1014.20	211.10
1014.49	211.09
1014.78	211.15
1015.06	211.00
1015.35	210.99
1015.64	211.02
1015.92	211.05
1016.21	211.07
1016.50	211.08
1016.78	211.15
1017.07	211.11
1017.36	210.70
1017.64	210.73
1017.93	210.75
1018.22	210.71
1018.50	210.70
1018.79	210.62
1019.08	210.47
1019.36	210.50
1019.65	210.43
1019.93	210.50
1020.22	210.50
1020.51	210.69
1020.79	210.62
1021.08	209.75
1021.36	210.20
1021.65	210.75
1021.94	210.90
1022.22	210.85
1022.51	209.40
1022.79	212.50
1023.08	210.65
1023.36	214.60
1023.65	209.30
>>>>>End Processed Spectral Data<<<<<
