SpectraSuite Data File
++++++++++++++++++++++++++++++++++++
Date: Mon Feb 25 17:06:49 EST 2013
User: group
Dark Spectrum Present: No
Reference Spectrum Present: No
Number of Sampled Component Spectra: 1
Spectrometers: USB2E7196
Integration Time (usec): 104000 (USB2E7196)
Spectra Averaged: 20 (USB2E7196)
Boxcar Smoothing: 10 (USB2E7196)
Correct for Electrical Dark: No (USB2E7196)
Strobe/Lamp Enabled: No (USB2E7196)
Correct for Detector Non-linearity: No (USB2E7196)
Correct for Stray Light: No (USB2E7196)
Number of Pixels in Processed Spectrum: 2048
>>>>>Begin Processed Spectral Data<<<<<
339.09	0.00
339.48	197.60
339.86	200.70
340.24	200.95
340.63	203.30
341.01	209.70
341.39	205.25
341.78	205.55
342.16	208.15
342.54	208.10
342.93	197.94
343.31	207.96
343.69	208.54
344.07	208.94
344.46	209.46
344.84	209.81
345.22	209.87
345.60	210.16
345.99	210.44
346.37	210.56
346.75	210.59
347.13	210.71
347.52	210.77
347.90	210.88
348.28	210.87
348.66	210.95
349.05	210.81
349.43	210.95
349.81	210.97
350.19	211.03
350.57	211.07
350.96	211.21
351.34	211.37
351.72	211.42
352.10	211.52
352.48	211.50
352.87	211.59
353.25	211.61
353.63	211.62
354.01	211.64
354.39	211.74
354.77	211.94
355.15	212.13
355.54	212.22
355.92	212.25
356.30	212.33
356.68	212.60
357.06	212.71
357.44	212.66
357.82	212.70
358.20	212.78
358.58	212.87
358.97	212.84
359.35	212.83
359.73	213.00
360.11	213.11
360.49	213.14
360.87	213.16
361.25	213.26
361.63	213.43
362.01	213.49
362.39	213.46
362.77	213.46
363.15	213.46
363.53	213.51
363.91	213.45
364.29	213.41
364.67	213.11
365.05	213.09
365.43	213.17
365.81	213.22
366.19	213.39
366.57	213.46
366.95	213.47
367.33	213.37
367.71	213.29
368.09	213.31
368.47	213.34
368.85	213.31
369.23	213.35
369.61	213.18
369.99	213.29
370.37	213.31
370.75	213.42
371.13	213.25
371.51	213.16
371.89	213.16
372.27	213.18
372.65	213.18
373.03	213.15
373.41	213.04
373.78	212.97
374.16	212.71
374.54	212.58
374.92	212.52
375.30	212.52
375.68	212.38
376.06	212.24
376.44	212.16
376.82	212.10
377.19	212.05
377.57	211.99
377.95	211.82
378.33	211.77
378.71	211.56
379.09	211.56
379.47	211.56
379.84	211.45
380.22	211.36
380.60	211.26
380.98	211.21
381.36	211.19
381.73	211.02
382.11	211.06
382.49	211.03
382.87	210.92
383.25	210.87
383.62	211.35
384.00	211.31
384.38	211.23
384.76	211.33
385.13	211.38
385.51	211.31
385.89	211.21
386.27	211.19
386.64	211.19
387.02	211.12
387.40	211.03
387.78	211.07
388.15	211.02
388.53	211.00
388.91	210.98
389.29	210.87
389.66	210.95
390.04	210.86
390.42	210.87
390.79	210.89
391.17	210.87
391.55	210.38
391.92	210.34
392.30	210.38
392.68	210.17
393.05	210.12
393.43	210.16
393.81	210.17
394.18	210.08
394.56	210.10
394.94	210.21
395.31	210.17
395.69	210.28
396.06	210.39
396.44	210.44
396.82	210.32
397.19	210.57
397.57	210.54
397.95	210.63
398.32	210.53
398.70	210.59
399.07	210.69
399.45	210.65
399.82	210.73
400.20	210.66
400.58	210.72
400.95	210.56
401.33	210.65
401.70	210.95
402.08	211.00
402.45	211.02
402.83	211.12
403.20	211.20
403.58	211.15
403.95	211.24
404.33	211.27
404.71	211.42
405.08	211.59
405.46	211.69
405.83	211.73
406.21	211.86
406.58	211.85
406.96	211.96
407.33	212.17
407.70	212.31
408.08	212.81
408.45	212.99
408.83	213.26
409.20	213.39
409.58	213.36
409.95	213.66
410.33	213.95
410.70	214.04
411.08	214.34
411.45	214.72
411.82	214.85
412.20	215.20
412.57	215.68
412.95	215.72
413.32	216.20
413.69	216.58
414.07	217.04
414.44	217.63
414.82	218.08
415.19	218.63
415.56	219.15
415.94	219.51
416.31	220.31
416.68	221.03
417.06	221.83
417.43	222.70
417.81	223.59
418.18	224.48
418.55	225.48
418.93	226.55
419.30	227.59
419.67	228.86
420.04	230.02
420.42	231.17
420.79	232.86
421.16	234.15
421.54	235.80
421.91	237.30
422.28	238.83
422.66	240.55
423.03	242.48
423.40	244.31
423.77	246.23
424.15	248.04
424.52	249.97
424.89	252.13
425.26	254.02
425.64	255.92
426.01	258.02
426.38	260.19
426.75	262.45
427.13	264.84
427.50	267.25
427.87	269.83
428.24	272.40
428.61	274.72
428.99	277.65
429.36	280.51
429.73	283.40
430.10	286.43
430.47	289.47
430.85	292.29
431.22	295.49
431.59	299.25
431.96	302.57
432.33	306.38
432.70	310.05
433.08	314.36
433.45	318.39
433.82	322.43
434.19	327.05
434.56	331.53
434.93	335.69
435.30	339.92
435.68	344.60
436.05	349.22
436.42	353.75
436.79	357.92
437.16	362.48
437.53	367.36
437.90	372.03
438.27	376.76
438.64	381.63
439.01	386.21
439.38	390.07
439.75	394.16
440.13	398.60
440.50	402.73
440.87	406.11
441.24	409.73
441.61	413.65
441.98	416.54
442.35	419.89
442.72	423.39
443.09	426.89
443.46	429.11
443.83	430.58
444.20	431.97
444.57	433.74
444.94	434.78
445.31	435.86
445.68	437.32
446.05	437.80
446.42	437.59
446.79	437.38
447.16	436.90
447.53	436.58
447.90	435.01
448.27	433.64
448.64	431.56
449.01	430.17
449.37	427.39
449.74	424.66
450.11	421.55
450.48	417.82
450.85	413.83
451.22	410.41
451.59	407.42
451.96	404.44
452.33	400.41
452.70	396.68
453.07	392.08
453.43	387.11
453.80	382.83
454.17	378.77
454.54	374.80
454.91	370.58
455.28	366.35
455.65	362.44
456.02	358.86
456.38	355.62
456.75	351.44
457.12	347.94
457.49	344.48
457.86	340.93
458.23	338.17
458.59	335.13
458.96	332.07
459.33	329.21
459.70	326.40
460.07	324.20
460.43	321.73
460.80	319.47
461.17	317.44
461.54	315.25
461.91	313.10
462.27	310.88
462.64	309.08
463.01	307.20
463.38	305.45
463.74	303.07
464.11	301.21
464.48	299.64
464.85	297.97
465.21	296.75
465.58	295.44
465.95	293.75
466.32	292.38
466.68	291.00
467.05	289.64
467.42	288.29
467.78	286.82
468.15	285.48
468.52	284.49
468.88	283.18
469.25	281.98
469.62	281.10
469.98	280.08
470.35	279.03
470.72	278.10
471.08	276.98
471.45	276.14
471.82	275.43
472.18	274.56
472.55	273.90
472.92	273.02
473.28	272.23
473.65	271.56
474.02	270.85
474.38	270.33
474.75	269.81
475.11	269.29
475.48	268.86
475.85	268.36
476.21	267.99
476.58	267.71
476.94	267.45
477.31	267.19
477.67	266.90
478.04	266.68
478.41	266.52
478.77	266.73
479.14	266.51
479.50	266.36
479.87	266.29
480.23	266.24
480.60	266.07
480.96	265.98
481.33	266.20
481.69	266.18
482.06	266.24
482.42	266.32
482.79	266.43
483.15	266.54
483.52	266.88
483.88	266.92
484.25	266.96
484.61	267.16
484.98	267.22
485.34	267.50
485.71	267.86
486.07	268.04
486.44	268.00
486.80	268.35
487.17	268.74
487.53	269.21
487.90	269.70
488.26	270.50
488.62	271.20
488.99	271.58
489.35	272.25
489.72	272.84
490.08	273.50
490.44	274.12
490.81	274.90
491.17	275.49
491.54	276.34
491.90	277.27
492.26	278.09
492.63	278.98
492.99	279.97
493.36	280.88
493.72	281.96
494.08	283.06
494.45	284.20
494.81	285.36
495.17	286.43
495.54	287.71
495.90	288.75
496.26	289.91
496.63	291.16
496.99	292.40
497.35	293.70
497.72	295.09
498.08	296.46
498.44	297.86
498.80	299.38
499.17	300.81
499.53	302.12
499.89	303.71
500.26	305.26
500.62	306.77
500.98	308.45
501.34	310.06
501.71	311.70
502.07	313.31
502.43	314.94
502.79	316.57
503.16	318.02
503.52	319.68
503.88	321.35
504.24	323.09
504.60	324.86
504.97	326.57
505.33	328.15
505.69	329.99
506.05	331.79
506.41	333.44
506.78	335.08
507.14	336.81
507.50	338.64
507.86	340.44
508.22	342.25
508.59	344.00
508.95	345.77
509.31	347.65
509.67	349.45
510.03	351.21
510.39	353.10
510.75	355.05
511.12	356.88
511.48	358.74
511.84	360.63
512.20	362.41
512.56	364.33
512.92	366.29
513.28	368.27
513.64	370.04
514.00	372.06
514.37	374.08
514.73	376.18
515.09	378.00
515.45	379.99
515.81	381.87
516.17	383.81
516.53	385.70
516.89	387.46
517.25	389.50
517.61	391.55
517.97	393.64
518.33	395.51
518.69	397.64
519.05	399.77
519.41	401.85
519.77	404.40
520.13	406.58
520.49	408.72
520.85	410.72
521.21	413.22
521.57	415.41
521.93	417.53
522.29	419.84
522.65	422.07
523.01	424.39
523.37	426.62
523.73	428.98
524.09	431.39
524.45	433.88
524.81	436.35
525.17	438.87
525.53	441.32
525.89	444.11
526.25	446.76
526.61	449.27
526.97	451.93
527.33	454.33
527.68	457.36
528.04	460.14
528.40	462.95
528.76	465.73
529.12	468.70
529.48	471.87
529.84	474.72
530.20	477.80
530.56	480.87
530.91	484.14
531.27	487.41
531.63	490.59
531.99	493.83
532.35	496.80
532.71	499.97
533.07	503.28
533.42	506.78
533.78	509.93
534.14	513.15
534.50	516.16
534.86	519.51
535.21	522.41
535.57	525.81
535.93	529.09
536.29	532.36
536.65	535.59
537.00	538.57
537.36	541.83
537.72	545.09
538.08	548.35
538.44	551.44
538.79	554.64
539.15	557.85
539.51	561.01
539.87	564.44
540.22	567.61
540.58	570.83
540.94	573.77
541.29	577.07
541.65	580.14
542.01	583.57
542.37	586.77
542.72	589.92
543.08	592.88
543.44	596.06
543.79	598.91
544.15	601.92
544.51	605.33
544.87	608.48
545.22	611.45
545.58	614.31
545.94	617.22
546.29	620.07
546.65	622.93
547.01	625.84
547.36	628.73
547.72	631.72
548.07	634.47
548.43	637.09
548.79	639.61
549.14	642.28
549.50	644.92
549.86	647.22
550.21	649.76
550.57	652.51
550.92	654.82
551.28	657.34
551.64	659.86
551.99	662.03
552.35	664.29
552.70	666.52
553.06	668.78
553.41	670.89
553.77	673.05
554.13	675.23
554.48	677.47
554.84	679.60
555.19	681.43
555.55	683.56
555.90	685.47
556.26	687.24
556.61	689.10
556.97	690.60
557.32	692.45
557.68	694.02
558.03	695.61
558.39	697.18
558.74	698.87
559.10	700.46
559.45	702.29
559.81	703.85
560.16	705.25
560.52	706.94
560.87	708.52
561.23	709.87
561.58	711.70
561.94	712.94
562.29	714.21
562.64	715.62
563.00	716.59
563.35	718.07
563.71	719.63
564.06	720.73
564.42	722.02
564.77	723.37
565.12	724.92
565.48	726.43
565.83	727.98
566.19	729.15
566.54	729.99
566.89	730.72
567.25	731.94
567.60	733.22
567.96	734.34
568.31	735.55
568.66	736.42
569.02	736.62
569.37	737.10
569.72	737.59
570.08	738.13
570.43	738.51
570.78	738.74
571.14	739.03
571.49	739.42
571.84	739.68
572.20	739.57
572.55	739.55
572.90	739.05
573.26	738.72
573.61	738.46
573.96	738.36
574.31	737.95
574.67	737.31
575.02	736.69
575.37	735.69
575.72	734.89
576.08	734.31
576.43	733.78
576.78	733.34
577.13	732.87
577.49	732.32
577.84	732.07
578.19	731.58
578.54	731.10
578.90	730.72
579.25	730.39
579.60	729.82
579.95	728.96
580.30	728.55
580.66	727.91
581.01	727.18
581.36	726.39
581.71	725.83
582.06	725.31
582.42	724.66
582.77	724.07
583.12	723.33
583.47	722.66
583.82	722.23
584.17	721.41
584.53	720.88
584.88	720.10
585.23	719.25
585.58	718.49
585.93	717.58
586.28	716.86
586.63	716.02
586.98	715.31
587.34	714.73
587.69	713.80
588.04	713.03
588.39	712.40
588.74	711.50
589.09	710.86
589.44	709.61
589.79	708.77
590.14	707.99
590.49	707.10
590.84	706.15
591.19	705.26
591.54	704.52
591.89	703.10
592.25	702.24
592.60	701.12
592.95	699.88
593.30	698.71
593.65	697.32
594.00	695.86
594.35	695.47
594.70	693.96
595.05	692.84
595.40	691.48
595.75	689.97
596.10	688.78
596.45	687.50
596.80	686.65
597.15	685.55
597.50	684.34
597.85	683.29
598.19	682.08
598.54	680.69
598.89	679.31
599.24	678.49
599.59	677.14
599.94	675.96
600.29	674.83
600.64	673.47
600.99	672.31
601.34	671.32
601.69	669.19
602.04	668.06
602.39	666.75
602.74	665.68
603.08	664.74
603.43	664.09
603.78	662.95
604.13	661.75
604.48	660.57
604.83	659.51
605.18	658.59
605.53	657.46
605.87	656.26
606.22	655.19
606.57	653.89
606.92	652.47
607.27	651.12
607.62	649.75
607.96	648.80
608.31	647.69
608.66	646.30
609.01	645.16
609.36	643.88
609.70	642.35
610.05	640.92
610.40	639.47
610.75	637.56
611.10	636.09
611.44	634.39
611.79	632.59
612.14	630.67
612.49	628.63
612.83	626.84
613.18	625.03
613.53	623.30
613.88	621.24
614.22	619.63
614.57	617.93
614.92	616.07
615.27	614.16
615.61	612.26
615.96	610.48
616.31	608.61
616.65	607.03
617.00	605.43
617.35	603.45
617.70	601.42
618.04	599.51
618.39	597.35
618.74	595.57
619.08	593.66
619.43	591.89
619.78	590.08
620.12	588.23
620.47	586.41
620.82	584.21
621.16	582.24
621.51	580.35
621.85	578.40
622.20	576.60
622.55	574.46
622.89	572.42
623.24	570.56
623.59	568.35
623.93	566.26
624.28	564.27
624.62	562.67
624.97	560.90
625.32	559.05
625.66	557.20
626.01	555.21
626.35	553.45
626.70	551.47
627.04	549.65
627.39	547.70
627.73	545.81
628.08	544.25
628.43	542.40
628.77	540.43
629.12	538.42
629.46	536.63
629.81	534.79
630.15	532.83
630.50	530.76
630.84	528.92
631.19	527.02
631.53	525.08
631.88	522.88
632.22	520.79
632.57	519.07
632.91	517.32
633.26	515.57
633.60	513.67
633.95	512.00
634.29	510.09
634.64	508.48
634.98	506.66
635.32	504.74
635.67	503.11
636.01	501.42
636.36	499.65
636.70	497.85
637.05	496.25
637.39	494.60
637.73	493.06
638.08	491.73
638.42	490.16
638.77	488.50
639.11	486.80
639.45	485.14
639.80	483.16
640.14	481.27
640.49	479.44
640.83	477.71
641.17	475.91
641.52	473.94
641.86	471.95
642.20	470.33
642.55	468.36
642.89	466.33
643.23	464.48
643.58	463.01
643.92	461.06
644.26	459.14
644.61	457.42
644.95	455.52
645.29	453.53
645.64	451.60
645.98	449.87
646.32	448.23
646.66	446.31
647.01	444.69
647.35	443.08
647.69	441.30
648.04	439.60
648.38	437.83
648.72	436.22
649.06	434.48
649.41	432.58
649.75	430.97
650.09	429.40
650.43	427.57
650.78	425.49
651.12	423.84
651.46	422.20
651.80	420.47
652.14	418.84
652.49	417.18
652.83	415.45
653.17	413.52
653.51	411.74
653.85	410.30
654.20	408.58
654.54	406.72
654.88	404.95
655.22	403.27
655.56	401.57
655.90	399.76
656.25	398.13
656.59	396.54
656.93	394.83
657.27	393.38
657.61	391.77
657.95	390.32
658.29	388.73
658.64	387.21
658.98	385.60
659.32	383.89
659.66	382.28
660.00	380.75
660.34	379.29
660.68	377.75
661.02	376.15
661.36	374.60
661.70	373.11
662.05	371.70
662.39	370.33
662.73	369.00
663.07	367.85
663.41	366.38
663.75	364.73
664.09	363.35
664.43	361.73
664.77	360.32
665.11	358.95
665.45	357.62
665.79	356.32
666.13	354.98
666.47	353.69
666.81	352.32
667.15	351.01
667.49	349.82
667.83	348.68
668.17	347.38
668.51	346.17
668.85	345.09
669.19	343.97
669.53	342.58
669.87	341.25
670.21	340.03
670.55	338.85
670.89	338.00
671.23	336.96
671.57	335.86
671.91	334.73
672.25	333.62
672.58	332.43
672.92	331.20
673.26	330.11
673.60	329.02
673.94	328.07
674.28	326.95
674.62	326.02
674.96	324.86
675.30	323.85
675.64	322.82
675.97	321.69
676.31	320.66
676.65	319.63
676.99	318.82
677.33	317.68
677.67	316.74
678.01	315.60
678.34	314.58
678.68	313.75
679.02	312.79
679.36	311.89
679.70	311.05
680.04	310.16
680.37	309.22
680.71	308.30
681.05	307.29
681.39	306.45
681.73	305.41
682.06	304.53
682.40	303.68
682.74	302.84
683.08	302.14
683.42	301.16
683.75	300.37
684.09	299.25
684.43	298.40
684.77	297.54
685.10	296.61
685.44	295.75
685.78	294.83
686.12	293.99
686.45	293.08
686.79	292.21
687.13	291.42
687.46	290.56
687.80	289.79
688.14	289.05
688.48	288.30
688.81	287.53
689.15	286.77
689.49	285.88
689.82	285.08
690.16	284.08
690.50	283.42
690.83	282.55
691.17	281.81
691.51	281.19
691.84	280.45
692.18	279.81
692.52	279.12
692.85	278.47
693.19	277.85
693.52	277.14
693.86	276.42
694.20	275.67
694.53	275.04
694.87	274.39
695.21	273.67
695.54	272.90
695.88	272.09
696.21	271.38
696.55	270.82
696.88	270.18
697.22	269.56
697.56	268.90
697.89	268.30
698.23	267.71
698.56	267.00
698.90	266.54
699.23	265.88
699.57	265.29
699.90	264.65
700.24	264.08
700.58	263.57
700.91	262.94
701.25	262.64
701.58	262.15
701.92	261.61
702.25	261.08
702.59	260.60
702.92	260.15
703.26	259.66
703.59	259.13
703.93	258.90
704.26	258.41
704.60	257.99
704.93	257.41
705.26	256.85
705.60	256.52
705.93	255.81
706.27	255.49
706.60	255.07
706.94	254.73
707.27	254.19
707.61	253.74
707.94	253.28
708.27	252.52
708.61	252.07
708.94	251.63
709.28	251.20
709.61	250.78
709.94	250.44
710.28	250.10
710.61	249.74
710.95	249.02
711.28	248.83
711.61	248.44
711.95	248.20
712.28	247.86
712.61	247.33
712.95	247.19
713.28	246.91
713.61	246.53
713.95	246.12
714.28	245.83
714.61	245.44
714.95	245.16
715.28	244.87
715.61	244.50
715.95	244.14
716.28	243.70
716.61	243.26
716.95	242.87
717.28	242.46
717.61	242.05
717.94	241.70
718.28	241.24
718.61	240.88
718.94	240.49
719.27	240.23
719.61	239.94
719.94	239.58
720.27	239.14
720.60	238.80
720.94	238.49
721.27	238.19
721.60	238.01
721.93	237.76
722.27	237.61
722.60	237.39
722.93	237.12
723.26	236.85
723.59	236.63
723.93	236.38
724.26	236.13
724.59	235.96
724.92	235.88
725.25	235.72
725.59	235.42
725.92	235.28
726.25	235.07
726.58	234.91
726.91	234.65
727.24	234.48
727.57	234.30
727.91	234.01
728.24	233.89
728.57	233.60
728.90	233.42
729.23	233.06
729.56	233.02
729.89	232.88
730.22	232.74
730.55	232.51
730.89	232.32
731.22	232.11
731.55	231.93
731.88	231.69
732.21	231.37
732.54	231.17
732.87	230.97
733.20	230.79
733.53	230.58
733.86	230.49
734.19	230.23
734.52	230.09
734.85	230.15
735.18	229.90
735.51	229.81
735.84	229.61
736.17	229.59
736.50	229.19
736.83	229.34
737.16	229.18
737.49	229.08
737.82	228.87
738.15	228.77
738.48	228.47
738.81	228.23
739.14	228.05
739.47	227.88
739.80	227.70
740.13	227.54
740.46	227.35
740.79	227.08
741.12	226.86
741.45	226.66
741.78	226.35
742.11	226.30
742.44	226.08
742.77	225.95
743.10	225.72
743.43	225.55
743.75	225.04
744.08	225.37
744.41	225.15
744.74	225.05
745.07	224.88
745.40	224.79
745.73	224.84
746.06	224.76
746.39	224.75
746.71	224.60
747.04	224.44
747.37	224.37
747.70	224.32
748.03	224.32
748.36	224.17
748.68	223.98
749.01	223.76
749.34	223.69
749.67	223.64
750.00	223.54
750.33	223.67
750.65	223.52
750.98	222.90
751.31	222.86
751.64	222.75
751.97	222.74
752.29	222.65
752.62	222.33
752.95	222.19
753.28	221.98
753.60	221.86
753.93	221.81
754.26	221.65
754.59	221.41
754.91	221.20
755.24	221.12
755.57	221.04
755.90	220.87
756.22	220.68
756.55	220.55
756.88	220.37
757.20	220.04
757.53	219.93
757.86	219.89
758.19	219.80
758.51	219.66
758.84	219.45
759.17	219.31
759.49	219.25
759.82	219.30
760.15	219.25
760.47	219.13
760.80	218.94
761.13	218.94
761.45	218.85
761.78	218.82
762.11	218.74
762.43	218.62
762.76	218.62
763.08	218.59
763.41	218.45
763.74	218.44
764.06	218.35
764.39	218.31
764.71	218.23
765.04	218.04
765.37	217.95
765.69	217.83
766.02	217.78
766.34	217.65
766.67	217.42
767.00	217.44
767.32	217.62
767.65	217.74
767.97	217.58
768.30	217.57
768.62	217.50
768.95	217.37
769.27	217.31
769.60	217.27
769.92	217.14
770.25	217.08
770.57	216.99
770.90	216.98
771.22	216.86
771.55	216.76
771.87	216.81
772.20	216.76
772.52	217.03
772.85	217.43
773.17	217.39
773.50	217.37
773.82	217.28
774.15	217.03
774.47	216.73
774.80	216.68
775.12	216.60
775.45	216.54
775.77	216.51
776.09	216.51
776.42	216.48
776.74	216.47
777.07	216.40
777.39	216.31
777.72	216.26
778.04	216.28
778.36	216.20
778.69	216.10
779.01	216.08
779.33	215.70
779.66	215.19
779.98	215.20
780.31	215.16
780.63	215.16
780.95	215.11
781.28	215.13
781.60	215.01
781.92	214.97
782.25	214.92
782.57	214.90
782.89	214.85
783.22	214.74
783.54	214.70
783.86	214.71
784.19	214.65
784.51	214.68
784.83	214.48
785.16	214.39
785.48	214.42
785.80	214.38
786.12	214.41
786.45	214.43
786.77	214.37
787.09	214.34
787.42	214.16
787.74	214.17
788.06	214.20
788.38	214.20
788.71	214.16
789.03	214.13
789.35	214.17
789.67	214.04
789.99	214.00
790.32	213.90
790.64	213.91
790.96	214.24
791.28	214.07
791.61	214.09
791.93	214.15
792.25	214.11
792.57	214.35
792.89	214.23
793.21	214.21
793.54	214.20
793.86	214.13
794.18	214.17
794.50	214.05
794.82	213.97
795.14	214.02
795.47	214.07
795.79	214.03
796.11	213.87
796.43	213.87
796.75	213.81
797.07	213.87
797.39	213.78
797.71	213.48
798.04	213.52
798.36	213.54
798.68	213.54
799.00	213.46
799.32	213.19
799.64	213.25
799.96	213.24
800.28	213.22
800.60	213.18
800.92	213.20
801.24	213.17
801.56	213.21
801.89	213.09
802.21	213.08
802.53	213.05
802.85	213.12
803.17	213.28
803.49	213.26
803.81	213.23
804.13	213.22
804.45	213.18
804.77	213.17
805.09	213.17
805.41	213.10
805.73	213.03
806.05	212.96
806.37	212.92
806.69	212.80
807.01	212.80
807.33	212.86
807.65	212.72
807.97	212.87
808.28	212.80
808.60	212.80
808.92	212.73
809.24	212.90
809.56	212.83
809.88	212.70
810.20	212.73
810.52	212.74
810.84	212.68
811.16	212.63
811.48	212.67
811.80	212.82
812.12	212.83
812.43	212.97
812.75	213.04
813.07	212.93
813.39	213.00
813.71	212.90
814.03	212.84
814.35	212.88
814.67	212.73
814.98	212.73
815.30	212.71
815.62	212.65
815.94	212.43
816.26	212.47
816.58	212.37
816.89	212.37
817.21	212.32
817.53	212.37
817.85	212.31
818.17	212.29
818.48	212.10
818.80	212.12
819.12	212.06
819.44	211.93
819.76	211.95
820.07	211.97
820.39	211.95
820.71	211.96
821.03	211.99
821.34	211.95
821.66	211.94
821.98	211.99
822.30	211.98
822.61	212.23
822.93	212.15
823.25	212.15
823.57	212.17
823.88	212.26
824.20	212.21
824.52	212.35
824.83	212.33
825.15	212.24
825.47	212.22
825.79	212.19
826.10	212.26
826.42	212.25
826.74	212.32
827.05	212.35
827.37	212.33
827.69	212.22
828.00	212.25
828.32	212.31
828.64	212.25
828.95	212.42
829.27	212.25
829.58	212.27
829.90	212.29
830.22	212.27
830.53	212.08
830.85	212.06
831.17	211.93
831.48	211.89
831.80	211.95
832.11	212.00
832.43	211.98
832.75	211.94
833.06	212.14
833.38	212.04
833.69	212.00
834.01	212.01
834.32	212.08
834.64	211.96
834.96	211.98
835.27	211.94
835.59	211.85
835.90	211.79
836.22	211.79
836.53	211.76
836.85	211.78
837.16	212.17
837.48	212.14
837.79	212.22
838.11	212.18
838.42	212.13
838.74	212.12
839.05	212.09
839.37	212.07
839.68	211.79
840.00	211.71
840.31	211.76
840.63	211.70
840.94	211.68
841.26	211.70
841.57	211.62
841.88	211.68
842.20	211.61
842.51	211.58
842.83	211.56
843.14	211.89
843.46	211.78
843.77	211.54
844.08	211.45
844.40	211.39
844.71	211.36
845.03	211.35
845.34	211.35
845.65	211.40
845.97	211.45
846.28	211.51
846.60	211.53
846.91	211.45
847.22	211.41
847.54	211.45
847.85	211.50
848.16	211.48
848.48	211.44
848.79	211.59
849.10	211.70
849.42	211.72
849.73	211.40
850.04	211.44
850.36	211.31
850.67	211.47
850.98	211.54
851.30	211.58
851.61	211.54
851.92	211.51
852.23	211.59
852.55	211.61
852.86	211.65
853.17	211.70
853.49	211.83
853.80	211.98
854.11	211.95
854.42	212.00
854.74	211.90
855.05	211.86
855.36	211.72
855.67	211.69
855.99	211.68
856.30	212.08
856.61	211.99
856.92	212.06
857.23	212.00
857.55	211.94
857.86	211.93
858.17	212.02
858.48	211.97
858.79	211.79
859.11	211.82
859.42	211.76
859.73	211.70
860.04	211.62
860.35	211.54
860.66	211.51
860.98	211.51
861.29	211.62
861.60	211.69
861.91	211.73
862.22	211.64
862.53	211.61
862.84	211.26
863.16	211.46
863.47	211.41
863.78	211.46
864.09	211.38
864.40	211.46
864.71	211.44
865.02	211.39
865.33	211.48
865.64	211.37
865.95	211.33
866.27	211.63
866.58	211.59
866.89	211.64
867.20	211.64
867.51	211.57
867.82	211.49
868.13	211.55
868.44	211.42
868.75	211.51
869.06	211.46
869.37	211.49
869.68	211.28
869.99	211.33
870.30	211.27
870.61	211.32
870.92	211.13
871.23	211.13
871.54	211.26
871.85	211.22
872.16	211.26
872.47	211.25
872.78	210.99
873.09	211.03
873.40	210.89
873.71	210.88
874.02	210.92
874.33	210.92
874.64	210.85
874.95	210.97
875.26	210.87
875.56	210.90
875.87	210.87
876.18	210.91
876.49	211.23
876.80	211.23
877.11	211.24
877.42	211.30
877.73	211.27
878.04	211.15
878.35	211.22
878.66	211.19
878.96	211.23
879.27	211.21
879.58	211.22
879.89	211.21
880.20	211.29
880.51	211.17
880.82	211.16
881.12	211.18
881.43	211.07
881.74	211.03
882.05	211.01
882.36	210.99
882.67	211.03
882.97	210.64
883.28	210.58
883.59	210.59
883.90	210.61
884.21	210.70
884.51	210.71
884.82	210.67
885.13	210.70
885.44	210.71
885.74	210.77
886.05	210.72
886.36	210.75
886.67	210.64
886.98	210.86
887.28	210.92
887.59	210.91
887.90	210.98
888.20	210.98
888.51	211.12
888.82	211.08
889.13	211.07
889.43	211.38
889.74	211.39
890.05	211.42
890.35	211.47
890.66	211.38
890.97	211.34
891.28	211.36
891.58	211.37
891.89	211.43
892.20	211.40
892.50	211.37
892.81	211.40
893.12	211.44
893.42	211.23
893.73	211.27
894.04	211.27
894.34	211.28
894.65	211.31
894.95	211.24
895.26	211.25
895.57	211.44
895.87	211.11
896.18	211.27
896.48	211.25
896.79	211.18
897.10	211.30
897.40	211.36
897.71	211.42
898.01	211.42
898.32	211.33
898.63	211.25
898.93	211.28
899.24	211.28
899.54	211.30
899.85	211.37
900.15	211.40
900.46	211.39
900.76	211.35
901.07	211.29
901.38	211.28
901.68	211.40
901.99	211.20
902.29	211.27
902.60	211.13
902.90	211.06
903.21	211.08
903.51	210.96
903.82	211.07
904.12	211.04
904.43	211.01
904.73	211.08
905.03	211.11
905.34	211.46
905.64	211.46
905.95	211.43
906.25	211.41
906.56	211.37
906.86	211.42
907.17	211.39
907.47	211.50
907.77	211.46
908.08	211.32
908.38	211.35
908.69	211.33
908.99	211.40
909.30	211.47
909.60	211.49
909.90	211.50
910.21	211.33
910.51	211.30
910.81	211.33
911.12	211.35
911.42	211.35
911.73	210.95
912.03	210.97
912.33	211.00
912.64	211.04
912.94	211.00
913.24	210.92
913.55	210.95
913.85	210.81
914.15	210.85
914.46	210.90
914.76	210.87
915.06	210.83
915.37	210.83
915.67	210.83
915.97	210.83
916.27	210.82
916.58	210.83
916.88	210.78
917.18	210.70
917.49	210.86
917.79	210.87
918.09	210.92
918.39	210.95
918.70	210.99
919.00	210.93
919.30	211.07
919.60	211.04
919.91	211.04
920.21	211.09
920.51	211.04
920.81	211.00
921.12	211.01
921.42	211.00
921.72	211.02
922.02	210.96
922.32	210.97
922.63	210.99
922.93	211.17
923.23	211.22
923.53	211.22
923.83	211.02
924.13	211.05
924.44	211.08
924.74	211.21
925.04	211.26
925.34	211.27
925.64	211.12
925.94	211.14
926.24	211.29
926.55	211.29
926.85	211.38
927.15	211.33
927.45	211.40
927.75	211.43
928.05	211.37
928.35	211.39
928.65	211.43
928.95	211.38
929.26	211.32
929.56	211.34
929.86	211.44
930.16	211.42
930.46	211.41
930.76	211.44
931.06	211.27
931.36	211.23
931.66	211.31
931.96	211.34
932.26	211.35
932.56	211.23
932.86	211.28
933.16	211.27
933.46	211.27
933.76	211.18
934.06	211.25
934.36	211.45
934.66	211.44
934.96	211.47
935.26	211.48
935.56	211.45
935.86	211.39
936.16	211.34
936.46	211.32
936.76	211.37
937.06	211.35
937.36	211.35
937.66	211.34
937.96	211.35
938.26	211.30
938.56	211.28
938.86	211.32
939.16	211.37
939.46	211.31
939.76	211.40
940.06	211.48
940.35	211.44
940.65	211.24
940.95	211.27
941.25	211.15
941.55	211.15
941.85	211.15
942.15	211.22
942.45	211.24
942.75	211.29
943.04	211.21
943.34	211.25
943.64	211.26
943.94	211.20
944.24	211.16
944.54	211.20
944.84	211.24
945.13	211.20
945.43	211.13
945.73	211.11
946.03	211.09
946.33	211.01
946.62	210.98
946.92	211.01
947.22	211.06
947.52	211.09
947.82	211.24
948.11	211.19
948.41	211.08
948.71	210.99
949.01	211.03
949.31	211.01
949.60	210.94
949.90	210.97
950.20	211.00
950.50	211.01
950.79	210.95
951.09	210.92
951.39	210.93
951.69	210.90
951.98	210.98
952.28	210.93
952.58	210.92
952.87	210.90
953.17	210.89
953.47	210.81
953.76	210.87
954.06	210.77
954.36	210.72
954.66	210.76
954.95	210.90
955.25	210.89
955.55	210.94
955.84	210.91
956.14	210.96
956.44	210.95
956.73	210.90
957.03	210.95
957.32	210.97
957.62	210.91
957.92	211.00
958.21	211.03
958.51	211.46
958.81	211.47
959.10	211.53
959.40	211.59
959.69	211.59
959.99	211.56
960.29	211.60
960.58	211.64
960.88	211.75
961.17	211.71
961.47	211.75
961.76	211.65
962.06	211.76
962.36	211.71
962.65	211.74
962.95	211.79
963.24	211.81
963.54	211.91
963.83	211.95
964.13	211.94
964.42	211.81
964.72	211.52
965.01	211.61
965.31	211.59
965.60	211.56
965.90	211.90
966.19	211.90
966.49	211.93
966.78	211.83
967.08	211.83
967.37	211.85
967.67	211.72
967.96	211.80
968.26	211.74
968.55	211.76
968.85	211.71
969.14	211.67
969.43	211.59
969.73	211.51
970.02	211.51
970.32	211.49
970.61	211.49
970.91	211.36
971.20	211.28
971.49	211.24
971.79	211.19
972.08	210.87
972.38	210.85
972.67	210.82
972.96	210.92
973.26	210.80
973.55	210.85
973.85	210.88
974.14	210.88
974.43	210.96
974.73	210.87
975.02	210.86
975.31	210.70
975.61	210.77
975.90	210.72
976.19	210.66
976.49	210.65
976.78	210.76
977.07	210.78
977.37	210.78
977.66	210.84
977.95	210.88
978.24	210.90
978.54	210.94
978.83	210.87
979.12	210.82
979.42	210.77
979.71	210.71
980.00	210.72
980.29	210.72
980.59	210.69
980.88	210.80
981.17	210.78
981.46	210.89
981.76	210.81
982.05	210.94
982.34	210.93
982.63	210.95
982.93	210.87
983.22	211.01
983.51	211.04
983.80	211.09
984.09	211.15
984.39	211.12
984.68	211.06
984.97	211.06
985.26	211.10
985.55	211.16
985.85	211.14
986.14	211.14
986.43	211.21
986.72	211.08
987.01	210.98
987.30	210.98
987.59	211.01
987.89	211.07
988.18	210.94
988.47	210.90
988.76	210.82
989.05	210.78
989.34	210.68
989.63	210.75
989.92	210.63
990.22	210.54
990.51	210.49
990.80	210.48
991.09	210.53
991.38	210.53
991.67	210.47
991.96	210.40
992.25	210.43
992.54	210.32
992.83	210.32
993.12	210.32
993.41	210.37
993.70	210.52
993.99	210.56
994.28	210.61
994.58	210.74
994.87	210.76
995.16	210.74
995.45	210.72
995.74	210.57
996.03	210.63
996.32	210.68
996.61	210.79
996.90	210.80
997.19	210.72
997.48	210.67
997.77	210.66
998.06	210.69
998.34	210.72
998.63	210.76
998.92	210.79
999.21	210.81
999.50	210.85
999.79	210.70
1000.08	210.76
1000.37	210.73
1000.66	210.66
1000.95	210.74
1001.24	210.77
1001.53	210.81
1001.82	210.83
1002.11	210.77
1002.40	210.76
1002.68	210.90
1002.97	211.10
1003.26	211.11
1003.55	211.18
1003.84	211.26
1004.13	211.40
1004.42	211.25
1004.71	211.26
1004.99	211.28
1005.28	211.35
1005.57	211.34
1005.86	211.30
1006.15	211.15
1006.44	211.18
1006.72	211.20
1007.01	211.09
1007.30	211.17
1007.59	211.26
1007.88	211.27
1008.17	211.32
1008.45	211.26
1008.74	211.09
1009.03	211.04
1009.32	211.07
1009.60	211.07
1009.89	211.04
1010.18	210.95
1010.47	211.05
1010.76	211.03
1011.04	211.06
1011.33	211.07
1011.62	211.01
1011.91	211.05
1012.19	211.14
1012.48	211.07
1012.77	211.08
1013.05	211.27
1013.34	211.16
1013.63	211.03
1013.92	211.08
1014.20	211.05
1014.49	211.13
1014.78	211.15
1015.06	211.02
1015.35	211.01
1015.64	211.02
1015.92	211.04
1016.21	211.02
1016.50	210.99
1016.78	211.07
1017.07	211.09
1017.36	211.05
1017.64	211.02
1017.93	211.09
1018.22	211.09
1018.50	211.09
1018.79	211.09
1019.08	210.91
1019.36	211.01
1019.65	211.00
1019.93	211.15
1020.22	211.14
1020.51	211.27
1020.79	211.13
1021.08	211.40
1021.36	209.60
1021.65	210.90
1021.94	209.75
1022.22	211.50
1022.51	210.90
1022.79	213.90
1023.08	210.30
1023.36	215.15
1023.65	208.10
>>>>>End Processed Spectral Data<<<<<
