SpectraSuite Data File
++++++++++++++++++++++++++++++++++++
Date: Mon Feb 25 16:59:01 EST 2013
User: group
Dark Spectrum Present: No
Reference Spectrum Present: No
Number of Sampled Component Spectra: 1
Spectrometers: USB2E7196
Integration Time (usec): 104000 (USB2E7196)
Spectra Averaged: 20 (USB2E7196)
Boxcar Smoothing: 10 (USB2E7196)
Correct for Electrical Dark: No (USB2E7196)
Strobe/Lamp Enabled: No (USB2E7196)
Correct for Detector Non-linearity: No (USB2E7196)
Correct for Stray Light: No (USB2E7196)
Number of Pixels in Processed Spectrum: 2048
>>>>>Begin Processed Spectral Data<<<<<
339.09	0.00
339.48	198.40
339.86	199.45
340.24	201.30
340.63	202.95
341.01	209.60
341.39	205.25
341.78	205.65
342.16	207.95
342.54	210.10
342.93	198.16
343.31	208.22
343.69	208.79
344.07	209.26
344.46	209.80
344.84	210.19
345.22	210.25
345.60	210.50
345.99	210.75
346.37	210.96
346.75	211.02
347.13	211.13
347.52	211.23
347.90	211.36
348.28	211.40
348.66	211.48
349.05	211.36
349.43	211.41
349.81	211.48
350.19	211.57
350.57	211.65
350.96	211.79
351.34	211.85
351.72	212.01
352.10	212.12
352.48	212.11
352.87	212.13
353.25	212.18
353.63	212.29
354.01	212.38
354.39	212.43
354.77	212.44
355.15	212.63
355.54	212.67
355.92	212.65
356.30	212.68
356.68	212.96
357.06	213.11
357.44	213.14
357.82	213.22
358.20	213.31
358.58	213.38
358.97	213.45
359.35	213.59
359.73	213.69
360.11	213.77
360.49	213.81
360.87	213.90
361.25	214.04
361.63	214.20
362.01	214.26
362.39	214.23
362.77	214.34
363.15	214.33
363.53	214.39
363.91	214.39
364.29	214.43
364.67	214.13
365.05	214.13
365.43	214.28
365.81	214.32
366.19	214.40
366.57	214.53
366.95	214.44
367.33	214.35
367.71	214.26
368.09	214.37
368.47	214.34
368.85	214.30
369.23	214.30
369.61	214.14
369.99	214.23
370.37	214.28
370.75	214.44
371.13	214.36
371.51	214.21
371.89	214.25
372.27	214.21
372.65	214.20
373.03	214.12
373.41	213.94
373.78	213.83
374.16	213.60
374.54	213.44
374.92	213.42
375.30	213.35
375.68	213.21
376.06	213.14
376.44	213.11
376.82	213.07
377.19	212.97
377.57	212.90
377.95	212.72
378.33	212.65
378.71	212.35
379.09	212.28
379.47	212.30
379.84	212.23
380.22	212.20
380.60	212.07
380.98	212.05
381.36	212.02
381.73	211.95
382.11	212.02
382.49	211.98
382.87	211.88
383.25	211.84
383.62	212.26
384.00	212.12
384.38	212.11
384.76	212.14
385.13	212.23
385.51	212.20
385.89	212.12
386.27	212.13
386.64	212.13
387.02	212.09
387.40	212.05
387.78	212.05
388.15	212.04
388.53	212.04
388.91	212.00
389.29	211.93
389.66	211.96
390.04	211.80
390.42	211.81
390.79	211.80
391.17	211.76
391.55	211.31
391.92	211.28
392.30	211.19
392.68	211.08
393.05	211.01
393.43	210.99
393.81	210.97
394.18	210.89
394.56	210.89
394.94	210.98
395.31	210.96
395.69	211.01
396.06	211.06
396.44	211.04
396.82	210.98
397.19	211.16
397.57	211.15
397.95	211.31
398.32	211.28
398.70	211.34
399.07	211.39
399.45	211.41
399.82	211.48
400.20	211.59
400.58	211.73
400.95	211.73
401.33	211.82
401.70	212.11
402.08	212.19
402.45	212.32
402.83	212.40
403.20	212.52
403.58	212.58
403.95	212.75
404.33	212.99
404.71	213.20
405.08	213.62
405.46	213.82
405.83	213.98
406.21	214.24
406.58	214.51
406.96	214.79
407.33	215.15
407.70	215.55
408.08	216.12
408.45	216.57
408.83	217.01
409.20	217.35
409.58	217.70
409.95	218.30
410.33	218.88
410.70	219.40
411.08	220.05
411.45	220.82
411.82	221.45
412.20	222.23
412.57	223.28
412.95	223.77
413.32	224.79
413.69	225.74
414.07	226.76
414.44	227.95
414.82	229.14
415.19	230.55
415.56	231.93
415.94	233.30
416.31	234.94
416.68	236.63
417.06	238.70
417.43	240.57
417.81	242.64
418.18	244.85
418.55	247.23
418.93	249.67
419.30	252.17
419.67	254.90
420.04	257.70
420.42	260.53
420.79	264.08
421.16	267.58
421.54	271.31
421.91	275.09
422.28	278.96
422.66	283.12
423.03	287.25
423.40	291.47
423.77	295.95
424.15	300.57
424.52	305.36
424.89	310.70
425.26	315.83
425.64	320.73
426.01	326.07
426.38	331.67
426.75	337.35
427.13	343.26
427.50	349.40
427.87	355.94
428.24	362.44
428.61	368.60
428.99	375.40
429.36	382.77
429.73	390.09
430.10	397.29
430.47	404.84
430.85	412.51
431.22	420.77
431.59	429.70
431.96	438.08
432.33	447.51
432.70	456.45
433.08	467.04
433.45	477.04
433.82	487.06
434.19	498.22
434.56	509.39
434.93	520.04
435.30	530.71
435.68	542.50
436.05	554.22
436.42	565.98
436.79	576.80
437.16	588.46
437.53	600.73
437.90	613.09
438.27	625.17
438.64	637.77
439.01	649.44
439.38	659.81
439.75	670.15
440.13	681.76
440.50	692.85
440.87	702.15
441.24	711.77
441.61	722.21
441.98	730.27
442.35	739.51
442.72	748.84
443.09	757.69
443.46	763.60
443.83	767.82
444.20	771.46
444.57	776.52
444.94	779.27
445.31	782.22
445.68	784.90
446.05	786.46
446.42	786.20
446.79	785.63
447.16	784.95
447.53	784.63
447.90	781.03
448.27	777.34
448.64	771.83
449.01	768.09
449.37	760.84
449.74	753.73
450.11	745.32
450.48	736.10
450.85	726.69
451.22	718.35
451.59	710.58
451.96	703.16
452.33	692.84
452.70	683.74
453.07	672.59
453.43	661.41
453.80	650.69
454.17	640.26
454.54	630.52
454.91	619.82
455.28	609.39
455.65	599.86
456.02	590.20
456.38	581.81
456.75	571.42
457.12	562.93
457.49	554.53
457.86	546.02
458.23	538.73
458.59	531.00
458.96	523.15
459.33	516.17
459.70	509.11
460.07	503.50
460.43	496.95
460.80	490.89
461.17	485.58
461.54	479.88
461.91	474.55
462.27	469.10
462.64	464.61
463.01	459.51
463.38	454.41
463.74	449.28
464.11	445.05
464.48	441.30
464.85	437.08
465.21	433.87
465.58	430.54
465.95	426.35
466.32	422.97
466.68	419.62
467.05	416.18
467.42	412.77
467.78	409.26
468.15	406.03
468.52	403.59
468.88	400.36
469.25	397.57
469.62	395.20
469.98	392.67
470.35	390.29
470.72	388.08
471.08	385.56
471.45	383.64
471.82	381.54
472.18	379.19
472.55	377.54
472.92	375.40
473.28	373.51
473.65	371.81
474.02	370.04
474.38	368.59
474.75	367.40
475.11	366.10
475.48	365.06
475.85	364.15
476.21	363.10
476.58	362.26
476.94	361.63
477.31	360.84
477.67	360.20
478.04	359.64
478.41	359.22
478.77	359.24
479.14	358.72
479.50	358.57
479.87	358.59
480.23	358.52
480.60	358.54
480.96	358.47
481.33	358.85
481.69	359.13
482.06	359.25
482.42	359.39
482.79	359.68
483.15	360.17
483.52	360.84
483.88	361.43
484.25	362.04
484.61	362.69
484.98	363.38
485.34	364.30
485.71	365.20
486.07	366.11
486.44	366.95
486.80	368.25
487.17	369.42
487.53	370.81
487.90	372.36
488.26	373.96
488.62	375.81
488.99	377.36
489.35	379.00
489.72	380.95
490.08	382.94
490.44	384.95
490.81	387.13
491.17	389.10
491.54	391.47
491.90	393.67
492.26	396.14
492.63	398.72
492.99	401.27
493.36	404.06
493.72	407.02
494.08	409.77
494.45	412.80
494.81	416.01
495.17	419.05
495.54	422.31
495.90	425.62
496.26	428.85
496.63	432.37
496.99	436.04
497.35	439.58
497.72	443.22
498.08	447.00
498.44	450.82
498.80	454.97
499.17	459.07
499.53	463.20
499.89	467.37
500.26	471.53
500.62	475.52
500.98	479.68
501.34	483.90
501.71	488.28
502.07	492.43
502.43	496.59
502.79	500.90
503.16	505.12
503.52	509.27
503.88	513.41
504.24	517.63
504.60	521.72
504.97	525.95
505.33	530.12
505.69	534.55
506.05	538.72
506.41	542.76
506.78	546.52
507.14	550.27
507.50	554.02
507.86	557.76
508.22	561.70
508.59	565.17
508.95	568.77
509.31	572.52
509.67	576.02
510.03	579.44
510.39	582.90
510.75	586.19
511.12	589.56
511.48	592.93
511.84	596.12
512.20	599.18
512.56	602.32
512.92	605.36
513.28	608.13
513.64	610.87
514.00	613.52
514.37	616.22
514.73	619.12
515.09	621.86
515.45	624.34
515.81	626.71
516.17	629.13
516.53	631.36
516.89	633.36
517.25	635.41
517.61	637.61
517.97	639.52
518.33	641.33
518.69	643.14
519.05	644.86
519.41	646.47
519.77	648.54
520.13	650.06
520.49	651.49
520.85	652.89
521.21	654.35
521.57	655.74
521.93	656.93
522.29	658.25
522.65	659.45
523.01	660.73
523.37	661.65
523.73	663.13
524.09	664.20
524.45	665.28
524.81	666.54
525.17	667.65
525.53	668.82
525.89	670.07
526.25	671.17
526.61	672.12
526.97	673.19
527.33	674.00
527.68	675.25
528.04	676.46
528.40	677.51
528.76	678.75
529.12	679.98
529.48	681.71
529.84	682.90
530.20	684.09
530.56	685.39
530.91	687.28
531.27	688.64
531.63	690.19
531.99	691.73
532.35	693.23
532.71	694.58
533.07	696.32
533.42	698.35
533.78	699.92
534.14	701.78
534.50	703.32
534.86	705.18
535.21	706.91
535.57	708.91
535.93	710.64
536.29	712.55
536.65	714.55
537.00	716.09
537.36	717.80
537.72	719.71
538.08	721.63
538.44	723.48
538.79	725.44
539.15	727.19
539.51	729.30
539.87	731.45
540.22	733.69
540.58	735.90
540.94	737.68
541.29	739.95
541.65	741.94
542.01	744.20
542.37	746.31
542.72	748.43
543.08	750.37
543.44	753.00
543.79	754.86
544.15	756.94
544.51	759.39
544.87	761.97
545.22	764.22
545.58	766.50
545.94	768.61
546.29	770.66
546.65	772.90
547.01	774.95
547.36	777.12
547.72	779.11
548.07	781.04
548.43	782.99
548.79	784.85
549.14	787.14
549.50	789.38
549.86	791.35
550.21	793.55
550.57	795.88
550.92	797.63
551.28	800.04
551.64	802.09
551.99	804.32
552.35	806.37
552.70	808.34
553.06	810.51
553.41	812.58
553.77	814.96
554.13	817.51
554.48	820.00
554.84	822.20
555.19	824.60
555.55	826.96
555.90	829.35
556.26	831.52
556.61	833.44
556.97	835.31
557.32	837.51
557.68	839.42
558.03	841.05
558.39	842.87
558.74	844.71
559.10	846.59
559.45	848.25
559.81	850.10
560.16	851.88
560.52	853.76
560.87	855.79
561.23	857.03
561.58	858.66
561.94	859.90
562.29	861.38
562.64	862.92
563.00	864.29
563.35	865.62
563.71	867.42
564.06	869.06
564.42	870.95
564.77	872.61
565.12	874.30
565.48	876.33
565.83	878.14
566.19	880.03
566.54	881.38
566.89	882.83
567.25	884.58
567.60	886.30
567.96	887.82
568.31	889.12
568.66	890.80
569.02	891.85
569.37	892.93
569.72	894.06
570.08	894.98
570.43	896.00
570.78	896.75
571.14	897.27
571.49	897.95
571.84	898.68
572.20	899.06
572.55	899.47
572.90	899.42
573.26	899.52
573.61	899.25
573.96	899.50
574.31	899.21
574.67	898.68
575.02	898.35
575.37	897.89
575.72	897.11
576.08	896.64
576.43	896.01
576.78	895.54
577.13	894.85
577.49	894.42
577.84	893.60
578.19	893.24
578.54	893.11
578.90	892.78
579.25	891.80
579.60	890.93
579.95	889.83
580.30	889.04
580.66	888.36
581.01	887.41
581.36	886.12
581.71	885.10
582.06	884.22
582.42	883.10
582.77	881.74
583.12	880.74
583.47	879.51
583.82	878.40
584.17	877.12
584.53	876.26
584.88	874.76
585.23	873.50
585.58	871.97
585.93	870.25
586.28	868.65
586.63	867.34
586.98	866.06
587.34	864.99
587.69	863.55
588.04	861.90
588.39	860.64
588.74	859.12
589.09	857.98
589.44	856.12
589.79	854.44
590.14	853.25
590.49	851.72
590.84	850.15
591.19	848.86
591.54	847.38
591.89	845.08
592.25	843.66
592.60	841.83
592.95	839.80
593.30	837.66
593.65	835.47
594.00	833.21
594.35	831.97
594.70	829.68
595.05	827.74
595.40	825.68
595.75	823.33
596.10	821.53
596.45	819.40
596.80	817.63
597.15	815.86
597.50	813.41
597.85	811.37
598.19	809.12
598.54	806.90
598.89	804.73
599.24	803.19
599.59	800.92
599.94	798.97
600.29	797.07
600.64	795.11
600.99	792.96
601.34	791.02
601.69	787.91
602.04	785.57
602.39	783.31
602.74	781.35
603.08	779.37
603.43	777.71
603.78	775.47
604.13	773.17
604.48	771.02
604.83	769.37
605.18	767.37
605.53	765.28
605.87	762.86
606.22	760.79
606.57	758.22
606.92	755.83
607.27	753.45
607.62	751.20
607.96	749.05
608.31	747.09
608.66	744.58
609.01	742.29
609.36	740.10
609.70	737.74
610.05	735.15
610.40	732.82
610.75	729.88
611.10	727.68
611.44	724.89
611.79	722.00
612.14	719.14
612.49	716.22
612.83	713.66
613.18	710.86
613.53	707.98
613.88	705.19
614.22	702.57
614.57	699.75
614.92	697.08
615.27	694.31
615.61	691.40
615.96	688.86
616.31	686.34
616.65	683.87
617.00	681.02
617.35	678.25
617.70	675.22
618.04	672.27
618.39	669.23
618.74	666.68
619.08	663.86
619.43	661.14
619.78	658.65
620.12	655.89
620.47	653.41
620.82	650.65
621.16	647.74
621.51	645.07
621.85	642.46
622.20	639.59
622.55	636.83
622.89	634.04
623.24	631.29
623.59	628.17
623.93	625.43
624.28	622.89
624.62	620.57
624.97	618.02
625.32	615.42
625.66	612.86
626.01	610.15
626.35	607.78
626.70	605.04
627.04	602.50
627.39	599.99
627.73	597.61
628.08	595.34
628.43	592.89
628.77	590.32
629.12	587.75
629.46	585.33
629.81	582.82
630.15	580.44
630.50	577.97
630.84	575.60
631.19	573.02
631.53	570.67
631.88	567.85
632.22	565.23
632.57	563.12
632.91	560.52
633.26	558.19
633.60	555.69
633.95	553.37
634.29	550.86
634.64	548.50
634.98	545.89
635.32	543.60
635.67	541.62
636.01	539.45
636.36	537.15
636.70	535.09
637.05	532.94
637.39	530.81
637.73	528.80
638.08	527.00
638.42	525.00
638.77	522.87
639.11	520.83
639.45	518.92
639.80	516.50
640.14	514.32
640.49	512.07
640.83	509.87
641.17	507.73
641.52	505.46
641.86	503.23
642.20	501.37
642.55	498.98
642.89	496.68
643.23	494.38
643.58	492.46
643.92	490.08
644.26	487.85
644.61	485.76
644.95	483.57
645.29	481.32
645.64	479.10
645.98	476.97
646.32	474.98
646.66	472.67
647.01	470.65
647.35	468.78
647.69	466.75
648.04	464.84
648.38	462.85
648.72	460.88
649.06	458.85
649.41	456.73
649.75	454.67
650.09	452.75
650.43	450.85
650.78	448.67
651.12	446.70
651.46	444.76
651.80	442.80
652.14	440.79
652.49	438.94
652.83	436.93
653.17	434.89
653.51	432.94
653.85	431.20
654.20	429.37
654.54	427.30
654.88	425.40
655.22	423.55
655.56	421.53
655.90	419.60
656.25	417.59
656.59	415.58
656.93	413.92
657.27	412.19
657.61	410.13
657.95	408.39
658.29	406.56
658.64	404.80
658.98	402.91
659.32	401.02
659.66	399.20
660.00	397.45
660.34	395.61
660.68	393.75
661.02	391.97
661.36	390.29
661.70	388.61
662.05	387.07
662.39	385.57
662.73	384.14
663.07	382.74
663.41	381.32
663.75	379.63
664.09	378.03
664.43	376.35
664.77	374.98
665.11	373.44
665.45	372.05
665.79	370.55
666.13	369.08
666.47	367.63
666.81	366.13
667.15	364.62
667.49	363.37
667.83	362.15
668.17	360.73
668.51	359.30
668.85	358.06
669.19	356.83
669.53	355.19
669.87	353.73
670.21	352.27
670.55	350.93
670.89	350.03
671.23	348.69
671.57	347.52
671.91	346.19
672.25	344.90
672.58	343.76
672.92	342.55
673.26	341.31
673.60	340.21
673.94	338.98
674.28	337.90
674.62	336.70
674.96	335.56
675.30	334.55
675.64	333.35
675.97	332.14
676.31	330.92
676.65	329.89
676.99	329.05
677.33	328.00
677.67	326.95
678.01	325.57
678.34	324.58
678.68	323.56
679.02	322.46
679.36	321.43
679.70	320.30
680.04	319.24
680.37	318.28
680.71	317.26
681.05	316.42
681.39	315.45
681.73	314.37
682.06	313.35
682.40	312.45
682.74	311.59
683.08	310.78
683.42	309.85
683.75	309.01
684.09	307.81
684.43	306.80
684.77	305.77
685.10	304.88
685.44	303.93
685.78	302.85
686.12	302.09
686.45	301.20
686.79	300.21
687.13	299.49
687.46	298.54
687.80	297.74
688.14	296.74
688.48	295.90
688.81	295.07
689.15	294.32
689.49	293.31
689.82	292.43
690.16	291.45
690.50	290.50
690.83	289.59
691.17	288.74
691.51	287.93
691.84	287.26
692.18	286.51
692.52	285.74
692.85	285.11
693.19	284.43
693.52	283.68
693.86	283.04
694.20	282.22
694.53	281.51
694.87	280.67
695.21	279.93
695.54	279.17
695.88	278.43
696.21	277.52
696.55	276.81
696.88	276.17
697.22	275.44
697.56	274.93
697.89	274.31
698.23	273.72
698.56	273.08
698.90	272.38
699.23	271.77
699.57	271.15
699.90	270.45
700.24	269.70
700.58	269.12
700.91	268.45
701.25	268.14
701.58	267.65
701.92	267.06
702.25	266.55
702.59	265.96
702.92	265.45
703.26	264.91
703.59	264.43
703.93	264.09
704.26	263.64
704.60	263.10
704.93	262.55
705.26	262.00
705.60	261.53
705.93	260.98
706.27	260.49
706.60	260.08
706.94	259.70
707.27	259.21
707.61	258.66
707.94	258.23
708.27	257.46
708.61	256.88
708.94	256.47
709.28	255.96
709.61	255.52
709.94	255.05
710.28	254.66
710.61	254.19
710.95	253.45
711.28	253.20
711.61	252.62
711.95	252.33
712.28	251.87
712.61	251.51
712.95	251.31
713.28	251.05
713.61	250.55
713.95	250.03
714.28	249.55
714.61	249.20
714.95	248.79
715.28	248.32
715.61	247.98
715.95	247.51
716.28	247.15
716.61	246.78
716.95	246.30
717.28	245.93
717.61	245.53
717.94	245.23
718.28	244.64
718.61	244.36
718.94	243.88
719.27	243.55
719.61	243.17
719.94	242.70
720.27	242.11
720.60	241.71
720.94	241.40
721.27	241.18
721.60	240.93
721.93	240.51
722.27	240.39
722.60	240.10
722.93	239.81
723.26	239.59
723.59	239.27
723.93	239.01
724.26	238.70
724.59	238.46
724.92	238.21
725.25	238.06
725.59	237.74
725.92	237.60
726.25	237.37
726.58	237.15
726.91	236.90
727.24	236.66
727.57	236.46
727.91	236.14
728.24	235.86
728.57	235.55
728.90	235.38
729.23	235.01
729.56	234.93
729.89	234.66
730.22	234.30
730.55	234.04
730.89	233.88
731.22	233.68
731.55	233.37
731.88	233.15
732.21	232.81
732.54	232.58
732.87	232.28
733.20	232.07
733.53	231.82
733.86	231.56
734.19	231.33
734.52	231.15
734.85	231.20
735.18	231.02
735.51	230.97
735.84	230.78
736.17	230.63
736.50	230.23
736.83	230.51
737.16	230.35
737.49	230.21
737.82	229.98
738.15	229.77
738.48	229.60
738.81	229.35
739.14	229.20
739.47	228.98
739.80	228.73
740.13	228.53
740.46	228.29
740.79	228.11
741.12	228.01
741.45	227.76
741.78	227.43
742.11	227.33
742.44	226.96
742.77	226.85
743.10	226.70
743.43	226.56
743.75	225.91
744.08	226.24
744.41	226.06
744.74	225.89
745.07	225.78
745.40	225.71
745.73	225.70
746.06	225.57
746.39	225.50
746.71	225.33
747.04	225.18
747.37	225.07
747.70	224.94
748.03	224.85
748.36	224.86
748.68	224.69
749.01	224.46
749.34	224.42
749.67	224.30
750.00	224.22
750.33	224.37
750.65	224.36
750.98	223.76
751.31	223.61
751.64	223.57
751.97	223.61
752.29	223.54
752.62	223.24
752.95	223.07
753.28	222.91
753.60	222.84
753.93	222.97
754.26	222.86
754.59	222.66
754.91	222.51
755.24	222.38
755.57	222.33
755.90	222.22
756.22	222.09
756.55	221.97
756.88	221.73
757.20	221.36
757.53	221.18
757.86	221.07
758.19	221.02
758.51	220.84
758.84	220.53
759.17	220.36
759.49	220.34
759.82	220.45
760.15	220.45
760.47	220.39
760.80	220.10
761.13	220.09
761.45	220.02
761.78	219.96
762.11	219.83
762.43	219.68
762.76	219.59
763.08	219.53
763.41	219.46
763.74	219.40
764.06	219.32
764.39	219.23
764.71	219.10
765.04	219.01
765.37	218.95
765.69	218.82
766.02	218.69
766.34	218.54
766.67	218.29
767.00	218.20
767.32	218.28
767.65	218.39
767.97	218.23
768.30	218.19
768.62	218.03
768.95	217.88
769.27	217.79
769.60	217.77
769.92	217.61
770.25	217.46
770.57	217.31
770.90	217.21
771.22	217.20
771.55	217.20
771.87	217.16
772.20	217.07
772.52	217.32
772.85	217.72
773.17	217.74
773.50	217.64
773.82	217.58
774.15	217.30
774.47	217.01
774.80	216.97
775.12	216.84
775.45	216.82
775.77	216.82
776.09	216.75
776.42	216.71
776.74	216.77
777.07	216.73
777.39	216.74
777.72	216.65
778.04	216.53
778.36	216.40
778.69	216.29
779.01	216.31
779.33	216.00
779.66	215.55
779.98	215.35
780.31	215.35
780.63	215.39
780.95	215.39
781.28	215.34
781.60	215.26
781.92	215.18
782.25	215.11
782.57	215.05
782.89	215.01
783.22	214.90
783.54	214.74
783.86	214.79
784.19	214.74
784.51	214.87
784.83	214.84
785.16	214.84
785.48	214.80
785.80	214.74
786.12	214.77
786.45	214.64
786.77	214.77
787.09	214.69
787.42	214.58
787.74	214.55
788.06	214.52
788.38	214.45
788.71	214.50
789.03	214.43
789.35	214.41
789.67	214.36
789.99	214.32
790.32	214.28
790.64	214.22
790.96	214.45
791.28	214.27
791.61	214.24
791.93	214.19
792.25	214.17
792.57	214.40
792.89	214.21
793.21	214.30
793.54	214.21
793.86	214.17
794.18	214.12
794.50	214.06
794.82	214.08
795.14	214.11
795.47	214.16
795.79	214.19
796.11	214.06
796.43	214.03
796.75	214.05
797.07	213.98
797.39	213.96
797.71	213.69
798.04	213.67
798.36	213.64
798.68	213.57
799.00	213.63
799.32	213.42
799.64	213.49
799.96	213.40
800.28	213.45
800.60	213.42
800.92	213.44
801.24	213.40
801.56	213.36
801.89	213.33
802.21	213.29
802.53	213.26
802.85	213.36
803.17	213.51
803.49	213.47
803.81	213.50
804.13	213.37
804.45	213.33
804.77	213.28
805.09	213.25
805.41	213.22
805.73	213.09
806.05	212.99
806.37	213.02
806.69	213.01
807.01	212.93
807.33	212.96
807.65	212.80
807.97	212.92
808.28	212.93
808.60	212.88
808.92	212.78
809.24	212.96
809.56	212.86
809.88	212.72
810.20	212.72
810.52	212.76
810.84	212.78
811.16	212.73
811.48	212.82
811.80	212.96
812.12	212.96
812.43	213.00
812.75	212.99
813.07	212.85
813.39	212.83
813.71	212.71
814.03	212.65
814.35	212.69
814.67	212.55
814.98	212.55
815.30	212.55
815.62	212.48
815.94	212.19
816.26	212.21
816.58	212.18
816.89	212.18
817.21	212.09
817.53	212.09
817.85	212.11
818.17	211.96
818.48	211.73
818.80	211.85
819.12	211.83
819.44	211.73
819.76	211.72
820.07	211.67
820.39	211.69
820.71	211.70
821.03	211.66
821.34	211.62
821.66	211.56
821.98	211.59
822.30	211.57
822.61	211.89
822.93	211.80
823.25	211.76
823.57	211.69
823.88	211.75
824.20	211.78
824.52	211.84
824.83	211.89
825.15	211.87
825.47	211.82
825.79	211.84
826.10	211.86
826.42	211.90
826.74	212.02
827.05	212.09
827.37	212.15
827.69	212.15
828.00	212.14
828.32	212.15
828.64	212.13
828.95	212.30
829.27	212.10
829.58	212.11
829.90	212.14
830.22	212.23
830.53	212.15
830.85	212.07
831.17	211.98
831.48	212.05
831.80	212.11
832.11	212.08
832.43	211.98
832.75	212.06
833.06	212.23
833.38	212.16
833.69	212.08
834.01	212.06
834.32	212.08
834.64	212.07
834.96	212.04
835.27	212.02
835.59	211.94
835.90	211.89
836.22	211.95
836.53	211.91
836.85	211.84
837.16	212.21
837.48	212.25
837.79	212.37
838.11	212.34
838.42	212.35
838.74	212.26
839.05	212.31
839.37	212.22
839.68	211.96
840.00	211.90
840.31	212.01
840.63	211.97
840.94	211.88
841.26	211.88
841.57	211.91
841.88	211.98
842.20	211.97
842.51	211.95
842.83	211.93
843.14	212.18
843.46	212.17
843.77	211.96
844.08	211.94
844.40	211.80
844.71	211.75
845.03	211.70
845.34	211.80
845.65	211.76
845.97	211.83
846.28	211.86
846.60	211.90
846.91	211.80
847.22	211.76
847.54	211.88
847.85	211.95
848.16	211.91
848.48	211.79
848.79	211.87
849.10	211.88
849.42	211.85
849.73	211.58
850.04	211.62
850.36	211.52
850.67	211.50
850.98	211.49
851.30	211.55
851.61	211.62
851.92	211.63
852.23	211.77
852.55	211.64
852.86	211.67
853.17	211.62
853.49	211.71
853.80	211.79
854.11	211.80
854.42	211.76
854.74	211.75
855.05	211.78
855.36	211.57
855.67	211.61
855.99	211.64
856.30	212.05
856.61	211.94
856.92	211.86
857.23	211.88
857.55	211.90
857.86	211.83
858.17	211.81
858.48	211.71
858.79	211.63
859.11	211.73
859.42	211.71
859.73	211.71
860.04	211.70
860.35	211.63
860.66	211.59
860.98	211.61
861.29	211.58
861.60	211.55
861.91	211.64
862.22	211.61
862.53	211.55
862.84	211.10
863.16	211.20
863.47	211.25
863.78	211.25
864.09	211.24
864.40	211.21
864.71	211.21
865.02	211.26
865.33	211.16
865.64	211.13
865.95	211.10
866.27	211.32
866.58	211.28
866.89	211.33
867.20	211.22
867.51	211.15
867.82	211.18
868.13	211.35
868.44	211.33
868.75	211.35
869.06	211.31
869.37	211.38
869.68	211.30
869.99	211.26
870.30	211.26
870.61	211.28
870.92	211.34
871.23	211.26
871.54	211.25
871.85	211.43
872.16	211.39
872.47	211.35
872.78	211.21
873.09	211.20
873.40	211.13
873.71	211.18
874.02	211.23
874.33	211.20
874.64	211.08
874.95	211.08
875.26	211.01
875.56	211.00
875.87	210.97
876.18	211.00
876.49	211.35
876.80	211.35
877.11	211.26
877.42	211.21
877.73	211.25
878.04	211.26
878.35	211.21
878.66	211.29
878.96	211.31
879.27	211.18
879.58	211.21
879.89	211.18
880.20	211.34
880.51	211.33
880.82	211.34
881.12	211.36
881.43	211.37
881.74	211.31
882.05	211.35
882.36	211.37
882.67	211.37
882.97	211.03
883.28	210.97
883.59	211.05
883.90	211.10
884.21	211.13
884.51	211.01
884.82	210.91
885.13	210.90
885.44	210.91
885.74	210.97
886.05	210.93
886.36	210.91
886.67	210.75
886.98	210.91
887.28	210.89
887.59	210.85
887.90	210.86
888.20	210.84
888.51	210.97
888.82	210.87
889.13	210.96
889.43	211.25
889.74	211.29
890.05	211.24
890.35	211.17
890.66	211.18
890.97	211.23
891.28	211.25
891.58	211.25
891.89	211.27
892.20	211.23
892.50	211.23
892.81	211.24
893.12	211.22
893.42	211.08
893.73	211.13
894.04	211.18
894.34	211.17
894.65	211.23
894.95	211.15
895.26	211.29
895.57	211.39
895.87	211.09
896.18	211.18
896.48	211.16
896.79	211.22
897.10	211.24
897.40	211.26
897.71	211.33
898.01	211.34
898.32	211.33
898.63	211.28
898.93	211.31
899.24	211.32
899.54	211.32
899.85	211.29
900.15	211.25
900.46	211.20
900.76	211.22
901.07	211.24
901.38	211.19
901.68	211.13
901.99	211.00
902.29	210.99
902.60	210.91
902.90	210.95
903.21	210.88
903.51	210.92
903.82	210.98
904.12	210.96
904.43	211.02
904.73	211.06
905.03	211.13
905.34	211.38
905.64	211.47
905.95	211.46
906.25	211.45
906.56	211.41
906.86	211.40
907.17	211.43
907.47	211.49
907.77	211.47
908.08	211.50
908.38	211.47
908.69	211.50
908.99	211.52
909.30	211.54
909.60	211.56
909.90	211.57
910.21	211.43
910.51	211.40
910.81	211.31
911.12	211.28
911.42	211.35
911.73	211.02
912.03	210.95
912.33	211.09
912.64	211.08
912.94	211.09
913.24	211.08
913.55	210.98
913.85	210.92
914.15	211.01
914.46	211.01
914.76	210.97
915.06	210.92
915.37	210.94
915.67	210.93
915.97	210.92
916.27	210.77
916.58	210.78
916.88	210.73
917.18	210.70
917.49	210.94
917.79	210.82
918.09	210.85
918.39	210.98
918.70	210.90
919.00	210.90
919.30	211.06
919.60	211.10
919.91	211.09
920.21	211.06
920.51	211.00
920.81	210.97
921.12	211.02
921.42	211.04
921.72	211.02
922.02	210.97
922.32	211.02
922.63	211.06
922.93	211.21
923.23	211.23
923.53	211.20
923.83	210.99
924.13	211.05
924.44	211.12
924.74	211.21
925.04	211.28
925.34	211.27
925.64	211.12
925.94	211.04
926.24	211.24
926.55	211.22
926.85	211.24
927.15	211.24
927.45	211.20
927.75	211.22
928.05	211.23
928.35	211.25
928.65	211.24
928.95	211.35
929.26	211.21
929.56	211.27
929.86	211.32
930.16	211.30
930.46	211.29
930.76	211.30
931.06	211.01
931.36	210.94
931.66	210.97
931.96	211.05
932.26	211.09
932.56	210.91
932.86	210.90
933.16	210.95
933.46	210.95
933.76	210.91
934.06	210.94
934.36	210.95
934.66	210.95
934.96	211.00
935.26	210.98
935.56	211.04
935.86	211.00
936.16	210.98
936.46	210.95
936.76	210.95
937.06	210.88
937.36	211.01
937.66	211.01
937.96	210.98
938.26	210.93
938.56	210.91
938.86	210.98
939.16	211.07
939.46	211.02
939.76	211.05
940.06	211.10
940.35	211.08
940.65	211.00
940.95	211.01
941.25	210.90
941.55	210.83
941.85	210.86
942.15	210.90
942.45	211.01
942.75	211.03
943.04	211.08
943.34	211.14
943.64	211.05
943.94	211.12
944.24	211.15
944.54	211.20
944.84	211.21
945.13	211.12
945.43	211.08
945.73	211.13
946.03	211.08
946.33	211.07
946.62	211.04
946.92	211.01
947.22	211.01
947.52	211.03
947.82	211.02
948.11	210.96
948.41	210.93
948.71	210.79
949.01	210.75
949.31	210.65
949.60	210.64
949.90	210.74
950.20	210.65
950.50	210.68
950.79	210.60
951.09	210.67
951.39	210.74
951.69	210.71
951.98	210.75
952.28	210.79
952.58	210.75
952.87	210.78
953.17	210.88
953.47	210.92
953.76	211.00
954.06	210.95
954.36	210.92
954.66	210.92
954.95	211.02
955.25	211.06
955.55	211.11
955.84	210.97
956.14	210.90
956.44	210.93
956.73	210.83
957.03	210.87
957.32	210.85
957.62	210.76
957.92	210.85
958.21	210.85
958.51	211.24
958.81	211.33
959.10	211.24
959.40	211.27
959.69	211.25
959.99	211.23
960.29	211.28
960.58	211.22
960.88	211.38
961.17	211.37
961.47	211.40
961.76	211.34
962.06	211.44
962.36	211.37
962.65	211.34
962.95	211.36
963.24	211.33
963.54	211.28
963.83	211.27
964.13	211.19
964.42	211.07
964.72	210.82
965.01	210.80
965.31	210.92
965.60	210.78
965.90	210.97
966.19	210.89
966.49	210.92
966.78	210.98
967.08	210.94
967.37	211.00
967.67	210.95
967.96	211.05
968.26	211.04
968.55	211.17
968.85	211.15
969.14	211.17
969.43	211.17
969.73	211.20
970.02	211.25
970.32	211.21
970.61	211.16
970.91	210.98
971.20	210.92
971.49	210.89
971.79	211.05
972.08	210.76
972.38	210.81
972.67	210.77
972.96	210.80
973.26	210.69
973.55	210.73
973.85	210.75
974.14	210.72
974.43	210.78
974.73	210.70
975.02	210.62
975.31	210.60
975.61	210.64
975.90	210.55
976.19	210.49
976.49	210.61
976.78	210.67
977.07	210.74
977.37	210.77
977.66	210.75
977.95	210.62
978.24	210.69
978.54	210.79
978.83	210.78
979.12	210.75
979.42	210.83
979.71	210.67
980.00	210.71
980.29	210.70
980.59	210.64
980.88	210.79
981.17	210.85
981.46	210.81
981.76	210.77
982.05	210.95
982.34	211.03
982.63	211.05
982.93	211.04
983.22	211.15
983.51	211.16
983.80	211.19
984.09	211.30
984.39	211.29
984.68	211.23
984.97	211.30
985.26	211.24
985.55	211.20
985.85	211.17
986.14	211.12
986.43	211.15
986.72	211.15
987.01	211.04
987.30	211.07
987.59	211.14
987.89	211.18
988.18	211.05
988.47	211.01
988.76	210.92
989.05	210.92
989.34	210.88
989.63	210.93
989.92	210.90
990.22	210.84
990.51	210.80
990.80	210.68
991.09	210.65
991.38	210.69
991.67	210.67
991.96	210.66
992.25	210.67
992.54	210.62
992.83	210.63
993.12	210.60
993.41	210.62
993.70	210.74
993.99	210.78
994.28	210.89
994.58	210.97
994.87	211.01
995.16	211.07
995.45	210.98
995.74	210.93
996.03	211.01
996.32	211.02
996.61	211.15
996.90	211.26
997.19	211.25
997.48	211.30
997.77	211.26
998.06	211.31
998.34	211.40
998.63	211.41
998.92	211.43
999.21	211.50
999.50	211.45
999.79	211.34
1000.08	211.35
1000.37	211.32
1000.66	211.22
1000.95	211.30
1001.24	211.27
1001.53	211.33
1001.82	211.34
1002.11	211.23
1002.40	211.29
1002.68	211.37
1002.97	211.59
1003.26	211.55
1003.55	211.50
1003.84	211.52
1004.13	211.60
1004.42	211.52
1004.71	211.55
1004.99	211.50
1005.28	211.57
1005.57	211.64
1005.86	211.61
1006.15	211.56
1006.44	211.52
1006.72	211.55
1007.01	211.49
1007.30	211.40
1007.59	211.35
1007.88	211.30
1008.17	211.34
1008.45	211.25
1008.74	211.11
1009.03	210.92
1009.32	210.92
1009.60	210.94
1009.89	210.92
1010.18	210.88
1010.47	210.86
1010.76	210.91
1011.04	210.90
1011.33	210.93
1011.62	210.97
1011.91	211.01
1012.19	210.98
1012.48	210.91
1012.77	210.96
1013.05	211.05
1013.34	211.15
1013.63	211.18
1013.92	211.23
1014.20	211.18
1014.49	211.21
1014.78	211.23
1015.06	211.14
1015.35	211.15
1015.64	211.20
1015.92	211.22
1016.21	211.18
1016.50	211.21
1016.78	211.17
1017.07	211.25
1017.36	211.18
1017.64	211.11
1017.93	211.15
1018.22	211.14
1018.50	211.16
1018.79	211.14
1019.08	211.03
1019.36	211.02
1019.65	210.92
1019.93	211.01
1020.22	211.07
1020.51	211.16
1020.79	211.15
1021.08	210.05
1021.36	210.20
1021.65	211.05
1021.94	210.95
1022.22	211.20
1022.51	209.75
1022.79	213.10
1023.08	210.70
1023.36	213.90
1023.65	211.00
>>>>>End Processed Spectral Data<<<<<
