SpectraSuite Data File
++++++++++++++++++++++++++++++++++++
Date: Mon Feb 25 17:20:41 EST 2013
User: group
Dark Spectrum Present: No
Reference Spectrum Present: No
Number of Sampled Component Spectra: 1
Spectrometers: USB2E7196
Integration Time (usec): 104000 (USB2E7196)
Spectra Averaged: 20 (USB2E7196)
Boxcar Smoothing: 10 (USB2E7196)
Correct for Electrical Dark: No (USB2E7196)
Strobe/Lamp Enabled: No (USB2E7196)
Correct for Detector Non-linearity: No (USB2E7196)
Correct for Stray Light: No (USB2E7196)
Number of Pixels in Processed Spectrum: 2048
>>>>>Begin Processed Spectral Data<<<<<
339.09	0.00
339.48	199.45
339.86	199.20
340.24	201.55
340.63	202.65
341.01	208.85
341.39	205.10
341.78	208.40
342.16	208.40
342.54	208.70
342.93	198.07
343.31	208.05
343.69	208.56
344.07	209.07
344.46	209.55
344.84	210.04
345.22	210.15
345.60	210.52
345.99	210.69
346.37	210.88
346.75	211.05
347.13	211.19
347.52	211.37
347.90	211.54
348.28	211.66
348.66	211.75
349.05	211.70
349.43	211.80
349.81	211.87
350.19	211.99
350.57	212.16
350.96	212.32
351.34	212.51
351.72	212.61
352.10	212.77
352.48	212.77
352.87	212.82
353.25	212.87
353.63	212.92
354.01	212.99
354.39	213.10
354.77	213.12
355.15	213.29
355.54	213.31
355.92	213.31
356.30	213.38
356.68	213.70
357.06	213.80
357.44	213.85
357.82	213.93
358.20	214.07
358.58	214.13
358.97	214.28
359.35	214.38
359.73	214.54
360.11	214.66
360.49	214.80
360.87	214.85
361.25	215.01
361.63	215.19
362.01	215.30
362.39	215.30
362.77	215.43
363.15	215.41
363.53	215.50
363.91	215.53
364.29	215.60
364.67	215.32
365.05	215.40
365.43	215.49
365.81	215.54
366.19	215.71
366.57	215.87
366.95	215.79
367.33	215.79
367.71	215.78
368.09	215.77
368.47	215.72
368.85	215.67
369.23	215.74
369.61	215.55
369.99	215.62
370.37	215.65
370.75	215.78
371.13	215.71
371.51	215.63
371.89	215.65
372.27	215.63
372.65	215.61
373.03	215.60
373.41	215.55
373.78	215.56
374.16	215.30
374.54	215.15
374.92	215.11
375.30	215.09
375.68	215.02
376.06	215.02
376.44	215.02
376.82	214.99
377.19	214.90
377.57	214.92
377.95	214.73
378.33	214.69
378.71	214.47
379.09	214.54
379.47	214.53
379.84	214.47
380.22	214.38
380.60	214.29
380.98	214.19
381.36	214.13
381.73	214.03
382.11	214.07
382.49	214.01
382.87	213.93
383.25	213.90
383.62	214.22
384.00	214.08
384.38	214.05
384.76	214.15
385.13	214.22
385.51	214.15
385.89	214.13
386.27	214.12
386.64	214.10
387.02	214.01
387.40	213.96
387.78	213.92
388.15	213.93
388.53	213.92
388.91	213.90
389.29	213.91
389.66	213.88
390.04	213.83
390.42	213.97
390.79	214.02
391.17	214.00
391.55	213.64
391.92	213.71
392.30	213.68
392.68	213.61
393.05	213.59
393.43	213.61
393.81	213.65
394.18	213.55
394.56	213.60
394.94	213.66
395.31	213.66
395.69	213.74
396.06	213.78
396.44	213.82
396.82	213.83
397.19	213.92
397.57	213.94
397.95	214.06
398.32	213.92
398.70	213.95
399.07	214.04
399.45	214.09
399.82	214.06
400.20	214.06
400.58	214.13
400.95	214.08
401.33	214.18
401.70	214.46
402.08	214.59
402.45	214.60
402.83	214.81
403.20	214.91
403.58	215.01
403.95	215.19
404.33	215.34
404.71	215.48
405.08	215.88
405.46	216.03
405.83	216.15
406.21	216.30
406.58	216.52
406.96	216.73
407.33	216.95
407.70	217.36
408.08	217.99
408.45	218.32
408.83	218.74
409.20	219.05
409.58	219.26
409.95	219.76
410.33	220.32
410.70	220.71
411.08	221.33
411.45	221.95
411.82	222.45
412.20	223.20
412.57	223.99
412.95	224.39
413.32	225.27
413.69	226.12
414.07	227.05
414.44	227.95
414.82	228.90
415.19	230.14
415.56	231.24
415.94	232.32
416.31	233.64
416.68	235.01
417.06	236.66
417.43	238.24
417.81	239.87
418.18	241.58
418.55	243.37
418.93	245.34
419.30	247.34
419.67	249.56
420.04	251.80
420.42	254.16
420.79	257.04
421.16	259.68
421.54	262.53
421.91	265.48
422.28	268.50
422.66	271.70
423.03	274.85
423.40	278.08
423.77	281.54
424.15	285.05
424.52	288.75
424.89	292.70
425.26	296.45
425.64	300.18
426.01	304.21
426.38	308.54
426.75	312.79
427.13	317.24
427.50	321.84
427.87	326.65
428.24	331.46
428.61	335.92
428.99	341.10
429.36	346.54
429.73	351.88
430.10	357.30
430.47	362.87
430.85	368.45
431.22	374.45
431.59	381.01
431.96	387.13
432.33	393.82
432.70	400.35
433.08	407.95
433.45	415.07
433.82	422.24
434.19	430.15
434.56	438.03
434.93	445.41
435.30	452.98
435.68	461.18
436.05	469.35
436.42	477.44
436.79	484.85
437.16	492.94
437.53	501.34
437.90	509.68
438.27	517.96
438.64	526.49
439.01	534.41
439.38	541.23
439.75	548.06
440.13	555.84
440.50	563.01
440.87	569.04
441.24	575.35
441.61	582.11
441.98	587.15
442.35	592.77
442.72	598.69
443.09	604.20
443.46	607.57
443.83	609.81
444.20	611.97
444.57	614.80
444.94	616.05
445.31	617.50
445.68	618.87
446.05	619.22
446.42	618.34
446.79	617.35
447.16	616.05
447.53	615.13
447.90	611.87
448.27	608.60
448.64	604.05
449.01	600.70
449.37	595.10
449.74	589.63
450.11	583.37
450.48	576.36
450.85	569.16
451.22	563.07
451.59	557.20
451.96	551.33
452.33	543.80
452.70	537.09
453.07	528.94
453.43	520.61
453.80	512.81
454.17	505.23
454.54	498.03
454.91	490.54
455.28	483.13
455.65	476.18
456.02	469.64
456.38	463.89
456.75	456.65
457.12	450.49
457.49	444.55
457.86	438.68
458.23	433.70
458.59	428.37
458.96	422.84
459.33	417.95
459.70	413.09
460.07	409.19
460.43	404.63
460.80	400.56
461.17	397.01
461.54	393.16
461.91	389.66
462.27	386.08
462.64	382.92
463.01	379.47
463.38	376.31
463.74	372.80
464.11	369.90
464.48	367.42
464.85	364.72
465.21	362.55
465.58	360.41
465.95	357.77
466.32	355.55
466.68	353.37
467.05	351.22
467.42	349.12
467.78	346.93
468.15	344.90
468.52	343.37
468.88	341.34
469.25	339.61
469.62	338.23
469.98	336.62
470.35	335.30
470.72	334.02
471.08	332.50
471.45	331.30
471.82	330.19
472.18	328.88
472.55	328.20
472.92	327.13
473.28	326.14
473.65	325.30
474.02	324.45
474.38	323.84
474.75	323.42
475.11	322.84
475.48	322.62
475.85	322.38
476.21	322.03
476.58	321.95
476.94	321.98
477.31	321.91
477.67	322.03
478.04	322.20
478.41	322.50
478.77	323.13
479.14	323.55
479.50	324.04
479.87	324.70
480.23	325.27
480.60	325.97
480.96	326.72
481.33	327.87
481.69	329.02
482.06	330.08
482.42	331.08
482.79	332.31
483.15	333.60
483.52	335.22
483.88	336.91
484.25	338.61
484.61	340.35
484.98	342.26
485.34	344.37
485.71	346.65
486.07	349.10
486.44	351.36
486.80	354.00
487.17	356.81
487.53	359.98
487.90	363.22
488.26	366.86
488.62	370.52
488.99	374.01
489.35	377.83
489.72	382.00
490.08	386.44
490.44	391.06
490.81	396.02
491.17	400.92
491.54	406.23
491.90	411.69
492.26	417.60
492.63	423.73
492.99	430.04
493.36	436.71
493.72	443.87
494.08	451.14
494.45	458.99
494.81	467.21
495.17	475.51
495.54	484.36
495.90	493.35
496.26	502.89
496.63	512.91
496.99	523.31
497.35	534.01
497.72	545.34
498.08	557.11
498.44	569.01
498.80	581.96
499.17	595.30
499.53	608.96
499.89	623.24
500.26	637.77
500.62	652.79
500.98	668.41
501.34	684.58
501.71	701.52
502.07	718.65
502.43	736.32
502.79	754.44
503.16	773.14
503.52	792.44
503.88	812.42
504.24	832.87
504.60	853.86
504.97	875.76
505.33	897.72
505.69	921.04
506.05	944.75
506.41	968.35
506.78	992.35
507.14	1017.21
507.50	1042.55
507.86	1068.51
508.22	1095.31
508.59	1122.15
508.95	1149.76
509.31	1177.84
509.67	1206.60
510.03	1235.83
510.39	1266.07
510.75	1296.64
511.12	1327.54
511.48	1358.60
511.84	1390.23
512.20	1422.03
512.56	1454.76
512.92	1488.00
513.28	1520.86
513.64	1554.30
514.00	1588.01
514.37	1622.10
514.73	1656.74
515.09	1691.56
515.45	1726.31
515.81	1761.18
516.17	1796.58
516.53	1832.08
516.89	1867.45
517.25	1902.74
517.61	1938.09
517.97	1973.31
518.33	2008.39
518.69	2044.01
519.05	2079.99
519.41	2116.02
519.77	2152.61
520.13	2187.89
520.49	2223.07
520.85	2259.09
521.21	2295.08
521.57	2331.32
521.93	2366.70
522.29	2403.16
522.65	2439.18
523.01	2474.75
523.37	2509.40
523.73	2544.45
524.09	2579.36
524.45	2614.64
524.81	2649.87
525.17	2685.11
525.53	2719.96
525.89	2754.85
526.25	2788.81
526.61	2821.65
526.97	2854.84
527.33	2887.51
527.68	2920.80
528.04	2953.01
528.40	2983.59
528.76	3014.77
529.12	3046.46
529.48	3079.01
529.84	3109.52
530.20	3139.63
530.56	3170.28
530.91	3202.03
531.27	3232.95
531.63	3262.62
531.99	3291.83
532.35	3320.09
532.71	3348.18
533.07	3376.76
533.42	3403.45
533.78	3431.05
534.14	3458.16
534.50	3483.23
534.86	3509.14
535.21	3533.16
535.57	3559.10
535.93	3583.98
536.29	3607.77
536.65	3631.02
537.00	3652.75
537.36	3673.70
537.72	3694.67
538.08	3715.53
538.44	3736.05
538.79	3755.99
539.15	3775.91
539.51	3795.35
539.87	3815.63
540.22	3834.59
540.58	3853.64
540.94	3872.41
541.29	3888.95
541.65	3904.93
542.01	3921.88
542.37	3937.51
542.72	3953.51
543.08	3967.21
543.44	3981.67
543.79	3994.81
544.15	4006.53
544.51	4018.15
544.87	4029.40
545.22	4039.75
545.58	4048.85
545.94	4056.27
546.29	4062.96
546.65	4068.96
547.01	4074.18
547.36	4077.97
547.72	4081.62
548.07	4083.31
548.43	4085.61
548.79	4088.14
549.14	4090.92
549.50	4092.70
549.86	4093.56
550.21	4094.16
550.57	4094.80
550.92	4094.80
551.28	4095.00
551.64	4095.00
551.99	4095.00
552.35	4095.00
552.70	4095.00
553.06	4095.00
553.41	4095.00
553.77	4095.00
554.13	4095.00
554.48	4095.00
554.84	4095.00
555.19	4095.00
555.55	4095.00
555.90	4095.00
556.26	4094.98
556.61	4094.84
556.97	4094.61
557.32	4094.48
557.68	4093.58
558.03	4093.09
558.39	4092.50
558.74	4092.44
559.10	4092.27
559.45	4091.81
559.81	4091.68
560.16	4090.30
560.52	4089.24
560.87	4087.35
561.23	4084.41
561.58	4082.30
561.94	4079.11
562.29	4075.39
562.64	4072.38
563.00	4069.37
563.35	4065.84
563.71	4062.47
564.06	4057.53
564.42	4053.15
564.77	4048.72
565.12	4044.64
565.48	4039.02
565.83	4033.78
566.19	4028.35
566.54	4020.84
566.89	4013.81
567.25	4007.24
567.60	4000.49
567.96	3992.75
568.31	3986.29
568.66	3978.97
569.02	3970.37
569.37	3961.46
569.72	3954.11
570.08	3945.02
570.43	3935.26
570.78	3925.45
571.14	3914.61
571.49	3904.35
571.84	3894.30
572.20	3882.57
572.55	3871.53
572.90	3860.22
573.26	3847.93
573.61	3835.14
573.96	3823.94
574.31	3811.00
574.67	3797.21
575.02	3783.50
575.37	3770.38
575.72	3755.51
576.08	3743.15
576.43	3729.27
576.78	3716.85
577.13	3704.22
577.49	3691.54
577.84	3678.69
578.19	3666.75
578.54	3655.36
578.90	3643.97
579.25	3630.72
579.60	3617.23
579.95	3603.32
580.30	3590.66
580.66	3578.63
581.01	3565.39
581.36	3551.42
581.71	3538.49
582.06	3525.58
582.42	3512.47
582.77	3498.50
583.12	3485.27
583.47	3472.37
583.82	3460.34
584.17	3447.12
584.53	3433.94
584.88	3420.32
585.23	3406.75
585.58	3392.59
585.93	3377.90
586.28	3364.21
586.63	3350.78
586.98	3338.17
587.34	3325.84
587.69	3312.76
588.04	3299.06
588.39	3286.46
588.74	3273.13
589.09	3260.69
589.44	3247.36
589.79	3235.30
590.14	3223.51
590.49	3211.12
590.84	3197.62
591.19	3185.93
591.54	3173.38
591.89	3158.24
592.25	3144.87
592.60	3131.52
592.95	3117.29
593.30	3102.51
593.65	3087.85
594.00	3074.03
594.35	3062.11
594.70	3048.45
595.05	3035.22
595.40	3022.07
595.75	3007.85
596.10	2995.48
596.45	2982.79
596.80	2970.83
597.15	2958.60
597.50	2945.56
597.85	2933.27
598.19	2920.64
598.54	2907.16
598.89	2895.39
599.24	2885.53
599.59	2874.14
599.94	2863.80
600.29	2852.75
600.64	2842.16
600.99	2830.38
601.34	2819.06
601.69	2805.74
602.04	2793.44
602.39	2781.34
602.74	2769.81
603.08	2759.58
603.43	2749.20
603.78	2737.66
604.13	2726.17
604.48	2714.63
604.83	2704.96
605.18	2694.84
605.53	2683.49
605.87	2671.93
606.22	2660.86
606.57	2648.74
606.92	2637.45
607.27	2624.83
607.62	2613.25
607.96	2602.50
608.31	2592.42
608.66	2580.55
609.01	2568.84
609.36	2556.99
609.70	2544.60
610.05	2532.17
610.40	2519.68
610.75	2506.66
611.10	2494.96
611.44	2481.13
611.79	2467.81
612.14	2453.06
612.49	2438.54
612.83	2425.70
613.18	2411.97
613.53	2398.08
613.88	2383.88
614.22	2370.62
614.57	2357.22
614.92	2344.05
615.27	2330.02
615.61	2316.04
615.96	2303.27
616.31	2291.10
616.65	2279.42
617.00	2267.65
617.35	2255.30
617.70	2242.23
618.04	2228.55
618.39	2214.26
618.74	2202.09
619.08	2189.09
619.43	2176.58
619.78	2164.65
620.12	2152.05
620.47	2140.58
620.82	2127.17
621.16	2114.47
621.51	2101.21
621.85	2089.06
622.20	2075.83
622.55	2063.13
622.89	2050.20
623.24	2037.40
623.59	2024.22
623.93	2010.98
624.28	1998.54
624.62	1986.17
624.97	1973.57
625.32	1962.10
625.66	1951.10
626.01	1939.52
626.35	1928.05
626.70	1916.57
627.04	1904.99
627.39	1893.86
627.73	1881.68
628.08	1871.28
628.43	1859.79
628.77	1848.36
629.12	1836.48
629.46	1826.39
629.81	1815.52
630.15	1804.67
630.50	1793.48
630.84	1782.20
631.19	1771.37
631.53	1760.00
631.88	1747.90
632.22	1736.61
632.57	1725.55
632.91	1713.99
633.26	1702.64
633.60	1691.71
633.95	1681.20
634.29	1670.30
634.64	1659.21
634.98	1648.12
635.32	1637.18
635.67	1627.35
636.01	1617.37
636.36	1606.48
636.70	1595.62
637.05	1585.20
637.39	1575.15
637.73	1565.60
638.08	1556.93
638.42	1547.43
638.77	1537.71
639.11	1528.46
639.45	1518.57
639.80	1508.19
640.14	1498.00
640.49	1487.83
640.83	1477.72
641.17	1467.56
641.52	1457.27
641.86	1446.76
642.20	1437.03
642.55	1426.56
642.89	1416.11
643.23	1405.42
643.58	1396.16
643.92	1385.67
644.26	1375.71
644.61	1365.71
644.95	1355.24
645.29	1344.60
645.64	1334.01
645.98	1324.00
646.32	1314.38
646.66	1304.67
647.01	1295.41
647.35	1286.06
647.69	1276.23
648.04	1266.42
648.38	1256.45
648.72	1246.92
649.06	1237.66
649.41	1228.21
649.75	1218.78
650.09	1209.56
650.43	1200.48
650.78	1190.70
651.12	1181.34
651.46	1171.96
651.80	1162.83
652.14	1153.83
652.49	1144.17
652.83	1134.76
653.17	1124.86
653.51	1115.17
653.85	1106.31
654.20	1097.09
654.54	1087.66
654.88	1078.81
655.22	1069.87
655.56	1060.92
655.90	1051.71
656.25	1042.47
656.59	1033.55
656.93	1025.04
657.27	1016.63
657.61	1007.53
657.95	999.21
658.29	991.13
658.64	982.88
658.98	974.61
659.32	965.89
659.66	957.80
660.00	949.83
660.34	941.81
660.68	933.80
661.02	925.38
661.36	917.46
661.70	909.96
662.05	902.40
662.39	895.10
662.73	887.99
663.07	881.10
663.41	874.12
663.75	866.97
664.09	859.45
664.43	851.88
664.77	845.10
665.11	837.98
665.45	831.05
665.79	824.46
666.13	817.56
666.47	811.03
666.81	804.40
667.15	797.78
667.49	791.97
667.83	785.86
668.17	779.87
668.51	773.99
668.85	767.98
669.19	762.26
669.53	756.26
669.87	750.05
670.21	744.13
670.55	738.32
670.89	733.07
671.23	728.00
671.57	722.62
671.91	717.18
672.25	711.75
672.58	706.30
672.92	700.74
673.26	695.48
673.60	690.33
673.94	685.11
674.28	680.00
674.62	674.90
674.96	669.81
675.30	664.92
675.64	659.81
675.97	654.95
676.31	650.16
676.65	645.45
676.99	641.17
677.33	636.38
677.67	631.79
678.01	626.72
678.34	622.04
678.68	617.46
679.02	612.84
679.36	608.53
679.70	604.15
680.04	599.76
680.37	595.41
680.71	591.16
681.05	587.26
681.39	583.15
681.73	579.11
682.06	575.40
682.40	571.42
682.74	567.45
683.08	563.50
683.42	559.31
683.75	555.38
684.09	551.11
684.43	547.15
684.77	543.01
685.10	539.18
685.44	535.18
685.78	531.36
686.12	527.89
686.45	524.13
686.79	520.50
687.13	516.95
687.46	513.47
687.80	510.11
688.14	506.32
688.48	503.00
688.81	499.20
689.15	495.48
689.49	492.11
689.82	488.72
690.16	485.07
690.50	481.55
690.83	478.17
691.17	474.80
691.51	471.52
691.84	468.45
692.18	465.47
692.52	462.56
692.85	459.80
693.19	456.82
693.52	453.91
693.86	450.75
694.20	447.88
694.53	444.90
694.87	441.65
695.21	438.75
695.54	435.63
695.88	432.74
696.21	429.90
696.55	427.15
696.88	424.31
697.22	421.72
697.56	419.26
697.89	416.68
698.23	414.14
698.56	411.62
698.90	409.23
699.23	406.64
699.57	404.10
699.90	401.46
700.24	398.83
700.58	396.37
700.91	394.17
701.25	392.14
701.58	389.85
701.92	387.71
702.25	385.49
702.59	383.30
702.92	381.19
703.26	379.12
703.59	377.02
703.93	375.30
704.26	373.27
704.60	371.28
704.93	369.08
705.26	367.06
705.60	365.18
705.93	363.18
706.27	361.40
706.60	359.67
706.94	358.08
707.27	356.19
707.61	354.39
707.94	352.62
708.27	350.48
708.61	348.75
708.94	347.01
709.28	345.40
709.61	343.73
709.94	342.26
710.28	340.63
710.61	339.13
710.95	337.27
711.28	335.95
711.61	334.40
711.95	333.04
712.28	331.50
712.61	329.95
712.95	328.65
713.28	327.20
713.61	325.69
713.95	324.09
714.28	323.01
714.61	321.56
714.95	320.19
715.28	318.85
715.61	317.41
715.95	316.11
716.28	314.72
716.61	313.56
716.95	312.15
717.28	310.94
717.61	309.66
717.94	308.52
718.28	307.04
718.61	305.84
718.94	304.66
719.27	303.64
719.61	302.60
719.94	301.46
720.27	300.27
720.60	299.16
720.94	298.14
721.27	296.95
721.60	296.11
721.93	295.10
722.27	294.27
722.60	293.41
722.93	292.52
723.26	291.73
723.59	290.75
723.93	289.82
724.26	288.92
724.59	287.99
724.92	287.05
725.25	286.35
725.59	285.51
725.92	284.78
726.25	283.87
726.58	283.13
726.91	282.35
727.24	281.66
727.57	280.88
727.91	280.05
728.24	279.38
728.57	278.59
728.90	277.87
729.23	276.99
729.56	276.47
729.89	275.63
730.22	274.85
730.55	274.03
730.89	273.35
731.22	272.58
731.55	271.93
731.88	271.36
732.21	270.54
732.54	269.78
732.87	269.05
733.20	268.44
733.53	267.71
733.86	267.12
734.19	266.38
734.52	265.79
734.85	265.44
735.18	264.75
735.51	264.21
735.84	263.65
736.17	263.11
736.50	262.31
736.83	262.10
737.16	261.59
737.49	261.11
737.82	260.51
738.15	259.94
738.48	259.41
738.81	258.80
739.14	258.19
739.47	257.70
739.80	257.20
740.13	256.73
740.46	256.11
740.79	255.46
741.12	254.96
741.45	254.39
741.78	253.72
742.11	253.32
742.44	252.70
742.77	252.29
743.10	251.77
743.43	251.31
743.75	250.55
744.08	250.51
744.41	250.09
744.74	249.63
745.07	249.18
745.40	248.78
745.73	248.50
746.06	248.18
746.39	247.80
746.71	247.19
747.04	246.77
747.37	246.43
747.70	246.13
748.03	245.70
748.36	245.48
748.68	245.02
749.01	244.56
749.34	244.19
749.67	243.78
750.00	243.52
750.33	243.30
750.65	242.95
750.98	242.13
751.31	241.75
751.64	241.50
751.97	241.42
752.29	240.95
752.62	240.38
752.95	240.06
753.28	239.70
753.60	239.47
753.93	239.20
754.26	238.90
754.59	238.44
754.91	238.12
755.24	237.71
755.57	237.42
755.90	237.06
756.22	236.79
756.55	236.46
756.88	236.02
757.20	235.51
757.53	235.09
757.86	234.83
758.19	234.53
758.51	234.22
758.84	233.75
759.17	233.57
759.49	233.38
759.82	233.22
760.15	232.93
760.47	232.74
760.80	232.33
761.13	232.15
761.45	231.89
761.78	231.64
762.11	231.36
762.43	231.05
762.76	230.80
763.08	230.55
763.41	230.37
763.74	230.11
764.06	229.90
764.39	229.74
764.71	229.46
765.04	229.27
765.37	228.95
765.69	228.70
766.02	228.44
766.34	228.25
766.67	227.87
767.00	227.76
767.32	227.70
767.65	227.81
767.97	227.57
768.30	227.40
768.62	227.25
768.95	227.01
769.27	226.86
769.60	226.79
769.92	226.56
770.25	226.32
770.57	226.16
770.90	226.00
771.22	225.79
771.55	225.65
771.87	225.49
772.20	225.34
772.52	225.51
772.85	225.75
773.17	225.56
773.50	225.44
773.82	225.17
774.15	224.87
774.47	224.50
774.80	224.26
775.12	224.17
775.45	224.00
775.77	223.89
776.09	223.85
776.42	223.65
776.74	223.71
777.07	223.60
777.39	223.49
777.72	223.35
778.04	223.28
778.36	223.09
778.69	223.05
779.01	222.97
779.33	222.55
779.66	222.03
779.98	221.92
780.31	221.78
780.63	221.92
780.95	221.82
781.28	221.66
781.60	221.60
781.92	221.51
782.25	221.42
782.57	221.40
782.89	221.18
783.22	221.08
783.54	220.79
783.86	220.77
784.19	220.66
784.51	220.61
784.83	220.51
785.16	220.44
785.48	220.29
785.80	220.19
786.12	220.12
786.45	220.05
786.77	219.94
787.09	219.90
787.42	219.68
787.74	219.58
788.06	219.53
788.38	219.40
788.71	219.21
789.03	219.12
789.35	219.02
789.67	218.97
789.99	218.98
790.32	218.90
790.64	218.75
790.96	219.00
791.28	218.83
791.61	218.71
791.93	218.68
792.25	218.56
792.57	218.75
792.89	218.62
793.21	218.55
793.54	218.49
793.86	218.38
794.18	218.32
794.50	218.23
794.82	218.16
795.14	218.12
795.47	218.14
795.79	218.12
796.11	218.02
796.43	217.93
796.75	217.82
797.07	217.77
797.39	217.69
797.71	217.28
798.04	217.23
798.36	217.16
798.68	217.07
799.00	217.03
799.32	216.77
799.64	216.82
799.96	216.78
800.28	216.84
800.60	216.84
800.92	216.80
801.24	216.70
801.56	216.65
801.89	216.65
802.21	216.66
802.53	216.57
802.85	216.52
803.17	216.70
803.49	216.60
803.81	216.55
804.13	216.54
804.45	216.50
804.77	216.57
805.09	216.55
805.41	216.54
805.73	216.45
806.05	216.31
806.37	216.21
806.69	216.15
807.01	215.99
807.33	215.80
807.65	215.74
807.97	215.91
808.28	215.77
808.60	215.70
808.92	215.55
809.24	215.68
809.56	215.64
809.88	215.41
810.20	215.42
810.52	215.47
810.84	215.32
811.16	215.27
811.48	215.23
811.80	215.33
812.12	215.27
812.43	215.30
812.75	215.34
813.07	215.21
813.39	215.20
813.71	215.06
814.03	215.08
814.35	214.91
814.67	214.75
814.98	214.74
815.30	214.74
815.62	214.73
815.94	214.52
816.26	214.50
816.58	214.44
816.89	214.42
817.21	214.35
817.53	214.44
817.85	214.42
818.17	214.36
818.48	214.20
818.80	214.26
819.12	214.20
819.44	214.15
819.76	214.20
820.07	214.13
820.39	214.17
820.71	214.21
821.03	214.27
821.34	214.17
821.66	214.26
821.98	214.30
822.30	214.23
822.61	214.33
822.93	214.31
823.25	214.22
823.57	214.12
823.88	214.14
824.20	214.05
824.52	214.11
824.83	214.09
825.15	214.08
825.47	214.02
825.79	214.01
826.10	213.94
826.42	213.94
826.74	214.01
827.05	214.01
827.37	214.00
827.69	213.96
828.00	213.97
828.32	213.98
828.64	213.89
828.95	214.16
829.27	214.06
829.58	214.05
829.90	214.12
830.22	214.15
830.53	213.98
830.85	214.03
831.17	213.90
831.48	213.91
831.80	213.90
832.11	213.81
832.43	213.76
832.75	213.79
833.06	213.94
833.38	213.81
833.69	213.82
834.01	213.79
834.32	213.82
834.64	213.82
834.96	213.85
835.27	213.79
835.59	213.58
835.90	213.57
836.22	213.56
836.53	213.49
836.85	213.52
837.16	213.97
837.48	213.91
837.79	214.01
838.11	213.99
838.42	214.00
838.74	214.12
839.05	214.10
839.37	214.03
839.68	213.90
840.00	213.91
840.31	213.88
840.63	213.90
840.94	213.77
841.26	213.74
841.57	213.70
841.88	213.76
842.20	213.69
842.51	213.56
842.83	213.54
843.14	213.90
843.46	213.83
843.77	213.54
844.08	213.56
844.40	213.47
844.71	213.43
845.03	213.41
845.34	213.33
845.65	213.30
845.97	213.35
846.28	213.31
846.60	213.31
846.91	213.30
847.22	213.20
847.54	213.29
847.85	213.30
848.16	213.20
848.48	213.15
848.79	213.30
849.10	213.37
849.42	213.40
849.73	213.08
850.04	213.06
850.36	212.96
850.67	212.96
850.98	213.00
851.30	213.02
851.61	212.99
851.92	212.94
852.23	213.11
852.55	213.09
852.86	213.03
853.17	213.09
853.49	213.19
853.80	213.31
854.11	213.26
854.42	213.28
854.74	213.20
855.05	213.18
855.36	212.98
855.67	213.00
855.99	212.88
856.30	213.27
856.61	213.23
856.92	213.28
857.23	213.23
857.55	213.13
857.86	213.09
858.17	213.19
858.48	213.19
858.79	213.04
859.11	213.05
859.42	213.03
859.73	212.96
860.04	212.89
860.35	212.78
860.66	212.73
860.98	212.68
861.29	212.76
861.60	212.78
861.91	212.86
862.22	212.80
862.53	212.75
862.84	212.28
863.16	212.40
863.47	212.31
863.78	212.31
864.09	212.35
864.40	212.35
864.71	212.32
865.02	212.24
865.33	212.18
865.64	212.13
865.95	212.16
866.27	212.39
866.58	212.38
866.89	212.40
867.20	212.38
867.51	212.30
867.82	212.25
868.13	212.36
868.44	212.29
868.75	212.35
869.06	212.39
869.37	212.49
869.68	212.31
869.99	212.29
870.30	212.40
870.61	212.43
870.92	212.37
871.23	212.34
871.54	212.50
871.85	212.64
872.16	212.69
872.47	212.61
872.78	212.32
873.09	212.35
873.40	212.30
873.71	212.37
874.02	212.49
874.33	212.52
874.64	212.40
874.95	212.41
875.26	212.28
875.56	212.30
875.87	212.27
876.18	212.32
876.49	212.75
876.80	212.63
877.11	212.51
877.42	212.53
877.73	212.54
878.04	212.45
878.35	212.48
878.66	212.45
878.96	212.45
879.27	212.48
879.58	212.43
879.89	212.42
880.20	212.47
880.51	212.43
880.82	212.43
881.12	212.43
881.43	212.34
881.74	212.40
882.05	212.35
882.36	212.31
882.67	212.35
882.97	211.93
883.28	211.94
883.59	211.97
883.90	212.00
884.21	212.02
884.51	212.00
884.82	211.90
885.13	211.88
885.44	211.98
885.74	211.93
886.05	211.93
886.36	211.94
886.67	211.82
886.98	211.95
887.28	211.93
887.59	211.93
887.90	211.99
888.20	211.95
888.51	212.05
888.82	212.06
889.13	212.06
889.43	212.37
889.74	212.33
890.05	212.38
890.35	212.37
890.66	212.33
890.97	212.29
891.28	212.27
891.58	212.33
891.89	212.22
892.20	212.22
892.50	212.16
892.81	212.17
893.12	212.10
893.42	211.97
893.73	212.01
894.04	212.05
894.34	212.07
894.65	212.10
894.95	212.04
895.26	212.02
895.57	212.10
895.87	211.75
896.18	211.72
896.48	211.70
896.79	211.64
897.10	211.61
897.40	211.66
897.71	211.73
898.01	211.64
898.32	211.78
898.63	211.82
898.93	211.79
899.24	211.75
899.54	211.80
899.85	211.77
900.15	211.77
900.46	211.77
900.76	211.83
901.07	211.74
901.38	211.82
901.68	211.85
901.99	211.72
902.29	211.72
902.60	211.77
902.90	211.74
903.21	211.80
903.51	211.86
903.82	211.91
904.12	211.82
904.43	211.84
904.73	211.73
905.03	211.75
905.34	212.11
905.64	212.13
905.95	212.13
906.25	212.15
906.56	212.08
906.86	212.16
907.17	212.13
907.47	212.20
907.77	212.07
908.08	212.06
908.38	212.10
908.69	212.18
908.99	212.27
909.30	212.30
909.60	212.24
909.90	212.21
910.21	212.12
910.51	212.11
910.81	212.14
911.12	212.19
911.42	212.19
911.73	211.88
912.03	211.90
912.33	212.01
912.64	212.01
912.94	212.00
913.24	211.90
913.55	211.83
913.85	211.84
914.15	212.00
914.46	212.04
914.76	212.04
915.06	212.01
915.37	211.95
915.67	211.94
915.97	211.97
916.27	211.91
916.58	211.94
916.88	211.88
917.18	211.82
917.49	212.03
917.79	211.98
918.09	212.01
918.39	212.08
918.70	211.94
919.00	211.92
919.30	212.06
919.60	212.02
919.91	212.01
920.21	211.98
920.51	211.83
920.81	211.79
921.12	211.87
921.42	211.85
921.72	211.81
922.02	211.85
922.32	211.89
922.63	211.97
922.93	212.09
923.23	212.19
923.53	212.18
923.83	211.96
924.13	211.98
924.44	211.97
924.74	212.03
925.04	212.19
925.34	212.17
925.64	212.07
925.94	212.02
926.24	212.18
926.55	212.15
926.85	212.12
927.15	212.12
927.45	212.02
927.75	211.99
928.05	212.01
928.35	211.96
928.65	211.97
928.95	211.94
929.26	211.80
929.56	211.85
929.86	211.89
930.16	211.87
930.46	211.89
930.76	211.90
931.06	211.69
931.36	211.56
931.66	211.65
931.96	211.66
932.26	211.63
932.56	211.47
932.86	211.41
933.16	211.52
933.46	211.47
933.76	211.42
934.06	211.54
934.36	211.62
934.66	211.52
934.96	211.46
935.26	211.48
935.56	211.48
935.86	211.36
936.16	211.35
936.46	211.26
936.76	211.20
937.06	211.16
937.36	211.15
937.66	211.14
937.96	211.13
938.26	211.09
938.56	211.12
938.86	211.21
939.16	211.35
939.46	211.37
939.76	211.43
940.06	211.45
940.35	211.33
940.65	211.23
940.95	211.37
941.25	211.35
941.55	211.33
941.85	211.32
942.15	211.38
942.45	211.48
942.75	211.47
943.04	211.46
943.34	211.52
943.64	211.62
943.94	211.63
944.24	211.58
944.54	211.55
944.84	211.60
945.13	211.49
945.43	211.47
945.73	211.42
946.03	211.36
946.33	211.37
946.62	211.30
946.92	211.27
947.22	211.28
947.52	211.30
947.82	211.28
948.11	211.25
948.41	211.18
948.71	211.06
949.01	211.13
949.31	211.14
949.60	211.14
949.90	211.10
950.20	211.04
950.50	211.09
950.79	211.08
951.09	211.11
951.39	211.10
951.69	211.06
951.98	211.10
952.28	211.13
952.58	211.09
952.87	211.18
953.17	211.18
953.47	211.13
953.76	211.15
954.06	211.12
954.36	211.03
954.66	211.04
954.95	211.23
955.25	211.29
955.55	211.30
955.84	211.20
956.14	211.24
956.44	211.28
956.73	211.26
957.03	211.31
957.32	211.31
957.62	211.30
957.92	211.34
958.21	211.30
958.51	211.72
958.81	211.82
959.10	211.83
959.40	211.94
959.69	211.95
959.99	211.99
960.29	212.05
960.58	212.09
960.88	212.29
961.17	212.13
961.47	212.19
961.76	212.11
962.06	212.18
962.36	212.20
962.65	212.25
962.95	212.24
963.24	212.20
963.54	212.21
963.83	212.30
964.13	212.25
964.42	212.20
964.72	211.85
965.01	211.78
965.31	211.76
965.60	211.67
965.90	211.91
966.19	211.79
966.49	211.82
966.78	211.83
967.08	211.78
967.37	211.79
967.67	211.64
967.96	211.80
968.26	211.79
968.55	211.83
968.85	211.83
969.14	211.76
969.43	211.75
969.73	211.71
970.02	211.73
970.32	211.73
970.61	211.73
970.91	211.67
971.20	211.66
971.49	211.61
971.79	211.67
972.08	211.36
972.38	211.38
972.67	211.29
972.96	211.37
973.26	211.24
973.55	211.34
973.85	211.33
974.14	211.24
974.43	211.30
974.73	211.23
975.02	211.16
975.31	211.21
975.61	211.25
975.90	211.16
976.19	211.06
976.49	211.10
976.78	211.06
977.07	211.07
977.37	211.09
977.66	211.12
977.95	211.07
978.24	211.15
978.54	211.27
978.83	211.23
979.12	211.19
979.42	211.22
979.71	211.12
980.00	211.17
980.29	211.19
980.59	211.09
980.88	211.12
981.17	211.14
981.46	211.11
981.76	211.10
982.05	211.25
982.34	211.34
982.63	211.41
982.93	211.48
983.22	211.51
983.51	211.54
983.80	211.57
984.09	211.60
984.39	211.62
984.68	211.53
984.97	211.59
985.26	211.56
985.55	211.61
985.85	211.59
986.14	211.57
986.43	211.57
986.72	211.58
987.01	211.48
987.30	211.42
987.59	211.41
987.89	211.42
988.18	211.31
988.47	211.24
988.76	211.15
989.05	211.12
989.34	211.07
989.63	211.14
989.92	211.11
990.22	211.05
990.51	211.00
990.80	210.98
991.09	211.02
991.38	211.01
991.67	210.90
991.96	210.90
992.25	210.94
992.54	210.95
992.83	210.95
993.12	211.00
993.41	211.17
993.70	211.37
993.99	211.40
994.28	211.40
994.58	211.42
994.87	211.42
995.16	211.40
995.45	211.33
995.74	211.23
996.03	211.28
996.32	211.34
996.61	211.43
996.90	211.44
997.19	211.40
997.48	211.43
997.77	211.48
998.06	211.47
998.34	211.45
998.63	211.43
998.92	211.43
999.21	211.46
999.50	211.39
999.79	211.25
1000.08	211.27
1000.37	211.28
1000.66	211.27
1000.95	211.31
1001.24	211.34
1001.53	211.39
1001.82	211.33
1002.11	211.24
1002.40	211.26
1002.68	211.35
1002.97	211.52
1003.26	211.50
1003.55	211.38
1003.84	211.35
1004.13	211.48
1004.42	211.55
1004.71	211.52
1004.99	211.55
1005.28	211.65
1005.57	211.54
1005.86	211.47
1006.15	211.36
1006.44	211.37
1006.72	211.44
1007.01	211.39
1007.30	211.36
1007.59	211.36
1007.88	211.37
1008.17	211.38
1008.45	211.38
1008.74	211.24
1009.03	211.15
1009.32	211.12
1009.60	211.17
1009.89	211.15
1010.18	211.03
1010.47	210.99
1010.76	210.98
1011.04	210.90
1011.33	211.25
1011.62	211.37
1011.91	211.50
1012.19	211.55
1012.48	211.55
1012.77	211.48
1013.05	211.67
1013.34	211.69
1013.63	211.68
1013.92	211.73
1014.20	211.76
1014.49	211.69
1014.78	211.71
1015.06	211.55
1015.35	211.53
1015.64	211.60
1015.92	211.62
1016.21	211.66
1016.50	211.55
1016.78	211.63
1017.07	211.70
1017.36	211.20
1017.64	211.04
1017.93	211.03
1018.22	210.98
1018.50	210.99
1018.79	210.98
1019.08	210.80
1019.36	210.78
1019.65	210.81
1019.93	210.90
1020.22	210.97
1020.51	211.17
1020.79	211.14
1021.08	210.45
1021.36	210.90
1021.65	210.85
1021.94	211.15
1022.22	210.45
1022.51	211.45
1022.79	212.75
1023.08	212.40
1023.36	215.20
1023.65	210.95
>>>>>End Processed Spectral Data<<<<<
