SpectraSuite Data File
++++++++++++++++++++++++++++++++++++
Date: Mon Feb 25 16:56:13 EST 2013
User: group
Dark Spectrum Present: No
Reference Spectrum Present: No
Number of Sampled Component Spectra: 1
Spectrometers: USB2E7196
Integration Time (usec): 104000 (USB2E7196)
Spectra Averaged: 20 (USB2E7196)
Boxcar Smoothing: 10 (USB2E7196)
Correct for Electrical Dark: No (USB2E7196)
Strobe/Lamp Enabled: No (USB2E7196)
Correct for Detector Non-linearity: No (USB2E7196)
Correct for Stray Light: No (USB2E7196)
Number of Pixels in Processed Spectrum: 2048
>>>>>Begin Processed Spectral Data<<<<<
339.09	0.00
339.48	198.35
339.86	200.20
340.24	200.40
340.63	202.65
341.01	207.95
341.39	204.60
341.78	207.40
342.16	209.55
342.54	207.75
342.93	197.95
343.31	208.01
343.69	208.55
344.07	209.01
344.46	209.54
344.84	210.03
345.22	210.13
345.60	210.46
345.99	210.67
346.37	210.78
346.75	210.97
347.13	211.08
347.52	211.16
347.90	211.40
348.28	211.47
348.66	211.67
349.05	211.66
349.43	211.78
349.81	211.81
350.19	211.89
350.57	211.93
350.96	212.01
351.34	212.13
351.72	212.31
352.10	212.45
352.48	212.52
352.87	212.49
353.25	212.62
353.63	212.69
354.01	212.78
354.39	212.91
354.77	213.03
355.15	213.17
355.54	213.25
355.92	213.25
356.30	213.30
356.68	213.66
357.06	213.66
357.44	213.64
357.82	213.74
358.20	213.83
358.58	213.86
358.97	213.94
359.35	214.01
359.73	214.06
360.11	214.04
360.49	214.11
360.87	214.17
361.25	214.29
361.63	214.47
362.01	214.48
362.39	214.42
362.77	214.44
363.15	214.49
363.53	214.47
363.91	214.52
364.29	214.61
364.67	214.28
365.05	214.38
365.43	214.49
365.81	214.49
366.19	214.66
366.57	214.77
366.95	214.73
367.33	214.70
367.71	214.69
368.09	214.80
368.47	214.76
368.85	214.72
369.23	214.70
369.61	214.53
369.99	214.67
370.37	214.75
370.75	214.77
371.13	214.74
371.51	214.69
371.89	214.70
372.27	214.63
372.65	214.59
373.03	214.56
373.41	214.50
373.78	214.46
374.16	214.24
374.54	214.15
374.92	214.05
375.30	213.98
375.68	213.89
376.06	213.80
376.44	213.69
376.82	213.63
377.19	213.53
377.57	213.52
377.95	213.30
378.33	213.20
378.71	213.06
379.09	213.04
379.47	213.05
379.84	212.91
380.22	212.78
380.60	212.70
380.98	212.62
381.36	212.57
381.73	212.48
382.11	212.45
382.49	212.40
382.87	212.33
383.25	212.33
383.62	212.72
384.00	212.66
384.38	212.67
384.76	212.77
385.13	212.90
385.51	212.85
385.89	212.82
386.27	212.71
386.64	212.73
387.02	212.60
387.40	212.54
387.78	212.54
388.15	212.57
388.53	212.50
388.91	212.45
389.29	212.37
389.66	212.44
390.04	212.44
390.42	212.51
390.79	212.55
391.17	212.52
391.55	212.11
391.92	212.10
392.30	212.20
392.68	212.09
393.05	212.10
393.43	212.11
393.81	212.17
394.18	212.22
394.56	212.18
394.94	212.34
395.31	212.32
395.69	212.49
396.06	212.60
396.44	212.71
396.82	212.73
397.19	213.05
397.57	213.04
397.95	213.11
398.32	213.01
398.70	213.19
399.07	213.31
399.45	213.40
399.82	213.50
400.20	213.53
400.58	213.63
400.95	213.61
401.33	213.76
401.70	214.14
402.08	214.27
402.45	214.48
402.83	214.69
403.20	214.91
403.58	215.04
403.95	215.19
404.33	215.45
404.71	215.76
405.08	216.15
405.46	216.35
405.83	216.63
406.21	217.00
406.58	217.35
406.96	217.60
407.33	218.00
407.70	218.49
408.08	219.27
408.45	219.91
408.83	220.58
409.20	221.13
409.58	221.60
409.95	222.39
410.33	223.21
410.70	223.85
411.08	224.81
411.45	225.80
411.82	226.86
412.20	228.03
412.57	229.40
412.95	230.37
413.32	231.93
413.69	233.39
414.07	235.01
414.44	236.66
414.82	238.57
415.19	240.75
415.56	242.77
415.94	244.86
416.31	247.24
416.68	249.60
417.06	252.40
417.43	255.06
417.81	258.07
418.18	261.18
418.55	264.69
418.93	268.29
419.30	272.02
419.67	275.94
420.04	279.95
420.42	284.15
420.79	289.11
421.16	294.07
421.54	299.34
421.91	304.63
422.28	310.35
422.66	316.37
423.03	322.20
423.40	328.31
423.77	334.87
424.15	341.56
424.52	348.50
424.89	356.14
425.26	363.57
425.64	370.66
426.01	378.48
426.38	386.63
426.75	394.83
427.13	403.32
427.50	412.34
427.87	421.78
428.24	431.11
428.61	440.25
428.99	450.12
429.36	460.82
429.73	471.42
430.10	481.91
430.47	492.63
430.85	504.00
431.22	515.91
431.59	528.41
431.96	540.62
432.33	554.19
432.70	567.16
433.08	582.70
433.45	597.16
433.82	611.60
434.19	627.68
434.56	643.52
434.93	659.07
435.30	674.72
435.68	691.93
436.05	709.11
436.42	726.26
436.79	741.93
437.16	758.92
437.53	776.90
437.90	794.80
438.27	812.53
438.64	830.84
439.01	848.07
439.38	863.91
439.75	879.15
440.13	896.32
440.50	912.74
440.87	926.19
441.24	940.27
441.61	955.96
441.98	967.98
442.35	981.74
442.72	995.30
443.09	1008.22
443.46	1016.68
443.83	1022.76
444.20	1028.05
444.57	1035.80
444.94	1039.86
445.31	1044.29
445.68	1048.42
446.05	1051.15
446.42	1050.85
446.79	1050.17
447.16	1049.11
447.53	1048.73
447.90	1043.43
448.27	1038.20
448.64	1030.27
449.01	1024.93
449.37	1014.25
449.74	1003.92
450.11	991.47
450.48	977.90
450.85	963.91
451.22	952.20
451.59	940.92
451.96	930.13
452.33	915.07
452.70	902.05
453.07	885.76
453.43	869.34
453.80	853.28
454.17	837.89
454.54	823.35
454.91	807.68
455.28	792.42
455.65	778.36
456.02	763.99
456.38	751.91
456.75	736.74
457.12	724.40
457.49	712.04
457.86	699.98
458.23	689.54
458.59	678.21
458.96	666.54
459.33	656.35
459.70	645.99
460.07	637.78
460.43	628.17
460.80	619.38
461.17	611.45
461.54	603.35
461.91	595.62
462.27	587.87
462.64	581.21
463.01	573.66
463.38	566.50
463.74	559.46
464.11	553.18
464.48	547.80
464.85	541.73
465.21	537.04
465.58	532.03
465.95	526.20
466.32	521.27
466.68	516.38
467.05	511.56
467.42	506.73
467.78	501.69
468.15	496.98
468.52	493.46
468.88	488.83
469.25	484.72
469.62	481.29
469.98	477.61
470.35	474.16
470.72	470.97
471.08	467.46
471.45	464.48
471.82	461.49
472.18	458.07
472.55	455.53
472.92	452.75
473.28	450.40
473.65	447.86
474.02	445.57
474.38	443.68
474.75	442.01
475.11	440.20
475.48	438.85
475.85	437.59
476.21	436.28
476.58	435.31
476.94	434.55
477.31	433.78
477.67	432.94
478.04	432.32
478.41	431.87
478.77	431.86
479.14	431.31
479.50	431.23
479.87	431.53
480.23	431.66
480.60	431.60
480.96	431.58
481.33	432.40
481.69	432.96
482.06	433.36
482.42	433.63
482.79	434.26
483.15	435.06
483.52	436.19
483.88	437.26
484.25	438.43
484.61	439.67
484.98	440.92
485.34	442.61
485.71	444.49
486.07	446.38
486.44	448.05
486.80	450.17
487.17	452.50
487.53	455.05
487.90	457.72
488.26	460.75
488.62	463.75
488.99	466.60
489.35	469.72
489.72	473.26
490.08	477.07
490.44	480.77
490.81	484.68
491.17	488.47
491.54	492.69
491.90	496.85
492.26	501.24
492.63	506.08
492.99	510.90
493.36	515.83
493.72	521.11
494.08	526.49
494.45	532.24
494.81	538.17
495.17	543.96
495.54	550.11
495.90	556.35
496.26	562.79
496.63	569.50
496.99	576.40
497.35	583.32
497.72	590.31
498.08	597.63
498.44	605.04
498.80	613.00
499.17	620.90
499.53	629.11
499.89	637.52
500.26	645.53
500.62	653.67
500.98	662.32
501.34	670.91
501.71	679.70
502.07	688.45
502.43	697.05
502.79	705.79
503.16	714.69
503.52	723.73
503.88	732.99
504.24	742.20
504.60	751.47
504.97	761.04
505.33	770.43
505.69	780.40
506.05	790.27
506.41	799.72
506.78	809.14
507.14	818.54
507.50	828.11
507.86	837.78
508.22	847.35
508.59	856.55
508.95	866.07
509.31	875.64
509.67	885.29
510.03	894.99
510.39	905.03
510.75	914.86
511.12	924.56
511.48	933.80
511.84	943.42
512.20	952.64
512.56	961.97
512.92	971.38
513.28	980.57
513.64	989.35
514.00	998.34
514.37	1007.26
514.73	1016.32
515.09	1025.00
515.45	1033.66
515.81	1042.45
516.17	1051.05
516.53	1059.25
516.89	1067.33
517.25	1075.05
517.61	1082.71
517.97	1089.91
518.33	1097.05
518.69	1104.34
519.05	1111.67
519.41	1118.56
519.77	1126.06
520.13	1132.87
520.49	1139.49
520.85	1145.63
521.21	1152.22
521.57	1158.78
521.93	1164.63
522.29	1171.05
522.65	1177.02
523.01	1183.24
523.37	1188.71
523.73	1194.53
524.09	1200.12
524.45	1205.94
524.81	1211.76
525.17	1217.47
525.53	1223.03
525.89	1228.33
526.25	1233.44
526.61	1238.17
526.97	1242.96
527.33	1247.38
527.68	1252.30
528.04	1256.97
528.40	1261.28
528.76	1265.68
529.12	1269.87
529.48	1275.09
529.84	1279.02
530.20	1283.20
530.56	1287.10
530.91	1291.71
531.27	1295.86
531.63	1300.15
531.99	1303.67
532.35	1307.22
532.71	1310.81
533.07	1314.70
533.42	1318.57
533.78	1322.12
534.14	1326.08
534.50	1329.24
534.86	1332.97
535.21	1335.55
535.57	1338.91
535.93	1342.01
536.29	1344.95
536.65	1347.72
537.00	1349.68
537.36	1351.99
537.72	1354.15
538.08	1356.50
538.44	1358.33
538.79	1360.83
539.15	1362.71
539.51	1365.01
539.87	1367.37
540.22	1369.35
540.58	1371.82
540.94	1373.94
541.29	1375.69
541.65	1376.82
542.01	1378.82
542.37	1380.29
542.72	1382.17
543.08	1383.47
543.44	1385.40
543.79	1386.51
544.15	1387.79
544.51	1389.57
544.87	1391.56
545.22	1393.06
545.58	1394.20
545.94	1395.38
546.29	1395.49
546.65	1396.15
547.01	1396.65
547.36	1397.25
547.72	1397.74
548.07	1397.62
548.43	1397.50
548.79	1397.53
549.14	1397.81
549.50	1398.04
549.86	1397.61
550.21	1397.59
550.57	1397.86
550.92	1397.55
551.28	1397.60
551.64	1397.94
551.99	1397.87
552.35	1397.21
552.70	1396.71
553.06	1396.55
553.41	1396.33
553.77	1396.70
554.13	1396.83
554.48	1397.26
554.84	1397.30
555.19	1397.27
555.55	1396.94
555.90	1396.41
556.26	1395.87
556.61	1395.50
556.97	1394.65
557.32	1394.61
557.68	1393.81
558.03	1392.76
558.39	1391.89
558.74	1391.36
559.10	1390.34
559.45	1389.62
559.81	1389.28
560.16	1388.48
560.52	1387.82
560.87	1387.15
561.23	1385.72
561.58	1384.84
561.94	1383.20
562.29	1381.25
562.64	1380.24
563.00	1379.35
563.35	1378.64
563.71	1378.34
564.06	1377.65
564.42	1377.20
564.77	1376.54
565.12	1376.26
565.48	1375.90
565.83	1375.26
566.19	1374.78
566.54	1373.82
566.89	1372.38
567.25	1371.50
567.60	1370.95
567.96	1370.25
568.31	1369.52
568.66	1368.65
569.02	1367.23
569.37	1365.88
569.72	1365.01
570.08	1363.42
570.43	1361.87
570.78	1360.26
571.14	1358.21
571.49	1356.33
571.84	1354.43
572.20	1352.00
572.55	1349.78
572.90	1347.09
573.26	1344.68
573.61	1341.75
573.96	1339.25
574.31	1336.66
574.67	1333.50
575.02	1330.17
575.37	1326.51
575.72	1322.76
576.08	1319.85
576.43	1316.38
576.78	1313.20
577.13	1310.25
577.49	1307.36
577.84	1304.03
578.19	1300.94
578.54	1298.28
578.90	1295.59
579.25	1292.37
579.60	1288.91
579.95	1285.11
580.30	1282.35
580.66	1279.39
581.01	1276.06
581.36	1272.43
581.71	1268.75
582.06	1265.33
582.42	1261.98
582.77	1258.28
583.12	1254.76
583.47	1251.19
583.82	1247.75
584.17	1244.05
584.53	1240.17
584.88	1236.19
585.23	1232.49
585.58	1228.61
585.93	1224.47
586.28	1220.22
586.63	1216.25
586.98	1212.89
587.34	1209.41
587.69	1205.05
588.04	1201.08
588.39	1197.12
588.74	1193.01
589.09	1189.62
589.44	1185.28
589.79	1181.76
590.14	1178.29
590.49	1174.38
590.84	1170.37
591.19	1167.07
591.54	1163.28
591.89	1158.85
592.25	1154.92
592.60	1150.68
592.95	1146.35
593.30	1141.77
593.65	1137.21
594.00	1132.76
594.35	1129.10
594.70	1124.57
595.05	1120.62
595.40	1116.16
595.75	1111.63
596.10	1107.79
596.45	1103.52
596.80	1099.73
597.15	1095.38
597.50	1090.83
597.85	1086.87
598.19	1082.60
598.54	1078.20
598.89	1074.05
599.24	1070.68
599.59	1066.44
599.94	1062.36
600.29	1058.53
600.64	1054.50
600.99	1050.47
601.34	1046.58
601.69	1041.55
602.04	1037.52
602.39	1033.05
602.74	1028.95
603.08	1025.25
603.43	1021.52
603.78	1017.28
604.13	1013.02
604.48	1009.05
604.83	1005.49
605.18	1001.62
605.53	997.50
605.87	993.03
606.22	989.22
606.57	984.70
606.92	980.42
607.27	976.16
607.62	971.70
607.96	967.72
608.31	963.89
608.66	959.71
609.01	955.44
609.36	951.06
609.70	946.57
610.05	942.01
610.40	937.56
610.75	932.60
611.10	928.57
611.44	923.90
611.79	919.23
612.14	914.48
612.49	909.57
612.83	904.95
613.18	900.43
613.53	895.45
613.88	890.75
614.22	886.13
614.57	881.59
614.92	877.15
615.27	872.55
615.61	867.94
615.96	863.44
616.31	859.16
616.65	855.07
617.00	851.10
617.35	847.10
617.70	842.55
618.04	838.06
618.39	833.15
618.74	829.02
619.08	824.49
619.43	820.07
619.78	815.90
620.12	811.83
620.47	807.77
620.82	803.53
621.16	799.05
621.51	795.00
621.85	790.76
622.20	786.47
622.55	782.16
622.89	777.80
623.24	773.51
623.59	769.02
623.93	764.75
624.28	760.68
624.62	756.71
624.97	752.79
625.32	748.82
625.66	744.94
626.01	740.88
626.35	737.10
626.70	733.00
627.04	729.12
627.39	725.16
627.73	721.36
628.08	717.65
628.43	713.94
628.77	709.94
629.12	706.05
629.46	702.53
629.81	698.92
630.15	695.19
630.50	691.56
630.84	688.01
631.19	684.27
631.53	680.55
631.88	676.57
632.22	672.84
632.57	669.54
632.91	665.90
633.26	662.44
633.60	658.75
633.95	655.49
634.29	651.96
634.64	648.57
634.98	644.88
635.32	641.58
635.67	638.59
636.01	635.44
636.36	632.17
636.70	629.00
637.05	625.73
637.39	622.84
637.73	619.86
638.08	617.05
638.42	614.27
638.77	611.35
639.11	608.39
639.45	605.45
639.80	602.05
640.14	599.01
640.49	595.90
640.83	592.90
641.17	589.92
641.52	586.86
641.86	583.70
642.20	580.84
642.55	577.73
642.89	574.60
643.23	571.55
643.58	569.00
643.92	565.89
644.26	563.05
644.61	560.04
644.95	556.80
645.29	553.64
645.64	550.57
645.98	547.54
646.32	544.60
646.66	541.59
647.01	538.92
647.35	536.25
647.69	533.37
648.04	530.77
648.38	527.89
648.72	525.16
649.06	522.48
649.41	519.71
649.75	516.89
650.09	514.28
650.43	511.60
650.78	508.54
651.12	505.69
651.46	502.92
651.80	500.28
652.14	497.96
652.49	495.45
652.83	492.75
653.17	489.97
653.51	487.28
653.85	485.00
654.20	482.57
654.54	479.96
654.88	477.36
655.22	474.88
655.56	472.27
655.90	469.70
656.25	467.13
656.59	464.56
656.93	462.23
657.27	459.85
657.61	457.33
657.95	455.04
658.29	452.74
658.64	450.63
658.98	448.22
659.32	445.59
659.66	443.29
660.00	440.95
660.34	438.71
660.68	436.45
661.02	433.93
661.36	431.60
661.70	429.43
662.05	427.39
662.39	425.37
662.73	423.49
663.07	421.72
663.41	419.74
663.75	417.76
664.09	415.73
664.43	413.45
664.77	411.51
665.11	409.50
665.45	407.58
665.79	405.52
666.13	403.60
666.47	401.77
666.81	399.86
667.15	397.99
667.49	396.28
667.83	394.63
668.17	392.95
668.51	391.33
668.85	389.74
669.19	388.18
669.53	386.19
669.87	384.40
670.21	382.53
670.55	380.89
670.89	379.47
671.23	377.87
671.57	376.48
671.91	374.93
672.25	373.27
672.58	371.80
672.92	370.16
673.26	368.71
673.60	367.21
673.94	365.75
674.28	364.37
674.62	362.90
674.96	361.41
675.30	360.10
675.64	358.54
675.97	357.12
676.31	355.71
676.65	354.44
676.99	353.28
677.33	351.85
677.67	350.46
678.01	348.91
678.34	347.56
678.68	346.22
679.02	344.84
679.36	343.70
679.70	342.38
680.04	341.15
680.37	339.82
680.71	338.58
681.05	337.32
681.39	336.09
681.73	334.96
682.06	333.82
682.40	332.59
682.74	331.47
683.08	330.33
683.42	329.02
683.75	327.90
684.09	326.54
684.43	325.46
684.77	324.35
685.10	323.23
685.44	322.15
685.78	321.00
686.12	320.00
686.45	318.87
686.79	317.76
687.13	316.81
687.46	315.83
687.80	314.79
688.14	313.77
688.48	312.71
688.81	311.56
689.15	310.59
689.49	309.53
689.82	308.56
690.16	307.31
690.50	306.26
690.83	305.13
691.17	304.08
691.51	303.07
691.84	302.02
692.18	301.07
692.52	300.13
692.85	299.26
693.19	298.37
693.52	297.47
693.86	296.45
694.20	295.40
694.53	294.45
694.87	293.49
695.21	292.60
695.54	291.67
695.88	290.80
696.21	289.78
696.55	288.94
696.88	288.00
697.22	287.19
697.56	286.47
697.89	285.70
698.23	284.94
698.56	284.05
698.90	283.31
699.23	282.50
699.57	281.66
699.90	280.65
700.24	279.80
700.58	279.03
700.91	278.40
701.25	277.96
701.58	277.33
701.92	276.74
702.25	275.90
702.59	275.21
702.92	274.47
703.26	273.74
703.59	273.01
703.93	272.65
704.26	272.07
704.60	271.42
704.93	270.69
705.26	269.98
705.60	269.43
705.93	268.72
706.27	268.12
706.60	267.60
706.94	267.28
707.27	266.65
707.61	266.03
707.94	265.44
708.27	264.56
708.61	263.79
708.94	263.12
709.28	262.60
709.61	262.02
709.94	261.50
710.28	261.05
710.61	260.55
710.95	259.70
711.28	259.35
711.61	258.77
711.95	258.41
712.28	257.98
712.61	257.54
712.95	257.28
713.28	256.98
713.61	256.45
713.95	255.86
714.28	255.40
714.61	254.95
714.95	254.46
715.28	253.92
715.61	253.52
715.95	253.09
716.28	252.56
716.61	252.14
716.95	251.65
717.28	251.24
717.61	250.80
717.94	250.48
718.28	249.78
718.61	249.43
718.94	248.88
719.27	248.48
719.61	248.04
719.94	247.49
720.27	246.89
720.60	246.51
720.94	246.11
721.27	245.76
721.60	245.47
721.93	245.14
722.27	244.99
722.60	244.80
722.93	244.51
723.26	244.21
723.59	243.86
723.93	243.56
724.26	243.20
724.59	242.90
724.92	242.54
725.25	242.45
725.59	242.11
725.92	241.90
726.25	241.58
726.58	241.27
726.91	240.98
727.24	240.80
727.57	240.52
727.91	240.18
728.24	239.97
728.57	239.66
728.90	239.43
729.23	239.12
729.56	238.95
729.89	238.61
730.22	238.43
730.55	238.11
730.89	237.91
731.22	237.63
731.55	237.33
731.88	237.05
732.21	236.63
732.54	236.33
732.87	236.01
733.20	235.79
733.53	235.56
733.86	235.45
734.19	235.06
734.52	234.88
734.85	234.94
735.18	234.62
735.51	234.46
735.84	234.25
736.17	234.03
736.50	233.59
736.83	233.74
737.16	233.44
737.49	233.30
737.82	233.00
738.15	232.80
738.48	232.61
738.81	232.42
739.14	232.22
739.47	232.02
739.80	231.78
740.13	231.57
740.46	231.32
740.79	230.90
741.12	230.77
741.45	230.53
741.78	229.97
742.11	229.93
742.44	229.59
742.77	229.38
743.10	229.11
743.43	228.89
743.75	228.34
744.08	228.62
744.41	228.31
744.74	228.15
745.07	227.94
745.40	227.76
745.73	227.69
746.06	227.50
746.39	227.35
746.71	227.16
747.04	226.97
747.37	226.78
747.70	226.78
748.03	226.65
748.36	226.51
748.68	226.48
749.01	226.23
749.34	226.04
749.67	225.95
750.00	225.85
750.33	225.97
750.65	225.90
750.98	225.35
751.31	225.28
751.64	225.21
751.97	225.31
752.29	225.23
752.62	224.96
752.95	224.81
753.28	224.66
753.60	224.55
753.93	224.47
754.26	224.39
754.59	224.21
754.91	224.01
755.24	223.86
755.57	223.70
755.90	223.54
756.22	223.49
756.55	223.25
756.88	223.10
757.20	222.69
757.53	222.50
757.86	222.31
758.19	222.25
758.51	222.05
758.84	221.76
759.17	221.57
759.49	221.50
759.82	221.57
760.15	221.50
760.47	221.40
760.80	221.19
761.13	221.08
761.45	220.87
761.78	220.82
762.11	220.75
762.43	220.62
762.76	220.55
763.08	220.50
763.41	220.43
763.74	220.30
764.06	220.23
764.39	220.17
764.71	220.13
765.04	219.99
765.37	219.89
765.69	219.74
766.02	219.60
766.34	219.47
766.67	219.26
767.00	219.25
767.32	219.37
767.65	219.54
767.97	219.45
768.30	219.41
768.62	219.27
768.95	219.08
769.27	219.05
769.60	219.04
769.92	218.95
770.25	218.84
770.57	218.77
770.90	218.73
771.22	218.53
771.55	218.52
771.87	218.47
772.20	218.38
772.52	218.68
772.85	219.03
773.17	218.91
773.50	218.81
773.82	218.57
774.15	218.34
774.47	218.10
774.80	218.02
775.12	217.95
775.45	217.93
775.77	217.93
776.09	217.81
776.42	217.73
776.74	217.72
777.07	217.55
777.39	217.49
777.72	217.39
778.04	217.45
778.36	217.31
778.69	217.32
779.01	217.32
779.33	216.89
779.66	216.50
779.98	216.49
780.31	216.47
780.63	216.59
780.95	216.55
781.28	216.37
781.60	216.30
781.92	216.30
782.25	216.21
782.57	216.19
782.89	216.11
783.22	216.01
783.54	215.81
783.86	215.89
784.19	215.83
784.51	215.94
784.83	215.79
785.16	215.74
785.48	215.68
785.80	215.71
786.12	215.73
786.45	215.69
786.77	215.72
787.09	215.62
787.42	215.44
787.74	215.44
788.06	215.43
788.38	215.34
788.71	215.23
789.03	215.23
789.35	215.23
789.67	215.25
789.99	215.17
790.32	215.15
790.64	215.15
790.96	215.43
791.28	215.20
791.61	215.17
791.93	215.16
792.25	215.05
792.57	215.15
792.89	215.01
793.21	214.96
793.54	214.90
793.86	214.84
794.18	214.86
794.50	214.78
794.82	214.80
795.14	214.87
795.47	214.92
795.79	214.89
796.11	214.75
796.43	214.63
796.75	214.60
797.07	214.57
797.39	214.51
797.71	214.24
798.04	214.29
798.36	214.30
798.68	214.22
799.00	214.22
799.32	214.11
799.64	214.17
799.96	214.13
800.28	214.15
800.60	214.16
800.92	214.13
801.24	214.06
801.56	214.05
801.89	214.00
802.21	213.94
802.53	213.85
802.85	213.87
803.17	214.10
803.49	214.05
803.81	213.96
804.13	213.85
804.45	213.80
804.77	213.85
805.09	213.87
805.41	213.84
805.73	213.74
806.05	213.58
806.37	213.55
806.69	213.52
807.01	213.44
807.33	213.39
807.65	213.23
807.97	213.44
808.28	213.39
808.60	213.36
808.92	213.42
809.24	213.64
809.56	213.55
809.88	213.42
810.20	213.42
810.52	213.51
810.84	213.56
811.16	213.41
811.48	213.35
811.80	213.40
812.12	213.34
812.43	213.48
812.75	213.43
813.07	213.38
813.39	213.40
813.71	213.32
814.03	213.29
814.35	213.35
814.67	213.12
814.98	213.12
815.30	213.01
815.62	212.87
815.94	212.67
816.26	212.69
816.58	212.56
816.89	212.64
817.21	212.61
817.53	212.51
817.85	212.58
818.17	212.59
818.48	212.51
818.80	212.61
819.12	212.49
819.44	212.48
819.76	212.44
820.07	212.36
820.39	212.37
820.71	212.40
821.03	212.35
821.34	212.37
821.66	212.34
821.98	212.41
822.30	212.39
822.61	212.59
822.93	212.62
823.25	212.64
823.57	212.49
823.88	212.58
824.20	212.62
824.52	212.64
824.83	212.57
825.15	212.41
825.47	212.33
825.79	212.40
826.10	212.40
826.42	212.40
826.74	212.46
827.05	212.46
827.37	212.50
827.69	212.55
828.00	212.50
828.32	212.47
828.64	212.44
828.95	212.65
829.27	212.45
829.58	212.38
829.90	212.43
830.22	212.43
830.53	212.28
830.85	212.28
831.17	212.19
831.48	212.21
831.80	212.27
832.11	212.26
832.43	212.17
832.75	212.09
833.06	212.27
833.38	212.16
833.69	212.13
834.01	212.07
834.32	212.00
834.64	212.09
834.96	212.13
835.27	212.14
835.59	212.04
835.90	212.01
836.22	212.03
836.53	211.97
836.85	212.03
837.16	212.37
837.48	212.34
837.79	212.45
838.11	212.41
838.42	212.37
838.74	212.45
839.05	212.37
839.37	212.38
839.68	212.14
840.00	212.13
840.31	212.14
840.63	212.13
840.94	212.14
841.26	211.98
841.57	211.90
841.88	211.95
842.20	211.90
842.51	211.85
842.83	211.84
843.14	212.11
843.46	212.00
843.77	211.78
844.08	211.77
844.40	211.70
844.71	211.69
845.03	211.69
845.34	211.64
845.65	211.69
845.97	211.74
846.28	211.83
846.60	211.88
846.91	211.84
847.22	211.85
847.54	211.83
847.85	211.89
848.16	211.86
848.48	211.69
848.79	211.79
849.10	211.84
849.42	211.78
849.73	211.50
850.04	211.51
850.36	211.43
850.67	211.44
850.98	211.40
851.30	211.42
851.61	211.42
851.92	211.47
852.23	211.60
852.55	211.59
852.86	211.57
853.17	211.63
853.49	211.69
853.80	211.74
854.11	211.80
854.42	211.85
854.74	211.90
855.05	211.90
855.36	211.73
855.67	211.79
855.99	211.85
856.30	212.27
856.61	212.23
856.92	212.16
857.23	212.14
857.55	212.06
857.86	212.02
858.17	212.05
858.48	211.95
858.79	211.85
859.11	211.94
859.42	211.83
859.73	211.74
860.04	211.79
860.35	211.69
860.66	211.68
860.98	211.72
861.29	211.69
861.60	211.70
861.91	211.80
862.22	211.75
862.53	211.67
862.84	211.30
863.16	211.43
863.47	211.44
863.78	211.44
864.09	211.52
864.40	211.55
864.71	211.59
865.02	211.63
865.33	211.55
865.64	211.45
865.95	211.52
866.27	211.70
866.58	211.65
866.89	211.70
867.20	211.62
867.51	211.48
867.82	211.54
868.13	211.66
868.44	211.57
868.75	211.59
869.06	211.63
869.37	211.62
869.68	211.52
869.99	211.53
870.30	211.52
870.61	211.56
870.92	211.60
871.23	211.49
871.54	211.56
871.85	211.61
872.16	211.64
872.47	211.63
872.78	211.46
873.09	211.44
873.40	211.43
873.71	211.43
874.02	211.47
874.33	211.44
874.64	211.43
874.95	211.50
875.26	211.43
875.56	211.45
875.87	211.40
876.18	211.38
876.49	211.71
876.80	211.79
877.11	211.75
877.42	211.75
877.73	211.85
878.04	211.76
878.35	211.79
878.66	211.81
878.96	211.80
879.27	211.77
879.58	211.76
879.89	211.76
880.20	211.86
880.51	211.80
880.82	211.78
881.12	211.74
881.43	211.66
881.74	211.60
882.05	211.60
882.36	211.63
882.67	211.70
882.97	211.39
883.28	211.35
883.59	211.30
883.90	211.28
884.21	211.21
884.51	211.17
884.82	211.11
885.13	211.14
885.44	211.13
885.74	211.15
886.05	211.18
886.36	211.12
886.67	211.05
886.98	211.30
887.28	211.36
887.59	211.37
887.90	211.37
888.20	211.39
888.51	211.46
888.82	211.48
889.13	211.57
889.43	211.81
889.74	211.75
890.05	211.75
890.35	211.79
890.66	211.86
890.97	211.86
891.28	211.82
891.58	211.82
891.89	211.86
892.20	211.84
892.50	211.79
892.81	211.80
893.12	211.79
893.42	211.55
893.73	211.60
894.04	211.56
894.34	211.61
894.65	211.56
894.95	211.42
895.26	211.37
895.57	211.38
895.87	211.11
896.18	211.15
896.48	211.18
896.79	211.14
897.10	211.11
897.40	211.15
897.71	211.23
898.01	211.12
898.32	211.12
898.63	211.14
898.93	211.12
899.24	211.16
899.54	211.10
899.85	211.12
900.15	211.10
900.46	211.11
900.76	211.21
901.07	211.29
901.38	211.33
901.68	211.37
901.99	211.31
902.29	211.36
902.60	211.40
902.90	211.34
903.21	211.31
903.51	211.30
903.82	211.36
904.12	211.35
904.43	211.36
904.73	211.38
905.03	211.35
905.34	211.75
905.64	211.75
905.95	211.80
906.25	211.89
906.56	211.81
906.86	211.85
907.17	211.71
907.47	211.72
907.77	211.75
908.08	211.69
908.38	211.65
908.69	211.66
908.99	211.72
909.30	211.77
909.60	211.75
909.90	211.71
910.21	211.66
910.51	211.57
910.81	211.68
911.12	211.64
911.42	211.63
911.73	211.26
912.03	211.27
912.33	211.32
912.64	211.27
912.94	211.28
913.24	211.19
913.55	211.17
913.85	211.16
914.15	211.22
914.46	211.29
914.76	211.30
915.06	211.32
915.37	211.22
915.67	211.21
915.97	211.30
916.27	211.24
916.58	211.28
916.88	211.25
917.18	211.23
917.49	211.44
917.79	211.47
918.09	211.59
918.39	211.66
918.70	211.67
919.00	211.63
919.30	211.82
919.60	211.80
919.91	211.77
920.21	211.81
920.51	211.69
920.81	211.69
921.12	211.72
921.42	211.62
921.72	211.68
922.02	211.73
922.32	211.73
922.63	211.81
922.93	211.90
923.23	211.98
923.53	211.89
923.83	211.74
924.13	211.72
924.44	211.60
924.74	211.59
925.04	211.66
925.34	211.68
925.64	211.61
925.94	211.60
926.24	211.83
926.55	211.82
926.85	211.93
927.15	211.91
927.45	211.86
927.75	211.85
928.05	211.85
928.35	211.79
928.65	211.84
928.95	211.93
929.26	211.86
929.56	211.92
929.86	212.03
930.16	212.00
930.46	212.02
930.76	212.13
931.06	212.04
931.36	211.94
931.66	212.04
931.96	211.99
932.26	212.10
932.56	211.95
932.86	211.95
933.16	211.89
933.46	211.84
933.76	211.86
934.06	211.96
934.36	212.09
934.66	212.12
934.96	212.02
935.26	212.00
935.56	211.96
935.86	211.86
936.16	211.79
936.46	211.77
936.76	211.77
937.06	211.70
937.36	211.68
937.66	211.70
937.96	211.64
938.26	211.60
938.56	211.57
938.86	211.52
939.16	211.59
939.46	211.65
939.76	211.68
940.06	211.56
940.35	211.53
940.65	211.32
940.95	211.30
941.25	211.24
941.55	211.19
941.85	211.22
942.15	211.32
942.45	211.35
942.75	211.27
943.04	211.26
943.34	211.28
943.64	211.25
943.94	211.14
944.24	211.11
944.54	210.98
944.84	211.02
945.13	211.04
945.43	211.03
945.73	211.02
946.03	210.98
946.33	211.01
946.62	210.97
946.92	210.90
947.22	210.96
947.52	210.96
947.82	210.97
948.11	210.87
948.41	210.75
948.71	210.71
949.01	210.76
949.31	210.71
949.60	210.70
949.90	210.80
950.20	210.80
950.50	210.79
950.79	210.85
951.09	210.80
951.39	210.78
951.69	210.67
951.98	210.73
952.28	210.77
952.58	210.76
952.87	210.72
953.17	210.82
953.47	210.80
953.76	210.81
954.06	210.77
954.36	210.79
954.66	210.79
954.95	210.83
955.25	210.81
955.55	210.82
955.84	210.84
956.14	210.85
956.44	210.87
956.73	210.80
957.03	210.79
957.32	210.74
957.62	210.74
957.92	210.83
958.21	210.75
958.51	211.11
958.81	211.17
959.10	211.22
959.40	211.28
959.69	211.29
959.99	211.34
960.29	211.31
960.58	211.29
960.88	211.43
961.17	211.43
961.47	211.51
961.76	211.55
962.06	211.57
962.36	211.42
962.65	211.50
962.95	211.56
963.24	211.53
963.54	211.61
963.83	211.55
964.13	211.52
964.42	211.40
964.72	211.09
965.01	211.13
965.31	211.15
965.60	211.13
965.90	211.32
966.19	211.28
966.49	211.37
966.78	211.36
967.08	211.38
967.37	211.34
967.67	211.28
967.96	211.32
968.26	211.27
968.55	211.47
968.85	211.43
969.14	211.42
969.43	211.51
969.73	211.49
970.02	211.57
970.32	211.48
970.61	211.56
970.91	211.53
971.20	211.45
971.49	211.44
971.79	211.47
972.08	211.25
972.38	211.24
972.67	211.18
972.96	211.21
973.26	211.12
973.55	211.25
973.85	211.20
974.14	211.17
974.43	211.21
974.73	211.11
975.02	211.14
975.31	211.15
975.61	211.12
975.90	211.02
976.19	210.95
976.49	211.02
976.78	211.05
977.07	211.00
977.37	211.02
977.66	211.02
977.95	210.91
978.24	210.87
978.54	211.03
978.83	210.99
979.12	211.03
979.42	211.07
979.71	211.02
980.00	211.00
980.29	210.99
980.59	210.89
980.88	210.99
981.17	210.96
981.46	210.95
981.76	210.92
982.05	211.08
982.34	211.17
982.63	211.16
982.93	211.10
983.22	211.20
983.51	211.28
983.80	211.30
984.09	211.40
984.39	211.45
984.68	211.37
984.97	211.44
985.26	211.35
985.55	211.34
985.85	211.26
986.14	211.42
986.43	211.47
986.72	211.41
987.01	211.25
987.30	211.22
987.59	211.15
987.89	211.23
988.18	211.14
988.47	211.05
988.76	211.08
989.05	211.12
989.34	211.06
989.63	211.08
989.92	211.01
990.22	210.92
990.51	210.88
990.80	210.80
991.09	210.81
991.38	210.88
991.67	210.83
991.96	210.77
992.25	210.69
992.54	210.64
992.83	210.74
993.12	210.78
993.41	210.86
993.70	211.06
993.99	211.02
994.28	211.01
994.58	211.05
994.87	210.97
995.16	210.93
995.45	210.93
995.74	210.84
996.03	210.91
996.32	210.94
996.61	211.00
996.90	211.02
997.19	210.98
997.48	210.95
997.77	210.97
998.06	211.08
998.34	211.03
998.63	211.00
998.92	210.98
999.21	211.03
999.50	211.03
999.79	210.89
1000.08	210.87
1000.37	210.89
1000.66	210.88
1000.95	211.01
1001.24	211.01
1001.53	211.00
1001.82	211.01
1002.11	210.95
1002.40	211.04
1002.68	211.07
1002.97	211.29
1003.26	211.21
1003.55	211.26
1003.84	211.30
1004.13	211.36
1004.42	211.31
1004.71	211.35
1004.99	211.36
1005.28	211.43
1005.57	211.39
1005.86	211.38
1006.15	211.33
1006.44	211.24
1006.72	211.24
1007.01	211.13
1007.30	211.10
1007.59	211.13
1007.88	211.08
1008.17	211.11
1008.45	211.01
1008.74	210.90
1009.03	210.72
1009.32	210.78
1009.60	210.62
1009.89	210.59
1010.18	210.47
1010.47	210.50
1010.76	210.47
1011.04	210.48
1011.33	210.52
1011.62	210.50
1011.91	210.52
1012.19	210.64
1012.48	210.69
1012.77	210.70
1013.05	210.81
1013.34	210.85
1013.63	210.83
1013.92	210.79
1014.20	210.75
1014.49	210.77
1014.78	210.77
1015.06	210.70
1015.35	210.72
1015.64	210.87
1015.92	210.88
1016.21	210.92
1016.50	210.89
1016.78	210.91
1017.07	210.91
1017.36	210.82
1017.64	210.78
1017.93	210.74
1018.22	210.69
1018.50	210.70
1018.79	210.77
1019.08	210.71
1019.36	210.78
1019.65	210.77
1019.93	210.93
1020.22	210.95
1020.51	211.21
1020.79	211.20
1021.08	210.60
1021.36	210.55
1021.65	211.80
1021.94	211.70
1022.22	212.25
1022.51	211.05
1022.79	212.30
1023.08	210.95
1023.36	216.60
1023.65	209.75
>>>>>End Processed Spectral Data<<<<<
