SpectraSuite Data File
++++++++++++++++++++++++++++++++++++
Date: Mon Feb 25 17:03:08 EST 2013
User: group
Dark Spectrum Present: No
Reference Spectrum Present: No
Number of Sampled Component Spectra: 1
Spectrometers: USB2E7196
Integration Time (usec): 104000 (USB2E7196)
Spectra Averaged: 20 (USB2E7196)
Boxcar Smoothing: 10 (USB2E7196)
Correct for Electrical Dark: No (USB2E7196)
Strobe/Lamp Enabled: No (USB2E7196)
Correct for Detector Non-linearity: No (USB2E7196)
Correct for Stray Light: No (USB2E7196)
Number of Pixels in Processed Spectrum: 2048
>>>>>Begin Processed Spectral Data<<<<<
339.09	0.00
339.48	197.90
339.86	200.10
340.24	200.30
340.63	202.90
341.01	209.95
341.39	204.50
341.78	206.65
342.16	207.75
342.54	208.55
342.93	198.07
343.31	208.05
343.69	208.57
344.07	209.01
344.46	209.50
344.84	209.86
345.22	209.83
345.60	210.11
345.99	210.27
346.37	210.31
346.75	210.33
347.13	210.37
347.52	210.38
347.90	210.50
348.28	210.47
348.66	210.58
349.05	210.42
349.43	210.52
349.81	210.54
350.19	210.47
350.57	210.56
350.96	210.56
351.34	210.65
351.72	210.78
352.10	210.89
352.48	210.91
352.87	210.96
353.25	211.04
353.63	211.05
354.01	211.11
354.39	211.29
354.77	211.39
355.15	211.46
355.54	211.48
355.92	211.41
356.30	211.45
356.68	211.69
357.06	211.77
357.44	211.77
357.82	211.77
358.20	211.87
358.58	211.86
358.97	211.97
359.35	212.04
359.73	212.11
360.11	212.17
360.49	212.20
360.87	212.30
361.25	212.49
361.63	212.68
362.01	212.75
362.39	212.78
362.77	212.89
363.15	212.94
363.53	213.03
363.91	213.11
364.29	213.14
364.67	212.80
365.05	212.85
365.43	212.86
365.81	212.93
366.19	213.10
366.57	213.26
366.95	213.16
367.33	213.09
367.71	213.11
368.09	213.16
368.47	213.19
368.85	213.11
369.23	213.06
369.61	212.93
369.99	213.02
370.37	213.06
370.75	213.17
371.13	213.10
371.51	213.02
371.89	213.03
372.27	213.04
372.65	213.12
373.03	213.09
373.41	213.11
373.78	213.13
374.16	212.89
374.54	212.80
374.92	212.71
375.30	212.68
375.68	212.50
376.06	212.43
376.44	212.40
376.82	212.43
377.19	212.39
377.57	212.36
377.95	212.23
378.33	212.11
378.71	211.86
379.09	211.84
379.47	211.85
379.84	211.71
380.22	211.67
380.60	211.57
380.98	211.47
381.36	211.40
381.73	211.31
382.11	211.35
382.49	211.29
382.87	211.27
383.25	211.26
383.62	211.68
384.00	211.59
384.38	211.46
384.76	211.46
385.13	211.52
385.51	211.43
385.89	211.33
386.27	211.29
386.64	211.33
387.02	211.31
387.40	211.26
387.78	211.25
388.15	211.20
388.53	211.09
388.91	211.08
389.29	211.02
389.66	210.97
390.04	210.86
390.42	210.94
390.79	211.02
391.17	211.00
391.55	210.60
391.92	210.63
392.30	210.71
392.68	210.60
393.05	210.53
393.43	210.55
393.81	210.59
394.18	210.49
394.56	210.46
394.94	210.53
395.31	210.41
395.69	210.52
396.06	210.65
396.44	210.70
396.82	210.70
397.19	210.85
397.57	210.84
397.95	210.96
398.32	210.85
398.70	210.85
399.07	210.97
399.45	210.95
399.82	210.95
400.20	210.89
400.58	210.91
400.95	210.77
401.33	210.89
401.70	211.10
402.08	211.16
402.45	211.19
402.83	211.28
403.20	211.43
403.58	211.49
403.95	211.52
404.33	211.67
404.71	211.75
405.08	212.10
405.46	212.22
405.83	212.26
406.21	212.44
406.58	212.60
406.96	212.71
407.33	212.94
407.70	213.11
408.08	213.66
408.45	213.97
408.83	214.39
409.20	214.58
409.58	214.72
409.95	215.15
410.33	215.52
410.70	215.71
411.08	216.13
411.45	216.57
411.82	216.94
412.20	217.38
412.57	218.12
412.95	218.27
413.32	218.91
413.69	219.59
414.07	220.14
414.44	220.84
414.82	221.58
415.19	222.48
415.56	223.40
415.94	224.12
416.31	225.17
416.68	226.13
417.06	227.38
417.43	228.58
417.81	229.83
418.18	231.16
418.55	232.61
418.93	234.08
419.30	235.66
419.67	237.43
420.04	239.23
420.42	240.82
420.79	243.14
421.16	245.22
421.54	247.53
421.91	249.93
422.28	252.24
422.66	254.73
423.03	257.30
423.40	259.74
423.77	262.40
424.15	265.13
424.52	268.01
424.89	271.05
425.26	274.02
425.64	276.97
426.01	280.13
426.38	283.40
426.75	286.82
427.13	290.29
427.50	293.94
427.87	297.76
428.24	301.83
428.61	305.39
428.99	309.59
429.36	313.81
429.73	318.19
430.10	322.64
430.47	327.11
430.85	331.59
431.22	336.55
431.59	342.08
431.96	347.06
432.33	352.61
432.70	358.07
433.08	364.46
433.45	370.45
433.82	376.56
434.19	383.35
434.56	389.99
434.93	396.38
435.30	402.73
435.68	409.83
436.05	416.59
436.42	423.51
436.79	429.82
437.16	436.80
437.53	444.05
437.90	451.20
438.27	458.41
438.64	465.77
439.01	472.73
439.38	478.68
439.75	484.81
440.13	491.75
440.50	498.30
440.87	503.76
441.24	509.39
441.61	515.45
441.98	520.09
442.35	525.31
442.72	530.68
443.09	535.94
443.46	539.10
443.83	541.70
444.20	543.82
444.57	546.78
444.94	548.36
445.31	549.98
445.68	551.86
446.05	552.80
446.42	552.69
446.79	552.36
447.16	551.92
447.53	551.71
447.90	549.52
448.27	547.25
448.64	543.90
449.01	541.57
449.37	537.35
449.74	533.23
450.11	528.38
450.48	522.80
450.85	517.05
451.22	512.24
451.59	507.62
451.96	503.23
452.33	497.17
452.70	491.65
453.07	484.97
453.43	477.88
453.80	471.27
454.17	464.98
454.54	459.03
454.91	452.73
455.28	446.57
455.65	440.78
456.02	435.23
456.38	430.31
456.75	424.17
457.12	418.93
457.49	413.81
457.86	408.73
458.23	404.54
458.59	399.90
458.96	395.30
459.33	390.95
459.70	386.66
460.07	383.29
460.43	379.52
460.80	376.05
461.17	372.93
461.54	369.63
461.91	366.47
462.27	363.30
462.64	360.47
463.01	357.35
463.38	354.48
463.74	351.21
464.11	348.57
464.48	346.30
464.85	343.90
465.21	342.05
465.58	339.96
465.95	337.41
466.32	335.35
466.68	333.23
467.05	331.15
467.42	329.22
467.78	327.07
468.15	324.99
468.52	323.44
468.88	321.49
469.25	319.73
469.62	318.39
469.98	316.78
470.35	315.27
470.72	313.93
471.08	312.31
471.45	311.15
471.82	309.87
472.18	308.47
472.55	307.35
472.92	306.04
473.28	304.98
473.65	303.98
474.02	302.94
474.38	302.07
474.75	301.36
475.11	300.57
475.48	299.81
475.85	299.22
476.21	298.57
476.58	298.14
476.94	297.80
477.31	297.23
477.67	296.75
478.04	296.45
478.41	296.11
478.77	296.26
479.14	295.90
479.50	295.74
479.87	295.66
480.23	295.51
480.60	295.32
480.96	295.17
481.33	295.29
481.69	295.27
482.06	295.24
482.42	295.24
482.79	295.23
483.15	295.42
483.52	295.64
483.88	295.74
484.25	295.92
484.61	296.07
484.98	296.28
485.34	296.75
485.71	297.17
486.07	297.58
486.44	297.61
486.80	298.08
487.17	298.55
487.53	299.32
487.90	299.99
488.26	300.82
488.62	301.70
488.99	302.45
489.35	303.25
489.72	304.16
490.08	305.06
490.44	305.89
490.81	306.90
491.17	307.80
491.54	308.99
491.90	310.09
492.26	311.30
492.63	312.49
492.99	313.58
493.36	314.80
493.72	316.22
494.08	317.55
494.45	318.87
494.81	320.36
495.17	321.62
495.54	323.21
495.90	324.68
496.26	326.07
496.63	327.39
496.99	328.97
497.35	330.56
497.72	332.17
498.08	333.83
498.44	335.43
498.80	337.20
499.17	338.80
499.53	340.33
499.89	341.87
500.26	343.44
500.62	345.00
500.98	346.66
501.34	348.10
501.71	349.73
502.07	351.32
502.43	352.76
502.79	354.13
503.16	355.37
503.52	356.83
503.88	358.06
504.24	359.61
504.60	360.97
504.97	362.29
505.33	363.42
505.69	364.80
506.05	366.04
506.41	367.10
506.78	368.03
507.14	369.10
507.50	370.15
507.86	371.14
508.22	372.21
508.59	372.96
508.95	373.75
509.31	374.61
509.67	375.35
510.03	376.06
510.39	376.81
510.75	377.49
511.12	377.94
511.48	378.56
511.84	378.89
512.20	379.21
512.56	379.54
512.92	380.01
513.28	380.21
513.64	380.44
514.00	380.74
514.37	381.03
514.73	381.41
515.09	381.58
515.45	381.65
515.81	381.69
516.17	381.73
516.53	381.80
516.89	381.55
517.25	381.43
517.61	381.45
517.97	381.34
518.33	381.21
518.69	381.19
519.05	381.14
519.41	381.17
519.77	381.27
520.13	381.09
520.49	380.88
520.85	380.66
521.21	380.65
521.57	380.47
521.93	380.35
522.29	380.19
522.65	380.03
523.01	380.00
523.37	379.80
523.73	379.81
524.09	379.78
524.45	379.86
524.81	380.09
525.17	380.23
525.53	380.48
525.89	380.76
526.25	381.05
526.61	381.32
526.97	381.60
527.33	381.92
527.68	382.62
528.04	383.23
528.40	383.69
528.76	384.15
529.12	384.74
529.48	385.53
529.84	386.15
530.20	387.07
530.56	388.03
530.91	389.13
531.27	390.15
531.63	391.16
531.99	392.25
532.35	393.36
532.71	394.35
533.07	395.57
533.42	397.20
533.78	398.35
534.14	399.65
534.50	400.92
534.86	402.47
535.21	403.74
535.57	405.26
535.93	406.96
536.29	408.81
536.65	410.66
537.00	412.27
537.36	414.02
537.72	415.68
538.08	417.50
538.44	419.35
538.79	421.25
539.15	423.22
539.51	425.30
539.87	427.32
540.22	429.65
540.58	431.95
540.94	433.95
541.29	436.28
541.65	438.49
542.01	440.89
542.37	443.31
542.72	445.77
543.08	448.25
543.44	450.91
543.79	453.09
544.15	455.59
544.51	458.31
544.87	460.96
545.22	463.76
545.58	466.35
545.94	468.83
546.29	471.49
546.65	474.26
547.01	476.88
547.36	479.74
547.72	482.41
548.07	485.08
548.43	487.67
548.79	490.44
549.14	493.27
549.50	496.00
549.86	498.50
550.21	501.25
550.57	503.89
550.92	506.55
551.28	509.35
551.64	511.97
551.99	514.69
552.35	517.25
552.70	519.62
553.06	522.34
553.41	525.02
553.77	527.82
554.13	530.42
554.48	533.19
554.84	535.65
555.19	538.15
555.55	540.90
555.90	543.44
556.26	545.86
556.61	548.24
556.97	550.65
557.32	553.13
557.68	555.40
558.03	557.82
558.39	559.92
558.74	562.31
559.10	564.73
559.45	567.16
559.81	569.78
560.16	572.23
560.52	574.51
560.87	577.04
561.23	579.17
561.58	581.63
561.94	583.76
562.29	585.80
562.64	588.03
563.00	590.02
563.35	592.18
563.71	594.51
564.06	596.79
564.42	598.93
564.77	601.03
565.12	603.25
565.48	605.59
565.83	607.81
566.19	609.87
566.54	611.77
566.89	613.56
567.25	615.50
567.60	617.58
567.96	619.48
568.31	621.31
568.66	623.06
569.02	624.33
569.37	625.73
569.72	627.40
570.08	628.82
570.43	630.04
570.78	631.31
571.14	632.37
571.49	633.39
571.84	634.48
572.20	635.38
572.55	636.23
572.90	636.67
573.26	637.31
573.61	637.93
573.96	638.55
574.31	638.92
574.67	639.04
575.02	639.27
575.37	639.54
575.72	639.42
576.08	639.75
576.43	640.12
576.78	640.44
577.13	640.84
577.49	641.13
577.84	641.42
578.19	641.81
578.54	642.19
578.90	642.66
579.25	642.84
579.60	643.16
579.95	643.29
580.30	643.67
580.66	644.10
581.01	644.17
581.36	644.07
581.71	644.24
582.06	644.48
582.42	644.58
582.77	644.41
583.12	644.50
583.47	644.38
583.82	644.23
584.17	644.18
584.53	644.33
584.88	644.10
585.23	644.00
585.58	643.52
585.93	643.15
586.28	642.91
586.63	642.65
586.98	642.28
587.34	642.15
587.69	641.70
588.04	641.24
588.39	641.05
588.74	640.80
589.09	640.55
589.44	640.08
589.79	639.64
590.14	639.36
590.49	638.95
590.84	638.48
591.19	638.21
591.54	637.81
591.89	636.61
592.25	636.27
592.60	635.37
592.95	634.66
593.30	633.91
593.65	632.98
594.00	632.21
594.35	632.37
594.70	631.48
595.05	630.60
595.40	629.81
595.75	628.58
596.10	627.82
596.45	626.99
596.80	626.26
597.15	625.38
597.50	624.54
597.85	623.89
598.19	622.87
598.54	621.99
598.89	620.99
599.24	620.55
599.59	619.50
599.94	618.95
600.29	618.21
600.64	617.27
600.99	616.20
601.34	615.36
601.69	613.52
602.04	612.24
602.39	611.25
602.74	610.32
603.08	609.79
603.43	609.02
603.78	607.94
604.13	607.08
604.48	606.31
604.83	605.54
605.18	604.59
605.53	603.72
605.87	602.84
606.22	602.02
606.57	600.89
606.92	599.84
607.27	598.75
607.62	597.72
607.96	596.95
608.31	596.31
608.66	595.30
609.01	594.11
609.36	593.34
609.70	592.33
610.05	590.98
610.40	589.74
610.75	588.36
611.10	587.40
611.44	585.77
611.79	584.26
612.14	582.65
612.49	581.12
612.83	579.80
613.18	578.16
613.53	576.55
613.88	574.92
614.22	573.38
614.57	571.80
614.92	570.31
615.27	568.67
615.61	566.93
615.96	565.37
616.31	563.98
616.65	562.69
617.00	561.12
617.35	559.58
617.70	557.79
618.04	556.09
618.39	554.14
618.74	552.56
619.08	550.88
619.43	549.36
619.78	547.80
620.12	546.15
620.47	544.65
620.82	542.95
621.16	541.15
621.51	539.64
621.85	537.95
622.20	536.21
622.55	534.46
622.89	532.61
623.24	530.88
623.59	529.02
623.93	527.12
624.28	525.45
624.62	524.20
624.97	522.86
625.32	521.31
625.66	519.72
626.01	518.11
626.35	516.67
626.70	514.95
627.04	513.36
627.39	511.77
627.73	510.18
628.08	508.70
628.43	507.08
628.77	505.43
629.12	503.70
629.46	502.15
629.81	500.46
630.15	498.95
630.50	497.25
630.84	495.72
631.19	494.05
631.53	492.48
631.88	490.49
632.22	488.54
632.57	487.01
632.91	485.43
633.26	483.79
633.60	482.12
633.95	480.65
634.29	478.90
634.64	477.31
634.98	475.50
635.32	473.98
635.67	472.69
636.01	471.14
636.36	469.55
636.70	468.18
637.05	466.75
637.39	465.28
637.73	463.93
638.08	462.70
638.42	461.33
638.77	459.95
639.11	458.55
639.45	457.24
639.80	455.52
640.14	454.07
640.49	452.55
640.83	450.91
641.17	449.38
641.52	447.90
641.86	446.30
642.20	444.99
642.55	443.28
642.89	441.67
643.23	440.08
643.58	438.81
643.92	437.12
644.26	435.55
644.61	434.02
644.95	432.29
645.29	430.60
645.64	428.96
645.98	427.30
646.32	425.73
646.66	423.97
647.01	422.46
647.35	420.84
647.69	419.34
648.04	417.99
648.38	416.45
648.72	414.96
649.06	413.47
649.41	411.80
649.75	410.18
650.09	408.68
650.43	407.12
650.78	405.50
651.12	403.83
651.46	402.31
651.80	400.92
652.14	399.52
652.49	398.02
652.83	396.52
653.17	394.96
653.51	393.42
653.85	392.07
654.20	390.61
654.54	389.10
654.88	387.50
655.22	386.07
655.56	384.40
655.90	382.83
656.25	381.26
656.59	379.83
656.93	378.61
657.27	377.36
657.61	375.77
657.95	374.52
658.29	373.15
658.64	371.88
658.98	370.33
659.32	368.83
659.66	367.45
660.00	366.05
660.34	364.64
660.68	363.21
661.02	361.86
661.36	360.51
661.70	359.22
662.05	358.04
662.39	356.69
662.73	355.73
663.07	354.63
663.41	353.36
663.75	352.09
664.09	350.65
664.43	349.23
664.77	348.00
665.11	346.59
665.45	345.38
665.79	344.12
666.13	342.88
666.47	341.72
666.81	340.53
667.15	339.32
667.49	338.33
667.83	337.29
668.17	336.11
668.51	335.02
668.85	333.97
669.19	332.98
669.53	331.78
669.87	330.45
670.21	329.21
670.55	328.31
670.89	327.39
671.23	326.45
671.57	325.45
671.91	324.56
672.25	323.58
672.58	322.70
672.92	321.61
673.26	320.68
673.60	319.77
673.94	318.81
674.28	317.94
674.62	317.00
674.96	316.16
675.30	315.24
675.64	314.25
675.97	313.28
676.31	312.27
676.65	311.37
676.99	310.77
677.33	309.93
677.67	309.00
678.01	307.92
678.34	307.14
678.68	306.33
679.02	305.43
679.36	304.53
679.70	303.59
680.04	302.74
680.37	301.91
680.71	301.07
681.05	300.26
681.39	299.43
681.73	298.47
682.06	297.56
682.40	296.78
682.74	296.03
683.08	295.36
683.42	294.56
683.75	293.91
684.09	292.92
684.43	292.10
684.77	291.25
685.10	290.55
685.44	289.69
685.78	288.87
686.12	288.20
686.45	287.40
686.79	286.53
687.13	285.90
687.46	285.15
687.80	284.47
688.14	283.62
688.48	282.92
688.81	282.27
689.15	281.55
689.49	280.81
689.82	280.14
690.16	279.29
690.50	278.61
690.83	277.89
691.17	277.14
691.51	276.51
691.84	275.92
692.18	275.31
692.52	274.72
692.85	274.17
693.19	273.61
693.52	273.07
693.86	272.55
694.20	271.97
694.53	271.40
694.87	270.74
695.21	270.13
695.54	269.45
695.88	268.84
696.21	268.12
696.55	267.61
696.88	267.02
697.22	266.43
697.56	265.90
697.89	265.29
698.23	264.81
698.56	264.20
698.90	263.66
699.23	262.98
699.57	262.38
699.90	261.73
700.24	261.09
700.58	260.64
700.91	260.13
701.25	259.78
701.58	259.36
701.92	258.83
702.25	258.40
702.59	257.95
702.92	257.43
703.26	257.01
703.59	256.57
703.93	256.38
704.26	255.90
704.60	255.49
704.93	254.97
705.26	254.46
705.60	254.12
705.93	253.56
706.27	253.24
706.60	252.91
706.94	252.71
707.27	252.21
707.61	251.71
707.94	251.32
708.27	250.58
708.61	250.04
708.94	249.72
709.28	249.27
709.61	248.80
709.94	248.49
710.28	248.14
710.61	247.72
710.95	247.09
711.28	247.06
711.61	246.62
711.95	246.38
712.28	246.09
712.61	245.67
712.95	245.57
713.28	245.33
713.61	244.93
713.95	244.37
714.28	244.09
714.61	243.74
714.95	243.36
715.28	243.11
715.61	242.76
715.95	242.40
716.28	242.10
716.61	241.82
716.95	241.45
717.28	241.16
717.61	240.84
717.94	240.52
718.28	239.88
718.61	239.56
718.94	239.20
719.27	238.95
719.61	238.70
719.94	238.31
720.27	237.93
720.60	237.70
720.94	237.47
721.27	237.20
721.60	236.98
721.93	236.72
722.27	236.51
722.60	236.32
722.93	236.04
723.26	235.86
723.59	235.54
723.93	235.38
724.26	235.15
724.59	234.87
724.92	234.66
725.25	234.59
725.59	234.48
725.92	234.30
726.25	234.01
726.58	233.84
726.91	233.60
727.24	233.46
727.57	233.16
727.91	232.84
728.24	232.71
728.57	232.45
728.90	232.30
729.23	231.99
729.56	231.95
729.89	231.77
730.22	231.52
730.55	231.38
730.89	231.15
731.22	230.98
731.55	230.78
731.88	230.62
732.21	230.35
732.54	230.06
732.87	229.89
733.20	229.64
733.53	229.44
733.86	229.27
734.19	228.95
734.52	228.80
734.85	228.94
735.18	228.65
735.51	228.61
735.84	228.45
736.17	228.39
736.50	228.07
736.83	228.30
737.16	228.14
737.49	227.98
737.82	227.82
738.15	227.65
738.48	227.51
738.81	227.25
739.14	226.99
739.47	226.75
739.80	226.56
740.13	226.46
740.46	226.21
740.79	225.99
741.12	225.89
741.45	225.78
741.78	225.43
742.11	225.43
742.44	225.13
742.77	225.03
743.10	224.82
743.43	224.62
743.75	224.10
744.08	224.49
744.41	224.39
744.74	224.20
745.07	223.95
745.40	223.93
745.73	224.04
746.06	223.95
746.39	223.90
746.71	223.71
747.04	223.59
747.37	223.45
747.70	223.35
748.03	223.16
748.36	223.03
748.68	222.83
749.01	222.59
749.34	222.54
749.67	222.39
750.00	222.43
750.33	222.60
750.65	222.53
750.98	221.98
751.31	221.82
751.64	221.79
751.97	221.93
752.29	221.73
752.62	221.40
752.95	221.27
753.28	221.17
753.60	221.14
753.93	221.13
754.26	221.14
754.59	220.99
754.91	220.96
755.24	220.90
755.57	220.88
755.90	220.75
756.22	220.55
756.55	220.36
756.88	220.16
757.20	219.84
757.53	219.59
757.86	219.40
758.19	219.42
758.51	219.27
758.84	219.01
759.17	218.93
759.49	218.89
759.82	219.01
760.15	218.95
760.47	218.80
760.80	218.62
761.13	218.52
761.45	218.47
761.78	218.35
762.11	218.23
762.43	218.13
762.76	218.09
763.08	218.10
763.41	218.15
763.74	218.10
764.06	218.01
764.39	218.06
764.71	218.04
765.04	217.87
765.37	217.79
765.69	217.77
766.02	217.74
766.34	217.60
766.67	217.39
767.00	217.37
767.32	217.50
767.65	217.74
767.97	217.65
768.30	217.57
768.62	217.48
768.95	217.37
769.27	217.30
769.60	217.26
769.92	217.18
770.25	217.02
770.57	216.83
770.90	216.77
771.22	216.58
771.55	216.57
771.87	216.56
772.20	216.49
772.52	216.65
772.85	216.98
773.17	216.96
773.50	216.90
773.82	216.76
774.15	216.57
774.47	216.21
774.80	216.10
775.12	215.97
775.45	215.91
775.77	215.90
776.09	215.88
776.42	215.81
776.74	215.88
777.07	215.85
777.39	215.90
777.72	215.84
778.04	215.90
778.36	215.76
778.69	215.66
779.01	215.55
779.33	215.28
779.66	214.81
779.98	214.82
780.31	214.78
780.63	214.88
780.95	214.83
781.28	214.76
781.60	214.70
781.92	214.71
782.25	214.74
782.57	214.68
782.89	214.63
783.22	214.48
783.54	214.26
783.86	214.25
784.19	214.23
784.51	214.29
784.83	214.20
785.16	214.11
785.48	214.10
785.80	214.15
786.12	214.14
786.45	214.08
786.77	214.02
787.09	213.97
787.42	213.84
787.74	213.87
788.06	213.97
788.38	213.92
788.71	213.89
789.03	213.82
789.35	213.89
789.67	213.79
789.99	213.85
790.32	213.85
790.64	213.82
790.96	213.99
791.28	213.74
791.61	213.72
791.93	213.76
792.25	213.68
792.57	213.92
792.89	213.74
793.21	213.79
793.54	213.76
793.86	213.70
794.18	213.69
794.50	213.62
794.82	213.53
795.14	213.60
795.47	213.66
795.79	213.70
796.11	213.59
796.43	213.65
796.75	213.73
797.07	213.74
797.39	213.78
797.71	213.55
798.04	213.67
798.36	213.63
798.68	213.58
799.00	213.63
799.32	213.38
799.64	213.42
799.96	213.41
800.28	213.40
800.60	213.39
800.92	213.43
801.24	213.42
801.56	213.43
801.89	213.39
802.21	213.37
802.53	213.23
802.85	213.28
803.17	213.36
803.49	213.26
803.81	213.23
804.13	213.14
804.45	213.13
804.77	213.12
805.09	213.08
805.41	213.03
805.73	212.98
806.05	212.93
806.37	212.97
806.69	212.90
807.01	212.90
807.33	212.85
807.65	212.70
807.97	212.79
808.28	212.77
808.60	212.72
808.92	212.60
809.24	212.81
809.56	212.74
809.88	212.63
810.20	212.57
810.52	212.63
810.84	212.57
811.16	212.53
811.48	212.53
811.80	212.59
812.12	212.57
812.43	212.62
812.75	212.59
813.07	212.51
813.39	212.55
813.71	212.42
814.03	212.42
814.35	212.44
814.67	212.25
814.98	212.18
815.30	212.16
815.62	212.18
815.94	211.96
816.26	211.93
816.58	211.83
816.89	211.85
817.21	211.67
817.53	211.71
817.85	211.73
818.17	211.67
818.48	211.59
818.80	211.74
819.12	211.70
819.44	211.66
819.76	211.52
820.07	211.46
820.39	211.47
820.71	211.49
821.03	211.42
821.34	211.45
821.66	211.56
821.98	211.60
822.30	211.58
822.61	211.76
822.93	211.82
823.25	211.84
823.57	211.83
823.88	211.96
824.20	211.95
824.52	211.97
824.83	211.98
825.15	211.98
825.47	211.83
825.79	211.77
826.10	211.76
826.42	211.87
826.74	211.92
827.05	211.91
827.37	211.92
827.69	211.96
828.00	211.96
828.32	211.87
828.64	211.83
828.95	211.97
829.27	211.90
829.58	211.80
829.90	211.90
830.22	211.89
830.53	211.77
830.85	211.76
831.17	211.60
831.48	211.59
831.80	211.63
832.11	211.64
832.43	211.58
832.75	211.57
833.06	211.80
833.38	211.66
833.69	211.71
834.01	211.70
834.32	211.73
834.64	211.65
834.96	211.74
835.27	211.78
835.59	211.66
835.90	211.57
836.22	211.62
836.53	211.49
836.85	211.52
837.16	211.93
837.48	211.87
837.79	212.05
838.11	212.08
838.42	212.04
838.74	212.11
839.05	212.10
839.37	212.10
839.68	211.89
840.00	211.93
840.31	211.90
840.63	211.89
840.94	211.82
841.26	211.81
841.57	211.70
841.88	211.72
842.20	211.70
842.51	211.68
842.83	211.70
843.14	212.00
843.46	211.99
843.77	211.75
844.08	211.72
844.40	211.62
844.71	211.54
845.03	211.45
845.34	211.37
845.65	211.37
845.97	211.40
846.28	211.38
846.60	211.36
846.91	211.32
847.22	211.35
847.54	211.36
847.85	211.35
848.16	211.34
848.48	211.22
848.79	211.36
849.10	211.38
849.42	211.35
849.73	211.02
850.04	210.93
850.36	210.86
850.67	210.95
850.98	210.89
851.30	210.92
851.61	211.00
851.92	211.01
852.23	211.15
852.55	211.13
852.86	211.17
853.17	211.17
853.49	211.30
853.80	211.36
854.11	211.36
854.42	211.50
854.74	211.44
855.05	211.45
855.36	211.29
855.67	211.33
855.99	211.34
856.30	211.75
856.61	211.76
856.92	211.71
857.23	211.66
857.55	211.65
857.86	211.59
858.17	211.55
858.48	211.48
858.79	211.42
859.11	211.43
859.42	211.39
859.73	211.44
860.04	211.41
860.35	211.25
860.66	211.20
860.98	211.21
861.29	211.25
861.60	211.21
861.91	211.30
862.22	211.20
862.53	211.15
862.84	210.80
863.16	210.84
863.47	210.77
863.78	210.78
864.09	210.82
864.40	210.87
864.71	211.00
865.02	211.04
865.33	210.95
865.64	210.90
865.95	210.92
866.27	211.12
866.58	211.07
866.89	211.12
867.20	211.13
867.51	211.03
867.82	211.06
868.13	211.26
868.44	211.18
868.75	211.25
869.06	211.33
869.37	211.30
869.68	211.21
869.99	211.30
870.30	211.29
870.61	211.32
870.92	211.31
871.23	211.20
871.54	211.27
871.85	211.41
872.16	211.45
872.47	211.43
872.78	211.22
873.09	211.28
873.40	211.26
873.71	211.30
874.02	211.35
874.33	211.33
874.64	211.15
874.95	211.19
875.26	211.18
875.56	211.17
875.87	211.20
876.18	211.25
876.49	211.62
876.80	211.65
877.11	211.64
877.42	211.65
877.73	211.66
878.04	211.64
878.35	211.67
878.66	211.67
878.96	211.66
879.27	211.64
879.58	211.60
879.89	211.62
880.20	211.74
880.51	211.68
880.82	211.69
881.12	211.75
881.43	211.69
881.74	211.58
882.05	211.53
882.36	211.54
882.67	211.51
882.97	211.16
883.28	211.15
883.59	211.08
883.90	211.11
884.21	211.06
884.51	211.09
884.82	211.00
885.13	210.99
885.44	211.02
885.74	211.04
886.05	211.03
886.36	210.98
886.67	210.79
886.98	210.96
887.28	210.92
887.59	210.95
887.90	210.96
888.20	211.03
888.51	211.10
888.82	211.05
889.13	211.16
889.43	211.38
889.74	211.30
890.05	211.39
890.35	211.41
890.66	211.42
890.97	211.40
891.28	211.35
891.58	211.38
891.89	211.33
892.20	211.32
892.50	211.30
892.81	211.35
893.12	211.32
893.42	211.20
893.73	211.22
894.04	211.25
894.34	211.28
894.65	211.27
894.95	211.15
895.26	211.12
895.57	211.23
895.87	210.88
896.18	211.03
896.48	211.01
896.79	210.91
897.10	210.99
897.40	210.95
897.71	210.97
898.01	210.96
898.32	211.01
898.63	211.03
898.93	211.06
899.24	211.12
899.54	211.13
899.85	211.08
900.15	211.10
900.46	211.10
900.76	211.10
901.07	211.06
901.38	211.13
901.68	211.29
901.99	211.07
902.29	211.11
902.60	211.05
902.90	210.98
903.21	211.07
903.51	210.98
903.82	211.06
904.12	211.10
904.43	211.10
904.73	211.05
905.03	211.02
905.34	211.34
905.64	211.30
905.95	211.37
906.25	211.38
906.56	211.36
906.86	211.28
907.17	211.27
907.47	211.29
907.77	211.24
908.08	211.08
908.38	211.14
908.69	211.15
908.99	211.18
909.30	211.24
909.60	211.20
909.90	211.29
910.21	211.22
910.51	211.14
910.81	211.12
911.12	211.21
911.42	211.22
911.73	210.79
912.03	210.80
912.33	210.78
912.64	210.75
912.94	210.68
913.24	210.66
913.55	210.68
913.85	210.73
914.15	210.78
914.46	210.88
914.76	210.81
915.06	210.80
915.37	210.74
915.67	210.72
915.97	210.66
916.27	210.52
916.58	210.52
916.88	210.55
917.18	210.59
917.49	210.70
917.79	210.68
918.09	210.84
918.39	210.92
918.70	210.92
919.00	211.01
919.30	211.14
919.60	211.10
919.91	211.07
920.21	210.99
920.51	210.95
920.81	210.82
921.12	210.83
921.42	210.91
921.72	210.97
922.02	210.97
922.32	211.05
922.63	211.14
922.93	211.28
923.23	211.31
923.53	211.23
923.83	211.08
924.13	211.12
924.44	211.09
924.74	211.09
925.04	211.28
925.34	211.22
925.64	211.14
925.94	211.16
926.24	211.38
926.55	211.33
926.85	211.43
927.15	211.50
927.45	211.50
927.75	211.48
928.05	211.38
928.35	211.35
928.65	211.50
928.95	211.48
929.26	211.34
929.56	211.37
929.86	211.45
930.16	211.40
930.46	211.41
930.76	211.43
931.06	211.32
931.36	211.15
931.66	211.25
931.96	211.25
932.26	211.30
932.56	211.07
932.86	211.19
933.16	211.16
933.46	211.13
933.76	211.21
934.06	211.28
934.36	211.42
934.66	211.39
934.96	211.28
935.26	211.31
935.56	211.36
935.86	211.31
936.16	211.17
936.46	211.16
936.76	211.10
937.06	211.00
937.36	210.98
937.66	211.01
937.96	210.98
938.26	210.91
938.56	210.88
938.86	210.93
939.16	210.98
939.46	211.01
939.76	211.05
940.06	210.99
940.35	210.93
940.65	210.85
940.95	210.95
941.25	210.81
941.55	210.80
941.85	210.77
942.15	210.76
942.45	210.97
942.75	210.96
943.04	210.95
943.34	211.05
943.64	211.05
943.94	211.02
944.24	210.96
944.54	211.05
944.84	211.04
945.13	210.98
945.43	210.91
945.73	210.86
946.03	210.83
946.33	210.82
946.62	210.75
946.92	210.69
947.22	210.71
947.52	210.79
947.82	210.80
948.11	210.82
948.41	210.80
948.71	210.71
949.01	210.78
949.31	210.74
949.60	210.68
949.90	210.76
950.20	210.69
950.50	210.67
950.79	210.59
951.09	210.59
951.39	210.58
951.69	210.55
951.98	210.63
952.28	210.64
952.58	210.65
952.87	210.73
953.17	210.82
953.47	210.74
953.76	210.74
954.06	210.68
954.36	210.60
954.66	210.56
954.95	210.60
955.25	210.57
955.55	210.64
955.84	210.57
956.14	210.55
956.44	210.54
956.73	210.51
957.03	210.58
957.32	210.62
957.62	210.60
957.92	210.64
958.21	210.57
958.51	210.97
958.81	210.98
959.10	211.03
959.40	211.04
959.69	211.07
959.99	211.12
960.29	211.11
960.58	211.11
960.88	211.33
961.17	211.28
961.47	211.37
961.76	211.32
962.06	211.43
962.36	211.52
962.65	211.54
962.95	211.54
963.24	211.47
963.54	211.56
963.83	211.60
964.13	211.61
964.42	211.63
964.72	211.24
965.01	211.20
965.31	211.14
965.60	211.07
965.90	211.28
966.19	211.17
966.49	211.24
966.78	211.24
967.08	211.25
967.37	211.33
967.67	211.24
967.96	211.27
968.26	211.28
968.55	211.18
968.85	211.18
969.14	211.19
969.43	211.29
969.73	211.20
970.02	211.16
970.32	211.18
970.61	211.06
970.91	211.05
971.20	211.00
971.49	210.93
971.79	211.06
972.08	210.90
972.38	210.97
972.67	210.94
972.96	211.00
973.26	210.84
973.55	210.89
973.85	210.90
974.14	210.96
974.43	211.02
974.73	211.09
975.02	211.10
975.31	211.09
975.61	210.99
975.90	211.00
976.19	211.00
976.49	211.04
976.78	211.18
977.07	211.19
977.37	211.20
977.66	211.30
977.95	211.21
978.24	211.17
978.54	211.20
978.83	211.20
979.12	211.13
979.42	211.18
979.71	211.07
980.00	211.02
980.29	211.01
980.59	210.86
980.88	210.87
981.17	210.86
981.46	210.91
981.76	210.98
982.05	211.02
982.34	211.03
982.63	211.02
982.93	210.94
983.22	211.04
983.51	211.14
983.80	211.11
984.09	211.10
984.39	211.06
984.68	211.02
984.97	210.98
985.26	211.00
985.55	210.97
985.85	210.85
986.14	210.90
986.43	210.95
986.72	210.95
987.01	210.83
987.30	210.83
987.59	210.83
987.89	210.76
988.18	210.71
988.47	210.73
988.76	210.66
989.05	210.60
989.34	210.49
989.63	210.56
989.92	210.54
990.22	210.55
990.51	210.57
990.80	210.63
991.09	210.64
991.38	210.73
991.67	210.72
991.96	210.78
992.25	210.74
992.54	210.63
992.83	210.73
993.12	210.72
993.41	210.73
993.70	210.85
993.99	210.97
994.28	211.01
994.58	211.05
994.87	211.00
995.16	211.07
995.45	211.04
995.74	210.89
996.03	211.00
996.32	211.08
996.61	211.23
996.90	211.17
997.19	211.20
997.48	211.14
997.77	211.07
998.06	211.07
998.34	211.10
998.63	211.10
998.92	211.05
999.21	211.13
999.50	211.26
999.79	211.15
1000.08	211.15
1000.37	211.22
1000.66	211.17
1000.95	211.29
1001.24	211.31
1001.53	211.32
1001.82	211.36
1002.11	211.17
1002.40	211.16
1002.68	211.17
1002.97	211.43
1003.26	211.39
1003.55	211.32
1003.84	211.40
1004.13	211.54
1004.42	211.54
1004.71	211.59
1004.99	211.52
1005.28	211.58
1005.57	211.41
1005.86	211.36
1006.15	211.32
1006.44	211.21
1006.72	211.23
1007.01	211.16
1007.30	211.13
1007.59	211.14
1007.88	211.05
1008.17	211.21
1008.45	211.16
1008.74	211.01
1009.03	210.84
1009.32	210.91
1009.60	210.95
1009.89	210.89
1010.18	210.75
1010.47	210.76
1010.76	210.72
1011.04	210.79
1011.33	211.19
1011.62	211.24
1011.91	211.28
1012.19	211.25
1012.48	211.25
1012.77	211.25
1013.05	211.39
1013.34	211.43
1013.63	211.42
1013.92	211.49
1014.20	211.40
1014.49	211.36
1014.78	211.44
1015.06	211.30
1015.35	211.25
1015.64	211.32
1015.92	211.36
1016.21	211.43
1016.50	211.37
1016.78	211.40
1017.07	211.38
1017.36	210.92
1017.64	210.86
1017.93	210.87
1018.22	210.87
1018.50	210.85
1018.79	210.88
1019.08	210.72
1019.36	210.66
1019.65	210.63
1019.93	210.70
1020.22	210.77
1020.51	210.88
1020.79	210.77
1021.08	210.70
1021.36	210.10
1021.65	211.55
1021.94	210.25
1022.22	209.90
1022.51	210.00
1022.79	212.00
1023.08	211.40
1023.36	213.10
1023.65	209.85
>>>>>End Processed Spectral Data<<<<<
