SpectraSuite Data File
++++++++++++++++++++++++++++++++++++
Date: Mon Feb 25 17:19:02 EST 2013
User: group
Dark Spectrum Present: No
Reference Spectrum Present: No
Number of Sampled Component Spectra: 1
Spectrometers: USB2E7196
Integration Time (usec): 104000 (USB2E7196)
Spectra Averaged: 20 (USB2E7196)
Boxcar Smoothing: 10 (USB2E7196)
Correct for Electrical Dark: No (USB2E7196)
Strobe/Lamp Enabled: No (USB2E7196)
Correct for Detector Non-linearity: No (USB2E7196)
Correct for Stray Light: No (USB2E7196)
Number of Pixels in Processed Spectrum: 2048
>>>>>Begin Processed Spectral Data<<<<<
339.09	0.00
339.48	198.80
339.86	201.00
340.24	200.60
340.63	203.25
341.01	209.20
341.39	205.75
341.78	206.90
342.16	209.80
342.54	209.35
342.93	198.32
343.31	208.32
343.69	208.78
344.07	209.20
344.46	209.74
344.84	210.11
345.22	210.16
345.60	210.42
345.99	210.73
346.37	210.85
346.75	210.97
347.13	211.10
347.52	211.18
347.90	211.38
348.28	211.45
348.66	211.51
349.05	211.43
349.43	211.48
349.81	211.68
350.19	211.76
350.57	211.86
350.96	211.93
351.34	212.12
351.72	212.27
352.10	212.41
352.48	212.50
352.87	212.59
353.25	212.67
353.63	212.71
354.01	212.70
354.39	212.73
354.77	212.79
355.15	212.96
355.54	213.05
355.92	213.05
356.30	213.21
356.68	213.51
357.06	213.66
357.44	213.77
357.82	213.78
358.20	213.95
358.58	214.03
358.97	214.06
359.35	214.18
359.73	214.43
360.11	214.43
360.49	214.44
360.87	214.49
361.25	214.64
361.63	214.80
362.01	214.93
362.39	214.99
362.77	215.01
363.15	215.00
363.53	215.07
363.91	215.12
364.29	215.10
364.67	214.81
365.05	214.87
365.43	214.90
365.81	214.97
366.19	215.09
366.57	215.24
366.95	215.32
367.33	215.18
367.71	215.16
368.09	215.32
368.47	215.32
368.85	215.34
369.23	215.41
369.61	215.35
369.99	215.39
370.37	215.39
370.75	215.66
371.13	215.63
371.51	215.52
371.89	215.51
372.27	215.52
372.65	215.57
373.03	215.56
373.41	215.55
373.78	215.51
374.16	215.33
374.54	215.16
374.92	215.10
375.30	215.13
375.68	215.02
376.06	214.92
376.44	214.87
376.82	214.83
377.19	214.71
377.57	214.66
377.95	214.54
378.33	214.47
378.71	214.20
379.09	214.15
379.47	214.10
379.84	214.01
380.22	213.89
380.60	213.78
380.98	213.70
381.36	213.64
381.73	213.58
382.11	213.64
382.49	213.59
382.87	213.49
383.25	213.45
383.62	213.84
384.00	213.74
384.38	213.74
384.76	213.83
385.13	213.92
385.51	213.86
385.89	213.78
386.27	213.77
386.64	213.72
387.02	213.65
387.40	213.69
387.78	213.69
388.15	213.68
388.53	213.63
388.91	213.56
389.29	213.48
389.66	213.47
390.04	213.40
390.42	213.46
390.79	213.44
391.17	213.37
391.55	212.97
391.92	213.00
392.30	212.96
392.68	212.82
393.05	212.82
393.43	212.90
393.81	212.88
394.18	212.80
394.56	212.79
394.94	212.92
395.31	212.87
395.69	212.85
396.06	212.92
396.44	212.99
396.82	212.99
397.19	213.19
397.57	213.18
397.95	213.17
398.32	213.08
398.70	213.10
399.07	213.25
399.45	213.25
399.82	213.26
400.20	213.34
400.58	213.37
400.95	213.24
401.33	213.34
401.70	213.71
402.08	213.82
402.45	213.94
402.83	214.04
403.20	214.17
403.58	214.30
403.95	214.45
404.33	214.55
404.71	214.70
405.08	214.93
405.46	215.10
405.83	215.29
406.21	215.43
406.58	215.69
406.96	215.82
407.33	215.96
407.70	216.24
408.08	216.74
408.45	217.12
408.83	217.48
409.20	217.61
409.58	217.70
409.95	218.13
410.33	218.52
410.70	218.83
411.08	219.34
411.45	219.84
411.82	220.30
412.20	220.93
412.57	221.69
412.95	222.05
413.32	222.74
413.69	223.40
414.07	224.22
414.44	225.02
414.82	225.92
415.19	226.99
415.56	227.94
415.94	228.78
416.31	229.88
416.68	231.11
417.06	232.46
417.43	233.75
417.81	235.22
418.18	236.69
418.55	238.26
418.93	239.88
419.30	241.57
419.67	243.37
420.04	245.20
420.42	247.12
420.79	249.60
421.16	251.82
421.54	254.25
421.91	256.71
422.28	259.18
422.66	261.82
423.03	264.48
423.40	267.14
423.77	269.99
424.15	272.91
424.52	275.78
424.89	279.22
425.26	282.29
425.64	285.29
426.01	288.63
426.38	292.10
426.75	295.72
427.13	299.41
427.50	303.26
427.87	307.31
428.24	311.31
428.61	314.91
428.99	319.22
429.36	323.69
429.73	328.12
430.10	332.63
430.47	337.19
430.85	341.91
431.22	347.04
431.59	352.50
431.96	357.67
432.33	363.38
432.70	368.75
433.08	375.31
433.45	381.33
433.82	387.22
434.19	393.88
434.56	400.38
434.93	406.61
435.30	412.77
435.68	419.61
436.05	426.30
436.42	433.12
436.79	439.32
437.16	445.90
437.53	452.77
437.90	459.68
438.27	466.52
438.64	473.44
439.01	479.95
439.38	485.67
439.75	491.22
440.13	497.72
440.50	503.90
440.87	508.78
441.24	513.73
441.61	519.46
441.98	523.44
442.35	528.13
442.72	533.16
443.09	537.93
443.46	540.49
443.83	542.36
444.20	543.85
444.57	546.13
444.94	547.19
445.31	548.36
445.68	549.69
446.05	550.02
446.42	549.34
446.79	548.42
447.16	547.34
447.53	546.58
447.90	543.70
448.27	540.85
448.64	537.07
449.01	534.49
449.37	529.85
449.74	525.47
450.11	520.36
450.48	514.23
450.85	508.25
451.22	503.23
451.59	498.35
451.96	493.84
452.33	487.54
452.70	481.91
453.07	475.12
453.43	468.04
453.80	461.49
454.17	455.29
454.54	449.38
454.91	443.10
455.28	436.87
455.65	431.25
456.02	425.88
456.38	421.08
456.75	415.14
457.12	409.98
457.49	405.05
457.86	399.89
458.23	395.89
458.59	391.34
458.96	386.85
459.33	382.84
459.70	378.65
460.07	375.53
460.43	371.85
460.80	368.44
461.17	365.37
461.54	362.23
461.91	359.12
462.27	356.10
462.64	353.52
463.01	350.69
463.38	348.06
463.74	344.91
464.11	342.42
464.48	340.20
464.85	337.98
465.21	336.23
465.58	334.54
465.95	332.23
466.32	330.34
466.68	328.57
467.05	326.70
467.42	324.88
467.78	322.98
468.15	321.25
468.52	320.08
468.88	318.45
469.25	316.99
469.62	315.96
469.98	314.63
470.35	313.50
470.72	312.47
471.08	311.17
471.45	310.35
471.82	309.47
472.18	308.52
472.55	307.78
472.92	306.80
473.28	305.94
473.65	305.33
474.02	304.73
474.38	304.21
474.75	303.94
475.11	303.63
475.48	303.33
475.85	303.11
476.21	302.98
476.58	302.90
476.94	302.97
477.31	302.93
477.67	303.02
478.04	303.12
478.41	303.42
478.77	304.07
479.14	304.25
479.50	304.62
479.87	305.07
480.23	305.60
480.60	306.19
480.96	306.85
481.33	307.75
481.69	308.56
482.06	309.43
482.42	310.17
482.79	311.08
483.15	312.22
483.52	313.69
483.88	314.85
484.25	316.21
484.61	317.58
484.98	319.00
485.34	320.74
485.71	322.58
486.07	324.55
486.44	326.19
486.80	328.35
487.17	330.58
487.53	333.16
487.90	335.85
488.26	338.74
488.62	341.72
488.99	344.64
489.35	347.75
489.72	351.16
490.08	354.82
490.44	358.54
490.81	362.39
491.17	366.30
491.54	370.74
491.90	375.30
492.26	380.08
492.63	385.09
492.99	390.35
493.36	395.87
493.72	401.58
494.08	407.66
494.45	414.03
494.81	420.83
495.17	427.65
495.54	434.85
495.90	442.28
496.26	450.23
496.63	458.43
496.99	467.04
497.35	475.91
497.72	485.20
498.08	494.69
498.44	504.78
498.80	515.39
499.17	526.15
499.53	537.30
499.89	548.99
500.26	560.98
500.62	573.38
500.98	586.37
501.34	599.64
501.71	613.38
502.07	627.53
502.43	641.91
502.79	656.78
503.16	672.34
503.52	688.30
503.88	704.47
504.24	721.30
504.60	738.34
504.97	756.14
505.33	774.13
505.69	793.51
506.05	812.93
506.41	832.41
506.78	852.54
507.14	872.96
507.50	893.98
507.86	915.37
508.22	937.14
508.59	959.16
508.95	981.97
509.31	1005.22
509.67	1028.75
510.03	1053.01
510.39	1077.97
510.75	1102.99
511.12	1128.45
511.48	1154.36
511.84	1180.70
512.20	1207.22
512.56	1234.43
512.92	1261.92
513.28	1289.45
513.64	1317.26
514.00	1345.23
514.37	1373.60
514.73	1402.51
515.09	1431.49
515.45	1460.66
515.81	1489.67
516.17	1519.10
516.53	1548.46
516.89	1578.24
517.25	1607.95
517.61	1637.56
517.97	1667.39
518.33	1697.11
518.69	1726.61
519.05	1756.76
519.41	1786.89
519.77	1817.60
520.13	1847.28
520.49	1876.78
520.85	1906.65
521.21	1936.65
521.57	1967.28
521.93	1996.62
522.29	2027.26
522.65	2057.56
523.01	2087.31
523.37	2116.80
523.73	2146.68
524.09	2176.45
524.45	2206.17
524.81	2236.07
525.17	2265.76
525.53	2294.85
525.89	2324.37
526.25	2353.58
526.61	2381.11
526.97	2409.00
527.33	2437.00
527.68	2465.17
528.04	2492.94
528.40	2519.25
528.76	2545.82
529.12	2572.88
529.48	2600.94
529.84	2627.13
530.20	2653.26
530.56	2679.71
530.91	2707.06
531.27	2733.02
531.63	2758.43
531.99	2783.36
532.35	2807.67
532.71	2831.48
533.07	2855.85
533.42	2879.18
533.78	2903.10
534.14	2926.67
534.50	2948.33
534.86	2970.69
535.21	2991.90
535.57	3014.00
535.93	3035.36
536.29	3056.14
536.65	3076.39
537.00	3095.35
537.36	3113.51
537.72	3131.30
538.08	3148.93
538.44	3166.58
538.79	3184.45
539.15	3202.20
539.51	3219.15
539.87	3237.02
540.22	3253.53
540.58	3270.45
540.94	3286.67
541.29	3300.86
541.65	3314.65
542.01	3329.22
542.37	3342.67
542.72	3356.62
543.08	3369.18
543.44	3382.92
543.79	3394.53
544.15	3405.59
544.51	3417.05
544.87	3429.46
545.22	3440.29
545.58	3449.92
545.94	3458.34
546.29	3465.76
546.65	3473.01
547.01	3480.34
547.36	3486.38
547.72	3492.95
548.07	3497.61
548.43	3501.68
548.79	3506.30
549.14	3511.65
549.50	3516.43
549.86	3519.64
550.21	3522.69
550.57	3526.49
550.92	3527.92
551.28	3530.28
551.64	3532.44
551.99	3534.76
552.35	3535.28
552.70	3536.41
553.06	3538.01
553.41	3538.60
553.77	3539.39
554.13	3539.53
554.48	3539.93
554.84	3540.29
555.19	3540.01
555.55	3538.59
555.90	3537.07
556.26	3535.42
556.61	3533.25
556.97	3530.54
557.32	3528.67
557.68	3525.35
558.03	3521.63
558.39	3518.77
558.74	3516.64
559.10	3514.00
559.45	3510.10
559.81	3507.13
560.16	3503.21
560.52	3499.57
560.87	3495.92
561.23	3490.96
561.58	3487.06
561.94	3481.30
562.29	3475.23
562.64	3470.03
563.00	3465.71
563.35	3462.08
563.71	3458.73
564.06	3454.27
564.42	3450.58
564.77	3446.31
565.12	3442.65
565.48	3437.57
565.83	3432.98
566.19	3428.39
566.54	3421.69
566.89	3415.78
567.25	3409.75
567.60	3404.10
567.96	3397.51
568.31	3391.40
568.66	3385.23
569.02	3377.66
569.37	3370.33
569.72	3363.54
570.08	3355.96
570.43	3348.22
570.78	3339.83
571.14	3330.26
571.49	3321.75
571.84	3313.33
572.20	3303.50
572.55	3294.52
572.90	3285.00
573.26	3274.75
573.61	3263.99
573.96	3254.07
574.31	3242.89
574.67	3231.42
575.02	3219.51
575.37	3208.35
575.72	3195.85
576.08	3185.33
576.43	3173.41
576.78	3162.80
577.13	3152.16
577.49	3141.34
577.84	3130.05
578.19	3119.76
578.54	3110.48
578.90	3100.50
579.25	3089.04
579.60	3077.56
579.95	3065.32
580.30	3054.86
580.66	3044.66
581.01	3033.28
581.36	3021.63
581.71	3010.47
582.06	2999.59
582.42	2988.87
582.77	2977.13
583.12	2966.00
583.47	2954.96
583.82	2944.94
584.17	2933.54
584.53	2922.37
584.88	2911.04
585.23	2899.85
585.58	2888.28
585.93	2876.11
586.28	2864.73
586.63	2853.41
586.98	2842.73
587.34	2832.53
587.69	2821.07
588.04	2809.74
588.39	2799.05
588.74	2787.67
589.09	2777.57
589.44	2766.40
589.79	2756.10
590.14	2746.02
590.49	2735.59
590.84	2724.57
591.19	2714.82
591.54	2704.59
591.89	2692.16
592.25	2680.99
592.60	2669.47
592.95	2657.41
593.30	2644.96
593.65	2632.47
594.00	2620.43
594.35	2610.49
594.70	2599.10
595.05	2588.70
595.40	2577.72
595.75	2566.10
596.10	2556.10
596.45	2545.27
596.80	2535.94
597.15	2525.66
597.50	2514.48
597.85	2504.30
598.19	2493.54
598.54	2482.68
598.89	2472.44
599.24	2464.14
599.59	2454.39
599.94	2445.50
600.29	2436.21
600.64	2427.01
600.99	2416.73
601.34	2407.89
601.69	2396.50
602.04	2385.89
602.39	2375.75
602.74	2365.99
603.08	2357.13
603.43	2348.48
603.78	2338.76
604.13	2328.61
604.48	2318.65
604.83	2310.74
605.18	2302.60
605.53	2293.13
605.87	2282.99
606.22	2273.72
606.57	2263.47
606.92	2253.85
607.27	2243.65
607.62	2233.82
607.96	2224.77
608.31	2216.85
608.66	2206.36
609.01	2196.61
609.36	2186.87
609.70	2176.00
610.05	2165.53
610.40	2155.14
610.75	2143.95
611.10	2134.24
611.44	2122.57
611.79	2111.45
612.14	2099.40
612.49	2086.97
612.83	2076.10
613.18	2064.65
613.53	2053.11
613.88	2041.08
614.22	2030.11
614.57	2018.76
614.92	2007.74
615.27	1996.05
615.61	1984.31
615.96	1973.59
616.31	1963.36
616.65	1953.31
617.00	1943.18
617.35	1932.66
617.70	1921.24
618.04	1909.63
618.39	1897.37
618.74	1886.80
619.08	1875.91
619.43	1865.24
619.78	1854.84
620.12	1844.13
620.47	1833.83
620.82	1822.64
621.16	1811.92
621.51	1800.63
621.85	1789.96
622.20	1778.65
622.55	1767.82
622.89	1756.81
623.24	1746.26
623.59	1734.97
623.93	1723.70
624.28	1713.03
624.62	1702.38
624.97	1692.03
625.32	1682.39
625.66	1672.96
626.01	1663.13
626.35	1653.35
626.70	1643.60
627.04	1634.16
627.39	1624.53
627.73	1614.81
628.08	1605.64
628.43	1595.86
628.77	1586.20
629.12	1576.24
629.46	1567.49
629.81	1558.28
630.15	1548.73
630.50	1538.98
630.84	1529.23
631.19	1520.06
631.53	1510.70
631.88	1500.78
632.22	1491.48
632.57	1482.14
632.91	1472.78
633.26	1463.36
633.60	1454.06
633.95	1444.74
634.29	1434.97
634.64	1425.95
634.98	1416.44
635.32	1407.12
635.67	1398.75
636.01	1390.20
636.36	1381.24
636.70	1372.19
637.05	1363.31
637.39	1354.89
637.73	1346.84
638.08	1339.40
638.42	1331.51
638.77	1323.09
639.11	1314.85
639.45	1306.35
639.80	1297.70
640.14	1288.65
640.49	1280.05
640.83	1271.55
641.17	1263.26
641.52	1254.71
641.86	1245.76
642.20	1237.61
642.55	1228.79
642.89	1220.06
643.23	1211.26
643.58	1203.46
643.92	1194.86
644.26	1186.49
644.61	1177.91
644.95	1169.06
645.29	1160.27
645.64	1151.32
645.98	1143.11
646.32	1135.09
646.66	1126.73
647.01	1118.70
647.35	1110.99
647.69	1102.41
648.04	1094.55
648.38	1086.21
648.72	1078.25
649.06	1070.33
649.41	1062.24
649.75	1054.44
650.09	1046.66
650.43	1038.96
650.78	1030.68
651.12	1022.61
651.46	1014.73
651.80	1007.42
652.14	999.95
652.49	992.10
652.83	984.35
653.17	976.24
653.51	968.40
653.85	960.85
654.20	953.09
654.54	945.45
654.88	938.13
655.22	930.29
655.56	922.63
655.90	915.09
656.25	907.60
656.59	900.29
656.93	893.18
657.27	886.18
657.61	878.55
657.95	871.55
658.29	864.78
658.64	858.08
658.98	850.81
659.32	843.46
659.66	836.70
660.00	829.87
660.34	823.06
660.68	816.00
661.02	809.26
661.36	802.81
661.70	796.40
662.05	790.25
662.39	784.40
662.73	778.53
663.07	772.80
663.41	767.11
663.75	761.15
664.09	755.07
664.43	748.85
664.77	743.20
665.11	737.38
665.45	731.79
665.79	726.00
666.13	720.47
666.47	715.10
666.81	709.63
667.15	704.22
667.49	699.12
667.83	694.35
668.17	689.27
668.51	684.39
668.85	679.37
669.19	674.70
669.53	669.46
669.87	664.37
670.21	659.40
670.55	654.28
670.89	649.80
671.23	645.50
671.57	641.04
671.91	636.56
672.25	631.90
672.58	627.15
672.92	622.71
673.26	618.44
673.60	614.21
673.94	609.93
674.28	605.59
674.62	601.46
674.96	597.23
675.30	593.14
675.64	588.85
675.97	584.79
676.31	580.62
676.65	576.82
676.99	573.13
677.33	569.17
677.67	565.32
678.01	561.22
678.34	557.25
678.68	553.45
679.02	549.54
679.36	545.89
679.70	542.29
680.04	538.56
680.37	534.80
680.71	531.21
681.05	527.69
681.39	524.30
681.73	520.94
682.06	517.69
682.40	514.48
682.74	511.20
683.08	507.95
683.42	504.49
683.75	501.24
684.09	497.94
684.43	494.65
684.77	491.33
685.10	487.99
685.44	484.69
685.78	481.41
686.12	478.43
686.45	475.47
686.79	472.50
687.13	469.60
687.46	466.77
687.80	464.05
688.14	461.12
688.48	458.24
688.81	455.10
689.15	452.15
689.49	449.09
689.82	446.19
690.16	442.98
690.50	440.10
690.83	437.23
691.17	434.29
691.51	431.53
691.84	428.89
692.18	426.42
692.52	424.02
692.85	421.78
693.19	419.43
693.52	416.85
693.86	414.26
694.20	411.81
694.53	409.37
694.87	406.76
695.21	404.30
695.54	401.80
695.88	399.45
696.21	397.04
696.55	394.87
696.88	392.57
697.22	390.39
697.56	388.31
697.89	386.07
698.23	383.86
698.56	381.74
698.90	379.76
699.23	377.63
699.57	375.50
699.90	373.29
700.24	371.11
700.58	368.99
700.91	367.05
701.25	365.40
701.58	363.38
701.92	361.45
702.25	359.61
702.59	357.76
702.92	356.05
703.26	354.20
703.59	352.41
703.93	350.93
704.26	349.30
704.60	347.64
704.93	345.96
705.26	344.35
705.60	342.77
705.93	340.98
706.27	339.47
706.60	338.00
706.94	336.54
707.27	334.94
707.61	333.46
707.94	331.89
708.27	330.01
708.61	328.45
708.94	327.02
709.28	325.47
709.61	324.10
709.94	322.77
710.28	321.51
710.61	320.24
710.95	318.67
711.28	317.59
711.61	316.23
711.95	315.10
712.28	313.94
712.61	312.74
712.95	311.67
713.28	310.55
713.61	309.29
713.95	308.09
714.28	307.03
714.61	305.93
714.95	304.91
715.28	303.84
715.61	302.69
715.95	301.58
716.28	300.45
716.61	299.35
716.95	298.10
717.28	296.99
717.61	295.86
717.94	294.79
718.28	293.60
718.61	292.63
718.94	291.59
719.27	290.53
719.61	289.58
719.94	288.64
720.27	287.60
720.60	286.63
720.94	285.63
721.27	284.73
721.60	283.90
721.93	283.00
722.27	282.35
722.60	281.68
722.93	280.75
723.26	280.06
723.59	279.26
723.93	278.58
724.26	277.81
724.59	277.06
724.92	276.34
725.25	275.70
725.59	274.95
725.92	274.29
726.25	273.59
726.58	272.90
726.91	272.24
727.24	271.61
727.57	270.99
727.91	270.28
728.24	269.68
728.57	269.02
728.90	268.43
729.23	267.63
729.56	267.08
729.89	266.60
730.22	266.00
730.55	265.36
730.89	264.80
731.22	264.29
731.55	263.64
731.88	263.08
732.21	262.43
732.54	261.93
732.87	261.33
733.20	260.83
733.53	260.21
733.86	259.66
734.19	259.07
734.52	258.57
734.85	258.37
735.18	257.76
735.51	257.35
735.84	256.86
736.17	256.51
736.50	255.93
736.83	255.83
737.16	255.28
737.49	254.91
737.82	254.40
738.15	253.90
738.48	253.52
738.81	253.03
739.14	252.49
739.47	251.94
739.80	251.45
740.13	251.01
740.46	250.56
740.79	250.05
741.12	249.59
741.45	249.09
741.78	248.39
742.11	248.03
742.44	247.49
742.77	247.13
743.10	246.62
743.43	246.19
743.75	245.39
744.08	245.50
744.41	245.06
744.74	244.60
745.07	244.18
745.40	243.86
745.73	243.67
746.06	243.35
746.39	243.03
746.71	242.62
747.04	242.20
747.37	241.92
747.70	241.65
748.03	241.30
748.36	241.01
748.68	240.77
749.01	240.40
749.34	240.10
749.67	239.74
750.00	239.42
750.33	239.35
750.65	239.09
750.98	238.33
751.31	237.98
751.64	237.78
751.97	237.64
752.29	237.24
752.62	236.70
752.95	236.35
753.28	236.05
753.60	235.81
753.93	235.59
754.26	235.28
754.59	234.86
754.91	234.61
755.24	234.33
755.57	233.98
755.90	233.73
756.22	233.49
756.55	233.19
756.88	232.97
757.20	232.38
757.53	231.95
757.86	231.61
758.19	231.39
758.51	231.07
758.84	230.68
759.17	230.44
759.49	230.36
759.82	230.28
760.15	230.04
760.47	229.76
760.80	229.38
761.13	229.20
761.45	229.00
761.78	228.74
762.11	228.53
762.43	228.33
762.76	228.10
763.08	227.94
763.41	227.76
763.74	227.55
764.06	227.42
764.39	227.22
764.71	227.07
765.04	226.85
765.37	226.67
765.69	226.39
766.02	226.21
766.34	225.89
766.67	225.64
767.00	225.54
767.32	225.49
767.65	225.61
767.97	225.39
768.30	225.26
768.62	225.16
768.95	225.00
769.27	224.86
769.60	224.72
769.92	224.46
770.25	224.25
770.57	224.03
770.90	223.85
771.22	223.74
771.55	223.62
771.87	223.48
772.20	223.33
772.52	223.59
772.85	223.81
773.17	223.73
773.50	223.51
773.82	223.31
774.15	223.10
774.47	222.72
774.80	222.56
775.12	222.33
775.45	222.18
775.77	222.05
776.09	221.93
776.42	221.79
776.74	221.81
777.07	221.77
777.39	221.64
777.72	221.53
778.04	221.47
778.36	221.34
778.69	221.28
779.01	221.23
779.33	220.80
779.66	220.39
779.98	220.33
780.31	220.37
780.63	220.44
780.95	220.44
781.28	220.41
781.60	220.35
781.92	220.32
782.25	220.25
782.57	220.17
782.89	220.08
783.22	220.02
783.54	219.83
783.86	219.67
784.19	219.57
784.51	219.58
784.83	219.50
785.16	219.44
785.48	219.29
785.80	219.20
786.12	219.15
786.45	219.09
786.77	218.98
787.09	218.85
787.42	218.72
787.74	218.63
788.06	218.50
788.38	218.46
788.71	218.42
789.03	218.34
789.35	218.29
789.67	218.22
789.99	218.15
790.32	218.07
790.64	218.11
790.96	218.33
791.28	218.16
791.61	218.02
791.93	217.92
792.25	217.90
792.57	218.13
792.89	218.01
793.21	218.00
793.54	217.90
793.86	217.79
794.18	217.67
794.50	217.58
794.82	217.61
795.14	217.49
795.47	217.49
795.79	217.48
796.11	217.38
796.43	217.30
796.75	217.22
797.07	217.20
797.39	217.13
797.71	216.85
798.04	216.93
798.36	216.97
798.68	217.00
799.00	216.95
799.32	216.69
799.64	216.70
799.96	216.50
800.28	216.54
800.60	216.54
800.92	216.52
801.24	216.44
801.56	216.43
801.89	216.43
802.21	216.38
802.53	216.28
802.85	216.29
803.17	216.40
803.49	216.31
803.81	216.22
804.13	216.15
804.45	216.10
804.77	215.99
805.09	215.97
805.41	215.83
805.73	215.81
806.05	215.62
806.37	215.55
806.69	215.58
807.01	215.48
807.33	215.43
807.65	215.28
807.97	215.38
808.28	215.28
808.60	215.21
808.92	215.18
809.24	215.32
809.56	215.29
809.88	215.17
810.20	215.15
810.52	215.15
810.84	215.02
811.16	214.92
811.48	214.87
811.80	214.95
812.12	214.99
812.43	214.98
812.75	215.00
813.07	214.99
813.39	215.06
813.71	215.05
814.03	214.90
814.35	214.88
814.67	214.74
814.98	214.59
815.30	214.56
815.62	214.38
815.94	214.09
816.26	214.01
816.58	213.89
816.89	213.97
817.21	213.95
817.53	214.02
817.85	213.99
818.17	214.00
818.48	213.76
818.80	213.71
819.12	213.67
819.44	213.60
819.76	213.51
820.07	213.50
820.39	213.45
820.71	213.57
821.03	213.59
821.34	213.55
821.66	213.61
821.98	213.63
822.30	213.63
822.61	213.92
822.93	213.90
823.25	213.90
823.57	213.77
823.88	213.77
824.20	213.76
824.52	213.83
824.83	213.84
825.15	213.85
825.47	213.82
825.79	213.81
826.10	213.81
826.42	213.80
826.74	213.77
827.05	213.78
827.37	213.71
827.69	213.68
828.00	213.72
828.32	213.73
828.64	213.69
828.95	213.86
829.27	213.73
829.58	213.65
829.90	213.67
830.22	213.73
830.53	213.63
830.85	213.60
831.17	213.50
831.48	213.38
831.80	213.40
832.11	213.46
832.43	213.41
832.75	213.38
833.06	213.64
833.38	213.52
833.69	213.45
834.01	213.45
834.32	213.45
834.64	213.31
834.96	213.40
835.27	213.38
835.59	213.28
835.90	213.13
836.22	213.23
836.53	213.19
836.85	213.14
837.16	213.49
837.48	213.50
837.79	213.56
838.11	213.61
838.42	213.59
838.74	213.61
839.05	213.51
839.37	213.57
839.68	213.21
840.00	213.16
840.31	213.27
840.63	213.22
840.94	213.15
841.26	213.18
841.57	213.05
841.88	213.00
842.20	213.01
842.51	213.00
842.83	212.95
843.14	213.26
843.46	213.30
843.77	213.15
844.08	213.07
844.40	212.99
844.71	212.99
845.03	212.95
845.34	212.81
845.65	212.90
845.97	212.83
846.28	212.87
846.60	212.80
846.91	212.68
847.22	212.72
847.54	212.77
847.85	212.75
848.16	212.73
848.48	212.77
848.79	212.83
849.10	212.89
849.42	212.88
849.73	212.58
850.04	212.51
850.36	212.34
850.67	212.40
850.98	212.44
851.30	212.37
851.61	212.36
851.92	212.45
852.23	212.45
852.55	212.47
852.86	212.49
853.17	212.63
853.49	212.75
853.80	212.85
854.11	212.97
854.42	212.99
854.74	212.98
855.05	212.98
855.36	212.81
855.67	212.79
855.99	212.75
856.30	213.15
856.61	213.12
856.92	213.07
857.23	213.04
857.55	213.00
857.86	213.01
858.17	213.04
858.48	212.92
858.79	212.90
859.11	212.94
859.42	212.97
859.73	212.90
860.04	212.77
860.35	212.65
860.66	212.46
860.98	212.51
861.29	212.56
861.60	212.51
861.91	212.54
862.22	212.50
862.53	212.47
862.84	211.99
863.16	212.07
863.47	212.06
863.78	212.05
864.09	212.01
864.40	212.06
864.71	212.06
865.02	212.12
865.33	212.08
865.64	212.01
865.95	211.90
866.27	212.13
866.58	212.16
866.89	212.16
867.20	212.23
867.51	212.13
867.82	212.10
868.13	212.26
868.44	212.21
868.75	212.28
869.06	212.32
869.37	212.35
869.68	212.25
869.99	212.34
870.30	212.33
870.61	212.42
870.92	212.28
871.23	212.29
871.54	212.31
871.85	212.41
872.16	212.39
872.47	212.48
872.78	212.26
873.09	212.22
873.40	212.17
873.71	212.17
874.02	212.16
874.33	212.11
874.64	212.01
874.95	212.06
875.26	212.00
875.56	212.04
875.87	212.05
876.18	212.05
876.49	212.39
876.80	212.46
877.11	212.45
877.42	212.52
877.73	212.50
878.04	212.45
878.35	212.42
878.66	212.46
878.96	212.44
879.27	212.40
879.58	212.44
879.89	212.49
880.20	212.58
880.51	212.60
880.82	212.58
881.12	212.55
881.43	212.49
881.74	212.42
882.05	212.33
882.36	212.33
882.67	212.36
882.97	211.94
883.28	211.91
883.59	211.87
883.90	211.92
884.21	211.92
884.51	211.91
884.82	211.86
885.13	211.86
885.44	211.86
885.74	211.89
886.05	211.88
886.36	211.84
886.67	211.72
886.98	211.88
887.28	211.95
887.59	211.92
887.90	211.98
888.20	212.02
888.51	212.11
888.82	212.02
889.13	212.07
889.43	212.41
889.74	212.33
890.05	212.29
890.35	212.25
890.66	212.22
890.97	212.18
891.28	212.15
891.58	212.17
891.89	212.11
892.20	212.08
892.50	212.05
892.81	212.05
893.12	212.07
893.42	211.93
893.73	211.98
894.04	212.05
894.34	212.02
894.65	211.89
894.95	211.86
895.26	211.96
895.57	212.01
895.87	211.60
896.18	211.69
896.48	211.76
896.79	211.75
897.10	211.81
897.40	211.86
897.71	211.90
898.01	211.85
898.32	211.87
898.63	211.81
898.93	211.81
899.24	211.79
899.54	211.73
899.85	211.66
900.15	211.57
900.46	211.55
900.76	211.60
901.07	211.68
901.38	211.67
901.68	211.66
901.99	211.58
902.29	211.72
902.60	211.60
902.90	211.56
903.21	211.58
903.51	211.56
903.82	211.55
904.12	211.53
904.43	211.51
904.73	211.59
905.03	211.66
905.34	211.98
905.64	211.98
905.95	211.89
906.25	211.91
906.56	211.95
906.86	211.95
907.17	211.88
907.47	211.89
907.77	211.92
908.08	211.90
908.38	211.93
908.69	211.95
908.99	212.09
909.30	212.09
909.60	212.07
909.90	212.10
910.21	212.02
910.51	211.98
910.81	212.03
911.12	212.01
911.42	212.02
911.73	211.75
912.03	211.75
912.33	212.01
912.64	212.01
912.94	212.01
913.24	211.91
913.55	211.90
913.85	211.88
914.15	211.86
914.46	211.90
914.76	211.80
915.06	211.70
915.37	211.64
915.67	211.65
915.97	211.62
916.27	211.50
916.58	211.55
916.88	211.51
917.18	211.46
917.49	211.67
917.79	211.74
918.09	211.73
918.39	211.78
918.70	211.69
919.00	211.63
919.30	211.76
919.60	211.75
919.91	211.76
920.21	211.76
920.51	211.70
920.81	211.60
921.12	211.73
921.42	211.78
921.72	211.80
922.02	211.76
922.32	211.84
922.63	211.87
922.93	212.07
923.23	212.14
923.53	212.13
923.83	211.93
924.13	211.88
924.44	211.89
924.74	211.97
925.04	212.07
925.34	212.13
925.64	211.94
925.94	211.95
926.24	212.06
926.55	212.03
926.85	212.07
927.15	212.16
927.45	212.14
927.75	212.16
928.05	212.17
928.35	212.19
928.65	212.17
928.95	212.22
929.26	212.02
929.56	212.07
929.86	212.06
930.16	212.03
930.46	212.04
930.76	212.06
931.06	211.98
931.36	211.83
931.66	211.90
931.96	211.98
932.26	212.07
932.56	211.98
932.86	212.01
933.16	212.03
933.46	211.95
933.76	211.89
934.06	211.88
934.36	211.97
934.66	211.89
934.96	211.88
935.26	211.84
935.56	211.86
935.86	211.77
936.16	211.74
936.46	211.73
936.76	211.65
937.06	211.60
937.36	211.53
937.66	211.60
937.96	211.53
938.26	211.46
938.56	211.36
938.86	211.41
939.16	211.51
939.46	211.53
939.76	211.58
940.06	211.51
940.35	211.39
940.65	211.24
940.95	211.29
941.25	211.18
941.55	211.21
941.85	211.24
942.15	211.27
942.45	211.40
942.75	211.36
943.04	211.35
943.34	211.35
943.64	211.29
943.94	211.15
944.24	211.13
944.54	211.15
944.84	211.16
945.13	211.07
945.43	210.98
945.73	210.93
946.03	210.90
946.33	210.94
946.62	210.95
946.92	210.88
947.22	210.95
947.52	211.00
947.82	210.99
948.11	210.92
948.41	210.86
948.71	210.71
949.01	210.73
949.31	210.71
949.60	210.73
949.90	210.87
950.20	210.88
950.50	210.90
950.79	210.91
951.09	210.92
951.39	210.95
951.69	210.91
951.98	210.94
952.28	210.95
952.58	210.93
952.87	210.95
953.17	211.09
953.47	211.06
953.76	211.11
954.06	211.12
954.36	211.11
954.66	211.20
954.95	211.37
955.25	211.47
955.55	211.51
955.84	211.46
956.14	211.49
956.44	211.55
956.73	211.47
957.03	211.44
957.32	211.47
957.62	211.48
957.92	211.61
958.21	211.56
958.51	211.95
958.81	212.07
959.10	212.13
959.40	212.21
959.69	212.19
959.99	212.18
960.29	212.16
960.58	212.18
960.88	212.25
961.17	212.17
961.47	212.09
961.76	212.04
962.06	212.10
962.36	212.03
962.65	212.09
962.95	212.16
963.24	212.19
963.54	212.22
963.83	212.20
964.13	212.15
964.42	212.11
964.72	211.88
965.01	211.79
965.31	211.79
965.60	211.76
965.90	211.97
966.19	211.90
966.49	211.89
966.78	211.85
967.08	211.87
967.37	211.83
967.67	211.78
967.96	211.90
968.26	211.87
968.55	211.94
968.85	211.87
969.14	211.85
969.43	211.80
969.73	211.82
970.02	211.80
970.32	211.82
970.61	211.84
970.91	211.68
971.20	211.70
971.49	211.65
971.79	211.63
972.08	211.38
972.38	211.39
972.67	211.39
972.96	211.42
973.26	211.30
973.55	211.48
973.85	211.50
974.14	211.44
974.43	211.42
974.73	211.31
975.02	211.30
975.31	211.29
975.61	211.35
975.90	211.30
976.19	211.31
976.49	211.31
976.78	211.40
977.07	211.47
977.37	211.43
977.66	211.49
977.95	211.39
978.24	211.47
978.54	211.58
978.83	211.55
979.12	211.58
979.42	211.56
979.71	211.46
980.00	211.47
980.29	211.47
980.59	211.47
980.88	211.59
981.17	211.54
981.46	211.56
981.76	211.53
982.05	211.62
982.34	211.68
982.63	211.65
982.93	211.57
983.22	211.64
983.51	211.67
983.80	211.68
984.09	211.75
984.39	211.62
984.68	211.57
984.97	211.61
985.26	211.61
985.55	211.69
985.85	211.58
986.14	211.62
986.43	211.64
986.72	211.62
987.01	211.57
987.30	211.62
987.59	211.62
987.89	211.66
988.18	211.55
988.47	211.44
988.76	211.47
989.05	211.46
989.34	211.36
989.63	211.43
989.92	211.34
990.22	211.25
990.51	211.29
990.80	211.21
991.09	211.27
991.38	211.30
991.67	211.26
991.96	211.29
992.25	211.33
992.54	211.25
992.83	211.26
993.12	211.27
993.41	211.35
993.70	211.43
993.99	211.45
994.28	211.43
994.58	211.51
994.87	211.46
995.16	211.45
995.45	211.43
995.74	211.34
996.03	211.45
996.32	211.50
996.61	211.58
996.90	211.60
997.19	211.57
997.48	211.52
997.77	211.40
998.06	211.44
998.34	211.36
998.63	211.44
998.92	211.45
999.21	211.45
999.50	211.45
999.79	211.38
1000.08	211.42
1000.37	211.50
1000.66	211.42
1000.95	211.50
1001.24	211.56
1001.53	211.54
1001.82	211.49
1002.11	211.45
1002.40	211.57
1002.68	211.66
1002.97	211.92
1003.26	211.83
1003.55	211.85
1003.84	212.00
1004.13	212.07
1004.42	212.12
1004.71	212.12
1004.99	212.11
1005.28	212.16
1005.57	212.09
1005.86	212.03
1006.15	212.00
1006.44	211.92
1006.72	211.97
1007.01	211.91
1007.30	211.94
1007.59	211.95
1007.88	211.96
1008.17	211.95
1008.45	211.85
1008.74	211.73
1009.03	211.57
1009.32	211.55
1009.60	211.48
1009.89	211.39
1010.18	211.23
1010.47	211.16
1010.76	211.13
1011.04	211.09
1011.33	211.03
1011.62	211.09
1011.91	211.14
1012.19	211.09
1012.48	211.13
1012.77	211.14
1013.05	211.28
1013.34	211.19
1013.63	211.23
1013.92	211.23
1014.20	211.13
1014.49	211.17
1014.78	211.21
1015.06	211.07
1015.35	211.15
1015.64	211.27
1015.92	211.33
1016.21	211.37
1016.50	211.35
1016.78	211.40
1017.07	211.43
1017.36	211.43
1017.64	211.38
1017.93	211.39
1018.22	211.38
1018.50	211.35
1018.79	211.41
1019.08	211.20
1019.36	211.28
1019.65	211.19
1019.93	211.34
1020.22	211.44
1020.51	211.53
1020.79	211.43
1021.08	211.00
1021.36	210.95
1021.65	212.75
1021.94	209.85
1022.22	212.00
1022.51	210.20
1022.79	213.30
1023.08	212.25
1023.36	214.35
1023.65	209.95
>>>>>End Processed Spectral Data<<<<<
