SpectraSuite Data File
++++++++++++++++++++++++++++++++++++
Date: Mon Feb 25 16:58:01 EST 2013
User: group
Dark Spectrum Present: No
Reference Spectrum Present: No
Number of Sampled Component Spectra: 1
Spectrometers: USB2E7196
Integration Time (usec): 104000 (USB2E7196)
Spectra Averaged: 20 (USB2E7196)
Boxcar Smoothing: 10 (USB2E7196)
Correct for Electrical Dark: No (USB2E7196)
Strobe/Lamp Enabled: No (USB2E7196)
Correct for Detector Non-linearity: No (USB2E7196)
Correct for Stray Light: No (USB2E7196)
Number of Pixels in Processed Spectrum: 2048
>>>>>Begin Processed Spectral Data<<<<<
339.09	0.00
339.48	198.70
339.86	199.50
340.24	200.70
340.63	202.45
341.01	208.90
341.39	205.90
341.78	206.75
342.16	209.80
342.54	208.85
342.93	198.26
343.31	208.28
343.69	208.83
344.07	209.33
344.46	209.81
344.84	210.23
345.22	210.28
345.60	210.58
345.99	210.77
346.37	210.79
346.75	210.88
347.13	210.91
347.52	210.97
347.90	211.09
348.28	211.03
348.66	211.19
349.05	211.12
349.43	211.20
349.81	211.25
350.19	211.33
350.57	211.35
350.96	211.40
351.34	211.53
351.72	211.57
352.10	211.66
352.48	211.68
352.87	211.74
353.25	211.82
353.63	211.80
354.01	211.84
354.39	212.00
354.77	212.09
355.15	212.21
355.54	212.29
355.92	212.23
356.30	212.34
356.68	212.52
357.06	212.70
357.44	212.69
357.82	212.77
358.20	212.78
358.58	212.83
358.97	212.95
359.35	213.04
359.73	213.22
360.11	213.28
360.49	213.37
360.87	213.33
361.25	213.50
361.63	213.71
362.01	213.85
362.39	213.89
362.77	213.95
363.15	214.10
363.53	214.10
363.91	214.20
364.29	214.18
364.67	213.93
365.05	213.93
365.43	213.98
365.81	214.08
366.19	214.34
366.57	214.55
366.95	214.53
367.33	214.50
367.71	214.50
368.09	214.55
368.47	214.60
368.85	214.63
369.23	214.60
369.61	214.45
369.99	214.50
370.37	214.51
370.75	214.66
371.13	214.50
371.51	214.48
371.89	214.45
372.27	214.46
372.65	214.53
373.03	214.51
373.41	214.47
373.78	214.39
374.16	214.09
374.54	213.96
374.92	213.82
375.30	213.70
375.68	213.47
376.06	213.45
376.44	213.39
376.82	213.42
377.19	213.42
377.57	213.31
377.95	213.17
378.33	213.04
378.71	212.76
379.09	212.85
379.47	212.81
379.84	212.70
380.22	212.67
380.60	212.54
380.98	212.38
381.36	212.32
381.73	212.22
382.11	212.30
382.49	212.24
382.87	212.24
383.25	212.24
383.62	212.69
384.00	212.59
384.38	212.51
384.76	212.53
385.13	212.60
385.51	212.60
385.89	212.49
386.27	212.46
386.64	212.49
387.02	212.24
387.40	212.19
387.78	212.18
388.15	212.14
388.53	212.12
388.91	212.15
389.29	212.10
389.66	212.08
390.04	211.96
390.42	212.04
390.79	212.00
391.17	212.00
391.55	211.57
391.92	211.55
392.30	211.60
392.68	211.50
393.05	211.47
393.43	211.47
393.81	211.46
394.18	211.36
394.56	211.35
394.94	211.55
395.31	211.49
395.69	211.61
396.06	211.63
396.44	211.62
396.82	211.66
397.19	211.81
397.57	211.87
397.95	212.04
398.32	211.87
398.70	211.97
399.07	212.10
399.45	212.21
399.82	212.24
400.20	212.28
400.58	212.28
400.95	212.20
401.33	212.36
401.70	212.75
402.08	212.92
402.45	213.05
402.83	213.17
403.20	213.35
403.58	213.41
403.95	213.65
404.33	213.90
404.71	214.06
405.08	214.55
405.46	214.72
405.83	214.91
406.21	215.22
406.58	215.50
406.96	215.72
407.33	216.06
407.70	216.48
408.08	217.12
408.45	217.76
408.83	218.32
409.20	218.79
409.58	219.08
409.95	219.79
410.33	220.48
410.70	221.05
411.08	221.86
411.45	222.74
411.82	223.52
412.20	224.45
412.57	225.68
412.95	226.29
413.32	227.43
413.69	228.57
414.07	229.84
414.44	231.22
414.82	232.66
415.19	234.24
415.56	235.84
415.94	237.42
416.31	239.29
416.68	241.15
417.06	243.30
417.43	245.51
417.81	247.90
418.18	250.38
418.55	253.03
418.93	255.83
419.30	258.74
419.67	261.90
420.04	265.08
420.42	268.32
420.79	272.42
421.16	276.40
421.54	280.59
421.91	284.84
422.28	289.24
422.66	293.88
423.03	298.50
423.40	303.25
423.77	308.34
424.15	313.49
424.52	318.90
424.89	324.85
425.26	330.55
425.64	336.06
426.01	342.14
426.38	348.61
426.75	355.04
427.13	361.71
427.50	368.65
427.87	376.06
428.24	383.42
428.61	390.38
428.99	398.13
429.36	406.52
429.73	414.91
430.10	423.18
430.47	431.83
430.85	440.85
431.22	450.46
431.59	460.56
431.96	470.34
432.33	481.18
432.70	491.60
433.08	503.74
433.45	515.21
433.82	526.62
434.19	539.32
434.56	551.83
434.93	564.00
435.30	576.21
435.68	589.73
436.05	603.10
436.42	616.55
436.79	628.81
437.16	642.05
437.53	655.98
437.90	669.95
438.27	683.64
438.64	697.90
439.01	711.37
439.38	723.45
439.75	735.18
440.13	748.43
440.50	761.13
440.87	771.87
441.24	783.01
441.61	795.11
441.98	804.35
442.35	815.02
442.72	825.78
443.09	836.00
443.46	842.74
443.83	847.68
444.20	851.92
444.57	857.80
444.94	861.00
445.31	864.43
445.68	867.77
446.05	870.00
446.42	869.78
446.79	869.10
447.16	868.30
447.53	868.01
447.90	864.03
448.27	859.87
448.64	853.65
449.01	849.26
449.37	841.07
449.74	833.03
450.11	823.33
450.48	812.49
450.85	801.77
451.22	792.55
451.59	783.56
451.96	775.03
452.33	763.37
452.70	753.07
453.07	740.48
453.43	727.63
453.80	715.11
454.17	703.27
454.54	692.02
454.91	679.85
455.28	667.91
455.65	656.86
456.02	645.77
456.38	636.13
456.75	624.21
457.12	614.36
457.49	604.66
457.86	595.11
458.23	586.99
458.59	577.92
458.96	568.61
459.33	560.68
459.70	552.69
460.07	546.31
460.43	538.85
460.80	531.90
461.17	525.68
461.54	519.18
461.91	512.92
462.27	506.75
462.64	501.57
463.01	495.74
463.38	490.08
463.74	484.36
464.11	479.57
464.48	475.34
464.85	470.56
465.21	466.96
465.58	463.18
465.95	458.54
466.32	454.62
466.68	450.78
467.05	446.88
467.42	442.96
467.78	438.96
468.15	435.23
468.52	432.25
468.88	428.67
469.25	425.41
469.62	422.83
469.98	419.87
470.35	417.05
470.72	414.38
471.08	411.46
471.45	409.10
471.82	406.70
472.18	403.99
472.55	402.14
472.92	399.82
473.28	397.68
473.65	395.77
474.02	393.90
474.38	392.42
474.75	390.98
475.11	389.64
475.48	388.47
475.85	387.40
476.21	386.37
476.58	385.52
476.94	385.00
477.31	384.11
477.67	383.44
478.04	382.94
478.41	382.65
478.77	382.62
479.14	382.17
479.50	381.94
479.87	382.05
480.23	381.92
480.60	381.84
480.96	381.98
481.33	382.35
481.69	382.76
482.06	382.91
482.42	383.17
482.79	383.50
483.15	384.05
483.52	384.97
483.88	385.65
484.25	386.29
484.61	386.94
484.98	387.85
485.34	388.99
485.71	390.26
486.07	391.52
486.44	392.65
486.80	394.24
487.17	395.73
487.53	397.47
487.90	399.39
488.26	401.46
488.62	403.54
488.99	405.62
489.35	407.73
489.72	410.15
490.08	412.67
490.44	415.12
490.81	417.72
491.17	420.34
491.54	423.20
491.90	426.14
492.26	429.27
492.63	432.55
492.99	435.78
493.36	439.19
493.72	442.84
494.08	446.52
494.45	450.32
494.81	454.44
495.17	458.38
495.54	462.55
495.90	466.73
496.26	471.00
496.63	475.25
496.99	479.86
497.35	484.48
497.72	489.28
498.08	494.27
498.44	499.18
498.80	504.36
499.17	509.56
499.53	514.86
499.89	520.29
500.26	525.33
500.62	530.45
500.98	535.90
501.34	541.34
501.71	546.77
502.07	552.25
502.43	557.70
502.79	562.95
503.16	568.53
503.52	574.09
503.88	579.69
504.24	585.34
504.60	590.85
504.97	596.44
505.33	601.95
505.69	607.92
506.05	613.73
506.41	619.19
506.78	624.52
507.14	629.86
507.50	635.22
507.86	640.72
508.22	646.26
508.59	651.30
508.95	656.54
509.31	661.74
509.67	666.90
510.03	672.06
510.39	677.52
510.75	682.54
511.12	687.53
511.48	692.57
511.84	697.67
512.20	702.63
512.56	707.60
512.92	712.44
513.28	716.76
513.64	721.30
514.00	725.77
514.37	730.31
514.73	734.84
515.09	739.15
515.45	743.45
515.81	747.45
516.17	751.38
516.53	755.08
516.89	758.88
517.25	762.50
517.61	765.96
517.97	769.28
518.33	772.55
518.69	776.01
519.05	779.18
519.41	782.22
519.77	785.47
520.13	788.19
520.49	790.87
520.85	793.52
521.21	796.42
521.57	799.25
521.93	801.71
522.29	804.35
522.65	806.72
523.01	809.21
523.37	811.60
523.73	814.34
524.09	816.85
524.45	819.21
524.81	821.66
525.17	824.13
525.53	826.60
525.89	828.90
526.25	831.02
526.61	832.85
526.97	834.91
527.33	836.87
527.68	839.27
528.04	841.51
528.40	843.47
528.76	845.13
529.12	847.17
529.48	849.65
529.84	851.53
530.20	853.63
530.56	855.67
530.91	857.88
531.27	860.03
531.63	861.91
531.99	864.09
532.35	865.95
532.71	867.87
533.07	869.97
533.42	872.34
533.78	874.38
534.14	876.78
534.50	878.53
534.86	880.74
535.21	882.55
535.57	884.82
535.93	886.91
536.29	889.10
536.65	891.23
537.00	892.94
537.36	894.95
537.72	896.83
538.08	898.68
538.44	900.70
538.79	902.62
539.15	904.70
539.51	906.82
539.87	909.04
540.22	911.23
540.58	913.65
540.94	915.72
541.29	917.68
541.65	919.55
542.01	922.08
542.37	923.99
542.72	926.15
543.08	927.67
543.44	930.07
543.79	931.92
544.15	933.80
544.51	936.23
544.87	938.48
545.22	940.63
545.58	942.65
545.94	944.47
546.29	946.10
546.65	947.92
547.01	949.40
547.36	951.21
547.72	952.92
548.07	954.13
548.43	955.40
548.79	956.74
549.14	958.38
549.50	959.82
549.86	961.37
550.21	962.85
550.57	964.94
550.92	966.27
551.28	967.94
551.64	969.39
551.99	970.83
552.35	972.28
552.70	973.65
553.06	975.31
553.41	977.00
553.77	978.85
554.13	980.62
554.48	982.47
554.84	984.37
555.19	986.04
555.55	988.00
555.90	989.51
556.26	991.21
556.61	992.43
556.97	993.63
557.32	995.22
557.68	996.50
558.03	997.47
558.39	998.40
558.74	999.77
559.10	1001.17
559.45	1002.20
559.81	1003.56
560.16	1004.63
560.52	1005.87
560.87	1006.95
561.23	1007.64
561.58	1008.93
561.94	1009.60
562.29	1010.05
562.64	1010.84
563.00	1011.36
563.35	1012.52
563.71	1013.80
564.06	1014.86
564.42	1016.21
564.77	1017.26
565.12	1018.48
565.48	1019.93
565.83	1021.25
566.19	1022.28
566.54	1022.93
566.89	1023.70
567.25	1024.62
567.60	1025.88
567.96	1027.00
568.31	1028.00
568.66	1028.79
569.02	1028.93
569.37	1029.41
569.72	1030.24
570.08	1030.55
570.43	1031.14
570.78	1031.43
571.14	1031.24
571.49	1031.09
571.84	1030.93
572.20	1030.45
572.55	1030.05
572.90	1029.19
573.26	1028.68
573.61	1027.90
573.96	1027.32
574.31	1026.64
574.67	1025.57
575.02	1024.24
575.37	1022.79
575.72	1021.30
576.08	1020.37
576.43	1019.09
576.78	1018.10
577.13	1016.73
577.49	1015.66
577.84	1014.05
578.19	1012.75
578.54	1011.76
578.90	1011.03
579.25	1009.55
579.60	1007.86
579.95	1006.18
580.30	1004.95
580.66	1003.40
581.01	1001.81
581.36	999.87
581.71	997.91
582.06	996.24
582.42	994.68
582.77	992.62
583.12	990.70
583.47	988.65
583.82	986.84
584.17	984.71
584.53	982.92
584.88	980.76
585.23	978.86
585.58	976.62
585.93	974.28
586.28	972.20
586.63	970.35
586.98	968.65
587.34	966.95
587.69	964.63
588.04	962.54
588.39	960.64
588.74	958.61
589.09	956.76
589.44	954.20
589.79	952.05
590.14	950.14
590.49	947.97
590.84	945.53
591.19	943.51
591.54	941.44
591.89	938.68
592.25	936.58
592.60	934.04
592.95	931.42
593.30	928.71
593.65	925.51
594.00	922.40
594.35	920.59
594.70	917.79
595.05	915.25
595.40	912.56
595.75	909.47
596.10	906.89
596.45	904.15
596.80	901.82
597.15	899.20
597.50	896.45
597.85	893.80
598.19	891.23
598.54	888.47
598.89	885.82
599.24	883.37
599.59	880.62
599.94	878.04
600.29	875.45
600.64	872.70
600.99	870.12
601.34	867.73
601.69	863.73
602.04	860.69
602.39	857.63
602.74	854.96
603.08	852.69
603.43	850.34
603.78	847.61
604.13	844.62
604.48	841.95
604.83	839.31
605.18	836.77
605.53	833.95
605.87	831.05
606.22	828.18
606.57	825.29
606.92	822.09
607.27	819.23
607.62	816.16
607.96	813.52
608.31	810.94
608.66	807.88
609.01	805.07
609.36	802.14
609.70	799.22
610.05	795.95
610.40	792.62
610.75	789.19
611.10	786.44
611.44	783.01
611.79	779.44
612.14	776.12
612.49	772.50
612.83	769.45
613.18	766.05
613.53	762.75
613.88	759.31
614.22	756.16
614.57	752.74
614.92	749.79
615.27	746.50
615.61	743.06
615.96	739.83
616.31	736.87
616.65	734.13
617.00	730.90
617.35	727.73
617.70	724.50
618.04	721.10
618.39	717.21
618.74	714.38
619.08	711.13
619.43	707.79
619.78	704.94
620.12	701.88
620.47	698.88
620.82	695.43
621.16	692.14
621.51	689.05
621.85	685.98
622.20	682.56
622.55	679.18
622.89	676.05
623.24	673.06
623.59	669.69
623.93	666.24
624.28	663.40
624.62	660.65
624.97	657.76
625.32	654.68
625.66	651.92
626.01	648.74
626.35	645.99
626.70	642.90
627.04	639.81
627.39	636.74
627.73	633.90
628.08	631.34
628.43	628.38
628.77	625.33
629.12	622.35
629.46	619.75
629.81	617.04
630.15	614.09
630.50	611.12
630.84	608.13
631.19	605.35
631.53	602.57
631.88	599.45
632.22	596.21
632.57	593.72
632.91	590.94
633.26	588.18
633.60	585.32
633.95	582.80
634.29	580.12
634.64	577.45
634.98	574.49
635.32	571.96
635.67	569.71
636.01	567.33
636.36	564.75
636.70	562.28
637.05	559.86
637.39	557.52
637.73	555.27
638.08	553.23
638.42	550.91
638.77	548.54
639.11	546.18
639.45	544.07
639.80	541.31
640.14	538.70
640.49	536.33
640.83	533.80
641.17	531.40
641.52	528.95
641.86	526.59
642.20	524.34
642.55	521.52
642.89	519.00
643.23	516.42
643.58	514.24
643.92	511.65
644.26	509.28
644.61	506.91
644.95	504.32
645.29	501.83
645.64	499.39
645.98	496.97
646.32	494.63
646.66	492.13
647.01	489.96
647.35	487.97
647.69	485.60
648.04	483.53
648.38	481.21
648.72	479.05
649.06	476.70
649.41	474.50
649.75	472.42
650.09	470.28
650.43	468.16
650.78	465.70
651.12	463.52
651.46	461.25
651.80	459.17
652.14	457.12
652.49	455.08
652.83	452.97
653.17	450.67
653.51	448.48
653.85	446.47
654.20	444.47
654.54	442.24
654.88	440.15
655.22	438.00
655.56	435.88
655.90	433.73
656.25	431.58
656.59	429.50
656.93	427.57
657.27	425.60
657.61	423.44
657.95	421.59
658.29	419.62
658.64	417.95
658.98	415.82
659.32	413.75
659.66	411.68
660.00	409.66
660.34	407.71
660.68	405.87
661.02	403.98
661.36	402.12
661.70	400.26
662.05	398.51
662.39	396.83
662.73	395.23
663.07	393.68
663.41	391.99
663.75	390.22
664.09	388.44
664.43	386.60
664.77	385.08
665.11	383.30
665.45	381.69
665.79	379.90
666.13	378.32
666.47	376.81
666.81	375.35
667.15	373.85
667.49	372.45
667.83	371.13
668.17	369.63
668.51	368.22
668.85	366.88
669.19	365.59
669.53	364.03
669.87	362.53
670.21	360.95
670.55	359.58
670.89	358.42
671.23	357.09
671.57	355.85
671.91	354.50
672.25	353.33
672.58	352.01
672.92	350.66
673.26	349.48
673.60	348.32
673.94	346.94
674.28	345.69
674.62	344.48
674.96	343.17
675.30	342.00
675.64	340.78
675.97	339.55
676.31	338.33
676.65	337.21
676.99	336.35
677.33	335.21
677.67	334.08
678.01	332.80
678.34	331.70
678.68	330.50
679.02	329.21
679.36	327.99
679.70	326.81
680.04	325.70
680.37	324.54
680.71	323.29
681.05	322.21
681.39	321.17
681.73	320.13
682.06	319.11
682.40	318.06
682.74	317.07
683.08	316.20
683.42	315.14
683.75	314.11
684.09	312.88
684.43	311.87
684.77	310.83
685.10	309.88
685.44	308.85
685.78	307.95
686.12	307.11
686.45	306.10
686.79	305.20
687.13	304.41
687.46	303.48
687.80	302.73
688.14	301.86
688.48	300.93
688.81	299.94
689.15	299.07
689.49	298.19
689.82	297.27
690.16	296.12
690.50	295.23
690.83	294.33
691.17	293.37
691.51	292.47
691.84	291.69
692.18	290.82
692.52	290.07
692.85	289.28
693.19	288.59
693.52	287.91
693.86	286.98
694.20	286.13
694.53	285.33
694.87	284.42
695.21	283.65
695.54	282.89
695.88	282.09
696.21	281.22
696.55	280.48
696.88	279.69
697.22	279.00
697.56	278.29
697.89	277.56
698.23	276.85
698.56	276.10
698.90	275.42
699.23	274.62
699.57	273.89
699.90	273.13
700.24	272.38
700.58	271.67
700.91	271.21
701.25	270.79
701.58	270.26
701.92	269.74
702.25	269.07
702.59	268.34
702.92	267.74
703.26	267.07
703.59	266.48
703.93	266.22
704.26	265.65
704.60	265.09
704.93	264.43
705.26	263.80
705.60	263.31
705.93	262.60
706.27	262.26
706.60	261.88
706.94	261.50
707.27	260.88
707.61	260.36
707.94	259.79
708.27	258.99
708.61	258.38
708.94	257.72
709.28	257.33
709.61	256.95
709.94	256.46
710.28	256.10
710.61	255.64
710.95	254.85
711.28	254.57
711.61	254.08
711.95	253.74
712.28	253.30
712.61	252.85
712.95	252.74
713.28	252.40
713.61	251.88
713.95	251.40
714.28	251.03
714.61	250.57
714.95	250.18
715.28	249.72
715.61	249.40
715.95	249.08
716.28	248.57
716.61	248.20
716.95	247.80
717.28	247.31
717.61	246.90
717.94	246.46
718.28	245.90
718.61	245.55
718.94	245.14
719.27	244.83
719.61	244.56
719.94	244.04
720.27	243.55
720.60	243.14
720.94	242.78
721.27	242.42
721.60	242.16
721.93	241.84
722.27	241.66
722.60	241.33
722.93	241.01
723.26	240.71
723.59	240.27
723.93	240.07
724.26	239.84
724.59	239.50
724.92	239.28
725.25	239.09
725.59	238.83
725.92	238.64
726.25	238.32
726.58	238.02
726.91	237.71
727.24	237.48
727.57	237.24
727.91	236.90
728.24	236.77
728.57	236.47
728.90	236.27
729.23	235.99
729.56	235.88
729.89	235.58
730.22	235.34
730.55	235.13
730.89	234.80
731.22	234.50
731.55	234.29
731.88	234.06
732.21	233.80
732.54	233.50
732.87	233.25
733.20	233.05
733.53	232.80
733.86	232.57
734.19	232.24
734.52	232.06
734.85	232.16
735.18	231.83
735.51	231.77
735.84	231.50
736.17	231.35
736.50	230.97
736.83	231.27
737.16	231.10
737.49	230.98
737.82	230.77
738.15	230.65
738.48	230.38
738.81	230.18
739.14	229.88
739.47	229.66
739.80	229.54
740.13	229.39
740.46	229.19
740.79	229.01
741.12	228.88
741.45	228.64
741.78	228.17
742.11	228.08
742.44	227.77
742.77	227.66
743.10	227.43
743.43	227.25
743.75	226.67
744.08	226.97
744.41	226.67
744.74	226.50
745.07	226.29
745.40	226.28
745.73	226.24
746.06	226.17
746.39	226.08
746.71	225.78
747.04	225.63
747.37	225.44
747.70	225.37
748.03	225.30
748.36	225.28
748.68	225.18
749.01	224.99
749.34	224.85
749.67	224.78
750.00	224.63
750.33	224.80
750.65	224.71
750.98	224.16
751.31	224.17
751.64	224.14
751.97	224.29
752.29	224.14
752.62	223.90
752.95	223.78
753.28	223.60
753.60	223.60
753.93	223.48
754.26	223.42
754.59	223.18
754.91	223.00
755.24	222.80
755.57	222.73
755.90	222.58
756.22	222.44
756.55	222.19
756.88	222.11
757.20	221.69
757.53	221.43
757.86	221.24
758.19	221.07
758.51	220.91
758.84	220.54
759.17	220.41
759.49	220.30
759.82	220.43
760.15	220.47
760.47	220.28
760.80	220.20
761.13	220.13
761.45	220.10
761.78	219.97
762.11	219.85
762.43	219.70
762.76	219.61
763.08	219.67
763.41	219.69
763.74	219.62
764.06	219.57
764.39	219.55
764.71	219.55
765.04	219.47
765.37	219.41
765.69	219.32
766.02	219.25
766.34	219.19
766.67	218.91
767.00	218.82
767.32	218.98
767.65	219.16
767.97	219.10
768.30	219.04
768.62	219.03
768.95	218.94
769.27	218.85
769.60	218.85
769.92	218.67
770.25	218.50
770.57	218.31
770.90	218.25
771.22	218.16
771.55	218.05
771.87	218.02
772.20	217.92
772.52	218.13
772.85	218.44
773.17	218.39
773.50	218.34
773.82	218.26
774.15	217.99
774.47	217.68
774.80	217.58
775.12	217.50
775.45	217.38
775.77	217.33
776.09	217.31
776.42	217.20
776.74	217.23
777.07	217.16
777.39	217.08
777.72	216.97
778.04	216.90
778.36	216.90
778.69	216.86
779.01	216.78
779.33	216.45
779.66	215.99
779.98	215.86
780.31	215.81
780.63	215.93
780.95	215.95
781.28	215.90
781.60	215.82
781.92	215.75
782.25	215.69
782.57	215.69
782.89	215.63
783.22	215.58
783.54	215.48
783.86	215.45
784.19	215.49
784.51	215.55
784.83	215.49
785.16	215.37
785.48	215.27
785.80	215.28
786.12	215.28
786.45	215.25
786.77	215.24
787.09	215.11
787.42	214.90
787.74	214.83
788.06	214.72
788.38	214.70
788.71	214.67
789.03	214.67
789.35	214.68
789.67	214.56
789.99	214.50
790.32	214.38
790.64	214.42
790.96	214.68
791.28	214.52
791.61	214.42
791.93	214.42
792.25	214.44
792.57	214.65
792.89	214.54
793.21	214.57
793.54	214.50
793.86	214.43
794.18	214.47
794.50	214.41
794.82	214.45
795.14	214.46
795.47	214.45
795.79	214.42
796.11	214.27
796.43	214.24
796.75	214.34
797.07	214.34
797.39	214.27
797.71	213.97
798.04	214.00
798.36	214.07
798.68	214.03
799.00	213.94
799.32	213.75
799.64	213.82
799.96	213.81
800.28	213.84
800.60	213.87
800.92	213.86
801.24	213.84
801.56	213.79
801.89	213.68
802.21	213.73
802.53	213.64
802.85	213.74
803.17	213.93
803.49	213.79
803.81	213.81
804.13	213.82
804.45	213.79
804.77	213.85
805.09	213.80
805.41	213.73
805.73	213.69
806.05	213.52
806.37	213.50
806.69	213.38
807.01	213.32
807.33	213.36
807.65	213.16
807.97	213.35
808.28	213.32
808.60	213.31
808.92	213.25
809.24	213.49
809.56	213.38
809.88	213.29
810.20	213.36
810.52	213.36
810.84	213.26
811.16	213.21
811.48	213.12
811.80	213.27
812.12	213.30
812.43	213.35
812.75	213.40
813.07	213.35
813.39	213.39
813.71	213.32
814.03	213.23
814.35	213.25
814.67	213.03
814.98	212.96
815.30	213.00
815.62	212.91
815.94	212.65
816.26	212.73
816.58	212.56
816.89	212.42
817.21	212.34
817.53	212.39
817.85	212.43
818.17	212.40
818.48	212.23
818.80	212.24
819.12	212.13
819.44	212.02
819.76	211.90
820.07	211.91
820.39	211.97
820.71	212.08
821.03	212.08
821.34	212.01
821.66	212.07
821.98	212.10
822.30	212.11
822.61	212.31
822.93	212.27
823.25	212.30
823.57	212.35
823.88	212.48
824.20	212.37
824.52	212.32
824.83	212.24
825.15	212.23
825.47	212.22
825.79	212.32
826.10	212.33
826.42	212.35
826.74	212.35
827.05	212.35
827.37	212.29
827.69	212.27
828.00	212.32
828.32	212.32
828.64	212.26
828.95	212.45
829.27	212.27
829.58	212.20
829.90	212.17
830.22	212.16
830.53	212.04
830.85	212.05
831.17	211.95
831.48	212.05
831.80	212.00
832.11	211.98
832.43	211.85
832.75	211.85
833.06	212.04
833.38	211.92
833.69	211.91
834.01	211.96
834.32	211.92
834.64	211.89
834.96	211.94
835.27	211.95
835.59	211.81
835.90	211.81
836.22	211.84
836.53	211.81
836.85	211.78
837.16	212.07
837.48	212.11
837.79	212.29
838.11	212.27
838.42	212.29
838.74	212.35
839.05	212.38
839.37	212.42
839.68	212.16
840.00	212.18
840.31	212.17
840.63	212.05
840.94	212.08
841.26	212.00
841.57	211.87
841.88	211.85
842.20	211.79
842.51	211.75
842.83	211.76
843.14	212.08
843.46	212.08
843.77	211.91
844.08	211.84
844.40	211.76
844.71	211.76
845.03	211.73
845.34	211.65
845.65	211.56
845.97	211.51
846.28	211.59
846.60	211.59
846.91	211.50
847.22	211.50
847.54	211.50
847.85	211.55
848.16	211.52
848.48	211.45
848.79	211.56
849.10	211.65
849.42	211.68
849.73	211.37
850.04	211.33
850.36	211.21
850.67	211.31
850.98	211.30
851.30	211.31
851.61	211.31
851.92	211.39
852.23	211.59
852.55	211.60
852.86	211.63
853.17	211.68
853.49	211.74
853.80	211.90
854.11	211.94
854.42	211.97
854.74	211.99
855.05	211.99
855.36	211.81
855.67	211.70
855.99	211.62
856.30	212.02
856.61	212.10
856.92	212.15
857.23	212.11
857.55	212.10
857.86	211.99
858.17	212.13
858.48	211.96
858.79	211.84
859.11	211.91
859.42	211.93
859.73	211.88
860.04	211.85
860.35	211.65
860.66	211.57
860.98	211.54
861.29	211.60
861.60	211.64
861.91	211.74
862.22	211.75
862.53	211.71
862.84	211.29
863.16	211.28
863.47	211.20
863.78	211.22
864.09	211.17
864.40	211.28
864.71	211.21
865.02	211.32
865.33	211.31
865.64	211.27
865.95	211.23
866.27	211.47
866.58	211.44
866.89	211.53
867.20	211.53
867.51	211.57
867.82	211.47
868.13	211.52
868.44	211.38
868.75	211.49
869.06	211.49
869.37	211.51
869.68	211.41
869.99	211.46
870.30	211.47
870.61	211.56
870.92	211.45
871.23	211.41
871.54	211.47
871.85	211.55
872.16	211.59
872.47	211.57
872.78	211.31
873.09	211.38
873.40	211.44
873.71	211.49
874.02	211.40
874.33	211.42
874.64	211.35
874.95	211.56
875.26	211.37
875.56	211.45
875.87	211.50
876.18	211.56
876.49	211.91
876.80	211.87
877.11	211.75
877.42	211.79
877.73	211.81
878.04	211.70
878.35	211.66
878.66	211.66
878.96	211.60
879.27	211.58
879.58	211.55
879.89	211.45
880.20	211.48
880.51	211.52
880.82	211.59
881.12	211.61
881.43	211.46
881.74	211.53
882.05	211.50
882.36	211.50
882.67	211.42
882.97	210.98
883.28	210.91
883.59	210.94
883.90	210.98
884.21	211.02
884.51	210.97
884.82	210.98
885.13	210.95
885.44	210.99
885.74	210.94
886.05	210.90
886.36	210.86
886.67	210.76
886.98	210.92
887.28	210.94
887.59	210.94
887.90	210.94
888.20	210.87
888.51	210.87
888.82	210.76
889.13	210.81
889.43	211.17
889.74	211.16
890.05	211.09
890.35	211.03
890.66	210.95
890.97	210.97
891.28	210.90
891.58	210.96
891.89	210.91
892.20	210.91
892.50	210.90
892.81	210.93
893.12	210.91
893.42	210.75
893.73	210.76
894.04	210.75
894.34	210.80
894.65	210.86
894.95	210.85
895.26	210.92
895.57	211.13
895.87	210.77
896.18	210.86
896.48	210.96
896.79	210.96
897.10	210.99
897.40	211.03
897.71	211.15
898.01	211.09
898.32	211.20
898.63	211.20
898.93	211.25
899.24	211.29
899.54	211.31
899.85	211.31
900.15	211.23
900.46	211.25
900.76	211.32
901.07	211.25
901.38	211.25
901.68	211.27
901.99	211.07
902.29	211.07
902.60	211.05
902.90	211.03
903.21	211.10
903.51	211.14
903.82	211.19
904.12	211.17
904.43	211.20
904.73	211.15
905.03	211.16
905.34	211.52
905.64	211.46
905.95	211.46
906.25	211.50
906.56	211.56
906.86	211.57
907.17	211.53
907.47	211.63
907.77	211.60
908.08	211.56
908.38	211.61
908.69	211.65
908.99	211.72
909.30	211.75
909.60	211.75
909.90	211.71
910.21	211.61
910.51	211.48
910.81	211.47
911.12	211.51
911.42	211.57
911.73	211.20
912.03	211.30
912.33	211.45
912.64	211.47
912.94	211.38
913.24	211.33
913.55	211.24
913.85	211.20
914.15	211.26
914.46	211.33
914.76	211.29
915.06	211.29
915.37	211.16
915.67	211.13
915.97	211.04
916.27	210.97
916.58	211.01
916.88	211.03
917.18	210.91
917.49	211.10
917.79	211.08
918.09	211.15
918.39	211.19
918.70	211.07
919.00	211.03
919.30	211.20
919.60	211.17
919.91	211.16
920.21	211.20
920.51	211.18
920.81	211.09
921.12	211.11
921.42	211.16
921.72	211.27
922.02	211.27
922.32	211.38
922.63	211.39
922.93	211.54
923.23	211.59
923.53	211.67
923.83	211.47
924.13	211.54
924.44	211.53
924.74	211.57
925.04	211.70
925.34	211.73
925.64	211.64
925.94	211.63
926.24	211.74
926.55	211.70
926.85	211.74
927.15	211.80
927.45	211.84
927.75	211.81
928.05	211.76
928.35	211.81
928.65	211.89
928.95	211.92
929.26	211.81
929.56	211.86
929.86	211.92
930.16	211.89
930.46	211.83
930.76	211.83
931.06	211.58
931.36	211.40
931.66	211.43
931.96	211.40
932.26	211.40
932.56	211.34
932.86	211.30
933.16	211.28
933.46	211.20
933.76	211.14
934.06	211.19
934.36	211.29
934.66	211.13
934.96	211.06
935.26	211.10
935.56	211.10
935.86	211.01
936.16	210.91
936.46	210.88
936.76	210.88
937.06	210.88
937.36	210.97
937.66	211.11
937.96	211.08
938.26	211.07
938.56	211.11
938.86	211.16
939.16	211.28
939.46	211.28
939.76	211.37
940.06	211.36
940.35	211.27
940.65	211.15
940.95	211.24
941.25	211.08
941.55	211.01
941.85	211.04
942.15	211.10
942.45	211.26
942.75	211.22
943.04	211.22
943.34	211.28
943.64	211.22
943.94	211.10
944.24	211.11
944.54	211.15
944.84	211.12
945.13	211.10
945.43	211.00
945.73	211.06
946.03	211.01
946.33	210.96
946.62	210.99
946.92	210.98
947.22	211.06
947.52	211.19
947.82	211.25
948.11	211.23
948.41	211.09
948.71	210.86
949.01	210.91
949.31	210.86
949.60	210.88
949.90	210.99
950.20	210.91
950.50	210.90
950.79	210.85
951.09	210.83
951.39	210.75
951.69	210.77
951.98	210.81
952.28	210.83
952.58	210.83
952.87	210.81
953.17	210.80
953.47	210.74
953.76	210.64
954.06	210.60
954.36	210.53
954.66	210.64
954.95	210.78
955.25	210.85
955.55	210.92
955.84	210.78
956.14	210.79
956.44	210.82
956.73	210.81
957.03	210.75
957.32	210.83
957.62	210.88
957.92	210.96
958.21	210.94
958.51	211.29
958.81	211.34
959.10	211.37
959.40	211.54
959.69	211.52
959.99	211.66
960.29	211.64
960.58	211.70
960.88	211.83
961.17	211.80
961.47	211.84
961.76	211.79
962.06	211.90
962.36	211.83
962.65	211.89
962.95	211.86
963.24	211.95
963.54	211.93
963.83	211.87
964.13	211.81
964.42	211.70
964.72	211.45
965.01	211.42
965.31	211.36
965.60	211.20
965.90	211.49
966.19	211.42
966.49	211.49
966.78	211.42
967.08	211.40
967.37	211.44
967.67	211.33
967.96	211.42
968.26	211.38
968.55	211.46
968.85	211.45
969.14	211.49
969.43	211.50
969.73	211.47
970.02	211.54
970.32	211.48
970.61	211.52
970.91	211.50
971.20	211.45
971.49	211.50
971.79	211.57
972.08	211.25
972.38	211.27
972.67	211.20
972.96	211.26
973.26	211.18
973.55	211.31
973.85	211.30
974.14	211.31
974.43	211.37
974.73	211.31
975.02	211.27
975.31	211.25
975.61	211.21
975.90	211.12
976.19	211.10
976.49	211.23
976.78	211.18
977.07	211.09
977.37	211.14
977.66	211.13
977.95	211.12
978.24	211.15
978.54	211.20
978.83	211.22
979.12	211.21
979.42	211.20
979.71	211.12
980.00	211.08
980.29	211.04
980.59	210.88
980.88	211.03
981.17	211.02
981.46	210.99
981.76	211.02
982.05	211.27
982.34	211.23
982.63	211.20
982.93	211.22
983.22	211.34
983.51	211.33
983.80	211.39
984.09	211.39
984.39	211.41
984.68	211.34
984.97	211.36
985.26	211.31
985.55	211.31
985.85	211.23
986.14	211.32
986.43	211.37
986.72	211.45
987.01	211.35
987.30	211.36
987.59	211.37
987.89	211.35
988.18	211.20
988.47	211.21
988.76	211.11
989.05	211.08
989.34	211.01
989.63	211.07
989.92	211.00
990.22	211.01
990.51	210.97
990.80	210.94
991.09	210.92
991.38	210.92
991.67	210.89
991.96	210.83
992.25	210.80
992.54	210.70
992.83	210.62
993.12	210.52
993.41	210.60
993.70	210.69
993.99	210.70
994.28	210.72
994.58	210.79
994.87	210.86
995.16	210.91
995.45	210.90
995.74	210.78
996.03	210.87
996.32	210.89
996.61	210.95
996.90	210.95
997.19	210.98
997.48	211.00
997.77	211.03
998.06	211.09
998.34	211.02
998.63	211.01
998.92	211.11
999.21	211.16
999.50	211.08
999.79	210.94
1000.08	210.95
1000.37	210.94
1000.66	210.79
1000.95	210.84
1001.24	210.78
1001.53	210.81
1001.82	210.80
1002.11	210.68
1002.40	210.72
1002.68	210.74
1002.97	211.00
1003.26	210.98
1003.55	210.91
1003.84	210.86
1004.13	211.02
1004.42	211.05
1004.71	211.08
1004.99	211.04
1005.28	211.12
1005.57	211.17
1005.86	211.17
1006.15	211.20
1006.44	211.15
1006.72	211.26
1007.01	211.12
1007.30	211.14
1007.59	211.06
1007.88	211.06
1008.17	211.10
1008.45	210.98
1008.74	210.86
1009.03	210.72
1009.32	210.71
1009.60	210.72
1009.89	210.73
1010.18	210.45
1010.47	210.42
1010.76	210.34
1011.04	210.30
1011.33	210.27
1011.62	210.22
1011.91	210.30
1012.19	210.22
1012.48	210.22
1012.77	210.23
1013.05	210.40
1013.34	210.39
1013.63	210.38
1013.92	210.45
1014.20	210.45
1014.49	210.50
1014.78	210.61
1015.06	210.44
1015.35	210.41
1015.64	210.43
1015.92	210.49
1016.21	210.54
1016.50	210.58
1016.78	210.66
1017.07	210.73
1017.36	210.70
1017.64	210.68
1017.93	210.68
1018.22	210.75
1018.50	210.75
1018.79	210.75
1019.08	210.69
1019.36	210.73
1019.65	210.74
1019.93	210.79
1020.22	210.80
1020.51	210.90
1020.79	210.86
1021.08	211.25
1021.36	210.30
1021.65	211.40
1021.94	211.45
1022.22	211.10
1022.51	209.90
1022.79	211.90
1023.08	211.45
1023.36	213.40
1023.65	210.80
>>>>>End Processed Spectral Data<<<<<
