SpectraSuite Data File
++++++++++++++++++++++++++++++++++++
Date: Mon Feb 25 17:04:29 EST 2013
User: group
Dark Spectrum Present: No
Reference Spectrum Present: No
Number of Sampled Component Spectra: 1
Spectrometers: USB2E7196
Integration Time (usec): 104000 (USB2E7196)
Spectra Averaged: 20 (USB2E7196)
Boxcar Smoothing: 10 (USB2E7196)
Correct for Electrical Dark: No (USB2E7196)
Strobe/Lamp Enabled: No (USB2E7196)
Correct for Detector Non-linearity: No (USB2E7196)
Correct for Stray Light: No (USB2E7196)
Number of Pixels in Processed Spectrum: 2048
>>>>>Begin Processed Spectral Data<<<<<
339.09	0.00
339.48	199.35
339.86	199.80
340.24	203.05
340.63	203.00
341.01	209.05
341.39	206.20
341.78	206.25
342.16	210.45
342.54	208.70
342.93	198.71
343.31	208.72
343.69	209.25
344.07	209.71
344.46	210.09
344.84	210.47
345.22	210.59
345.60	210.80
345.99	211.05
346.37	211.06
346.75	211.11
347.13	211.16
347.52	211.21
347.90	211.37
348.28	211.41
348.66	211.51
349.05	211.38
349.43	211.45
349.81	211.52
350.19	211.53
350.57	211.49
350.96	211.52
351.34	211.63
351.72	211.69
352.10	211.81
352.48	211.78
352.87	211.83
353.25	211.85
353.63	211.84
354.01	211.82
354.39	211.93
354.77	212.00
355.15	212.17
355.54	212.20
355.92	212.07
356.30	212.05
356.68	212.31
357.06	212.33
357.44	212.22
357.82	212.26
358.20	212.32
358.58	212.37
358.97	212.42
359.35	212.49
359.73	212.61
360.11	212.59
360.49	212.70
360.87	212.74
361.25	212.86
361.63	212.99
362.01	213.03
362.39	212.95
362.77	212.99
363.15	212.97
363.53	212.95
363.91	212.96
364.29	212.95
364.67	212.57
365.05	212.65
365.43	212.71
365.81	212.73
366.19	212.82
366.57	212.95
366.95	212.93
367.33	212.85
367.71	212.77
368.09	212.78
368.47	212.74
368.85	212.63
369.23	212.56
369.61	212.48
369.99	212.62
370.37	212.60
370.75	212.73
371.13	212.63
371.51	212.63
371.89	212.65
372.27	212.67
372.65	212.70
373.03	212.61
373.41	212.53
373.78	212.51
374.16	212.33
374.54	212.11
374.92	212.01
375.30	211.94
375.68	211.81
376.06	211.77
376.44	211.71
376.82	211.69
377.19	211.71
377.57	211.67
377.95	211.41
378.33	211.38
378.71	211.14
379.09	211.11
379.47	211.01
379.84	210.94
380.22	210.83
380.60	210.70
380.98	210.63
381.36	210.65
381.73	210.54
382.11	210.54
382.49	210.57
382.87	210.54
383.25	210.50
383.62	210.94
384.00	210.88
384.38	210.81
384.76	210.90
385.13	210.89
385.51	210.83
385.89	210.81
386.27	210.77
386.64	210.83
387.02	210.83
387.40	210.76
387.78	210.69
388.15	210.72
388.53	210.73
388.91	210.71
389.29	210.64
389.66	210.67
390.04	210.65
390.42	210.61
390.79	210.53
391.17	210.54
391.55	210.07
391.92	210.07
392.30	210.14
392.68	210.07
393.05	210.01
393.43	210.00
393.81	210.04
394.18	210.06
394.56	210.00
394.94	210.03
395.31	210.07
395.69	210.16
396.06	210.22
396.44	210.22
396.82	210.16
397.19	210.31
397.57	210.24
397.95	210.30
398.32	210.20
398.70	210.29
399.07	210.35
399.45	210.39
399.82	210.41
400.20	210.36
400.58	210.42
400.95	210.43
401.33	210.55
401.70	210.83
402.08	210.84
402.45	210.93
402.83	211.05
403.20	211.14
403.58	211.18
403.95	211.27
404.33	211.36
404.71	211.50
405.08	211.71
405.46	211.80
405.83	211.86
406.21	212.06
406.58	212.17
406.96	212.31
407.33	212.48
407.70	212.70
408.08	213.09
408.45	213.26
408.83	213.49
409.20	213.69
409.58	213.75
409.95	214.08
410.33	214.37
410.70	214.52
411.08	214.87
411.45	215.20
411.82	215.49
412.20	215.97
412.57	216.55
412.95	216.74
413.32	217.30
413.69	217.82
414.07	218.37
414.44	218.94
414.82	219.52
415.19	220.22
415.56	220.88
415.94	221.55
416.31	222.44
416.68	223.32
417.06	224.32
417.43	225.32
417.81	226.41
418.18	227.50
418.55	228.68
418.93	229.97
419.30	231.36
419.67	232.74
420.04	234.16
420.42	235.66
420.79	237.67
421.16	239.53
421.54	241.49
421.91	243.41
422.28	245.36
422.66	247.45
423.03	249.74
423.40	251.95
423.77	254.23
424.15	256.48
424.52	258.90
424.89	261.59
425.26	264.05
425.64	266.49
426.01	269.18
426.38	271.99
426.75	274.82
427.13	277.81
427.50	280.95
427.87	284.19
428.24	287.40
428.61	290.29
428.99	293.73
429.36	297.26
429.73	301.02
430.10	304.83
430.47	308.62
430.85	312.41
431.22	316.52
431.59	321.15
431.96	325.28
432.33	330.06
432.70	334.50
433.08	339.79
433.45	344.80
433.82	349.90
434.19	355.55
434.56	361.11
434.93	366.29
435.30	371.59
435.68	377.40
436.05	383.22
436.42	388.95
436.79	394.13
437.16	399.98
437.53	405.97
437.90	411.96
438.27	418.06
438.64	424.13
439.01	429.97
439.38	434.94
439.75	440.03
440.13	445.55
440.50	450.93
440.87	455.54
441.24	460.19
441.61	465.27
441.98	469.15
442.35	473.42
442.72	477.96
443.09	482.44
443.46	485.29
443.83	487.29
444.20	489.15
444.57	491.65
444.94	492.94
445.31	494.43
445.68	496.01
446.05	496.62
446.42	496.42
446.79	496.06
447.16	495.58
447.53	495.63
447.90	493.80
448.27	492.05
448.64	489.12
449.01	487.31
449.37	483.74
449.74	480.33
450.11	476.44
450.48	471.79
450.85	466.81
451.22	462.60
451.59	458.79
451.96	455.05
452.33	450.00
452.70	445.30
453.07	439.50
453.43	433.55
453.80	428.23
454.17	423.05
454.54	418.04
454.91	412.72
455.28	407.42
455.65	402.56
456.02	397.98
456.38	393.97
456.75	388.76
457.12	384.39
457.49	380.03
457.86	375.60
458.23	372.10
458.59	368.27
458.96	364.41
459.33	360.76
459.70	357.27
460.07	354.46
460.43	351.33
460.80	348.47
461.17	345.91
461.54	343.11
461.91	340.39
462.27	337.67
462.64	335.39
463.01	332.73
463.38	330.35
463.74	327.47
464.11	325.29
464.48	323.36
464.85	321.23
465.21	319.56
465.58	317.89
465.95	315.68
466.32	313.96
466.68	312.25
467.05	310.55
467.42	308.83
467.78	306.98
468.15	305.38
468.52	304.10
468.88	302.42
469.25	300.86
469.62	299.80
469.98	298.52
470.35	297.36
470.72	296.18
471.08	294.98
471.45	294.04
471.82	293.05
472.18	291.87
472.55	291.07
472.92	290.12
473.28	289.21
473.65	288.49
474.02	287.60
474.38	286.86
474.75	286.28
475.11	285.53
475.48	285.02
475.85	284.45
476.21	283.98
476.58	283.58
476.94	283.31
477.31	282.80
477.67	282.38
478.04	282.04
478.41	281.85
478.77	281.89
479.14	281.58
479.50	281.35
479.87	281.38
480.23	281.29
480.60	281.11
480.96	280.96
481.33	280.99
481.69	281.01
482.06	281.04
482.42	281.03
482.79	281.16
483.15	281.27
483.52	281.57
483.88	281.61
484.25	281.65
484.61	281.72
484.98	281.88
485.34	282.30
485.71	282.58
486.07	282.84
486.44	282.86
486.80	283.24
487.17	283.63
487.53	284.08
487.90	284.63
488.26	285.30
488.62	286.06
488.99	286.63
489.35	287.31
489.72	287.98
490.08	288.74
490.44	289.48
490.81	290.24
491.17	290.86
491.54	291.77
491.90	292.69
492.26	293.59
492.63	294.55
492.99	295.49
493.36	296.50
493.72	297.74
494.08	298.86
494.45	300.01
494.81	301.25
495.17	302.36
495.54	303.54
495.90	304.68
496.26	305.90
496.63	307.20
496.99	308.41
497.35	309.81
497.72	311.10
498.08	312.38
498.44	313.65
498.80	315.11
499.17	316.45
499.53	317.75
499.89	319.24
500.26	320.56
500.62	321.84
500.98	323.27
501.34	324.50
501.71	325.86
502.07	327.15
502.43	328.43
502.79	329.65
503.16	330.85
503.52	332.03
503.88	333.11
504.24	334.34
504.60	335.59
504.97	336.73
505.33	337.88
505.69	339.24
506.05	340.43
506.41	341.54
506.78	342.56
507.14	343.67
507.50	344.62
507.86	345.74
508.22	346.70
508.59	347.41
508.95	348.27
509.31	349.25
509.67	350.11
510.03	350.86
510.39	351.69
510.75	352.46
511.12	353.22
511.48	353.88
511.84	354.51
512.20	355.17
512.56	355.75
512.92	356.36
513.28	356.70
513.64	357.11
514.00	357.63
514.37	358.05
514.73	358.57
515.09	359.07
515.45	359.46
515.81	359.89
516.17	360.40
516.53	360.84
516.89	361.07
517.25	361.32
517.61	361.73
517.97	361.95
518.33	362.36
518.69	362.85
519.05	363.34
519.41	363.66
519.77	364.24
520.13	364.69
520.49	365.01
520.85	365.49
521.21	366.19
521.57	366.60
521.93	367.05
522.29	367.55
522.65	367.93
523.01	368.41
523.37	368.91
523.73	369.57
524.09	370.24
524.45	371.02
524.81	371.74
525.17	372.57
525.53	373.56
525.89	374.36
526.25	375.24
526.61	376.02
526.97	377.06
527.33	377.99
527.68	379.30
528.04	380.43
528.40	381.46
528.76	382.57
529.12	383.86
529.48	385.32
529.84	386.48
530.20	388.07
530.56	389.60
530.91	391.31
531.27	392.85
531.63	394.37
531.99	395.87
532.35	397.66
532.71	399.32
533.07	401.12
533.42	403.27
533.78	404.99
534.14	406.92
534.50	408.63
534.86	410.60
535.21	412.16
535.57	414.30
535.93	416.37
536.29	418.60
536.65	420.78
537.00	422.88
537.36	425.24
537.72	427.30
538.08	429.59
538.44	431.76
538.79	434.18
539.15	436.46
539.51	438.82
539.87	441.26
540.22	443.62
540.58	446.06
540.94	448.28
541.29	450.89
541.65	453.37
542.01	456.11
542.37	458.70
542.72	461.48
543.08	463.96
543.44	466.86
543.79	469.22
544.15	471.84
544.51	474.70
544.87	477.52
545.22	480.30
545.58	482.90
545.94	485.52
546.29	488.11
546.65	490.86
547.01	493.63
547.36	496.34
547.72	499.18
548.07	501.79
548.43	504.37
548.79	506.89
549.14	509.53
549.50	512.25
549.86	514.78
550.21	517.38
550.57	519.97
550.92	522.37
551.28	525.02
551.64	527.54
551.99	530.02
552.35	532.30
552.70	534.70
553.06	537.26
553.41	539.87
553.77	542.57
554.13	545.15
554.48	547.67
554.84	550.16
555.19	552.48
555.55	555.17
555.90	557.51
556.26	559.87
556.61	562.16
556.97	564.21
557.32	566.40
557.68	568.56
558.03	570.85
558.39	573.05
558.74	575.20
559.10	577.30
559.45	579.34
559.81	581.76
560.16	583.78
560.52	585.95
560.87	587.89
561.23	589.71
561.58	591.73
561.94	593.57
562.29	595.33
562.64	597.10
563.00	598.64
563.35	600.57
563.71	602.57
564.06	604.52
564.42	606.35
564.77	608.38
565.12	610.23
565.48	612.15
565.83	614.00
566.19	615.83
566.54	617.53
566.89	619.09
567.25	620.59
567.60	622.40
567.96	624.01
568.31	625.80
568.66	627.37
569.02	628.58
569.37	629.81
569.72	631.13
570.08	632.50
570.43	633.77
570.78	634.76
571.14	635.62
571.49	636.47
571.84	637.52
572.20	638.05
572.55	638.90
572.90	639.23
573.26	639.58
573.61	640.00
573.96	640.49
574.31	640.98
574.67	641.26
575.02	641.43
575.37	641.59
575.72	641.39
576.08	641.50
576.43	641.67
576.78	641.70
577.13	641.90
577.49	642.05
577.84	642.16
578.19	642.42
578.54	642.77
578.90	643.01
579.25	643.04
579.60	643.08
579.95	642.81
580.30	642.92
580.66	643.28
581.01	643.21
581.36	643.10
581.71	642.83
582.06	642.81
582.42	642.77
582.77	642.44
583.12	642.55
583.47	642.39
583.82	642.25
584.17	642.26
584.53	642.31
584.88	642.12
585.23	641.93
585.58	641.55
585.93	641.01
586.28	640.82
586.63	640.48
586.98	640.18
587.34	640.11
587.69	639.90
588.04	639.45
588.39	639.20
588.74	638.61
589.09	638.42
589.44	637.86
589.79	637.37
590.14	637.05
590.49	636.41
590.84	635.81
591.19	635.51
591.54	634.93
591.89	633.72
592.25	633.16
592.60	632.26
592.95	631.44
593.30	630.64
593.65	629.65
594.00	628.85
594.35	629.02
594.70	628.02
595.05	627.22
595.40	626.21
595.75	625.12
596.10	624.53
596.45	623.66
596.80	623.04
597.15	622.30
597.50	621.39
597.85	620.60
598.19	619.77
598.54	618.79
598.89	617.89
599.24	617.46
599.59	616.47
599.94	615.67
600.29	614.87
600.64	614.07
600.99	613.24
601.34	612.37
601.69	610.55
602.04	609.63
602.39	608.52
602.74	607.67
603.08	607.07
603.43	606.43
603.78	605.65
604.13	604.59
604.48	603.66
604.83	603.08
605.18	602.46
605.53	601.52
605.87	600.58
606.22	599.79
606.57	598.84
606.92	597.86
607.27	597.14
607.62	596.15
607.96	595.29
608.31	594.30
608.66	593.28
609.01	592.18
609.36	591.25
609.70	590.15
610.05	588.98
610.40	587.69
610.75	586.22
611.10	585.14
611.44	583.62
611.79	582.26
612.14	580.65
612.49	579.00
612.83	577.54
613.18	575.93
613.53	574.48
613.88	572.86
614.22	571.37
614.57	569.62
614.92	568.23
615.27	566.53
615.61	565.04
615.96	563.63
616.31	562.35
616.65	560.94
617.00	559.58
617.35	558.12
617.70	556.59
618.04	554.85
618.39	552.91
618.74	551.66
619.08	550.01
619.43	548.40
619.78	546.85
620.12	545.40
620.47	543.99
620.82	542.10
621.16	540.28
621.51	538.72
621.85	537.06
622.20	535.41
622.55	533.82
622.89	532.10
623.24	530.33
623.59	528.50
623.93	526.75
624.28	525.05
624.62	523.74
624.97	522.28
625.32	520.76
625.66	519.30
626.01	517.60
626.35	516.14
626.70	514.48
627.04	513.03
627.39	511.40
627.73	509.87
628.08	508.56
628.43	507.13
628.77	505.52
629.12	503.98
629.46	502.51
629.81	501.03
630.15	499.47
630.50	497.93
630.84	496.26
631.19	494.69
631.53	493.16
631.88	491.11
632.22	489.35
632.57	487.92
632.91	486.33
633.26	484.82
633.60	483.15
633.95	481.60
634.29	479.92
634.64	478.42
634.98	476.78
635.32	475.25
635.67	473.80
636.01	472.35
636.36	470.94
636.70	469.44
637.05	467.92
637.39	466.47
637.73	465.10
638.08	463.89
638.42	462.40
638.77	460.84
639.11	459.41
639.45	457.93
639.80	456.22
640.14	454.64
640.49	453.00
640.83	451.39
641.17	450.00
641.52	448.39
641.86	446.73
642.20	445.30
642.55	443.53
642.89	441.86
643.23	440.11
643.58	438.64
643.92	436.86
644.26	435.18
644.61	433.53
644.95	431.87
645.29	430.20
645.64	428.64
645.98	427.16
646.32	425.75
646.66	424.09
647.01	422.52
647.35	421.00
647.69	419.37
648.04	417.99
648.38	416.41
648.72	414.84
649.06	413.26
649.41	411.55
649.75	410.03
650.09	408.54
650.43	407.06
650.78	405.33
651.12	403.72
651.46	402.40
651.80	400.93
652.14	399.41
652.49	397.88
652.83	396.33
653.17	394.71
653.51	393.04
653.85	391.67
654.20	390.36
654.54	388.87
654.88	387.34
655.22	385.93
655.56	384.30
655.90	382.80
656.25	381.35
656.59	379.96
656.93	378.56
657.27	377.33
657.61	375.78
657.95	374.52
658.29	373.33
658.64	371.90
658.98	370.49
659.32	368.96
659.66	367.56
660.00	366.18
660.34	364.65
660.68	363.28
661.02	361.76
661.36	360.23
661.70	358.87
662.05	357.57
662.39	356.28
662.73	355.21
663.07	354.12
663.41	352.92
663.75	351.55
664.09	350.34
664.43	348.87
664.77	347.71
665.11	346.42
665.45	345.15
665.79	343.95
666.13	342.83
666.47	341.76
666.81	340.57
667.15	339.35
667.49	338.33
667.83	337.30
668.17	336.26
668.51	335.21
668.85	334.21
669.19	333.27
669.53	331.97
669.87	330.73
670.21	329.56
670.55	328.42
670.89	327.64
671.23	326.59
671.57	325.63
671.91	324.55
672.25	323.45
672.58	322.51
672.92	321.48
673.26	320.43
673.60	319.48
673.94	318.40
674.28	317.46
674.62	316.54
674.96	315.56
675.30	314.70
675.64	313.82
675.97	312.85
676.31	311.98
676.65	311.20
676.99	310.54
677.33	309.57
677.67	308.76
678.01	307.65
678.34	306.87
678.68	306.09
679.02	305.28
679.36	304.48
679.70	303.54
680.04	302.64
680.37	301.73
680.71	300.82
681.05	300.15
681.39	299.30
681.73	298.50
682.06	297.77
682.40	296.92
682.74	296.12
683.08	295.46
683.42	294.58
683.75	293.88
684.09	292.92
684.43	292.21
684.77	291.40
685.10	290.63
685.44	289.76
685.78	288.93
686.12	288.22
686.45	287.48
686.79	286.71
687.13	286.04
687.46	285.32
687.80	284.74
688.14	283.95
688.48	283.34
688.81	282.57
689.15	281.92
689.49	281.15
689.82	280.47
690.16	279.59
690.50	278.89
690.83	277.98
691.17	277.10
691.51	276.35
691.84	275.70
692.18	275.00
692.52	274.37
692.85	273.81
693.19	273.29
693.52	272.64
693.86	271.97
694.20	271.37
694.53	270.80
694.87	270.02
695.21	269.34
695.54	268.67
695.88	268.02
696.21	267.28
696.55	266.69
696.88	266.06
697.22	265.50
697.56	265.05
697.89	264.55
698.23	264.18
698.56	263.63
698.90	263.20
699.23	262.70
699.57	262.27
699.90	261.62
700.24	260.96
700.58	260.40
700.91	260.00
701.25	259.70
701.58	259.33
701.92	258.92
702.25	258.46
702.59	257.98
702.92	257.57
703.26	257.08
703.59	256.61
703.93	256.45
704.26	256.00
704.60	255.49
704.93	255.12
705.26	254.61
705.60	254.26
705.93	253.65
706.27	253.30
706.60	252.95
706.94	252.67
707.27	252.12
707.61	251.76
707.94	251.30
708.27	250.60
708.61	250.08
708.94	249.61
709.28	249.35
709.61	248.97
709.94	248.68
710.28	248.37
710.61	248.08
710.95	247.43
711.28	247.24
711.61	246.90
711.95	246.49
712.28	246.10
712.61	245.76
712.95	245.66
713.28	245.34
713.61	244.79
713.95	244.35
714.28	244.11
714.61	243.78
714.95	243.43
715.28	243.05
715.61	242.70
715.95	242.38
716.28	241.88
716.61	241.50
716.95	241.00
717.28	240.70
717.61	240.32
717.94	240.05
718.28	239.50
718.61	239.17
718.94	238.90
719.27	238.58
719.61	238.33
719.94	237.89
720.27	237.54
720.60	237.32
720.94	237.05
721.27	236.80
721.60	236.56
721.93	236.27
722.27	236.21
722.60	236.01
722.93	235.80
723.26	235.62
723.59	235.44
723.93	235.34
724.26	235.06
724.59	234.81
724.92	234.61
725.25	234.54
725.59	234.26
725.92	234.08
726.25	233.97
726.58	233.71
726.91	233.48
727.24	233.29
727.57	233.04
727.91	232.78
728.24	232.56
728.57	232.33
728.90	232.16
729.23	231.83
729.56	231.77
729.89	231.56
730.22	231.31
730.55	230.99
730.89	230.73
731.22	230.51
731.55	230.37
731.88	230.08
732.21	229.74
732.54	229.55
732.87	229.29
733.20	229.07
733.53	228.89
733.86	228.81
734.19	228.59
734.52	228.47
734.85	228.58
735.18	228.40
735.51	228.33
735.84	228.21
736.17	228.15
736.50	227.76
736.83	228.00
737.16	227.94
737.49	227.97
737.82	227.80
738.15	227.72
738.48	227.59
738.81	227.54
739.14	227.40
739.47	227.27
739.80	227.15
740.13	227.01
740.46	226.77
740.79	226.51
741.12	226.45
741.45	226.21
741.78	225.88
742.11	225.82
742.44	225.59
742.77	225.50
743.10	225.32
743.43	225.20
743.75	224.71
744.08	225.02
744.41	224.82
744.74	224.68
745.07	224.48
745.40	224.39
745.73	224.33
746.06	224.24
746.39	224.19
746.71	224.05
747.04	223.87
747.37	223.82
747.70	223.79
748.03	223.60
748.36	223.57
748.68	223.44
749.01	223.24
749.34	223.07
749.67	222.88
750.00	222.83
750.33	222.98
750.65	222.82
750.98	222.26
751.31	222.11
751.64	222.05
751.97	222.14
752.29	222.00
752.62	221.78
752.95	221.71
753.28	221.48
753.60	221.43
753.93	221.48
754.26	221.36
754.59	221.18
754.91	221.03
755.24	220.90
755.57	220.74
755.90	220.65
756.22	220.59
756.55	220.49
756.88	220.25
757.20	219.87
757.53	219.75
757.86	219.62
758.19	219.59
758.51	219.47
758.84	219.10
759.17	218.96
759.49	218.87
759.82	218.94
760.15	218.95
760.47	218.81
760.80	218.60
761.13	218.61
761.45	218.48
761.78	218.39
762.11	218.31
762.43	218.27
762.76	218.11
763.08	218.00
763.41	217.99
763.74	217.97
764.06	217.93
764.39	217.90
764.71	217.79
765.04	217.62
765.37	217.56
765.69	217.59
766.02	217.53
766.34	217.45
766.67	217.19
767.00	217.14
767.32	217.21
767.65	217.32
767.97	217.17
768.30	217.17
768.62	217.19
768.95	217.10
769.27	217.06
769.60	217.06
769.92	217.03
770.25	216.89
770.57	216.72
770.90	216.67
771.22	216.60
771.55	216.61
771.87	216.67
772.20	216.62
772.52	216.84
772.85	217.29
773.17	217.30
773.50	217.29
773.82	217.12
774.15	217.01
774.47	216.79
774.80	216.75
775.12	216.72
775.45	216.59
775.77	216.57
776.09	216.49
776.42	216.50
776.74	216.46
777.07	216.44
777.39	216.42
777.72	216.36
778.04	216.32
778.36	216.31
778.69	216.19
779.01	216.20
779.33	215.88
779.66	215.31
779.98	215.20
780.31	215.14
780.63	215.33
780.95	215.30
781.28	215.20
781.60	215.15
781.92	215.09
782.25	215.10
782.57	215.05
782.89	215.01
783.22	214.91
783.54	214.90
783.86	214.91
784.19	214.89
784.51	214.98
784.83	214.83
785.16	214.75
785.48	214.71
785.80	214.66
786.12	214.67
786.45	214.72
786.77	214.75
787.09	214.71
787.42	214.52
787.74	214.49
788.06	214.52
788.38	214.45
788.71	214.38
789.03	214.31
789.35	214.28
789.67	214.14
789.99	214.17
790.32	214.06
790.64	214.07
790.96	214.30
791.28	214.13
791.61	214.18
791.93	214.11
792.25	214.12
792.57	214.35
792.89	214.24
793.21	214.18
793.54	214.14
793.86	214.13
794.18	214.12
794.50	213.96
794.82	213.97
795.14	213.98
795.47	214.00
795.79	214.02
796.11	214.01
796.43	214.05
796.75	214.00
797.07	214.06
797.39	213.95
797.71	213.70
798.04	213.73
798.36	213.66
798.68	213.66
799.00	213.63
799.32	213.34
799.64	213.38
799.96	213.42
800.28	213.45
800.60	213.41
800.92	213.48
801.24	213.55
801.56	213.58
801.89	213.51
802.21	213.48
802.53	213.39
802.85	213.41
803.17	213.55
803.49	213.47
803.81	213.33
804.13	213.37
804.45	213.31
804.77	213.29
805.09	213.35
805.41	213.31
805.73	213.27
806.05	213.18
806.37	213.16
806.69	213.04
807.01	213.02
807.33	213.00
807.65	212.79
807.97	212.90
808.28	212.79
808.60	212.81
808.92	212.76
809.24	213.04
809.56	212.92
809.88	212.75
810.20	212.73
810.52	212.87
810.84	212.80
811.16	212.74
811.48	212.82
811.80	212.87
812.12	212.90
812.43	212.97
812.75	212.96
813.07	212.93
813.39	212.94
813.71	212.83
814.03	212.79
814.35	212.80
814.67	212.61
814.98	212.54
815.30	212.50
815.62	212.40
815.94	212.16
816.26	212.20
816.58	212.18
816.89	212.28
817.21	212.16
817.53	212.18
817.85	212.17
818.17	212.05
818.48	211.85
818.80	211.86
819.12	211.75
819.44	211.75
819.76	211.65
820.07	211.65
820.39	211.62
820.71	211.61
821.03	211.58
821.34	211.57
821.66	211.60
821.98	211.61
822.30	211.60
822.61	211.74
822.93	211.66
823.25	211.61
823.57	211.52
823.88	211.59
824.20	211.55
824.52	211.58
824.83	211.57
825.15	211.65
825.47	211.61
825.79	211.69
826.10	211.72
826.42	211.68
826.74	211.78
827.05	211.73
827.37	211.72
827.69	211.66
828.00	211.67
828.32	211.67
828.64	211.67
828.95	211.84
829.27	211.73
829.58	211.80
829.90	211.83
830.22	211.80
830.53	211.75
830.85	211.71
831.17	211.56
831.48	211.49
831.80	211.41
832.11	211.37
832.43	211.19
832.75	211.07
833.06	211.23
833.38	211.07
833.69	211.09
834.01	211.13
834.32	211.20
834.64	211.22
834.96	211.16
835.27	211.15
835.59	211.08
835.90	211.00
836.22	210.99
836.53	210.97
836.85	210.96
837.16	211.29
837.48	211.29
837.79	211.51
838.11	211.62
838.42	211.64
838.74	211.66
839.05	211.68
839.37	211.70
839.68	211.55
840.00	211.51
840.31	211.58
840.63	211.44
840.94	211.40
841.26	211.30
841.57	211.37
841.88	211.33
842.20	211.27
842.51	211.23
842.83	211.15
843.14	211.49
843.46	211.50
843.77	211.26
844.08	211.25
844.40	211.10
844.71	211.01
845.03	210.98
845.34	211.00
845.65	211.05
845.97	211.07
846.28	211.13
846.60	211.13
846.91	211.06
847.22	211.11
847.54	211.15
847.85	211.24
848.16	211.18
848.48	211.26
848.79	211.39
849.10	211.44
849.42	211.45
849.73	211.06
850.04	211.03
850.36	210.90
850.67	210.91
850.98	210.95
851.30	210.99
851.61	211.00
851.92	210.99
852.23	211.11
852.55	211.11
852.86	211.15
853.17	211.20
853.49	211.23
853.80	211.35
854.11	211.36
854.42	211.38
854.74	211.32
855.05	211.30
855.36	211.14
855.67	211.15
855.99	211.17
856.30	211.65
856.61	211.65
856.92	211.68
857.23	211.67
857.55	211.60
857.86	211.56
858.17	211.63
858.48	211.55
858.79	211.43
859.11	211.45
859.42	211.42
859.73	211.37
860.04	211.44
860.35	211.32
860.66	211.18
860.98	211.21
861.29	211.33
861.60	211.27
861.91	211.41
862.22	211.32
862.53	211.32
862.84	210.89
863.16	211.00
863.47	210.94
863.78	210.92
864.09	211.02
864.40	211.03
864.71	211.00
865.02	211.04
865.33	211.05
865.64	211.04
865.95	210.98
866.27	211.17
866.58	211.04
866.89	211.10
867.20	211.13
867.51	211.04
867.82	211.00
868.13	211.08
868.44	210.98
868.75	211.16
869.06	211.17
869.37	211.24
869.68	211.07
869.99	211.12
870.30	211.16
870.61	211.14
870.92	211.08
871.23	211.06
871.54	211.14
871.85	211.19
872.16	211.22
872.47	211.22
872.78	211.03
873.09	211.10
873.40	211.00
873.71	211.10
874.02	211.08
874.33	210.98
874.64	210.89
874.95	210.97
875.26	210.80
875.56	210.76
875.87	210.69
876.18	210.70
876.49	211.03
876.80	211.04
877.11	210.97
877.42	210.98
877.73	210.94
878.04	210.81
878.35	210.81
878.66	210.77
878.96	210.74
879.27	210.76
879.58	210.79
879.89	210.84
880.20	210.92
880.51	210.92
880.82	211.01
881.12	211.01
881.43	210.88
881.74	210.85
882.05	210.90
882.36	210.95
882.67	211.01
882.97	210.75
883.28	210.71
883.59	210.80
883.90	210.84
884.21	210.94
884.51	211.01
884.82	210.99
885.13	211.09
885.44	211.11
885.74	211.14
886.05	211.17
886.36	211.15
886.67	211.03
886.98	211.25
887.28	211.32
887.59	211.38
887.90	211.46
888.20	211.48
888.51	211.53
888.82	211.49
889.13	211.53
889.43	211.76
889.74	211.81
890.05	211.74
890.35	211.75
890.66	211.74
890.97	211.67
891.28	211.64
891.58	211.64
891.89	211.62
892.20	211.59
892.50	211.55
892.81	211.57
893.12	211.55
893.42	211.47
893.73	211.45
894.04	211.44
894.34	211.46
894.65	211.44
894.95	211.42
895.26	211.51
895.57	211.72
895.87	211.32
896.18	211.36
896.48	211.38
896.79	211.43
897.10	211.48
897.40	211.52
897.71	211.59
898.01	211.57
898.32	211.73
898.63	211.71
898.93	211.73
899.24	211.68
899.54	211.71
899.85	211.61
900.15	211.60
900.46	211.64
900.76	211.70
901.07	211.70
901.38	211.71
901.68	211.66
901.99	211.42
902.29	211.57
902.60	211.48
902.90	211.47
903.21	211.40
903.51	211.33
903.82	211.37
904.12	211.33
904.43	211.36
904.73	211.28
905.03	211.36
905.34	211.67
905.64	211.75
905.95	211.70
906.25	211.78
906.56	211.73
906.86	211.65
907.17	211.60
907.47	211.68
907.77	211.60
908.08	211.57
908.38	211.62
908.69	211.59
908.99	211.68
909.30	211.67
909.60	211.73
909.90	211.78
910.21	211.64
910.51	211.61
910.81	211.57
911.12	211.55
911.42	211.55
911.73	211.19
912.03	211.11
912.33	211.15
912.64	211.13
912.94	211.08
913.24	211.03
913.55	211.01
913.85	210.94
914.15	210.97
914.46	211.04
914.76	210.99
915.06	210.95
915.37	210.87
915.67	210.87
915.97	210.86
916.27	210.73
916.58	210.77
916.88	210.80
917.18	210.74
917.49	210.93
917.79	210.86
918.09	210.91
918.39	211.02
918.70	211.03
919.00	210.94
919.30	211.12
919.60	211.10
919.91	211.03
920.21	211.04
920.51	210.99
920.81	210.91
921.12	211.04
921.42	210.97
921.72	211.01
922.02	211.04
922.32	211.03
922.63	211.08
922.93	211.24
923.23	211.19
923.53	211.13
923.83	210.92
924.13	210.89
924.44	210.86
924.74	210.89
925.04	210.92
925.34	210.84
925.64	210.67
925.94	210.69
926.24	210.87
926.55	210.86
926.85	210.93
927.15	210.97
927.45	210.90
927.75	210.93
928.05	210.93
928.35	210.88
928.65	210.96
928.95	210.93
929.26	210.83
929.56	210.90
929.86	211.00
930.16	211.00
930.46	211.01
930.76	211.01
931.06	210.89
931.36	210.84
931.66	211.01
931.96	211.07
932.26	211.07
932.56	210.97
932.86	210.99
933.16	210.95
933.46	210.86
933.76	210.75
934.06	210.88
934.36	211.00
934.66	211.05
934.96	210.95
935.26	211.00
935.56	211.05
935.86	210.99
936.16	210.94
936.46	210.94
936.76	210.99
937.06	210.94
937.36	210.98
937.66	211.01
937.96	211.00
938.26	210.97
938.56	210.98
938.86	210.97
939.16	211.09
939.46	211.16
939.76	211.22
940.06	211.29
940.35	211.20
940.65	211.00
940.95	211.03
941.25	210.99
941.55	211.00
941.85	210.96
942.15	211.02
942.45	211.16
942.75	211.14
943.04	211.09
943.34	211.27
943.64	211.20
943.94	211.17
944.24	211.14
944.54	211.16
944.84	211.21
945.13	211.19
945.43	211.03
945.73	211.00
946.03	210.95
946.33	210.90
946.62	210.85
946.92	210.85
947.22	210.85
947.52	210.88
947.82	210.85
948.11	210.80
948.41	210.78
948.71	210.64
949.01	210.63
949.31	210.57
949.60	210.46
949.90	210.53
950.20	210.44
950.50	210.40
950.79	210.32
951.09	210.32
951.39	210.33
951.69	210.35
951.98	210.45
952.28	210.49
952.58	210.47
952.87	210.48
953.17	210.50
953.47	210.43
953.76	210.43
954.06	210.35
954.36	210.31
954.66	210.23
954.95	210.31
955.25	210.30
955.55	210.41
955.84	210.35
956.14	210.34
956.44	210.39
956.73	210.35
957.03	210.39
957.32	210.35
957.62	210.31
957.92	210.41
958.21	210.34
958.51	210.69
958.81	210.73
959.10	210.78
959.40	210.89
959.69	211.01
959.99	211.12
960.29	211.16
960.58	211.19
960.88	211.41
961.17	211.36
961.47	211.45
961.76	211.40
962.06	211.51
962.36	211.53
962.65	211.60
962.95	211.64
963.24	211.63
963.54	211.70
963.83	211.71
964.13	211.63
964.42	211.61
964.72	211.38
965.01	211.44
965.31	211.39
965.60	211.31
965.90	211.45
966.19	211.27
966.49	211.32
966.78	211.28
967.08	211.16
967.37	211.14
967.67	211.08
967.96	211.14
968.26	211.14
968.55	211.17
968.85	211.10
969.14	211.07
969.43	211.11
969.73	211.05
970.02	211.00
970.32	211.02
970.61	210.99
970.91	210.85
971.20	210.75
971.49	210.73
971.79	210.73
972.08	210.46
972.38	210.54
972.67	210.49
972.96	210.55
973.26	210.56
973.55	210.70
973.85	210.63
974.14	210.55
974.43	210.58
974.73	210.52
975.02	210.54
975.31	210.55
975.61	210.52
975.90	210.47
976.19	210.46
976.49	210.49
976.78	210.45
977.07	210.45
977.37	210.45
977.66	210.49
977.95	210.48
978.24	210.54
978.54	210.55
978.83	210.50
979.12	210.45
979.42	210.42
979.71	210.35
980.00	210.36
980.29	210.39
980.59	210.37
980.88	210.46
981.17	210.45
981.46	210.45
981.76	210.42
982.05	210.64
982.34	210.65
982.63	210.66
982.93	210.69
983.22	210.76
983.51	210.81
983.80	210.84
984.09	210.85
984.39	210.86
984.68	210.94
984.97	210.96
985.26	210.94
985.55	210.95
985.85	210.90
986.14	210.95
986.43	211.00
986.72	210.92
987.01	210.70
987.30	210.76
987.59	210.78
987.89	210.86
988.18	210.70
988.47	210.69
988.76	210.67
989.05	210.58
989.34	210.52
989.63	210.59
989.92	210.51
990.22	210.45
990.51	210.34
990.80	210.17
991.09	210.26
991.38	210.29
991.67	210.26
991.96	210.27
992.25	210.32
992.54	210.29
992.83	210.28
993.12	210.39
993.41	210.37
993.70	210.47
993.99	210.45
994.28	210.47
994.58	210.60
994.87	210.53
995.16	210.59
995.45	210.54
995.74	210.39
996.03	210.55
996.32	210.65
996.61	210.78
996.90	210.90
997.19	210.85
997.48	210.86
997.77	210.90
998.06	210.92
998.34	210.87
998.63	210.83
998.92	210.85
999.21	210.85
999.50	210.83
999.79	210.71
1000.08	210.72
1000.37	210.77
1000.66	210.67
1000.95	210.79
1001.24	210.83
1001.53	210.84
1001.82	210.84
1002.11	210.73
1002.40	210.69
1002.68	210.73
1002.97	210.89
1003.26	210.93
1003.55	210.94
1003.84	210.87
1004.13	210.87
1004.42	210.82
1004.71	210.80
1004.99	210.76
1005.28	210.88
1005.57	210.94
1005.86	210.88
1006.15	210.81
1006.44	210.75
1006.72	210.81
1007.01	210.77
1007.30	210.71
1007.59	210.74
1007.88	210.78
1008.17	210.75
1008.45	210.71
1008.74	210.58
1009.03	210.47
1009.32	210.44
1009.60	210.45
1009.89	210.47
1010.18	210.40
1010.47	210.44
1010.76	210.46
1011.04	210.47
1011.33	210.53
1011.62	210.54
1011.91	210.60
1012.19	210.64
1012.48	210.65
1012.77	210.62
1013.05	210.68
1013.34	210.72
1013.63	210.74
1013.92	210.72
1014.20	210.67
1014.49	210.74
1014.78	210.83
1015.06	210.67
1015.35	210.66
1015.64	210.77
1015.92	210.75
1016.21	210.74
1016.50	210.65
1016.78	210.71
1017.07	210.69
1017.36	210.59
1017.64	210.50
1017.93	210.53
1018.22	210.55
1018.50	210.53
1018.79	210.53
1019.08	210.41
1019.36	210.40
1019.65	210.35
1019.93	210.50
1020.22	210.62
1020.51	210.75
1020.79	210.67
1021.08	210.50
1021.36	209.85
1021.65	211.05
1021.94	210.25
1022.22	210.30
1022.51	209.80
1022.79	212.60
1023.08	211.55
1023.36	214.35
1023.65	209.15
>>>>>End Processed Spectral Data<<<<<
