SpectraSuite Data File
++++++++++++++++++++++++++++++++++++
Date: Mon Feb 25 16:56:58 EST 2013
User: group
Dark Spectrum Present: No
Reference Spectrum Present: No
Number of Sampled Component Spectra: 1
Spectrometers: USB2E7196
Integration Time (usec): 104000 (USB2E7196)
Spectra Averaged: 20 (USB2E7196)
Boxcar Smoothing: 10 (USB2E7196)
Correct for Electrical Dark: No (USB2E7196)
Strobe/Lamp Enabled: No (USB2E7196)
Correct for Detector Non-linearity: No (USB2E7196)
Correct for Stray Light: No (USB2E7196)
Number of Pixels in Processed Spectrum: 2048
>>>>>Begin Processed Spectral Data<<<<<
339.09	0.00
339.48	198.45
339.86	199.60
340.24	202.60
340.63	202.30
341.01	208.65
341.39	206.20
341.78	207.55
342.16	208.70
342.54	208.95
342.93	198.19
343.31	208.21
343.69	208.76
344.07	209.21
344.46	209.63
344.84	210.03
345.22	210.11
345.60	210.32
345.99	210.45
346.37	210.55
346.75	210.65
347.13	210.71
347.52	210.84
347.90	211.02
348.28	210.98
348.66	211.08
349.05	211.10
349.43	211.15
349.81	211.15
350.19	211.25
350.57	211.33
350.96	211.46
351.34	211.58
351.72	211.62
352.10	211.76
352.48	211.77
352.87	211.88
353.25	211.99
353.63	212.03
354.01	212.15
354.39	212.26
354.77	212.27
355.15	212.45
355.54	212.43
355.92	212.32
356.30	212.45
356.68	212.76
357.06	212.82
357.44	212.87
357.82	212.97
358.20	212.99
358.58	213.10
358.97	213.16
359.35	213.31
359.73	213.49
360.11	213.54
360.49	213.66
360.87	213.68
361.25	213.76
361.63	213.99
362.01	214.07
362.39	214.14
362.77	214.26
363.15	214.27
363.53	214.36
363.91	214.49
364.29	214.52
364.67	214.22
365.05	214.25
365.43	214.28
365.81	214.35
366.19	214.54
366.57	214.69
366.95	214.75
367.33	214.64
367.71	214.68
368.09	214.81
368.47	214.78
368.85	214.81
369.23	214.86
369.61	214.68
369.99	214.79
370.37	214.80
370.75	214.97
371.13	214.88
371.51	214.72
371.89	214.69
372.27	214.71
372.65	214.68
373.03	214.66
373.41	214.58
373.78	214.49
374.16	214.31
374.54	214.16
374.92	214.05
375.30	214.05
375.68	213.86
376.06	213.76
376.44	213.64
376.82	213.56
377.19	213.51
377.57	213.49
377.95	213.26
378.33	213.19
378.71	212.96
379.09	213.01
379.47	213.13
379.84	213.04
380.22	212.87
380.60	212.77
380.98	212.75
381.36	212.78
381.73	212.72
382.11	212.69
382.49	212.60
382.87	212.56
383.25	212.51
383.62	212.95
384.00	212.84
384.38	212.91
384.76	212.90
385.13	213.00
385.51	212.95
385.89	212.93
386.27	212.93
386.64	212.88
387.02	212.79
387.40	212.70
387.78	212.71
388.15	212.70
388.53	212.65
388.91	212.57
389.29	212.50
389.66	212.52
390.04	212.53
390.42	212.57
390.79	212.50
391.17	212.47
391.55	212.02
391.92	212.02
392.30	212.02
392.68	212.02
393.05	211.94
393.43	211.99
393.81	212.03
394.18	211.92
394.56	211.98
394.94	212.12
395.31	212.03
395.69	212.18
396.06	212.26
396.44	212.29
396.82	212.30
397.19	212.49
397.57	212.50
397.95	212.53
398.32	212.52
398.70	212.64
399.07	212.76
399.45	212.83
399.82	212.90
400.20	212.96
400.58	212.99
400.95	212.90
401.33	213.06
401.70	213.42
402.08	213.60
402.45	213.75
402.83	213.86
403.20	214.10
403.58	214.21
403.95	214.49
404.33	214.79
404.71	215.00
405.08	215.36
405.46	215.65
405.83	215.93
406.21	216.26
406.58	216.62
406.96	216.96
407.33	217.37
407.70	217.85
408.08	218.54
408.45	219.15
408.83	219.81
409.20	220.30
409.58	220.67
409.95	221.32
410.33	222.07
410.70	222.72
411.08	223.62
411.45	224.52
411.82	225.40
412.20	226.49
412.57	227.73
412.95	228.58
413.32	229.87
413.69	231.20
414.07	232.65
414.44	234.13
414.82	235.74
415.19	237.65
415.56	239.47
415.94	241.41
416.31	243.55
416.68	245.75
417.06	248.44
417.43	250.90
417.81	253.75
418.18	256.58
418.55	259.72
418.93	263.06
419.30	266.36
419.67	270.01
420.04	273.73
420.42	277.70
420.79	282.40
421.16	286.99
421.54	291.75
421.91	296.61
422.28	301.78
422.66	307.24
423.03	312.53
423.40	318.08
423.77	323.95
424.15	330.03
424.52	336.31
424.89	343.12
425.26	349.84
425.64	356.26
426.01	363.34
426.38	370.81
426.75	378.22
427.13	386.19
427.50	394.26
427.87	402.86
428.24	411.48
428.61	419.69
428.99	428.75
429.36	438.59
429.73	448.26
430.10	457.89
430.47	467.81
430.85	478.14
431.22	489.12
431.59	500.68
431.96	511.96
432.33	524.38
432.70	536.35
433.08	550.58
433.45	563.85
433.82	577.16
434.19	591.91
434.56	606.45
434.93	620.48
435.30	634.77
435.68	650.36
436.05	666.00
436.42	681.52
436.79	695.82
437.16	711.37
437.53	727.75
437.90	744.06
438.27	760.17
438.64	776.93
439.01	792.56
439.38	806.94
439.75	820.60
440.13	836.22
440.50	851.07
440.87	863.31
441.24	876.36
441.61	890.68
441.98	901.52
442.35	914.21
442.72	926.56
443.09	938.56
443.46	946.35
443.83	951.81
444.20	956.86
444.57	963.69
444.94	967.15
445.31	971.21
445.68	975.03
446.05	977.46
446.42	977.25
446.79	976.59
447.16	975.50
447.53	975.28
447.90	970.56
448.27	965.94
448.64	958.64
449.01	953.70
449.37	943.96
449.74	934.68
450.11	923.23
450.48	910.94
450.85	898.17
451.22	887.30
451.59	877.07
451.96	867.25
452.33	853.62
452.70	841.77
453.07	827.02
453.43	812.11
453.80	797.78
454.17	783.71
454.54	770.53
454.91	756.45
455.28	742.62
455.65	729.82
456.02	716.65
456.38	705.81
456.75	691.92
457.12	680.43
457.49	669.16
457.86	658.06
458.23	648.45
458.59	638.09
458.96	627.66
459.33	618.26
459.70	608.85
460.07	601.40
460.43	592.88
460.80	584.66
461.17	577.52
461.54	569.91
461.91	562.81
462.27	555.72
462.64	549.63
463.01	542.72
463.38	536.19
463.74	529.68
464.11	523.88
464.48	518.79
464.85	513.24
465.21	508.95
465.58	504.45
465.95	499.11
466.32	494.60
466.68	490.27
467.05	485.81
467.42	481.32
467.78	476.80
468.15	472.22
468.52	468.94
468.88	464.74
469.25	460.83
469.62	457.85
469.98	454.58
470.35	451.43
470.72	448.63
471.08	445.26
471.45	442.57
471.82	439.77
472.18	436.60
472.55	434.44
472.92	431.78
473.28	429.51
473.65	427.24
474.02	425.07
474.38	423.14
474.75	421.66
475.11	420.11
475.48	418.79
475.85	417.72
476.21	416.57
476.58	415.47
476.94	414.94
477.31	414.00
477.67	413.14
478.04	412.44
478.41	411.88
478.77	411.87
479.14	411.43
479.50	411.29
479.87	411.48
480.23	411.55
480.60	411.50
480.96	411.52
481.33	412.18
481.69	412.72
482.06	413.06
482.42	413.25
482.79	413.64
483.15	414.39
483.52	415.39
483.88	416.32
484.25	417.39
484.61	418.35
484.98	419.56
485.34	421.17
485.71	422.83
486.07	424.58
486.44	426.05
486.80	427.87
487.17	429.96
487.53	432.30
487.90	434.69
488.26	437.32
488.62	440.08
488.99	442.72
489.35	445.46
489.72	448.44
490.08	451.73
490.44	454.90
490.81	458.29
491.17	461.71
491.54	465.39
491.90	469.06
492.26	473.04
492.63	477.11
492.99	481.13
493.36	485.42
493.72	490.01
494.08	494.62
494.45	499.70
494.81	504.78
495.17	509.81
495.54	515.21
495.90	520.55
496.26	525.94
496.63	531.53
496.99	537.34
497.35	543.45
497.72	549.67
498.08	556.08
498.44	562.58
498.80	569.25
499.17	576.15
499.53	583.05
499.89	590.10
500.26	597.14
500.62	604.17
500.98	611.47
501.34	618.67
501.71	626.14
502.07	633.41
502.43	640.87
502.79	648.41
503.16	655.79
503.52	663.48
503.88	671.27
504.24	679.13
504.60	686.95
504.97	694.91
505.33	702.60
505.69	710.98
506.05	719.04
506.41	726.93
506.78	734.43
507.14	742.20
507.50	750.02
507.86	757.82
508.22	765.70
508.59	773.29
508.95	781.07
509.31	788.85
509.67	796.58
510.03	804.19
510.39	812.02
510.75	819.85
511.12	827.64
511.48	835.02
511.84	842.42
512.20	849.69
512.56	856.89
512.92	864.40
513.28	871.45
513.64	878.61
514.00	885.77
514.37	892.94
514.73	900.10
515.09	907.08
515.45	913.88
515.81	920.59
516.17	927.16
516.53	933.77
516.89	940.01
517.25	946.05
517.61	952.09
517.97	957.85
518.33	963.28
518.69	968.74
519.05	974.47
519.41	980.00
519.77	985.90
520.13	990.97
520.49	995.89
520.85	1000.76
521.21	1005.60
521.57	1010.50
521.93	1014.93
522.29	1019.78
522.65	1024.16
523.01	1028.71
523.37	1032.67
523.73	1037.16
524.09	1041.05
524.45	1045.21
524.81	1049.58
525.17	1053.76
525.53	1057.82
525.89	1061.97
526.25	1065.79
526.61	1069.22
526.97	1072.68
527.33	1076.17
527.68	1080.26
528.04	1083.88
528.40	1087.04
528.76	1090.36
529.12	1093.47
529.48	1097.48
529.84	1100.51
530.20	1103.75
530.56	1106.90
530.91	1110.42
531.27	1113.50
531.63	1116.72
531.99	1119.99
532.35	1122.68
532.71	1125.70
533.07	1128.77
533.42	1132.01
533.78	1134.91
534.14	1138.07
534.50	1140.68
534.86	1143.19
535.21	1145.49
535.57	1148.42
535.93	1151.05
536.29	1153.41
536.65	1156.19
537.00	1158.17
537.36	1160.37
537.72	1162.57
538.08	1164.59
538.44	1166.70
538.79	1169.15
539.15	1171.25
539.51	1173.22
539.87	1175.83
540.22	1177.90
540.58	1180.54
540.94	1182.43
541.29	1184.40
541.65	1185.87
542.01	1187.88
542.37	1189.80
542.72	1191.58
543.08	1192.87
543.44	1194.91
543.79	1196.24
544.15	1197.60
544.51	1199.49
544.87	1201.35
545.22	1202.81
545.58	1204.39
545.94	1205.78
546.29	1206.66
546.65	1207.55
547.01	1208.51
547.36	1209.25
547.72	1210.15
548.07	1210.34
548.43	1210.72
548.79	1211.18
549.14	1211.95
549.50	1212.87
549.86	1213.34
550.21	1214.01
550.57	1215.09
550.92	1215.39
551.28	1216.31
551.64	1216.94
551.99	1217.29
552.35	1217.51
552.70	1218.05
553.06	1218.74
553.41	1219.35
553.77	1220.13
554.13	1221.06
554.48	1221.89
554.84	1222.80
555.19	1223.46
555.55	1224.10
555.90	1224.37
556.26	1224.98
556.61	1225.25
556.97	1225.15
557.32	1225.42
557.68	1225.36
558.03	1225.20
558.39	1224.98
558.74	1225.03
559.10	1225.03
559.45	1225.02
559.81	1225.23
560.16	1224.92
560.52	1224.63
560.87	1224.55
561.23	1223.76
561.58	1223.78
561.94	1223.27
562.29	1222.12
562.64	1221.64
563.00	1221.59
563.35	1221.73
563.71	1222.08
564.06	1222.27
564.42	1222.63
564.77	1222.90
565.12	1223.14
565.48	1223.46
565.83	1223.68
566.19	1223.76
566.54	1223.31
566.89	1222.84
567.25	1222.96
567.60	1223.17
567.96	1223.21
568.31	1223.13
568.66	1223.34
569.02	1222.62
569.37	1222.03
569.72	1221.89
570.08	1221.20
570.43	1220.12
570.78	1219.22
571.14	1217.84
571.49	1216.49
571.84	1215.36
572.20	1213.68
572.55	1212.40
572.90	1210.28
573.26	1208.49
573.61	1206.49
573.96	1205.15
574.31	1203.50
574.67	1201.08
575.02	1198.66
575.37	1196.21
575.72	1193.43
576.08	1191.06
576.43	1188.40
576.78	1185.95
577.13	1183.82
577.49	1181.52
577.84	1179.22
578.19	1177.20
578.54	1175.28
578.90	1173.45
579.25	1170.96
579.60	1168.08
579.95	1165.16
580.30	1162.96
580.66	1160.85
581.01	1158.23
581.36	1155.06
581.71	1152.07
582.06	1149.41
582.42	1146.71
582.77	1143.71
583.12	1140.71
583.47	1137.75
583.82	1134.95
584.17	1132.02
584.53	1128.98
584.88	1125.69
585.23	1122.65
585.58	1119.24
585.93	1115.57
586.28	1112.20
586.63	1108.73
586.98	1105.96
587.34	1103.03
587.69	1099.78
588.04	1096.35
588.39	1093.49
588.74	1090.21
589.09	1087.30
589.44	1083.54
589.79	1080.28
590.14	1077.30
590.49	1074.25
590.84	1070.79
591.19	1067.95
591.54	1064.76
591.89	1061.01
592.25	1057.86
592.60	1053.96
592.95	1050.26
593.30	1046.30
593.65	1042.27
594.00	1038.45
594.35	1035.97
594.70	1032.14
595.05	1028.65
595.40	1025.04
595.75	1020.96
596.10	1017.57
596.45	1014.21
596.80	1011.12
597.15	1007.83
597.50	1003.94
597.85	1000.51
598.19	996.95
598.54	993.17
598.89	989.56
599.24	986.52
599.59	982.74
599.94	979.55
600.29	976.02
600.64	972.79
600.99	969.29
601.34	966.22
601.69	961.52
602.04	957.94
602.39	954.07
602.74	950.63
603.08	947.38
603.43	944.26
603.78	940.27
604.13	936.44
604.48	932.86
604.83	929.71
605.18	926.51
605.53	922.85
605.87	919.20
606.22	915.93
606.57	911.91
606.92	908.54
607.27	904.65
607.62	901.02
607.96	897.39
608.31	894.30
608.66	890.42
609.01	886.70
609.36	882.88
609.70	879.08
610.05	875.05
610.40	871.29
610.75	867.17
611.10	863.78
611.44	859.74
611.79	855.41
612.14	851.27
612.49	846.59
612.83	842.82
613.18	838.63
613.53	834.25
613.88	829.90
614.22	825.81
614.57	821.70
614.92	817.64
615.27	813.52
615.61	809.28
615.96	805.35
616.31	801.59
616.65	798.05
617.00	794.38
617.35	790.59
617.70	786.54
618.04	782.39
618.39	778.00
618.74	774.21
619.08	770.47
619.43	766.83
619.78	763.48
620.12	759.73
620.47	756.16
620.82	752.24
621.16	748.59
621.51	744.80
621.85	741.41
622.20	737.57
622.55	733.87
622.89	729.83
623.24	726.21
623.59	722.36
623.93	718.34
624.28	714.64
624.62	711.34
624.97	707.73
625.32	704.35
625.66	700.89
626.01	697.41
626.35	693.84
626.70	690.08
627.04	686.66
627.39	683.26
627.73	679.79
628.08	676.70
628.43	673.40
628.77	669.97
629.12	666.30
629.46	663.39
629.81	660.10
630.15	656.95
630.50	653.45
630.84	650.05
631.19	646.97
631.53	643.60
631.88	639.85
632.22	636.55
632.57	633.37
632.91	630.26
633.26	627.03
633.60	623.81
633.95	620.83
634.29	617.47
634.64	614.34
634.98	611.27
635.32	608.30
635.67	605.52
636.01	602.62
636.36	599.72
636.70	596.73
637.05	593.71
637.39	590.94
637.73	588.30
638.08	585.87
638.42	583.22
638.77	580.75
639.11	578.24
639.45	575.56
639.80	572.63
640.14	569.75
640.49	566.95
640.83	564.40
641.17	561.56
641.52	558.84
641.86	556.00
642.20	553.21
642.55	550.24
642.89	547.40
643.23	544.58
643.58	542.25
643.92	539.28
644.26	536.64
644.61	533.90
644.95	531.21
645.29	528.35
645.64	525.58
645.98	522.59
646.32	519.79
646.66	516.91
647.01	514.30
647.35	511.82
647.69	509.25
648.04	506.70
648.38	504.29
648.72	501.74
649.06	499.12
649.41	496.62
649.75	494.17
650.09	491.76
650.43	489.33
650.78	486.52
651.12	484.15
651.46	481.70
651.80	479.53
652.14	477.21
652.49	474.90
652.83	472.55
653.17	470.06
653.51	467.70
653.85	465.54
654.20	463.33
654.54	460.96
654.88	458.68
655.22	456.37
655.56	453.90
655.90	451.63
656.25	449.35
656.59	447.10
656.93	444.88
657.27	442.72
657.61	440.36
657.95	438.25
658.29	436.21
658.64	434.35
658.98	432.02
659.32	429.62
659.66	427.36
660.00	425.13
660.34	423.18
660.68	421.12
661.02	419.01
661.36	416.97
661.70	415.04
662.05	413.11
662.39	411.25
662.73	409.52
663.07	407.82
663.41	406.05
663.75	404.13
664.09	402.25
664.43	400.18
664.77	398.48
665.11	396.57
665.45	394.79
665.79	392.93
666.13	391.10
666.47	389.41
666.81	387.80
667.15	385.98
667.49	384.44
667.83	382.92
668.17	381.27
668.51	379.70
668.85	378.15
669.19	376.64
669.53	374.92
669.87	373.22
670.21	371.53
670.55	370.02
670.89	368.80
671.23	367.38
671.57	366.13
671.91	364.70
672.25	363.40
672.58	361.95
672.92	360.49
673.26	359.22
673.60	357.92
673.94	356.48
674.28	355.35
674.62	354.10
674.96	352.71
675.30	351.48
675.64	350.16
675.97	348.81
676.31	347.54
676.65	346.25
676.99	345.19
677.33	343.85
677.67	342.59
678.01	341.03
678.34	339.81
678.68	338.60
679.02	337.40
679.36	336.06
679.70	334.89
680.04	333.71
680.37	332.46
680.71	331.17
681.05	330.13
681.39	328.97
681.73	327.67
682.06	326.55
682.40	325.45
682.74	324.35
683.08	323.30
683.42	322.14
683.75	321.13
684.09	319.84
684.43	318.91
684.77	317.78
685.10	316.89
685.44	315.79
685.78	314.67
686.12	313.54
686.45	312.62
686.79	311.55
687.13	310.65
687.46	309.74
687.80	308.93
688.14	307.85
688.48	306.89
688.81	305.92
689.15	304.95
689.49	303.90
689.82	302.98
690.16	301.87
690.50	300.91
690.83	299.88
691.17	298.95
691.51	297.84
691.84	297.01
692.18	296.08
692.52	295.24
692.85	294.46
693.19	293.78
693.52	292.88
693.86	291.97
694.20	291.03
694.53	290.19
694.87	289.13
695.21	288.24
695.54	287.35
695.88	286.45
696.21	285.55
696.55	284.83
696.88	283.95
697.22	283.20
697.56	282.45
697.89	281.69
698.23	280.96
698.56	280.32
698.90	279.60
699.23	278.78
699.57	277.98
699.90	277.07
700.24	276.27
700.58	275.58
700.91	274.94
701.25	274.51
701.58	273.84
701.92	273.35
702.25	272.71
702.59	272.02
702.92	271.49
703.26	270.93
703.59	270.31
703.93	270.01
704.26	269.42
704.60	268.81
704.93	268.16
705.26	267.53
705.60	266.93
705.93	266.20
706.27	265.67
706.60	265.16
706.94	264.84
707.27	264.18
707.61	263.55
707.94	262.97
708.27	262.12
708.61	261.54
708.94	260.95
709.28	260.42
709.61	259.84
709.94	259.25
710.28	258.72
710.61	258.26
710.95	257.48
711.28	257.24
711.61	256.71
711.95	256.35
712.28	255.85
712.61	255.40
712.95	255.12
713.28	254.81
713.61	254.33
713.95	253.76
714.28	253.36
714.61	252.91
714.95	252.43
715.28	252.01
715.61	251.60
715.95	251.16
716.28	250.72
716.61	250.45
716.95	250.00
717.28	249.52
717.61	249.08
717.94	248.64
718.28	248.03
718.61	247.62
718.94	247.11
719.27	246.73
719.61	246.35
719.94	245.91
720.27	245.41
720.60	245.09
720.94	244.67
721.27	244.34
721.60	244.10
721.93	243.78
722.27	243.59
722.60	243.29
722.93	243.02
723.26	242.70
723.59	242.28
723.93	242.09
724.26	241.84
724.59	241.44
724.92	241.30
725.25	241.05
725.59	240.77
725.92	240.58
726.25	240.30
726.58	240.11
726.91	239.79
727.24	239.65
727.57	239.39
727.91	239.11
728.24	238.88
728.57	238.53
728.90	238.32
729.23	237.89
729.56	237.76
729.89	237.53
730.22	237.33
730.55	237.04
730.89	236.68
731.22	236.45
731.55	236.31
731.88	235.97
732.21	235.66
732.54	235.36
732.87	235.15
733.20	234.91
733.53	234.62
733.86	234.48
734.19	234.09
734.52	233.91
734.85	233.97
735.18	233.72
735.51	233.66
735.84	233.43
736.17	233.34
736.50	232.95
736.83	233.09
737.16	232.87
737.49	232.75
737.82	232.57
738.15	232.38
738.48	232.15
738.81	231.96
739.14	231.74
739.47	231.63
739.80	231.41
740.13	231.26
740.46	231.06
740.79	230.82
741.12	230.64
741.45	230.35
741.78	229.92
742.11	229.83
742.44	229.55
742.77	229.42
743.10	229.25
743.43	229.02
743.75	228.43
744.08	228.76
744.41	228.55
744.74	228.38
745.07	228.10
745.40	227.99
745.73	227.95
746.06	227.67
746.39	227.47
746.71	227.31
747.04	227.09
747.37	226.99
747.70	226.85
748.03	226.69
748.36	226.60
748.68	226.43
749.01	226.09
749.34	225.94
749.67	225.77
750.00	225.56
750.33	225.75
750.65	225.70
750.98	225.03
751.31	224.91
751.64	224.77
751.97	224.89
752.29	224.70
752.62	224.38
752.95	224.40
753.28	224.25
753.60	224.06
753.93	224.06
754.26	223.84
754.59	223.56
754.91	223.42
755.24	223.31
755.57	223.17
755.90	223.10
756.22	223.02
756.55	222.81
756.88	222.67
757.20	222.25
757.53	221.99
757.86	221.84
758.19	221.74
758.51	221.61
758.84	221.27
759.17	221.05
759.49	220.97
759.82	221.00
760.15	220.91
760.47	220.85
760.80	220.60
761.13	220.65
761.45	220.64
761.78	220.57
762.11	220.44
762.43	220.32
762.76	220.25
763.08	220.10
763.41	220.06
763.74	220.00
764.06	219.92
764.39	219.83
764.71	219.81
765.04	219.65
765.37	219.60
765.69	219.56
766.02	219.57
766.34	219.38
766.67	219.11
767.00	219.14
767.32	219.16
767.65	219.24
767.97	219.02
768.30	218.90
768.62	218.80
768.95	218.71
769.27	218.65
769.60	218.64
769.92	218.50
770.25	218.37
770.57	218.28
770.90	218.27
771.22	218.15
771.55	218.00
771.87	217.96
772.20	217.85
772.52	218.06
772.85	218.35
773.17	218.39
773.50	218.34
773.82	218.23
774.15	218.06
774.47	217.87
774.80	217.82
775.12	217.75
775.45	217.73
775.77	217.68
776.09	217.62
776.42	217.50
776.74	217.55
777.07	217.45
777.39	217.36
777.72	217.21
778.04	217.16
778.36	217.11
778.69	217.07
779.01	217.05
779.33	216.61
779.66	216.18
779.98	216.09
780.31	216.06
780.63	216.10
780.95	216.07
781.28	216.02
781.60	215.93
781.92	215.87
782.25	215.70
782.57	215.60
782.89	215.52
783.22	215.51
783.54	215.33
783.86	215.41
784.19	215.31
784.51	215.37
784.83	215.32
785.16	215.29
785.48	215.27
785.80	215.22
786.12	215.29
786.45	215.22
786.77	215.17
787.09	215.10
787.42	214.95
787.74	214.93
788.06	214.92
788.38	214.88
788.71	214.88
789.03	214.94
789.35	215.05
789.67	215.03
789.99	214.94
790.32	214.90
790.64	214.86
790.96	215.05
791.28	214.93
791.61	214.90
791.93	214.91
792.25	214.88
792.57	215.08
792.89	215.02
793.21	215.02
793.54	214.97
793.86	214.90
794.18	214.87
794.50	214.80
794.82	214.74
795.14	214.75
795.47	214.74
795.79	214.70
796.11	214.47
796.43	214.37
796.75	214.34
797.07	214.32
797.39	214.21
797.71	214.04
798.04	214.06
798.36	214.13
798.68	214.06
799.00	214.05
799.32	213.84
799.64	213.84
799.96	213.84
800.28	213.93
800.60	213.86
800.92	213.90
801.24	213.86
801.56	213.92
801.89	213.89
802.21	213.94
802.53	213.86
802.85	213.96
803.17	214.14
803.49	214.10
803.81	214.14
804.13	214.13
804.45	214.05
804.77	214.00
805.09	213.94
805.41	213.89
805.73	213.87
806.05	213.80
806.37	213.78
806.69	213.68
807.01	213.54
807.33	213.58
807.65	213.45
807.97	213.56
808.28	213.50
808.60	213.41
808.92	213.35
809.24	213.55
809.56	213.47
809.88	213.38
810.20	213.34
810.52	213.35
810.84	213.33
811.16	213.38
811.48	213.28
811.80	213.43
812.12	213.49
812.43	213.50
812.75	213.48
813.07	213.46
813.39	213.54
813.71	213.59
814.03	213.59
814.35	213.65
814.67	213.58
814.98	213.53
815.30	213.61
815.62	213.47
815.94	213.26
816.26	213.27
816.58	213.22
816.89	213.28
817.21	213.22
817.53	213.23
817.85	213.19
818.17	213.17
818.48	213.02
818.80	213.10
819.12	213.04
819.44	213.02
819.76	213.00
820.07	212.97
820.39	212.95
820.71	212.97
821.03	212.94
821.34	212.85
821.66	212.90
821.98	212.88
822.30	212.87
822.61	213.02
822.93	212.89
823.25	212.83
823.57	212.81
823.88	212.87
824.20	212.81
824.52	212.86
824.83	212.91
825.15	212.82
825.47	212.74
825.79	212.73
826.10	212.67
826.42	212.54
826.74	212.58
827.05	212.50
827.37	212.49
827.69	212.45
828.00	212.43
828.32	212.36
828.64	212.42
828.95	212.60
829.27	212.53
829.58	212.64
829.90	212.65
830.22	212.66
830.53	212.52
830.85	212.49
831.17	212.39
831.48	212.36
831.80	212.37
832.11	212.32
832.43	212.27
832.75	212.24
833.06	212.52
833.38	212.32
833.69	212.29
834.01	212.25
834.32	212.22
834.64	212.17
834.96	212.25
835.27	212.15
835.59	212.00
835.90	211.97
836.22	211.99
836.53	211.97
836.85	211.94
837.16	212.33
837.48	212.41
837.79	212.55
838.11	212.59
838.42	212.64
838.74	212.70
839.05	212.65
839.37	212.65
839.68	212.39
840.00	212.35
840.31	212.42
840.63	212.45
840.94	212.40
841.26	212.36
841.57	212.31
841.88	212.32
842.20	212.26
842.51	212.16
842.83	212.10
843.14	212.40
843.46	212.39
843.77	212.19
844.08	212.09
844.40	211.93
844.71	211.85
845.03	211.76
845.34	211.68
845.65	211.69
845.97	211.71
846.28	211.71
846.60	211.84
846.91	211.84
847.22	211.78
847.54	211.85
847.85	211.93
848.16	211.88
848.48	211.88
848.79	211.99
849.10	212.05
849.42	212.10
849.73	211.74
850.04	211.72
850.36	211.59
850.67	211.71
850.98	211.72
851.30	211.81
851.61	211.85
851.92	211.80
852.23	211.87
852.55	211.94
852.86	211.97
853.17	211.90
853.49	211.90
853.80	211.96
854.11	212.06
854.42	212.05
854.74	212.00
855.05	211.96
855.36	211.89
855.67	211.91
855.99	211.95
856.30	212.37
856.61	212.41
856.92	212.35
857.23	212.33
857.55	212.27
857.86	212.18
858.17	212.15
858.48	212.20
858.79	212.12
859.11	212.15
859.42	212.12
859.73	212.15
860.04	212.09
860.35	211.97
860.66	211.82
860.98	211.85
861.29	211.93
861.60	211.91
861.91	211.93
862.22	211.85
862.53	211.67
862.84	211.22
863.16	211.23
863.47	211.20
863.78	211.11
864.09	211.19
864.40	211.23
864.71	211.26
865.02	211.31
865.33	211.29
865.64	211.19
865.95	211.19
866.27	211.41
866.58	211.38
866.89	211.37
867.20	211.33
867.51	211.26
867.82	211.23
868.13	211.30
868.44	211.23
868.75	211.37
869.06	211.44
869.37	211.58
869.68	211.53
869.99	211.57
870.30	211.60
870.61	211.58
870.92	211.60
871.23	211.60
871.54	211.64
871.85	211.75
872.16	211.80
872.47	211.76
872.78	211.52
873.09	211.59
873.40	211.60
873.71	211.67
874.02	211.63
874.33	211.65
874.64	211.55
874.95	211.69
875.26	211.54
875.56	211.55
875.87	211.42
876.18	211.40
876.49	211.71
876.80	211.69
877.11	211.66
877.42	211.62
877.73	211.55
878.04	211.48
878.35	211.50
878.66	211.49
878.96	211.50
879.27	211.51
879.58	211.46
879.89	211.43
880.20	211.47
880.51	211.55
880.82	211.46
881.12	211.48
881.43	211.33
881.74	211.32
882.05	211.29
882.36	211.33
882.67	211.33
882.97	211.04
883.28	211.01
883.59	210.94
883.90	210.92
884.21	210.97
884.51	210.93
884.82	210.81
885.13	210.70
885.44	210.72
885.74	210.76
886.05	210.77
886.36	210.79
886.67	210.70
886.98	210.79
887.28	210.80
887.59	210.74
887.90	210.78
888.20	210.79
888.51	210.85
888.82	210.78
889.13	210.81
889.43	211.00
889.74	210.99
890.05	211.04
890.35	211.04
890.66	211.05
890.97	211.07
891.28	211.17
891.58	211.25
891.89	211.28
892.20	211.15
892.50	211.08
892.81	211.19
893.12	211.19
893.42	211.09
893.73	211.10
894.04	211.16
894.34	211.17
894.65	211.16
894.95	211.11
895.26	211.17
895.57	211.27
895.87	211.03
896.18	211.13
896.48	211.16
896.79	211.16
897.10	211.17
897.40	211.18
897.71	211.10
898.01	211.11
898.32	211.16
898.63	211.15
898.93	211.23
899.24	211.15
899.54	211.15
899.85	211.10
900.15	211.15
900.46	211.17
900.76	211.21
901.07	211.18
901.38	211.15
901.68	211.21
901.99	211.00
902.29	211.06
902.60	211.04
902.90	211.06
903.21	211.01
903.51	211.02
903.82	211.04
904.12	211.07
904.43	211.11
904.73	211.07
905.03	211.13
905.34	211.48
905.64	211.45
905.95	211.48
906.25	211.49
906.56	211.50
906.86	211.47
907.17	211.43
907.47	211.51
907.77	211.50
908.08	211.45
908.38	211.56
908.69	211.59
908.99	211.64
909.30	211.58
909.60	211.65
909.90	211.66
910.21	211.61
910.51	211.51
910.81	211.49
911.12	211.44
911.42	211.41
911.73	210.96
912.03	211.04
912.33	211.08
912.64	210.99
912.94	210.93
913.24	210.85
913.55	210.80
913.85	210.70
914.15	210.79
914.46	210.81
914.76	210.72
915.06	210.68
915.37	210.62
915.67	210.65
915.97	210.63
916.27	210.53
916.58	210.55
916.88	210.58
917.18	210.55
917.49	210.82
917.79	210.84
918.09	211.01
918.39	211.05
918.70	211.02
919.00	211.13
919.30	211.34
919.60	211.42
919.91	211.41
920.21	211.49
920.51	211.40
920.81	211.35
921.12	211.43
921.42	211.42
921.72	211.39
922.02	211.40
922.32	211.44
922.63	211.47
922.93	211.53
923.23	211.56
923.53	211.50
923.83	211.30
924.13	211.36
924.44	211.37
924.74	211.40
925.04	211.41
925.34	211.39
925.64	211.24
925.94	211.19
926.24	211.35
926.55	211.29
926.85	211.39
927.15	211.39
927.45	211.39
927.75	211.34
928.05	211.34
928.35	211.32
928.65	211.34
928.95	211.44
929.26	211.37
929.56	211.41
929.86	211.51
930.16	211.50
930.46	211.43
930.76	211.39
931.06	211.31
931.36	211.29
931.66	211.38
931.96	211.35
932.26	211.41
932.56	211.35
932.86	211.43
933.16	211.40
933.46	211.40
933.76	211.41
934.06	211.55
934.36	211.76
934.66	211.76
934.96	211.78
935.26	211.74
935.56	211.83
935.86	211.77
936.16	211.69
936.46	211.59
936.76	211.60
937.06	211.60
937.36	211.58
937.66	211.54
937.96	211.46
938.26	211.45
938.56	211.50
938.86	211.48
939.16	211.56
939.46	211.58
939.76	211.60
940.06	211.57
940.35	211.50
940.65	211.26
940.95	211.34
941.25	211.22
941.55	211.20
941.85	211.22
942.15	211.25
942.45	211.36
942.75	211.40
943.04	211.42
943.34	211.49
943.64	211.52
943.94	211.56
944.24	211.56
944.54	211.66
944.84	211.63
945.13	211.60
945.43	211.54
945.73	211.50
946.03	211.52
946.33	211.47
946.62	211.44
946.92	211.48
947.22	211.42
947.52	211.47
947.82	211.45
948.11	211.42
948.41	211.40
948.71	211.38
949.01	211.38
949.31	211.40
949.60	211.33
949.90	211.41
950.20	211.35
950.50	211.35
950.79	211.30
951.09	211.30
951.39	211.33
951.69	211.25
951.98	211.44
952.28	211.40
952.58	211.50
952.87	211.52
953.17	211.59
953.47	211.62
953.76	211.67
954.06	211.75
954.36	211.60
954.66	211.60
954.95	211.66
955.25	211.78
955.55	211.73
955.84	211.65
956.14	211.65
956.44	211.69
956.73	211.63
957.03	211.66
957.32	211.64
957.62	211.62
957.92	211.76
958.21	211.65
958.51	212.04
958.81	212.03
959.10	212.08
959.40	212.12
959.69	212.12
959.99	212.13
960.29	212.06
960.58	212.13
960.88	212.31
961.17	212.23
961.47	212.17
961.76	212.20
962.06	212.35
962.36	212.26
962.65	212.28
962.95	212.38
963.24	212.34
963.54	212.38
963.83	212.35
964.13	212.24
964.42	212.13
964.72	211.89
965.01	211.89
965.31	211.80
965.60	211.68
965.90	211.85
966.19	211.77
966.49	211.82
966.78	211.76
967.08	211.64
967.37	211.72
967.67	211.66
967.96	211.71
968.26	211.66
968.55	211.72
968.85	211.73
969.14	211.64
969.43	211.57
969.73	211.54
970.02	211.52
970.32	211.42
970.61	211.40
970.91	211.21
971.20	211.16
971.49	211.14
971.79	211.24
972.08	211.04
972.38	211.08
972.67	211.00
972.96	211.05
973.26	210.97
973.55	210.94
973.85	210.95
974.14	210.90
974.43	210.87
974.73	210.79
975.02	210.70
975.31	210.67
975.61	210.72
975.90	210.62
976.19	210.65
976.49	210.81
976.78	210.85
977.07	210.87
977.37	210.89
977.66	211.00
977.95	210.89
978.24	210.85
978.54	210.91
978.83	210.83
979.12	210.82
979.42	210.80
979.71	210.74
980.00	210.64
980.29	210.63
980.59	210.59
980.88	210.63
981.17	210.64
981.46	210.63
981.76	210.62
982.05	210.75
982.34	210.75
982.63	210.74
982.93	210.72
983.22	210.80
983.51	210.74
983.80	210.68
984.09	210.78
984.39	210.82
984.68	210.78
984.97	210.84
985.26	210.81
985.55	210.98
985.85	210.94
986.14	211.01
986.43	211.12
986.72	211.11
987.01	211.09
987.30	211.06
987.59	211.10
987.89	211.14
988.18	211.05
988.47	210.97
988.76	210.87
989.05	210.87
989.34	210.77
989.63	210.91
989.92	210.87
990.22	210.87
990.51	210.82
990.80	210.76
991.09	210.84
991.38	210.91
991.67	210.85
991.96	210.84
992.25	210.93
992.54	210.86
992.83	210.91
993.12	210.87
993.41	210.98
993.70	211.12
993.99	211.15
994.28	211.16
994.58	211.25
994.87	211.30
995.16	211.29
995.45	211.37
995.74	211.31
996.03	211.38
996.32	211.34
996.61	211.39
996.90	211.42
997.19	211.40
997.48	211.37
997.77	211.30
998.06	211.35
998.34	211.29
998.63	211.23
998.92	211.22
999.21	211.28
999.50	211.24
999.79	211.10
1000.08	211.12
1000.37	211.24
1000.66	211.22
1000.95	211.25
1001.24	211.25
1001.53	211.31
1001.82	211.30
1002.11	211.20
1002.40	211.23
1002.68	211.31
1002.97	211.53
1003.26	211.46
1003.55	211.42
1003.84	211.41
1004.13	211.53
1004.42	211.55
1004.71	211.62
1004.99	211.60
1005.28	211.68
1005.57	211.64
1005.86	211.64
1006.15	211.57
1006.44	211.46
1006.72	211.47
1007.01	211.50
1007.30	211.48
1007.59	211.43
1007.88	211.43
1008.17	211.39
1008.45	211.40
1008.74	211.25
1009.03	211.11
1009.32	211.10
1009.60	211.10
1009.89	211.07
1010.18	210.94
1010.47	210.93
1010.76	210.83
1011.04	210.74
1011.33	210.78
1011.62	210.78
1011.91	210.80
1012.19	210.85
1012.48	210.88
1012.77	210.90
1013.05	210.99
1013.34	210.99
1013.63	210.93
1013.92	210.95
1014.20	211.02
1014.49	210.98
1014.78	211.08
1015.06	210.95
1015.35	210.94
1015.64	211.04
1015.92	211.07
1016.21	211.15
1016.50	211.06
1016.78	211.17
1017.07	211.25
1017.36	211.11
1017.64	211.11
1017.93	211.09
1018.22	211.00
1018.50	211.05
1018.79	211.02
1019.08	210.85
1019.36	210.87
1019.65	210.86
1019.93	210.90
1020.22	211.00
1020.51	211.17
1020.79	211.12
1021.08	209.70
1021.36	211.95
1021.65	210.95
1021.94	210.45
1022.22	210.45
1022.51	210.40
1022.79	212.50
1023.08	212.20
1023.36	214.95
1023.65	211.05
>>>>>End Processed Spectral Data<<<<<
