SpectraSuite Data File
++++++++++++++++++++++++++++++++++++
Date: Mon Feb 25 17:06:51 EST 2013
User: group
Dark Spectrum Present: No
Reference Spectrum Present: No
Number of Sampled Component Spectra: 1
Spectrometers: USB2E7196
Integration Time (usec): 104000 (USB2E7196)
Spectra Averaged: 20 (USB2E7196)
Boxcar Smoothing: 10 (USB2E7196)
Correct for Electrical Dark: No (USB2E7196)
Strobe/Lamp Enabled: No (USB2E7196)
Correct for Detector Non-linearity: No (USB2E7196)
Correct for Stray Light: No (USB2E7196)
Number of Pixels in Processed Spectrum: 2048
>>>>>Begin Processed Spectral Data<<<<<
339.09	0.00
339.48	198.75
339.86	198.25
340.24	201.20
340.63	202.60
341.01	208.80
341.39	205.90
341.78	206.60
342.16	207.40
342.54	208.20
342.93	198.24
343.31	208.24
343.69	208.78
344.07	209.28
344.46	209.74
344.84	210.09
345.22	210.13
345.60	210.31
345.99	210.43
346.37	210.56
346.75	210.62
347.13	210.54
347.52	210.63
347.90	210.79
348.28	210.75
348.66	210.75
349.05	210.57
349.43	210.62
349.81	210.62
350.19	210.55
350.57	210.53
350.96	210.61
351.34	210.68
351.72	210.72
352.10	210.85
352.48	210.89
352.87	210.93
353.25	211.04
353.63	211.12
354.01	211.18
354.39	211.24
354.77	211.34
355.15	211.53
355.54	211.44
355.92	211.30
356.30	211.38
356.68	211.67
357.06	211.78
357.44	211.70
357.82	211.73
358.20	211.76
358.58	211.87
358.97	211.86
359.35	211.99
359.73	212.11
360.11	212.08
360.49	212.10
360.87	212.17
361.25	212.25
361.63	212.42
362.01	212.55
362.39	212.63
362.77	212.71
363.15	212.75
363.53	212.83
363.91	212.92
364.29	212.98
364.67	212.72
365.05	212.72
365.43	212.80
365.81	212.84
366.19	213.00
366.57	213.12
366.95	213.15
367.33	213.05
367.71	213.05
368.09	213.19
368.47	213.23
368.85	213.23
369.23	213.30
369.61	213.17
369.99	213.25
370.37	213.29
370.75	213.40
371.13	213.33
371.51	213.33
371.89	213.42
372.27	213.39
372.65	213.41
373.03	213.39
373.41	213.37
373.78	213.38
374.16	213.20
374.54	213.11
374.92	213.00
375.30	212.98
375.68	212.82
376.06	212.78
376.44	212.70
376.82	212.69
377.19	212.58
377.57	212.57
377.95	212.35
378.33	212.26
378.71	212.05
379.09	212.05
379.47	211.95
379.84	211.82
380.22	211.82
380.60	211.69
380.98	211.70
381.36	211.59
381.73	211.50
382.11	211.51
382.49	211.44
382.87	211.31
383.25	211.25
383.62	211.66
384.00	211.46
384.38	211.40
384.76	211.41
385.13	211.46
385.51	211.32
385.89	211.26
386.27	211.16
386.64	211.11
387.02	211.02
387.40	210.99
387.78	210.96
388.15	210.82
388.53	210.79
388.91	210.63
389.29	210.64
389.66	210.63
390.04	210.60
390.42	210.64
390.79	210.70
391.17	210.66
391.55	210.31
391.92	210.33
392.30	210.40
392.68	210.30
393.05	210.21
393.43	210.25
393.81	210.33
394.18	210.20
394.56	210.17
394.94	210.14
395.31	210.07
395.69	210.15
396.06	210.20
396.44	210.20
396.82	210.25
397.19	210.37
397.57	210.32
397.95	210.32
398.32	210.19
398.70	210.22
399.07	210.29
399.45	210.29
399.82	210.35
400.20	210.31
400.58	210.29
400.95	210.22
401.33	210.30
401.70	210.57
402.08	210.74
402.45	210.78
402.83	210.98
403.20	210.98
403.58	210.94
403.95	210.99
404.33	211.09
404.71	211.12
405.08	211.41
405.46	211.47
405.83	211.62
406.21	211.70
406.58	211.72
406.96	211.82
407.33	211.92
407.70	212.05
408.08	212.40
408.45	212.63
408.83	212.92
409.20	213.05
409.58	212.97
409.95	213.30
410.33	213.58
410.70	213.70
411.08	214.11
411.45	214.44
411.82	214.75
412.20	215.14
412.57	215.69
412.95	215.75
413.32	216.26
413.69	216.61
414.07	217.11
414.44	217.70
414.82	218.24
415.19	218.80
415.56	219.38
415.94	219.81
416.31	220.60
416.68	221.34
417.06	222.14
417.43	223.02
417.81	223.79
418.18	224.71
418.55	225.68
418.93	226.69
419.30	227.71
419.67	228.82
420.04	229.94
420.42	231.06
420.79	232.72
421.16	234.14
421.54	235.83
421.91	237.32
422.28	238.92
422.66	240.58
423.03	242.50
423.40	244.26
423.77	246.09
424.15	247.88
424.52	249.79
424.89	252.00
425.26	254.01
425.64	256.01
426.01	258.14
426.38	260.45
426.75	262.78
427.13	265.16
427.50	267.69
427.87	270.31
428.24	273.00
428.61	275.28
428.99	278.05
429.36	280.92
429.73	283.96
430.10	286.95
430.47	290.00
430.85	292.92
431.22	296.29
431.59	300.02
431.96	303.38
432.33	307.01
432.70	310.65
433.08	314.80
433.45	318.74
433.82	322.76
434.19	327.22
434.56	331.62
434.93	335.69
435.30	339.86
435.68	344.45
436.05	348.90
436.42	353.39
436.79	357.62
437.16	362.03
437.53	366.68
437.90	371.40
438.27	376.04
438.64	380.75
439.01	385.25
439.38	389.11
439.75	393.07
440.13	397.54
440.50	401.63
440.87	405.19
441.24	408.84
441.61	412.76
441.98	415.72
442.35	419.01
442.72	422.62
443.09	426.12
443.46	428.25
443.83	429.85
444.20	431.22
444.57	432.98
444.94	433.92
445.31	434.93
445.68	436.20
446.05	436.83
446.42	436.70
446.79	436.34
447.16	436.00
447.53	435.87
447.90	434.34
448.27	432.79
448.64	430.50
449.01	428.98
449.37	426.15
449.74	423.36
450.11	420.27
450.48	416.43
450.85	412.45
451.22	409.19
451.59	406.02
451.96	402.99
452.33	398.96
452.70	395.30
453.07	390.93
453.43	386.10
453.80	381.70
454.17	377.59
454.54	373.60
454.91	369.35
455.28	365.14
455.65	361.27
456.02	357.87
456.38	354.58
456.75	350.43
457.12	346.97
457.49	343.52
457.86	340.01
458.23	337.40
458.59	334.40
458.96	331.25
459.33	328.46
459.70	325.72
460.07	323.51
460.43	321.03
460.80	318.74
461.17	316.75
461.54	314.45
461.91	312.27
462.27	310.10
462.64	308.28
463.01	306.24
463.38	304.46
463.74	302.08
464.11	300.36
464.48	298.87
464.85	297.20
465.21	296.04
465.58	294.66
465.95	293.01
466.32	291.71
466.68	290.37
467.05	288.94
467.42	287.65
467.78	286.24
468.15	284.94
468.52	284.00
468.88	282.59
469.25	281.51
469.62	280.65
469.98	279.59
470.35	278.58
470.72	277.62
471.08	276.51
471.45	275.77
471.82	275.06
472.18	274.14
472.55	273.47
472.92	272.61
473.28	271.93
473.65	271.21
474.02	270.43
474.38	269.97
474.75	269.56
475.11	269.01
475.48	268.63
475.85	268.22
476.21	267.79
476.58	267.53
476.94	267.29
477.31	266.90
477.67	266.74
478.04	266.53
478.41	266.42
478.77	266.65
479.14	266.32
479.50	266.23
479.87	266.26
480.23	266.24
480.60	266.10
480.96	266.05
481.33	266.20
481.69	266.18
482.06	266.17
482.42	266.18
482.79	266.20
483.15	266.25
483.52	266.40
483.88	266.45
484.25	266.56
484.61	266.73
484.98	266.99
485.34	267.35
485.71	267.70
486.07	268.01
486.44	267.92
486.80	268.41
487.17	268.73
487.53	269.17
487.90	269.62
488.26	270.31
488.62	270.95
488.99	271.46
489.35	272.14
489.72	272.76
490.08	273.40
490.44	274.08
490.81	274.90
491.17	275.62
491.54	276.44
491.90	277.34
492.26	278.18
492.63	279.03
492.99	279.83
493.36	280.79
493.72	281.85
494.08	282.90
494.45	283.96
494.81	285.16
495.17	286.26
495.54	287.45
495.90	288.52
496.26	289.59
496.63	290.76
496.99	292.04
497.35	293.35
497.72	294.79
498.08	296.18
498.44	297.45
498.80	298.91
499.17	300.36
499.53	301.76
499.89	303.30
500.26	304.85
500.62	306.36
500.98	307.93
501.34	309.51
501.71	311.19
502.07	312.82
502.43	314.36
502.79	315.92
503.16	317.53
503.52	319.16
503.88	320.77
504.24	322.46
504.60	324.20
504.97	326.02
505.33	327.69
505.69	329.62
506.05	331.43
506.41	333.27
506.78	334.90
507.14	336.70
507.50	338.49
507.86	340.45
508.22	342.42
508.59	344.21
508.95	345.92
509.31	347.80
509.67	349.65
510.03	351.49
510.39	353.49
510.75	355.39
511.12	357.33
511.48	359.39
511.84	361.30
512.20	363.23
512.56	365.03
512.92	367.02
513.28	368.99
513.64	370.91
514.00	372.77
514.37	374.90
514.73	376.92
515.09	378.92
515.45	380.71
515.81	382.55
516.17	384.61
516.53	386.63
516.89	388.58
517.25	390.59
517.61	392.87
517.97	394.89
518.33	397.10
518.69	399.17
519.05	401.31
519.41	403.53
519.77	405.95
520.13	408.17
520.49	410.34
520.85	412.45
521.21	414.94
521.57	417.23
521.93	419.30
522.29	421.63
522.65	423.99
523.01	426.55
523.37	429.02
523.73	431.55
524.09	434.13
524.45	436.67
524.81	439.20
525.17	441.73
525.53	444.35
525.89	447.04
526.25	449.87
526.61	452.44
526.97	455.05
527.33	457.56
527.68	460.61
528.04	463.40
528.40	466.16
528.76	468.87
529.12	471.88
529.48	475.13
529.84	478.08
530.20	481.21
530.56	484.16
530.91	487.37
531.27	490.39
531.63	493.58
531.99	496.85
532.35	499.96
532.71	502.94
533.07	506.17
533.42	509.67
533.78	512.83
534.14	516.10
534.50	519.19
534.86	522.52
535.21	525.41
535.57	528.85
535.93	532.15
536.29	535.58
536.65	538.87
537.00	541.96
537.36	545.14
537.72	548.19
538.08	551.44
538.44	554.60
538.79	557.82
539.15	560.95
539.51	564.03
539.87	567.39
540.22	570.73
540.58	574.10
540.94	576.94
541.29	580.11
541.65	583.21
542.01	586.50
542.37	589.73
542.72	593.11
543.08	596.15
543.44	599.44
543.79	602.22
544.15	605.29
544.51	608.61
544.87	611.91
545.22	614.91
545.58	617.96
545.94	620.78
546.29	623.79
546.65	626.70
547.01	629.44
547.36	632.40
547.72	635.14
548.07	637.78
548.43	640.46
548.79	643.15
549.14	645.61
549.50	648.33
549.86	650.62
550.21	652.96
550.57	655.65
550.92	657.89
551.28	660.46
551.64	662.85
551.99	665.17
552.35	667.23
552.70	669.54
553.06	671.78
553.41	674.13
553.77	676.43
554.13	678.57
554.48	680.77
554.84	682.85
555.19	684.83
555.55	686.99
555.90	688.91
556.26	690.75
556.61	692.65
556.97	694.19
557.32	695.91
557.68	697.46
558.03	698.79
558.39	700.48
558.74	702.31
559.10	703.87
559.45	705.45
559.81	707.13
560.16	708.58
560.52	710.06
560.87	711.36
561.23	712.45
561.58	714.10
561.94	715.41
562.29	716.55
562.64	717.84
563.00	718.86
563.35	720.25
563.71	721.70
564.06	723.13
564.42	724.65
564.77	726.14
565.12	727.52
565.48	729.16
565.83	730.42
566.19	731.37
566.54	732.19
566.89	732.91
567.25	733.99
567.60	735.11
567.96	736.24
568.31	737.32
568.66	738.15
569.02	738.63
569.37	739.09
569.72	739.65
570.08	740.18
570.43	740.64
570.78	740.77
571.14	740.82
571.49	741.02
571.84	741.20
572.20	741.15
572.55	741.34
572.90	741.04
573.26	740.64
573.61	740.31
573.96	740.27
574.31	740.00
574.67	739.37
575.02	738.80
575.37	738.06
575.72	737.33
576.08	737.03
576.43	736.32
576.78	736.08
577.13	735.58
577.49	735.17
577.84	734.57
578.19	734.16
578.54	733.87
578.90	733.50
579.25	732.77
579.60	732.05
579.95	731.33
580.30	730.80
580.66	730.51
581.01	729.87
581.36	728.99
581.71	728.30
582.06	727.74
582.42	726.99
582.77	726.12
583.12	725.38
583.47	724.60
583.82	724.14
584.17	723.32
584.53	722.79
584.88	722.02
585.23	721.49
585.58	720.71
585.93	719.82
586.28	719.08
586.63	718.39
586.98	717.79
587.34	717.16
587.69	716.21
588.04	715.22
588.39	714.48
588.74	713.70
589.09	713.07
589.44	711.89
589.79	711.11
590.14	710.38
590.49	709.57
590.84	708.36
591.19	707.40
591.54	706.40
591.89	704.84
592.25	703.82
592.60	702.39
592.95	701.20
593.30	699.72
593.65	698.13
594.00	696.73
594.35	696.50
594.70	694.89
595.05	693.67
595.40	692.34
595.75	690.90
596.10	689.73
596.45	688.51
596.80	687.67
597.15	686.47
597.50	685.13
597.85	683.84
598.19	682.61
598.54	681.39
598.89	680.26
599.24	679.49
599.59	678.18
599.94	677.16
600.29	675.93
600.64	674.87
600.99	673.67
601.34	672.64
601.69	670.33
602.04	669.18
602.39	667.77
602.74	666.74
603.08	665.75
603.43	664.98
603.78	663.67
604.13	662.37
604.48	661.15
604.83	660.32
605.18	659.39
605.53	658.25
605.87	656.74
606.22	655.46
606.57	654.14
606.92	652.73
607.27	651.50
607.62	650.34
607.96	649.17
608.31	648.33
608.66	647.10
609.01	645.79
609.36	644.53
609.70	643.25
610.05	641.70
610.40	640.31
610.75	638.56
611.10	637.27
611.44	635.49
611.79	633.89
612.14	632.01
612.49	630.00
612.83	628.41
613.18	626.81
613.53	625.09
613.88	623.10
614.22	621.34
614.57	619.34
614.92	617.30
615.27	615.36
615.61	613.27
615.96	611.38
616.31	609.65
616.65	608.06
617.00	606.26
617.35	604.60
617.70	602.45
618.04	600.24
618.39	597.85
618.74	596.13
619.08	594.05
619.43	592.10
619.78	590.42
620.12	588.48
620.47	586.59
620.82	584.46
621.16	582.50
621.51	580.71
621.85	578.80
622.20	576.97
622.55	575.00
622.89	572.94
623.24	570.90
623.59	568.66
623.93	566.46
624.28	564.48
624.62	562.65
624.97	560.89
625.32	558.99
625.66	557.41
626.01	555.32
626.35	553.67
626.70	551.77
627.04	549.90
627.39	548.18
627.73	546.45
628.08	544.81
628.43	543.04
628.77	541.13
629.12	539.27
629.46	537.44
629.81	535.74
630.15	533.77
630.50	531.93
630.84	530.08
631.19	528.15
631.53	526.30
631.88	524.08
632.22	522.04
632.57	520.41
632.91	518.41
633.26	516.85
633.60	514.91
633.95	513.17
634.29	511.12
634.64	509.22
634.98	507.18
635.32	505.31
635.67	503.54
636.01	501.66
636.36	499.80
636.70	498.10
637.05	496.13
637.39	494.53
637.73	492.82
638.08	491.49
638.42	490.00
638.77	488.36
639.11	486.75
639.45	485.06
639.80	483.17
640.14	481.40
640.49	479.50
640.83	477.64
641.17	475.65
641.52	473.93
641.86	472.11
642.20	470.47
642.55	468.59
642.89	466.85
643.23	465.07
643.58	463.53
643.92	461.64
644.26	459.89
644.61	458.20
644.95	456.41
645.29	454.36
645.64	452.44
645.98	450.60
646.32	448.80
646.66	447.00
647.01	445.29
647.35	443.63
647.69	441.87
648.04	440.21
648.38	438.68
648.72	436.93
649.06	435.14
649.41	433.28
649.75	431.54
650.09	429.76
650.43	428.01
650.78	426.08
651.12	424.20
651.46	422.42
651.80	420.64
652.14	418.85
652.49	417.27
652.83	415.59
653.17	413.75
653.51	412.03
653.85	410.48
654.20	408.95
654.54	407.15
654.88	405.34
655.22	403.72
655.56	401.89
655.90	400.14
656.25	398.54
656.59	396.89
656.93	395.29
657.27	393.79
657.61	392.16
657.95	390.74
658.29	389.33
658.64	387.96
658.98	386.37
659.32	384.81
659.66	383.07
660.00	381.30
660.34	379.78
660.68	378.13
661.02	376.49
661.36	374.79
661.70	373.30
662.05	371.88
662.39	370.48
662.73	369.22
663.07	368.05
663.41	366.74
663.75	365.33
664.09	363.80
664.43	362.21
664.77	360.79
665.11	359.27
665.45	357.87
665.79	356.46
666.13	355.13
666.47	353.75
666.81	352.43
667.15	351.25
667.49	350.08
667.83	348.95
668.17	347.70
668.51	346.55
668.85	345.46
669.19	344.38
669.53	343.03
669.87	341.67
670.21	340.33
670.55	339.00
670.89	338.02
671.23	337.00
671.57	335.97
671.91	334.93
672.25	333.87
672.58	332.81
672.92	331.61
673.26	330.57
673.60	329.59
673.94	328.50
674.28	327.48
674.62	326.51
674.96	325.41
675.30	324.41
675.64	323.38
675.97	322.30
676.31	321.26
676.65	320.28
676.99	319.43
677.33	318.40
677.67	317.44
678.01	316.32
678.34	315.40
678.68	314.47
679.02	313.47
679.36	312.53
679.70	311.58
680.04	310.65
680.37	309.68
680.71	308.78
681.05	308.08
681.39	307.14
681.73	306.13
682.06	305.24
682.40	304.34
682.74	303.52
683.08	302.71
683.42	301.77
683.75	300.96
684.09	299.95
684.43	299.08
684.77	298.16
685.10	297.28
685.44	296.28
685.78	295.38
686.12	294.61
686.45	293.74
686.79	292.85
687.13	292.18
687.46	291.39
687.80	290.64
688.14	289.70
688.48	288.88
688.81	288.03
689.15	287.30
689.49	286.49
689.82	285.67
690.16	284.76
690.50	283.98
690.83	283.10
691.17	282.25
691.51	281.40
691.84	280.73
692.18	280.04
692.52	279.38
692.85	278.75
693.19	278.09
693.52	277.37
693.86	276.72
694.20	276.04
694.53	275.32
694.87	274.49
695.21	273.81
695.54	273.22
695.88	272.56
696.21	271.83
696.55	271.24
696.88	270.62
697.22	270.01
697.56	269.54
697.89	268.93
698.23	268.44
698.56	267.83
698.90	267.30
699.23	266.61
699.57	266.04
699.90	265.37
700.24	264.77
700.58	264.25
700.91	263.77
701.25	263.45
701.58	263.03
701.92	262.70
702.25	262.14
702.59	261.64
702.92	261.12
703.26	260.64
703.59	260.12
703.93	259.91
704.26	259.40
704.60	258.81
704.93	258.37
705.26	257.92
705.60	257.59
705.93	257.00
706.27	256.68
706.60	256.27
706.94	256.05
707.27	255.50
707.61	255.05
707.94	254.52
708.27	253.78
708.61	253.23
708.94	252.62
709.28	252.26
709.61	251.65
709.94	251.29
710.28	250.95
710.61	250.54
710.95	249.70
711.28	249.64
711.61	249.22
711.95	248.87
712.28	248.41
712.61	247.99
712.95	247.80
713.28	247.53
713.61	247.10
713.95	246.57
714.28	246.27
714.61	245.81
714.95	245.41
715.28	245.05
715.61	244.59
715.95	244.23
716.28	243.80
716.61	243.55
716.95	243.14
717.28	242.69
717.61	242.31
717.94	242.12
718.28	241.41
718.61	241.10
718.94	240.68
719.27	240.38
719.61	240.10
719.94	239.68
720.27	239.12
720.60	238.84
720.94	238.55
721.27	238.22
721.60	238.03
721.93	237.75
722.27	237.64
722.60	237.45
722.93	237.25
723.26	236.98
723.59	236.73
723.93	236.48
724.26	236.29
724.59	236.02
724.92	235.76
725.25	235.65
725.59	235.34
725.92	235.17
726.25	234.99
726.58	234.75
726.91	234.52
727.24	234.53
727.57	234.28
727.91	233.96
728.24	233.79
728.57	233.51
728.90	233.33
729.23	232.95
729.56	232.95
729.89	232.68
730.22	232.40
730.55	232.17
730.89	231.94
731.22	231.62
731.55	231.41
731.88	231.20
732.21	230.92
732.54	230.79
732.87	230.68
733.20	230.44
733.53	230.22
733.86	230.05
734.19	229.68
734.52	229.56
734.85	229.63
735.18	229.35
735.51	229.23
735.84	229.08
736.17	229.02
736.50	228.67
736.83	228.89
737.16	228.81
737.49	228.63
737.82	228.45
738.15	228.46
738.48	228.37
738.81	228.14
739.14	227.92
739.47	227.74
739.80	227.55
740.13	227.37
740.46	227.16
740.79	226.94
741.12	226.80
741.45	226.53
741.78	226.21
742.11	226.17
742.44	225.99
742.77	225.86
743.10	225.63
743.43	225.47
743.75	224.98
744.08	225.26
744.41	225.03
744.74	224.92
745.07	224.61
745.40	224.51
745.73	224.57
746.06	224.46
746.39	224.40
746.71	224.24
747.04	224.13
747.37	224.05
747.70	224.01
748.03	223.93
748.36	223.94
748.68	223.73
749.01	223.50
749.34	223.42
749.67	223.34
750.00	223.29
750.33	223.39
750.65	223.36
750.98	222.71
751.31	222.65
751.64	222.52
751.97	222.63
752.29	222.47
752.62	222.21
752.95	222.04
753.28	221.84
753.60	221.65
753.93	221.58
754.26	221.45
754.59	221.18
754.91	221.01
755.24	220.81
755.57	220.75
755.90	220.69
756.22	220.49
756.55	220.31
756.88	220.14
757.20	219.80
757.53	219.48
757.86	219.48
758.19	219.45
758.51	219.38
758.84	219.11
759.17	218.96
759.49	218.90
759.82	219.05
760.15	218.94
760.47	218.86
760.80	218.75
761.13	218.74
761.45	218.65
761.78	218.50
762.11	218.45
762.43	218.33
762.76	218.20
763.08	218.19
763.41	218.14
763.74	218.00
764.06	217.90
764.39	217.90
764.71	217.77
765.04	217.67
765.37	217.55
765.69	217.50
766.02	217.41
766.34	217.28
766.67	216.99
767.00	217.04
767.32	217.18
767.65	217.25
767.97	217.15
768.30	217.12
768.62	217.14
768.95	216.97
769.27	216.96
769.60	216.97
769.92	216.85
770.25	216.68
770.57	216.63
770.90	216.62
771.22	216.57
771.55	216.54
771.87	216.42
772.20	216.30
772.52	216.54
772.85	216.94
773.17	216.88
773.50	216.89
773.82	216.76
774.15	216.53
774.47	216.21
774.80	216.10
775.12	216.04
775.45	215.99
775.77	216.04
776.09	215.95
776.42	215.90
776.74	216.00
777.07	215.98
777.39	215.99
777.72	215.91
778.04	215.90
778.36	215.81
778.69	215.80
779.01	215.85
779.33	215.49
779.66	215.10
779.98	215.02
780.31	215.01
780.63	215.10
780.95	215.17
781.28	215.15
781.60	215.15
781.92	215.13
782.25	215.11
782.57	215.05
782.89	214.98
783.22	214.88
783.54	214.72
783.86	214.72
784.19	214.60
784.51	214.59
784.83	214.50
785.16	214.48
785.48	214.45
785.80	214.37
786.12	214.44
786.45	214.34
786.77	214.45
787.09	214.35
787.42	214.22
787.74	214.18
788.06	214.26
788.38	214.21
788.71	214.12
789.03	214.02
789.35	214.03
789.67	214.07
789.99	214.10
790.32	214.03
790.64	214.04
790.96	214.39
791.28	214.33
791.61	214.26
791.93	214.25
792.25	214.24
792.57	214.52
792.89	214.36
793.21	214.32
793.54	214.15
793.86	214.14
794.18	214.13
794.50	214.00
794.82	213.89
795.14	213.99
795.47	214.04
795.79	214.08
796.11	214.02
796.43	213.91
796.75	213.91
797.07	213.91
797.39	213.90
797.71	213.62
798.04	213.63
798.36	213.75
798.68	213.76
799.00	213.75
799.32	213.53
799.64	213.60
799.96	213.63
800.28	213.75
800.60	213.67
800.92	213.65
801.24	213.62
801.56	213.60
801.89	213.38
802.21	213.35
802.53	213.27
802.85	213.32
803.17	213.50
803.49	213.39
803.81	213.35
804.13	213.23
804.45	213.09
804.77	213.11
805.09	212.99
805.41	212.91
805.73	212.86
806.05	212.73
806.37	212.64
806.69	212.57
807.01	212.46
807.33	212.48
807.65	212.35
807.97	212.47
808.28	212.50
808.60	212.53
808.92	212.49
809.24	212.71
809.56	212.61
809.88	212.44
810.20	212.44
810.52	212.58
810.84	212.60
811.16	212.56
811.48	212.54
811.80	212.69
812.12	212.73
812.43	212.76
812.75	212.79
813.07	212.81
813.39	212.84
813.71	212.80
814.03	212.77
814.35	212.83
814.67	212.70
814.98	212.70
815.30	212.73
815.62	212.71
815.94	212.44
816.26	212.48
816.58	212.39
816.89	212.44
817.21	212.40
817.53	212.40
817.85	212.46
818.17	212.40
818.48	212.22
818.80	212.23
819.12	212.19
819.44	212.15
819.76	212.08
820.07	212.13
820.39	212.20
820.71	212.30
821.03	212.23
821.34	212.18
821.66	212.14
821.98	212.12
822.30	212.10
822.61	212.35
822.93	212.28
823.25	212.31
823.57	212.26
823.88	212.22
824.20	212.21
824.52	212.16
824.83	212.19
825.15	212.16
825.47	212.12
825.79	212.11
826.10	212.05
826.42	212.04
826.74	212.04
827.05	211.95
827.37	211.87
827.69	211.93
828.00	211.97
828.32	212.01
828.64	212.00
828.95	212.15
829.27	212.09
829.58	212.11
829.90	212.17
830.22	212.23
830.53	212.14
830.85	212.08
831.17	212.08
831.48	212.01
831.80	212.06
832.11	212.08
832.43	212.06
832.75	212.08
833.06	212.27
833.38	212.16
833.69	212.18
834.01	212.20
834.32	212.19
834.64	212.10
834.96	212.06
835.27	212.05
835.59	212.00
835.90	211.80
836.22	211.76
836.53	211.66
836.85	211.60
837.16	211.96
837.48	211.97
837.79	212.08
838.11	212.11
838.42	212.14
838.74	212.14
839.05	212.12
839.37	212.11
839.68	211.90
840.00	211.87
840.31	211.93
840.63	211.87
840.94	211.82
841.26	211.87
841.57	211.84
841.88	211.88
842.20	211.80
842.51	211.80
842.83	211.81
843.14	212.10
843.46	212.10
843.77	211.89
844.08	211.87
844.40	211.72
844.71	211.65
845.03	211.58
845.34	211.57
845.65	211.55
845.97	211.50
846.28	211.52
846.60	211.56
846.91	211.45
847.22	211.45
847.54	211.51
847.85	211.54
848.16	211.53
848.48	211.39
848.79	211.53
849.10	211.56
849.42	211.57
849.73	211.28
850.04	211.26
850.36	211.18
850.67	211.22
850.98	211.26
851.30	211.29
851.61	211.34
851.92	211.40
852.23	211.47
852.55	211.50
852.86	211.55
853.17	211.52
853.49	211.59
853.80	211.63
854.11	211.67
854.42	211.66
854.74	211.62
855.05	211.66
855.36	211.48
855.67	211.52
855.99	211.53
856.30	211.93
856.61	211.89
856.92	211.86
857.23	211.84
857.55	211.80
857.86	211.85
858.17	211.90
858.48	211.75
858.79	211.69
859.11	211.74
859.42	211.73
859.73	211.74
860.04	211.75
860.35	211.70
860.66	211.59
860.98	211.52
861.29	211.60
861.60	211.59
861.91	211.60
862.22	211.55
862.53	211.53
862.84	211.12
863.16	211.26
863.47	211.20
863.78	211.16
864.09	211.15
864.40	211.07
864.71	210.98
865.02	211.12
865.33	211.10
865.64	211.05
865.95	210.99
866.27	211.23
866.58	211.21
866.89	211.23
867.20	211.21
867.51	211.24
867.82	211.27
868.13	211.41
868.44	211.38
868.75	211.46
869.06	211.48
869.37	211.49
869.68	211.37
869.99	211.46
870.30	211.51
870.61	211.62
870.92	211.65
871.23	211.65
871.54	211.65
871.85	211.75
872.16	211.80
872.47	211.82
872.78	211.60
873.09	211.66
873.40	211.66
873.71	211.70
874.02	211.73
874.33	211.66
874.64	211.60
874.95	211.74
875.26	211.57
875.56	211.54
875.87	211.59
876.18	211.60
876.49	211.84
876.80	211.82
877.11	211.76
877.42	211.77
877.73	211.80
878.04	211.69
878.35	211.70
878.66	211.69
878.96	211.71
879.27	211.73
879.58	211.68
879.89	211.67
880.20	211.75
880.51	211.73
880.82	211.62
881.12	211.62
881.43	211.44
881.74	211.48
882.05	211.51
882.36	211.46
882.67	211.42
882.97	211.13
883.28	211.13
883.59	211.13
883.90	211.10
884.21	211.11
884.51	211.12
884.82	211.05
885.13	211.08
885.44	211.05
885.74	211.00
886.05	210.99
886.36	211.01
886.67	210.84
886.98	210.96
887.28	211.08
887.59	211.06
887.90	211.13
888.20	211.11
888.51	211.17
888.82	211.11
889.13	211.16
889.43	211.41
889.74	211.40
890.05	211.43
890.35	211.44
890.66	211.32
890.97	211.30
891.28	211.29
891.58	211.24
891.89	211.21
892.20	211.13
892.50	211.11
892.81	211.04
893.12	211.05
893.42	210.85
893.73	210.83
894.04	210.83
894.34	210.90
894.65	210.87
894.95	210.78
895.26	210.81
895.57	211.03
895.87	210.72
896.18	210.73
896.48	210.74
896.79	210.76
897.10	210.81
897.40	210.83
897.71	210.82
898.01	210.82
898.32	210.94
898.63	210.91
898.93	210.94
899.24	210.93
899.54	210.96
899.85	210.97
900.15	210.95
900.46	210.95
900.76	210.93
901.07	210.95
901.38	210.98
901.68	210.98
901.99	210.71
902.29	210.75
902.60	210.76
902.90	210.63
903.21	210.53
903.51	210.51
903.82	210.58
904.12	210.61
904.43	210.63
904.73	210.55
905.03	210.60
905.34	210.91
905.64	210.95
905.95	210.93
906.25	210.98
906.56	210.94
906.86	210.91
907.17	210.83
907.47	210.81
907.77	210.80
908.08	210.75
908.38	210.79
908.69	210.81
908.99	210.81
909.30	210.94
909.60	210.98
909.90	211.04
910.21	210.95
910.51	210.89
910.81	210.89
911.12	210.91
911.42	210.92
911.73	210.59
912.03	210.61
912.33	210.72
912.64	210.72
912.94	210.74
913.24	210.73
913.55	210.75
913.85	210.72
914.15	210.74
914.46	210.78
914.76	210.77
915.06	210.69
915.37	210.61
915.67	210.53
915.97	210.50
916.27	210.38
916.58	210.40
916.88	210.37
917.18	210.33
917.49	210.56
917.79	210.55
918.09	210.56
918.39	210.65
918.70	210.61
919.00	210.58
919.30	210.69
919.60	210.65
919.91	210.61
920.21	210.63
920.51	210.58
920.81	210.62
921.12	210.67
921.42	210.66
921.72	210.78
922.02	210.88
922.32	210.95
922.63	210.97
922.93	211.11
923.23	211.13
923.53	211.06
923.83	210.83
924.13	210.89
924.44	210.89
924.74	210.92
925.04	210.97
925.34	211.00
925.64	210.89
925.94	210.94
926.24	211.17
926.55	211.11
926.85	211.10
927.15	211.08
927.45	211.11
927.75	211.19
928.05	211.09
928.35	211.01
928.65	211.00
928.95	211.08
929.26	210.90
929.56	210.98
929.86	211.06
930.16	211.01
930.46	211.00
930.76	210.97
931.06	210.79
931.36	210.70
931.66	210.71
931.96	210.75
932.26	210.70
932.56	210.58
932.86	210.56
933.16	210.62
933.46	210.59
933.76	210.49
934.06	210.58
934.36	210.73
934.66	210.66
934.96	210.60
935.26	210.66
935.56	210.81
935.86	210.75
936.16	210.71
936.46	210.70
936.76	210.71
937.06	210.75
937.36	210.77
937.66	210.79
937.96	210.76
938.26	210.71
938.56	210.75
938.86	210.74
939.16	210.95
939.46	210.97
939.76	211.00
940.06	211.04
940.35	210.89
940.65	210.71
940.95	210.79
941.25	210.82
941.55	210.74
941.85	210.74
942.15	210.80
942.45	210.96
942.75	210.89
943.04	210.87
943.34	210.88
943.64	210.87
943.94	210.88
944.24	210.88
944.54	210.88
944.84	210.86
945.13	210.83
945.43	210.75
945.73	210.75
946.03	210.69
946.33	210.70
946.62	210.68
946.92	210.69
947.22	210.71
947.52	210.74
947.82	210.79
948.11	210.67
948.41	210.59
948.71	210.50
949.01	210.53
949.31	210.50
949.60	210.48
949.90	210.52
950.20	210.55
950.50	210.61
950.79	210.64
951.09	210.68
951.39	210.67
951.69	210.59
951.98	210.71
952.28	210.78
952.58	210.72
952.87	210.82
953.17	210.90
953.47	210.86
953.76	210.77
954.06	210.66
954.36	210.60
954.66	210.62
954.95	210.69
955.25	210.77
955.55	210.76
955.84	210.70
956.14	210.78
956.44	210.74
956.73	210.71
957.03	210.75
957.32	210.76
957.62	210.70
957.92	210.80
958.21	210.74
958.51	211.16
958.81	211.23
959.10	211.14
959.40	211.18
959.69	211.25
959.99	211.33
960.29	211.35
960.58	211.38
960.88	211.51
961.17	211.36
961.47	211.41
961.76	211.38
962.06	211.43
962.36	211.36
962.65	211.34
962.95	211.34
963.24	211.23
963.54	211.24
963.83	211.34
964.13	211.30
964.42	211.21
964.72	210.89
965.01	210.90
965.31	210.93
965.60	210.86
965.90	211.05
966.19	210.98
966.49	210.99
966.78	211.01
967.08	211.02
967.37	211.08
967.67	210.99
967.96	211.08
968.26	211.08
968.55	211.07
968.85	211.10
969.14	211.04
969.43	211.03
969.73	211.01
970.02	210.87
970.32	210.90
970.61	210.89
970.91	210.72
971.20	210.63
971.49	210.60
971.79	210.54
972.08	210.26
972.38	210.26
972.67	210.24
972.96	210.27
973.26	210.20
973.55	210.32
973.85	210.32
974.14	210.33
974.43	210.31
974.73	210.30
975.02	210.27
975.31	210.34
975.61	210.40
975.90	210.39
976.19	210.48
976.49	210.53
976.78	210.56
977.07	210.60
977.37	210.66
977.66	210.69
977.95	210.75
978.24	210.78
978.54	210.92
978.83	210.95
979.12	210.98
979.42	210.93
979.71	210.90
980.00	210.85
980.29	210.83
980.59	210.82
980.88	210.90
981.17	210.84
981.46	210.84
981.76	210.82
982.05	210.93
982.34	210.95
982.63	210.87
982.93	210.84
983.22	210.89
983.51	210.86
983.80	210.93
984.09	211.03
984.39	211.00
984.68	210.94
984.97	210.95
985.26	210.93
985.55	210.90
985.85	210.84
986.14	210.97
986.43	211.10
986.72	211.09
987.01	210.99
987.30	211.04
987.59	211.09
987.89	211.15
988.18	211.04
988.47	210.92
988.76	210.88
989.05	210.88
989.34	210.86
989.63	210.98
989.92	211.00
990.22	210.84
990.51	210.91
990.80	210.88
991.09	210.89
991.38	210.94
991.67	210.95
991.96	210.89
992.25	210.88
992.54	210.76
992.83	210.71
993.12	210.66
993.41	210.72
993.70	210.75
993.99	210.75
994.28	210.79
994.58	210.92
994.87	210.94
995.16	210.89
995.45	210.88
995.74	210.80
996.03	210.79
996.32	210.89
996.61	210.93
996.90	210.94
997.19	210.97
997.48	210.97
997.77	210.97
998.06	211.00
998.34	211.05
998.63	211.03
998.92	211.14
999.21	211.22
999.50	211.23
999.79	211.15
1000.08	211.18
1000.37	211.21
1000.66	211.18
1000.95	211.26
1001.24	211.34
1001.53	211.40
1001.82	211.31
1002.11	211.24
1002.40	211.27
1002.68	211.37
1002.97	211.60
1003.26	211.56
1003.55	211.47
1003.84	211.54
1004.13	211.68
1004.42	211.60
1004.71	211.57
1004.99	211.45
1005.28	211.59
1005.57	211.54
1005.86	211.51
1006.15	211.44
1006.44	211.36
1006.72	211.34
1007.01	211.29
1007.30	211.32
1007.59	211.31
1007.88	211.36
1008.17	211.37
1008.45	211.30
1008.74	211.13
1009.03	210.95
1009.32	210.87
1009.60	210.86
1009.89	210.77
1010.18	210.61
1010.47	210.63
1010.76	210.67
1011.04	210.72
1011.33	210.71
1011.62	210.75
1011.91	210.80
1012.19	210.85
1012.48	210.84
1012.77	210.86
1013.05	211.00
1013.34	210.98
1013.63	210.92
1013.92	211.05
1014.20	211.00
1014.49	211.11
1014.78	211.14
1015.06	211.05
1015.35	211.12
1015.64	211.20
1015.92	211.23
1016.21	211.23
1016.50	211.17
1016.78	211.22
1017.07	211.21
1017.36	211.17
1017.64	211.08
1017.93	211.13
1018.22	211.08
1018.50	211.15
1018.79	211.16
1019.08	211.03
1019.36	211.00
1019.65	210.97
1019.93	210.98
1020.22	211.09
1020.51	211.19
1020.79	211.15
1021.08	210.65
1021.36	211.40
1021.65	211.10
1021.94	211.20
1022.22	210.20
1022.51	210.10
1022.79	213.05
1023.08	211.70
1023.36	215.60
1023.65	209.90
>>>>>End Processed Spectral Data<<<<<
