SpectraSuite Data File
++++++++++++++++++++++++++++++++++++
Date: Mon Feb 25 17:08:42 EST 2013
User: group
Dark Spectrum Present: No
Reference Spectrum Present: No
Number of Sampled Component Spectra: 1
Spectrometers: USB2E7196
Integration Time (usec): 104000 (USB2E7196)
Spectra Averaged: 20 (USB2E7196)
Boxcar Smoothing: 10 (USB2E7196)
Correct for Electrical Dark: No (USB2E7196)
Strobe/Lamp Enabled: No (USB2E7196)
Correct for Detector Non-linearity: No (USB2E7196)
Correct for Stray Light: No (USB2E7196)
Number of Pixels in Processed Spectrum: 2048
>>>>>Begin Processed Spectral Data<<<<<
339.09	0.00
339.48	198.35
339.86	200.30
340.24	201.80
340.63	203.65
341.01	211.05
341.39	206.10
341.78	207.20
342.16	208.30
342.54	209.20
342.93	198.43
343.31	208.41
343.69	208.99
344.07	209.43
344.46	209.93
344.84	210.28
345.22	210.27
345.60	210.48
345.99	210.66
346.37	210.80
346.75	210.83
347.13	210.86
347.52	210.86
347.90	211.05
348.28	211.11
348.66	211.20
349.05	211.06
349.43	211.08
349.81	211.07
350.19	210.98
350.57	211.07
350.96	211.19
351.34	211.31
351.72	211.39
352.10	211.49
352.48	211.50
352.87	211.45
353.25	211.44
353.63	211.50
354.01	211.54
354.39	211.63
354.77	211.72
355.15	211.88
355.54	211.88
355.92	211.78
356.30	211.90
356.68	212.11
357.06	212.18
357.44	212.25
357.82	212.25
358.20	212.39
358.58	212.41
358.97	212.40
359.35	212.48
359.73	212.53
360.11	212.53
360.49	212.57
360.87	212.65
361.25	212.75
361.63	212.91
362.01	212.92
362.39	212.85
362.77	212.82
363.15	212.78
363.53	212.81
363.91	212.91
364.29	212.87
364.67	212.63
365.05	212.68
365.43	212.66
365.81	212.77
366.19	212.83
366.57	212.99
366.95	213.00
367.33	212.94
367.71	212.94
368.09	212.99
368.47	212.93
368.85	212.94
369.23	212.99
369.61	212.80
369.99	212.91
370.37	212.98
370.75	213.20
371.13	213.10
371.51	213.05
371.89	212.94
372.27	212.86
372.65	212.84
373.03	212.86
373.41	212.84
373.78	212.78
374.16	212.65
374.54	212.48
374.92	212.38
375.30	212.30
375.68	212.21
376.06	212.13
376.44	212.10
376.82	212.13
377.19	212.11
377.57	212.09
377.95	211.92
378.33	211.82
378.71	211.56
379.09	211.62
379.47	211.57
379.84	211.61
380.22	211.59
380.60	211.47
380.98	211.39
381.36	211.28
381.73	211.22
382.11	211.28
382.49	211.33
382.87	211.27
383.25	211.22
383.62	211.58
384.00	211.57
384.38	211.55
384.76	211.53
385.13	211.63
385.51	211.61
385.89	211.60
386.27	211.61
386.64	211.67
387.02	211.55
387.40	211.55
387.78	211.49
388.15	211.50
388.53	211.49
388.91	211.46
389.29	211.40
389.66	211.44
390.04	211.35
390.42	211.36
390.79	211.40
391.17	211.39
391.55	210.98
391.92	210.92
392.30	210.96
392.68	210.80
393.05	210.69
393.43	210.70
393.81	210.66
394.18	210.52
394.56	210.49
394.94	210.61
395.31	210.55
395.69	210.59
396.06	210.57
396.44	210.60
396.82	210.55
397.19	210.78
397.57	210.70
397.95	210.75
398.32	210.59
398.70	210.57
399.07	210.63
399.45	210.69
399.82	210.65
400.20	210.56
400.58	210.62
400.95	210.53
401.33	210.51
401.70	210.76
402.08	210.90
402.45	210.97
402.83	211.04
403.20	211.08
403.58	211.08
403.95	211.21
404.33	211.23
404.71	211.35
405.08	211.52
405.46	211.60
405.83	211.65
406.21	211.79
406.58	211.95
406.96	212.06
407.33	212.10
407.70	212.34
408.08	212.71
408.45	212.91
408.83	213.07
409.20	213.29
409.58	213.25
409.95	213.43
410.33	213.60
410.70	213.71
411.08	214.04
411.45	214.38
411.82	214.54
412.20	214.92
412.57	215.37
412.95	215.42
413.32	215.82
413.69	216.14
414.07	216.55
414.44	216.94
414.82	217.39
415.19	217.98
415.56	218.47
415.94	218.85
416.31	219.48
416.68	220.18
417.06	220.87
417.43	221.67
417.81	222.44
418.18	223.22
418.55	224.11
418.93	224.98
419.30	225.85
419.67	226.91
420.04	227.97
420.42	228.96
420.79	230.53
421.16	231.79
421.54	233.34
421.91	234.63
422.28	236.12
422.66	237.70
423.03	239.39
423.40	240.99
423.77	242.71
424.15	244.32
424.52	246.00
424.89	247.86
425.26	249.60
425.64	251.45
426.01	253.31
426.38	255.26
426.75	257.39
427.13	259.54
427.50	261.65
427.87	263.88
428.24	266.17
428.61	268.13
428.99	270.63
429.36	273.07
429.73	275.73
430.10	278.30
430.47	280.89
430.85	283.38
431.22	286.18
431.59	289.48
431.96	292.55
432.33	295.92
432.70	299.12
433.08	302.90
433.45	306.28
433.82	309.79
434.19	313.68
434.56	317.52
434.93	321.07
435.30	324.84
435.68	328.86
436.05	332.81
436.42	336.75
436.79	340.46
437.16	344.51
437.53	348.64
437.90	352.74
438.27	356.90
438.64	361.14
439.01	365.10
439.38	368.27
439.75	371.64
440.13	375.49
440.50	379.17
440.87	382.19
441.24	385.44
441.61	389.01
441.98	391.66
442.35	394.50
442.72	397.61
443.09	400.66
443.46	402.56
443.83	403.86
444.20	405.01
444.57	406.43
444.94	407.11
445.31	408.11
445.68	409.25
446.05	409.65
446.42	409.40
446.79	409.13
447.16	408.76
447.53	408.53
447.90	407.10
448.27	405.70
448.64	403.72
449.01	402.20
449.37	399.54
449.74	397.06
450.11	394.35
450.48	390.98
450.85	387.47
451.22	384.48
451.59	381.66
451.96	378.93
452.33	375.26
452.70	372.00
453.07	367.97
453.43	363.70
453.80	359.87
454.17	356.16
454.54	352.61
454.91	348.95
455.28	345.25
455.65	341.78
456.02	338.79
456.38	335.86
456.75	332.29
457.12	329.26
457.49	326.30
457.86	323.19
458.23	320.87
458.59	318.19
458.96	315.52
459.33	313.15
459.70	310.80
460.07	309.04
460.43	306.88
460.80	304.85
461.17	302.92
461.54	300.96
461.91	299.15
462.27	297.31
462.64	295.64
463.01	293.89
463.38	292.39
463.74	290.17
464.11	288.67
464.48	287.40
464.85	285.98
465.21	284.92
465.58	283.76
465.95	282.21
466.32	281.01
466.68	279.76
467.05	278.67
467.42	277.50
467.78	276.24
468.15	275.13
468.52	274.20
468.88	273.11
469.25	272.11
469.62	271.36
469.98	270.52
470.35	269.72
470.72	268.95
471.08	267.96
471.45	267.31
471.82	266.69
472.18	265.89
472.55	265.31
472.92	264.51
473.28	263.85
473.65	263.22
474.02	262.63
474.38	262.31
474.75	261.88
475.11	261.38
475.48	261.09
475.85	260.70
476.21	260.41
476.58	260.24
476.94	259.93
477.31	259.62
477.67	259.38
478.04	259.19
478.41	259.03
478.77	259.27
479.14	259.16
479.50	258.95
479.87	258.90
480.23	258.90
480.60	258.88
480.96	258.90
481.33	259.12
481.69	259.21
482.06	259.16
482.42	259.18
482.79	259.34
483.15	259.49
483.52	259.84
483.88	259.95
484.25	260.09
484.61	260.39
484.98	260.67
485.34	261.04
485.71	261.43
486.07	261.84
486.44	261.85
486.80	262.31
487.17	262.82
487.53	263.46
487.90	264.04
488.26	264.81
488.62	265.56
488.99	266.17
489.35	266.88
489.72	267.76
490.08	268.54
490.44	269.31
490.81	270.14
491.17	270.95
491.54	271.90
491.90	272.94
492.26	273.94
492.63	275.01
492.99	275.99
493.36	277.17
493.72	278.37
494.08	279.65
494.45	280.90
494.81	282.25
495.17	283.54
495.54	284.97
495.90	286.23
496.26	287.59
496.63	289.12
496.99	290.71
497.35	292.23
497.72	294.10
498.08	295.80
498.44	297.69
498.80	299.61
499.17	301.56
499.53	303.42
499.89	305.52
500.26	307.53
500.62	309.66
500.98	311.80
501.34	314.07
501.71	316.36
502.07	318.77
502.43	321.00
502.79	323.43
503.16	325.88
503.52	328.33
503.88	330.84
504.24	333.40
504.60	336.05
504.97	338.79
505.33	341.36
505.69	344.36
506.05	347.09
506.41	349.92
506.78	352.82
507.14	355.77
507.50	358.75
507.86	361.91
508.22	365.08
508.59	368.17
508.95	371.37
509.31	374.62
509.67	377.88
510.03	381.32
510.39	384.72
510.75	388.11
511.12	391.65
511.48	395.20
511.84	398.77
512.20	402.23
512.56	405.90
512.92	409.67
513.28	413.35
513.64	417.11
514.00	420.93
514.37	424.74
514.73	428.75
515.09	432.64
515.45	436.47
515.81	440.46
516.17	444.45
516.53	448.43
516.89	452.38
517.25	456.40
517.61	460.62
517.97	464.65
518.33	468.92
518.69	473.15
519.05	477.40
519.41	481.79
519.77	486.43
520.13	490.74
520.49	494.90
520.85	499.24
521.21	503.79
521.57	508.33
521.93	512.70
522.29	517.26
522.65	521.84
523.01	526.55
523.37	530.96
523.73	535.58
524.09	540.21
524.45	545.00
524.81	549.61
525.17	554.22
525.53	558.98
525.89	563.63
526.25	568.43
526.61	573.15
526.97	577.71
527.33	582.40
527.68	587.49
528.04	592.39
528.40	597.03
528.76	601.80
529.12	606.59
529.48	611.70
529.84	616.50
530.20	621.31
530.56	626.10
530.91	631.31
531.27	636.41
531.63	641.34
531.99	646.21
532.35	651.16
532.71	656.01
533.07	661.00
533.42	666.13
533.78	670.94
534.14	675.88
534.50	680.67
534.86	685.47
535.21	689.91
535.57	694.77
535.93	699.49
536.29	704.22
536.65	708.84
537.00	713.17
537.36	717.58
537.72	721.95
538.08	726.39
538.44	730.55
538.79	734.89
539.15	739.27
539.51	743.76
539.87	748.25
540.22	752.50
540.58	756.87
540.94	760.92
541.29	765.09
541.65	768.93
542.01	773.12
542.37	777.07
542.72	780.93
543.08	784.79
543.44	788.90
543.79	792.45
544.15	796.25
544.51	800.18
544.87	803.97
545.22	807.69
545.58	811.11
545.94	814.45
546.29	817.69
546.65	820.77
547.01	823.65
547.36	826.72
547.72	829.70
548.07	832.44
548.43	835.15
548.79	837.60
549.14	840.23
549.50	842.74
549.86	845.09
550.21	847.78
550.57	850.08
550.92	852.19
551.28	854.36
551.64	856.49
551.99	858.46
552.35	860.42
552.70	862.16
553.06	864.27
553.41	866.40
553.77	868.37
554.13	870.20
554.48	872.16
554.84	873.84
555.19	875.48
555.55	877.11
555.90	878.32
556.26	879.93
556.61	881.44
556.97	882.67
557.32	884.06
557.68	884.92
558.03	885.93
558.39	887.06
558.74	888.45
559.10	889.61
559.45	890.83
559.81	892.03
560.16	892.97
560.52	894.02
560.87	894.64
561.23	895.15
561.58	896.27
561.94	896.75
562.29	897.19
562.64	897.90
563.00	898.40
563.35	899.30
563.71	900.28
564.06	900.98
564.42	901.66
564.77	902.33
565.12	903.17
565.48	904.14
565.83	904.75
566.19	905.17
566.54	905.12
566.89	905.20
567.25	905.55
567.60	906.19
567.96	906.25
568.31	906.66
568.66	906.59
569.02	906.12
569.37	905.89
569.72	905.89
570.08	905.53
570.43	905.20
570.78	904.70
571.14	903.75
571.49	902.99
571.84	902.56
572.20	901.66
572.55	900.85
572.90	899.72
573.26	898.54
573.61	897.32
573.96	896.44
574.31	895.32
574.67	893.68
575.02	892.14
575.37	890.51
575.72	888.95
576.08	887.81
576.43	886.43
576.78	885.25
577.13	883.82
577.49	882.63
577.84	881.25
578.19	880.19
578.54	879.25
578.90	878.20
579.25	876.82
579.60	875.35
579.95	873.69
580.30	872.32
580.66	871.23
581.01	869.80
581.36	868.36
581.71	866.82
582.06	865.90
582.42	864.34
582.77	862.73
583.12	861.09
583.47	859.83
583.82	858.61
584.17	857.17
584.53	855.87
584.88	854.38
585.23	853.05
585.58	851.32
585.93	849.47
586.28	847.92
586.63	846.17
586.98	844.72
587.34	843.58
587.69	841.84
588.04	840.10
588.39	838.62
588.74	837.01
589.09	835.68
589.44	833.59
589.79	832.17
590.14	830.95
590.49	829.46
590.84	827.65
591.19	826.22
591.54	824.54
591.89	822.47
592.25	820.74
592.60	818.76
592.95	816.82
593.30	814.85
593.65	812.79
594.00	810.77
594.35	809.79
594.70	807.61
595.05	805.89
595.40	804.15
595.75	802.14
596.10	800.21
596.45	798.35
596.80	796.79
597.15	795.08
597.50	793.06
597.85	791.36
598.19	789.51
598.54	787.53
598.89	785.88
599.24	784.50
599.59	782.73
599.94	781.23
600.29	779.60
600.64	777.89
600.99	776.07
601.34	774.53
601.69	771.94
602.04	770.26
602.39	768.58
602.74	766.78
603.08	765.28
603.43	763.96
603.78	762.27
604.13	760.47
604.48	758.71
604.83	757.46
605.18	755.99
605.53	754.25
605.87	752.48
606.22	750.72
606.57	748.74
606.92	747.10
607.27	745.16
607.62	743.42
607.96	741.92
608.31	740.49
608.66	738.79
609.01	737.01
609.36	735.07
609.70	732.89
610.05	730.81
610.40	728.82
610.75	726.50
611.10	724.52
611.44	722.06
611.79	719.75
612.14	717.15
612.49	714.49
612.83	712.40
613.18	709.87
613.53	707.49
613.88	704.96
614.22	702.47
614.57	700.03
614.92	697.55
615.27	694.98
615.61	692.19
615.96	689.65
616.31	687.21
616.65	685.02
617.00	682.97
617.35	680.56
617.70	677.95
618.04	675.42
618.39	672.60
618.74	670.40
619.08	667.92
619.43	665.60
619.78	663.31
620.12	660.60
620.47	658.28
620.82	655.58
621.16	653.05
621.51	650.53
621.85	648.16
622.20	645.60
622.55	642.98
622.89	640.53
623.24	638.10
623.59	635.35
623.93	632.81
624.28	630.24
624.62	628.01
624.97	625.78
625.32	623.28
625.66	621.03
626.01	618.58
626.35	616.20
626.70	613.66
627.04	611.50
627.39	609.37
627.73	607.15
628.08	604.96
628.43	602.64
628.77	600.15
629.12	597.64
629.46	595.63
629.81	593.33
630.15	591.01
630.50	588.42
630.84	586.03
631.19	583.56
631.53	581.15
631.88	578.45
632.22	575.89
632.57	573.81
632.91	571.43
633.26	569.29
633.60	567.01
633.95	564.92
634.29	562.45
634.64	560.20
634.98	557.64
635.32	555.45
635.67	553.30
636.01	551.13
636.36	548.87
636.70	546.53
637.05	544.32
637.39	542.25
637.73	540.47
638.08	538.72
638.42	536.76
638.77	534.80
639.11	532.84
639.45	530.76
639.80	528.33
640.14	526.19
640.49	523.89
640.83	521.67
641.17	519.50
641.52	517.14
641.86	514.80
642.20	512.82
642.55	510.33
642.89	508.13
643.23	505.96
643.58	504.07
643.92	501.85
644.26	499.71
644.61	497.49
644.95	495.08
645.29	492.78
645.64	490.47
645.98	488.08
646.32	485.97
646.66	483.72
647.01	481.65
647.35	479.57
647.69	477.28
648.04	475.28
648.38	473.03
648.72	471.17
649.06	469.13
649.41	467.01
649.75	465.08
650.09	463.18
650.43	461.16
650.78	458.89
651.12	456.65
651.46	454.57
651.80	452.58
652.14	450.62
652.49	448.59
652.83	446.54
653.17	444.53
653.51	442.37
653.85	440.60
654.20	438.64
654.54	436.59
654.88	434.65
655.22	432.66
655.56	430.77
655.90	428.61
656.25	426.61
656.59	424.61
656.93	422.82
657.27	420.78
657.61	418.66
657.95	416.81
658.29	415.13
658.64	413.48
658.98	411.57
659.32	409.47
659.66	407.54
660.00	405.70
660.34	403.75
660.68	401.79
661.02	399.84
661.36	398.07
661.70	396.26
662.05	394.66
662.39	392.94
662.73	391.29
663.07	389.87
663.41	388.25
663.75	386.61
664.09	384.77
664.43	383.09
664.77	381.51
665.11	379.77
665.45	378.01
665.79	376.30
666.13	374.75
666.47	373.33
666.81	371.87
667.15	370.32
667.49	368.95
667.83	367.78
668.17	366.23
668.51	364.84
668.85	363.50
669.19	362.17
669.53	360.70
669.87	359.09
670.21	357.55
670.55	356.16
670.89	354.92
671.23	353.71
671.57	352.44
671.91	351.21
672.25	349.96
672.58	348.85
672.92	347.56
673.26	346.29
673.60	345.16
673.94	343.79
674.28	342.55
674.62	341.39
674.96	340.11
675.30	339.04
675.64	337.88
675.97	336.65
676.31	335.44
676.65	334.32
676.99	333.46
677.33	332.22
677.67	331.00
678.01	329.72
678.34	328.53
678.68	327.47
679.02	326.29
679.36	325.21
679.70	324.00
680.04	322.88
680.37	321.73
680.71	320.52
681.05	319.61
681.39	318.75
681.73	317.71
682.06	316.68
682.40	315.63
682.74	314.60
683.08	313.80
683.42	312.72
683.75	311.78
684.09	310.70
684.43	309.74
684.77	308.76
685.10	307.82
685.44	306.82
685.78	305.77
686.12	304.92
686.45	303.91
686.79	302.87
687.13	301.98
687.46	301.14
687.80	300.35
688.14	299.30
688.48	298.26
688.81	297.37
689.15	296.57
689.49	295.64
689.82	294.69
690.16	293.52
690.50	292.59
690.83	291.68
691.17	290.65
691.51	289.74
691.84	288.96
692.18	288.12
692.52	287.36
692.85	286.71
693.19	286.04
693.52	285.33
693.86	284.65
694.20	283.91
694.53	283.16
694.87	282.42
695.21	281.74
695.54	280.92
695.88	279.97
696.21	279.01
696.55	278.33
696.88	277.65
697.22	276.89
697.56	276.29
697.89	275.57
698.23	274.97
698.56	274.33
698.90	273.65
699.23	272.93
699.57	272.20
699.90	271.40
700.24	270.57
700.58	269.81
700.91	269.21
701.25	268.91
701.58	268.26
701.92	267.60
702.25	266.98
702.59	266.40
702.92	265.98
703.26	265.43
703.59	264.81
703.93	264.50
704.26	263.98
704.60	263.40
704.93	262.80
705.26	262.17
705.60	261.69
705.93	261.03
706.27	260.56
706.60	260.13
706.94	259.76
707.27	259.20
707.61	258.72
707.94	258.15
708.27	257.28
708.61	256.66
708.94	256.12
709.28	255.64
709.61	255.19
709.94	254.63
710.28	254.22
710.61	253.77
710.95	252.97
711.28	252.73
711.61	252.27
711.95	251.88
712.28	251.42
712.61	251.03
712.95	250.85
713.28	250.61
713.61	250.09
713.95	249.58
714.28	249.24
714.61	248.86
714.95	248.44
715.28	247.97
715.61	247.65
715.95	247.26
716.28	246.86
716.61	246.51
716.95	246.12
717.28	245.72
717.61	245.28
717.94	244.87
718.28	244.29
718.61	243.90
718.94	243.57
719.27	243.30
719.61	242.93
719.94	242.47
720.27	241.93
720.60	241.65
720.94	241.27
721.27	240.92
721.60	240.64
721.93	240.32
722.27	240.23
722.60	240.03
722.93	239.75
723.26	239.45
723.59	239.09
723.93	238.78
724.26	238.54
724.59	238.31
724.92	238.18
725.25	238.05
725.59	237.79
725.92	237.53
726.25	237.25
726.58	237.01
726.91	236.76
727.24	236.55
727.57	236.27
727.91	235.98
728.24	235.80
728.57	235.51
728.90	235.34
729.23	234.94
729.56	234.82
729.89	234.56
730.22	234.29
730.55	234.07
730.89	233.90
731.22	233.70
731.55	233.40
731.88	233.13
732.21	232.81
732.54	232.59
732.87	232.27
733.20	232.07
733.53	231.88
733.86	231.63
734.19	231.46
734.52	231.31
734.85	231.46
735.18	231.18
735.51	231.08
735.84	230.92
736.17	230.79
736.50	230.37
736.83	230.60
737.16	230.42
737.49	230.20
737.82	229.93
738.15	229.73
738.48	229.61
738.81	229.41
739.14	229.12
739.47	228.90
739.80	228.76
740.13	228.60
740.46	228.32
740.79	228.13
741.12	227.89
741.45	227.63
741.78	227.17
742.11	227.11
742.44	226.86
742.77	226.72
743.10	226.53
743.43	226.35
743.75	225.78
744.08	226.08
744.41	225.83
744.74	225.67
745.07	225.48
745.40	225.38
745.73	225.35
746.06	225.28
746.39	225.20
746.71	225.01
747.04	224.79
747.37	224.65
747.70	224.54
748.03	224.40
748.36	224.29
748.68	224.13
749.01	223.88
749.34	223.78
749.67	223.57
750.00	223.41
750.33	223.50
750.65	223.41
750.98	222.90
751.31	222.90
751.64	222.83
751.97	222.92
752.29	222.76
752.62	222.54
752.95	222.37
753.28	222.17
753.60	222.07
753.93	222.02
754.26	221.90
754.59	221.70
754.91	221.50
755.24	221.42
755.57	221.32
755.90	221.26
756.22	221.13
756.55	221.02
756.88	220.87
757.20	220.53
757.53	220.30
757.86	220.16
758.19	220.03
758.51	219.90
758.84	219.62
759.17	219.51
759.49	219.40
759.82	219.55
760.15	219.51
760.47	219.50
760.80	219.30
761.13	219.25
761.45	219.16
761.78	219.15
762.11	219.08
762.43	219.02
762.76	218.89
763.08	218.83
763.41	218.80
763.74	218.78
764.06	218.74
764.39	218.65
764.71	218.48
765.04	218.40
765.37	218.39
765.69	218.26
766.02	218.17
766.34	218.03
766.67	217.75
767.00	217.74
767.32	217.76
767.65	217.90
767.97	217.82
768.30	217.79
768.62	217.67
768.95	217.51
769.27	217.39
769.60	217.39
769.92	217.25
770.25	217.13
770.57	217.04
770.90	216.93
771.22	216.89
771.55	216.84
771.87	216.75
772.20	216.69
772.52	216.96
772.85	217.31
773.17	217.32
773.50	217.27
773.82	217.14
774.15	216.97
774.47	216.74
774.80	216.68
775.12	216.61
775.45	216.64
775.77	216.60
776.09	216.64
776.42	216.59
776.74	216.68
777.07	216.56
777.39	216.47
777.72	216.47
778.04	216.49
778.36	216.46
778.69	216.44
779.01	216.37
779.33	216.00
779.66	215.57
779.98	215.50
780.31	215.50
780.63	215.59
780.95	215.53
781.28	215.47
781.60	215.43
781.92	215.45
782.25	215.40
782.57	215.36
782.89	215.25
783.22	215.13
783.54	214.94
783.86	214.97
784.19	214.94
784.51	214.95
784.83	214.86
785.16	214.77
785.48	214.76
785.80	214.73
786.12	214.67
786.45	214.65
786.77	214.64
787.09	214.55
787.42	214.38
787.74	214.37
788.06	214.35
788.38	214.24
788.71	214.09
789.03	214.00
789.35	214.06
789.67	213.93
789.99	213.96
790.32	213.95
790.64	214.02
790.96	214.31
791.28	214.24
791.61	214.20
791.93	214.18
792.25	214.11
792.57	214.36
792.89	214.31
793.21	214.27
793.54	214.25
793.86	214.17
794.18	214.23
794.50	214.22
794.82	214.21
795.14	214.26
795.47	214.28
795.79	214.27
796.11	214.18
796.43	214.28
796.75	214.23
797.07	214.22
797.39	214.10
797.71	213.78
798.04	213.71
798.36	213.76
798.68	213.74
799.00	213.77
799.32	213.50
799.64	213.54
799.96	213.51
800.28	213.47
800.60	213.49
800.92	213.44
801.24	213.37
801.56	213.38
801.89	213.32
802.21	213.36
802.53	213.31
802.85	213.33
803.17	213.43
803.49	213.37
803.81	213.31
804.13	213.34
804.45	213.34
804.77	213.37
805.09	213.28
805.41	213.26
805.73	213.19
806.05	213.12
806.37	213.10
806.69	213.10
807.01	213.06
807.33	213.10
807.65	212.95
807.97	213.07
808.28	213.02
808.60	213.04
808.92	212.96
809.24	213.13
809.56	213.09
809.88	212.97
810.20	212.93
810.52	213.00
810.84	212.88
811.16	212.86
811.48	212.85
811.80	213.02
812.12	212.97
812.43	213.05
812.75	213.10
813.07	213.04
813.39	213.03
813.71	212.97
814.03	212.91
814.35	212.95
814.67	212.78
814.98	212.71
815.30	212.68
815.62	212.63
815.94	212.44
816.26	212.45
816.58	212.34
816.89	212.36
817.21	212.30
817.53	212.37
817.85	212.27
818.17	212.21
818.48	212.04
818.80	212.07
819.12	212.00
819.44	211.87
819.76	211.85
820.07	211.81
820.39	211.86
820.71	211.90
821.03	211.86
821.34	211.89
821.66	211.98
821.98	211.97
822.30	211.99
822.61	212.19
822.93	212.10
823.25	212.08
823.57	212.07
823.88	212.11
824.20	212.04
824.52	212.14
824.83	212.13
825.15	212.02
825.47	212.04
825.79	212.08
826.10	212.14
826.42	212.16
826.74	212.17
827.05	212.09
827.37	212.02
827.69	212.00
828.00	211.96
828.32	211.91
828.64	211.86
828.95	212.07
829.27	212.03
829.58	212.06
829.90	212.12
830.22	212.11
830.53	211.97
830.85	211.98
831.17	211.87
831.48	211.81
831.80	211.93
832.11	211.85
832.43	211.73
832.75	211.70
833.06	211.85
833.38	211.70
833.69	211.73
834.01	211.78
834.32	211.76
834.64	211.75
834.96	211.77
835.27	211.79
835.59	211.61
835.90	211.46
836.22	211.44
836.53	211.39
836.85	211.31
837.16	211.69
837.48	211.71
837.79	211.84
838.11	211.90
838.42	211.87
838.74	211.95
839.05	211.92
839.37	211.91
839.68	211.65
840.00	211.63
840.31	211.65
840.63	211.57
840.94	211.54
841.26	211.54
841.57	211.55
841.88	211.54
842.20	211.51
842.51	211.44
842.83	211.43
843.14	211.72
843.46	211.83
843.77	211.63
844.08	211.54
844.40	211.45
844.71	211.36
845.03	211.35
845.34	211.33
845.65	211.38
845.97	211.39
846.28	211.43
846.60	211.55
846.91	211.52
847.22	211.49
847.54	211.59
847.85	211.60
848.16	211.60
848.48	211.60
848.79	211.73
849.10	211.85
849.42	211.85
849.73	211.55
850.04	211.43
850.36	211.30
850.67	211.35
850.98	211.34
851.30	211.45
851.61	211.44
851.92	211.41
852.23	211.50
852.55	211.52
852.86	211.52
853.17	211.51
853.49	211.60
853.80	211.74
854.11	211.73
854.42	211.82
854.74	211.77
855.05	211.76
855.36	211.58
855.67	211.57
855.99	211.61
856.30	212.03
856.61	212.14
856.92	212.20
857.23	212.31
857.55	212.28
857.86	212.28
858.17	212.27
858.48	212.22
858.79	212.14
859.11	212.09
859.42	212.10
859.73	212.12
860.04	212.08
860.35	211.98
860.66	211.85
860.98	211.80
861.29	211.86
861.60	211.87
861.91	211.94
862.22	211.87
862.53	211.80
862.84	211.34
863.16	211.44
863.47	211.39
863.78	211.30
864.09	211.33
864.40	211.38
864.71	211.45
865.02	211.47
865.33	211.42
865.64	211.41
865.95	211.45
866.27	211.60
866.58	211.56
866.89	211.60
867.20	211.67
867.51	211.56
867.82	211.54
868.13	211.64
868.44	211.56
868.75	211.65
869.06	211.64
869.37	211.69
869.68	211.44
869.99	211.53
870.30	211.53
870.61	211.59
870.92	211.40
871.23	211.26
871.54	211.33
871.85	211.46
872.16	211.51
872.47	211.45
872.78	211.22
873.09	211.20
873.40	211.16
873.71	211.09
874.02	211.10
874.33	211.01
874.64	210.92
874.95	210.95
875.26	210.88
875.56	210.83
875.87	210.84
876.18	210.88
876.49	211.14
876.80	211.14
877.11	211.04
877.42	211.21
877.73	211.20
878.04	211.15
878.35	211.12
878.66	211.06
878.96	211.10
879.27	211.13
879.58	211.15
879.89	211.16
880.20	211.33
880.51	211.32
880.82	211.33
881.12	211.30
881.43	211.25
881.74	211.19
882.05	211.30
882.36	211.26
882.67	211.37
882.97	210.99
883.28	210.88
883.59	210.89
883.90	210.84
884.21	210.95
884.51	210.98
884.82	210.93
885.13	211.08
885.44	211.03
885.74	211.06
886.05	211.04
886.36	211.03
886.67	210.86
886.98	211.10
887.28	211.17
887.59	211.17
887.90	211.25
888.20	211.25
888.51	211.22
888.82	211.22
889.13	211.21
889.43	211.53
889.74	211.59
890.05	211.64
890.35	211.64
890.66	211.63
890.97	211.57
891.28	211.57
891.58	211.49
891.89	211.48
892.20	211.48
892.50	211.51
892.81	211.48
893.12	211.53
893.42	211.29
893.73	211.35
894.04	211.30
894.34	211.28
894.65	211.33
894.95	211.33
895.26	211.29
895.57	211.40
895.87	211.05
896.18	211.11
896.48	211.04
896.79	210.97
897.10	211.00
897.40	211.03
897.71	211.06
898.01	211.00
898.32	211.03
898.63	210.92
898.93	210.89
899.24	210.94
899.54	210.91
899.85	210.86
900.15	210.80
900.46	210.91
900.76	210.99
901.07	210.95
901.38	210.90
901.68	211.02
901.99	210.91
902.29	210.95
902.60	210.94
902.90	210.98
903.21	211.00
903.51	210.97
903.82	211.07
904.12	211.02
904.43	211.11
904.73	211.13
905.03	211.17
905.34	211.55
905.64	211.47
905.95	211.42
906.25	211.55
906.56	211.52
906.86	211.51
907.17	211.43
907.47	211.47
907.77	211.47
908.08	211.33
908.38	211.32
908.69	211.31
908.99	211.38
909.30	211.41
909.60	211.42
909.90	211.41
910.21	211.31
910.51	211.29
910.81	211.24
911.12	211.25
911.42	211.26
911.73	210.88
912.03	210.92
912.33	210.99
912.64	210.92
912.94	210.96
913.24	210.85
913.55	210.84
913.85	210.82
914.15	210.92
914.46	210.94
914.76	210.90
915.06	210.91
915.37	210.84
915.67	210.75
915.97	210.77
916.27	210.75
916.58	210.79
916.88	210.83
917.18	210.81
917.49	211.07
917.79	211.08
918.09	211.11
918.39	211.23
918.70	211.29
919.00	211.28
919.30	211.47
919.60	211.47
919.91	211.42
920.21	211.45
920.51	211.42
920.81	211.49
921.12	211.53
921.42	211.53
921.72	211.56
922.02	211.68
922.32	211.71
922.63	211.66
922.93	211.79
923.23	211.75
923.53	211.65
923.83	211.40
924.13	211.46
924.44	211.45
924.74	211.49
925.04	211.51
925.34	211.50
925.64	211.28
925.94	211.33
926.24	211.52
926.55	211.44
926.85	211.45
927.15	211.35
927.45	211.39
927.75	211.40
928.05	211.35
928.35	211.29
928.65	211.32
928.95	211.41
929.26	211.29
929.56	211.38
929.86	211.51
930.16	211.45
930.46	211.44
930.76	211.41
931.06	211.22
931.36	211.13
931.66	211.26
931.96	211.33
932.26	211.35
932.56	211.25
932.86	211.27
933.16	211.24
933.46	211.25
933.76	211.17
934.06	211.24
934.36	211.44
934.66	211.39
934.96	211.33
935.26	211.30
935.56	211.33
935.86	211.18
936.16	211.13
936.46	211.09
936.76	211.07
937.06	211.07
937.36	211.11
937.66	211.16
937.96	211.05
938.26	210.91
938.56	210.85
938.86	210.84
939.16	210.95
939.46	210.97
939.76	210.99
940.06	210.97
940.35	210.85
940.65	210.60
940.95	210.70
941.25	210.64
941.55	210.59
941.85	210.56
942.15	210.64
942.45	210.73
942.75	210.76
943.04	210.75
943.34	210.73
943.64	210.71
943.94	210.63
944.24	210.64
944.54	210.59
944.84	210.61
945.13	210.55
945.43	210.48
945.73	210.45
946.03	210.43
946.33	210.49
946.62	210.39
946.92	210.35
947.22	210.33
947.52	210.31
947.82	210.30
948.11	210.22
948.41	210.17
948.71	210.06
949.01	210.10
949.31	210.09
949.60	210.13
949.90	210.20
950.20	210.19
950.50	210.22
950.79	210.25
951.09	210.32
951.39	210.30
951.69	210.21
951.98	210.31
952.28	210.32
952.58	210.26
952.87	210.35
953.17	210.36
953.47	210.32
953.76	210.32
954.06	210.29
954.36	210.31
954.66	210.29
954.95	210.41
955.25	210.39
955.55	210.46
955.84	210.45
956.14	210.45
956.44	210.50
956.73	210.47
957.03	210.54
957.32	210.55
957.62	210.56
957.92	210.69
958.21	210.66
958.51	211.08
958.81	211.14
959.10	211.20
959.40	211.37
959.69	211.41
959.99	211.57
960.29	211.57
960.58	211.58
960.88	211.69
961.17	211.54
961.47	211.58
961.76	211.53
962.06	211.55
962.36	211.51
962.65	211.51
962.95	211.48
963.24	211.46
963.54	211.52
963.83	211.54
964.13	211.49
964.42	211.35
964.72	211.08
965.01	211.11
965.31	211.09
965.60	211.00
965.90	211.21
966.19	211.03
966.49	211.16
966.78	211.11
967.08	211.10
967.37	211.23
967.67	211.21
967.96	211.26
968.26	211.27
968.55	211.33
968.85	211.32
969.14	211.35
969.43	211.34
969.73	211.28
970.02	211.23
970.32	211.25
970.61	211.28
970.91	211.10
971.20	211.04
971.49	211.03
971.79	211.08
972.08	210.86
972.38	210.96
972.67	210.90
972.96	211.00
973.26	210.97
973.55	211.01
973.85	211.02
974.14	210.99
974.43	210.99
974.73	210.93
975.02	210.90
975.31	210.88
975.61	210.84
975.90	210.74
976.19	210.75
976.49	210.80
976.78	210.84
977.07	210.79
977.37	210.72
977.66	210.70
977.95	210.67
978.24	210.69
978.54	210.67
978.83	210.69
979.12	210.67
979.42	210.63
979.71	210.55
980.00	210.41
980.29	210.44
980.59	210.41
980.88	210.49
981.17	210.48
981.46	210.50
981.76	210.50
982.05	210.72
982.34	210.74
982.63	210.73
982.93	210.70
983.22	210.91
983.51	210.94
983.80	211.06
984.09	211.06
984.39	211.11
984.68	211.05
984.97	210.99
985.26	210.92
985.55	210.96
985.85	210.93
986.14	211.17
986.43	211.18
986.72	211.18
987.01	211.02
987.30	211.02
987.59	210.97
987.89	211.04
988.18	210.85
988.47	210.89
988.76	210.89
989.05	210.84
989.34	210.75
989.63	210.86
989.92	210.84
990.22	210.75
990.51	210.69
990.80	210.69
991.09	210.72
991.38	210.76
991.67	210.73
991.96	210.70
992.25	210.58
992.54	210.48
992.83	210.49
993.12	210.53
993.41	210.55
993.70	210.73
993.99	210.76
994.28	210.78
994.58	210.70
994.87	210.58
995.16	210.59
995.45	210.59
995.74	210.44
996.03	210.44
996.32	210.60
996.61	210.62
996.90	210.60
997.19	210.61
997.48	210.58
997.77	210.52
998.06	210.47
998.34	210.39
998.63	210.40
998.92	210.32
999.21	210.37
999.50	210.44
999.79	210.31
1000.08	210.26
1000.37	210.23
1000.66	210.25
1000.95	210.40
1001.24	210.49
1001.53	210.53
1001.82	210.50
1002.11	210.36
1002.40	210.28
1002.68	210.34
1002.97	210.63
1003.26	210.58
1003.55	210.62
1003.84	210.68
1004.13	210.84
1004.42	210.92
1004.71	210.95
1004.99	210.98
1005.28	211.12
1005.57	211.06
1005.86	210.95
1006.15	210.96
1006.44	210.92
1006.72	210.95
1007.01	210.81
1007.30	210.76
1007.59	210.72
1007.88	210.84
1008.17	210.95
1008.45	210.93
1008.74	210.80
1009.03	210.60
1009.32	210.61
1009.60	210.50
1009.89	210.48
1010.18	210.32
1010.47	210.32
1010.76	210.30
1011.04	210.33
1011.33	210.30
1011.62	210.33
1011.91	210.42
1012.19	210.46
1012.48	210.54
1012.77	210.55
1013.05	210.78
1013.34	210.79
1013.63	210.77
1013.92	210.69
1014.20	210.62
1014.49	210.68
1014.78	210.69
1015.06	210.62
1015.35	210.58
1015.64	210.70
1015.92	210.82
1016.21	210.93
1016.50	210.93
1016.78	210.97
1017.07	210.96
1017.36	210.89
1017.64	210.83
1017.93	210.85
1018.22	210.79
1018.50	210.81
1018.79	210.79
1019.08	210.62
1019.36	210.68
1019.65	210.67
1019.93	210.74
1020.22	210.79
1020.51	210.97
1020.79	210.88
1021.08	210.40
1021.36	210.90
1021.65	210.35
1021.94	210.75
1022.22	211.45
1022.51	210.50
1022.79	210.75
1023.08	210.85
1023.36	215.75
1023.65	208.30
>>>>>End Processed Spectral Data<<<<<
