SpectraSuite Data File
++++++++++++++++++++++++++++++++++++
Date: Mon Feb 25 17:07:51 EST 2013
User: group
Dark Spectrum Present: No
Reference Spectrum Present: No
Number of Sampled Component Spectra: 1
Spectrometers: USB2E7196
Integration Time (usec): 104000 (USB2E7196)
Spectra Averaged: 20 (USB2E7196)
Boxcar Smoothing: 10 (USB2E7196)
Correct for Electrical Dark: No (USB2E7196)
Strobe/Lamp Enabled: No (USB2E7196)
Correct for Detector Non-linearity: No (USB2E7196)
Correct for Stray Light: No (USB2E7196)
Number of Pixels in Processed Spectrum: 2048
>>>>>Begin Processed Spectral Data<<<<<
339.09	0.00
339.48	198.30
339.86	199.85
340.24	200.70
340.63	201.60
341.01	209.30
341.39	205.15
341.78	208.10
342.16	209.00
342.54	208.55
342.93	198.15
343.31	208.13
343.69	208.69
344.07	209.17
344.46	209.72
344.84	210.16
345.22	210.22
345.60	210.49
345.99	210.55
346.37	210.61
346.75	210.61
347.13	210.70
347.52	210.75
347.90	210.90
348.28	210.86
348.66	210.91
349.05	210.80
349.43	210.84
349.81	210.91
350.19	210.94
350.57	210.96
350.96	211.02
351.34	211.07
351.72	211.14
352.10	211.17
352.48	211.13
352.87	211.16
353.25	211.17
353.63	211.18
354.01	211.25
354.39	211.35
354.77	211.51
355.15	211.71
355.54	211.77
355.92	211.72
356.30	211.75
356.68	212.08
357.06	212.12
357.44	212.06
357.82	212.06
358.20	212.07
358.58	212.14
358.97	212.31
359.35	212.48
359.73	212.57
360.11	212.63
360.49	212.74
360.87	212.77
361.25	212.92
361.63	213.08
362.01	213.14
362.39	213.15
362.77	213.23
363.15	213.20
363.53	213.18
363.91	213.20
364.29	213.28
364.67	213.03
365.05	213.11
365.43	213.22
365.81	213.29
366.19	213.50
366.57	213.67
366.95	213.55
367.33	213.50
367.71	213.47
368.09	213.60
368.47	213.56
368.85	213.57
369.23	213.60
369.61	213.49
369.99	213.66
370.37	213.62
370.75	213.82
371.13	213.76
371.51	213.65
371.89	213.61
372.27	213.59
372.65	213.58
373.03	213.48
373.41	213.39
373.78	213.31
374.16	213.03
374.54	212.80
374.92	212.82
375.30	212.70
375.68	212.62
376.06	212.52
376.44	212.49
376.82	212.43
377.19	212.30
377.57	212.27
377.95	212.00
378.33	211.99
378.71	211.69
379.09	211.66
379.47	211.75
379.84	211.69
380.22	211.58
380.60	211.44
380.98	211.40
381.36	211.38
381.73	211.30
382.11	211.32
382.49	211.30
382.87	211.16
383.25	211.16
383.62	211.52
384.00	211.39
384.38	211.34
384.76	211.36
385.13	211.45
385.51	211.40
385.89	211.40
386.27	211.37
386.64	211.37
387.02	211.36
387.40	211.27
387.78	211.33
388.15	211.32
388.53	211.26
388.91	211.26
389.29	211.17
389.66	211.20
390.04	211.13
390.42	211.18
390.79	211.20
391.17	211.17
391.55	210.78
391.92	210.75
392.30	210.80
392.68	210.79
393.05	210.77
393.43	210.76
393.81	210.78
394.18	210.70
394.56	210.61
394.94	210.60
395.31	210.61
395.69	210.64
396.06	210.63
396.44	210.65
396.82	210.55
397.19	210.72
397.57	210.64
397.95	210.74
398.32	210.60
398.70	210.61
399.07	210.71
399.45	210.66
399.82	210.67
400.20	210.51
400.58	210.44
400.95	210.32
401.33	210.41
401.70	210.63
402.08	210.76
402.45	210.81
402.83	210.86
403.20	210.84
403.58	210.85
403.95	210.99
404.33	211.07
404.71	211.21
405.08	211.45
405.46	211.52
405.83	211.52
406.21	211.64
406.58	211.74
406.96	211.77
407.33	211.91
407.70	212.08
408.08	212.54
408.45	212.75
408.83	212.95
409.20	213.04
409.58	213.04
409.95	213.14
410.33	213.42
410.70	213.57
411.08	213.90
411.45	214.19
411.82	214.38
412.20	214.75
412.57	215.19
412.95	215.20
413.32	215.69
413.69	216.05
414.07	216.50
414.44	216.96
414.82	217.48
415.19	218.03
415.56	218.61
415.94	219.03
416.31	219.65
416.68	220.29
417.06	221.05
417.43	221.88
417.81	222.79
418.18	223.63
418.55	224.56
418.93	225.52
419.30	226.54
419.67	227.64
420.04	228.73
420.42	229.74
420.79	231.33
421.16	232.57
421.54	234.14
421.91	235.62
422.28	237.01
422.66	238.49
423.03	240.30
423.40	241.87
423.77	243.59
424.15	245.27
424.52	247.15
424.89	249.22
425.26	251.01
425.64	252.80
426.01	254.78
426.38	256.88
426.75	259.15
427.13	261.32
427.50	263.62
427.87	265.88
428.24	268.28
428.61	270.45
428.99	273.13
429.36	275.70
429.73	278.43
430.10	281.26
430.47	284.26
430.85	286.87
431.22	289.96
431.59	293.45
431.96	296.54
432.33	299.87
432.70	303.18
433.08	307.07
433.45	310.83
433.82	314.44
434.19	318.61
434.56	322.51
434.93	326.33
435.30	330.18
435.68	334.61
436.05	338.81
436.42	343.04
436.79	346.83
437.16	351.03
437.53	355.35
437.90	359.68
438.27	363.84
438.64	368.29
439.01	372.44
439.38	375.95
439.75	379.55
440.13	383.70
440.50	387.49
440.87	390.67
441.24	393.90
441.61	397.61
441.98	400.25
442.35	403.38
442.72	406.58
443.09	409.76
443.46	411.63
443.83	413.15
444.20	414.23
444.57	415.83
444.94	416.70
445.31	417.66
445.68	418.77
446.05	419.20
446.42	418.96
446.79	418.67
447.16	418.26
447.53	418.19
447.90	416.72
448.27	415.22
448.64	413.17
449.01	411.72
449.37	408.96
449.74	406.37
450.11	403.41
450.48	399.89
450.85	396.17
451.22	393.07
451.59	390.08
451.96	387.40
452.33	383.68
452.70	380.31
453.07	376.07
453.43	371.63
453.80	367.72
454.17	363.85
454.54	360.13
454.91	356.15
455.28	352.27
455.65	348.66
456.02	345.58
456.38	342.51
456.75	338.84
457.12	335.77
457.49	332.61
457.86	329.30
458.23	326.87
458.59	324.14
458.96	321.23
459.33	318.63
459.70	316.05
460.07	314.07
460.43	311.68
460.80	309.59
461.17	307.77
461.54	305.69
461.91	303.84
462.27	301.84
462.64	300.17
463.01	298.37
463.38	296.83
463.74	294.53
464.11	292.92
464.48	291.44
464.85	289.86
465.21	288.83
465.58	287.71
465.95	286.12
466.32	284.82
466.68	283.63
467.05	282.38
467.42	281.11
467.78	279.74
468.15	278.56
468.52	277.64
468.88	276.38
469.25	275.37
469.62	274.52
469.98	273.66
470.35	272.78
470.72	271.90
471.08	270.78
471.45	270.23
471.82	269.69
472.18	268.88
472.55	268.30
472.92	267.45
473.28	266.76
473.65	266.18
474.02	265.59
474.38	265.25
474.75	264.91
475.11	264.44
475.48	264.07
475.85	263.67
476.21	263.30
476.58	262.99
476.94	262.75
477.31	262.44
477.67	262.25
478.04	262.02
478.41	261.85
478.77	262.12
479.14	261.80
479.50	261.51
479.87	261.44
480.23	261.35
480.60	261.28
480.96	261.22
481.33	261.39
481.69	261.41
482.06	261.34
482.42	261.33
482.79	261.48
483.15	261.61
483.52	261.89
483.88	262.04
484.25	262.19
484.61	262.38
484.98	262.61
485.34	262.98
485.71	263.41
486.07	263.76
486.44	263.73
486.80	264.19
487.17	264.71
487.53	265.31
487.90	265.88
488.26	266.61
488.62	267.32
488.99	267.77
489.35	268.39
489.72	269.05
490.08	269.77
490.44	270.52
490.81	271.26
491.17	272.00
491.54	272.91
491.90	273.93
492.26	274.80
492.63	275.72
492.99	276.53
493.36	277.53
493.72	278.68
494.08	279.87
494.45	281.14
494.81	282.36
495.17	283.47
495.54	284.82
495.90	286.02
496.26	287.27
496.63	288.67
496.99	290.15
497.35	291.65
497.72	293.19
498.08	294.64
498.44	296.25
498.80	297.97
499.17	299.59
499.53	301.24
499.89	303.03
500.26	304.85
500.62	306.73
500.98	308.60
501.34	310.41
501.71	312.40
502.07	314.29
502.43	316.19
502.79	318.24
503.16	320.19
503.52	322.24
503.88	324.30
504.24	326.44
504.60	328.58
504.97	330.82
505.33	333.02
505.69	335.48
506.05	337.90
506.41	340.20
506.78	342.56
507.14	344.83
507.50	347.29
507.86	349.78
508.22	352.23
508.59	354.66
508.95	357.26
509.31	359.93
509.67	362.48
510.03	365.14
510.39	367.86
510.75	370.62
511.12	373.30
511.48	376.00
511.84	378.75
512.20	381.56
512.56	384.51
512.92	387.43
513.28	390.30
513.64	393.05
514.00	395.95
514.37	399.00
514.73	402.11
515.09	405.22
515.45	408.15
515.81	411.04
516.17	414.11
516.53	417.19
516.89	420.12
517.25	423.22
517.61	426.43
517.97	429.56
518.33	432.70
518.69	436.00
519.05	439.44
519.41	442.84
519.77	446.45
520.13	449.67
520.49	452.90
520.85	456.19
521.21	459.78
521.57	463.14
521.93	466.46
522.29	469.96
522.65	473.34
523.01	477.06
523.37	480.85
523.73	484.50
524.09	488.18
524.45	491.81
524.81	495.50
525.17	499.26
525.53	503.13
525.89	506.96
526.25	510.92
526.61	514.51
526.97	518.28
527.33	522.00
527.68	526.26
528.04	530.11
528.40	534.02
528.76	537.91
529.12	542.06
529.48	546.11
529.84	550.10
530.20	554.25
530.56	558.28
530.91	562.35
531.27	566.44
531.63	570.40
531.99	574.66
532.35	578.75
532.71	582.75
533.07	586.87
533.42	591.30
533.78	595.27
534.14	599.49
534.50	603.35
534.86	607.32
535.21	610.89
535.57	615.14
535.93	619.00
536.29	623.23
536.65	627.31
537.00	631.16
537.36	634.94
537.72	638.70
538.08	642.41
538.44	646.30
538.79	650.29
539.15	654.19
539.51	657.95
539.87	661.71
540.22	665.45
540.58	669.35
540.94	672.80
541.29	676.37
541.65	680.01
542.01	683.72
542.37	687.54
542.72	691.37
543.08	694.74
543.44	698.60
543.79	701.73
544.15	704.90
544.51	708.76
544.87	712.50
545.22	715.79
545.58	719.05
545.94	722.18
546.29	725.20
546.65	728.15
547.01	731.05
547.36	734.21
547.72	737.18
548.07	739.89
548.43	742.69
548.79	745.36
549.14	747.92
549.50	750.60
549.86	752.72
550.21	754.88
550.57	757.65
550.92	759.76
551.28	762.15
551.64	764.48
551.99	766.48
552.35	768.33
552.70	770.43
553.06	772.67
553.41	774.76
553.77	776.77
554.13	778.92
554.48	781.09
554.84	783.14
555.19	784.98
555.55	786.90
555.90	788.20
556.26	789.88
556.61	791.30
556.97	792.73
557.32	794.23
557.68	795.68
558.03	796.89
558.39	798.12
558.74	799.40
559.10	800.83
559.45	802.10
559.81	803.52
560.16	804.61
560.52	805.76
560.87	807.08
561.23	808.11
561.58	809.45
561.94	810.19
562.29	810.76
562.64	811.77
563.00	812.42
563.35	813.76
563.71	814.87
564.06	815.95
564.42	816.96
564.77	818.24
565.12	819.26
565.48	820.33
565.83	821.35
566.19	822.31
566.54	822.82
566.89	823.33
567.25	824.17
567.60	825.02
567.96	825.77
568.31	826.24
568.66	826.54
569.02	826.31
569.37	826.39
569.72	826.77
570.08	826.79
570.43	826.74
570.78	826.48
571.14	826.31
571.49	826.14
571.84	825.91
572.20	825.27
572.55	824.90
572.90	824.08
573.26	823.29
573.61	822.63
573.96	822.06
574.31	821.35
574.67	820.17
575.02	819.12
575.37	817.98
575.72	816.62
576.08	815.76
576.43	814.76
576.78	813.93
577.13	812.91
577.49	811.95
577.84	811.02
578.19	810.18
578.54	809.38
578.90	808.57
579.25	807.58
579.60	806.43
579.95	805.35
580.30	804.47
580.66	803.78
581.01	802.51
581.36	801.43
581.71	800.22
582.06	799.35
582.42	798.21
582.77	796.77
583.12	795.82
583.47	794.78
583.82	793.96
584.17	792.87
584.53	792.10
584.88	790.84
585.23	789.73
585.58	788.51
585.93	787.15
586.28	785.99
586.63	784.83
586.98	783.79
587.34	782.82
587.69	781.43
588.04	780.08
588.39	779.02
588.74	777.52
589.09	776.51
589.44	774.93
589.79	773.77
590.14	772.86
590.49	771.48
590.84	770.03
591.19	768.80
591.54	767.44
591.89	765.36
592.25	764.26
592.60	762.72
592.95	761.13
593.30	759.30
593.65	757.55
594.00	755.95
594.35	755.44
594.70	753.55
595.05	752.16
595.40	750.60
595.75	748.75
596.10	747.41
596.45	745.80
596.80	744.59
597.15	743.22
597.50	741.43
597.85	739.92
598.19	738.45
598.54	736.81
598.89	735.26
599.24	734.24
599.59	732.60
599.94	731.25
600.29	729.88
600.64	728.72
600.99	727.31
601.34	725.72
601.69	723.22
602.04	721.79
602.39	720.29
602.74	718.80
603.08	717.70
603.43	716.51
603.78	715.07
604.13	713.50
604.48	711.97
604.83	711.10
605.18	710.05
605.53	708.50
605.87	706.97
606.22	705.64
606.57	704.01
606.92	702.30
607.27	700.70
607.62	699.21
607.96	697.69
608.31	696.22
608.66	694.68
609.01	693.04
609.36	691.37
609.70	689.58
610.05	687.82
610.40	686.00
610.75	683.80
611.10	682.19
611.44	680.10
611.79	677.87
612.14	675.52
612.49	673.15
612.83	671.16
613.18	669.10
613.53	666.98
613.88	664.75
614.22	662.78
614.57	660.55
614.92	658.40
615.27	656.09
615.61	653.85
615.96	651.76
616.31	649.76
616.65	647.86
617.00	645.65
617.35	643.54
617.70	641.28
618.04	639.09
618.39	636.46
618.74	634.37
619.08	632.21
619.43	630.02
619.78	627.95
620.12	625.90
620.47	623.76
620.82	621.20
621.16	618.81
621.51	616.60
621.85	614.51
622.20	612.10
622.55	609.75
622.89	607.47
623.24	605.28
623.59	602.85
623.93	600.48
624.28	598.38
624.62	596.46
624.97	594.45
625.32	592.33
625.66	590.32
626.01	588.23
626.35	586.17
626.70	584.12
627.04	582.12
627.39	579.91
627.73	577.89
628.08	576.14
628.43	574.09
628.77	571.75
629.12	569.46
629.46	567.60
629.81	565.67
630.15	563.60
630.50	561.41
630.84	559.14
631.19	557.11
631.53	554.96
631.88	552.32
632.22	549.87
632.57	547.92
632.91	545.72
633.26	543.56
633.60	541.48
633.95	539.32
634.29	536.95
634.64	534.92
634.98	532.61
635.32	530.46
635.67	528.66
636.01	526.90
636.36	524.92
636.70	523.08
637.05	521.02
637.39	518.99
637.73	517.15
638.08	515.64
638.42	513.71
638.77	511.97
639.11	510.23
639.45	508.37
639.80	506.25
640.14	504.23
640.49	502.22
640.83	500.27
641.17	498.39
641.52	496.38
641.86	494.34
642.20	492.44
642.55	490.38
642.89	488.24
643.23	486.08
643.58	484.32
643.92	481.99
644.26	480.05
644.61	478.12
644.95	476.09
645.29	473.75
645.64	471.80
645.98	469.67
646.32	467.79
646.66	465.81
647.01	463.73
647.35	461.94
647.69	459.91
648.04	458.06
648.38	456.01
648.72	454.21
649.06	452.17
649.41	450.20
649.75	448.31
650.09	446.65
650.43	444.75
650.78	442.75
651.12	440.84
651.46	438.92
651.80	437.03
652.14	435.19
652.49	433.55
652.83	431.57
653.17	429.53
653.51	427.50
653.85	425.74
654.20	424.03
654.54	422.17
654.88	420.32
655.22	418.42
655.56	416.57
655.90	414.74
656.25	412.97
656.59	411.21
656.93	409.46
657.27	407.66
657.61	405.80
657.95	404.02
658.29	402.36
658.64	400.64
658.98	398.87
659.32	396.87
659.66	395.14
660.00	393.40
660.34	391.62
660.68	389.91
661.02	388.16
661.36	386.57
661.70	384.90
662.05	383.37
662.39	381.91
662.73	380.55
663.07	379.14
663.41	377.61
663.75	376.03
664.09	374.50
664.43	372.80
664.77	371.31
665.11	369.76
665.45	368.27
665.79	366.92
666.13	365.47
666.47	364.11
666.81	362.62
667.15	361.05
667.49	359.91
667.83	358.71
668.17	357.39
668.51	355.98
668.85	354.70
669.19	353.58
669.53	352.10
669.87	350.50
670.21	349.00
670.55	347.79
670.89	346.73
671.23	345.53
671.57	344.36
671.91	343.16
672.25	341.89
672.58	340.75
672.92	339.41
673.26	338.28
673.60	337.25
673.94	336.14
674.28	335.17
674.62	334.08
674.96	332.94
675.30	331.85
675.64	330.69
675.97	329.57
676.31	328.40
676.65	327.32
676.99	326.50
677.33	325.35
677.67	324.24
678.01	322.91
678.34	321.88
678.68	320.93
679.02	319.91
679.36	319.02
679.70	318.03
680.04	317.02
680.37	315.95
680.71	314.85
681.05	313.95
681.39	312.97
681.73	311.85
682.06	310.92
682.40	309.91
682.74	309.05
683.08	308.29
683.42	307.20
683.75	306.42
684.09	305.35
684.43	304.49
684.77	303.43
685.10	302.58
685.44	301.59
685.78	300.62
686.12	299.73
686.45	298.75
686.79	297.76
687.13	296.96
687.46	295.99
687.80	295.29
688.14	294.35
688.48	293.55
688.81	292.70
689.15	291.87
689.49	290.95
689.82	290.22
690.16	289.20
690.50	288.41
690.83	287.47
691.17	286.62
691.51	285.85
691.84	285.21
692.18	284.45
692.52	283.75
692.85	283.09
693.19	282.45
693.52	281.67
693.86	280.93
694.20	280.10
694.53	279.54
694.87	278.65
695.21	277.90
695.54	277.10
695.88	276.28
696.21	275.52
696.55	274.87
696.88	274.10
697.22	273.30
697.56	272.67
697.89	271.98
698.23	271.43
698.56	270.71
698.90	270.10
699.23	269.51
699.57	268.89
699.90	268.10
700.24	267.46
700.58	266.90
700.91	266.37
701.25	266.05
701.58	265.47
701.92	264.92
702.25	264.30
702.59	263.72
702.92	263.25
703.26	262.67
703.59	262.14
703.93	261.90
704.26	261.49
704.60	260.97
704.93	260.40
705.26	259.71
705.60	259.35
705.93	258.71
706.27	258.18
706.60	257.78
706.94	257.50
707.27	256.83
707.61	256.33
707.94	255.75
708.27	254.95
708.61	254.37
708.94	253.97
709.28	253.51
709.61	253.03
709.94	252.64
710.28	252.13
710.61	251.67
710.95	250.90
711.28	250.73
711.61	250.26
711.95	249.94
712.28	249.57
712.61	249.08
712.95	248.94
713.28	248.76
713.61	248.22
713.95	247.65
714.28	247.43
714.61	247.03
714.95	246.72
715.28	246.38
715.61	246.04
715.95	245.71
716.28	245.30
716.61	245.01
716.95	244.61
717.28	244.27
717.61	243.98
717.94	243.67
718.28	243.12
718.61	242.80
718.94	242.44
719.27	242.14
719.61	241.82
719.94	241.40
720.27	240.90
720.60	240.55
720.94	240.16
721.27	239.84
721.60	239.61
721.93	239.27
722.27	239.12
722.60	238.87
722.93	238.51
723.26	238.35
723.59	238.06
723.93	237.85
724.26	237.65
724.59	237.29
724.92	237.10
725.25	236.85
725.59	236.60
725.92	236.39
726.25	236.10
726.58	235.87
726.91	235.55
727.24	235.40
727.57	235.18
727.91	234.98
728.24	234.84
728.57	234.57
728.90	234.42
729.23	234.02
729.56	234.02
729.89	233.79
730.22	233.49
730.55	233.22
730.89	232.97
731.22	232.76
731.55	232.57
731.88	232.31
732.21	232.04
732.54	231.81
732.87	231.62
733.20	231.50
733.53	231.31
733.86	231.17
734.19	230.87
734.52	230.74
734.85	230.82
735.18	230.45
735.51	230.33
735.84	230.11
736.17	230.11
736.50	229.69
736.83	229.97
737.16	229.78
737.49	229.53
737.82	229.37
738.15	229.20
738.48	228.98
738.81	228.82
739.14	228.64
739.47	228.42
739.80	228.29
740.13	228.11
740.46	227.78
740.79	227.56
741.12	227.45
741.45	227.28
741.78	226.91
742.11	226.96
742.44	226.73
742.77	226.68
743.10	226.44
743.43	226.19
743.75	225.55
744.08	225.91
744.41	225.81
744.74	225.61
745.07	225.37
745.40	225.35
745.73	225.32
746.06	225.09
746.39	225.05
746.71	224.80
747.04	224.61
747.37	224.62
747.70	224.62
748.03	224.39
748.36	224.27
748.68	224.05
749.01	223.77
749.34	223.62
749.67	223.45
750.00	223.36
750.33	223.49
750.65	223.46
750.98	222.85
751.31	222.74
751.64	222.66
751.97	222.71
752.29	222.53
752.62	222.20
752.95	222.19
753.28	222.04
753.60	221.97
753.93	221.90
754.26	221.75
754.59	221.47
754.91	221.37
755.24	221.22
755.57	221.15
755.90	221.06
756.22	220.95
756.55	220.74
756.88	220.60
757.20	220.34
757.53	220.17
757.86	220.04
758.19	219.97
758.51	219.87
758.84	219.59
759.17	219.50
759.49	219.53
759.82	219.49
760.15	219.43
760.47	219.28
760.80	219.17
761.13	219.11
761.45	218.99
761.78	218.96
762.11	218.88
762.43	218.79
762.76	218.67
763.08	218.59
763.41	218.57
763.74	218.42
764.06	218.32
764.39	218.18
764.71	218.13
765.04	218.11
765.37	218.01
765.69	217.93
766.02	217.80
766.34	217.66
766.67	217.53
767.00	217.56
767.32	217.71
767.65	217.82
767.97	217.77
768.30	217.78
768.62	217.65
768.95	217.55
769.27	217.52
769.60	217.46
769.92	217.35
770.25	217.15
770.57	217.01
770.90	216.96
771.22	216.88
771.55	216.82
771.87	216.65
772.20	216.54
772.52	216.81
772.85	217.19
773.17	217.10
773.50	217.07
773.82	216.86
774.15	216.53
774.47	216.21
774.80	216.05
775.12	215.89
775.45	215.82
775.77	215.81
776.09	215.75
776.42	215.75
776.74	215.86
777.07	215.89
777.39	215.95
777.72	215.85
778.04	215.83
778.36	215.75
778.69	215.75
779.01	215.74
779.33	215.35
779.66	214.93
779.98	214.89
780.31	214.82
780.63	214.98
780.95	215.12
781.28	215.07
781.60	215.04
781.92	215.08
782.25	215.00
782.57	214.97
782.89	214.91
783.22	214.82
783.54	214.73
783.86	214.73
784.19	214.71
784.51	214.76
784.83	214.70
785.16	214.70
785.48	214.63
785.80	214.60
786.12	214.63
786.45	214.55
786.77	214.58
787.09	214.49
787.42	214.34
787.74	214.24
788.06	214.20
788.38	214.15
788.71	214.12
789.03	214.14
789.35	214.15
789.67	214.10
789.99	214.14
790.32	214.01
790.64	213.99
790.96	214.20
791.28	214.13
791.61	214.10
791.93	214.05
792.25	214.00
792.57	214.24
792.89	214.19
793.21	214.28
793.54	214.14
793.86	214.14
794.18	214.12
794.50	214.05
794.82	214.12
795.14	214.11
795.47	214.19
795.79	214.13
796.11	214.04
796.43	214.04
796.75	214.03
797.07	214.02
797.39	213.97
797.71	213.73
798.04	213.71
798.36	213.69
798.68	213.63
799.00	213.73
799.32	213.54
799.64	213.56
799.96	213.53
800.28	213.65
800.60	213.57
800.92	213.60
801.24	213.54
801.56	213.50
801.89	213.52
802.21	213.45
802.53	213.38
802.85	213.44
803.17	213.54
803.49	213.42
803.81	213.40
804.13	213.41
804.45	213.34
804.77	213.41
805.09	213.46
805.41	213.45
805.73	213.36
806.05	213.32
806.37	213.25
806.69	213.13
807.01	213.11
807.33	213.20
807.65	212.99
807.97	213.19
808.28	213.19
808.60	213.16
808.92	213.07
809.24	213.32
809.56	213.26
809.88	213.18
810.20	213.20
810.52	213.20
810.84	213.10
811.16	213.06
811.48	212.98
811.80	212.99
812.12	213.04
812.43	213.07
812.75	213.11
813.07	213.11
813.39	213.15
813.71	213.03
814.03	212.93
814.35	212.99
814.67	212.80
814.98	212.80
815.30	212.78
815.62	212.82
815.94	212.51
816.26	212.54
816.58	212.42
816.89	212.44
817.21	212.47
817.53	212.55
817.85	212.52
818.17	212.51
818.48	212.41
818.80	212.38
819.12	212.34
819.44	212.18
819.76	212.12
820.07	212.11
820.39	212.16
820.71	212.20
821.03	212.18
821.34	212.14
821.66	212.14
821.98	212.16
822.30	212.11
822.61	212.31
822.93	212.21
823.25	212.19
823.57	212.17
823.88	212.17
824.20	212.11
824.52	212.25
824.83	212.20
825.15	212.20
825.47	212.25
825.79	212.21
826.10	212.21
826.42	212.20
826.74	212.25
827.05	212.23
827.37	212.19
827.69	212.14
828.00	212.19
828.32	212.17
828.64	212.09
828.95	212.27
829.27	212.20
829.58	212.16
829.90	212.25
830.22	212.21
830.53	212.09
830.85	212.07
831.17	211.92
831.48	211.93
831.80	211.91
832.11	211.87
832.43	211.81
832.75	211.87
833.06	212.05
833.38	211.89
833.69	211.91
834.01	211.89
834.32	211.91
834.64	211.84
834.96	211.82
835.27	211.82
835.59	211.68
835.90	211.62
836.22	211.65
836.53	211.51
836.85	211.50
837.16	211.95
837.48	211.95
837.79	212.05
838.11	212.12
838.42	212.09
838.74	212.10
839.05	212.06
839.37	212.00
839.68	211.79
840.00	211.77
840.31	211.74
840.63	211.76
840.94	211.76
841.26	211.70
841.57	211.68
841.88	211.72
842.20	211.61
842.51	211.59
842.83	211.58
843.14	211.93
843.46	211.93
843.77	211.67
844.08	211.61
844.40	211.54
844.71	211.43
845.03	211.47
845.34	211.44
845.65	211.47
845.97	211.42
846.28	211.46
846.60	211.54
846.91	211.50
847.22	211.49
847.54	211.53
847.85	211.53
848.16	211.56
848.48	211.53
848.79	211.70
849.10	211.79
849.42	211.85
849.73	211.51
850.04	211.49
850.36	211.38
850.67	211.43
850.98	211.34
851.30	211.44
851.61	211.31
851.92	211.35
852.23	211.54
852.55	211.62
852.86	211.66
853.17	211.76
853.49	211.84
853.80	211.92
854.11	211.87
854.42	211.97
854.74	211.84
855.05	211.79
855.36	211.60
855.67	211.57
855.99	211.53
856.30	211.96
856.61	211.95
856.92	211.91
857.23	211.94
857.55	211.97
857.86	211.88
858.17	212.03
858.48	211.86
858.79	211.65
859.11	211.70
859.42	211.57
859.73	211.39
860.04	211.37
860.35	211.29
860.66	211.27
860.98	211.26
861.29	211.45
861.60	211.50
861.91	211.67
862.22	211.62
862.53	211.55
862.84	211.10
863.16	211.22
863.47	211.23
863.78	211.20
864.09	211.18
864.40	211.28
864.71	211.20
865.02	211.30
865.33	211.32
865.64	211.23
865.95	211.33
866.27	211.61
866.58	211.59
866.89	211.59
867.20	211.52
867.51	211.42
867.82	211.25
868.13	211.41
868.44	211.24
868.75	211.32
869.06	211.32
869.37	211.39
869.68	211.23
869.99	211.29
870.30	211.27
870.61	211.36
870.92	211.24
871.23	211.32
871.54	211.43
871.85	211.60
872.16	211.63
872.47	211.58
872.78	211.44
873.09	211.48
873.40	211.46
873.71	211.59
874.02	211.65
874.33	211.74
874.64	211.56
874.95	211.63
875.26	211.50
875.56	211.53
875.87	211.52
876.18	211.55
876.49	211.85
876.80	211.90
877.11	211.92
877.42	211.95
877.73	211.97
878.04	211.90
878.35	211.80
878.66	211.85
878.96	211.81
879.27	211.74
879.58	211.70
879.89	211.66
880.20	211.67
880.51	211.69
880.82	211.66
881.12	211.75
881.43	211.71
881.74	211.70
882.05	211.72
882.36	211.78
882.67	211.81
882.97	211.46
883.28	211.38
883.59	211.33
883.90	211.38
884.21	211.36
884.51	211.25
884.82	211.20
885.13	211.19
885.44	211.20
885.74	211.23
886.05	211.27
886.36	211.37
886.67	211.29
886.98	211.41
887.28	211.44
887.59	211.39
887.90	211.35
888.20	211.38
888.51	211.35
888.82	211.24
889.13	211.31
889.43	211.60
889.74	211.58
890.05	211.58
890.35	211.51
890.66	211.43
890.97	211.47
891.28	211.42
891.58	211.37
891.89	211.33
892.20	211.28
892.50	211.18
892.81	211.09
893.12	211.07
893.42	210.91
893.73	210.90
894.04	210.90
894.34	211.02
894.65	210.97
894.95	211.03
895.26	211.01
895.57	211.10
895.87	210.70
896.18	210.82
896.48	210.79
896.79	210.75
897.10	210.84
897.40	210.91
897.71	210.99
898.01	210.94
898.32	211.00
898.63	211.00
898.93	211.01
899.24	211.03
899.54	211.09
899.85	211.05
900.15	211.02
900.46	210.98
900.76	211.00
901.07	211.06
901.38	211.02
901.68	211.14
901.99	211.03
902.29	211.10
902.60	211.04
902.90	211.02
903.21	211.09
903.51	211.07
903.82	211.11
904.12	211.11
904.43	211.21
904.73	211.22
905.03	211.23
905.34	211.56
905.64	211.59
905.95	211.44
906.25	211.42
906.56	211.44
906.86	211.49
907.17	211.36
907.47	211.33
907.77	211.26
908.08	211.22
908.38	211.16
908.69	211.18
908.99	211.25
909.30	211.30
909.60	211.31
909.90	211.27
910.21	211.15
910.51	211.05
910.81	211.07
911.12	211.11
911.42	211.12
911.73	210.80
912.03	210.83
912.33	210.98
912.64	210.98
912.94	210.92
913.24	210.85
913.55	210.82
913.85	210.82
914.15	210.94
914.46	210.93
914.76	210.91
915.06	210.86
915.37	210.75
915.67	210.61
915.97	210.53
916.27	210.46
916.58	210.46
916.88	210.46
917.18	210.41
917.49	210.57
917.79	210.60
918.09	210.63
918.39	210.65
918.70	210.63
919.00	210.70
919.30	210.90
919.60	210.85
919.91	210.84
920.21	210.91
920.51	210.81
920.81	210.84
921.12	210.95
921.42	210.92
921.72	211.00
922.02	211.07
922.32	211.17
922.63	211.23
922.93	211.41
923.23	211.47
923.53	211.44
923.83	211.25
924.13	211.26
924.44	211.23
924.74	211.21
925.04	211.25
925.34	211.22
925.64	211.00
925.94	210.99
926.24	211.22
926.55	211.12
926.85	211.25
927.15	211.23
927.45	211.23
927.75	211.23
928.05	211.21
928.35	211.23
928.65	211.19
928.95	211.21
929.26	211.07
929.56	211.14
929.86	211.20
930.16	211.19
930.46	211.15
930.76	211.19
931.06	211.07
931.36	211.00
931.66	211.05
931.96	211.09
932.26	211.13
932.56	210.94
932.86	210.99
933.16	210.90
933.46	210.81
933.76	210.77
934.06	210.87
934.36	210.97
934.66	211.01
934.96	211.02
935.26	211.01
935.56	211.05
935.86	210.95
936.16	210.82
936.46	210.73
936.76	210.71
937.06	210.65
937.36	210.73
937.66	210.69
937.96	210.70
938.26	210.71
938.56	210.70
938.86	210.80
939.16	210.89
939.46	210.87
939.76	210.94
940.06	210.87
940.35	210.82
940.65	210.67
940.95	210.71
941.25	210.67
941.55	210.65
941.85	210.58
942.15	210.65
942.45	210.79
942.75	210.84
943.04	210.86
943.34	210.98
943.64	210.96
943.94	211.00
944.24	210.92
944.54	210.97
944.84	211.02
945.13	210.98
945.43	210.92
945.73	210.96
946.03	210.91
946.33	210.90
946.62	210.84
946.92	210.83
947.22	210.80
947.52	210.82
947.82	210.86
948.11	210.89
948.41	210.84
948.71	210.80
949.01	210.86
949.31	210.82
949.60	210.73
949.90	210.84
950.20	210.83
950.50	210.85
950.79	210.82
951.09	210.86
951.39	210.79
951.69	210.76
951.98	210.80
952.28	210.84
952.58	210.81
952.87	210.82
953.17	210.91
953.47	210.90
953.76	210.95
954.06	210.92
954.36	210.87
954.66	210.89
954.95	211.00
955.25	210.94
955.55	211.03
955.84	210.99
956.14	210.95
956.44	210.97
956.73	211.01
957.03	211.04
957.32	211.04
957.62	211.04
957.92	211.05
958.21	211.00
958.51	211.48
958.81	211.56
959.10	211.61
959.40	211.66
959.69	211.69
959.99	211.70
960.29	211.70
960.58	211.76
960.88	211.91
961.17	211.77
961.47	211.78
961.76	211.66
962.06	211.74
962.36	211.76
962.65	211.80
962.95	211.77
963.24	211.73
963.54	211.69
963.83	211.70
964.13	211.73
964.42	211.66
964.72	211.33
965.01	211.35
965.31	211.28
965.60	211.17
965.90	211.39
966.19	211.30
966.49	211.32
966.78	211.27
967.08	211.25
967.37	211.33
967.67	211.30
967.96	211.33
968.26	211.26
968.55	211.32
968.85	211.23
969.14	211.23
969.43	211.18
969.73	211.17
970.02	211.18
970.32	211.20
970.61	211.16
970.91	211.07
971.20	210.98
971.49	211.02
971.79	211.05
972.08	210.73
972.38	210.75
972.67	210.74
972.96	210.79
973.26	210.62
973.55	210.66
973.85	210.63
974.14	210.68
974.43	210.69
974.73	210.60
975.02	210.58
975.31	210.59
975.61	210.57
975.90	210.54
976.19	210.58
976.49	210.55
976.78	210.64
977.07	210.62
977.37	210.71
977.66	210.69
977.95	210.64
978.24	210.73
978.54	210.79
978.83	210.69
979.12	210.60
979.42	210.65
979.71	210.55
980.00	210.66
980.29	210.67
980.59	210.70
980.88	210.75
981.17	210.80
981.46	210.74
981.76	210.75
982.05	210.89
982.34	210.82
982.63	210.82
982.93	210.82
983.22	210.94
983.51	210.90
983.80	211.01
984.09	211.06
984.39	211.02
984.68	211.05
984.97	211.18
985.26	211.24
985.55	211.26
985.85	211.26
986.14	211.28
986.43	211.28
986.72	211.26
987.01	211.16
987.30	211.13
987.59	211.14
987.89	211.15
988.18	211.04
988.47	211.02
988.76	211.10
989.05	211.10
989.34	210.99
989.63	211.06
989.92	210.96
990.22	211.00
990.51	211.02
990.80	210.86
991.09	210.88
991.38	210.93
991.67	210.96
991.96	210.90
992.25	210.83
992.54	210.85
992.83	210.74
993.12	210.76
993.41	210.82
993.70	211.01
993.99	211.13
994.28	211.23
994.58	211.30
994.87	211.17
995.16	211.14
995.45	211.11
995.74	210.97
996.03	211.07
996.32	211.08
996.61	211.13
996.90	211.18
997.19	211.16
997.48	211.08
997.77	210.93
998.06	210.98
998.34	211.01
998.63	210.93
998.92	211.00
999.21	211.01
999.50	211.00
999.79	210.85
1000.08	210.76
1000.37	210.68
1000.66	210.65
1000.95	210.71
1001.24	210.69
1001.53	210.77
1001.82	210.74
1002.11	210.67
1002.40	210.68
1002.68	210.73
1002.97	211.07
1003.26	211.02
1003.55	210.98
1003.84	211.13
1004.13	211.28
1004.42	211.27
1004.71	211.29
1004.99	211.31
1005.28	211.33
1005.57	211.35
1005.86	211.31
1006.15	211.36
1006.44	211.35
1006.72	211.33
1007.01	211.23
1007.30	211.21
1007.59	211.17
1007.88	211.25
1008.17	211.27
1008.45	211.18
1008.74	211.03
1009.03	210.78
1009.32	210.77
1009.60	210.83
1009.89	210.79
1010.18	210.65
1010.47	210.61
1010.76	210.63
1011.04	210.61
1011.33	210.71
1011.62	210.71
1011.91	210.68
1012.19	210.64
1012.48	210.66
1012.77	210.78
1013.05	210.97
1013.34	210.99
1013.63	210.98
1013.92	210.96
1014.20	210.91
1014.49	210.93
1014.78	210.93
1015.06	210.82
1015.35	210.79
1015.64	210.81
1015.92	210.84
1016.21	210.73
1016.50	210.72
1016.78	210.76
1017.07	210.76
1017.36	210.73
1017.64	210.69
1017.93	210.73
1018.22	210.79
1018.50	210.77
1018.79	210.65
1019.08	210.54
1019.36	210.62
1019.65	210.56
1019.93	210.71
1020.22	210.75
1020.51	210.92
1020.79	210.98
1021.08	211.50
1021.36	210.15
1021.65	210.15
1021.94	210.55
1022.22	211.80
1022.51	209.80
1022.79	213.30
1023.08	211.05
1023.36	214.60
1023.65	211.00
>>>>>End Processed Spectral Data<<<<<
