SpectraSuite Data File
++++++++++++++++++++++++++++++++++++
Date: Mon Feb 25 17:18:33 EST 2013
User: group
Dark Spectrum Present: No
Reference Spectrum Present: No
Number of Sampled Component Spectra: 1
Spectrometers: USB2E7196
Integration Time (usec): 104000 (USB2E7196)
Spectra Averaged: 20 (USB2E7196)
Boxcar Smoothing: 10 (USB2E7196)
Correct for Electrical Dark: No (USB2E7196)
Strobe/Lamp Enabled: No (USB2E7196)
Correct for Detector Non-linearity: No (USB2E7196)
Correct for Stray Light: No (USB2E7196)
Number of Pixels in Processed Spectrum: 2048
>>>>>Begin Processed Spectral Data<<<<<
339.09	0.00
339.48	197.70
339.86	199.55
340.24	201.20
340.63	204.55
341.01	209.65
341.39	207.00
341.78	207.30
342.16	208.00
342.54	209.30
342.93	198.45
343.31	208.50
343.69	209.12
344.07	209.66
344.46	210.12
344.84	210.50
345.22	210.55
345.60	210.86
345.99	211.06
346.37	211.34
346.75	211.50
347.13	211.60
347.52	211.71
347.90	211.89
348.28	212.05
348.66	212.18
349.05	212.10
349.43	212.27
349.81	212.45
350.19	212.54
350.57	212.52
350.96	212.64
351.34	212.72
351.72	212.84
352.10	212.94
352.48	213.11
352.87	213.14
353.25	213.27
353.63	213.28
354.01	213.38
354.39	213.40
354.77	213.47
355.15	213.67
355.54	213.78
355.92	213.74
356.30	213.74
356.68	214.00
357.06	214.12
357.44	214.14
357.82	214.21
358.20	214.23
358.58	214.41
358.97	214.51
359.35	214.72
359.73	214.86
360.11	214.85
360.49	214.90
360.87	215.00
361.25	215.13
361.63	215.29
362.01	215.40
362.39	215.47
362.77	215.51
363.15	215.49
363.53	215.46
363.91	215.51
364.29	215.50
364.67	215.15
365.05	215.14
365.43	215.24
365.81	215.26
366.19	215.47
366.57	215.56
366.95	215.51
367.33	215.35
367.71	215.26
368.09	215.38
368.47	215.34
368.85	215.30
369.23	215.30
369.61	215.11
369.99	215.18
370.37	215.11
370.75	215.23
371.13	215.05
371.51	215.00
371.89	215.05
372.27	215.03
372.65	215.08
373.03	215.07
373.41	214.92
373.78	214.81
374.16	214.54
374.54	214.32
374.92	214.26
375.30	214.25
375.68	214.19
376.06	214.11
376.44	214.00
376.82	213.95
377.19	213.89
377.57	213.84
377.95	213.62
378.33	213.61
378.71	213.37
379.09	213.48
379.47	213.49
379.84	213.35
380.22	213.30
380.60	213.18
380.98	213.07
381.36	213.06
381.73	212.98
382.11	213.05
382.49	213.04
382.87	212.88
383.25	212.81
383.62	213.15
384.00	213.04
384.38	213.01
384.76	213.02
385.13	213.10
385.51	213.07
385.89	213.01
386.27	212.96
386.64	213.00
387.02	212.85
387.40	212.81
387.78	212.81
388.15	212.82
388.53	212.78
388.91	212.77
389.29	212.70
389.66	212.71
390.04	212.60
390.42	212.67
390.79	212.76
391.17	212.81
391.55	212.40
391.92	212.42
392.30	212.51
392.68	212.37
393.05	212.35
393.43	212.39
393.81	212.42
394.18	212.35
394.56	212.36
394.94	212.54
395.31	212.49
395.69	212.62
396.06	212.67
396.44	212.69
396.82	212.65
397.19	212.81
397.57	212.78
397.95	212.87
398.32	212.77
398.70	212.81
399.07	212.82
399.45	212.90
399.82	212.90
400.20	212.84
400.58	213.01
400.95	212.86
401.33	212.94
401.70	213.24
402.08	213.28
402.45	213.26
402.83	213.28
403.20	213.39
403.58	213.43
403.95	213.51
404.33	213.70
404.71	213.88
405.08	214.11
405.46	214.31
405.83	214.53
406.21	214.73
406.58	214.88
406.96	215.03
407.33	215.26
407.70	215.50
408.08	216.04
408.45	216.32
408.83	216.69
409.20	216.96
409.58	217.07
409.95	217.50
410.33	217.91
410.70	218.27
411.08	218.72
411.45	219.14
411.82	219.63
412.20	220.14
412.57	220.86
412.95	221.26
413.32	221.93
413.69	222.49
414.07	223.18
414.44	223.98
414.82	224.81
415.19	225.69
415.56	226.67
415.94	227.46
416.31	228.54
416.68	229.65
417.06	230.92
417.43	232.18
417.81	233.47
418.18	234.90
418.55	236.40
418.93	237.98
419.30	239.69
419.67	241.38
420.04	243.16
420.42	244.98
420.79	247.26
421.16	249.44
421.54	251.81
421.91	254.10
422.28	256.46
422.66	258.92
423.03	261.55
423.40	264.11
423.77	266.84
424.15	269.52
424.52	272.35
424.89	275.49
425.26	278.54
425.64	281.45
426.01	284.60
426.38	287.82
426.75	291.21
427.13	294.66
427.50	298.29
427.87	302.00
428.24	305.81
428.61	309.35
428.99	313.38
429.36	317.64
429.73	321.82
430.10	326.03
430.47	330.56
430.85	334.90
431.22	339.62
431.59	344.85
431.96	349.71
432.33	355.07
432.70	360.18
433.08	366.02
433.45	371.83
433.82	377.39
434.19	383.83
434.56	390.07
434.93	395.77
435.30	401.60
435.68	408.17
436.05	414.49
436.42	420.72
436.79	426.49
437.16	432.74
437.53	439.45
437.90	445.99
438.27	452.31
438.64	458.95
439.01	465.13
439.38	470.35
439.75	475.76
440.13	481.75
440.50	487.34
440.87	492.14
441.24	496.92
441.61	502.30
441.98	505.91
442.35	510.18
442.72	514.96
443.09	519.54
443.46	522.06
443.83	523.77
444.20	525.45
444.57	527.52
444.94	528.53
445.31	529.62
445.68	530.91
446.05	531.24
446.42	530.45
446.79	529.57
447.16	528.60
447.53	527.87
447.90	525.29
448.27	522.79
448.64	519.19
449.01	516.59
449.37	512.15
449.74	507.98
450.11	503.29
450.48	497.68
450.85	491.80
451.22	486.90
451.59	482.31
451.96	477.64
452.33	471.73
452.70	466.32
453.07	459.79
453.43	453.03
453.80	446.82
454.17	440.91
454.54	435.32
454.91	429.46
455.28	423.52
455.65	418.09
456.02	413.02
456.38	408.47
456.75	402.68
457.12	398.02
457.49	393.31
457.86	388.45
458.23	384.56
458.59	380.45
458.96	376.23
459.33	372.39
459.70	368.71
460.07	365.85
460.43	362.41
460.80	359.36
461.17	356.53
461.54	353.44
461.91	350.61
462.27	347.81
462.64	345.32
463.01	342.64
463.38	340.24
463.74	337.29
464.11	334.92
464.48	333.02
464.85	330.77
465.21	329.29
465.58	327.61
465.95	325.47
466.32	323.64
466.68	321.93
467.05	320.28
467.42	318.58
467.78	316.79
468.15	315.16
468.52	313.84
468.88	312.25
469.25	311.01
469.62	310.01
469.98	308.81
470.35	307.70
470.72	306.73
471.08	305.46
471.45	304.56
471.82	303.78
472.18	302.82
472.55	302.26
472.92	301.30
473.28	300.56
473.65	299.89
474.02	299.29
474.38	298.85
474.75	298.47
475.11	298.05
475.48	297.81
475.85	297.53
476.21	297.34
476.58	297.34
476.94	297.30
477.31	297.27
477.67	297.24
478.04	297.36
478.41	297.56
478.77	298.20
479.14	298.43
479.50	298.79
479.87	299.23
480.23	299.76
480.60	300.31
480.96	300.87
481.33	301.81
481.69	302.67
482.06	303.45
482.42	304.29
482.79	305.31
483.15	306.30
483.52	307.62
483.88	308.78
484.25	309.97
484.61	311.38
484.98	312.78
485.34	314.45
485.71	316.18
486.07	318.00
486.44	319.60
486.80	321.73
487.17	323.82
487.53	326.15
487.90	328.48
488.26	331.18
488.62	334.07
488.99	336.69
489.35	339.53
489.72	342.76
490.08	346.12
490.44	349.46
490.81	353.28
491.17	356.91
491.54	361.00
491.90	365.21
492.26	369.74
492.63	374.42
492.99	379.39
493.36	384.52
493.72	389.93
494.08	395.48
494.45	401.51
494.81	407.80
495.17	414.09
495.54	420.91
495.90	427.83
496.26	435.10
496.63	442.75
496.99	450.84
497.35	459.08
497.72	467.60
498.08	476.62
498.44	485.87
498.80	495.85
499.17	506.09
499.53	516.63
499.89	527.35
500.26	538.50
500.62	549.83
500.98	561.92
501.34	574.43
501.71	587.35
502.07	600.34
502.43	613.93
502.79	627.94
503.16	642.39
503.52	657.24
503.88	672.45
504.24	688.21
504.60	704.32
504.97	721.04
505.33	738.04
505.69	756.21
506.05	774.33
506.41	792.66
506.78	811.20
507.14	830.17
507.50	850.09
507.86	870.14
508.22	891.03
508.59	911.83
508.95	933.04
509.31	954.73
509.67	977.02
510.03	999.75
510.39	1023.24
510.75	1047.04
511.12	1071.05
511.48	1095.30
511.84	1120.02
512.20	1144.67
512.56	1170.13
512.92	1196.17
513.28	1221.77
513.64	1248.02
514.00	1274.39
514.37	1301.10
514.73	1328.50
515.09	1355.53
515.45	1383.04
515.81	1410.45
516.17	1438.10
516.53	1466.04
516.89	1494.00
517.25	1522.12
517.61	1550.16
517.97	1578.17
518.33	1605.85
518.69	1634.04
519.05	1662.52
519.41	1691.20
519.77	1720.23
520.13	1748.20
520.49	1776.05
520.85	1804.20
521.21	1832.75
521.57	1861.64
521.93	1889.77
522.29	1918.48
522.65	1947.43
523.01	1975.74
523.37	2003.03
523.73	2031.11
524.09	2058.84
524.45	2087.12
524.81	2114.80
525.17	2143.03
525.53	2170.65
525.89	2198.56
526.25	2225.85
526.61	2252.22
526.97	2278.56
527.33	2304.90
527.68	2331.75
528.04	2357.37
528.40	2382.51
528.76	2407.37
529.12	2432.87
529.48	2459.25
529.84	2484.14
530.20	2508.28
530.56	2532.77
530.91	2558.84
531.27	2583.70
531.63	2608.01
531.99	2631.73
532.35	2654.85
532.71	2677.19
533.07	2700.72
533.42	2722.55
533.78	2744.93
534.14	2767.11
534.50	2787.47
534.86	2808.84
535.21	2828.79
535.57	2850.60
535.93	2870.85
536.29	2890.68
536.65	2909.95
537.00	2927.68
537.36	2944.91
537.72	2962.30
538.08	2979.86
538.44	2996.59
538.79	3013.65
539.15	3030.42
539.51	3046.87
539.87	3064.27
540.22	3080.10
540.58	3095.81
540.94	3111.40
541.29	3125.13
541.65	3138.30
542.01	3152.51
542.37	3165.20
542.72	3178.31
543.08	3189.46
543.44	3202.95
543.79	3214.05
544.15	3224.58
544.51	3236.11
544.87	3248.00
545.22	3258.20
545.58	3267.19
545.94	3275.23
546.29	3282.44
546.65	3288.85
547.01	3295.38
547.36	3301.11
547.72	3307.35
548.07	3311.51
548.43	3316.36
548.79	3321.15
549.14	3325.70
549.50	3330.03
549.86	3333.20
550.21	3336.27
550.57	3340.08
550.92	3340.99
551.28	3343.13
551.64	3345.12
551.99	3346.88
552.35	3347.59
552.70	3348.87
553.06	3350.35
553.41	3351.52
553.77	3351.50
554.13	3352.09
554.48	3352.67
554.84	3353.15
555.19	3352.25
555.55	3351.42
555.90	3349.57
556.26	3347.66
556.61	3346.12
556.97	3343.31
557.32	3341.85
557.68	3339.00
558.03	3335.78
558.39	3333.25
558.74	3331.78
559.10	3329.35
559.45	3325.99
559.81	3323.64
560.16	3319.38
560.52	3315.91
560.87	3311.85
561.23	3307.82
561.58	3304.55
561.94	3299.09
562.29	3293.27
562.64	3289.16
563.00	3284.99
563.35	3281.39
563.71	3278.42
564.06	3274.39
564.42	3271.22
564.77	3266.91
565.12	3263.05
565.48	3258.60
565.83	3254.36
566.19	3249.77
566.54	3243.51
566.89	3237.76
567.25	3231.92
567.60	3227.09
567.96	3221.05
568.31	3215.37
568.66	3209.33
569.02	3202.37
569.37	3195.41
569.72	3188.79
570.08	3181.63
570.43	3174.38
570.78	3166.20
571.14	3157.36
571.49	3148.83
571.84	3140.80
572.20	3131.50
572.55	3123.24
572.90	3113.73
573.26	3103.90
573.61	3093.82
573.96	3084.71
574.31	3074.03
574.67	3062.78
575.02	3051.48
575.37	3041.15
575.72	3029.86
576.08	3020.07
576.43	3008.70
576.78	2998.70
577.13	2989.09
577.49	2978.58
577.84	2968.06
578.19	2958.10
578.54	2948.97
578.90	2939.86
579.25	2928.83
579.60	2918.08
579.95	2906.35
580.30	2896.45
580.66	2886.81
581.01	2875.75
581.36	2864.44
581.71	2854.07
582.06	2843.96
582.42	2834.26
582.77	2822.67
583.12	2811.87
583.47	2801.49
583.82	2792.15
584.17	2781.56
584.53	2770.74
584.88	2760.23
585.23	2749.50
585.58	2739.06
585.93	2727.75
586.28	2717.00
586.63	2706.39
586.98	2696.30
587.34	2686.90
587.69	2676.51
588.04	2665.70
588.39	2655.68
588.74	2645.33
589.09	2635.84
589.44	2625.17
589.79	2615.12
590.14	2605.49
590.49	2595.46
590.84	2585.11
591.19	2575.80
591.54	2565.85
591.89	2554.31
592.25	2543.62
592.60	2532.46
592.95	2520.89
593.30	2509.08
593.65	2497.71
594.00	2487.08
594.35	2477.78
594.70	2467.32
595.05	2457.08
595.40	2446.71
595.75	2435.61
596.10	2425.76
596.45	2415.73
596.80	2406.69
597.15	2397.08
597.50	2386.97
597.85	2377.77
598.19	2367.39
598.54	2356.78
598.89	2347.44
599.24	2339.34
599.59	2330.37
599.94	2322.50
600.29	2314.15
600.64	2305.71
600.99	2295.91
601.34	2286.98
601.69	2276.68
602.04	2266.54
602.39	2256.92
602.74	2248.00
603.08	2240.26
603.43	2232.02
603.78	2222.87
604.13	2213.06
604.48	2203.94
604.83	2196.15
605.18	2188.27
605.53	2179.47
605.87	2170.27
606.22	2161.69
606.57	2152.36
606.92	2142.79
607.27	2132.74
607.62	2123.12
607.96	2114.38
608.31	2106.38
608.66	2096.64
609.01	2086.92
609.36	2077.78
609.70	2067.70
610.05	2057.42
610.40	2047.37
610.75	2037.35
611.10	2027.94
611.44	2017.31
611.79	2006.37
612.14	1994.95
612.49	1982.85
612.83	1972.54
613.18	1961.60
613.53	1950.35
613.88	1938.69
614.22	1928.45
614.57	1917.59
614.92	1907.11
615.27	1896.13
615.61	1884.98
615.96	1874.79
616.31	1865.34
616.65	1855.98
617.00	1846.46
617.35	1836.66
617.70	1825.76
618.04	1814.38
618.39	1803.17
618.74	1793.44
619.08	1783.20
619.43	1773.32
619.78	1763.86
620.12	1754.02
620.47	1744.26
620.82	1733.82
621.16	1723.79
621.51	1713.33
621.85	1703.78
622.20	1693.34
622.55	1682.85
622.89	1672.45
623.24	1662.66
623.59	1651.85
623.93	1641.26
624.28	1631.42
624.62	1621.57
624.97	1612.07
625.32	1603.00
625.66	1593.58
626.01	1583.90
626.35	1574.97
626.70	1565.56
627.04	1556.39
627.39	1547.05
627.73	1538.04
628.08	1529.51
628.43	1520.03
628.77	1510.80
629.12	1501.15
629.46	1492.76
629.81	1484.10
630.15	1475.71
630.50	1466.55
630.84	1457.40
631.19	1448.21
631.53	1439.38
631.88	1430.00
632.22	1420.40
632.57	1411.41
632.91	1402.46
633.26	1393.96
633.60	1384.76
633.95	1376.52
634.29	1367.26
634.64	1358.67
634.98	1349.49
635.32	1340.75
635.67	1333.13
636.01	1325.19
636.36	1316.82
636.70	1308.51
637.05	1300.36
637.39	1292.07
637.73	1284.25
638.08	1277.27
638.42	1270.01
638.77	1262.06
639.11	1254.20
639.45	1246.52
639.80	1238.25
640.14	1229.89
640.49	1221.55
640.83	1213.72
641.17	1205.33
641.52	1197.57
641.86	1189.19
642.20	1181.56
642.55	1172.99
642.89	1164.38
643.23	1156.09
643.58	1148.49
643.92	1139.92
644.26	1131.93
644.61	1124.06
644.95	1115.88
645.29	1107.39
645.64	1098.99
645.98	1090.96
646.32	1083.45
646.66	1075.57
647.01	1068.15
647.35	1060.85
647.69	1052.88
648.04	1045.47
648.38	1037.75
648.72	1030.19
649.06	1022.73
649.41	1014.95
649.75	1007.55
650.09	1000.69
650.43	993.19
650.78	985.36
651.12	978.07
651.46	970.64
651.80	963.44
652.14	956.20
652.49	948.80
652.83	941.53
653.17	933.83
653.51	926.29
653.85	919.31
654.20	911.98
654.54	904.70
654.88	897.96
655.22	890.57
655.56	883.25
655.90	876.16
656.25	869.01
656.59	862.17
656.93	855.43
657.27	848.50
657.61	841.43
657.95	834.95
658.29	828.39
658.64	822.13
658.98	815.35
659.32	808.52
659.66	802.25
660.00	795.93
660.34	789.52
660.68	783.20
661.02	776.77
661.36	770.75
661.70	764.86
662.05	758.77
662.39	753.20
662.73	747.84
663.07	742.38
663.41	737.06
663.75	731.37
664.09	725.74
664.43	719.88
664.77	714.69
665.11	709.11
665.45	703.91
665.79	698.43
666.13	693.14
666.47	688.00
666.81	682.78
667.15	677.45
667.49	672.85
667.83	668.21
668.17	663.45
668.51	658.96
668.85	654.39
669.19	649.95
669.53	645.02
669.87	640.16
670.21	635.35
670.55	630.51
670.89	626.25
671.23	622.16
671.57	617.99
671.91	613.57
672.25	609.20
672.58	604.88
672.92	600.49
673.26	596.46
673.60	592.50
673.94	588.42
674.28	584.31
674.62	580.41
674.96	576.32
675.30	572.60
675.64	568.45
675.97	564.47
676.31	560.57
676.65	556.98
676.99	553.53
677.33	549.75
677.67	546.15
678.01	542.35
678.34	538.64
678.68	535.13
679.02	531.59
679.36	528.33
679.70	524.73
680.04	521.22
680.37	517.58
680.71	514.17
681.05	511.00
681.39	507.79
681.73	504.50
682.06	501.40
682.40	498.11
682.74	495.03
683.08	491.89
683.42	488.69
683.75	485.49
684.09	482.09
684.43	479.09
684.77	475.85
685.10	472.85
685.44	469.63
685.78	466.61
686.12	463.84
686.45	460.81
686.79	458.06
687.13	455.54
687.46	452.92
687.80	450.23
688.14	447.27
688.48	444.58
688.81	441.62
689.15	438.88
689.49	436.12
689.82	433.37
690.16	430.43
690.50	427.67
690.83	425.04
691.17	422.47
691.51	419.84
691.84	417.54
692.18	415.12
692.52	412.84
692.85	410.60
693.19	408.25
693.52	405.97
693.86	403.54
694.20	401.17
694.53	398.82
694.87	396.34
695.21	394.07
695.54	391.77
695.88	389.49
696.21	387.14
696.55	385.03
696.88	382.94
697.22	380.95
697.56	379.10
697.89	377.03
698.23	374.99
698.56	373.00
698.90	371.05
699.23	368.95
699.57	367.00
699.90	364.99
700.24	362.89
700.58	360.96
700.91	359.19
701.25	357.63
701.58	355.92
701.92	354.24
702.25	352.45
702.59	350.70
702.92	349.07
703.26	347.35
703.59	345.71
703.93	344.42
704.26	342.81
704.60	341.23
704.93	339.55
705.26	337.98
705.60	336.50
705.93	335.03
706.27	333.65
706.60	332.17
706.94	330.88
707.27	329.38
707.61	327.88
707.94	326.41
708.27	324.63
708.61	323.05
708.94	321.63
709.28	320.38
709.61	319.10
709.94	317.96
710.28	316.75
710.61	315.47
710.95	313.77
711.28	312.66
711.61	311.35
711.95	310.18
712.28	308.92
712.61	307.70
712.95	306.51
713.28	305.45
713.61	304.25
713.95	303.02
714.28	302.06
714.61	300.95
714.95	299.81
715.28	298.70
715.61	297.64
715.95	296.60
716.28	295.50
716.61	294.41
716.95	293.24
717.28	292.20
717.61	291.34
717.94	290.38
718.28	289.21
718.61	288.27
718.94	287.40
719.27	286.51
719.61	285.67
719.94	284.74
720.27	283.73
720.60	282.88
720.94	281.97
721.27	281.07
721.60	280.38
721.93	279.67
722.27	279.01
722.60	278.38
722.93	277.63
723.26	276.96
723.59	276.16
723.93	275.45
724.26	274.71
724.59	273.86
724.92	273.29
725.25	272.66
725.59	271.94
725.92	271.36
726.25	270.78
726.58	270.10
726.91	269.46
727.24	268.83
727.57	268.21
727.91	267.55
728.24	266.99
728.57	266.31
728.90	265.77
729.23	265.03
729.56	264.53
729.89	263.88
730.22	263.19
730.55	262.62
730.89	262.05
731.22	261.48
731.55	260.86
731.88	260.26
732.21	259.76
732.54	259.15
732.87	258.52
733.20	257.93
733.53	257.47
733.86	256.90
734.19	256.38
734.52	255.85
734.85	255.60
735.18	255.03
735.51	254.59
735.84	254.07
736.17	253.71
736.50	252.98
736.83	253.01
737.16	252.63
737.49	252.22
737.82	251.71
738.15	251.26
738.48	250.86
738.81	250.41
739.14	249.90
739.47	249.50
739.80	249.05
740.13	248.65
740.46	248.06
740.79	247.59
741.12	247.11
741.45	246.72
741.78	246.14
742.11	245.85
742.44	245.38
742.77	245.00
743.10	244.65
743.43	244.33
743.75	243.50
744.08	243.48
744.41	243.10
744.74	242.72
745.07	242.34
745.40	242.06
745.73	241.84
746.06	241.49
746.39	241.16
746.71	240.79
747.04	240.38
747.37	240.05
747.70	239.84
748.03	239.57
748.36	239.26
748.68	238.86
749.01	238.49
749.34	238.23
749.67	237.97
750.00	237.71
750.33	237.61
750.65	237.35
750.98	236.66
751.31	236.35
751.64	236.22
751.97	236.11
752.29	235.73
752.62	235.25
752.95	235.00
753.28	234.75
753.60	234.46
753.93	234.34
754.26	234.07
754.59	233.69
754.91	233.43
755.24	233.07
755.57	232.83
755.90	232.57
756.22	232.24
756.55	231.92
756.88	231.60
757.20	231.17
757.53	230.80
757.86	230.50
758.19	230.32
758.51	230.05
758.84	229.63
759.17	229.48
759.49	229.32
759.82	229.23
760.15	229.02
760.47	228.80
760.80	228.47
761.13	228.26
761.45	228.03
761.78	227.75
762.11	227.70
762.43	227.50
762.76	227.33
763.08	227.25
763.41	227.11
763.74	226.95
764.06	226.77
764.39	226.69
764.71	226.59
765.04	226.35
765.37	226.12
765.69	225.95
766.02	225.71
766.34	225.53
766.67	225.30
767.00	225.25
767.32	225.29
767.65	225.33
767.97	225.22
768.30	225.11
768.62	225.03
768.95	224.75
769.27	224.63
769.60	224.54
769.92	224.24
770.25	224.09
770.57	223.89
770.90	223.74
771.22	223.56
771.55	223.44
771.87	223.34
772.20	223.22
772.52	223.42
772.85	223.72
773.17	223.62
773.50	223.47
773.82	223.22
774.15	222.92
774.47	222.62
774.80	222.54
775.12	222.41
775.45	222.25
775.77	222.19
776.09	222.09
776.42	221.90
776.74	221.94
777.07	221.80
777.39	221.71
777.72	221.65
778.04	221.52
778.36	221.32
778.69	221.26
779.01	221.24
779.33	220.86
779.66	220.44
779.98	220.22
780.31	220.04
780.63	220.11
780.95	220.07
781.28	220.05
781.60	219.91
781.92	219.81
782.25	219.74
782.57	219.64
782.89	219.58
783.22	219.57
783.54	219.42
783.86	219.26
784.19	219.15
784.51	219.04
784.83	218.99
785.16	218.96
785.48	218.85
785.80	218.79
786.12	218.69
786.45	218.57
786.77	218.63
787.09	218.66
787.42	218.49
787.74	218.45
788.06	218.33
788.38	218.33
788.71	218.24
789.03	218.17
789.35	218.17
789.67	218.03
789.99	217.93
790.32	217.83
790.64	217.86
790.96	218.19
791.28	218.03
791.61	217.98
791.93	217.94
792.25	217.88
792.57	218.04
792.89	217.92
793.21	217.87
793.54	217.75
793.86	217.61
794.18	217.53
794.50	217.35
794.82	217.26
795.14	217.24
795.47	217.29
795.79	217.25
796.11	217.15
796.43	217.05
796.75	216.99
797.07	216.97
797.39	216.88
797.71	216.45
798.04	216.46
798.36	216.34
798.68	216.27
799.00	216.21
799.32	215.93
799.64	215.98
799.96	215.96
800.28	216.00
800.60	215.92
800.92	215.90
801.24	215.89
801.56	215.89
801.89	215.72
802.21	215.79
802.53	215.75
802.85	215.82
803.17	215.96
803.49	215.84
803.81	215.74
804.13	215.69
804.45	215.63
804.77	215.65
805.09	215.65
805.41	215.57
805.73	215.49
806.05	215.41
806.37	215.28
806.69	215.23
807.01	215.18
807.33	215.25
807.65	215.17
807.97	215.28
808.28	215.14
808.60	215.20
808.92	215.06
809.24	215.13
809.56	214.95
809.88	214.79
810.20	214.78
810.52	214.89
810.84	214.88
811.16	214.88
811.48	214.77
811.80	214.90
812.12	214.89
812.43	214.94
812.75	214.90
813.07	214.84
813.39	214.76
813.71	214.65
814.03	214.50
814.35	214.50
814.67	214.35
814.98	214.35
815.30	214.28
815.62	214.17
815.94	213.99
816.26	214.08
816.58	214.02
816.89	214.00
817.21	213.84
817.53	213.77
817.85	213.67
818.17	213.65
818.48	213.40
818.80	213.53
819.12	213.43
819.44	213.39
819.76	213.40
820.07	213.44
820.39	213.43
820.71	213.48
821.03	213.48
821.34	213.42
821.66	213.48
821.98	213.50
822.30	213.47
822.61	213.62
822.93	213.51
823.25	213.44
823.57	213.48
823.88	213.61
824.20	213.61
824.52	213.68
824.83	213.69
825.15	213.74
825.47	213.67
825.79	213.68
826.10	213.66
826.42	213.63
826.74	213.67
827.05	213.59
827.37	213.63
827.69	213.54
828.00	213.62
828.32	213.55
828.64	213.45
828.95	213.60
829.27	213.49
829.58	213.43
829.90	213.51
830.22	213.52
830.53	213.33
830.85	213.29
831.17	213.21
831.48	213.25
831.80	213.20
832.11	213.12
832.43	213.10
832.75	213.00
833.06	213.25
833.38	213.06
833.69	213.08
834.01	213.01
834.32	212.95
834.64	212.91
834.96	212.90
835.27	212.88
835.59	212.76
835.90	212.66
836.22	212.70
836.53	212.67
836.85	212.55
837.16	212.92
837.48	212.92
837.79	212.98
838.11	212.96
838.42	212.95
838.74	212.95
839.05	212.89
839.37	212.89
839.68	212.51
840.00	212.56
840.31	212.63
840.63	212.64
840.94	212.60
841.26	212.55
841.57	212.55
841.88	212.58
842.20	212.53
842.51	212.48
842.83	212.41
843.14	212.71
843.46	212.75
843.77	212.55
844.08	212.54
844.40	212.51
844.71	212.44
845.03	212.40
845.34	212.35
845.65	212.38
845.97	212.43
846.28	212.50
846.60	212.50
846.91	212.42
847.22	212.37
847.54	212.53
847.85	212.53
848.16	212.44
848.48	212.37
848.79	212.48
849.10	212.54
849.42	212.57
849.73	212.22
850.04	212.17
850.36	212.07
850.67	212.13
850.98	212.09
851.30	212.12
851.61	212.20
851.92	212.22
852.23	212.34
852.55	212.36
852.86	212.36
853.17	212.40
853.49	212.51
853.80	212.60
854.11	212.54
854.42	212.60
854.74	212.58
855.05	212.61
855.36	212.49
855.67	212.52
855.99	212.52
856.30	213.02
856.61	213.03
856.92	213.03
857.23	212.91
857.55	212.86
857.86	212.82
858.17	212.82
858.48	212.82
858.79	212.76
859.11	212.79
859.42	212.76
859.73	212.68
860.04	212.62
860.35	212.46
860.66	212.32
860.98	212.32
861.29	212.42
861.60	212.40
861.91	212.45
862.22	212.37
862.53	212.33
862.84	211.85
863.16	211.98
863.47	211.95
863.78	212.03
864.09	212.12
864.40	212.16
864.71	212.10
865.02	212.06
865.33	211.95
865.64	211.85
865.95	211.88
866.27	212.14
866.58	212.08
866.89	212.11
867.20	212.18
867.51	212.15
867.82	212.05
868.13	212.15
868.44	212.02
868.75	212.12
869.06	212.08
869.37	212.14
869.68	212.01
869.99	212.01
870.30	212.00
870.61	211.97
870.92	211.90
871.23	211.92
871.54	212.00
871.85	212.11
872.16	212.17
872.47	212.22
872.78	211.99
873.09	212.03
873.40	212.00
873.71	212.03
874.02	211.98
874.33	211.98
874.64	211.89
874.95	211.96
875.26	211.81
875.56	211.86
875.87	211.82
876.18	211.78
876.49	212.20
876.80	212.16
877.11	212.13
877.42	212.14
877.73	212.15
878.04	212.05
878.35	212.06
878.66	212.13
878.96	212.08
879.27	212.10
879.58	212.13
879.89	212.21
880.20	212.30
880.51	212.31
880.82	212.29
881.12	212.32
881.43	212.27
881.74	212.29
882.05	212.31
882.36	212.37
882.67	212.44
882.97	212.04
883.28	212.05
883.59	212.07
883.90	212.11
884.21	212.16
884.51	212.15
884.82	212.13
885.13	212.08
885.44	212.04
885.74	212.04
886.05	212.03
886.36	212.03
886.67	211.94
886.98	212.07
887.28	212.13
887.59	212.18
887.90	212.15
888.20	212.19
888.51	212.25
888.82	212.16
889.13	212.17
889.43	212.47
889.74	212.49
890.05	212.41
890.35	212.39
890.66	212.29
890.97	212.35
891.28	212.29
891.58	212.26
891.89	212.32
892.20	212.34
892.50	212.26
892.81	212.17
893.12	212.12
893.42	211.99
893.73	211.96
894.04	211.94
894.34	212.12
894.65	212.07
894.95	211.97
895.26	212.00
895.57	212.15
895.87	211.74
896.18	211.79
896.48	211.81
896.79	211.89
897.10	212.00
897.40	211.93
897.71	211.95
898.01	211.95
898.32	211.90
898.63	211.83
898.93	211.83
899.24	211.87
899.54	211.82
899.85	211.75
900.15	211.69
900.46	211.67
900.76	211.54
901.07	211.49
901.38	211.46
901.68	211.55
901.99	211.31
902.29	211.36
902.60	211.33
902.90	211.26
903.21	211.13
903.51	211.07
903.82	211.11
904.12	211.11
904.43	211.09
904.73	211.07
905.03	211.10
905.34	211.49
905.64	211.47
905.95	211.48
906.25	211.57
906.56	211.60
906.86	211.65
907.17	211.62
907.47	211.70
907.77	211.71
908.08	211.57
908.38	211.61
908.69	211.60
908.99	211.62
909.30	211.72
909.60	211.75
909.90	211.78
910.21	211.75
910.51	211.61
910.81	211.64
911.12	211.66
911.42	211.66
911.73	211.28
912.03	211.25
912.33	211.32
912.64	211.35
912.94	211.36
913.24	211.27
913.55	211.35
913.85	211.34
914.15	211.39
914.46	211.38
914.76	211.30
915.06	211.33
915.37	211.24
915.67	211.20
915.97	211.21
916.27	211.16
916.58	211.15
916.88	211.23
917.18	211.19
917.49	211.37
917.79	211.37
918.09	211.46
918.39	211.55
918.70	211.54
919.00	211.45
919.30	211.53
919.60	211.55
919.91	211.41
920.21	211.35
920.51	211.26
920.81	211.28
921.12	211.36
921.42	211.30
921.72	211.33
922.02	211.34
922.32	211.30
922.63	211.27
922.93	211.42
923.23	211.47
923.53	211.45
923.83	211.30
924.13	211.31
924.44	211.25
924.74	211.29
925.04	211.35
925.34	211.40
925.64	211.31
925.94	211.29
926.24	211.53
926.55	211.55
926.85	211.60
927.15	211.61
927.45	211.63
927.75	211.67
928.05	211.73
928.35	211.72
928.65	211.78
928.95	211.85
929.26	211.74
929.56	211.78
929.86	211.87
930.16	211.80
930.46	211.82
930.76	211.85
931.06	211.73
931.36	211.68
931.66	211.75
931.96	211.80
932.26	211.83
932.56	211.72
932.86	211.75
933.16	211.80
933.46	211.80
933.76	211.76
934.06	211.86
934.36	211.95
934.66	211.95
934.96	211.95
935.26	211.95
935.56	212.01
935.86	211.87
936.16	211.74
936.46	211.79
936.76	211.76
937.06	211.75
937.36	211.80
937.66	211.82
937.96	211.76
938.26	211.64
938.56	211.58
938.86	211.55
939.16	211.74
939.46	211.74
939.76	211.76
940.06	211.86
940.35	211.81
940.65	211.62
940.95	211.62
941.25	211.51
941.55	211.50
941.85	211.47
942.15	211.60
942.45	211.76
942.75	211.61
943.04	211.62
943.34	211.64
943.64	211.58
943.94	211.51
944.24	211.52
944.54	211.62
944.84	211.64
945.13	211.60
945.43	211.43
945.73	211.39
946.03	211.32
946.33	211.15
946.62	211.10
946.92	211.12
947.22	211.19
947.52	211.20
947.82	211.26
948.11	211.21
948.41	211.09
948.71	210.93
949.01	211.02
949.31	211.00
949.60	210.97
949.90	210.96
950.20	210.94
950.50	210.90
950.79	210.81
951.09	210.80
951.39	210.74
951.69	210.65
951.98	210.74
952.28	210.77
952.58	210.88
952.87	210.85
953.17	210.94
953.47	210.85
953.76	210.88
954.06	210.73
954.36	210.72
954.66	210.71
954.95	210.85
955.25	210.83
955.55	210.82
955.84	210.75
956.14	210.90
956.44	210.95
956.73	210.93
957.03	210.91
957.32	210.94
957.62	210.93
957.92	211.03
958.21	210.96
958.51	211.34
958.81	211.38
959.10	211.45
959.40	211.47
959.69	211.46
959.99	211.59
960.29	211.65
960.58	211.55
960.88	211.72
961.17	211.68
961.47	211.77
961.76	211.78
962.06	211.85
962.36	211.80
962.65	211.78
962.95	211.80
963.24	211.82
963.54	211.89
963.83	211.95
964.13	211.97
964.42	211.93
964.72	211.60
965.01	211.51
965.31	211.47
965.60	211.40
965.90	211.64
966.19	211.48
966.49	211.49
966.78	211.56
967.08	211.57
967.37	211.60
967.67	211.57
967.96	211.55
968.26	211.53
968.55	211.58
968.85	211.58
969.14	211.60
969.43	211.61
969.73	211.55
970.02	211.58
970.32	211.58
970.61	211.56
970.91	211.52
971.20	211.48
971.49	211.50
971.79	211.57
972.08	211.33
972.38	211.40
972.67	211.42
972.96	211.43
973.26	211.25
973.55	211.35
973.85	211.33
974.14	211.35
974.43	211.43
974.73	211.33
975.02	211.32
975.31	211.31
975.61	211.29
975.90	211.31
976.19	211.24
976.49	211.27
976.78	211.24
977.07	211.27
977.37	211.36
977.66	211.34
977.95	211.24
978.24	211.26
978.54	211.31
978.83	211.28
979.12	211.25
979.42	211.33
979.71	211.23
980.00	211.20
980.29	211.20
980.59	211.11
980.88	211.11
981.17	211.10
981.46	211.01
981.76	211.08
982.05	211.10
982.34	211.14
982.63	211.13
982.93	211.19
983.22	211.24
983.51	211.22
983.80	211.29
984.09	211.34
984.39	211.35
984.68	211.23
984.97	211.30
985.26	211.27
985.55	211.27
985.85	211.25
986.14	211.29
986.43	211.35
986.72	211.27
987.01	211.21
987.30	211.20
987.59	211.22
987.89	211.21
988.18	211.16
988.47	211.14
988.76	211.07
989.05	210.99
989.34	211.04
989.63	211.16
989.92	211.12
990.22	211.07
990.51	211.10
990.80	211.11
991.09	211.03
991.38	211.10
991.67	211.05
991.96	211.01
992.25	211.07
992.54	210.95
992.83	211.04
993.12	211.06
993.41	211.10
993.70	211.27
993.99	211.26
994.28	211.28
994.58	211.36
994.87	211.33
995.16	211.31
995.45	211.22
995.74	211.03
996.03	211.05
996.32	211.14
996.61	211.22
996.90	211.19
997.19	211.25
997.48	211.28
997.77	211.26
998.06	211.32
998.34	211.23
998.63	211.24
998.92	211.21
999.21	211.25
999.50	211.30
999.79	211.19
1000.08	211.28
1000.37	211.27
1000.66	211.19
1000.95	211.30
1001.24	211.37
1001.53	211.44
1001.82	211.45
1002.11	211.40
1002.40	211.41
1002.68	211.45
1002.97	211.69
1003.26	211.60
1003.55	211.50
1003.84	211.54
1004.13	211.66
1004.42	211.65
1004.71	211.67
1004.99	211.69
1005.28	211.79
1005.57	211.79
1005.86	211.73
1006.15	211.61
1006.44	211.60
1006.72	211.65
1007.01	211.59
1007.30	211.62
1007.59	211.57
1007.88	211.57
1008.17	211.61
1008.45	211.57
1008.74	211.39
1009.03	211.23
1009.32	211.22
1009.60	211.34
1009.89	211.31
1010.18	211.06
1010.47	211.03
1010.76	211.00
1011.04	210.93
1011.33	210.87
1011.62	210.80
1011.91	210.83
1012.19	210.84
1012.48	210.84
1012.77	210.80
1013.05	210.95
1013.34	210.95
1013.63	210.88
1013.92	210.93
1014.20	210.87
1014.49	210.86
1014.78	210.95
1015.06	210.90
1015.35	210.95
1015.64	210.91
1015.92	210.95
1016.21	211.06
1016.50	211.10
1016.78	211.17
1017.07	211.21
1017.36	211.20
1017.64	211.21
1017.93	211.28
1018.22	211.29
1018.50	211.35
1018.79	211.34
1019.08	211.15
1019.36	211.10
1019.65	211.13
1019.93	211.15
1020.22	211.22
1020.51	211.32
1020.79	211.29
1021.08	211.00
1021.36	211.80
1021.65	210.75
1021.94	210.20
1022.22	211.10
1022.51	210.35
1022.79	211.60
1023.08	212.35
1023.36	213.95
1023.65	211.20
>>>>>End Processed Spectral Data<<<<<
