SpectraSuite Data File
++++++++++++++++++++++++++++++++++++
Date: Mon Feb 25 17:07:26 EST 2013
User: group
Dark Spectrum Present: No
Reference Spectrum Present: No
Number of Sampled Component Spectra: 1
Spectrometers: USB2E7196
Integration Time (usec): 104000 (USB2E7196)
Spectra Averaged: 20 (USB2E7196)
Boxcar Smoothing: 10 (USB2E7196)
Correct for Electrical Dark: No (USB2E7196)
Strobe/Lamp Enabled: No (USB2E7196)
Correct for Detector Non-linearity: No (USB2E7196)
Correct for Stray Light: No (USB2E7196)
Number of Pixels in Processed Spectrum: 2048
>>>>>Begin Processed Spectral Data<<<<<
339.09	0.00
339.48	197.90
339.86	198.95
340.24	202.60
340.63	202.10
341.01	209.15
341.39	206.40
341.78	207.55
342.16	209.90
342.54	208.50
342.93	198.51
343.31	208.54
343.69	209.03
344.07	209.57
344.46	210.00
344.84	210.43
345.22	210.44
345.60	210.65
345.99	210.81
346.37	210.85
346.75	210.90
347.13	210.98
347.52	211.04
347.90	211.18
348.28	211.13
348.66	211.32
349.05	211.10
349.43	211.14
349.81	211.10
350.19	211.05
350.57	211.08
350.96	211.06
351.34	211.11
351.72	211.27
352.10	211.27
352.48	211.25
352.87	211.23
353.25	211.26
353.63	211.30
354.01	211.31
354.39	211.38
354.77	211.48
355.15	211.61
355.54	211.62
355.92	211.49
356.30	211.48
356.68	211.71
357.06	211.80
357.44	211.83
357.82	211.87
358.20	212.00
358.58	212.00
358.97	212.12
359.35	212.20
359.73	212.29
360.11	212.36
360.49	212.36
360.87	212.39
361.25	212.54
361.63	212.65
362.01	212.70
362.39	212.65
362.77	212.69
363.15	212.70
363.53	212.69
363.91	212.80
364.29	212.85
364.67	212.44
365.05	212.43
365.43	212.37
365.81	212.45
366.19	212.60
366.57	212.74
366.95	212.66
367.33	212.57
367.71	212.59
368.09	212.69
368.47	212.74
368.85	212.70
369.23	212.75
369.61	212.57
369.99	212.67
370.37	212.77
370.75	212.85
371.13	212.71
371.51	212.65
371.89	212.59
372.27	212.59
372.65	212.70
373.03	212.65
373.41	212.62
373.78	212.56
374.16	212.31
374.54	212.14
374.92	212.14
375.30	212.13
375.68	211.99
376.06	211.95
376.44	211.86
376.82	211.96
377.19	211.94
377.57	211.91
377.95	211.75
378.33	211.70
378.71	211.53
379.09	211.60
379.47	211.68
379.84	211.61
380.22	211.44
380.60	211.30
380.98	211.30
381.36	211.26
381.73	211.10
382.11	211.11
382.49	211.02
382.87	210.94
383.25	210.88
383.62	211.25
384.00	211.12
384.38	211.08
384.76	211.00
385.13	211.06
385.51	211.04
385.89	210.96
386.27	210.82
386.64	210.80
387.02	210.69
387.40	210.53
387.78	210.52
388.15	210.55
388.53	210.46
388.91	210.39
389.29	210.36
389.66	210.43
390.04	210.42
390.42	210.51
390.79	210.47
391.17	210.47
391.55	210.08
391.92	210.04
392.30	210.11
392.68	210.10
393.05	210.05
393.43	210.12
393.81	210.09
394.18	210.11
394.56	210.12
394.94	210.24
395.31	210.27
395.69	210.40
396.06	210.45
396.44	210.53
396.82	210.53
397.19	210.73
397.57	210.69
397.95	210.74
398.32	210.69
398.70	210.79
399.07	210.84
399.45	210.76
399.82	210.85
400.20	210.74
400.58	210.72
400.95	210.57
401.33	210.60
401.70	210.88
402.08	210.93
402.45	210.96
402.83	211.02
403.20	211.07
403.58	211.00
403.95	211.12
404.33	211.21
404.71	211.28
405.08	211.47
405.46	211.60
405.83	211.62
406.21	211.71
406.58	211.84
406.96	211.91
407.33	212.14
407.70	212.30
408.08	212.77
408.45	212.99
408.83	213.21
409.20	213.38
409.58	213.48
409.95	213.72
410.33	213.98
410.70	214.04
411.08	214.34
411.45	214.69
411.82	214.90
412.20	215.24
412.57	215.79
412.95	215.88
413.32	216.26
413.69	216.71
414.07	217.15
414.44	217.68
414.82	218.22
415.19	218.70
415.56	219.23
415.94	219.62
416.31	220.31
416.68	221.02
417.06	221.87
417.43	222.72
417.81	223.52
418.18	224.35
418.55	225.31
418.93	226.35
419.30	227.36
419.67	228.49
420.04	229.66
420.42	230.68
420.79	232.25
421.16	233.60
421.54	235.23
421.91	236.66
422.28	238.08
422.66	239.64
423.03	241.51
423.40	243.16
423.77	244.93
424.15	246.69
424.52	248.54
424.89	250.55
425.26	252.35
425.64	254.18
426.01	256.24
426.38	258.46
426.75	260.55
427.13	262.83
427.50	265.16
427.87	267.53
428.24	270.02
428.61	272.15
428.99	274.87
429.36	277.45
429.73	280.31
430.10	283.11
430.47	286.07
430.85	288.83
431.22	291.94
431.59	295.55
431.96	298.74
432.33	302.20
432.70	305.50
433.08	309.52
433.45	313.40
433.82	317.23
434.19	321.40
434.56	325.67
434.93	329.62
435.30	333.48
435.68	337.92
436.05	342.29
436.42	346.63
436.79	350.62
437.16	354.97
437.53	359.31
437.90	363.89
438.27	368.27
438.64	372.86
439.01	377.22
439.38	380.72
439.75	384.55
440.13	388.75
440.50	392.77
440.87	396.02
441.24	399.38
441.61	403.17
441.98	405.97
442.35	409.11
442.72	412.37
443.09	415.77
443.46	417.86
443.83	419.23
444.20	420.48
444.57	422.00
444.94	422.76
445.31	423.85
445.68	424.99
446.05	425.44
446.42	425.15
446.79	424.77
447.16	424.34
447.53	424.11
447.90	422.71
448.27	421.27
448.64	419.12
449.01	417.68
449.37	414.89
449.74	412.19
450.11	409.29
450.48	405.73
450.85	401.92
451.22	398.57
451.59	395.64
451.96	392.84
452.33	389.11
452.70	385.71
453.07	381.51
453.43	376.89
453.80	372.84
454.17	368.89
454.54	365.13
454.91	361.09
455.28	357.04
455.65	353.30
456.02	350.10
456.38	346.99
456.75	343.03
457.12	339.70
457.49	336.52
457.86	332.95
458.23	330.34
458.59	327.45
458.96	324.58
459.33	321.92
459.70	319.25
460.07	317.19
460.43	314.80
460.80	312.52
461.17	310.71
461.54	308.54
461.91	306.49
462.27	304.54
462.64	302.85
463.01	300.95
463.38	299.25
463.74	296.88
464.11	295.22
464.48	293.96
464.85	292.39
465.21	291.30
465.58	290.16
465.95	288.50
466.32	287.20
466.68	285.94
467.05	284.67
467.42	283.39
467.78	282.09
468.15	280.87
468.52	280.01
468.88	278.66
469.25	277.58
469.62	276.83
469.98	275.88
470.35	275.11
470.72	274.34
471.08	273.39
471.45	272.65
471.82	272.02
472.18	271.09
472.55	270.50
472.92	269.66
473.28	269.01
473.65	268.41
474.02	267.81
474.38	267.35
474.75	266.97
475.11	266.49
475.48	266.03
475.85	265.64
476.21	265.24
476.58	264.91
476.94	264.71
477.31	264.29
477.67	263.93
478.04	263.64
478.41	263.40
478.77	263.51
479.14	263.36
479.50	263.17
479.87	263.10
480.23	263.00
480.60	262.84
480.96	262.73
481.33	262.86
481.69	262.90
482.06	262.86
482.42	262.84
482.79	262.89
483.15	263.05
483.52	263.25
483.88	263.35
484.25	263.49
484.61	263.65
484.98	263.94
485.34	264.32
485.71	264.62
486.07	264.96
486.44	265.03
486.80	265.40
487.17	265.75
487.53	266.30
487.90	266.88
488.26	267.63
488.62	268.28
488.99	268.85
489.35	269.50
489.72	270.20
490.08	270.83
490.44	271.56
490.81	272.27
491.17	272.91
491.54	273.76
491.90	274.71
492.26	275.65
492.63	276.53
492.99	277.32
493.36	278.37
493.72	279.51
494.08	280.59
494.45	281.80
494.81	283.07
495.17	284.16
495.54	285.39
495.90	286.58
496.26	287.85
496.63	289.20
496.99	290.54
497.35	291.93
497.72	293.39
498.08	294.77
498.44	296.33
498.80	298.02
499.17	299.60
499.53	301.10
499.89	302.84
500.26	304.61
500.62	306.38
500.98	308.12
501.34	309.80
501.71	311.55
502.07	313.38
502.43	315.15
502.79	316.90
503.16	318.71
503.52	320.49
503.88	322.32
504.24	324.25
504.60	326.24
504.97	328.32
505.33	330.29
505.69	332.61
506.05	334.63
506.41	336.75
506.78	338.77
507.14	340.94
507.50	343.00
507.86	345.14
508.22	347.35
508.59	349.52
508.95	351.80
509.31	354.23
509.67	356.43
510.03	358.77
510.39	361.17
510.75	363.59
511.12	366.02
511.48	368.43
511.84	370.74
512.20	373.18
512.56	375.64
512.92	378.21
513.28	380.69
513.64	383.18
514.00	385.66
514.37	388.28
514.73	390.85
515.09	393.39
515.45	395.90
515.81	398.44
516.17	400.95
516.53	403.59
516.89	406.07
517.25	408.76
517.61	411.50
517.97	414.15
518.33	416.82
518.69	419.68
519.05	422.52
519.41	425.42
519.77	428.59
520.13	431.46
520.49	434.31
520.85	437.11
521.21	440.28
521.57	443.24
521.93	446.15
522.29	449.21
522.65	452.26
523.01	455.33
523.37	458.41
523.73	461.54
524.09	464.65
524.45	467.84
524.81	471.00
525.17	474.31
525.53	477.84
525.89	481.12
526.25	484.40
526.61	487.55
526.97	490.88
527.33	494.02
527.68	497.63
528.04	501.03
528.40	504.35
528.76	507.80
529.12	511.41
529.48	515.16
529.84	518.66
530.20	522.28
530.56	526.03
530.91	529.80
531.27	533.60
531.63	537.30
531.99	541.11
532.35	544.78
532.71	548.35
533.07	552.15
533.42	556.35
533.78	560.16
534.14	564.13
534.50	567.81
534.86	571.51
535.21	574.82
535.57	578.68
535.93	582.40
536.29	586.00
536.65	589.75
537.00	593.30
537.36	596.79
537.72	600.37
538.08	604.04
538.44	607.62
538.79	611.36
539.15	614.92
539.51	618.43
539.87	622.15
540.22	625.80
540.58	629.18
540.94	632.35
541.29	635.88
541.65	639.09
542.01	642.56
542.37	645.96
542.72	649.54
543.08	652.82
543.44	656.44
543.79	659.65
544.15	662.83
544.51	666.28
544.87	669.82
545.22	673.17
545.58	676.18
545.94	679.15
546.29	681.92
546.65	684.89
547.01	687.74
547.36	690.75
547.72	693.56
548.07	696.38
548.43	699.00
548.79	701.42
549.14	704.18
549.50	706.78
549.86	709.28
550.21	711.70
550.57	714.18
550.92	716.45
551.28	718.77
551.64	720.93
551.99	723.20
552.35	725.36
552.70	727.30
553.06	729.63
553.41	731.73
553.77	734.07
554.13	736.13
554.48	738.13
554.84	739.92
555.19	741.86
555.55	743.85
555.90	745.65
556.26	747.37
556.61	749.00
556.97	750.38
557.32	751.97
557.68	753.33
558.03	754.99
558.39	756.34
558.74	758.02
559.10	759.61
559.45	760.92
559.81	762.30
560.16	763.50
560.52	764.82
560.87	766.21
561.23	767.22
561.58	768.76
561.94	770.17
562.29	771.14
562.64	772.15
563.00	773.05
563.35	774.33
563.71	775.70
564.06	776.74
564.42	777.94
564.77	779.07
565.12	780.39
565.48	781.48
565.83	782.62
566.19	783.48
566.54	784.16
566.89	784.81
567.25	785.80
567.60	786.92
567.96	787.67
568.31	788.41
568.66	789.04
569.02	788.99
569.37	789.00
569.72	789.44
570.08	789.78
570.43	789.89
570.78	789.77
571.14	789.53
571.49	789.62
571.84	789.80
572.20	789.53
572.55	789.36
572.90	788.73
573.26	788.17
573.61	787.56
573.96	787.02
574.31	786.43
574.67	785.56
575.02	784.49
575.37	783.42
575.72	782.25
576.08	781.49
576.43	780.66
576.78	780.03
577.13	779.30
577.49	778.45
577.84	777.69
578.19	777.04
578.54	776.44
578.90	775.90
579.25	774.93
579.60	773.98
579.95	772.76
580.30	772.11
580.66	771.47
581.01	770.62
581.36	769.68
581.71	768.80
582.06	768.04
582.42	767.36
582.77	766.43
583.12	765.68
583.47	764.68
583.82	763.88
584.17	763.02
584.53	762.12
584.88	761.16
585.23	760.24
585.58	759.00
585.93	757.86
586.28	756.73
586.63	755.73
586.98	754.95
587.34	754.44
587.69	753.25
588.04	752.15
588.39	751.17
588.74	750.13
589.09	749.18
589.44	747.74
589.79	746.65
590.14	745.67
590.49	744.74
590.84	743.43
591.19	742.43
591.54	741.07
591.89	739.49
592.25	738.34
592.60	736.89
592.95	735.60
593.30	733.97
593.65	732.23
594.00	730.62
594.35	730.09
594.70	728.21
595.05	726.81
595.40	725.24
595.75	723.62
596.10	722.18
596.45	720.89
596.80	719.75
597.15	718.44
597.50	716.93
597.85	715.41
598.19	714.03
598.54	712.65
598.89	711.26
599.24	710.36
599.59	708.97
599.94	707.79
600.29	706.64
600.64	705.50
600.99	704.12
601.34	703.06
601.69	700.67
602.04	699.32
602.39	697.89
602.74	696.62
603.08	695.64
603.43	694.72
603.78	693.26
604.13	691.95
604.48	690.55
604.83	689.44
605.18	688.36
605.53	687.16
605.87	685.61
606.22	684.30
606.57	682.67
606.92	681.16
607.27	679.66
607.62	678.15
607.96	676.85
608.31	675.76
608.66	674.05
609.01	672.38
609.36	670.81
609.70	669.08
610.05	667.38
610.40	665.69
610.75	663.76
611.10	662.22
611.44	660.11
611.79	658.20
612.14	656.09
612.49	653.82
612.83	651.95
613.18	650.04
613.53	648.15
613.88	646.09
614.22	644.05
614.57	641.94
614.92	640.00
615.27	638.01
615.61	635.82
615.96	633.86
616.31	632.05
616.65	630.39
617.00	628.46
617.35	626.55
617.70	624.25
618.04	621.99
618.39	619.55
618.74	617.70
619.08	615.67
619.43	613.66
619.78	611.59
620.12	609.34
620.47	607.21
620.82	605.04
621.16	602.83
621.51	600.94
621.85	598.96
622.20	596.79
622.55	594.62
622.89	592.48
623.24	590.47
623.59	588.35
623.93	585.98
624.28	583.92
624.62	581.97
624.97	580.15
625.32	578.10
625.66	576.29
626.01	574.23
626.35	572.23
626.70	570.23
627.04	568.66
627.39	566.82
627.73	564.93
628.08	563.07
628.43	560.98
628.77	558.75
629.12	556.79
629.46	554.81
629.81	552.74
630.15	550.59
630.50	548.40
630.84	546.27
631.19	544.36
631.53	542.38
631.88	539.96
632.22	537.75
632.57	535.97
632.91	533.75
633.26	531.69
633.60	529.65
633.95	527.69
634.29	525.33
634.64	523.44
634.98	521.40
635.32	519.49
635.67	517.80
636.01	516.13
636.36	514.04
636.70	512.33
637.05	510.52
637.39	508.83
637.73	507.28
638.08	505.68
638.42	504.13
638.77	502.40
639.11	500.70
639.45	498.79
639.80	496.75
640.14	494.85
640.49	493.03
640.83	491.15
641.17	489.29
641.52	487.53
641.86	485.50
642.20	483.73
642.55	481.61
642.89	479.63
643.23	477.46
643.58	475.88
643.92	473.74
644.26	471.73
644.61	469.87
644.95	467.84
645.29	465.81
645.64	463.74
645.98	461.66
646.32	459.90
646.66	457.91
647.01	456.10
647.35	454.37
647.69	452.45
648.04	450.66
648.38	448.91
648.72	446.98
649.06	445.13
649.41	443.15
649.75	441.37
650.09	439.69
650.43	438.02
650.78	436.00
651.12	434.16
651.46	432.37
651.80	430.56
652.14	428.73
652.49	426.99
652.83	425.10
653.17	423.29
653.51	421.37
653.85	419.86
654.20	418.16
654.54	416.36
654.88	414.59
655.22	412.81
655.56	410.94
655.90	409.14
656.25	407.36
656.59	405.57
656.93	403.86
657.27	402.21
657.61	400.28
657.95	398.48
658.29	396.72
658.64	395.13
658.98	393.32
659.32	391.62
659.66	389.81
660.00	388.05
660.34	386.36
660.68	384.70
661.02	382.81
661.36	381.13
661.70	379.50
662.05	377.94
662.39	376.53
662.73	375.15
663.07	373.92
663.41	372.49
663.75	370.92
664.09	369.42
664.43	367.77
664.77	366.48
665.11	365.05
665.45	363.69
665.79	362.35
666.13	361.02
666.47	359.62
666.81	358.20
667.15	356.76
667.49	355.60
667.83	354.29
668.17	353.02
668.51	351.73
668.85	350.61
669.19	349.46
669.53	347.98
669.87	346.59
670.21	345.17
670.55	343.93
670.89	343.03
671.23	341.99
671.57	340.79
671.91	339.59
672.25	338.42
672.58	337.40
672.92	336.01
673.26	335.00
673.60	333.95
673.94	332.90
674.28	331.86
674.62	330.76
674.96	329.78
675.30	328.78
675.64	327.65
675.97	326.47
676.31	325.39
676.65	324.38
676.99	323.47
677.33	322.34
677.67	321.30
678.01	320.04
678.34	319.05
678.68	318.15
679.02	317.06
679.36	316.14
679.70	315.02
680.04	314.16
680.37	313.02
680.71	311.98
681.05	311.08
681.39	310.23
681.73	309.22
682.06	308.26
682.40	307.32
682.74	306.48
683.08	305.71
683.42	304.71
683.75	303.84
684.09	302.80
684.43	301.95
684.77	300.99
685.10	300.19
685.44	299.15
685.78	298.16
686.12	297.35
686.45	296.46
686.79	295.67
687.13	294.92
687.46	294.11
687.80	293.32
688.14	292.51
688.48	291.72
688.81	291.05
689.15	290.28
689.49	289.53
689.82	288.65
690.16	287.71
690.50	286.79
690.83	285.92
691.17	285.07
691.51	284.24
691.84	283.50
692.18	282.76
692.52	282.09
692.85	281.44
693.19	280.83
693.52	280.08
693.86	279.27
694.20	278.52
694.53	277.91
694.87	277.19
695.21	276.34
695.54	275.60
695.88	274.68
696.21	273.87
696.55	273.16
696.88	272.49
697.22	271.80
697.56	271.35
697.89	270.73
698.23	270.14
698.56	269.53
698.90	269.01
699.23	268.33
699.57	267.65
699.90	266.92
700.24	266.25
700.58	265.64
700.91	265.11
701.25	264.68
701.58	264.01
701.92	263.41
702.25	262.87
702.59	262.29
702.92	261.79
703.26	261.28
703.59	260.72
703.93	260.52
704.26	259.91
704.60	259.32
704.93	258.82
705.26	258.32
705.60	257.81
705.93	257.11
706.27	256.78
706.60	256.45
706.94	256.17
707.27	255.58
707.61	255.16
707.94	254.66
708.27	253.92
708.61	253.45
708.94	253.04
709.28	252.65
709.61	252.19
709.94	251.79
710.28	251.38
710.61	250.98
710.95	250.28
711.28	250.19
711.61	249.79
711.95	249.51
712.28	249.07
712.61	248.74
712.95	248.59
713.28	248.26
713.61	247.75
713.95	247.31
714.28	247.00
714.61	246.59
714.95	246.25
715.28	245.90
715.61	245.53
715.95	245.25
716.28	244.86
716.61	244.55
716.95	244.21
717.28	243.85
717.61	243.50
717.94	243.11
718.28	242.53
718.61	242.21
718.94	241.75
719.27	241.40
719.61	241.08
719.94	240.73
720.27	240.22
720.60	239.86
720.94	239.50
721.27	239.17
721.60	238.96
721.93	238.66
722.27	238.59
722.60	238.38
722.93	237.97
723.26	237.73
723.59	237.45
723.93	237.15
724.26	236.96
724.59	236.68
724.92	236.47
725.25	236.36
725.59	236.08
725.92	235.87
726.25	235.67
726.58	235.45
726.91	235.14
727.24	234.96
727.57	234.77
727.91	234.46
728.24	234.31
728.57	234.02
728.90	233.82
729.23	233.42
729.56	233.33
729.89	233.10
730.22	232.89
730.55	232.61
730.89	232.48
731.22	232.20
731.55	232.01
731.88	231.83
732.21	231.48
732.54	231.23
732.87	230.96
733.20	230.79
733.53	230.58
733.86	230.48
734.19	230.24
734.52	230.05
734.85	230.18
735.18	229.87
735.51	229.80
735.84	229.59
736.17	229.47
736.50	229.10
736.83	229.38
737.16	229.19
737.49	229.04
737.82	228.78
738.15	228.67
738.48	228.48
738.81	228.30
739.14	228.07
739.47	227.90
739.80	227.78
740.13	227.65
740.46	227.35
740.79	227.10
741.12	226.96
741.45	226.79
741.78	226.36
742.11	226.37
742.44	226.11
742.77	225.95
743.10	225.77
743.43	225.58
743.75	225.04
744.08	225.31
744.41	225.14
744.74	224.97
745.07	224.81
745.40	224.74
745.73	224.74
746.06	224.69
746.39	224.65
746.71	224.55
747.04	224.32
747.37	224.22
747.70	224.16
748.03	223.99
748.36	223.91
748.68	223.82
749.01	223.57
749.34	223.44
749.67	223.37
750.00	223.34
750.33	223.53
750.65	223.48
750.98	222.96
751.31	222.82
751.64	222.70
751.97	222.70
752.29	222.58
752.62	222.27
752.95	222.10
753.28	221.94
753.60	221.76
753.93	221.72
754.26	221.66
754.59	221.47
754.91	221.37
755.24	221.28
755.57	221.21
755.90	221.18
756.22	221.10
756.55	221.00
756.88	220.82
757.20	220.54
757.53	220.26
757.86	220.20
758.19	220.19
758.51	220.14
758.84	219.90
759.17	219.70
759.49	219.65
759.82	219.80
760.15	219.73
760.47	219.61
760.80	219.46
761.13	219.42
761.45	219.31
761.78	219.18
762.11	219.09
762.43	218.96
762.76	218.83
763.08	218.80
763.41	218.73
763.74	218.66
764.06	218.46
764.39	218.47
764.71	218.38
765.04	218.28
765.37	218.11
765.69	218.08
766.02	218.07
766.34	218.01
766.67	217.72
767.00	217.82
767.32	217.98
767.65	218.15
767.97	217.99
768.30	217.96
768.62	217.95
768.95	217.80
769.27	217.69
769.60	217.63
769.92	217.45
770.25	217.28
770.57	217.18
770.90	217.17
771.22	217.04
771.55	217.08
771.87	216.98
772.20	216.99
772.52	217.14
772.85	217.44
773.17	217.34
773.50	217.35
773.82	217.06
774.15	216.85
774.47	216.55
774.80	216.55
775.12	216.45
775.45	216.38
775.77	216.33
776.09	216.31
776.42	216.26
776.74	216.33
777.07	216.25
777.39	216.15
777.72	216.01
778.04	216.06
778.36	215.95
778.69	215.88
779.01	215.80
779.33	215.45
779.66	215.01
779.98	214.97
780.31	214.86
780.63	215.05
780.95	215.05
781.28	215.01
781.60	214.92
781.92	214.94
782.25	214.86
782.57	214.85
782.89	214.83
783.22	214.75
783.54	214.65
783.86	214.71
784.19	214.71
784.51	214.78
784.83	214.66
785.16	214.57
785.48	214.53
785.80	214.48
786.12	214.48
786.45	214.49
786.77	214.50
787.09	214.53
787.42	214.32
787.74	214.25
788.06	214.29
788.38	214.29
788.71	214.19
789.03	214.19
789.35	214.25
789.67	214.14
789.99	214.16
790.32	214.15
790.64	214.14
790.96	214.40
791.28	214.31
791.61	214.30
791.93	214.26
792.25	214.33
792.57	214.61
792.89	214.51
793.21	214.52
793.54	214.50
793.86	214.44
794.18	214.47
794.50	214.40
794.82	214.31
795.14	214.32
795.47	214.41
795.79	214.45
796.11	214.30
796.43	214.25
796.75	214.23
797.07	214.18
797.39	214.12
797.71	213.83
798.04	213.85
798.36	213.84
798.68	213.82
799.00	213.86
799.32	213.63
799.64	213.68
799.96	213.61
800.28	213.65
800.60	213.62
800.92	213.63
801.24	213.60
801.56	213.65
801.89	213.61
802.21	213.61
802.53	213.55
802.85	213.61
803.17	213.70
803.49	213.70
803.81	213.66
804.13	213.62
804.45	213.59
804.77	213.63
805.09	213.65
805.41	213.66
805.73	213.51
806.05	213.44
806.37	213.46
806.69	213.45
807.01	213.44
807.33	213.41
807.65	213.29
807.97	213.41
808.28	213.33
808.60	213.36
808.92	213.31
809.24	213.49
809.56	213.50
809.88	213.45
810.20	213.41
810.52	213.41
810.84	213.35
811.16	213.35
811.48	213.28
811.80	213.32
812.12	213.27
812.43	213.34
812.75	213.40
813.07	213.37
813.39	213.36
813.71	213.29
814.03	213.23
814.35	213.20
814.67	213.10
814.98	213.13
815.30	213.09
815.62	213.00
815.94	212.73
816.26	212.63
816.58	212.54
816.89	212.54
817.21	212.46
817.53	212.48
817.85	212.45
818.17	212.43
818.48	212.26
818.80	212.39
819.12	212.23
819.44	212.07
819.76	211.95
820.07	211.98
820.39	211.93
820.71	211.93
821.03	211.92
821.34	211.91
821.66	211.85
821.98	211.79
822.30	211.78
822.61	212.03
822.93	212.00
823.25	212.02
823.57	211.94
823.88	212.09
824.20	212.09
824.52	212.10
824.83	212.00
825.15	212.00
825.47	211.89
825.79	211.91
826.10	211.89
826.42	211.94
826.74	211.95
827.05	211.98
827.37	212.03
827.69	211.98
828.00	211.87
828.32	211.88
828.64	211.84
828.95	212.02
829.27	211.85
829.58	211.82
829.90	211.84
830.22	211.90
830.53	211.70
830.85	211.66
831.17	211.65
831.48	211.65
831.80	211.65
832.11	211.62
832.43	211.63
832.75	211.69
833.06	211.83
833.38	211.68
833.69	211.63
834.01	211.61
834.32	211.60
834.64	211.69
834.96	211.65
835.27	211.65
835.59	211.48
835.90	211.43
836.22	211.41
836.53	211.37
836.85	211.36
837.16	211.75
837.48	211.74
837.79	211.75
838.11	211.82
838.42	211.87
838.74	211.89
839.05	211.91
839.37	211.88
839.68	211.70
840.00	211.75
840.31	211.81
840.63	211.75
840.94	211.77
841.26	211.70
841.57	211.72
841.88	211.71
842.20	211.68
842.51	211.60
842.83	211.60
843.14	211.94
843.46	211.91
843.77	211.76
844.08	211.81
844.40	211.80
844.71	211.78
845.03	211.64
845.34	211.60
845.65	211.53
845.97	211.57
846.28	211.48
846.60	211.51
846.91	211.45
847.22	211.42
847.54	211.51
847.85	211.51
848.16	211.53
848.48	211.53
848.79	211.72
849.10	211.82
849.42	211.97
849.73	211.57
850.04	211.60
850.36	211.43
850.67	211.45
850.98	211.40
851.30	211.42
851.61	211.49
851.92	211.56
852.23	211.74
852.55	211.72
852.86	211.81
853.17	211.79
853.49	211.90
853.80	212.03
854.11	212.04
854.42	212.10
854.74	212.07
855.05	212.06
855.36	211.92
855.67	211.91
855.99	211.82
856.30	212.26
856.61	212.16
856.92	212.17
857.23	212.17
857.55	212.14
857.86	212.15
858.17	212.21
858.48	212.07
858.79	211.98
859.11	211.98
859.42	211.96
859.73	211.92
860.04	211.86
860.35	211.61
860.66	211.56
860.98	211.59
861.29	211.61
861.60	211.59
861.91	211.61
862.22	211.59
862.53	211.55
862.84	211.10
863.16	211.30
863.47	211.25
863.78	211.20
864.09	211.27
864.40	211.27
864.71	211.24
865.02	211.35
865.33	211.24
865.64	211.13
865.95	211.11
866.27	211.37
866.58	211.31
866.89	211.46
867.20	211.33
867.51	211.23
867.82	211.23
868.13	211.25
868.44	211.16
868.75	211.22
869.06	211.25
869.37	211.34
869.68	211.20
869.99	211.23
870.30	211.26
870.61	211.23
870.92	211.12
871.23	211.13
871.54	211.17
871.85	211.25
872.16	211.37
872.47	211.33
872.78	211.08
873.09	211.08
873.40	211.00
873.71	211.11
874.02	211.13
874.33	211.07
874.64	211.08
874.95	211.15
875.26	211.00
875.56	210.97
875.87	210.93
876.18	210.87
876.49	211.23
876.80	211.15
877.11	211.08
877.42	211.19
877.73	211.20
878.04	211.16
878.35	211.23
878.66	211.22
878.96	211.21
879.27	211.18
879.58	211.17
879.89	211.21
880.20	211.30
880.51	211.27
880.82	211.23
881.12	211.30
881.43	211.19
881.74	211.21
882.05	211.20
882.36	211.22
882.67	211.25
882.97	210.88
883.28	210.85
883.59	210.90
883.90	210.86
884.21	210.90
884.51	210.90
884.82	210.81
885.13	210.82
885.44	210.85
885.74	210.92
886.05	210.98
886.36	211.03
886.67	210.89
886.98	211.08
887.28	211.21
887.59	211.12
887.90	211.26
888.20	211.26
888.51	211.33
888.82	211.31
889.13	211.34
889.43	211.60
889.74	211.62
890.05	211.52
890.35	211.51
890.66	211.47
890.97	211.39
891.28	211.37
891.58	211.40
891.89	211.41
892.20	211.27
892.50	211.29
892.81	211.27
893.12	211.24
893.42	211.10
893.73	211.09
894.04	211.12
894.34	211.13
894.65	211.12
894.95	211.08
895.26	211.07
895.57	211.23
895.87	210.98
896.18	211.06
896.48	211.20
896.79	211.18
897.10	211.24
897.40	211.29
897.71	211.36
898.01	211.32
898.32	211.40
898.63	211.44
898.93	211.31
899.24	211.25
899.54	211.28
899.85	211.24
900.15	211.18
900.46	211.20
900.76	211.18
901.07	211.21
901.38	211.26
901.68	211.34
901.99	211.17
902.29	211.11
902.60	211.08
902.90	211.00
903.21	210.98
903.51	210.91
903.82	210.98
904.12	211.02
904.43	211.05
904.73	210.94
905.03	211.00
905.34	211.39
905.64	211.40
905.95	211.41
906.25	211.44
906.56	211.44
906.86	211.43
907.17	211.34
907.47	211.33
907.77	211.27
908.08	211.16
908.38	211.20
908.69	211.32
908.99	211.35
909.30	211.30
909.60	211.32
909.90	211.31
910.21	211.19
910.51	211.05
910.81	211.09
911.12	211.12
911.42	211.14
911.73	210.83
912.03	210.85
912.33	210.85
912.64	210.85
912.94	210.77
913.24	210.77
913.55	210.79
913.85	210.78
914.15	210.85
914.46	210.92
914.76	210.85
915.06	210.80
915.37	210.77
915.67	210.78
915.97	210.82
916.27	210.75
916.58	210.83
916.88	210.82
917.18	210.77
917.49	211.04
917.79	210.94
918.09	211.02
918.39	211.25
918.70	211.27
919.00	211.27
919.30	211.52
919.60	211.45
919.91	211.48
920.21	211.52
920.51	211.43
920.81	211.40
921.12	211.45
921.42	211.36
921.72	211.40
922.02	211.46
922.32	211.46
922.63	211.51
922.93	211.60
923.23	211.67
923.53	211.58
923.83	211.39
924.13	211.52
924.44	211.47
924.74	211.37
925.04	211.45
925.34	211.45
925.64	211.29
925.94	211.27
926.24	211.44
926.55	211.43
926.85	211.49
927.15	211.50
927.45	211.50
927.75	211.59
928.05	211.56
928.35	211.54
928.65	211.59
928.95	211.65
929.26	211.54
929.56	211.60
929.86	211.72
930.16	211.72
930.46	211.68
930.76	211.71
931.06	211.59
931.36	211.52
931.66	211.57
931.96	211.63
932.26	211.65
932.56	211.52
932.86	211.46
933.16	211.44
933.46	211.37
933.76	211.33
934.06	211.41
934.36	211.52
934.66	211.47
934.96	211.43
935.26	211.34
935.56	211.35
935.86	211.21
936.16	211.15
936.46	211.03
936.76	210.94
937.06	210.83
937.36	210.78
937.66	210.78
937.96	210.74
938.26	210.63
938.56	210.64
938.86	210.61
939.16	210.71
939.46	210.72
939.76	210.77
940.06	210.75
940.35	210.59
940.65	210.49
940.95	210.50
941.25	210.41
941.55	210.41
941.85	210.31
942.15	210.42
942.45	210.50
942.75	210.51
943.04	210.61
943.34	210.70
943.64	210.70
943.94	210.69
944.24	210.70
944.54	210.74
944.84	210.72
945.13	210.64
945.43	210.56
945.73	210.57
946.03	210.51
946.33	210.51
946.62	210.50
946.92	210.46
947.22	210.53
947.52	210.57
947.82	210.65
948.11	210.68
948.41	210.57
948.71	210.47
949.01	210.54
949.31	210.50
949.60	210.52
949.90	210.64
950.20	210.61
950.50	210.54
950.79	210.48
951.09	210.59
951.39	210.60
951.69	210.58
951.98	210.65
952.28	210.64
952.58	210.62
952.87	210.69
953.17	210.70
953.47	210.61
953.76	210.66
954.06	210.58
954.36	210.55
954.66	210.58
954.95	210.70
955.25	210.66
955.55	210.72
955.84	210.60
956.14	210.60
956.44	210.61
956.73	210.62
957.03	210.71
957.32	210.67
957.62	210.72
957.92	210.82
958.21	210.76
958.51	211.18
958.81	211.30
959.10	211.34
959.40	211.41
959.69	211.53
959.99	211.56
960.29	211.57
960.58	211.57
960.88	211.65
961.17	211.61
961.47	211.57
961.76	211.50
962.06	211.60
962.36	211.58
962.65	211.56
962.95	211.61
963.24	211.54
963.54	211.51
963.83	211.50
964.13	211.51
964.42	211.43
964.72	211.19
965.01	211.16
965.31	211.14
965.60	211.05
965.90	211.21
966.19	211.13
966.49	211.21
966.78	211.29
967.08	211.35
967.37	211.31
967.67	211.25
967.96	211.29
968.26	211.27
968.55	211.21
968.85	211.26
969.14	211.26
969.43	211.24
969.73	211.23
970.02	211.22
970.32	211.09
970.61	211.04
970.91	210.92
971.20	210.87
971.49	210.82
971.79	210.84
972.08	210.63
972.38	210.62
972.67	210.52
972.96	210.46
973.26	210.40
973.55	210.48
973.85	210.55
974.14	210.50
974.43	210.54
974.73	210.54
975.02	210.43
975.31	210.41
975.61	210.43
975.90	210.43
976.19	210.38
976.49	210.37
976.78	210.45
977.07	210.47
977.37	210.42
977.66	210.41
977.95	210.36
978.24	210.34
978.54	210.46
978.83	210.49
979.12	210.51
979.42	210.51
979.71	210.48
980.00	210.50
980.29	210.58
980.59	210.49
980.88	210.58
981.17	210.59
981.46	210.61
981.76	210.57
982.05	210.63
982.34	210.68
982.63	210.74
982.93	210.72
983.22	210.82
983.51	210.81
983.80	210.91
984.09	210.98
984.39	211.01
984.68	210.89
984.97	211.01
985.26	210.93
985.55	210.92
985.85	210.87
986.14	210.93
986.43	210.97
986.72	211.02
987.01	210.87
987.30	210.94
987.59	210.96
987.89	211.02
988.18	210.97
988.47	210.95
988.76	210.99
989.05	210.93
989.34	210.85
989.63	211.00
989.92	210.95
990.22	210.89
990.51	210.89
990.80	210.89
991.09	210.86
991.38	210.90
991.67	210.83
991.96	210.78
992.25	210.81
992.54	210.73
992.83	210.72
993.12	210.72
993.41	210.71
993.70	210.76
993.99	210.79
994.28	210.86
994.58	210.91
994.87	210.79
995.16	210.91
995.45	210.95
995.74	210.79
996.03	210.86
996.32	210.93
996.61	211.01
996.90	210.99
997.19	210.90
997.48	210.97
997.77	211.00
998.06	211.00
998.34	210.88
998.63	210.87
998.92	210.86
999.21	210.96
999.50	210.95
999.79	210.82
1000.08	210.85
1000.37	210.83
1000.66	210.78
1000.95	210.91
1001.24	210.90
1001.53	210.95
1001.82	211.00
1002.11	210.93
1002.40	210.97
1002.68	211.02
1002.97	211.31
1003.26	211.32
1003.55	211.25
1003.84	211.20
1004.13	211.31
1004.42	211.36
1004.71	211.33
1004.99	211.29
1005.28	211.37
1005.57	211.42
1005.86	211.46
1006.15	211.46
1006.44	211.33
1006.72	211.42
1007.01	211.37
1007.30	211.31
1007.59	211.19
1007.88	211.17
1008.17	211.10
1008.45	211.02
1008.74	210.90
1009.03	210.72
1009.32	210.74
1009.60	210.75
1009.89	210.80
1010.18	210.71
1010.47	210.73
1010.76	210.77
1011.04	210.82
1011.33	210.77
1011.62	210.85
1011.91	210.85
1012.19	210.84
1012.48	210.91
1012.77	210.80
1013.05	210.89
1013.34	210.90
1013.63	210.95
1013.92	211.02
1014.20	211.08
1014.49	211.10
1014.78	211.17
1015.06	211.06
1015.35	211.05
1015.64	211.09
1015.92	211.09
1016.21	211.10
1016.50	211.08
1016.78	211.10
1017.07	211.14
1017.36	211.11
1017.64	210.99
1017.93	210.96
1018.22	210.91
1018.50	210.92
1018.79	210.93
1019.08	210.81
1019.36	210.85
1019.65	210.78
1019.93	210.82
1020.22	210.82
1020.51	210.99
1020.79	210.88
1021.08	210.10
1021.36	210.60
1021.65	210.20
1021.94	210.35
1022.22	210.80
1022.51	209.70
1022.79	212.45
1023.08	210.60
1023.36	214.75
1023.65	210.00
>>>>>End Processed Spectral Data<<<<<
