SpectraSuite Data File
++++++++++++++++++++++++++++++++++++
Date: Mon Feb 25 17:10:12 EST 2013
User: group
Dark Spectrum Present: No
Reference Spectrum Present: No
Number of Sampled Component Spectra: 1
Spectrometers: USB2E7196
Integration Time (usec): 104000 (USB2E7196)
Spectra Averaged: 20 (USB2E7196)
Boxcar Smoothing: 10 (USB2E7196)
Correct for Electrical Dark: No (USB2E7196)
Strobe/Lamp Enabled: No (USB2E7196)
Correct for Detector Non-linearity: No (USB2E7196)
Correct for Stray Light: No (USB2E7196)
Number of Pixels in Processed Spectrum: 2048
>>>>>Begin Processed Spectral Data<<<<<
339.09	0.00
339.48	198.50
339.86	200.35
340.24	201.25
340.63	202.50
341.01	209.25
341.39	205.10
341.78	207.85
342.16	208.50
342.54	207.95
342.93	197.90
343.31	207.86
343.69	208.42
344.07	208.89
344.46	209.36
344.84	209.80
345.22	209.86
345.60	210.18
345.99	210.36
346.37	210.47
346.75	210.61
347.13	210.63
347.52	210.72
347.90	210.90
348.28	211.00
348.66	211.07
349.05	210.94
349.43	210.97
349.81	211.10
350.19	211.07
350.57	211.18
350.96	211.22
351.34	211.30
351.72	211.35
352.10	211.46
352.48	211.47
352.87	211.42
353.25	211.48
353.63	211.55
354.01	211.57
354.39	211.65
354.77	211.73
355.15	211.99
355.54	212.01
355.92	211.98
356.30	211.99
356.68	212.32
357.06	212.43
357.44	212.45
357.82	212.53
358.20	212.68
358.58	212.72
358.97	212.76
359.35	212.94
359.73	213.10
360.11	213.14
360.49	213.27
360.87	213.39
361.25	213.51
361.63	213.56
362.01	213.63
362.39	213.72
362.77	213.73
363.15	213.62
363.53	213.69
363.91	213.74
364.29	213.77
364.67	213.44
365.05	213.46
365.43	213.55
365.81	213.54
366.19	213.67
366.57	213.85
366.95	213.85
367.33	213.80
367.71	213.73
368.09	213.68
368.47	213.63
368.85	213.62
369.23	213.60
369.61	213.47
369.99	213.53
370.37	213.49
370.75	213.63
371.13	213.56
371.51	213.47
371.89	213.40
372.27	213.33
372.65	213.39
373.03	213.38
373.41	213.22
373.78	213.17
374.16	212.98
374.54	212.79
374.92	212.70
375.30	212.63
375.68	212.57
376.06	212.63
376.44	212.53
376.82	212.49
377.19	212.42
377.57	212.38
377.95	212.24
378.33	212.12
378.71	211.87
379.09	211.97
379.47	211.90
379.84	211.84
380.22	211.79
380.60	211.57
380.98	211.54
381.36	211.53
381.73	211.43
382.11	211.52
382.49	211.45
382.87	211.40
383.25	211.33
383.62	211.68
384.00	211.54
384.38	211.57
384.76	211.62
385.13	211.69
385.51	211.62
385.89	211.56
386.27	211.55
386.64	211.52
387.02	211.39
387.40	211.36
387.78	211.37
388.15	211.39
388.53	211.40
388.91	211.31
389.29	211.21
389.66	211.31
390.04	211.18
390.42	211.18
390.79	211.20
391.17	211.20
391.55	210.81
391.92	210.75
392.30	210.73
392.68	210.58
393.05	210.55
393.43	210.57
393.81	210.56
394.18	210.53
394.56	210.57
394.94	210.61
395.31	210.57
395.69	210.63
396.06	210.67
396.44	210.71
396.82	210.70
397.19	210.91
397.57	210.84
397.95	210.84
398.32	210.78
398.70	210.82
399.07	210.77
399.45	210.80
399.82	210.76
400.20	210.69
400.58	210.69
400.95	210.52
401.33	210.59
401.70	210.83
402.08	210.81
402.45	210.81
402.83	210.89
403.20	210.93
403.58	210.85
403.95	210.89
404.33	210.90
404.71	210.96
405.08	211.20
405.46	211.33
405.83	211.47
406.21	211.55
406.58	211.60
406.96	211.74
407.33	211.84
407.70	212.08
408.08	212.45
408.45	212.66
408.83	212.97
409.20	213.06
409.58	213.02
409.95	213.31
410.33	213.55
410.70	213.66
411.08	213.94
411.45	214.29
411.82	214.47
412.20	214.87
412.57	215.36
412.95	215.40
413.32	215.72
413.69	216.05
414.07	216.40
414.44	216.86
414.82	217.29
415.19	217.77
415.56	218.32
415.94	218.72
416.31	219.34
416.68	219.96
417.06	220.69
417.43	221.48
417.81	222.22
418.18	223.06
418.55	223.90
418.93	224.80
419.30	225.66
419.67	226.70
420.04	227.69
420.42	228.66
420.79	230.13
421.16	231.35
421.54	232.81
421.91	234.14
422.28	235.53
422.66	237.01
423.03	238.65
423.40	240.06
423.77	241.60
424.15	243.15
424.52	244.79
424.89	246.63
425.26	248.37
425.64	249.99
426.01	251.73
426.38	253.66
426.75	255.67
427.13	257.69
427.50	259.62
427.87	261.68
428.24	263.80
428.61	265.63
428.99	268.15
429.36	270.37
429.73	272.82
430.10	275.31
430.47	277.86
430.85	280.24
431.22	282.94
431.59	286.13
431.96	288.85
432.33	291.91
432.70	294.93
433.08	298.35
433.45	301.81
433.82	305.12
434.19	308.74
434.56	312.37
434.93	315.76
435.30	319.42
435.68	323.29
436.05	327.10
436.42	331.00
436.79	334.35
437.16	338.14
437.53	342.09
437.90	345.86
438.27	349.73
438.64	353.77
439.01	357.52
439.38	360.55
439.75	363.89
440.13	367.53
440.50	370.94
440.87	373.73
441.24	376.56
441.61	379.78
441.98	382.23
442.35	384.89
442.72	387.84
443.09	390.62
443.46	392.26
443.83	393.36
444.20	394.28
444.57	395.61
444.94	396.31
445.31	397.09
445.68	398.17
446.05	398.42
446.42	398.04
446.79	397.68
447.16	397.21
447.53	396.87
447.90	395.51
448.27	394.15
448.64	392.30
449.01	390.88
449.37	388.34
449.74	385.90
450.11	383.32
450.48	380.16
450.85	376.66
451.22	373.95
451.59	371.31
451.96	368.79
452.33	365.39
452.70	362.28
453.07	358.52
453.43	354.48
453.80	350.87
454.17	347.45
454.54	344.12
454.91	340.56
455.28	337.05
455.65	333.81
456.02	331.06
456.38	328.25
456.75	324.94
457.12	322.09
457.49	319.34
457.86	316.38
458.23	314.04
458.59	311.70
458.96	309.07
459.33	306.86
459.70	304.52
460.07	302.66
460.43	300.63
460.80	298.77
461.17	297.08
461.54	295.26
461.91	293.50
462.27	291.80
462.64	290.35
463.01	288.85
463.38	287.41
463.74	285.29
464.11	283.80
464.48	282.57
464.85	281.28
465.21	280.29
465.58	279.08
465.95	277.73
466.32	276.50
466.68	275.41
467.05	274.27
467.42	273.21
467.78	272.08
468.15	271.06
468.52	270.21
468.88	269.11
469.25	268.16
469.62	267.49
469.98	266.69
470.35	266.04
470.72	265.25
471.08	264.31
471.45	263.75
471.82	263.34
472.18	262.57
472.55	262.05
472.92	261.40
473.28	260.89
473.65	260.34
474.02	259.89
474.38	259.57
474.75	259.20
475.11	258.80
475.48	258.50
475.85	258.18
476.21	257.91
476.58	257.72
476.94	257.67
477.31	257.44
477.67	257.25
478.04	257.01
478.41	257.00
478.77	257.35
479.14	257.16
479.50	257.07
479.87	257.17
480.23	257.27
480.60	257.30
480.96	257.45
481.33	257.72
481.69	257.85
482.06	257.91
482.42	258.03
482.79	258.21
483.15	258.41
483.52	258.75
483.88	259.00
484.25	259.29
484.61	259.50
484.98	259.74
485.34	260.28
485.71	260.85
486.07	261.25
486.44	261.40
486.80	262.02
487.17	262.51
487.53	263.19
487.90	263.82
488.26	264.68
488.62	265.43
488.99	266.03
489.35	266.93
489.72	267.79
490.08	268.75
490.44	269.70
490.81	270.79
491.17	271.68
491.54	272.82
491.90	274.04
492.26	275.34
492.63	276.70
492.99	277.92
493.36	279.27
493.72	280.67
494.08	282.16
494.45	283.67
494.81	285.47
495.17	287.13
495.54	288.94
495.90	290.67
496.26	292.55
496.63	294.70
496.99	296.67
497.35	298.76
497.72	301.02
498.08	303.25
498.44	305.58
498.80	308.15
499.17	310.72
499.53	313.29
499.89	315.90
500.26	318.64
500.62	321.41
500.98	324.35
501.34	327.39
501.71	330.53
502.07	333.73
502.43	336.79
502.79	339.88
503.16	343.24
503.52	346.57
503.88	350.00
504.24	353.53
504.60	357.26
504.97	361.18
505.33	364.92
505.69	369.14
506.05	373.16
506.41	377.27
506.78	381.29
507.14	385.42
507.50	389.91
507.86	394.39
508.22	398.88
508.59	403.39
508.95	408.20
509.31	413.11
509.67	418.02
510.03	423.10
510.39	428.35
510.75	433.52
511.12	438.84
511.48	444.19
511.84	449.62
512.20	454.97
512.56	460.53
512.92	466.24
513.28	471.90
513.64	477.78
514.00	483.55
514.37	489.59
514.73	495.53
515.09	501.53
515.45	507.37
515.81	513.52
516.17	519.77
516.53	525.86
516.89	531.87
517.25	538.12
517.61	544.45
517.97	550.66
518.33	557.02
518.69	563.49
519.05	570.04
519.41	576.66
519.77	583.52
520.13	590.06
520.49	596.66
520.85	603.24
521.21	609.86
521.57	616.68
521.93	623.17
522.29	630.01
522.65	636.59
523.01	643.57
523.37	650.22
523.73	657.09
524.09	663.83
524.45	670.86
524.81	677.75
525.17	684.79
525.53	691.74
525.89	698.59
526.25	705.62
526.61	712.22
526.97	719.04
527.33	725.80
527.68	732.92
528.04	739.63
528.40	746.09
528.76	752.87
529.12	759.66
529.48	766.67
529.84	773.53
530.20	780.49
530.56	787.32
530.91	794.41
531.27	801.38
531.63	808.26
531.99	814.99
532.35	821.65
532.71	828.06
533.07	834.93
533.42	841.78
533.78	848.11
534.14	854.84
534.50	860.88
534.86	867.33
535.21	873.41
535.57	879.91
535.93	886.35
536.29	892.58
536.65	898.96
537.00	904.80
537.36	910.42
537.72	916.16
538.08	921.94
538.44	927.51
538.79	932.99
539.15	938.47
539.51	943.87
539.87	949.41
540.22	954.66
540.58	960.15
540.94	965.26
541.29	970.32
541.65	975.08
542.01	980.26
542.37	985.12
542.72	990.01
543.08	994.47
543.44	999.33
543.79	1003.51
544.15	1007.42
544.51	1011.90
544.87	1016.65
545.22	1020.85
545.58	1024.65
545.94	1028.16
546.29	1031.48
546.65	1034.96
547.01	1038.23
547.36	1041.51
547.72	1044.96
548.07	1047.48
548.43	1049.97
548.79	1052.72
549.14	1055.45
549.50	1058.11
549.86	1060.24
550.21	1062.50
550.57	1065.05
550.92	1066.85
551.28	1069.00
551.64	1071.30
551.99	1073.42
552.35	1075.12
552.70	1076.88
553.06	1078.81
553.41	1080.88
553.77	1082.80
554.13	1084.34
554.48	1086.21
554.84	1087.70
555.19	1088.95
555.55	1090.44
555.90	1091.73
556.26	1092.68
556.61	1093.40
556.97	1093.88
557.32	1094.85
557.68	1095.06
558.03	1095.46
558.39	1096.26
558.74	1097.11
559.10	1097.74
559.45	1098.15
559.81	1098.70
560.16	1098.77
560.52	1099.10
560.87	1099.07
561.23	1098.80
561.58	1099.21
561.94	1098.91
562.29	1098.55
562.64	1098.55
563.00	1098.46
563.35	1098.68
563.71	1099.04
564.06	1099.45
564.42	1099.77
564.77	1099.92
565.12	1100.44
565.48	1100.70
565.83	1100.56
566.19	1100.57
566.54	1099.83
566.89	1099.21
567.25	1098.91
567.60	1098.97
567.96	1098.46
568.31	1098.28
568.66	1098.09
569.02	1096.85
569.37	1095.82
569.72	1095.16
570.08	1094.03
570.43	1092.78
570.78	1091.55
571.14	1090.02
571.49	1088.45
571.84	1087.04
572.20	1085.13
572.55	1083.61
572.90	1081.64
573.26	1079.71
573.61	1077.59
573.96	1075.85
574.31	1073.80
574.67	1071.34
575.02	1068.72
575.37	1066.40
575.72	1063.74
576.08	1061.36
576.43	1059.15
576.78	1057.00
577.13	1054.80
577.49	1052.68
577.84	1050.81
578.19	1048.71
578.54	1046.77
578.90	1045.05
579.25	1042.75
579.60	1040.51
579.95	1037.71
580.30	1035.55
580.66	1033.50
581.01	1031.27
581.36	1028.81
581.71	1026.56
582.06	1024.43
582.42	1022.18
582.77	1019.56
583.12	1017.25
583.47	1014.92
583.82	1013.09
584.17	1011.03
584.53	1009.01
584.88	1006.69
585.23	1004.11
585.58	1001.60
585.93	999.11
586.28	996.72
586.63	994.50
586.98	992.53
587.34	990.82
587.69	988.42
588.04	985.95
588.39	983.72
588.74	981.12
589.09	979.01
589.44	976.48
589.79	974.25
590.14	972.17
590.49	969.74
590.84	967.35
591.19	965.09
591.54	962.61
591.89	959.56
592.25	957.09
592.60	954.39
592.95	951.71
593.30	948.81
593.65	945.70
594.00	942.90
594.35	940.85
594.70	938.01
595.05	935.45
595.40	932.99
595.75	929.77
596.10	927.47
596.45	924.95
596.80	922.68
597.15	920.37
597.50	917.87
597.85	915.63
598.19	913.21
598.54	910.61
598.89	908.30
599.24	906.27
599.59	904.09
599.94	902.22
600.29	900.05
600.64	897.88
600.99	895.50
601.34	893.44
601.69	890.26
602.04	887.70
602.39	885.27
602.74	882.90
603.08	881.04
603.43	879.17
603.78	876.59
604.13	874.19
604.48	871.66
604.83	869.81
605.18	867.88
605.53	865.59
605.87	863.21
606.22	861.01
606.57	858.68
606.92	855.86
607.27	853.18
607.62	850.71
607.96	848.38
608.31	846.31
608.66	843.55
609.01	841.06
609.36	838.42
609.70	835.69
610.05	832.95
610.40	830.18
610.75	827.12
611.10	824.67
611.44	821.50
611.79	818.57
612.14	814.98
612.49	811.48
612.83	808.37
613.18	804.92
613.53	801.52
613.88	798.19
614.22	795.27
614.57	791.87
614.92	788.69
615.27	785.48
615.61	782.18
615.96	779.20
616.31	776.30
616.65	773.68
617.00	770.55
617.35	767.58
617.70	764.43
618.04	761.13
618.39	757.75
618.74	754.92
619.08	751.69
619.43	748.86
619.78	745.87
620.12	742.79
620.47	740.07
620.82	736.85
621.16	733.43
621.51	730.37
621.85	727.45
622.20	724.25
622.55	721.13
622.89	717.98
623.24	714.93
623.59	711.52
623.93	708.23
624.28	705.32
624.62	702.30
624.97	699.41
625.32	696.59
625.66	693.82
626.01	690.79
626.35	687.95
626.70	684.88
627.04	682.20
627.39	679.30
627.73	676.34
628.08	673.61
628.43	670.87
628.77	667.87
629.12	665.04
629.46	662.55
629.81	659.74
630.15	656.80
630.50	653.65
630.84	650.87
631.19	647.89
631.53	645.01
631.88	641.86
632.22	638.66
632.57	635.92
632.91	632.82
633.26	629.92
633.60	627.05
633.95	624.44
634.29	621.28
634.64	618.60
634.98	615.59
635.32	613.00
635.67	610.42
636.01	607.76
636.36	605.03
636.70	602.32
637.05	599.61
637.39	597.12
637.73	594.78
638.08	592.50
638.42	590.15
638.77	587.68
639.11	585.26
639.45	582.86
639.80	579.98
640.14	577.38
640.49	574.82
640.83	572.23
641.17	569.44
641.52	566.99
641.86	564.21
642.20	561.84
642.55	559.00
642.89	556.27
643.23	553.62
643.58	551.29
643.92	548.50
644.26	545.95
644.61	543.36
644.95	540.60
645.29	537.72
645.64	535.05
645.98	532.45
646.32	529.89
646.66	527.17
647.01	524.79
647.35	522.51
647.69	519.98
648.04	517.57
648.38	515.15
648.72	512.74
649.06	510.31
649.41	507.81
649.75	505.44
650.09	503.05
650.43	500.60
650.78	497.85
651.12	495.39
651.46	492.96
651.80	490.62
652.14	488.31
652.49	485.98
652.83	483.54
653.17	481.01
653.51	478.52
653.85	476.45
654.20	474.03
654.54	471.38
654.88	468.95
655.22	466.59
655.56	464.07
655.90	461.54
656.25	459.16
656.59	456.67
656.93	454.35
657.27	452.09
657.61	449.60
657.95	447.42
658.29	445.18
658.64	443.01
658.98	440.62
659.32	438.25
659.66	436.07
660.00	433.83
660.34	431.60
660.68	429.41
661.02	427.06
661.36	424.95
661.70	422.93
662.05	420.82
662.39	418.88
662.73	417.19
663.07	415.44
663.41	413.49
663.75	411.49
664.09	409.41
664.43	407.50
664.77	405.69
665.11	403.75
665.45	401.79
665.79	399.99
666.13	398.14
666.47	396.49
666.81	394.61
667.15	392.78
667.49	391.11
667.83	389.49
668.17	387.85
668.51	386.30
668.85	384.71
669.19	383.24
669.53	381.46
669.87	379.55
670.21	377.86
670.55	376.26
670.89	375.07
671.23	373.67
671.57	372.05
671.91	370.70
672.25	369.17
672.58	367.81
672.92	366.20
673.26	364.87
673.60	363.37
673.94	361.99
674.28	360.61
674.62	359.30
674.96	357.90
675.30	356.50
675.64	355.12
675.97	353.68
676.31	352.26
676.65	350.94
676.99	349.87
677.33	348.50
677.67	347.26
678.01	345.72
678.34	344.36
678.68	343.19
679.02	341.77
679.36	340.52
679.70	339.16
680.04	337.95
680.37	336.54
680.71	335.27
681.05	334.11
681.39	332.88
681.73	331.64
682.06	330.40
682.40	329.20
682.74	327.89
683.08	326.85
683.42	325.65
683.75	324.60
684.09	323.30
684.43	322.15
684.77	321.00
685.10	319.85
685.44	318.69
685.78	317.55
686.12	316.53
686.45	315.50
686.79	314.48
687.13	313.49
687.46	312.51
687.80	311.51
688.14	310.38
688.48	309.39
688.81	308.24
689.15	307.26
689.49	306.23
689.82	305.21
690.16	304.00
690.50	302.82
690.83	301.65
691.17	300.47
691.51	299.44
691.84	298.46
692.18	297.55
692.52	296.57
692.85	295.67
693.19	294.86
693.52	293.87
693.86	292.90
694.20	291.87
694.53	290.96
694.87	290.06
695.21	289.04
695.54	288.09
695.88	287.23
696.21	286.33
696.55	285.47
696.88	284.63
697.22	283.83
697.56	283.26
697.89	282.50
698.23	281.88
698.56	281.01
698.90	280.34
699.23	279.52
699.57	278.84
699.90	277.99
700.24	277.11
700.58	276.34
700.91	275.65
701.25	275.23
701.58	274.65
701.92	273.96
702.25	273.31
702.59	272.63
702.92	271.95
703.26	271.29
703.59	270.71
703.93	270.36
704.26	269.66
704.60	268.95
704.93	268.26
705.26	267.61
705.60	267.11
705.93	266.36
706.27	265.88
706.60	265.31
706.94	264.87
707.27	264.12
707.61	263.64
707.94	263.02
708.27	262.17
708.61	261.45
708.94	260.91
709.28	260.43
709.61	259.95
709.94	259.46
710.28	258.90
710.61	258.34
710.95	257.56
711.28	257.32
711.61	256.84
711.95	256.54
712.28	256.03
712.61	255.54
712.95	255.20
713.28	254.81
713.61	254.25
713.95	253.70
714.28	253.45
714.61	252.89
714.95	252.40
715.28	251.87
715.61	251.42
715.95	251.05
716.28	250.52
716.61	250.02
716.95	249.48
717.28	249.06
717.61	248.64
717.94	248.22
718.28	247.62
718.61	247.17
718.94	246.63
719.27	246.20
719.61	245.79
719.94	245.35
720.27	244.80
720.60	244.48
720.94	244.06
721.27	243.65
721.60	243.41
721.93	243.10
722.27	242.85
722.60	242.55
722.93	242.07
723.26	241.84
723.59	241.47
723.93	241.29
724.26	240.97
724.59	240.67
724.92	240.38
725.25	240.15
725.59	239.85
725.92	239.60
726.25	239.29
726.58	239.09
726.91	238.82
727.24	238.63
727.57	238.34
727.91	238.05
728.24	237.83
728.57	237.47
728.90	237.24
729.23	236.93
729.56	236.90
729.89	236.61
730.22	236.32
730.55	236.05
730.89	235.81
731.22	235.57
731.55	235.30
731.88	235.07
732.21	234.76
732.54	234.54
732.87	234.27
733.20	234.09
733.53	233.79
733.86	233.46
734.19	233.18
734.52	233.00
734.85	233.08
735.18	232.77
735.51	232.64
735.84	232.47
736.17	232.38
736.50	231.90
736.83	232.14
737.16	231.91
737.49	231.71
737.82	231.45
738.15	231.25
738.48	231.03
738.81	230.79
739.14	230.58
739.47	230.39
739.80	230.16
740.13	229.94
740.46	229.70
740.79	229.41
741.12	229.15
741.45	228.83
741.78	228.39
742.11	228.27
742.44	228.00
742.77	227.82
743.10	227.60
743.43	227.42
743.75	226.88
744.08	227.19
744.41	227.00
744.74	226.81
745.07	226.54
745.40	226.37
745.73	226.31
746.06	226.13
746.39	225.99
746.71	225.82
747.04	225.64
747.37	225.56
747.70	225.52
748.03	225.47
748.36	225.36
748.68	225.23
749.01	224.99
749.34	224.89
749.67	224.69
750.00	224.57
750.33	224.63
750.65	224.56
750.98	223.92
751.31	223.80
751.64	223.74
751.97	223.93
752.29	223.88
752.62	223.61
752.95	223.44
753.28	223.22
753.60	223.08
753.93	223.11
754.26	222.98
754.59	222.85
754.91	222.66
755.24	222.57
755.57	222.45
755.90	222.33
756.22	222.18
756.55	222.05
756.88	221.80
757.20	221.53
757.53	221.30
757.86	221.24
758.19	221.19
758.51	221.00
758.84	220.63
759.17	220.45
759.49	220.37
759.82	220.47
760.15	220.40
760.47	220.29
760.80	220.06
761.13	219.94
761.45	219.78
761.78	219.65
762.11	219.54
762.43	219.40
762.76	219.28
763.08	219.27
763.41	219.23
763.74	219.16
764.06	218.99
764.39	218.93
764.71	218.83
765.04	218.77
765.37	218.73
765.69	218.72
766.02	218.62
766.34	218.50
766.67	218.30
767.00	218.23
767.32	218.36
767.65	218.46
767.97	218.38
768.30	218.30
768.62	218.28
768.95	218.20
769.27	218.14
769.60	218.21
769.92	218.05
770.25	217.91
770.57	217.84
770.90	217.84
771.22	217.78
771.55	217.72
771.87	217.61
772.20	217.52
772.52	217.66
772.85	217.99
773.17	217.95
773.50	217.87
773.82	217.80
774.15	217.64
774.47	217.35
774.80	217.24
775.12	217.25
775.45	217.17
775.77	217.14
776.09	217.07
776.42	216.95
776.74	216.96
777.07	216.79
777.39	216.79
777.72	216.65
778.04	216.63
778.36	216.49
778.69	216.50
779.01	216.47
779.33	216.10
779.66	215.69
779.98	215.61
780.31	215.53
780.63	215.61
780.95	215.59
781.28	215.60
781.60	215.55
781.92	215.47
782.25	215.43
782.57	215.29
782.89	215.21
783.22	215.09
783.54	214.96
783.86	215.02
784.19	214.92
784.51	215.01
784.83	214.85
785.16	214.85
785.48	214.79
785.80	214.79
786.12	214.83
786.45	214.82
786.77	214.82
787.09	214.80
787.42	214.61
787.74	214.55
788.06	214.49
788.38	214.44
788.71	214.37
789.03	214.34
789.35	214.51
789.67	214.43
789.99	214.49
790.32	214.43
790.64	214.48
790.96	214.80
791.28	214.65
791.61	214.65
791.93	214.60
792.25	214.58
792.57	214.76
792.89	214.65
793.21	214.68
793.54	214.56
793.86	214.52
794.18	214.53
794.50	214.44
794.82	214.45
795.14	214.51
795.47	214.63
795.79	214.62
796.11	214.49
796.43	214.47
796.75	214.40
797.07	214.39
797.39	214.29
797.71	213.98
798.04	214.00
798.36	214.04
798.68	214.00
799.00	213.98
799.32	213.75
799.64	213.85
799.96	213.70
800.28	213.81
800.60	213.75
800.92	213.71
801.24	213.76
801.56	213.71
801.89	213.63
802.21	213.62
802.53	213.50
802.85	213.55
803.17	213.76
803.49	213.70
803.81	213.67
804.13	213.63
804.45	213.59
804.77	213.61
805.09	213.61
805.41	213.55
805.73	213.42
806.05	213.33
806.37	213.22
806.69	213.22
807.01	213.16
807.33	213.23
807.65	213.17
807.97	213.19
808.28	213.18
808.60	213.10
808.92	213.01
809.24	213.15
809.56	213.08
809.88	212.92
810.20	213.02
810.52	213.09
810.84	213.10
811.16	213.09
811.48	213.03
811.80	213.00
812.12	213.05
812.43	213.18
812.75	213.19
813.07	213.14
813.39	213.16
813.71	213.12
814.03	213.07
814.35	213.08
814.67	212.97
814.98	212.92
815.30	212.93
815.62	212.85
815.94	212.68
816.26	212.65
816.58	212.54
816.89	212.48
817.21	212.41
817.53	212.42
817.85	212.34
818.17	212.37
818.48	212.39
818.80	212.47
819.12	212.41
819.44	212.34
819.76	212.38
820.07	212.37
820.39	212.35
820.71	212.32
821.03	212.29
821.34	212.18
821.66	212.21
821.98	212.35
822.30	212.31
822.61	212.54
822.93	212.53
823.25	212.54
823.57	212.52
823.88	212.56
824.20	212.50
824.52	212.65
824.83	212.54
825.15	212.42
825.47	212.37
825.79	212.31
826.10	212.27
826.42	212.23
826.74	212.32
827.05	212.28
827.37	212.32
827.69	212.31
828.00	212.42
828.32	212.45
828.64	212.26
828.95	212.40
829.27	212.24
829.58	212.19
829.90	212.22
830.22	212.22
830.53	212.16
830.85	212.11
831.17	211.99
831.48	212.11
831.80	212.16
832.11	212.17
832.43	212.10
832.75	212.11
833.06	212.29
833.38	212.09
833.69	212.09
834.01	212.05
834.32	212.06
834.64	212.00
834.96	211.92
835.27	211.95
835.59	211.82
835.90	211.78
836.22	211.78
836.53	211.73
836.85	211.71
837.16	211.99
837.48	212.00
837.79	212.13
838.11	212.00
838.42	211.92
838.74	211.86
839.05	211.96
839.37	211.92
839.68	211.72
840.00	211.74
840.31	211.79
840.63	211.76
840.94	211.74
841.26	211.75
841.57	211.75
841.88	211.82
842.20	211.85
842.51	211.80
842.83	211.83
843.14	212.10
843.46	212.11
843.77	211.93
844.08	211.94
844.40	211.73
844.71	211.75
845.03	211.76
845.34	211.72
845.65	211.65
845.97	211.66
846.28	211.72
846.60	211.73
846.91	211.68
847.22	211.72
847.54	211.77
847.85	211.79
848.16	211.82
848.48	211.70
848.79	211.87
849.10	211.89
849.42	211.85
849.73	211.51
850.04	211.48
850.36	211.37
850.67	211.39
850.98	211.48
851.30	211.52
851.61	211.57
851.92	211.62
852.23	211.74
852.55	211.84
852.86	211.79
853.17	211.85
853.49	211.92
853.80	211.95
854.11	211.93
854.42	211.95
854.74	211.90
855.05	211.98
855.36	211.78
855.67	211.81
855.99	211.86
856.30	212.36
856.61	212.32
856.92	212.35
857.23	212.37
857.55	212.30
857.86	212.25
858.17	212.20
858.48	212.05
858.79	211.96
859.11	211.96
859.42	211.94
859.73	211.89
860.04	211.90
860.35	211.73
860.66	211.65
860.98	211.63
861.29	211.65
861.60	211.64
861.91	211.72
862.22	211.65
862.53	211.52
862.84	211.11
863.16	211.20
863.47	211.07
863.78	210.99
864.09	211.05
864.40	211.14
864.71	211.25
865.02	211.37
865.33	211.29
865.64	211.21
865.95	211.22
866.27	211.41
866.58	211.30
866.89	211.41
867.20	211.43
867.51	211.36
867.82	211.32
868.13	211.35
868.44	211.21
868.75	211.35
869.06	211.41
869.37	211.41
869.68	211.32
869.99	211.44
870.30	211.52
870.61	211.56
870.92	211.45
871.23	211.33
871.54	211.34
871.85	211.48
872.16	211.49
872.47	211.43
872.78	211.27
873.09	211.36
873.40	211.35
873.71	211.35
874.02	211.42
874.33	211.41
874.64	211.34
874.95	211.45
875.26	211.26
875.56	211.21
875.87	211.15
876.18	211.14
876.49	211.54
876.80	211.47
877.11	211.44
877.42	211.50
877.73	211.51
878.04	211.43
878.35	211.39
878.66	211.43
878.96	211.46
879.27	211.41
879.58	211.41
879.89	211.38
880.20	211.49
880.51	211.47
880.82	211.50
881.12	211.50
881.43	211.46
881.74	211.45
882.05	211.53
882.36	211.58
882.67	211.56
882.97	211.13
883.28	211.19
883.59	211.15
883.90	211.16
884.21	211.25
884.51	211.25
884.82	211.20
885.13	211.24
885.44	211.26
885.74	211.24
886.05	211.19
886.36	211.24
886.67	211.19
886.98	211.33
887.28	211.36
887.59	211.40
887.90	211.36
888.20	211.45
888.51	211.44
888.82	211.40
889.13	211.50
889.43	211.80
889.74	211.71
890.05	211.66
890.35	211.65
890.66	211.56
890.97	211.61
891.28	211.60
891.58	211.54
891.89	211.51
892.20	211.44
892.50	211.42
892.81	211.36
893.12	211.25
893.42	211.15
893.73	211.15
894.04	211.19
894.34	211.29
894.65	211.25
894.95	211.26
895.26	211.29
895.57	211.42
895.87	211.10
896.18	211.20
896.48	211.28
896.79	211.23
897.10	211.28
897.40	211.32
897.71	211.35
898.01	211.42
898.32	211.44
898.63	211.52
898.93	211.51
899.24	211.54
899.54	211.52
899.85	211.41
900.15	211.43
900.46	211.46
900.76	211.44
901.07	211.47
901.38	211.40
901.68	211.47
901.99	211.33
902.29	211.36
902.60	211.31
902.90	211.25
903.21	211.30
903.51	211.32
903.82	211.34
904.12	211.29
904.43	211.25
904.73	211.28
905.03	211.29
905.34	211.64
905.64	211.62
905.95	211.68
906.25	211.70
906.56	211.69
906.86	211.63
907.17	211.59
907.47	211.56
907.77	211.55
908.08	211.40
908.38	211.41
908.69	211.46
908.99	211.56
909.30	211.60
909.60	211.55
909.90	211.58
910.21	211.53
910.51	211.56
910.81	211.55
911.12	211.58
911.42	211.54
911.73	211.19
912.03	211.28
912.33	211.35
912.64	211.36
912.94	211.33
913.24	211.30
913.55	211.28
913.85	211.26
914.15	211.40
914.46	211.52
914.76	211.44
915.06	211.38
915.37	211.23
915.67	211.18
915.97	211.14
916.27	211.04
916.58	211.02
916.88	210.98
917.18	210.95
917.49	211.13
917.79	211.18
918.09	211.24
918.39	211.25
918.70	211.22
919.00	211.17
919.30	211.28
919.60	211.25
919.91	211.22
920.21	211.23
920.51	211.07
920.81	211.00
921.12	211.02
921.42	210.96
921.72	211.01
922.02	211.02
922.32	211.08
922.63	211.07
922.93	211.21
923.23	211.19
923.53	211.10
923.83	210.89
924.13	210.87
924.44	210.90
924.74	210.91
925.04	210.99
925.34	211.06
925.64	210.93
925.94	210.83
926.24	210.99
926.55	210.96
926.85	211.08
927.15	211.18
927.45	211.19
927.75	211.29
928.05	211.31
928.35	211.27
928.65	211.30
928.95	211.33
929.26	211.27
929.56	211.32
929.86	211.40
930.16	211.35
930.46	211.36
930.76	211.32
931.06	211.14
931.36	211.03
931.66	211.05
931.96	211.08
932.26	211.15
932.56	211.06
932.86	211.07
933.16	211.07
933.46	210.97
933.76	210.95
934.06	211.02
934.36	211.09
934.66	211.13
934.96	211.15
935.26	211.15
935.56	211.16
935.86	211.10
936.16	211.10
936.46	211.12
936.76	211.08
937.06	210.97
937.36	211.01
937.66	211.00
937.96	211.01
938.26	210.99
938.56	211.00
938.86	210.98
939.16	211.09
939.46	211.14
939.76	211.18
940.06	211.16
940.35	211.06
940.65	210.90
940.95	210.94
941.25	210.87
941.55	210.82
941.85	210.77
942.15	210.91
942.45	210.99
942.75	210.98
943.04	211.00
943.34	211.14
943.64	211.16
943.94	211.08
944.24	211.09
944.54	211.10
944.84	211.06
945.13	211.00
945.43	210.94
945.73	210.81
946.03	210.77
946.33	210.74
946.62	210.65
946.92	210.62
947.22	210.63
947.52	210.73
947.82	210.79
948.11	210.79
948.41	210.68
948.71	210.60
949.01	210.64
949.31	210.63
949.60	210.60
949.90	210.65
950.20	210.72
950.50	210.71
950.79	210.73
951.09	210.82
951.39	210.82
951.69	210.75
951.98	210.87
952.28	210.91
952.58	210.91
952.87	210.94
953.17	211.02
953.47	210.97
953.76	210.89
954.06	210.85
954.36	210.80
954.66	210.76
954.95	210.81
955.25	210.84
955.55	210.89
955.84	210.90
956.14	210.91
956.44	210.92
956.73	210.88
957.03	210.91
957.32	210.92
957.62	210.89
957.92	210.97
958.21	210.94
958.51	211.37
958.81	211.43
959.10	211.49
959.40	211.60
959.69	211.60
959.99	211.60
960.29	211.61
960.58	211.60
960.88	211.85
961.17	211.77
961.47	211.74
961.76	211.69
962.06	211.70
962.36	211.60
962.65	211.64
962.95	211.64
963.24	211.57
963.54	211.53
963.83	211.62
964.13	211.66
964.42	211.55
964.72	211.17
965.01	211.15
965.31	211.13
965.60	211.01
965.90	211.28
966.19	211.22
966.49	211.29
966.78	211.24
967.08	211.14
967.37	211.21
967.67	211.21
967.96	211.28
968.26	211.29
968.55	211.40
968.85	211.38
969.14	211.37
969.43	211.37
969.73	211.31
970.02	211.26
970.32	211.18
970.61	211.20
970.91	211.17
971.20	211.16
971.49	211.15
971.79	211.17
972.08	210.92
972.38	211.00
972.67	210.90
972.96	211.02
973.26	210.92
973.55	211.03
973.85	211.01
974.14	210.98
974.43	211.00
974.73	210.91
975.02	210.85
975.31	210.80
975.61	210.81
975.90	210.81
976.19	210.82
976.49	210.87
976.78	210.88
977.07	210.89
977.37	210.86
977.66	210.91
977.95	210.87
978.24	210.87
978.54	210.93
978.83	210.95
979.12	210.89
979.42	210.98
979.71	210.89
980.00	210.89
980.29	210.95
980.59	210.86
980.88	211.02
981.17	211.00
981.46	211.03
981.76	211.02
982.05	211.15
982.34	211.13
982.63	211.12
982.93	211.18
983.22	211.27
983.51	211.32
983.80	211.30
984.09	211.40
984.39	211.39
984.68	211.31
984.97	211.38
985.26	211.41
985.55	211.35
985.85	211.30
986.14	211.32
986.43	211.31
986.72	211.29
987.01	211.18
987.30	211.22
987.59	211.18
987.89	211.18
988.18	211.11
988.47	211.04
988.76	210.99
989.05	210.92
989.34	210.85
989.63	210.91
989.92	210.90
990.22	210.78
990.51	210.76
990.80	210.71
991.09	210.69
991.38	210.69
991.67	210.68
991.96	210.56
992.25	210.59
992.54	210.48
992.83	210.44
993.12	210.31
993.41	210.34
993.70	210.53
993.99	210.63
994.28	210.56
994.58	210.66
994.87	210.66
995.16	210.68
995.45	210.62
995.74	210.52
996.03	210.54
996.32	210.63
996.61	210.65
996.90	210.64
997.19	210.60
997.48	210.62
997.77	210.53
998.06	210.60
998.34	210.50
998.63	210.57
998.92	210.65
999.21	210.77
999.50	210.75
999.79	210.63
1000.08	210.59
1000.37	210.73
1000.66	210.74
1000.95	210.80
1001.24	210.79
1001.53	210.80
1001.82	210.78
1002.11	210.75
1002.40	210.76
1002.68	210.85
1002.97	211.11
1003.26	211.08
1003.55	211.04
1003.84	211.07
1004.13	211.14
1004.42	211.23
1004.71	211.16
1004.99	211.15
1005.28	211.24
1005.57	211.19
1005.86	211.13
1006.15	211.11
1006.44	210.99
1006.72	211.05
1007.01	210.90
1007.30	210.99
1007.59	210.99
1007.88	211.02
1008.17	210.98
1008.45	210.94
1008.74	210.81
1009.03	210.69
1009.32	210.68
1009.60	210.61
1009.89	210.63
1010.18	210.55
1010.47	210.47
1010.76	210.50
1011.04	210.52
1011.33	210.52
1011.62	210.57
1011.91	210.60
1012.19	210.53
1012.48	210.55
1012.77	210.47
1013.05	210.77
1013.34	210.75
1013.63	210.75
1013.92	210.77
1014.20	210.75
1014.49	210.74
1014.78	210.79
1015.06	210.67
1015.35	210.64
1015.64	210.73
1015.92	210.82
1016.21	210.88
1016.50	210.93
1016.78	210.92
1017.07	210.90
1017.36	210.84
1017.64	210.85
1017.93	210.91
1018.22	210.96
1018.50	210.94
1018.79	210.95
1019.08	210.76
1019.36	210.75
1019.65	210.81
1019.93	210.92
1020.22	211.01
1020.51	211.17
1020.79	211.17
1021.08	210.55
1021.36	209.90
1021.65	210.85
1021.94	210.85
1022.22	211.20
1022.51	212.50
1022.79	213.00
1023.08	211.45
1023.36	214.85
1023.65	210.30
>>>>>End Processed Spectral Data<<<<<
