SpectraSuite Data File
++++++++++++++++++++++++++++++++++++
Date: Mon Feb 25 17:05:48 EST 2013
User: group
Dark Spectrum Present: No
Reference Spectrum Present: No
Number of Sampled Component Spectra: 1
Spectrometers: USB2E7196
Integration Time (usec): 104000 (USB2E7196)
Spectra Averaged: 20 (USB2E7196)
Boxcar Smoothing: 10 (USB2E7196)
Correct for Electrical Dark: No (USB2E7196)
Strobe/Lamp Enabled: No (USB2E7196)
Correct for Detector Non-linearity: No (USB2E7196)
Correct for Stray Light: No (USB2E7196)
Number of Pixels in Processed Spectrum: 2048
>>>>>Begin Processed Spectral Data<<<<<
339.09	0.00
339.48	197.90
339.86	199.60
340.24	202.15
340.63	202.20
341.01	208.70
341.39	206.60
341.78	206.90
342.16	209.10
342.54	208.90
342.93	198.22
343.31	208.21
343.69	208.73
344.07	209.16
344.46	209.52
344.84	209.90
345.22	209.96
345.60	210.18
345.99	210.37
346.37	210.50
346.75	210.58
347.13	210.56
347.52	210.60
347.90	210.79
348.28	210.84
348.66	210.85
349.05	210.74
349.43	210.84
349.81	210.85
350.19	210.90
350.57	210.99
350.96	211.02
351.34	211.10
351.72	211.22
352.10	211.36
352.48	211.45
352.87	211.48
353.25	211.56
353.63	211.56
354.01	211.61
354.39	211.65
354.77	211.73
355.15	211.89
355.54	211.95
355.92	211.92
356.30	211.96
356.68	212.20
357.06	212.29
357.44	212.22
357.82	212.25
358.20	212.37
358.58	212.35
358.97	212.50
359.35	212.63
359.73	212.75
360.11	212.78
360.49	212.85
360.87	212.86
361.25	212.93
361.63	213.14
362.01	213.19
362.39	213.19
362.77	213.17
363.15	213.24
363.53	213.17
363.91	213.25
364.29	213.25
364.67	213.02
365.05	213.05
365.43	213.11
365.81	213.16
366.19	213.30
366.57	213.43
366.95	213.43
367.33	213.28
367.71	213.20
368.09	213.28
368.47	213.29
368.85	213.34
369.23	213.41
369.61	213.19
369.99	213.25
370.37	213.30
370.75	213.47
371.13	213.37
371.51	213.30
371.89	213.26
372.27	213.31
372.65	213.30
373.03	213.24
373.41	213.14
373.78	213.09
374.16	212.85
374.54	212.75
374.92	212.66
375.30	212.71
375.68	212.69
376.06	212.69
376.44	212.61
376.82	212.67
377.19	212.62
377.57	212.60
377.95	212.43
378.33	212.33
378.71	212.13
379.09	212.12
379.47	212.16
379.84	212.03
380.22	211.93
380.60	211.78
380.98	211.73
381.36	211.75
381.73	211.62
382.11	211.64
382.49	211.57
382.87	211.50
383.25	211.38
383.62	211.74
384.00	211.57
384.38	211.52
384.76	211.51
385.13	211.54
385.51	211.50
385.89	211.46
386.27	211.41
386.64	211.40
387.02	211.34
387.40	211.29
387.78	211.26
388.15	211.24
388.53	211.25
388.91	211.19
389.29	211.10
389.66	211.19
390.04	211.09
390.42	211.18
390.79	211.14
391.17	211.16
391.55	210.75
391.92	210.71
392.30	210.71
392.68	210.52
393.05	210.46
393.43	210.42
393.81	210.41
394.18	210.35
394.56	210.33
394.94	210.36
395.31	210.34
395.69	210.53
396.06	210.59
396.44	210.60
396.82	210.62
397.19	210.80
397.57	210.75
397.95	210.85
398.32	210.65
398.70	210.70
399.07	210.79
399.45	210.75
399.82	210.83
400.20	210.80
400.58	210.87
400.95	210.79
401.33	210.90
401.70	211.17
402.08	211.20
402.45	211.25
402.83	211.36
403.20	211.41
403.58	211.34
403.95	211.42
404.33	211.56
404.71	211.70
405.08	211.97
405.46	212.04
405.83	212.09
406.21	212.29
406.58	212.42
406.96	212.53
407.33	212.70
407.70	212.79
408.08	213.25
408.45	213.49
408.83	213.77
409.20	213.92
409.58	214.03
409.95	214.37
410.33	214.63
410.70	214.84
411.08	215.10
411.45	215.41
411.82	215.60
412.20	215.95
412.57	216.47
412.95	216.50
413.32	217.02
413.69	217.45
414.07	217.92
414.44	218.44
414.82	218.99
415.19	219.72
415.56	220.42
415.94	220.92
416.31	221.69
416.68	222.45
417.06	223.33
417.43	224.18
417.81	225.14
418.18	226.12
418.55	227.17
418.93	228.36
419.30	229.49
419.67	230.85
420.04	232.10
420.42	233.30
420.79	235.10
421.16	236.63
421.54	238.43
421.91	240.12
422.28	241.76
422.66	243.59
423.03	245.51
423.40	247.41
423.77	249.44
424.15	251.43
424.52	253.53
424.89	255.95
425.26	258.10
425.64	260.27
426.01	262.65
426.38	265.12
426.75	267.70
427.13	270.32
427.50	272.98
427.87	275.80
428.24	278.63
428.61	281.22
428.99	284.27
429.36	287.38
429.73	290.53
430.10	293.81
430.47	297.12
430.85	300.32
431.22	303.88
431.59	307.86
431.96	311.50
432.33	315.59
432.70	319.46
433.08	324.13
433.45	328.48
433.82	332.92
434.19	337.67
434.56	342.56
434.93	347.16
435.30	351.77
435.68	356.90
436.05	362.07
436.42	367.11
436.79	371.82
437.16	376.83
437.53	382.13
437.90	387.35
438.27	392.64
438.64	398.07
439.01	403.20
439.38	407.50
439.75	411.89
440.13	416.83
440.50	421.66
440.87	425.62
441.24	429.79
441.61	434.12
441.98	437.54
442.35	441.30
442.72	445.22
443.09	449.28
443.46	451.54
443.83	453.06
444.20	454.63
444.57	456.64
444.94	457.84
445.31	459.08
445.68	460.61
446.05	461.19
446.42	460.89
446.79	460.51
447.16	460.06
447.53	459.95
447.90	458.17
448.27	456.51
448.64	454.00
449.01	452.24
449.37	449.16
449.74	446.06
450.11	442.49
450.48	438.41
450.85	433.86
451.22	430.43
451.59	427.16
451.96	423.81
452.33	419.31
452.70	415.21
453.07	410.26
453.43	404.95
453.80	400.13
454.17	395.65
454.54	391.28
454.91	386.65
455.28	382.06
455.65	377.99
456.02	374.06
456.38	370.43
456.75	365.88
457.12	362.00
457.49	358.19
457.86	354.29
458.23	351.21
458.59	347.83
458.96	344.33
459.33	341.26
459.70	338.16
460.07	335.71
460.43	332.90
460.80	330.30
461.17	328.02
461.54	325.60
461.91	323.21
462.27	320.79
462.64	318.74
463.01	316.52
463.38	314.38
463.74	311.69
464.11	309.80
464.48	308.13
464.85	306.37
465.21	305.11
465.58	303.69
465.95	301.83
466.32	300.39
466.68	298.86
467.05	297.32
467.42	295.76
467.78	294.25
468.15	292.74
468.52	291.67
468.88	290.17
469.25	288.92
469.62	287.91
469.98	286.82
470.35	285.82
470.72	284.74
471.08	283.61
471.45	282.82
471.82	281.97
472.18	280.92
472.55	280.16
472.92	279.16
473.28	278.32
473.65	277.61
474.02	276.82
474.38	276.29
474.75	275.82
475.11	275.31
475.48	274.80
475.85	274.30
476.21	273.72
476.58	273.34
476.94	273.03
477.31	272.67
477.67	272.41
478.04	272.17
478.41	271.97
478.77	272.03
479.14	271.73
479.50	271.54
479.87	271.49
480.23	271.40
480.60	271.36
480.96	271.25
481.33	271.31
481.69	271.35
482.06	271.32
482.42	271.31
482.79	271.27
483.15	271.43
483.52	271.64
483.88	271.83
484.25	272.02
484.61	272.08
484.98	272.26
485.34	272.58
485.71	272.90
486.07	273.25
486.44	273.28
486.80	273.58
487.17	273.94
487.53	274.53
487.90	274.98
488.26	275.58
488.62	276.25
488.99	276.78
489.35	277.35
489.72	277.99
490.08	278.54
490.44	279.30
490.81	280.03
491.17	280.83
491.54	281.63
491.90	282.49
492.26	283.45
492.63	284.34
492.99	285.15
493.36	286.06
493.72	287.13
494.08	288.21
494.45	289.44
494.81	290.55
495.17	291.59
495.54	292.83
495.90	293.96
496.26	295.06
496.63	296.29
496.99	297.54
497.35	298.82
497.72	300.17
498.08	301.37
498.44	302.65
498.80	304.06
499.17	305.33
499.53	306.64
499.89	308.14
500.26	309.65
500.62	311.02
500.98	312.58
501.34	313.91
501.71	315.28
502.07	316.62
502.43	317.95
502.79	319.21
503.16	320.47
503.52	321.76
503.88	323.02
504.24	324.34
504.60	325.70
504.97	327.14
505.33	328.53
505.69	330.07
506.05	331.45
506.41	332.76
506.78	334.10
507.14	335.31
507.50	336.55
507.86	337.75
508.22	339.12
508.59	340.21
508.95	341.42
509.31	342.90
509.67	344.25
510.03	345.61
510.39	346.85
510.75	348.25
511.12	349.52
511.48	350.82
511.84	352.08
512.20	353.25
512.56	354.36
512.92	355.53
513.28	356.74
513.64	357.86
514.00	359.02
514.37	360.29
514.73	361.55
515.09	362.65
515.45	363.76
515.81	364.86
516.17	365.99
516.53	367.20
516.89	368.10
517.25	369.15
517.61	370.34
517.97	371.48
518.33	372.50
518.69	373.64
519.05	374.98
519.41	376.19
519.77	377.64
520.13	378.86
520.49	380.07
520.85	381.24
521.21	382.58
521.57	383.83
521.93	385.06
522.29	386.39
522.65	387.76
523.01	389.17
523.37	390.55
523.73	391.99
524.09	393.50
524.45	395.10
524.81	396.64
525.17	398.26
525.53	400.07
525.89	401.79
526.25	403.64
526.61	405.19
526.97	406.99
527.33	408.71
527.68	410.92
528.04	412.84
528.40	414.77
528.76	416.73
529.12	418.85
529.48	421.08
529.84	423.30
530.20	425.57
530.56	427.95
530.91	430.47
531.27	432.86
531.63	435.30
531.99	437.82
532.35	440.20
532.71	442.62
533.07	445.14
533.42	447.98
533.78	450.46
534.14	453.22
534.50	455.58
534.86	458.12
535.21	460.46
535.57	463.13
535.93	465.80
536.29	468.77
536.65	471.45
537.00	473.95
537.36	476.51
537.72	479.23
538.08	481.90
538.44	484.45
538.79	487.30
539.15	490.00
539.51	492.65
539.87	495.43
540.22	498.20
540.58	501.03
540.94	503.66
541.29	506.43
541.65	509.04
542.01	512.13
542.37	515.01
542.72	517.91
543.08	520.68
543.44	523.68
543.79	526.10
544.15	529.00
544.51	532.17
544.87	535.12
545.22	537.97
545.58	540.69
545.94	543.45
546.29	546.13
546.65	548.91
547.01	551.65
547.36	554.64
547.72	557.41
548.07	560.03
548.43	562.50
548.79	565.20
549.14	567.91
549.50	570.41
549.86	572.94
550.21	575.26
550.57	577.82
550.92	580.09
551.28	582.70
551.64	585.19
551.99	587.53
552.35	589.84
552.70	592.17
553.06	594.53
553.41	597.09
553.77	599.47
554.13	601.74
554.48	603.96
554.84	606.04
555.19	608.17
555.55	610.41
555.90	612.58
556.26	614.68
556.61	616.61
556.97	618.55
557.32	620.53
557.68	622.50
558.03	624.52
558.39	626.55
558.74	628.53
559.10	630.23
559.45	632.06
559.81	634.08
560.16	635.59
560.52	637.55
560.87	639.20
561.23	640.87
561.58	642.89
561.94	644.49
562.29	645.99
562.64	647.57
563.00	649.02
563.35	650.72
563.71	652.43
564.06	654.01
564.42	655.63
564.77	657.31
565.12	659.19
565.48	661.04
565.83	662.65
566.19	664.19
566.54	665.55
566.89	666.76
567.25	668.14
567.60	669.59
567.96	670.93
568.31	672.24
568.66	673.28
569.02	673.92
569.37	674.95
569.72	676.09
570.08	676.98
570.43	677.88
570.78	678.43
571.14	678.81
571.49	679.39
571.84	680.17
572.20	680.50
572.55	680.87
572.90	680.64
573.26	680.65
573.61	680.63
573.96	680.88
574.31	680.96
574.67	680.83
575.02	680.70
575.37	680.20
575.72	679.78
576.08	679.74
576.43	679.56
576.78	679.38
577.13	679.05
577.49	679.00
577.84	678.78
578.19	678.73
578.54	678.94
578.90	679.00
579.25	678.64
579.60	678.25
579.95	677.74
580.30	677.64
580.66	677.52
581.01	677.25
581.36	676.82
581.71	676.54
582.06	676.39
582.42	676.11
582.77	675.72
583.12	675.40
583.47	675.03
583.82	674.61
584.17	674.28
584.53	674.01
584.88	673.52
585.23	673.18
585.58	672.70
585.93	671.89
586.28	671.31
586.63	670.77
586.98	670.38
587.34	669.99
587.69	669.46
588.04	668.82
588.39	668.26
588.74	667.60
589.09	667.23
589.44	666.41
589.79	665.90
590.14	665.26
590.49	664.47
590.84	663.63
591.19	663.20
591.54	662.49
591.89	661.35
592.25	660.69
592.60	659.69
592.95	658.69
593.30	657.69
593.65	656.57
594.00	655.45
594.35	655.51
594.70	654.46
595.05	653.46
595.40	652.48
595.75	651.29
596.10	650.32
596.45	649.12
596.80	648.26
597.15	647.29
597.50	646.35
597.85	645.60
598.19	644.69
598.54	643.60
598.89	642.46
599.24	641.91
599.59	640.70
599.94	639.86
600.29	639.07
600.64	638.20
600.99	637.24
601.34	636.49
601.69	634.48
602.04	633.45
602.39	632.39
602.74	631.58
603.08	630.71
603.43	630.13
603.78	629.15
604.13	628.01
604.48	626.90
604.83	626.12
605.18	625.28
605.53	624.29
605.87	623.24
606.22	622.38
606.57	621.07
606.92	619.93
607.27	618.69
607.62	617.40
607.96	616.36
608.31	615.45
608.66	614.24
609.01	613.10
609.36	611.87
609.70	610.65
610.05	609.12
610.40	607.90
610.75	606.27
611.10	604.99
611.44	603.35
611.79	601.96
612.14	600.26
612.49	598.51
612.83	596.83
613.18	595.20
613.53	593.64
613.88	591.90
614.22	590.32
614.57	588.64
614.92	587.01
615.27	585.29
615.61	583.39
615.96	581.61
616.31	579.99
616.65	578.64
617.00	576.97
617.35	575.37
617.70	573.60
618.04	571.81
618.39	569.83
618.74	568.40
619.08	566.50
619.43	564.89
619.78	563.15
620.12	561.55
620.47	559.86
620.82	557.82
621.16	556.16
621.51	554.53
621.85	552.90
622.20	551.21
622.55	549.39
622.89	547.59
623.24	545.93
623.59	543.98
623.93	542.11
624.28	540.33
624.62	538.85
624.97	537.29
625.32	535.52
625.66	533.93
626.01	532.07
626.35	530.51
626.70	528.63
627.04	527.07
627.39	525.28
627.73	523.61
628.08	522.18
628.43	520.44
628.77	518.58
629.12	516.67
629.46	515.16
629.81	513.47
630.15	511.93
630.50	510.22
630.84	508.44
631.19	506.58
631.53	504.94
631.88	502.79
632.22	500.82
632.57	499.30
632.91	497.57
633.26	495.94
633.60	494.24
633.95	492.93
634.29	491.18
634.64	489.65
634.98	487.80
635.32	486.14
635.67	484.67
636.01	483.22
636.36	481.61
636.70	479.95
637.05	478.35
637.39	476.78
637.73	475.25
638.08	474.01
638.42	472.62
638.77	471.16
639.11	469.75
639.45	468.22
639.80	466.39
640.14	464.71
640.49	463.01
640.83	461.33
641.17	459.44
641.52	457.77
641.86	455.97
642.20	454.66
642.55	452.77
642.89	450.91
643.23	449.16
643.58	447.76
643.92	445.92
644.26	444.35
644.61	442.70
644.95	440.95
645.29	439.13
645.64	437.42
645.98	435.66
646.32	434.07
646.66	432.25
647.01	430.65
647.35	429.11
647.69	427.51
648.04	426.02
648.38	424.43
648.72	422.80
649.06	421.21
649.41	419.45
649.75	417.99
650.09	416.55
650.43	415.00
650.78	413.19
651.12	411.69
651.46	410.05
651.80	408.46
652.14	406.86
652.49	405.38
652.83	403.74
653.17	402.10
653.51	400.47
653.85	399.17
654.20	397.77
654.54	396.15
654.88	394.65
655.22	393.15
655.56	391.46
655.90	389.98
656.25	388.45
656.59	386.82
656.93	385.25
657.27	383.87
657.61	382.20
657.95	380.80
658.29	379.17
658.64	377.86
658.98	376.39
659.32	374.85
659.66	373.34
660.00	371.82
660.34	370.29
660.68	368.74
661.02	367.20
661.36	365.64
661.70	364.45
662.05	363.01
662.39	361.65
662.73	360.58
663.07	359.29
663.41	357.95
663.75	356.66
664.09	355.50
664.43	354.08
664.77	352.88
665.11	351.57
665.45	350.40
665.79	349.09
666.13	347.87
666.47	346.66
666.81	345.39
667.15	344.04
667.49	342.99
667.83	341.99
668.17	340.77
668.51	339.68
668.85	338.48
669.19	337.55
669.53	336.26
669.87	334.98
670.21	333.78
670.55	332.68
670.89	331.88
671.23	330.80
671.57	329.71
671.91	328.65
672.25	327.52
672.58	326.52
672.92	325.27
673.26	324.19
673.60	323.22
673.94	322.22
674.28	321.36
674.62	320.41
674.96	319.46
675.30	318.65
675.64	317.71
675.97	316.68
676.31	315.64
676.65	314.75
676.99	314.08
677.33	313.06
677.67	312.14
678.01	310.85
678.34	309.99
678.68	309.03
679.02	308.17
679.36	307.35
679.70	306.40
680.04	305.72
680.37	304.86
680.71	304.05
681.05	303.29
681.39	302.48
681.73	301.60
682.06	300.73
682.40	299.81
682.74	298.95
683.08	298.24
683.42	297.27
683.75	296.51
684.09	295.38
684.43	294.63
684.77	293.85
685.10	293.15
685.44	292.25
685.78	291.48
686.12	290.67
686.45	289.90
686.79	289.16
687.13	288.43
687.46	287.66
687.80	286.92
688.14	286.03
688.48	285.33
688.81	284.55
689.15	283.87
689.49	283.06
689.82	282.39
690.16	281.53
690.50	280.94
690.83	280.26
691.17	279.59
691.51	278.90
691.84	278.19
692.18	277.53
692.52	276.86
692.85	276.28
693.19	275.71
693.52	275.06
693.86	274.39
694.20	273.64
694.53	273.03
694.87	272.31
695.21	271.64
695.54	270.95
695.88	270.20
696.21	269.41
696.55	268.87
696.88	268.20
697.22	267.50
697.56	266.93
697.89	266.27
698.23	265.81
698.56	265.24
698.90	264.70
699.23	264.10
699.57	263.45
699.90	262.82
700.24	262.14
700.58	261.56
700.91	260.93
701.25	260.65
701.58	260.12
701.92	259.69
702.25	259.19
702.59	258.66
702.92	258.19
703.26	257.75
703.59	257.18
703.93	257.00
704.26	256.70
704.60	256.14
704.93	255.71
705.26	255.20
705.60	254.83
705.93	254.26
706.27	253.95
706.60	253.67
706.94	253.42
707.27	252.97
707.61	252.55
707.94	252.15
708.27	251.44
708.61	250.94
708.94	250.47
709.28	250.06
709.61	249.62
709.94	249.29
710.28	248.97
710.61	248.70
710.95	248.01
711.28	247.83
711.61	247.51
711.95	247.18
712.28	246.67
712.61	246.25
712.95	246.13
713.28	245.86
713.61	245.52
713.95	245.05
714.28	244.80
714.61	244.42
714.95	244.07
715.28	243.81
715.61	243.53
715.95	243.30
716.28	242.94
716.61	242.66
716.95	242.33
717.28	241.97
717.61	241.64
717.94	241.38
718.28	240.82
718.61	240.52
718.94	240.14
719.27	239.94
719.61	239.67
719.94	239.36
720.27	238.85
720.60	238.49
720.94	238.19
721.27	237.92
721.60	237.70
721.93	237.49
722.27	237.38
722.60	237.13
722.93	236.79
723.26	236.62
723.59	236.28
723.93	236.09
724.26	235.84
724.59	235.59
724.92	235.35
725.25	235.27
725.59	234.96
725.92	234.79
726.25	234.58
726.58	234.36
726.91	234.09
727.24	233.99
727.57	233.75
727.91	233.50
728.24	233.31
728.57	233.13
728.90	232.94
729.23	232.53
729.56	232.52
729.89	232.30
730.22	232.05
730.55	231.95
730.89	231.70
731.22	231.52
731.55	231.27
731.88	231.06
732.21	230.73
732.54	230.60
732.87	230.35
733.20	230.09
733.53	229.93
733.86	229.79
734.19	229.47
734.52	229.29
734.85	229.38
735.18	229.19
735.51	229.06
735.84	228.85
736.17	228.75
736.50	228.42
736.83	228.67
737.16	228.50
737.49	228.38
737.82	228.20
738.15	227.99
738.48	227.89
738.81	227.71
739.14	227.47
739.47	227.22
739.80	227.05
740.13	226.97
740.46	226.74
740.79	226.48
741.12	226.38
741.45	226.17
741.78	225.76
742.11	225.68
742.44	225.39
742.77	225.41
743.10	225.21
743.43	225.05
743.75	224.50
744.08	224.87
744.41	224.54
744.74	224.48
745.07	224.31
745.40	224.12
745.73	224.17
746.06	224.08
746.39	224.07
746.71	223.94
747.04	223.76
747.37	223.69
747.70	223.65
748.03	223.59
748.36	223.51
748.68	223.42
749.01	223.16
749.34	223.15
749.67	223.01
750.00	223.00
750.33	223.12
750.65	223.07
750.98	222.50
751.31	222.55
751.64	222.36
751.97	222.51
752.29	222.43
752.62	222.16
752.95	222.07
753.28	221.85
753.60	221.72
753.93	221.71
754.26	221.54
754.59	221.33
754.91	221.15
755.24	221.09
755.57	220.90
755.90	220.88
756.22	220.75
756.55	220.59
756.88	220.34
757.20	220.01
757.53	219.82
757.86	219.72
758.19	219.60
758.51	219.41
758.84	219.12
759.17	218.98
759.49	218.97
759.82	219.01
760.15	218.99
760.47	218.98
760.80	218.74
761.13	218.74
761.45	218.60
761.78	218.54
762.11	218.49
762.43	218.40
762.76	218.27
763.08	218.20
763.41	218.11
763.74	218.09
764.06	218.00
764.39	217.94
764.71	217.86
765.04	217.67
765.37	217.68
765.69	217.57
766.02	217.48
766.34	217.29
766.67	217.05
767.00	217.05
767.32	217.11
767.65	217.34
767.97	217.16
768.30	217.20
768.62	217.13
768.95	216.97
769.27	216.98
769.60	216.93
769.92	216.78
770.25	216.67
770.57	216.57
770.90	216.43
771.22	216.33
771.55	216.28
771.87	216.24
772.20	216.11
772.52	216.37
772.85	216.74
773.17	216.78
773.50	216.75
773.82	216.58
774.15	216.32
774.47	216.04
774.80	216.07
775.12	215.92
775.45	215.90
775.77	215.91
776.09	215.88
776.42	215.80
776.74	215.85
777.07	215.74
777.39	215.72
777.72	215.72
778.04	215.75
778.36	215.69
778.69	215.69
779.01	215.72
779.33	215.33
779.66	214.92
779.98	214.82
780.31	214.75
780.63	214.94
780.95	215.00
781.28	214.91
781.60	214.80
781.92	214.79
782.25	214.68
782.57	214.59
782.89	214.48
783.22	214.46
783.54	214.33
783.86	214.38
784.19	214.29
784.51	214.39
784.83	214.24
785.16	214.26
785.48	214.18
785.80	214.22
786.12	214.20
786.45	214.17
786.77	214.15
787.09	214.15
787.42	213.83
787.74	213.88
788.06	213.92
788.38	213.91
788.71	213.86
789.03	213.89
789.35	213.98
789.67	213.97
789.99	214.00
790.32	213.99
790.64	213.94
790.96	214.27
791.28	214.09
791.61	214.11
791.93	214.03
792.25	214.04
792.57	214.19
792.89	214.14
793.21	214.10
793.54	214.07
793.86	214.00
794.18	214.11
794.50	213.92
794.82	213.83
795.14	213.82
795.47	213.90
795.79	213.88
796.11	213.67
796.43	213.64
796.75	213.55
797.07	213.51
797.39	213.53
797.71	213.16
798.04	213.20
798.36	213.19
798.68	213.15
799.00	213.21
799.32	213.02
799.64	213.10
799.96	213.08
800.28	213.10
800.60	213.05
800.92	213.03
801.24	213.03
801.56	213.08
801.89	213.10
802.21	213.04
802.53	212.97
802.85	213.07
803.17	213.25
803.49	213.18
803.81	213.17
804.13	213.13
804.45	213.09
804.77	213.14
805.09	213.13
805.41	213.03
805.73	212.93
806.05	212.78
806.37	212.76
806.69	212.80
807.01	212.75
807.33	212.85
807.65	212.72
807.97	212.92
808.28	212.80
808.60	212.74
808.92	212.71
809.24	212.93
809.56	212.84
809.88	212.67
810.20	212.74
810.52	212.75
810.84	212.68
811.16	212.68
811.48	212.58
811.80	212.68
812.12	212.75
812.43	212.82
812.75	212.92
813.07	212.82
813.39	212.79
813.71	212.81
814.03	212.70
814.35	212.73
814.67	212.54
814.98	212.54
815.30	212.55
815.62	212.47
815.94	212.23
816.26	212.21
816.58	212.13
816.89	212.12
817.21	212.11
817.53	212.10
817.85	212.14
818.17	212.08
818.48	211.93
818.80	212.02
819.12	211.93
819.44	211.83
819.76	211.93
820.07	211.89
820.39	211.78
820.71	211.84
821.03	211.88
821.34	211.76
821.66	211.84
821.98	211.83
822.30	211.82
822.61	212.06
822.93	212.10
823.25	212.04
823.57	212.04
823.88	212.09
824.20	212.08
824.52	212.06
824.83	212.13
825.15	212.13
825.47	212.05
825.79	212.01
826.10	212.02
826.42	211.92
826.74	211.99
827.05	212.00
827.37	211.98
827.69	211.88
828.00	211.93
828.32	211.91
828.64	211.95
828.95	212.11
829.27	211.98
829.58	212.00
829.90	212.08
830.22	212.10
830.53	212.01
830.85	212.02
831.17	211.99
831.48	211.97
831.80	211.94
832.11	211.97
832.43	211.96
832.75	211.90
833.06	212.09
833.38	211.92
833.69	211.94
834.01	211.86
834.32	211.89
834.64	211.89
834.96	211.95
835.27	211.86
835.59	211.74
835.90	211.69
836.22	211.63
836.53	211.59
836.85	211.51
837.16	211.85
837.48	211.81
837.79	211.93
838.11	211.91
838.42	211.95
838.74	212.01
839.05	212.00
839.37	212.04
839.68	211.84
840.00	211.84
840.31	211.94
840.63	211.99
840.94	211.96
841.26	211.98
841.57	211.89
841.88	211.97
842.20	212.01
842.51	211.98
842.83	212.05
843.14	212.34
843.46	212.40
843.77	212.17
844.08	212.21
844.40	212.10
844.71	212.03
845.03	211.97
845.34	211.97
845.65	211.98
845.97	212.04
846.28	212.03
846.60	212.09
846.91	212.01
847.22	212.00
847.54	212.09
847.85	212.08
848.16	212.08
848.48	212.03
848.79	212.12
849.10	212.17
849.42	212.13
849.73	211.82
850.04	211.78
850.36	211.69
850.67	211.72
850.98	211.73
851.30	211.79
851.61	211.81
851.92	211.73
852.23	211.85
852.55	211.78
852.86	211.84
853.17	211.92
853.49	212.00
853.80	212.07
854.11	212.05
854.42	212.12
854.74	212.12
855.05	212.13
855.36	211.94
855.67	212.01
855.99	212.06
856.30	212.51
856.61	212.48
856.92	212.49
857.23	212.56
857.55	212.50
857.86	212.51
858.17	212.59
858.48	212.51
858.79	212.46
859.11	212.53
859.42	212.50
859.73	212.41
860.04	212.33
860.35	212.26
860.66	212.16
860.98	212.09
861.29	212.05
861.60	212.04
861.91	212.13
862.22	211.97
862.53	211.86
862.84	211.46
863.16	211.60
863.47	211.64
863.78	211.59
864.09	211.71
864.40	211.80
864.71	211.76
865.02	211.74
865.33	211.67
865.64	211.60
865.95	211.50
866.27	211.75
866.58	211.74
866.89	211.74
867.20	211.73
867.51	211.71
867.82	211.74
868.13	211.82
868.44	211.67
868.75	211.74
869.06	211.78
869.37	211.71
869.68	211.55
869.99	211.53
870.30	211.48
870.61	211.42
870.92	211.29
871.23	211.22
871.54	211.39
871.85	211.45
872.16	211.54
872.47	211.60
872.78	211.37
873.09	211.38
873.40	211.38
873.71	211.42
874.02	211.44
874.33	211.43
874.64	211.35
874.95	211.44
875.26	211.35
875.56	211.33
875.87	211.39
876.18	211.40
876.49	211.81
876.80	211.78
877.11	211.71
877.42	211.69
877.73	211.71
878.04	211.62
878.35	211.60
878.66	211.52
878.96	211.57
879.27	211.56
879.58	211.58
879.89	211.50
880.20	211.65
880.51	211.64
880.82	211.60
881.12	211.63
881.43	211.57
881.74	211.57
882.05	211.52
882.36	211.56
882.67	211.57
882.97	211.14
883.28	211.12
883.59	211.11
883.90	211.17
884.21	211.20
884.51	211.16
884.82	211.11
885.13	211.18
885.44	211.10
885.74	211.07
886.05	211.01
886.36	211.08
886.67	210.92
886.98	211.12
887.28	211.18
887.59	211.15
887.90	211.15
888.20	211.23
888.51	211.30
888.82	211.18
889.13	211.16
889.43	211.45
889.74	211.40
890.05	211.38
890.35	211.31
890.66	211.31
890.97	211.25
891.28	211.20
891.58	211.12
891.89	211.14
892.20	211.19
892.50	211.17
892.81	211.08
893.12	211.08
893.42	210.85
893.73	210.81
894.04	210.85
894.34	210.84
894.65	210.77
894.95	210.75
895.26	210.82
895.57	211.01
895.87	210.64
896.18	210.70
896.48	210.74
896.79	210.75
897.10	210.76
897.40	210.84
897.71	210.94
898.01	210.92
898.32	210.94
898.63	210.87
898.93	210.89
899.24	210.94
899.54	210.93
899.85	210.92
900.15	210.96
900.46	210.95
900.76	211.01
901.07	211.02
901.38	211.02
901.68	211.02
901.99	210.86
902.29	210.94
902.60	210.94
902.90	210.95
903.21	211.00
903.51	211.01
903.82	211.12
904.12	211.03
904.43	211.08
904.73	211.10
905.03	211.20
905.34	211.53
905.64	211.49
905.95	211.50
906.25	211.50
906.56	211.45
906.86	211.40
907.17	211.41
907.47	211.40
907.77	211.29
908.08	211.24
908.38	211.23
908.69	211.23
908.99	211.33
909.30	211.33
909.60	211.37
909.90	211.33
910.21	211.18
910.51	211.19
910.81	211.23
911.12	211.19
911.42	211.12
911.73	210.70
912.03	210.76
912.33	210.79
912.64	210.76
912.94	210.77
913.24	210.73
913.55	210.68
913.85	210.66
914.15	210.76
914.46	210.77
914.76	210.71
915.06	210.66
915.37	210.59
915.67	210.54
915.97	210.52
916.27	210.43
916.58	210.41
916.88	210.42
917.18	210.35
917.49	210.65
917.79	210.62
918.09	210.75
918.39	210.82
918.70	210.81
919.00	210.82
919.30	210.98
919.60	210.92
919.91	210.92
920.21	210.93
920.51	210.88
920.81	210.92
921.12	211.01
921.42	211.05
921.72	211.01
922.02	211.07
922.32	211.09
922.63	211.15
922.93	211.36
923.23	211.37
923.53	211.35
923.83	211.04
924.13	211.07
924.44	211.08
924.74	211.15
925.04	211.19
925.34	211.27
925.64	211.18
925.94	211.25
926.24	211.47
926.55	211.41
926.85	211.44
927.15	211.43
927.45	211.45
927.75	211.45
928.05	211.51
928.35	211.47
928.65	211.48
928.95	211.45
929.26	211.27
929.56	211.33
929.86	211.37
930.16	211.44
930.46	211.45
930.76	211.45
931.06	211.27
931.36	211.19
931.66	211.25
931.96	211.22
932.26	211.24
932.56	211.00
932.86	211.05
933.16	211.12
933.46	211.04
933.76	210.95
934.06	211.02
934.36	211.20
934.66	211.20
934.96	211.15
935.26	211.21
935.56	211.36
935.86	211.25
936.16	211.19
936.46	211.14
936.76	211.15
937.06	211.05
937.36	211.04
937.66	211.09
937.96	210.98
938.26	210.88
938.56	210.85
938.86	210.94
939.16	211.04
939.46	210.98
939.76	211.04
940.06	211.04
940.35	210.92
940.65	210.63
940.95	210.65
941.25	210.69
941.55	210.62
941.85	210.45
942.15	210.53
942.45	210.59
942.75	210.50
943.04	210.47
943.34	210.60
943.64	210.54
943.94	210.38
944.24	210.44
944.54	210.45
944.84	210.41
945.13	210.29
945.43	210.18
945.73	210.20
946.03	210.16
946.33	210.14
946.62	210.05
946.92	210.01
947.22	210.07
947.52	209.96
947.82	209.99
948.11	209.97
948.41	209.88
948.71	209.81
949.01	209.89
949.31	209.84
949.60	209.77
949.90	209.91
950.20	210.02
950.50	209.92
950.79	209.91
951.09	209.99
951.39	209.99
951.69	210.00
951.98	210.03
952.28	210.04
952.58	210.05
952.87	210.13
953.17	210.19
953.47	210.14
953.76	210.14
954.06	210.12
954.36	210.13
954.66	210.22
954.95	210.35
955.25	210.43
955.55	210.50
955.84	210.53
956.14	210.48
956.44	210.47
956.73	210.52
957.03	210.56
957.32	210.58
957.62	210.64
957.92	210.64
958.21	210.69
958.51	211.10
958.81	211.15
959.10	211.16
959.40	211.26
959.69	211.25
959.99	211.30
960.29	211.33
960.58	211.31
960.88	211.43
961.17	211.35
961.47	211.27
961.76	211.20
962.06	211.16
962.36	211.14
962.65	211.14
962.95	211.13
963.24	211.10
963.54	211.08
963.83	211.05
964.13	211.16
964.42	211.09
964.72	210.81
965.01	210.84
965.31	210.86
965.60	210.74
965.90	211.02
966.19	211.01
966.49	211.05
966.78	211.05
967.08	211.02
967.37	211.04
967.67	211.05
967.96	211.16
968.26	211.20
968.55	211.29
968.85	211.31
969.14	211.30
969.43	211.29
969.73	211.24
970.02	211.25
970.32	211.12
970.61	211.09
970.91	211.03
971.20	211.00
971.49	210.97
971.79	211.12
972.08	210.80
972.38	210.79
972.67	210.71
972.96	210.76
973.26	210.65
973.55	210.78
973.85	210.77
974.14	210.72
974.43	210.66
974.73	210.58
975.02	210.54
975.31	210.56
975.61	210.60
975.90	210.60
976.19	210.56
976.49	210.61
976.78	210.56
977.07	210.50
977.37	210.52
977.66	210.54
977.95	210.48
978.24	210.52
978.54	210.59
978.83	210.61
979.12	210.66
979.42	210.66
979.71	210.55
980.00	210.55
980.29	210.54
980.59	210.57
980.88	210.64
981.17	210.66
981.46	210.66
981.76	210.65
982.05	210.75
982.34	210.81
982.63	210.77
982.93	210.81
983.22	210.90
983.51	210.82
983.80	210.81
984.09	210.78
984.39	210.84
984.68	210.80
984.97	210.83
985.26	210.76
985.55	210.80
985.85	210.78
986.14	210.84
986.43	210.84
986.72	210.81
987.01	210.78
987.30	210.77
987.59	210.70
987.89	210.75
988.18	210.63
988.47	210.51
988.76	210.55
989.05	210.56
989.34	210.50
989.63	210.61
989.92	210.60
990.22	210.64
990.51	210.57
990.80	210.56
991.09	210.53
991.38	210.59
991.67	210.58
991.96	210.56
992.25	210.54
992.54	210.52
992.83	210.55
993.12	210.49
993.41	210.60
993.70	210.80
993.99	210.86
994.28	210.96
994.58	211.14
994.87	211.11
995.16	211.10
995.45	211.12
995.74	211.05
996.03	211.08
996.32	211.10
996.61	211.16
996.90	211.11
997.19	211.09
997.48	211.07
997.77	211.03
998.06	211.01
998.34	211.00
998.63	210.97
998.92	210.97
999.21	211.05
999.50	211.10
999.79	211.05
1000.08	211.00
1000.37	210.98
1000.66	210.94
1000.95	211.09
1001.24	211.19
1001.53	211.21
1001.82	211.18
1002.11	211.17
1002.40	211.22
1002.68	211.29
1002.97	211.59
1003.26	211.51
1003.55	211.50
1003.84	211.54
1004.13	211.66
1004.42	211.64
1004.71	211.64
1004.99	211.60
1005.28	211.64
1005.57	211.53
1005.86	211.40
1006.15	211.38
1006.44	211.29
1006.72	211.24
1007.01	211.09
1007.30	210.98
1007.59	210.96
1007.88	210.99
1008.17	210.95
1008.45	210.89
1008.74	210.76
1009.03	210.55
1009.32	210.68
1009.60	210.69
1009.89	210.69
1010.18	210.53
1010.47	210.52
1010.76	210.53
1011.04	210.62
1011.33	210.63
1011.62	210.63
1011.91	210.63
1012.19	210.60
1012.48	210.67
1012.77	210.70
1013.05	210.83
1013.34	210.82
1013.63	210.77
1013.92	210.70
1014.20	210.75
1014.49	210.76
1014.78	210.80
1015.06	210.73
1015.35	210.68
1015.64	210.77
1015.92	210.79
1016.21	210.84
1016.50	210.80
1016.78	210.78
1017.07	210.74
1017.36	210.61
1017.64	210.60
1017.93	210.65
1018.22	210.70
1018.50	210.65
1018.79	210.70
1019.08	210.58
1019.36	210.64
1019.65	210.61
1019.93	210.75
1020.22	210.72
1020.51	210.87
1020.79	210.74
1021.08	211.00
1021.36	210.25
1021.65	211.75
1021.94	210.65
1022.22	210.90
1022.51	209.50
1022.79	212.20
1023.08	210.40
1023.36	214.70
1023.65	208.10
>>>>>End Processed Spectral Data<<<<<
